"Time (s)","Acceleration x (m/s^2)","Acceleration y (m/s^2)","Acceleration z (m/s^2)"
2.220834600E-2,-6.049500108E-1,3.226050138E0,9.174000740E0
4.210685900E-2,-6.910500526E-1,3.001050234E0,8.620050430E0
6.200500400E-2,-3.390000165E-1,3.319950104E0,9.067950249E0
8.190318300E-2,5.320500135E-1,3.478050232E0,9.448950768E0
1.018014270E-1,2.710500062E-1,3.733950138E0,9.456000328E0
1.216998390E-1,-6.169500351E-1,3.925950289E0,9.190050125E0
1.415980310E-1,-1.101000071E0,3.856050253E0,8.644050598E0
1.614963010E-1,-1.371000051E0,4.327950001E0,8.140950203E0
1.813944980E-1,-1.042950034E0,4.821000099E0,7.887000561E0
2.012928870E-1,-4.200000167E-1,4.951050282E0,7.882950306E0
2.211911410E-1,-3.370500207E-1,5.074950218E0,8.041049957E0
2.410892950E-1,-1.159500033E-1,5.118000031E0,8.184000015E0
2.609876970E-1,4.095000029E-2,5.197050095E0,7.765050411E0
2.808858720E-1,-2.599500120E-1,5.323950291E0,7.303050518E0
3.007841460E-1,-8.040000200E-1,5.509050369E0,7.365000248E0
3.206824840E-1,-9.330000281E-1,5.644950390E0,7.810950279E0
3.405806210E-1,-7.990500331E-1,5.712000370E0,7.923000336E0
3.604788590E-1,-8.230500221E-1,5.860950470E0,7.665000439E0
3.803772160E-1,-1.017000079E0,6.202950478E0,7.818000317E0
4.002753810E-1,-7.870500088E-1,6.301050186E0,8.436000824E0
4.201735610E-1,-4.159500301E-1,6.378000259E0,8.947950363E0
4.400717220E-1,-3.630000055E-1,6.541050434E0,9.070950508E0
4.599698810E-1,-5.380499959E-1,6.724950314E0,8.443050385E0
4.798682440E-1,-8.989500403E-1,7.044000149E0,7.969050407E0
4.997663860E-1,-5.449500084E-1,6.868950367E0,8.170050621E0
5.196646340E-1,1.819500029E-1,6.088050365E0,8.443050385E0
5.395630320E-1,6.705000252E-2,5.478000164E0,8.500950813E0
5.594612220E-1,-1.009950042E0,5.374950409E0,8.247000694E0
5.793594610E-1,-1.774050117E0,5.233050346E0,7.465950489E0
5.992576210E-1,-2.169000149E0,5.254950047E0,7.015950203E0
6.191559850E-1,-2.418000221E0,5.509050369E0,7.270050526E0
6.390542370E-1,-2.176050186E0,5.482050419E0,7.485000134E0
6.589524300E-1,-2.166000128E0,5.487000465E0,7.705050468E0
6.788508370E-1,-2.407950163E0,5.374950409E0,7.861050606E0
6.987490260E-1,-2.671950102E0,5.182950020E0,8.005050659E0
7.186471610E-1,-2.581050158E0,5.037000179E0,7.974000454E0
7.385454710E-1,-1.891050100E0,4.848000050E0,8.103000641E0
7.584436160E-1,-1.041000009E0,4.633950233E0,8.200950623E0
7.783419950E-1,-9.040500522E-1,4.600950241E0,8.125050545E0
7.982401740E-1,-1.228050113E0,4.587000370E0,8.131950378E0
8.181384130E-1,-1.318950057E0,4.618050098E0,8.122050285E0
8.380365590E-1,-9.259500504E-1,4.813950062E0,8.280000687E0
8.579347030E-1,-4.039500058E-1,4.977000237E0,8.553000450E0
8.778331000E-1,-4.200000167E-1,5.125050068E0,8.665950775E0
8.977313000E-1,-7.870500088E-1,5.370000362E0,8.593950272E0
9.176294200E-1,-9.109500647E-1,5.535000324E0,8.386050224E0
9.375278080E-1,-6.670500040E-1,5.638050079E0,8.023950577E0
9.574259490E-1,-6.360000372E-1,5.881950378E0,7.885050297E0
9.773241430E-1,-8.250000477E-1,6.190950394E0,8.428950310E0
9.972222700E-1,-6.739500165E-1,6.462000370E0,9.126000404E0
1.017120595E0,-2.860500216E-1,6.766050339E0,9.091950417E0
1.037018751E0,1.800000072E-1,6.631950378E0,8.905050278E0
1.056916862E0,5.320500135E-1,5.470050335E0,9.495000839E0
1.076815081E0,2.639999986E-1,4.369050026E0,1.029405022E1
1.096713241E0,-2.295000106E-2,3.886950254E0,1.032600021E1
1.116611611E0,-1.740000099E-1,3.544950247E0,9.667050362E0
1.136509752E0,-4.110000134E-1,3.720000267E0,8.497950554E0
1.156407981E0,-4.369500279E-1,4.381050110E0,6.999000549E0
1.176306127E0,-5.230500102E-1,5.011050224E0,6.466950417E0
1.196204262E0,-2.805000171E-2,4.848000050E0,6.630000114E0
1.216102668E0,8.670000434E-1,4.417050362E0,7.003950119E0
1.236000906E0,1.060950041E0,4.528950214E0,7.504050255E0
1.255899065E0,6.970500350E-1,4.699050426E0,8.553000450E0
1.275797213E0,-2.239500135E-1,4.924050331E0,9.238050461E0
1.295695371E0,-8.779500127E-1,4.801950455E0,9.255000114E0
1.315593739E0,-9.160500169E-1,4.444950104E0,8.344950676E0
1.335491996E0,-9.330000281E-1,4.558050156E0,7.570950508E0
1.355390150E0,-7.290000319E-1,4.804950237E0,7.296000481E0
1.375288313E0,-5.260500312E-1,5.053950310E0,7.641000271E0
1.395186696E0,-3.199500144E-1,4.929000378E0,7.942950249E0
1.415084823E0,-4.609500170E-1,4.852050304E0,7.830000401E0
1.434983047E0,-1.144050002E0,4.987050056E0,7.878000259E0
1.454881179E0,-2.122950077E0,5.164050102E0,7.878000259E0
1.474779318E0,-2.988000154E0,5.391000271E0,7.935000420E0
1.494677687E0,-3.544050217E0,5.626050472E0,8.158050537E0
1.514575867E0,-4.081950188E0,5.716950417E0,8.551050186E0
1.534474091E0,-4.834050179E0,5.746050358E0,8.493000031E0
1.554372260E0,-5.565000057E0,5.571000099E0,7.990050316E0
1.574270400E0,-5.656050205E0,5.002950191E0,8.038050652E0
1.594168808E0,-5.587050438E0,4.500000000E0,9.051000595E0
1.614066940E0,-5.248950481E0,3.721950293E0,1.106295013E1
1.633965084E0,-4.753050327E0,2.644050121E0,1.269900036E1
1.653863303E0,-4.702950001E0,2.223000050E0,1.240905094E1
1.673761444E0,-4.425000191E0,2.398050070E0,1.108695030E1
1.693659841E0,-3.699000120E0,2.878950119E0,9.946950912E0
1.713557983E0,-2.976000071E0,3.727050066E0,8.812050819E0
1.733456146E0,-2.374950171E0,4.426050186E0,7.780050278E0
1.753354371E0,-2.005950212E0,4.741950035E0,7.035000324E0
1.773252555E0,-1.611000061E0,4.885950089E0,6.385950089E0
1.793150714E0,-1.618050098E0,5.134950161E0,6.438000202E0
1.813049125E0,-2.265000105E0,5.206950188E0,7.585950375E0
1.832947271E0,-2.659950018E0,4.705950260E0,9.199950218E0
1.852845430E0,-2.739000082E0,4.450050354E0,9.775050163E0
1.872743649E0,-2.368050098E0,4.297049999E0,9.118950844E0
1.892641743E0,-2.083050013E0,4.519950390E0,7.792050362E0
1.912539957E0,-2.044049978E0,4.783050060E0,6.865050316E0
1.932438370E0,-2.185950041E0,4.881000042E0,6.838050365E0
1.952336531E0,-2.262000084E0,4.861950397E0,7.147050381E0
1.972234709E0,-2.178000212E0,4.771050453E0,7.665000439E0
1.992132877E0,-2.050950050E0,4.623000145E0,8.098050117E0
2.012031097E0,-2.416050196E0,4.527000427E0,8.110050201E0
2.031929272E0,-2.820000172E0,4.431000233E0,7.744050503E0
2.051827416E0,-2.911050081E0,4.534049988E0,7.315050125E0
2.071725793E0,-2.680950165E0,4.741950035E0,7.120950222E0
2.091624021E0,-2.451000214E0,4.893000126E0,7.240950108E0
2.111522185E0,-2.236050129E0,4.999050140E0,7.023000240E0
2.131420353E0,-2.332050085E0,5.185050011E0,6.610950470E0
2.151318469E0,-2.563950062E0,5.511000156E0,6.316050529E0
2.171216618E0,-2.610000134E0,5.346000195E0,6.598950386E0
2.191114981E0,-2.715000153E0,4.570050240E0,8.218050003E0
2.211013137E0,-3.160050154E0,3.921000242E0,1.050795078E1
2.230911270E0,-4.003050327E0,4.002000332E0,1.158105087E1
2.250809429E0,-4.221000195E0,4.110000134E0,1.040205002E1
2.270707672E0,-3.772950172E0,4.282050133E0,8.098050117E0
2.290605819E0,-3.333000183E0,4.618050098E0,6.727950096E0
2.310504172E0,-3.028950214E0,4.723050117E0,6.855000496E0
2.330402309E0,-2.887050152E0,4.552950382E0,7.927950382E0
2.350300443E0,-3.016950130E0,4.582050323E0,8.548950195E0
2.370198677E0,-3.244050264E0,4.699050426E0,8.659049988E0
2.390096833E0,-3.517050266E0,4.789950371E0,8.569950104E0
2.409995006E0,-3.481050253E0,4.687050343E0,7.914000511E0
2.429893379E0,-3.630000114E0,4.972050190E0,7.296000481E0
2.449791525E0,-3.610950232E0,5.317050457E0,7.107000351E0
2.469689689E0,-3.457050085E0,5.515950203E0,7.204950333E0
2.489587922E0,-3.807000160E0,5.571000099E0,7.417950153E0
2.509486107E0,-4.027050018E0,5.647950172E0,7.393950462E0
2.529384251E0,-4.023000240E0,5.716950417E0,6.955950260E0
2.549282410E0,-3.904950142E0,5.631000042E0,6.709050179E0
2.569180768E0,-3.844950199E0,5.647950172E0,6.735000134E0
2.589078905E0,-3.864000082E0,5.788950443E0,6.973050117E0
2.608977083E0,-3.979050159E0,5.976000309E0,7.176000118E0
2.628875341E0,-3.928950071E0,5.961000443E0,7.401000500E0
2.648773506E0,-3.934050083E0,5.929950237E0,7.570950508E0
2.668671679E0,-4.267050266E0,5.944950104E0,7.801050186E0
2.688569857E0,-4.441950321E0,5.901000500E0,7.786950588E0
2.708468268E0,-4.276050091E0,5.904000282E0,7.309950352E0
2.728366424E0,-3.826050282E0,6.036000252E0,6.673050404E0
2.748264592E0,-3.298950195E0,5.719050407E0,6.762000084E0
2.768162737E0,-3.217950106E0,5.074950218E0,8.182050705E0
2.788060891E0,-3.598950148E0,4.611000061E0,9.420000076E0
2.807959100E0,-4.027050018E0,4.321050167E0,9.274050713E0
2.827857218E0,-4.036950111E0,4.165050030E0,8.532000542E0
2.847755376E0,-3.714000225E0,4.063950062E0,8.248950005E0
2.867653754E0,-3.651000261E0,4.299000263E0,8.548950195E0
2.887551934E0,-3.637050152E0,4.423950195E0,9.004050255E0
2.907450121E0,-3.448050261E0,4.363950253E0,9.078000069E0
2.927348275E0,-3.079050064E0,4.299000263E0,8.737950325E0
2.947246448E0,-3.165000200E0,4.405050278E0,8.212950706E0
2.967144607E0,-3.685050249E0,4.447950363E0,8.440950394E0
2.987042835E0,-3.544050217E0,4.165050030E0,8.872050285E0
3.006940977E0,-2.997000217E0,3.952050209E0,8.355000496E0
3.026839140E0,-2.731950045E0,4.087950230E0,7.464000225E0
3.046737313E0,-3.342000246E0,4.429050446E0,7.549950123E0
3.066635434E0,-3.271050215E0,4.354050159E0,9.078000069E0
3.086533836E0,-2.193000078E0,3.829950094E0,9.769950867E0
3.106431992E0,-1.777950048E0,3.430050135E0,9.328950882E0
3.126330164E0,-2.146950006E0,3.643050194E0,8.845050812E0
3.146228328E0,-2.077950001E0,3.964050293E0,8.650950432E0
3.166126472E0,-1.744950056E0,3.978000164E0,8.877000809E0
3.186024666E0,-1.743000031E0,3.784050226E0,8.937000275E0
3.205922875E0,-2.025000095E0,3.765000105E0,8.572050095E0
3.225821026E0,-2.229000092E0,3.813000202E0,8.278050423E0
3.245719161E0,-2.443950176E0,4.024050236E0,7.746000290E0
3.265617534E0,-2.988000154E0,4.551000118E0,7.042050362E0
3.285515651E0,-3.175050259E0,4.836000443E0,6.454950333E0
3.305413834E0,-2.926050186E0,4.642050266E0,7.030050278E0
3.325312017E0,-2.763000250E0,4.227000237E0,8.520000458E0
3.345210151E0,-2.929950237E0,4.026000023E0,9.484950066E0
3.365108342E0,-3.072000027E0,4.207950115E0,9.238050461E0
3.385006512E0,-2.760000229E0,4.435950279E0,7.846950531E0
3.404904647E0,-2.205000162E0,4.714050293E0,6.568050385E0
3.424802805E0,-1.671000123E0,4.728000164E0,6.376050472E0
3.444700939E0,-1.434000015E0,4.438050270E0,7.519050121E0
3.464599117E0,-1.924950123E0,4.213050365E0,8.637000084E0
3.484497286E0,-2.566050053E0,4.189050198E0,9.054000854E0
3.504395400E0,-2.892000198E0,4.177050114E0,8.893050194E0
3.524293778E0,-3.055050135E0,4.408950329E0,8.532000542E0
3.544191949E0,-2.932950258E0,4.543050289E0,7.993050575E0
3.564090078E0,-2.772000074E0,4.612950325E0,7.413000584E0
3.583988222E0,-2.491950035E0,4.678050041E0,7.339050293E0
3.603886400E0,-2.260050058E0,4.837950230E0,7.569000244E0
3.623784595E0,-2.242950201E0,4.908000469E0,7.654950142E0
3.643682727E0,-2.545050144E0,4.953000069E0,7.423050404E0
3.663580852E0,-2.940000057E0,5.014950275E0,7.602000237E0
3.683478982E0,-3.001950026E0,5.077950478E0,8.077050209E0
3.703377170E0,-3.117000103E0,5.245050430E0,8.092950821E0
3.723275348E0,-3.286950111E0,5.455950260E0,7.876050472E0
3.743173501E0,-3.433050156E0,5.557050228E0,7.947000504E0
3.763071659E0,-3.762000084E0,5.692950249E0,8.212950706E0
3.782970038E0,-4.320000172E0,5.875050068E0,8.601000786E0
3.802867967E0,-4.378950119E0,5.640000343E0,9.187950134E0
3.822766360E0,-4.233000278E0,5.535000324E0,9.231000900E0
3.842664530E0,-3.637050152E0,5.101950169E0,9.247950554E0
3.862562670E0,-2.896950245E0,4.210950375E0,9.574050903E0
3.882460866E0,-3.201000214E0,3.733950138E0,1.015800095E1
3.902359011E0,-3.843000174E0,3.423000097E0,1.049595070E1
3.922257220E0,-4.068000317E0,3.102000237E0,1.027995014E1
3.942155381E0,-3.922050238E0,2.986950159E0,9.652950287E0
3.962053554E0,-3.927000284E0,3.184950113E0,9.198000908E0
3.981951756E0,-3.826050282E0,3.310050249E0,9.073050499E0
4.001850157E0,-3.607950211E0,3.400950193E0,8.821949959E0
4.021748055E0,-3.532050133E0,3.556950092E0,8.428950310E0
4.041646182E0,-3.226950169E0,3.655050278E0,8.022000313E0
4.061544581E0,-2.758050203E0,3.820050240E0,7.855950356E0
4.081442746E0,-2.545050144E0,4.144050121E0,7.816050529E0
4.101340881E0,-2.619000196E0,4.255949974E0,7.983000278E0
4.121239050E0,-2.454000235E0,3.954000235E0,8.521950722E0
4.141137199E0,-2.308050156E0,3.552000284E0,8.829000473E0
4.161035343E0,-2.398950100E0,3.181050062E0,8.830950737E0
4.180933487E0,-2.659950018E0,2.805000067E0,8.776050568E0
4.200831686E0,-3.330000162E0,2.569950104E0,8.725950241E0
4.220729775E0,-3.627000093E0,2.407050133E0,8.662950516E0
4.240628033E0,-3.237000227E0,2.400000095E0,8.404950142E0
4.260526170E0,-2.932950258E0,2.697000027E0,8.282999992E0
4.280424290E0,-2.644950151E0,2.781000137E0,8.307000160E0
4.300322434E0,-2.680950165E0,2.836050034E0,8.527050018E0
4.320220598E0,-3.016950130E0,3.082950115E0,8.800050735E0
4.340118761E0,-3.217950106E0,3.492000103E0,8.761950493E0
4.360016915E0,-3.225000143E0,4.048050404E0,8.392950058E0
4.379915088E0,-3.546000242E0,4.660950184E0,7.983000278E0
4.399813475E0,-3.982050180E0,5.193000317E0,8.131950378E0
4.419711405E0,-4.036950111E0,5.070000172E0,9.247950554E0
4.439609774E0,-4.281000137E0,4.627050400E0,1.066095066E1
4.459507939E0,-4.565999985E0,4.096050262E0,1.129305077E1
4.479406088E0,-4.606950283E0,3.790950298E0,1.072800064E1
4.499304237E0,-4.015050411E0,3.649950266E0,9.490050316E0
4.519202386E0,-3.132000208E0,3.444000244E0,8.152950287E0
4.539100526E0,-2.794050217E0,3.375000238E0,7.270050526E0
4.558998698E0,-2.515950203E0,3.247950077E0,6.604050159E0
4.578896886E0,-2.434950113E0,3.142050266E0,6.237000465E0
4.598795054E0,-2.796000242E0,3.291000128E0,6.208950520E0
4.618693254E0,-3.085950136E0,3.250050068E0,6.120000362E0
4.638591415E0,-3.460050106E0,3.067950249E0,6.472050190E0
4.658489555E0,-4.223999977E0,2.932050228E0,7.353000164E0
4.678387703E0,-4.743000031E0,2.995950222E0,7.887000561E0
4.698285857E0,-4.444050312E0,3.027000189E0,8.158050537E0
4.718184011E0,-3.951000214E0,3.003000259E0,8.034000397E0
4.738082165E0,-3.874050140E0,3.310050249E0,7.918950558E0
4.757980300E0,-3.880950212E0,3.423000097E0,8.017050743E0
4.777878459E0,-4.030050278E0,3.396000147E0,8.107950211E0
4.797776608E0,-3.988950253E0,3.376950264E0,7.818000317E0
4.817674972E0,-3.606000185E0,3.336000204E0,7.329000473E0
4.837572930E0,-3.514950275E0,3.319950104E0,6.973050117E0
4.857471332E0,-4.408050060E0,3.291000128E0,7.437000275E0
4.877369459E0,-6.529950142E0,3.384000063E0,8.685000420E0
4.897267613E0,-7.339950562E0,2.818950176E0,9.780000687E0
4.917165748E0,-7.117050171E0,2.440950155E0,1.014795017E1
4.937063930E0,-6.460950375E0,2.431050062E0,9.660000801E0
4.956962079E0,-5.803950310E0,2.668050051E0,8.665950775E0
4.976860252E0,-5.557950497E0,2.908050060E0,8.308950424E0
4.996758411E0,-5.610000134E0,2.560050011E0,9.135000229E0
5.016656526E0,-6.066000462E0,2.232000113E0,1.007205009E1
5.036554764E0,-5.566950321E0,1.897050142E0,1.037100029E1
5.056452867E0,-4.120950222E0,1.866000056E0,9.655050278E0
5.076351029E0,-3.220050097E0,1.284000039E0,8.656050682E0
5.096249158E0,-3.844950199E0,1.120950103E0,8.989050865E0
5.116147413E0,-5.479050159E0,1.771950126E0,9.138000488E0
5.136045506E0,-5.602950096E0,1.792050123E0,8.653950691E0
5.155943702E0,-4.954050064E0,1.578000069E0,7.725000381E0
5.175841843E0,-4.669050217E0,1.686000109E0,7.309950352E0
5.195740020E0,-4.741050243E0,2.247000217E0,7.473000526E0
5.215638179E0,-4.984950066E0,2.793000221E0,7.660050392E0
5.235536338E0,-4.770000458E0,2.673000097E0,8.140950203E0
5.255434487E0,-4.389000416E0,2.488950014E0,8.424000740E0
5.275332646E0,-4.377000332E0,2.485950232E0,8.545949936E0
5.295230795E0,-4.177950382E0,2.464950085E0,8.569950104E0
5.315128954E0,-3.814050198E0,2.413950205E0,9.157050133E0
5.335027136E0,-3.690000057E0,2.548050165E0,9.451050758E0
5.354925305E0,-3.357000113E0,2.488950014E0,9.363000870E0
5.374823424E0,-3.304050207E0,2.536050081E0,9.516000748E0
5.394721606E0,-3.691950083E0,2.584050179E0,9.895050049E0
5.414619789E0,-3.888000250E0,2.485950232E0,9.576000214E0
5.434517947E0,-3.613050222E0,2.401950121E0,9.322050095E0
5.454416106E0,-3.247050047E0,2.569950104E0,8.776050568E0
5.474314275E0,-3.193950176E0,2.857050180E0,7.899000168E0
5.494212405E0,-3.631950140E0,3.202050209E0,7.377000332E0
5.514110534E0,-4.195050240E0,3.667050123E0,7.143000126E0
5.534008655E0,-4.561050415E0,4.102950096E0,6.940950394E0
5.553906838E0,-4.516050339E0,4.225049973E0,7.404000282E0
5.573804958E0,-3.556050062E0,3.898950100E0,8.545949936E0
5.593703117E0,-3.180000067E0,3.505950212E0,1.011000061E1
5.613601261E0,-3.475950241E0,2.958000183E0,1.133205032E1
5.633499391E0,-3.541050196E0,2.431050062E0,1.119300079E1
5.653397564E0,-3.418950081E0,2.473950148E0,1.006200027E1
5.673295713E0,-2.854050159E0,2.605950117E0,8.761950493E0
5.693193920E0,-2.523000002E0,2.689950228E0,7.531050205E0
5.713092055E0,-2.407950163E0,2.806950092E0,6.474000454E0
5.732990188E0,-2.178000212E0,2.923950195E0,6.418950081E0
5.752888323E0,-2.298000097E0,2.914950132E0,7.039950371E0
5.772786491E0,-2.811000109E0,3.007950068E0,8.182050705E0
5.792684588E0,-3.109950066E0,3.256950140E0,8.797950745E0
5.812583023E0,-3.217950106E0,3.511050224E0,8.593950272E0
5.832481203E0,-3.141000032E0,3.657000065E0,8.196000099E0
5.852379141E0,-2.940000057E0,3.660000086E0,7.837050438E0
5.872277264E0,-3.184050083E0,3.873000145E0,7.782000542E0
5.892175432E0,-3.334950209E0,4.215000153E0,8.005050659E0
5.912073567E0,-2.992950201E0,4.345050335E0,7.963950157E0
5.931971946E0,-3.048000097E0,4.560000420E0,7.852050304E0
5.951869905E0,-3.321000099E0,4.975050449E0,7.609950542E0
5.971768013E0,-3.358950138E0,5.080050468E0,7.633950233E0
5.991666360E0,-3.180000067E0,5.227950096E0,7.794000149E0
6.011564242E0,-3.156000137E0,5.572950363E0,7.789050579E0
6.031462384E0,-3.502950191E0,5.842050076E0,7.987950325E0
6.051360794E0,-3.622950077E0,5.995050430E0,8.127000809E0
6.071258724E0,-3.534000158E0,6.082950115E0,8.200950623E0
6.091157106E0,-3.853050232E0,6.139050484E0,7.906950474E0
6.111055329E0,-4.225950241E0,6.198000431E0,8.176950455E0
6.130953242E0,-4.147050381E0,6.370950222E0,8.716050148E0
6.150851596E0,-3.109950066E0,6.385050297E0,8.901000023E0
6.170749507E0,-1.549050093E0,5.698050499E0,9.471000671E0
6.190647654E0,-1.551000118E0,5.248050213E0,1.048095036E1
6.210546053E0,-2.386950016E0,4.632000446E0,1.080495071E1
6.230444002E0,-2.752950191E0,3.889950275E0,9.454050064E0
6.250342183E0,-2.883000135E0,3.772050142E0,7.749000549E0
6.270240327E0,-2.917950153E0,4.190999985E0,7.186050415E0
6.290138525E0,-2.734050035E0,4.780950069E0,7.636050224E0
6.310036702E0,-2.269050121E0,4.816950321E0,8.328000069E0
6.329934889E0,-2.056050062E0,4.771050453E0,8.031000137E0
6.349833072E0,-1.836000085E0,4.921950340E0,6.991950512E0
6.369731196E0,-1.555950046E0,5.130000114E0,6.297000408E0
6.389629345E0,-1.486050129E0,5.290950298E0,6.870000362E0
6.409527509E0,-9.690000415E-1,4.963050365E0,8.296950340E0
6.429425634E0,-4.369500279E-1,4.551000118E0,8.881050110E0
6.449323788E0,-3.079500198E-1,4.438050270E0,8.184000015E0
6.469221961E0,-6.289500594E-1,4.696950436E0,7.576050282E0
6.489120115E0,-7.440000176E-1,5.146950245E0,7.405950546E0
6.509018274E0,-4.540500343E-1,5.365050316E0,7.528050423E0
6.528916409E0,-2.220000178E-1,5.455950260E0,7.588050365E0
6.548814534E0,-1.090500057E-1,5.545050144E0,7.405950546E0
6.568712688E0,9.105000645E-2,5.632950306E0,7.248000145E0
6.588610756E0,1.339500099E-1,5.700000286E0,6.994050503E0
6.608508951E0,-1.980000138E-1,5.995050430E0,7.264950275E0
6.628407069E0,-2.029500157E-1,6.189000130E0,7.770000458E0
6.648305122E0,7.200000435E-2,6.031050205E0,7.983000278E0
6.668203255E0,-1.605000161E-2,6.246000290E0,7.861050606E0
6.688101344E0,-2.700000107E-1,6.637050152E0,7.806000233E0
6.707999495E0,-3.850500286E-1,7.024950504E0,7.816050529E0
6.727897616E0,-4.320000112E-1,7.228050232E0,7.873050213E0
6.747795818E0,-3.870000243E-1,7.161000252E0,8.503050804E0
6.767693943E0,-2.939999998E-1,6.280050278E0,9.780000687E0
6.787592097E0,-7.320000529E-1,5.329050064E0,1.064700031E1
6.807490255E0,-1.246950030E0,4.596000195E0,1.042395020E1
6.827388409E0,-1.366050124E0,4.345050335E0,8.925000191E0
6.847286592E0,-1.122000098E0,4.516950130E0,7.684050560E0
6.867184731E0,-7.609500289E-1,5.080050468E0,7.219050407E0
6.887082866E0,-3.705000132E-2,5.125050068E0,7.476000309E0
6.906981015E0,6.990000606E-1,4.843050003E0,8.014050484E0
6.926879189E0,3.760500252E-1,5.073000431E0,8.077050209E0
6.946777357E0,-6.049500108E-1,5.406000137E0,7.864050388E0
6.966675281E0,-1.026000023E0,5.442000389E0,7.642950535E0
6.986573504E0,-1.060050011E0,5.643000126E0,7.372950554E0
7.006471909E0,-9.469500184E-1,5.952000141E0,7.068000317E0
7.026369873E0,-7.729500532E-1,6.067050457E0,6.700050354E0
7.046268048E0,-3.820500076E-1,6.070950508E0,6.460050106E0
7.066166174E0,-2.380500138E-1,6.313050270E0,6.532050133E0
7.086064328E0,-2.100000083E-1,6.522000313E0,6.889050484E0
7.105962482E0,-1.450500041E-1,6.454950333E0,6.999000549E0
7.125860615E0,-3.940500319E-1,6.450000286E0,7.249950409E0
7.145758793E0,-5.740500093E-1,6.370950222E0,7.473000526E0
7.165656933E0,-1.029000044E0,6.507000446E0,7.339050293E0
7.185555154E0,-1.492950082E0,6.892950535E0,7.441950321E0
7.205453327E0,-1.443000078E0,6.991050243E0,7.963950157E0
7.225351477E0,-1.363950014E0,6.937950134E0,8.248950005E0
7.245249546E0,-1.663050056E0,7.009950161E0,8.086050034E0
7.265147785E0,-2.185950041E0,7.123050213E0,7.954950333E0
7.285045849E0,-2.487000227E0,7.006050110E0,7.765050411E0
7.304943991E0,-2.430000067E0,6.856950283E0,7.705050468E0
7.324842240E0,-1.555950046E0,6.354000092E0,8.493000031E0
7.344740305E0,-6.859500408E-1,5.698050499E0,9.993000031E0
7.364638443E0,-7.560000420E-1,5.029950142E0,1.076400089E1
7.384536582E0,-1.194000006E0,4.524000168E0,9.952050209E0
7.404434755E0,-1.468950033E0,4.551000118E0,8.620050430E0
7.424332895E0,-1.480950117E0,4.924050331E0,8.176950455E0
7.444231068E0,-1.311000109E0,5.077950478E0,8.347050667E0
7.464129054E0,-1.198950052E0,4.912050247E0,8.161050797E0
7.484027212E0,-1.333050013E0,4.945950031E0,7.756050587E0
7.503925080E0,-1.287000060E0,4.990950108E0,7.842000484E0
7.523823241E0,-8.590500355E-1,4.951050282E0,8.392950058E0
7.543721404E0,-4.180500209E-1,4.788000107E0,8.761950493E0
7.563619562E0,-3.195000067E-2,4.732950211E0,8.695050240E0
7.583517736E0,1.920000017E-1,4.747050285E0,8.218050003E0
7.603415899E0,4.189500213E-1,4.831050396E0,7.605000496E0
7.623314053E0,5.560500026E-1,4.905000210E0,7.195050240E0
7.643212183E0,5.770500302E-1,5.058000088E0,7.228950500E0
7.663110313E0,8.479500413E-1,5.133000374E0,7.135050297E0
7.683008486E0,1.020000100E0,5.266950130E0,7.162050247E0
7.702906565E0,1.120950103E0,5.391000271E0,7.389000416E0
7.722804698E0,1.106999993E0,5.521050453E0,7.600050449E0
7.742702899E0,9.130500555E-1,5.716950417E0,7.998000145E0
7.762601043E0,6.540000439E-1,5.794050217E0,8.656050682E0
7.782499336E0,7.159500122E-1,5.638050079E0,8.836050034E0
7.802397490E0,5.509500504E-1,5.491950035E0,8.725950241E0
7.822295668E0,8.595000207E-2,5.487000465E0,9.157050133E0
7.842193589E0,3.105000220E-2,5.499000072E0,9.684000015E0
7.862091957E0,2.830500007E-1,5.584950447E0,9.478050232E0
7.881989853E0,-1.800000109E-2,5.941950321E0,8.905050278E0
7.901887991E0,-1.810500026E-1,5.664000034E0,9.098999977E0
7.921786140E0,-3.439500034E-1,4.696950436E0,1.015305042E1
7.941684294E0,-5.809500217E-1,3.853950262E0,1.122600079E1
7.961582348E0,-7.990500331E-1,3.625950098E0,1.179105091E1
7.981480571E0,-7.390500307E-1,3.442050219E0,1.143000031E1
8.001378660E0,-5.790000558E-1,3.376950264E0,9.850950241E0
8.021276836E0,-8.710500598E-1,3.814950228E0,7.950000286E0
8.041175004E0,-1.213050008E0,4.153050423E0,6.762000084E0
8.061073143E0,-1.285050035E0,4.165050030E0,6.462000370E0
8.080971302E0,-7.440000176E-1,4.098000050E0,6.640050411E0
8.100869475E0,-2.260500044E-1,4.306050301E0,7.162050247E0
8.120767610E0,-1.909500062E-1,4.498050213E0,7.477950573E0
8.140665535E0,-7.990500331E-1,4.645950317E0,7.600050449E0
8.160563653E0,-1.330950022E0,4.744950294E0,7.471050262E0
8.180461817E0,-1.390050054E0,4.833000183E0,7.321950436E0
8.200360000E0,-1.207950115E0,4.996050358E0,7.356000423E0
8.220258143E0,-1.002000093E0,5.146950245E0,7.626000404E0
8.240156307E0,-7.050000429E-1,5.374950409E0,8.107950211E0
8.260054410E0,-5.910000205E-1,5.467950344E0,8.517000198E0
8.279952643E0,-6.769500375E-1,5.298000336E0,8.422050476E0
8.299850775E0,-1.156050086E0,5.547000408E0,8.095950127E0
8.319748814E0,-1.540950060E0,5.809950352E0,8.247000694E0
8.339646927E0,-1.810050130E0,5.877000332E0,8.374050140E0
8.359545057E0,-2.310000181E0,6.309000492E0,8.782950401E0
8.379443197E0,-2.502000093E0,6.471000195E0,9.214050293E0
8.399341360E0,-2.799000025E0,6.675000191E0,8.934000015E0
8.419239281E0,-3.145950079E0,7.089000225E0,8.434050560E0
8.439137452E0,-3.040950060E0,7.212000370E0,8.328000069E0
8.459035572E0,-2.305050135E0,6.409050465E0,8.842950821E0
8.478933730E0,-1.696950078E0,5.358000278E0,1.000695038E1
8.498831874E0,-1.671000123E0,4.587000370E0,1.121700096E1
8.518729986E0,-2.005950212E0,4.085999966E0,1.124100018E1
8.538628079E0,-2.116050005E0,3.913950205E0,9.978000641E0
8.558526226E0,-2.107050180E0,4.213050365E0,8.476950645E0
8.578424380E0,-2.137950182E0,4.558050156E0,7.737000465E0
8.598322514E0,-1.941000104E0,4.500000000E0,7.606950283E0
8.618220716E0,-1.768950105E0,4.420950413E0,7.581000328E0
8.638118670E0,-1.764000058E0,4.488000393E0,7.449000359E0
8.658016865E0,-1.714050055E0,4.534049988E0,7.543050289E0
8.677915048E0,-1.831050038E0,4.570050240E0,8.055000305E0
8.697813183E0,-1.335000038E0,4.291950226E0,8.758950233E0
8.717711369E0,-8.130000234E-1,4.159950256E0,9.130949974E0
8.737609523E0,-8.680500388E-1,4.174950123E0,8.929050446E0
8.757507668E0,-7.920000553E-1,4.182000160E0,8.292000771E0
8.777405799E0,-4.470000267E-1,4.285050392E0,7.705050468E0
8.797303947E0,-3.079500198E-1,4.342050076E0,7.249950409E0
8.817202120E0,-3.049500287E-1,4.371000290E0,7.152000427E0
8.837100298E0,-3.079500198E-1,4.443000317E0,7.246050358E0
8.856998432E0,-4.710000157E-1,4.543050289E0,7.557000160E0
8.876896362E0,-6.139500141E-1,4.575000286E0,7.858950138E0
8.896794505E0,-6.619500518E-1,4.630050182E0,7.990050316E0
8.916692678E0,-8.970000148E-1,4.576950073E0,8.199000359E0
8.936590803E0,-1.174950004E0,4.468950272E0,8.143950462E0
8.956488941E0,-1.381050110E0,4.651050091E0,8.034000397E0
8.976386992E0,-1.516950130E0,5.161050320E0,7.954950333E0
8.996285124E0,-1.515000105E0,5.796000481E0,7.612050533E0
9.016183278E0,-1.144050002E0,6.067050457E0,7.818000317E0
9.036081399E0,-1.242000103E0,5.548950195E0,9.265050888E0
9.055979328E0,-2.221950054E0,4.816950321E0,1.126200008E1
9.075877490E0,-3.156000137E0,4.345050335E0,1.218900013E1
9.095775610E0,-3.271050215E0,4.183950424E0,1.134105015E1
9.115673704E0,-2.643000126E0,4.120050430E0,9.823050499E0
9.135571841E0,-2.161950111E0,4.218000412E0,8.581950188E0
9.155470000E0,-2.098950148E0,3.988050222E0,7.981050491E0
9.175368173E0,-2.110949993E0,3.667050123E0,7.729050159E0
9.195266356E0,-2.095050097E0,3.583050251E0,7.674000263E0
9.215164509E0,-1.888950109E0,3.412950277E0,7.534950256E0
9.235062445E0,-1.929000139E0,3.298050165E0,7.375050545E0
9.254960634E0,-2.158950090E0,3.493950129E0,7.393950462E0
9.274858778E0,-1.999050140E0,3.756000280E0,7.489950180E0
9.294756914E0,-1.738050103E0,3.909000158E0,7.483050346E0
9.314655006E0,-1.944000125E0,4.141050339E0,7.452000141E0
9.334553172E0,-2.037000179E0,4.314000130E0,7.417950153E0
9.354451326E0,-2.077950001E0,4.467000008E0,7.567050457E0
9.374349270E0,-2.241000175E0,4.608000278E0,7.816050529E0
9.394247639E0,-2.209950209E0,4.732950211E0,7.798950195E0
9.414145776E0,-2.205000162E0,4.996050358E0,7.702950478E0
9.434043671E0,-2.335950136E0,5.487000465E0,7.810950279E0
9.453941842E0,-2.418000221E0,5.830050468E0,8.086050034E0
9.473839986E0,-2.563950062E0,5.985000134E0,8.628000259E0
9.493738036E0,-3.033000231E0,6.148050308E0,9.442049980E0
9.513636163E0,-3.546000242E0,6.172050476E0,1.001895046E1
9.533534308E0,-4.024950027E0,6.165000439E0,9.696000099E0
9.553432432E0,-4.414950371E0,6.427950382E0,8.874000549E0
9.573330552E0,-3.919950247E0,6.129000187E0,8.611050606E0
9.593228730E0,-3.069000244E0,5.415000439E0,9.732000351E0
9.613126708E0,-2.631000042E0,4.666050434E0,1.126395035E1
9.633024850E0,-2.851050138E0,3.937950134E0,1.153995037E1
9.652923014E0,-3.354000092E0,3.595050097E0,1.067295074E1
9.672821093E0,-3.292050123E0,3.601950169E0,9.837000847E0
9.692719207E0,-2.923050165E0,3.660000086E0,9.732000351E0
9.712617361E0,-2.863050222E0,3.703050137E0,9.721950531E0
9.732515558E0,-2.956950188E0,3.766950130E0,9.648000717E0
9.752413755E0,-2.116050005E0,3.573000193E0,9.114000320E0
9.772311670E0,-1.186950088E0,3.672000170E0,8.605950356E0
9.792209818E0,-6.360000372E-1,4.074000359E0,8.175000191E0
9.812107999E0,-5.089499950E-1,4.339950085E0,8.125050545E0
9.832006163E0,-5.520000458E-1,4.084050179E0,8.175000191E0
9.851904317E0,-5.190000534E-1,3.748050213E0,7.756050587E0
9.871802410E0,-4.279500246E-1,3.778950214E0,7.339050293E0
9.891700572E0,-3.610500097E-1,3.945000172E0,7.104000568E0
9.911598702E0,-4.900500178E-1,4.054950237E0,7.183050156E0
9.931496832E0,-5.830500126E-1,4.072050095E0,7.461000443E0
9.951395010E0,-5.760000348E-1,3.988050222E0,7.696050167E0
9.971292896E0,-7.680000067E-1,3.990000248E0,7.756050587E0
9.991191048E0,-1.149000049E0,4.135950089E0,7.810950279E0
1.001108922E1,-1.246950030E0,4.311000347E0,7.963950157E0
1.003098729E1,-1.225050092E0,4.291950226E0,8.266050339E0
1.005088549E1,-1.603950024E0,4.254000187E0,8.484000206E0
1.007078353E1,-2.218950033E0,4.333050251E0,8.460000038E0
1.009068165E1,-2.479950190E0,4.753950119E0,8.218050003E0
1.011057980E1,-2.413050175E0,5.323950291E0,8.019000053E0
1.013047773E1,-2.233050108E0,5.509050369E0,8.340000153E0
1.015037586E1,-2.122950077E0,4.888050079E0,9.637950897E0
1.017027401E1,-2.575950146E0,4.096050262E0,1.121400070E1
1.019017210E1,-3.153000116E0,3.621000290E0,1.190205097E1
1.021007024E1,-3.265950203E0,3.372000217E0,1.107300091E1
1.022996839E1,-2.739000082E0,3.496950150E0,9.649950027E0
1.024986628E1,-1.828950047E0,3.853950262E0,8.284950256E0
1.026976441E1,-1.182000041E0,4.081050396E0,7.597950459E0
1.028966257E1,-1.065000057E0,3.997050285E0,7.708050251E0
1.030956069E1,-1.446000099E0,3.676050186E0,8.041049957E0
1.032945885E1,-2.170950174E0,3.636000156E0,7.962000370E0
1.034935702E1,-2.866050243E0,3.748050213E0,7.786950588E0
1.036925519E1,-3.223050117E0,3.829950094E0,7.813050270E0
1.038915313E1,-3.294000149E0,3.961050272E0,7.822950363E0
1.040905129E1,-3.112050056E0,4.153050423E0,7.959000587E0
1.042894950E1,-2.593050241E0,4.213050365E0,8.122050285E0
1.044884754E1,-2.185950041E0,4.261050224E0,8.332950592E0
1.046874570E1,-1.852950096E0,4.467000008E0,8.365950584E0
1.048864388E1,-1.849950075E0,4.789950371E0,8.171999931E0
1.050854203E1,-2.056050062E0,4.936050415E0,7.938000202E0
1.052843996E1,-2.346000195E0,5.046000004E0,7.732050419E0
1.054833811E1,-2.539950132E0,5.218950272E0,7.525950432E0
1.056823622E1,-2.533050060E0,5.463000298E0,7.483050346E0
1.058813448E1,-2.619000196E0,5.758050442E0,7.773000240E0
1.060803254E1,-3.045000076E0,6.124050140E0,8.272950172E0
1.062793065E1,-3.541050196E0,6.382950306E0,8.529000282E0
1.064782879E1,-3.843000174E0,6.459000111E0,8.419050217E0
1.066772671E1,-4.000950336E0,6.414000511E0,8.280000687E0
1.068762488E1,-3.898050070E0,6.427950382E0,8.188950539E0
1.070752303E1,-3.490950108E0,6.328050137E0,8.431050301E0
1.072742114E1,-3.040950060E0,5.908950329E0,9.304950714E0
1.074731925E1,-2.863050222E0,5.326950073E0,1.035900021E1
1.076721741E1,-2.989950180E0,4.645950317E0,1.051200008E1
1.078711555E1,-3.033000231E0,4.198950291E0,9.808050156E0
1.080701347E1,-2.980950117E0,4.182000160E0,9.130949974E0
1.082691163E1,-3.354000092E0,4.294050217E0,9.157050133E0
1.084680979E1,-3.208050251E0,3.945000172E0,9.151950836E0
1.086670787E1,-2.746050119E0,3.775050163E0,8.565000534E0
1.088660602E1,-2.479950190E0,3.949950218E0,7.549950123E0
1.090650415E1,-2.358000040E0,4.258049965E0,6.568050385E0
1.092640210E1,-2.230950117E0,4.632000446E0,5.908950329E0
1.094630029E1,-2.149950027E0,4.797000408E0,5.868000507E0
1.096619846E1,-1.936950088E0,4.512000084E0,6.276000500E0
1.098609656E1,-1.897950053E0,4.359000206E0,6.604050159E0
1.100599471E1,-1.798050046E0,4.285050392E0,6.793050289E0
1.102589264E1,-1.570050120E0,4.251000404E0,7.032000542E0
1.104579078E1,-1.750050068E0,4.075950146E0,7.690950394E0
1.106568894E1,-2.233050108E0,3.805950165E0,8.515049934E0
1.108558709E1,-2.419950008E0,3.624000072E0,9.094950676E0
1.110548520E1,-2.193000078E0,3.697950125E0,9.313050270E0
1.112538333E1,-2.005950212E0,3.832050085E0,9.207000732E0
1.114528148E1,-2.535000086E0,4.026000023E0,8.998950005E0
1.116517939E1,-3.318000078E0,4.327950001E0,8.536950111E0
1.118507756E1,-3.775950193E0,4.675050259E0,8.374050140E0
1.120497570E1,-3.184050083E0,4.857000351E0,8.782950401E0
1.122487384E1,-2.626050234E0,4.978950024E0,9.175950050E0
1.124477192E1,-2.944950104E0,4.684950352E0,9.825000763E0
1.126467007E1,-3.874050140E0,3.946950197E0,1.027095032E1
1.128456799E1,-4.522950172E0,3.082950115E0,1.011495018E1
1.130446612E1,-4.918050289E0,2.677950144E0,9.784050941E0
1.132436426E1,-4.626000404E0,2.812050104E0,9.523050308E0
1.134426233E1,-3.316050053E0,2.848050117E0,9.468000412E0
1.136416054E1,-2.074949980E0,2.923950195E0,9.370050430E0
1.138405871E1,-1.635000110E0,3.138000250E0,9.043950081E0
1.140395665E1,-2.080049992E0,3.300000191E0,8.520000458E0
1.142385477E1,-2.550000191E0,3.502050161E0,7.987950325E0
1.144375287E1,-2.193000078E0,3.631050110E0,7.648050308E0
1.146365101E1,-1.576950073E0,3.796050072E0,7.488000393E0
1.148354896E1,-1.588950038E0,4.014000416E0,7.867950439E0
1.150344709E1,-1.765950084E0,4.141050339E0,8.568000793E0
1.152334529E1,-1.600950122E0,4.141050339E0,8.821949959E0
1.154324340E1,-1.339950085E0,4.378050327E0,8.704050064E0
1.156314154E1,-1.290000081E0,4.720950127E0,8.641950607E0
1.158303967E1,-9.619500637E-1,4.942950249E0,8.854949951E0
1.160293761E1,-5.910000205E-1,5.080050468E0,8.557950020E0
1.162283575E1,-7.960500121E-1,5.335950375E0,7.837050438E0
1.164273391E1,-1.342950106E0,5.782050133E0,7.203000546E0
1.166263207E1,-1.620000124E0,6.082950115E0,7.123050213E0
1.168253011E1,-1.764000058E0,6.345000267E0,7.648050308E0
1.170242825E1,-1.776000142E0,6.376050472E0,8.251950264E0
1.172232618E1,-1.921950102E0,6.430950165E0,8.557950020E0
1.174222435E1,-2.173950195E0,6.637050152E0,8.532000542E0
1.176212249E1,-1.888950109E0,6.703950405E0,8.188950539E0
1.178202057E1,-1.174950004E0,6.661050320E0,7.476000309E0
1.180191874E1,-1.009950042E0,6.670050144E0,6.817050457E0
1.182181668E1,-1.912950039E0,6.748950481E0,7.009050369E0
1.184171478E1,-2.527950048E0,6.241950512E0,7.882950306E0
1.186161289E1,-2.202000141E0,5.298000336E0,8.328000069E0
1.188151097E1,-2.037000179E0,4.929000378E0,8.460000038E0
1.190140913E1,-2.257050037E0,5.110950470E0,8.680050850E0
1.192130704E1,-2.860950232E0,5.334000111E0,8.974950790E0
1.194120524E1,-3.393000126E0,5.251950264E0,9.277050018E0
1.196110339E1,-3.145950079E0,4.884000301E0,8.743050575E0
1.198100147E1,-2.619000196E0,4.917000294E0,7.903950214E0
1.200089963E1,-1.948050141E0,5.335950375E0,7.375050545E0
1.202079752E1,-1.314000010E0,5.626050472E0,7.713000298E0
1.204069567E1,-1.182000041E0,5.418000221E0,8.884050369E0
1.206059381E1,-1.287000060E0,4.792950153E0,9.295950890E0
1.208049192E1,-1.254000068E0,4.254000187E0,8.874000549E0
1.210039006E1,-9.930000305E-1,4.279950142E0,8.524950027E0
1.212028797E1,-1.120050073E0,4.587000370E0,8.650950432E0
1.214018612E1,-1.201050043E0,4.464000225E0,8.331000328E0
1.216008427E1,-1.446000099E0,4.371000290E0,7.939950466E0
1.217998239E1,-1.743000031E0,4.663050175E0,7.971000195E0
1.219988053E1,-1.684950113E0,4.821000099E0,8.376000404E0
1.221977844E1,-1.483950019E0,4.876049995E0,8.508000374E0
1.223967660E1,-1.426050067E0,4.951050282E0,8.155950546E0
1.225957471E1,-1.600950122E0,5.209050179E0,7.588050365E0
1.227947282E1,-1.825950146E0,5.755050182E0,7.344000340E0
1.229937098E1,-1.678050041E0,6.045000076E0,7.213950157E0
1.231926889E1,-1.405050039E0,6.241950512E0,7.246050358E0
1.233916709E1,-6.769500375E-1,5.952000141E0,7.059000492E0
1.235906524E1,-5.595000088E-2,5.434050083E0,6.652050495E0
1.237896333E1,-4.399500191E-1,5.274000168E0,6.544050217E0
1.239886122E1,-1.342950106E0,5.547000408E0,7.176000118E0
1.241875961E1,-1.608000040E0,5.511000156E0,8.332950592E0
1.243865744E1,-1.282950044E0,5.554050446E0,8.644050598E0
1.245855571E1,-8.010000587E-1,5.925000191E0,8.050050735E0
1.247845381E1,-2.980500162E-1,6.313050270E0,7.642950535E0
1.249835171E1,-2.650500238E-1,6.487950325E0,7.942950249E0
1.251824988E1,-3.889500201E-1,6.220050335E0,8.493000031E0
1.253814805E1,-5.040000081E-1,5.923050404E0,8.389950752E0
1.255804614E1,-6.480000019E-1,5.875050068E0,7.600050449E0
1.257794406E1,-7.870500088E-1,6.055050373E0,6.783000469E0
1.259784216E1,-1.156050086E0,6.273000240E0,6.525000095E0
1.261774032E1,-1.435950041E0,6.297000408E0,6.783000469E0
1.263763842E1,-1.345050097E0,6.205950260E0,7.128000259E0
1.265753631E1,-6.550500393E-1,6.055050373E0,7.690950394E0
1.267743448E1,-4.300500154E-1,5.980050087E0,7.834950447E0
1.269733264E1,-1.302000046E0,6.310950279E0,7.666950226E0
1.271723072E1,-1.993950129E0,6.703950405E0,7.075950146E0
1.273712889E1,-1.969950080E0,7.024950504E0,6.537000179E0
1.275702684E1,-1.768950105E0,7.501050472E0,6.750000477E0
1.277692495E1,-1.828950047E0,7.864950180E0,7.320000172E0
1.279682307E1,-2.086950064E0,8.032950401E0,7.567050457E0
1.281672117E1,-2.119050026E0,8.068950653E0,7.368000507E0
1.283661931E1,-1.845000029E0,8.031000137E0,6.798000336E0
1.285651721E1,-1.759050131E0,8.047050476E0,6.582000256E0
1.287641533E1,-1.768950105E0,7.885050297E0,6.967950344E0
1.289631343E1,-1.731000066E0,7.330950260E0,7.327050209E0
1.291621161E1,-1.945950150E0,6.859050274E0,7.276950359E0
1.293610952E1,-2.140050173E0,6.426000118E0,7.348950386E0
1.295600765E1,-2.497050047E0,6.220050335E0,7.902000427E0
1.297590572E1,-3.160050154E0,6.060000420E0,8.925000191E0
1.299580386E1,-3.292050123E0,5.442000389E0,9.175950050E0
1.301570178E1,-3.306000233E0,5.058000088E0,8.680050850E0
1.303559994E1,-2.680950165E0,4.849950314E0,8.218050003E0
1.305549810E1,-1.840950131E0,5.025000095E0,8.395050049E0
1.307539617E1,-1.246950030E0,5.382000446E0,8.830950737E0
1.309529409E1,-9.619500637E-1,5.128050327E0,9.049050331E0
1.311519230E1,-1.004999995E0,4.651050091E0,8.074049950E0
1.313509042E1,-6.100500226E-1,4.273050308E0,6.727950096E0
1.315498852E1,-1.789500117E-1,4.147950172E0,6.249000072E0
1.317488646E1,-5.910000205E-1,4.440000057E0,6.790950298E0
1.319478463E1,-1.204050064E0,4.519950390E0,7.986000538E0
1.321468277E1,-1.243950009E0,4.084050179E0,8.308950424E0
1.323458082E1,-1.237050056E0,3.684000254E0,7.528050423E0
1.325447898E1,-1.813950062E0,3.820050240E0,6.946050167E0
1.327437693E1,-2.533050060E0,4.207950115E0,7.119000435E0
1.329427505E1,-2.884950161E0,4.536000252E0,7.864050388E0
1.331417319E1,-2.455950022E0,4.783050060E0,8.428950310E0
1.333407129E1,-2.011049986E0,4.966950417E0,8.272950172E0
1.335396920E1,-2.377050161E0,5.382000446E0,7.540050507E0
1.337386733E1,-2.871000051E0,5.767050266E0,7.186050415E0
1.339376541E1,-3.061950207E0,6.160050392E0,7.375050545E0
1.341366357E1,-2.965950251E0,6.565050125E0,7.710000515E0
1.343356170E1,-3.144000053E0,7.084950447E0,8.251950264E0
1.345345964E1,-3.141000032E0,7.285950184E0,9.175950050E0
1.347335776E1,-2.739000082E0,6.385050297E0,1.009305000E1
1.349325590E1,-3.141000032E0,5.547000408E0,1.038795090E1
1.351315396E1,-3.618000269E0,4.897950172E0,1.023495007E1
1.353305190E1,-3.436050177E0,4.402050018E0,9.957000732E0
1.355295007E1,-2.770050049E0,4.303950310E0,9.424950600E0
1.357284815E1,-1.975050092E0,4.360949993E0,8.480999947E0
1.359274627E1,-1.639950037E0,4.591050148E0,7.452000141E0
1.361264419E1,-1.611000061E0,4.816950321E0,6.750000477E0
1.363254238E1,-1.663050056E0,4.833000183E0,6.910050392E0
1.365244045E1,-1.834050059E0,4.717950344E0,7.425000191E0
1.367233862E1,-2.077950001E0,4.615050316E0,7.368000507E0
1.369223656E1,-2.329050064E0,4.752000332E0,6.694950104E0
1.371213463E1,-2.466000080E0,5.113050461E0,6.208950520E0
1.373203279E1,-2.205000162E0,5.479950428E0,6.340050220E0
1.375193097E1,-1.881000042E0,5.722050190E0,7.234050274E0
1.377182889E1,-1.917000055E0,5.719050407E0,7.891950607E0
1.379172696E1,-2.332050085E0,5.604000092E0,7.846950531E0
1.381162516E1,-2.463000059E0,5.607000351E0,7.626000404E0
1.383152336E1,-2.419950008E0,5.820000172E0,7.485000134E0
1.385142128E1,-2.326950073E0,6.178950310E0,7.899000168E0
1.387131942E1,-2.085000038E0,6.502950191E0,8.553000450E0
1.389121752E1,-1.944000125E0,6.663000107E0,8.833950043E0
1.391111544E1,-2.380050182E0,6.799950123E0,8.500950813E0
1.393101361E1,-3.060000181E0,6.816000462E0,7.552050591E0
1.395091169E1,-3.535950184E0,6.814050198E0,6.400050163E0
1.397080984E1,-3.685050249E0,7.108950138E0,5.314950466E0
1.399070797E1,-3.622950077E0,7.294950485E0,4.839000225E0
1.401060592E1,-3.832950115E0,7.365000248E0,5.124000072E0
1.403050407E1,-3.900000095E0,7.075050354E0,6.213000298E0
1.405040214E1,-3.274950266E0,6.415950298E0,7.219050407E0
1.407030008E1,-2.743950129E0,5.785950184E0,7.593000412E0
1.409019822E1,-2.799000025E0,5.403000355E0,8.601000786E0
1.411009632E1,-3.505050182E0,5.403000355E0,1.049100018E1
1.412999443E1,-3.793050289E0,4.917000294E0,1.248105049E1
1.414989257E1,-2.964000225E0,3.886950254E0,1.295505047E1
1.416979043E1,-1.735050082E0,3.324000120E0,1.232295036E1
1.418968858E1,-1.195950031E0,3.601950169E0,1.075905037E1
1.420958648E1,-1.042950034E0,4.057050228E0,9.007950783E0
1.422948457E1,-9.640500546E-1,4.291950226E0,7.774950504E0
1.424938271E1,-1.102950096E0,4.351950169E0,7.272000313E0
1.426928078E1,-9.469500184E-1,4.150950432E0,6.991950512E0
1.428917869E1,-5.020500422E-1,4.159950256E0,7.000950336E0
1.430907669E1,-1.305000018E-2,4.384950161E0,7.609950542E0
1.432897483E1,1.080000028E-1,4.440000057E0,7.969050407E0
1.434887295E1,-5.040000081E-1,4.327950001E0,7.564050198E0
1.436877089E1,-1.017000079E0,4.429050446E0,7.083000183E0
1.438866900E1,-7.510500550E-1,4.876049995E0,7.020000458E0
1.440856710E1,-2.260500044E-1,5.548950195E0,7.585950375E0
1.442846527E1,2.040000111E-1,5.901000500E0,7.999950409E0
1.444836321E1,3.190500140E-1,5.949000359E0,8.035950661E0
1.446826128E1,-1.050000079E-3,6.141000271E0,8.278050423E0
1.448815940E1,2.130000144E-1,6.354000092E0,8.917050362E0
1.450805734E1,7.090500593E-1,6.442950249E0,9.151950836E0
1.452795551E1,5.770500302E-1,6.382950306E0,8.662950516E0
1.454785372E1,-1.000500023E-1,5.809950352E0,8.272950172E0
1.456775165E1,-1.186950088E0,5.319000244E0,8.853000641E0
1.458764979E1,-2.212050200E0,4.999050140E0,1.035705090E1
1.460754796E1,-1.807050109E0,4.183950424E0,1.069695091E1
1.462744611E1,-8.950500488E-1,3.637950182E0,9.487050056E0
1.464734427E1,-7.770000100E-1,3.970950127E0,7.950000286E0
1.466724213E1,-1.134000063E0,4.471950054E0,6.433950424E0
1.468714026E1,-1.582050085E0,4.885950089E0,5.254950047E0
1.470703843E1,-1.599000096E0,5.236050129E0,5.368050098E0
1.472693633E1,-8.730000257E-1,5.113050461E0,6.465000153E0
1.474683441E1,-9.979500771E-1,4.966950417E0,7.425000191E0
1.476673257E1,-1.786050081E0,4.879050255E0,7.981050491E0
1.478663073E1,-2.241000175E0,4.873950005E0,8.149050713E0
1.480652870E1,-2.926050186E0,5.026950359E0,7.909050465E0
1.482642673E1,-3.541050196E0,5.367000103E0,7.714950562E0
1.484632487E1,-3.570000172E0,5.676000118E0,7.762950420E0
1.486622273E1,-3.205950260E0,6.052050114E0,8.314050674E0
1.488612093E1,-3.073950052E0,6.316050529E0,8.920050621E0
1.490601899E1,-3.505050182E0,6.313050270E0,9.065999985E0
1.492591717E1,-4.087049961E0,6.370950222E0,8.778000832E0
1.494581510E1,-4.117949963E0,6.430950165E0,8.484000206E0
1.496571316E1,-3.807000160E0,6.606000423E0,8.560050011E0
1.498561130E1,-3.490950108E0,6.712950230E0,8.701950073E0
1.500550922E1,-3.699000120E0,6.799950123E0,8.175000191E0
1.502540736E1,-4.233000278E0,6.888000488E0,7.084950447E0
1.504530544E1,-4.327050209E0,7.104000568E0,6.204000473E0
1.506520354E1,-3.864000082E0,7.477050304E0,6.031050205E0
1.508510145E1,-3.369000196E0,7.851000309E0,6.735000134E0
1.510499951E1,-2.835000038E0,7.638000488E0,8.002050400E0
1.512489741E1,-2.213999987E0,6.739950180E0,8.569950104E0
1.514479556E1,-1.993950129E0,5.997000217E0,8.128950119E0
1.516469364E1,-1.743000031E0,5.434050083E0,7.435050488E0
1.518459182E1,-1.828950047E0,5.338950157E0,7.011000156E0
1.520448997E1,-2.028000116E0,5.554050446E0,7.219050407E0
1.522438782E1,-1.864950061E0,5.431950092E0,8.140950203E0
1.524428597E1,-1.531950116E0,5.134950161E0,8.464950562E0
1.526418413E1,-1.528950095E0,5.154000282E0,7.986000538E0
1.528408206E1,-1.339950085E0,5.490000248E0,7.096950531E0
1.530398015E1,-1.603950024E0,5.956950188E0,6.838050365E0
1.532387808E1,-2.050950050E0,6.082950115E0,7.440000534E0
1.534377623E1,-1.374000072E0,5.620950222E0,7.750950336E0
1.536367440E1,-2.410500050E-1,5.355000019E0,7.690950394E0
1.538357249E1,-7.095000148E-2,5.584950447E0,7.531050205E0
1.540347063E1,-4.369500279E-1,5.830050468E0,7.444050312E0
1.542336860E1,-5.449500084E-1,5.470050335E0,7.416000366E0
1.544326666E1,-6.049500108E-1,5.073000431E0,7.207050323E0
1.546316487E1,-8.280000687E-1,5.142000198E0,7.428000450E0
1.548306304E1,-6.720000505E-1,5.254950047E0,7.573950291E0
1.550296097E1,-3.679500222E-1,5.383950233E0,7.696050167E0
1.552285904E1,-2.910000086E-1,5.710050106E0,7.377000332E0
1.554275697E1,-2.220000178E-1,5.844000340E0,7.312950134E0
1.556265501E1,-3.195000067E-2,5.992050171E0,7.686000347E0
1.558255315E1,2.250000089E-1,6.190950394E0,8.235000610E0
1.560245108E1,4.890000224E-1,6.535950184E0,8.091000557E0
1.562234924E1,5.200500488E-1,7.108950138E0,7.288950443E0
1.564224734E1,5.839500427E-1,7.390950203E0,6.445950508E0
1.566214550E1,6.250500083E-1,7.032000542E0,6.747000217E0
1.568204339E1,4.995000362E-2,6.565050125E0,8.272950172E0
1.570194149E1,-1.230000034E-1,6.061950207E0,9.933000565E0
1.572183966E1,2.440500110E-1,5.509050369E0,1.065405083E1
1.574173754E1,3.550500274E-1,5.353050232E0,9.406050682E0
1.576163564E1,-6.795000285E-2,5.595000267E0,7.672050476E0
1.578153376E1,-5.040000081E-1,5.872950077E0,6.513000488E0
1.580143168E1,-6.840000153E-1,6.130950451E0,6.108000278E0
1.582132973E1,-7.339500189E-1,6.145950317E0,6.400050163E0
1.584122788E1,-5.350500345E-1,6.016050339E0,7.084950447E0
1.586112606E1,-2.700000107E-1,6.253950119E0,7.459050179E0
1.588102401E1,-4.369500279E-1,6.679950237E0,7.126050472E0
1.590092208E1,-4.990500212E-1,6.868950367E0,6.465000153E0
1.592082000E1,-4.279500246E-1,6.982050419E0,5.940000057E0
1.594071812E1,-2.740500271E-1,7.077000141E0,6.187050343E0
1.596061618E1,4.800000042E-2,6.997950554E0,6.573000431E0
1.598051431E1,1.729500145E-1,6.964950562E0,6.370950222E0
1.600041227E1,-4.395000264E-2,7.219050407E0,5.779950142E0
1.602031033E1,-2.700000107E-1,7.614000320E0,5.737050056E0
1.604020850E1,-2.890500128E-1,7.995000362E0,6.529950142E0
1.606010646E1,-6.599999964E-2,7.963950157E0,7.666950226E0
1.608000459E1,-4.905000329E-2,7.923000336E0,8.103000641E0
1.609990268E1,-4.200000167E-1,7.894050598E0,7.770000458E0
1.611980060E1,-1.060050011E0,7.996950150E0,7.222050190E0
1.613969875E1,-1.267950058E0,8.217000008E0,7.083000183E0
1.615959682E1,-7.200000286E-1,8.263050079E0,7.321950436E0
1.617949473E1,1.200000048E-1,7.896000385E0,8.125050545E0
1.619939286E1,6.160500050E-1,7.228050232E0,8.838000298E0
1.621929093E1,5.389500260E-1,6.565050125E0,8.695050240E0
1.623918911E1,3.570000231E-1,6.073950291E0,7.870950222E0
1.625908707E1,1.410000026E-1,5.587950230E0,7.387050152E0
1.627898513E1,-3.490500152E-1,5.466000080E0,7.365000248E0
1.629888312E1,-6.499500275E-1,5.431950092E0,8.006999969E0
1.631878127E1,-1.759500057E-1,5.298000336E0,8.374050140E0
1.633867935E1,3.829500079E-1,5.311950207E0,7.558950424E0
1.635857727E1,5.490000248E-1,5.554050446E0,6.558000088E0
1.637847540E1,4.140000343E-1,5.779050350E0,6.015000343E0
1.639837349E1,-1.605000161E-2,5.916000366E0,6.441000462E0
1.641827164E1,-1.690500081E-1,5.797950268E0,7.260000229E0
1.643816955E1,2.520000041E-1,5.602050304E0,7.633950233E0
1.645806763E1,7.260000110E-1,5.775000095E0,7.167000294E0
1.647796553E1,8.479500413E-1,6.070950508E0,6.642000198E0
1.649786366E1,6.850500107E-1,6.202950478E0,6.879000187E0
1.651776174E1,5.680500269E-1,5.995050430E0,7.650000572E0
1.653765992E1,6.919500232E-1,5.704950333E0,8.164950371E0
1.655755782E1,8.170500398E-1,5.736000061E0,8.251950264E0
1.657745588E1,8.430000544E-1,5.752950191E0,7.951950550E0
1.659735406E1,5.989500284E-1,5.920950413E0,7.657950401E0
1.661725195E1,4.260000288E-1,6.145950317E0,7.489950180E0
1.663715004E1,4.000500143E-1,6.397050381E0,7.324950218E0
1.665704795E1,8.260500431E-1,6.807000160E0,7.887000561E0
1.667694610E1,2.134050131E0,6.412050247E0,9.376950264E0
1.669684425E1,2.569950104E0,5.413050175E0,1.021995068E1
1.671674209E1,1.851000071E0,4.608000278E0,1.015995026E1
1.673664023E1,1.168950081E0,4.345050335E0,9.772050858E0
1.675653833E1,8.860500455E-1,4.528950214E0,9.679050446E0
1.677643627E1,9.480000734E-1,4.692000389E0,9.862950325E0
1.679633447E1,1.104000092E0,4.897950172E0,9.697950363E0
1.681623257E1,1.267050028E0,5.134950161E0,8.869050026E0
1.683613051E1,1.186050057E0,5.206950188E0,7.714950562E0
1.685602865E1,7.780500650E-1,5.461050034E0,7.179000378E0
1.687592675E1,4.770000279E-1,5.784000397E0,7.099950314E0
1.689582490E1,2.830500007E-1,5.755050182E0,7.210050106E0
1.691572276E1,-1.090500057E-1,5.820000172E0,7.036950111E0
1.693562092E1,-3.889500201E-1,6.037950516E0,6.841050148E0
1.695551909E1,-7.800000310E-1,6.256050110E0,7.749000549E0
1.697541695E1,-1.720950127E0,6.510000229E0,8.074049950E0
1.699531508E1,-2.080049992E0,6.285000324E0,8.247000694E0
1.701521302E1,-1.879050136E0,5.866050243E0,8.524950027E0
1.703511109E1,-1.323000073E0,5.581050396E0,8.575050354E0
1.705500928E1,-9.430500269E-1,5.355000019E0,8.256000519E0
1.707490718E1,-1.303950071E0,5.536950111E0,8.290050507E0
1.709480525E1,-1.843050122E0,5.941950321E0,8.404950142E0
1.711470337E1,-1.972050071E0,6.076050282E0,8.376000404E0
1.713460130E1,-1.860000134E0,6.004050255E0,8.355000496E0
1.715449937E1,-2.001000166E0,6.013950348E0,8.431050301E0
1.717439727E1,-2.410950184E0,6.117000103E0,8.437950134E0
1.719429542E1,-2.731950045E0,6.048000336E0,8.235000610E0
1.721419351E1,-3.160050154E0,5.929950237E0,7.938000202E0
1.723409142E1,-3.418950081E0,5.775000095E0,7.855950356E0
1.725398956E1,-3.069000244E0,5.410050392E0,8.083950043E0
1.727388761E1,-2.380050182E0,4.630050182E0,8.380949974E0
1.729378553E1,-2.086950064E0,4.006950378E0,8.551050186E0
1.731368369E1,-1.960050106E0,3.556950092E0,8.661000252E0
1.733358176E1,-1.788000107E0,3.243000269E0,8.797950745E0
1.735347969E1,-1.707000136E0,3.360000134E0,8.568000793E0
1.737337777E1,-1.678050041E0,3.633000135E0,8.131950378E0
1.739327592E1,-1.872000098E0,3.664050102E0,7.993050575E0
1.741317386E1,-2.116050005E0,3.660000086E0,7.864050388E0
1.743307194E1,-2.382000208E0,3.724050283E0,7.915950298E0
1.745297009E1,-2.545050144E0,3.664050102E0,8.311050415E0
1.747286803E1,-2.230950117E0,3.444000244E0,8.656050682E0
1.749276610E1,-1.675050020E0,3.190050125E0,8.920050621E0
1.751266404E1,-1.362000108E0,2.983950138E0,9.025050163E0
1.753256211E1,-1.551000118E0,3.142050266E0,8.838000298E0
1.755246026E1,-2.001000166E0,3.478050232E0,8.568000793E0
1.757235818E1,-2.377050161E0,3.604950190E0,8.401950836E0
1.759225626E1,-2.178000212E0,3.496950150E0,8.347050667E0
1.761215442E1,-1.948050141E0,3.529950142E0,8.640000343E0
1.763205236E1,-1.885950089E0,3.784050226E0,9.098999977E0
1.765195047E1,-1.780950069E0,3.909000158E0,9.552000046E0
1.767184862E1,-1.828950047E0,3.882000208E0,9.928050041E0
1.769174651E1,-2.044049978E0,3.688050270E0,1.003095055E1
1.771164457E1,-1.933950067E0,3.406050205E0,9.861000061E0
1.773154250E1,-1.903050065E0,3.307950258E0,9.541950226E0
1.775144058E1,-2.274000168E0,3.387000084E0,9.360000610E0
1.777133873E1,-2.689050198E0,3.523050070E0,9.303000450E0
1.779123662E1,-2.988000154E0,3.300000191E0,9.316950798E0
1.781113470E1,-2.935050249E0,2.035950184E0,9.616950035E0
1.783103267E1,-3.454950094E0,1.188000083E0,9.829950333E0
1.785093062E1,-4.312050343E0,1.429950118E0,9.796050072E0
1.787082870E1,-3.927000284E0,1.690950036E0,9.664950371E0
1.789072660E1,-2.836950064E0,1.677000046E0,9.214050293E0
1.791062478E1,-2.145000219E0,1.408050060E0,9.495000839E0
1.793052284E1,-1.539000034E0,1.246050000E0,9.360000610E0
1.795042075E1,-2.116050005E0,1.353000045E0,9.223950386E0
1.797031883E1,-3.292050123E0,1.435050011E0,8.857050896E0
1.799021700E1,-3.880950212E0,1.570950031E0,8.138999939E0
1.801011493E1,-3.946050167E0,1.662000060E0,7.780050278E0
1.803001302E1,-3.697050095E0,1.578000069E0,7.843950272E0
1.804991093E1,-3.618000269E0,1.618950129E0,8.002050400E0
1.806980907E1,-4.201950073E0,1.915950060E0,8.107950211E0
1.808970694E1,-4.858050346E0,1.927950144E0,8.083950043E0
1.810960506E1,-5.281950474E0,1.915950060E0,8.191950798E0
1.812950314E1,-5.148000240E0,2.266050100E0,8.280000687E0
1.814940122E1,-4.516050339E0,2.589000225E0,8.158050537E0
1.816929935E1,-4.305000305E0,2.728050232E0,8.565000534E0
1.818919720E1,-4.378950119E0,2.704050064E0,9.150000572E0
1.820909538E1,-4.099050045E0,2.577000141E0,8.995950699E0
1.822899344E1,-4.255050182E0,2.389950037E0,8.116950035E0
1.824889137E1,-4.915950298E0,3.054000139E0,7.882950306E0
1.826878952E1,-5.413950443E0,3.550050259E0,7.308000565E0
1.828868758E1,-6.099000454E0,3.454050064E0,6.958050251E0
1.830858550E1,-6.985050201E0,3.781950235E0,7.162050247E0
1.832848359E1,-7.801950455E0,4.279950142E0,7.365000248E0
1.834838151E1,-7.960050583E0,4.345050335E0,8.248950005E0
1.836827965E1,-7.279950142E0,3.790950298E0,9.210000038E0
1.838817772E1,-6.757950306E0,2.944050074E0,9.709950447E0
1.840807563E1,-6.219000340E0,2.032950163E0,9.712050438E0
1.842797373E1,-5.680050373E0,1.459050059E0,9.744000435E0
1.844787189E1,-5.634000301E0,1.453950047E0,9.241050720E0
1.846776980E1,-6.058050156E0,1.839000106E0,8.628000259E0
1.848766789E1,-5.818950176E0,1.839000106E0,7.954950333E0
1.850756581E1,-5.349000454E0,1.842000127E0,7.570950508E0
1.852746388E1,-4.923000336E0,2.127000093E0,7.279050350E0
1.854736203E1,-4.504050255E0,2.461950064E0,7.059000492E0
1.856725994E1,-4.195050240E0,2.800050020E0,6.901050091E0
1.858715801E1,-4.027050018E0,2.860050201E0,7.264950275E0
1.860705595E1,-3.955950260E0,2.599050045E0,7.782000542E0
1.862695403E1,-3.883950233E0,2.290050030E0,7.987950325E0
1.864685218E1,-3.898050070E0,2.182049990E0,8.065050125E0
1.866675003E1,-3.841050148E0,2.304000139E0,7.971000195E0
1.868664818E1,-3.553050280E0,2.484000206E0,7.986000538E0
1.870654611E1,-2.944950104E0,2.625000238E0,8.296950340E0
1.872644420E1,-2.539950132E0,2.650950193E0,8.577000618E0
1.874634236E1,-2.899050236E0,2.788050175E0,8.704050064E0
1.876624030E1,-3.385050058E0,3.037050247E0,8.637000084E0
1.878613842E1,-3.498000145E0,3.183000088E0,8.422050476E0
1.880603635E1,-3.402000189E0,3.355950117E0,8.227950096E0
1.882593445E1,-3.406950235E0,3.604950190E0,8.092950821E0
1.884583239E1,-3.529050112E0,3.753000259E0,8.256000519E0
1.886573055E1,-3.763950109E0,3.661950111E0,8.392950058E0
1.888562864E1,-3.847950220E0,2.778000116E0,8.962950706E0
1.890552655E1,-4.554000378E0,1.903950095E0,9.799050331E0
1.892542464E1,-5.224950314E0,1.621950030E0,1.090005016E1
1.894532260E1,-5.221950054E0,1.423050046E0,1.205205059E1
1.896522068E1,-4.609050274E0,1.324950099E0,1.207395077E1
1.898511885E1,-3.651000261E0,1.219050050E0,1.092000008E1
1.900501680E1,-3.169950247E0,1.236000061E0,9.406050682E0
1.902491488E1,-3.037950039E0,1.312950015E0,7.938000202E0
1.904481279E1,-3.493050098E0,1.468050122E0,6.946050167E0
1.906471095E1,-4.152000427E0,1.654950023E0,6.544050217E0
1.908460902E1,-4.389000416E0,1.765050054E0,6.412050247E0
1.910450693E1,-4.339050293E0,1.938000083E0,6.403050423E0
1.912440499E1,-4.248000145E0,2.119950056E0,6.534000397E0
1.914430290E1,-4.036950111E0,2.235000134E0,6.609000206E0
1.916420097E1,-3.835950136E0,2.436000109E0,6.472050190E0
1.918409906E1,-3.924000263E0,2.674950123E0,6.319050312E0
1.920399700E1,-4.180950165E0,2.877000093E0,6.594000340E0
1.922389510E1,-4.296000004E0,3.130050182E0,6.955950260E0
1.924379299E1,-4.342950344E0,3.327000141E0,7.248000145E0
1.926369112E1,-4.197000027E0,3.484950066E0,7.375050545E0
1.928358918E1,-4.156949997E0,3.724050283E0,7.521000385E0
1.930348710E1,-4.474950314E0,4.006950378E0,7.806000233E0
1.932338517E1,-4.612050056E0,4.189050198E0,8.176950455E0
1.934328311E1,-4.827000141E0,4.254000187E0,8.496000290E0
1.936318127E1,-5.692050457E0,4.267950058E0,9.223950386E0
1.938307935E1,-6.637950420E0,4.026000023E0,1.005300045E1
1.940297728E1,-7.486050129E0,3.727050066E0,1.041705036E1
1.942287542E1,-7.921950340E0,3.751050234E0,1.035000038E1
1.944277327E1,-7.099950314E0,3.540000200E0,1.041405010E1
1.946267140E1,-5.311050415E0,2.884050131E0,1.069395065E1
1.948256947E1,-4.450950146E0,2.650950193E0,1.097505093E1
1.950246744E1,-4.564050198E0,2.457000017E0,1.097895050E1
1.952236550E1,-5.002050400E0,2.134050131E0,1.014105034E1
1.954226339E1,-5.128950119E0,1.806000113E0,9.078000069E0
1.956216154E1,-5.365950108E0,2.053050041E0,8.662950516E0
1.958205962E1,-5.565000057E0,2.440950155E0,9.049050331E0
1.960195752E1,-5.400000095E0,2.565000057E0,8.773950577E0
1.962185561E1,-5.194050312E0,2.497950077E0,7.939950466E0
1.964175376E1,-4.902000427E0,2.461950064E0,7.435050488E0
1.966165168E1,-4.660050392E0,2.389950037E0,7.783950329E0
1.968154975E1,-4.423050404E0,2.167950153E0,8.637000084E0
1.970144767E1,-4.003050327E0,1.983000040E0,8.992050171E0
1.972134575E1,-3.454950094E0,1.813050032E0,8.707050323E0
1.974124392E1,-2.800950050E0,1.923000097E0,8.164950371E0
1.976114185E1,-2.545050144E0,2.469000101E0,7.873050213E0
1.978103990E1,-2.539950132E0,2.958000183E0,8.208000183E0
1.980093784E1,-2.338950157E0,3.087000132E0,8.235000610E0
1.982083594E1,-2.277000189E0,3.220950127E0,7.789050579E0
1.984073410E1,-2.515950203E0,3.609000206E0,7.557000160E0
1.986063208E1,-2.539950132E0,4.000050068E0,7.830000401E0
1.988053018E1,-2.128050089E0,4.072050095E0,8.275050163E0
1.990042809E1,-2.020050049E0,4.006950378E0,8.623050690E0
1.992032621E1,-2.437050104E0,3.882000208E0,8.898000717E0
1.994022413E1,-3.382950068E0,4.005000114E0,8.937000275E0
1.996012227E1,-3.912000179E0,4.402050018E0,8.613000870E0
1.998002011E1,-4.044000149E0,4.615050316E0,8.002050400E0
1.999991828E1,-4.243050098E0,4.630050182E0,7.782000542E0
2.001981635E1,-4.332000256E0,3.918000221E0,8.364000320E0
2.003971428E1,-4.308000088E0,2.776050091E0,9.391950607E0
2.005961244E1,-4.522950172E0,2.236950159E0,9.583050728E0
2.007951031E1,-4.714950085E0,2.395050049E0,9.025050163E0
2.009940851E1,-4.782000065E0,2.689950228E0,8.872050285E0
2.011930659E1,-4.216950417E0,2.412000179E0,9.123000145E0
2.013920451E1,-3.454950094E0,1.882950068E0,8.532000542E0
2.015910268E1,-3.534000158E0,2.134050131E0,7.564050198E0
2.017900072E1,-3.960000277E0,2.782950163E0,6.799950123E0
2.019889865E1,-4.165950298E0,3.382050276E0,6.136950493E0
2.021879673E1,-3.922050238E0,3.691050291E0,5.587950230E0
2.023869464E1,-3.469050169E0,3.835050106E0,5.173950195E0
2.025859272E1,-3.544050217E0,4.111950397E0,5.101950169E0
2.027849089E1,-4.069950104E0,4.348950386E0,5.454000473E0
2.029838880E1,-4.504050255E0,4.315950394E0,5.763000488E0
2.031828685E1,-4.818000317E0,4.294050217E0,6.151050091E0
2.033818479E1,-4.779000282E0,4.342050076E0,6.790950298E0
2.035808285E1,-4.341000080E0,4.381050110E0,7.441950321E0
2.037798075E1,-4.272000313E0,4.536000252E0,7.950000286E0
2.039787887E1,-4.717050076E0,4.756950378E0,8.175000191E0
2.041777692E1,-5.050050259E0,4.783050060E0,8.315999985E0
2.043767483E1,-5.281950474E0,4.963050365E0,8.781000137E0
2.045757300E1,-5.488050461E0,5.038950443E0,9.628950119E0
2.047747106E1,-5.886000156E0,5.206950188E0,9.832050323E0
2.049736899E1,-6.409950256E0,5.490000248E0,9.166050911E0
2.051726705E1,-6.808050156E0,5.869950294E0,8.452950478E0
2.053716497E1,-6.298050404E0,5.863050461E0,8.520000458E0
2.055706311E1,-4.482000351E0,4.813950062E0,9.271950722E0
2.057696117E1,-3.666000128E0,4.347000122E0,1.010805035E1
2.059685908E1,-3.994050264E0,4.251000404E0,1.049100018E1
2.061675715E1,-4.269000053E0,3.748050213E0,1.010295010E1
2.063665530E1,-4.377000332E0,3.553950071E0,9.352950096E0
2.065655321E1,-4.473000050E0,3.562050104E0,8.898000717E0
2.067645129E1,-4.516050339E0,3.588000059E0,9.133049965E0
2.069634920E1,-3.976950169E0,3.484950066E0,9.388950348E0
2.071624730E1,-3.517050266E0,3.588000059E0,8.958000183E0
2.073614525E1,-3.136050224E0,3.796050072E0,8.127000809E0
2.075604339E1,-2.598000050E0,3.825000286E0,7.264950275E0
2.077594144E1,-2.454000235E0,3.862950087E0,6.895950317E0
2.079583937E1,-2.716950178E0,3.808050156E0,7.272000313E0
2.081573751E1,-2.499000072E0,3.406050205E0,7.689000130E0
2.083563559E1,-2.119050026E0,3.205050230E0,7.573950291E0
2.085553351E1,-2.097000122E0,3.253050089E0,7.260000229E0
2.087543166E1,-2.197950125E0,3.388950109E0,7.224000454E0
2.089532953E1,-2.071050167E0,3.463050127E0,7.546950340E0
2.091522770E1,-1.819050074E0,3.520950079E0,7.792050362E0
2.093512582E1,-1.600950122E0,3.720000267E0,7.666950226E0
2.095502375E1,-1.855050087E0,4.029000282E0,7.653000355E0
2.097492192E1,-2.236050129E0,4.170000076E0,7.806000233E0
2.099482000E1,-2.293050051E0,4.005000114E0,7.930950165E0
2.101471793E1,-2.535000086E0,4.009050369E0,8.083950043E0
2.103461597E1,-2.884950161E0,4.476000309E0,8.125050545E0
2.105451388E1,-3.084000111E0,5.214000225E0,8.115000725E0
2.107441206E1,-2.347950220E0,4.930950165E0,9.079950333E0
2.109431017E1,-1.957950115E0,3.679050207E0,1.053600025E1
2.111420807E1,-3.318000078E0,3.111000061E0,1.167900085E1
2.113410616E1,-4.453950405E0,2.869050026E0,1.164495087E1
2.115400432E1,-4.711950302E0,3.292950153E0,1.035405064E1
2.117390224E1,-3.522000074E0,3.684000254E0,8.782950401E0
2.119380035E1,-2.140050173E0,3.940050125E0,7.501950264E0
2.121369829E1,-1.446000099E0,4.405050278E0,7.132950306E0
2.123359634E1,-1.477050066E0,4.189050198E0,7.617000580E0
2.125349448E1,-2.197950125E0,3.934950113E0,8.149050713E0
2.127339244E1,-2.703000069E0,3.906000137E0,8.188950539E0
2.129329048E1,-2.734050035E0,4.014000416E0,7.714950562E0
2.131318838E1,-2.593050241E0,4.215000153E0,7.207050323E0
2.133308654E1,-2.523000002E0,4.479000092E0,6.927000523E0
2.135298465E1,-2.346000195E0,4.632000446E0,6.871950150E0
2.137288258E1,-2.686050177E0,4.824000359E0,6.894000530E0
2.139278063E1,-3.156000137E0,5.032050133E0,7.183050156E0
2.141267877E1,-3.144000053E0,4.966950417E0,7.597950459E0
2.143257668E1,-3.226950169E0,4.860000134E0,8.230050087E0
2.145247476E1,-3.642000198E0,4.908000469E0,8.605950356E0
2.147237267E1,-4.192950249E0,4.993950367E0,8.563050270E0
2.149227083E1,-4.384050369E0,5.061000347E0,8.758950233E0
2.151216888E1,-4.510950089E0,5.092050076E0,9.574050903E0
2.153206678E1,-4.948950291E0,5.152050018E0,1.043295002E1
2.155196488E1,-5.188950062E0,5.197050095E0,1.039500046E1
2.157186304E1,-5.179050446E0,5.449050426E0,9.652950287E0
2.159176094E1,-5.032950401E0,5.821950436E0,8.905050278E0
2.161165906E1,-4.285950184E0,5.785950184E0,8.913000107E0
2.163155724E1,-3.265950203E0,5.260050297E0,9.823050499E0
2.165145517E1,-3.105000257E0,4.543050289E0,1.087200069E1
2.167135326E1,-3.421050072E0,3.850950241E0,1.075905037E1
2.169125117E1,-3.493050098E0,3.484950066E0,9.351000786E0
2.171114935E1,-3.256050110E0,3.463050127E0,8.005050659E0
2.173104743E1,-3.124050140E0,3.436950207E0,7.708050251E0
2.175094538E1,-3.277950048E0,3.268950224E0,8.101050377E0
2.177084344E1,-3.049950123E0,3.109050035E0,8.107950211E0
2.179074164E1,-2.784000158E0,3.231000185E0,7.456050396E0
2.181063958E1,-2.677050114E0,3.541950226E0,6.694950104E0
2.183053764E1,-2.644950151E0,3.811050177E0,6.331050396E0
2.185043558E1,-2.763000250E0,3.901950121E0,6.690000534E0
2.187033374E1,-2.595000029E0,3.565950155E0,7.471050262E0
2.189023180E1,-2.277000189E0,3.187950134E0,7.806000233E0
2.191012997E1,-2.274000168E0,3.219000101E0,7.674000263E0
2.193002778E1,-2.188050032E0,3.535050154E0,7.782000542E0
2.194992592E1,-2.169000149E0,4.021049976E0,8.826000214E0
2.196982385E1,-1.519950032E0,3.886950254E0,9.664950371E0
2.198972190E1,-7.320000529E-1,3.813000202E0,9.471000671E0
2.200962005E1,-3.940500319E-1,4.326000214E0,8.830950737E0
2.202951797E1,-4.950000346E-1,4.587000370E0,8.319000244E0
2.204941603E1,-9.930000305E-1,4.452000141E0,8.194050789E0
2.206931396E1,-1.567950130E0,4.069050312E0,8.401950836E0
2.208921202E1,-1.615950108E0,3.448950052E0,8.604000092E0
2.210911016E1,-1.927050114E0,3.439050198E0,8.617950439E0
2.212900807E1,-2.130000114E0,3.712050200E0,8.689949989E0
2.214890616E1,-1.699050069E0,3.432000160E0,8.914950371E0
2.216880430E1,-1.267950058E0,2.683050156E0,9.838950157E0
2.218870221E1,-1.795050144E0,2.122050047E0,1.099605083E1
2.220860029E1,-2.791950226E0,2.449950218E0,1.157295036E1
2.222849842E1,-3.330000162E0,3.256950140E0,1.078500080E1
2.224839634E1,-2.914050102E0,3.988050222E0,9.339000702E0
2.226829440E1,-1.789950132E0,4.372950077E0,8.410050392E0
2.228819231E1,-1.266000032E0,4.587000370E0,8.083950043E0
2.230809045E1,-1.534050107E0,4.504950047E0,7.954950333E0
2.232798834E1,-1.711050034E0,4.038000107E0,8.188950539E0
2.234788646E1,-2.029950142E0,3.592950106E0,8.944050789E0
2.236778453E1,-2.800950050E0,3.394050121E0,9.576000214E0
2.238768242E1,-3.393000126E0,3.238050222E0,9.384000778E0
2.240758057E1,-3.268050194E0,3.348000050E0,8.862000465E0
2.242747862E1,-2.434950113E0,3.379050255E0,8.383049965E0
2.244737656E1,-2.217000008E0,3.625950098E0,7.998000145E0
2.246727466E1,-3.060000181E0,3.954000235E0,7.899000168E0
2.248717280E1,-3.832950115E0,4.215000153E0,8.038050652E0
2.250707071E1,-3.841050148E0,4.492950439E0,8.122050285E0
2.252696880E1,-3.570000172E0,4.608000278E0,8.038050652E0
2.254686669E1,-3.996000290E0,4.921950340E0,8.019000053E0
2.256676485E1,-4.863000393E0,5.149050236E0,8.328000069E0
2.258666294E1,-5.263050079E0,4.990950108E0,8.400000572E0
2.260656089E1,-5.557950497E0,5.037000179E0,8.152950287E0
2.262645906E1,-5.670000076E0,5.182950020E0,7.963950157E0
2.264635711E1,-5.860050201E0,5.347950459E0,7.906950474E0
2.266625501E1,-5.902950287E0,5.455950260E0,7.798950195E0
2.268615311E1,-5.922000408E0,5.473050117E0,7.200000286E0
2.270605127E1,-6.163950443E0,5.413050175E0,6.364050388E0
2.272594921E1,-5.491050243E0,4.872000217E0,6.778950214E0
2.274584728E1,-4.309950352E0,4.153050423E0,8.447999954E0
2.276574519E1,-3.703950167E0,3.340950251E0,9.897000313E0
2.278564323E1,-4.102050304E0,2.860050201E0,1.005495071E1
2.280554140E1,-4.506000042E0,2.698950052E0,9.193050385E0
2.282543935E1,-4.393949986E0,2.838000059E0,8.284950256E0
2.284533741E1,-3.823950291E0,3.075000048E0,7.720050335E0
2.286523558E1,-2.566050053E0,3.211950064E0,7.525950432E0
2.288513350E1,-1.168050051E0,3.126000166E0,7.741050243E0
2.290503157E1,-8.250000477E-1,2.905050039E0,8.946000099E0
2.292492947E1,-1.450050116E0,2.617950201E0,1.039005089E1
2.294482755E1,-2.134950161E0,2.295000076E0,1.078095055E1
2.296472571E1,-2.269050121E0,2.282999992E0,9.625950813E0
2.298462363E1,-1.828950047E0,2.599050045E0,8.422050476E0
2.300452168E1,-1.330950022E0,3.066000223E0,8.023950577E0
2.302441987E1,-1.219950080E0,3.327000141E0,7.885050297E0
2.304431777E1,-1.170000076E0,3.279000044E0,7.305000305E0
2.306421593E1,-1.302000046E0,3.268950224E0,6.643950462E0
2.308411403E1,-1.552950025E0,3.391050100E0,6.769050121E0
2.310401191E1,-1.989000082E0,3.727050066E0,7.741050243E0
2.312391005E1,-1.939050078E0,3.850950241E0,9.171000481E0
2.314380796E1,-1.350000024E0,4.000050068E0,1.041195011E1
2.316370604E1,-1.249050021E0,4.165050030E0,1.026300049E1
2.318360421E1,-1.963050127E0,4.591050148E0,9.207000732E0
2.320350214E1,-2.607000113E0,5.130000114E0,8.826000214E0
2.322340023E1,-2.617050171E0,5.281050205E0,9.508950233E0
2.324329842E1,-2.089950085E0,4.797000408E0,1.068705082E1
2.326319634E1,-1.719000101E0,3.784050226E0,1.208400059E1
2.328309439E1,-2.383949995E0,2.818950176E0,1.292400074E1
2.330299234E1,-3.454950094E0,2.272950172E0,1.271595097E1
2.332289049E1,-3.915000200E0,2.151000023E0,1.110600090E1
2.334278858E1,-3.763950109E0,2.362050056E0,9.195000648E0
2.336268655E1,-3.175050259E0,2.632050037E0,7.990050316E0
2.338258469E1,-2.463000059E0,3.111000061E0,7.782000542E0
2.340248251E1,-1.783050060E0,3.360000134E0,7.774950504E0
2.342238061E1,-1.632000089E0,3.592950106E0,7.879950523E0
2.344227870E1,-1.912950039E0,3.736050129E0,8.437950134E0
2.346217686E1,-1.876950145E0,3.672000170E0,8.971950531E0
2.348207477E1,-1.486050129E0,3.573000193E0,8.766000748E0
2.350197284E1,-1.789950132E0,3.853950262E0,7.617000580E0
2.352187076E1,-2.202000141E0,4.165050030E0,6.961050510E0
2.354176884E1,-2.061000109E0,4.455000401E0,7.198050499E0
2.356166694E1,-1.783050060E0,4.804950237E0,7.858950138E0
2.358156487E1,-1.443000078E0,4.990950108E0,8.431050301E0
2.360146294E1,-1.089000106E0,5.166000366E0,8.407050133E0
2.362136087E1,-9.520500302E-1,5.533050060E0,7.879950523E0
2.364125898E1,-1.078950047E0,6.085950375E0,7.552050591E0
2.366115713E1,-1.357050061E0,6.517050266E0,7.549950123E0
2.368105501E1,-1.264050007E0,6.721050262E0,7.729050159E0
2.370095310E1,-1.285050035E0,6.876000404E0,8.043000221E0
2.372085125E1,-1.503000021E0,6.985950470E0,8.272950172E0
2.374074918E1,-2.059050083E0,7.246950150E0,7.983000278E0
2.376064724E1,-2.418000221E0,7.374000549E0,7.308000565E0
2.378054516E1,-2.620950222E0,7.396050453E0,6.898050308E0
2.380044336E1,-2.724000216E0,7.312050343E0,7.164000511E0
2.382034144E1,-1.960050106E0,6.357000351E0,8.296950340E0
2.384023935E1,-9.430500269E-1,5.190000057E0,9.394050598E0
2.386013750E1,-9.210000634E-1,4.608000278E0,9.382050514E0
2.388003561E1,-1.515000105E0,4.311000347E0,8.115000725E0
2.389993354E1,-1.999050140E0,4.275000095E0,7.171050549E0
2.391983162E1,-1.881000042E0,4.383000374E0,7.614000320E0
2.393972952E1,-1.093050003E0,4.297049999E0,8.457000732E0
2.395962759E1,-3.319500089E-1,4.345050335E0,8.389950752E0
2.397952547E1,-2.220000178E-1,4.807050228E0,7.801050186E0
2.399942362E1,-3.610500097E-1,5.218950272E0,7.609950542E0
2.401932172E1,-4.039500058E-1,5.346000195E0,8.134050369E0
2.403921965E1,-1.549500078E-1,5.233050346E0,8.083950043E0
2.405911779E1,3.090000153E-1,5.317050457E0,7.677000523E0
2.407901588E1,8.070000410E-1,5.485050201E0,7.638000488E0
2.409891380E1,6.870000362E-1,5.640000343E0,7.822950363E0
2.411881191E1,3.520500064E-1,5.755050182E0,7.701000214E0
2.413870999E1,3.739500046E-1,5.736000061E0,7.291050434E0
2.415860794E1,7.590000629E-1,5.856000423E0,7.167000294E0
2.417850599E1,1.200000048E0,6.001950264E0,7.456050396E0
2.419840389E1,1.324950099E0,6.190950394E0,7.531050205E0
2.421830205E1,1.240950108E0,6.436050415E0,7.729050159E0
2.423819989E1,1.212000012E0,6.462000370E0,7.969050407E0
2.425809805E1,1.008000016E0,6.297000408E0,8.247000694E0
2.427799611E1,8.599500656E-1,6.118950367E0,8.539050102E0
2.429789409E1,8.290500641E-1,6.070950508E0,8.584050179E0
2.431779225E1,7.549500465E-1,6.474000454E0,8.055000305E0
2.433769032E1,8.140500188E-1,6.991050243E0,7.237950325E0
2.435758825E1,9.270000458E-1,7.489050388E0,6.649050236E0
2.437748632E1,1.210050106E0,7.372050285E0,7.012950420E0
2.439738449E1,1.498950124E0,6.400050163E0,7.933050156E0
2.441728242E1,1.055999994E0,5.659950256E0,8.473950386E0
2.443718051E1,2.970000207E-1,5.442000389E0,8.176950455E0
2.445707844E1,-2.170500159E-1,5.560950279E0,7.633950233E0
2.447697658E1,-4.830000103E-1,5.698050499E0,7.576050282E0
2.449687469E1,-4.609500170E-1,5.545050144E0,7.288950443E0
2.451677263E1,-3.169500232E-1,5.539950371E0,6.759000301E0
2.453667069E1,-5.595000088E-2,5.647950172E0,6.703950405E0
2.455656861E1,-6.000000052E-3,5.710050106E0,7.356000423E0
2.457646680E1,-1.050000079E-3,5.662050247E0,7.801050186E0
2.459636490E1,-1.020000055E-1,5.652000427E0,7.128000259E0
2.461626280E1,-3.769500256E-1,5.869950294E0,6.177000523E0
2.463616089E1,-5.329500437E-1,6.106950283E0,6.103050232E0
2.465605880E1,-4.350000322E-1,6.217950344E0,6.805050373E0
2.467595695E1,-3.769500256E-1,6.328050137E0,7.461000443E0
2.469585505E1,-2.890500128E-1,6.388050079E0,7.288950443E0
2.471575298E1,-2.430000156E-1,6.594000340E0,6.843000412E0
2.473565105E1,-2.740500271E-1,6.796950340E0,6.759000301E0
2.475554900E1,-5.500500202E-1,7.084950447E0,7.119000435E0
2.477544716E1,-5.329500437E-1,7.249950409E0,7.653000355E0
2.479534522E1,-5.230500102E-1,7.389000416E0,8.179950714E0
2.481524314E1,-6.670500040E-1,7.590000153E0,8.665950775E0
2.483514118E1,-7.699500322E-1,7.774050236E0,8.374050140E0
2.485503932E1,-1.065000057E0,7.918050289E0,7.377000332E0
2.487493718E1,-1.072050095E0,7.863000393E0,6.544050217E0
2.489483531E1,-7.369500399E-1,7.606950283E0,7.120950222E0
2.491473325E1,-1.999500096E-1,6.718050480E0,9.304950714E0
2.493463133E1,7.050000131E-3,5.509050369E0,1.082595062E1
2.495452948E1,-3.150000274E-1,4.703999996E0,1.001895046E1
2.497442733E1,-7.050000429E-1,4.584000111E0,8.035950661E0
2.499432549E1,-7.729500532E-1,4.801950455E0,7.135050297E0
2.501422341E1,-5.350500345E-1,4.873950005E0,7.401000500E0
2.503412147E1,-2.479500175E-1,4.687050343E0,8.029050827E0
2.505401964E1,-2.770500183E-1,4.708950043E0,8.029050827E0
2.507391751E1,-7.560000420E-1,4.761000156E0,7.555050373E0
2.509381558E1,-1.062000036E0,4.872000217E0,7.483050346E0
2.511371354E1,-1.029000044E0,4.993950367E0,7.885050297E0
2.513361162E1,-6.049500108E-1,4.867050171E0,8.247000694E0
2.515350978E1,2.440500110E-1,4.708950043E0,8.167950630E0
2.517340775E1,7.450500131E-1,4.813950062E0,7.662000179E0
2.519330582E1,7.230000496E-1,4.966950417E0,7.051950455E0
2.521320379E1,6.349500418E-1,5.080050468E0,6.805050373E0
2.523310193E1,9.100500345E-1,5.104050159E0,7.276950359E0
2.525300000E1,1.339050055E0,5.109000206E0,8.167950630E0
2.527289793E1,1.605000019E0,5.118000031E0,9.065999985E0
2.529279603E1,1.504050016E0,5.146950245E0,9.432000160E0
2.531269395E1,1.320000052E0,5.395950317E0,9.574050903E0
2.533259210E1,1.224000096E0,5.383950233E0,1.017495060E1
2.535249019E1,1.018050075E0,5.110950470E0,1.071405029E1
2.537238812E1,6.679500341E-1,4.953000069E0,1.058205032E1
2.539228622E1,6.540000439E-1,4.984050274E0,9.850950241E0
2.541218414E1,1.162050009E0,5.214000225E0,9.135000229E0
2.543208223E1,1.471050024E0,5.650050163E0,9.025050163E0
2.545198007E1,1.819950104E0,5.866050243E0,9.106950760E0
2.547187823E1,2.548050165E0,5.293050289E0,9.075000763E0
2.549177628E1,2.476950169E0,4.594050407E0,9.583050728E0
2.551167421E1,1.449000120E0,4.246050358E0,1.045695019E1
2.553157231E1,7.279500365E-1,4.002000332E0,1.046205044E1
2.555147016E1,6.520500183E-1,4.030950069E0,9.198000908E0
2.557136828E1,8.310000300E-1,4.381050110E0,7.657950401E0
2.559126636E1,8.959500194E-1,4.716000080E0,6.915000439E0
2.561116422E1,6.990000606E-1,4.840050220E0,6.870000362E0
2.563106229E1,5.050500035E-1,4.749000072E0,7.240950108E0
2.565096045E1,5.149500370E-1,4.833000183E0,7.614000320E0
2.567085835E1,5.530500412E-1,4.873950005E0,7.618950367E0
2.569075642E1,2.779500186E-1,4.996050358E0,7.308000565E0
2.571065433E1,-5.595000088E-2,5.166000366E0,6.919950485E0
2.573055247E1,-1.570500135E-1,5.326950073E0,6.843000412E0
2.575045060E1,9.600000083E-2,5.554050446E0,7.180950165E0
2.577034852E1,1.290000081E-1,5.695050240E0,7.702950478E0
2.579024662E1,-9.000000358E-2,5.836950302E0,7.930950165E0
2.581014453E1,-1.789500117E-1,5.940000057E0,7.513950348E0
2.583004257E1,-3.010500073E-1,6.160050392E0,7.123050213E0
2.584994071E1,-6.120000482E-1,6.471000195E0,7.179000378E0
2.586983861E1,-6.289500594E-1,6.649050236E0,7.786950588E0
2.588973673E1,-3.460500240E-1,6.787950516E0,8.869050026E0
2.590963464E1,-4.759500325E-1,7.063050270E0,9.301050186E0
2.592953273E1,-9.469500184E-1,7.269000530E0,8.673000336E0
2.594943066E1,-1.156050086E0,7.341000557E0,7.495050430E0
2.596932885E1,-1.002000093E0,7.372050285E0,6.562950134E0
2.598922696E1,-5.260500312E-1,7.006050110E0,6.625050545E0
2.600912491E1,7.005000114E-2,6.274950504E0,8.743050575E0
2.602902300E1,3.229500055E-1,5.311950207E0,1.073805046E1
2.604892114E1,2.205000073E-2,4.575000286E0,1.074705029E1
2.606881897E1,-3.100500107E-1,4.440000057E0,9.343950272E0
2.608871691E1,-4.420500100E-1,4.584000111E0,8.424000740E0
2.610861506E1,-4.780500233E-1,4.736999989E0,8.400000572E0
2.612851316E1,-2.910000086E-1,4.720950127E0,8.137050629E0
2.614841112E1,9.795000404E-2,4.833000183E0,7.248000145E0
2.616830924E1,4.069500268E-1,5.118000031E0,6.553050518E0
2.618820740E1,4.669500291E-1,5.370000362E0,6.691950321E0
2.620810531E1,3.259500265E-1,5.305050373E0,7.437000275E0
2.622800338E1,4.890000224E-1,4.990950108E0,7.876050472E0
2.624790131E1,8.100000620E-1,4.939050198E0,8.053050041E0
2.626779939E1,1.186050057E0,4.996050358E0,7.999950409E0
2.628769728E1,1.332000017E0,5.203950405E0,7.630950451E0
2.630759539E1,1.365000010E0,5.395950317E0,7.404000282E0
2.632749322E1,1.453950047E0,5.548950195E0,7.380000114E0
2.634739137E1,1.558950067E0,5.571000099E0,7.582950592E0
2.636728944E1,1.453950047E0,5.536950111E0,7.645950317E0
2.638718742E1,1.389000058E0,5.599950314E0,7.537950516E0
2.640708554E1,1.483050108E0,5.715000153E0,7.353000164E0
2.642698338E1,1.653000116E0,5.794050217E0,7.308000565E0
2.644688153E1,1.630950093E0,5.758050442E0,7.545000553E0
2.646677960E1,1.756050110E0,5.458050251E0,8.419050217E0
2.648667752E1,1.698000073E0,5.263950348E0,9.411000252E0
2.650657560E1,1.504050016E0,5.284050465E0,9.348000526E0
2.652647377E1,1.564050078E0,5.350950241E0,8.677950859E0
2.654637172E1,1.600050092E0,5.367000103E0,8.563050270E0
2.656626979E1,1.516050100E0,4.480950356E0,9.748050690E0
2.658616771E1,9.390000701E-1,3.312000275E0,1.149705029E1
2.660606579E1,2.200500071E-1,2.662950039E0,1.298400021E1
2.662596372E1,-1.789500117E-1,2.412000179E0,1.272105026E1
2.664586178E1,-1.605000161E-2,2.539050102E0,1.114500046E1
2.666575994E1,8.070000410E-1,3.073050261E0,9.235950470E0
2.668565784E1,1.690950036E0,3.550050259E0,8.158050537E0
2.670555588E1,2.091000080E0,3.619050264E0,8.022000313E0
2.672545382E1,2.032950163E0,3.468000174E0,8.127000809E0
2.674535188E1,1.780050039E0,3.526050091E0,7.801050186E0
2.676524980E1,1.617000103E0,3.744000196E0,7.063950539E0
2.678514796E1,1.341000080E0,4.227000237E0,6.493950367E0
2.680504579E1,1.108950019E0,4.639050007E0,6.642000198E0
2.682494398E1,9.250500202E-1,4.819050312E0,6.970050335E0
2.684484204E1,4.410000145E-1,4.989000320E0,7.294050217E0
2.686473994E1,-1.090500057E-1,5.034000397E0,7.614000320E0
2.688463803E1,-6.000000238E-1,4.993950367E0,7.974000454E0
2.690453596E1,-1.093050003E0,4.918950081E0,8.304000854E0
2.692443405E1,-1.480950117E0,4.936050415E0,8.447999954E0
2.694433221E1,-1.873950124E0,4.999050140E0,8.572050095E0
2.696423018E1,-2.209950209E0,5.169000149E0,8.575050354E0
2.698412826E1,-2.539950132E0,5.430000305E0,8.604000092E0
2.700402625E1,-2.997000217E0,5.851050377E0,8.752050400E0
2.702392435E1,-3.306000233E0,6.148050308E0,9.324000359E0
2.704382228E1,-3.229950190E0,6.130950451E0,1.003605080E1
2.706372045E1,-3.040950060E0,6.226950169E0,1.028700066E1
2.708361854E1,-2.938050032E0,6.838050365E0,1.027800083E1
2.710351639E1,-1.992000103E0,7.270950317E0,1.054800034E1
2.712341455E1,-1.041000009E0,7.015050411E0,1.090305042E1
2.714331244E1,-1.098000050E0,5.703000069E0,1.168095016E1
2.716321054E1,-1.642050028E0,4.474050045E0,1.213605022E1
2.718310870E1,-1.852950096E0,3.672000170E0,1.215300083E1
2.720300656E1,-1.915050149E0,3.585000277E0,1.159995079E1
2.722290448E1,-1.900950074E0,3.808050156E0,1.087905025E1
2.724280262E1,-1.558050036E0,3.676050186E0,9.877950668E0
2.726270070E1,-1.144050002E0,3.375000238E0,8.749950409E0
2.728259854E1,-1.519500017E-1,3.102000237E0,8.271000862E0
2.730249669E1,6.589500308E-1,2.983950138E0,7.591050148E0
2.732239458E1,2.730000019E-1,3.244950056E0,6.537000179E0
2.734229265E1,-3.610500097E-1,3.535050154E0,5.707950115E0
2.736219058E1,-2.959500253E-1,3.480000257E0,5.167050362E0
2.738208868E1,8.205000311E-2,3.480000257E0,5.433000088E0
2.740198683E1,2.250000089E-1,3.597000122E0,6.052950382E0
2.742188475E1,2.400000021E-2,3.886950254E0,6.601050377E0
2.744178286E1,3.019500077E-1,3.964050293E0,7.009050369E0
2.746168101E1,2.370000184E-1,4.134000301E0,7.549950123E0
2.748157887E1,-3.529500067E-1,4.234950066E0,8.689949989E0
2.750147684E1,-7.290000319E-1,3.898950100E0,9.508950233E0
2.752137498E1,-9.829500318E-1,3.982950211E0,9.528000832E0
2.754127283E1,-8.179500103E-1,4.210950375E0,8.749950409E0
2.756117102E1,-7.369500399E-1,4.455000401E0,8.062050819E0
2.758106909E1,-7.729500532E-1,4.636950016E0,7.986000538E0
2.760096704E1,-1.192050099E0,4.783050060E0,8.113050461E0
2.762086510E1,-1.419000030E0,4.942950249E0,7.758000374E0
2.764076325E1,-1.258950114E0,5.374950409E0,7.540050507E0
2.766066116E1,-7.050000429E-1,5.572950363E0,8.191950798E0
2.768055922E1,-3.705000132E-2,5.118000031E0,1.015995026E1
2.770045712E1,-1.830000132E-1,4.351950169E0,1.217895031E1
2.772035521E1,-1.374000072E0,3.885000229E0,1.257900047E1
2.774025335E1,-2.497050047E0,3.777000189E0,1.093200016E1
2.776015116E1,-2.932950258E0,4.012050152E0,8.596050262E0
2.778004931E1,-2.929950237E0,4.407000065E0,7.090050220E0
2.779994722E1,-2.665050030E0,4.579050064E0,7.056000233E0
2.781984525E1,-2.137950182E0,4.476000309E0,7.846950531E0
2.783974316E1,-1.933950067E0,4.420950413E0,8.407050133E0
2.785964124E1,-1.861950040E0,4.309050083E0,8.592000008E0
2.787953937E1,-2.344050169E0,4.306050301E0,8.254050255E0
2.789943726E1,-2.755950212E0,4.234950066E0,7.783950329E0
2.791933508E1,-2.734050035E0,4.239000320E0,7.459050179E0
2.793923324E1,-2.691000223E0,4.452000141E0,7.606950283E0
2.795913131E1,-2.727000237E0,4.720950127E0,7.789050579E0
2.797902925E1,-2.679000139E0,4.929000378E0,7.986000538E0
2.799892734E1,-2.716950178E0,5.008050442E0,8.364000320E0
2.801882527E1,-2.995050192E0,5.118000031E0,8.854949951E0
2.803872343E1,-3.286950111E0,5.322000027E0,9.082950592E0
2.805862152E1,-3.402000189E0,5.791050434E0,9.022950172E0
2.807851947E1,-3.196050167E0,6.208050251E0,9.303000450E0
2.809841755E1,-3.024000168E0,6.234000206E0,9.970950127E0
2.811831572E1,-3.168000221E0,5.959050179E0,1.040895081E1
2.813821357E1,-3.172050238E0,5.545050144E0,1.007205009E1
2.815811173E1,-3.265950203E0,5.608950138E0,9.079950333E0
2.817800965E1,-3.345000267E0,5.928000450E0,8.155950546E0
2.819790772E1,-3.274950266E0,6.367950439E0,7.609950542E0
2.821780566E1,-2.137950182E0,5.977950096E0,8.203949928E0
2.823770371E1,-9.210000634E-1,5.041950226E0,1.005705070E1
2.825760185E1,-8.830500245E-1,4.318050385E0,1.207905102E1
2.827749977E1,-1.297050118E0,3.613950253E0,1.222695065E1
2.829739783E1,-1.290000081E0,3.411000252E0,1.013895035E1
2.831729575E1,-7.840500474E-1,3.696000099E0,7.867950439E0
2.833719383E1,-4.780500233E-1,4.227000237E0,6.850050449E0
2.835709195E1,-6.259500384E-1,4.452000141E0,7.042050362E0
2.837698986E1,-5.860500336E-1,4.273050308E0,7.236000538E0
2.839688788E1,-1.909500062E-1,4.126950264E0,7.054050446E0
2.841678572E1,7.905000448E-2,4.041000366E0,7.068000317E0
2.843668383E1,-2.599500120E-1,3.985050201E0,7.674000263E0
2.845658176E1,-7.750500441E-1,3.619050264E0,8.611050606E0
2.847647984E1,-1.072050095E0,3.070950031E0,9.138000488E0
2.849637798E1,-1.297050118E0,2.698950052E0,8.577000618E0
2.851627592E1,-1.534050107E0,2.625000238E0,7.483050346E0
2.853617403E1,-1.611000061E0,2.821050167E0,6.664050102E0
2.855607196E1,-1.774050117E0,2.974950075E0,6.988950253E0
2.857597004E1,-1.744950056E0,2.865000248E0,7.654950142E0
2.859586797E1,-1.596000075E0,2.830950022E0,8.151000023E0
2.861576616E1,-1.726050138E0,3.066000223E0,8.431050301E0
2.863566423E1,-2.164050102E0,3.529950142E0,8.661000252E0
2.865556217E1,-2.313000202E0,3.850950241E0,8.568000793E0
2.867546032E1,-2.005950212E0,4.060050011E0,8.364000320E0
2.869535842E1,-1.359000087E0,4.210950375E0,8.271000862E0
2.871525636E1,-7.579500079E-1,4.287000179E0,8.422050476E0
2.873515444E1,-9.330000281E-1,4.777950287E0,8.934000015E0
2.875505240E1,-1.474050045E0,5.485050201E0,9.442049980E0
2.877495054E1,-1.230000019E0,5.161050320E0,9.151950836E0
2.879484861E1,-1.042950034E0,4.852050304E0,9.327000618E0
2.881474654E1,-8.040000200E-1,4.681950092E0,1.152105045E1
2.883464459E1,-1.549500078E-1,4.174950123E0,1.435395050E1
2.885454249E1,2.950500250E-1,4.108050346E0,1.481595039E1
2.887444066E1,5.010000467E-1,4.495950222E0,1.263705063E1
2.889433878E1,1.630500108E-1,4.927050114E0,9.880050659E0
2.891423670E1,-3.000000119E-2,5.287950039E0,8.410050392E0
2.893413473E1,-6.000000052E-3,5.193000317E0,8.410050392E0
2.895403263E1,-2.380500138E-1,4.753950119E0,8.649000168E0
2.897393077E1,-6.220500469E-1,4.479000092E0,8.422050476E0
2.899382860E1,-9.520500302E-1,4.378050327E0,7.351050377E0
2.901372675E1,-9.139500260E-1,4.359000206E0,6.261000156E0
2.903362491E1,-8.730000257E-1,4.381050110E0,5.866050243E0
2.905352275E1,-1.287000060E0,4.366050243E0,6.112950325E0
2.907342092E1,-1.845000029E0,4.243950367E0,6.382950306E0
2.909331900E1,-2.004000187E0,4.261050224E0,6.403050423E0
2.911321692E1,-1.735050082E0,4.648950100E0,6.850050449E0
2.913311497E1,-1.077000022E0,5.134950161E0,7.225950241E0
2.915301315E1,-6.979500055E-1,5.668950081E0,6.798000336E0
2.917291110E1,-8.779500127E-1,6.217950344E0,6.406950474E0
2.919280916E1,-8.490000367E-1,6.498000145E0,6.994050503E0
2.921270704E1,-9.619500637E-1,6.727950096E0,7.938000202E0
2.923260521E1,-1.315950036E0,6.996000290E0,8.401950836E0
2.925250334E1,-1.776000142E0,7.156050205E0,8.140950203E0
2.927240126E1,-2.365050077E0,7.000950336E0,7.279050350E0
2.929229932E1,-2.917950153E0,6.733050346E0,6.574950218E0
2.931219723E1,-2.830050230E0,5.743050098E0,7.284000397E0
2.933209524E1,-1.719000101E0,4.348950386E0,9.127950668E0
2.935199339E1,-8.110500574E-1,3.063000202E0,9.796050072E0
2.937189131E1,-1.738050103E0,2.877000093E0,8.719050407E0
2.939178937E1,-2.740950108E0,2.974950075E0,8.769000053E0
2.941168729E1,-2.590050220E0,2.965050220E0,1.027095032E1
2.943158543E1,-1.804950118E0,3.075000048E0,1.186800098E1
2.945148330E1,-1.294950008E0,2.995950222E0,1.144200039E1
2.947138145E1,-1.635000110E0,3.355950117E0,9.292950630E0
2.949127953E1,-1.807050109E0,3.811050177E0,7.384950161E0
2.951117744E1,-1.567950130E0,4.129050255E0,6.862050533E0
2.953107562E1,-1.246950030E0,4.407000065E0,7.617000580E0
2.955097367E1,-6.670500040E-1,4.294050217E0,9.019950867E0
2.957087157E1,-3.340500295E-1,4.122000217E0,1.000695038E1
2.959076973E1,-9.195000678E-2,4.110000134E0,1.031805038E1
2.961066759E1,2.560500205E-1,4.170000076E0,1.051695061E1
2.963056576E1,6.949500442E-1,4.230000019E0,1.066605091E1
2.965046368E1,1.150050044E0,4.135950089E0,1.041705036E1
2.967036184E1,1.231050014E0,4.194000244E0,9.942000389E0
2.969025992E1,1.276950002E0,4.359000206E0,9.516000748E0
2.971015786E1,1.459050059E0,4.464000225E0,9.006000519E0
2.973005603E1,1.578000069E0,4.591050148E0,8.788050652E0
2.974995412E1,1.552050114E0,4.764000416E0,8.998950005E0
2.976985206E1,1.689000130E0,4.881000042E0,9.387000084E0
2.978975014E1,1.990050077E0,4.905000210E0,9.283950806E0
2.980964803E1,1.789050102E0,5.062950134E0,8.616000175E0
2.982954623E1,1.225950003E0,5.146950245E0,7.861050606E0
2.984944426E1,1.030050039E0,4.716000080E0,7.854000568E0
2.986934221E1,8.220000267E-1,4.190999985E0,8.386050224E0
2.988924030E1,5.920500159E-1,3.760050297E0,8.974950790E0
2.990913823E1,1.023000002E0,3.298050165E0,9.471000671E0
2.992903637E1,1.273950100E0,3.207000256E0,9.621000290E0
2.994893421E1,9.049500227E-1,3.109050035E0,1.013400078E1
2.996883235E1,3.259500265E-1,2.959950209E0,1.031595039E1
2.998873051E1,2.400000021E-2,2.893050194E0,9.472949982E0
3.000862835E1,-2.479500175E-1,3.151950121E0,8.071949959E0
3.002852648E1,-4.399500191E-1,3.553950071E0,7.327050209E0
3.004842455E1,-6.360000372E-1,3.753000259E0,7.429950237E0
3.006832247E1,-9.210000634E-1,3.916050196E0,7.894950390E0
3.008822052E1,-1.252050042E0,4.157999992E0,8.407050133E0
3.010811842E1,-1.381050110E0,4.302000046E0,8.680050850E0
3.012801660E1,-1.644000053E0,4.423950195E0,8.272950172E0
3.014791467E1,-2.242950201E0,4.703999996E0,7.911000252E0
3.016781261E1,-2.332050085E0,4.812000275E0,8.127000809E0
3.018771075E1,-1.881000042E0,4.756950378E0,8.280000687E0
3.020760883E1,-1.410000086E0,4.939050198E0,8.119950294E0
3.022750677E1,-1.105050087E0,5.269050121E0,7.642950535E0
3.024740489E1,-1.369050026E0,5.650050163E0,6.757050514E0
3.026730305E1,-1.611000061E0,6.025950432E0,5.863950253E0
3.028720092E1,-1.089000106E0,6.366000175E0,5.754000187E0
3.030709911E1,-8.830500245E-1,6.730050087E0,6.558000088E0
3.032699706E1,-1.309050083E0,6.606000423E0,8.227950096E0
3.034689518E1,-1.366050124E0,5.833950043E0,9.868050575E0
3.036679312E1,-1.572000027E0,5.638050079E0,1.120695019E1
3.038669121E1,-1.683000088E0,5.547000408E0,1.257495022E1
3.040658941E1,-1.776000142E0,4.908000469E0,1.402605057E1
3.042648737E1,-1.948050141E0,3.966000080E0,1.428900051E1
3.044638545E1,-2.344050169E0,3.517950058E0,1.260600090E1
3.046628359E1,-2.662050009E0,3.619050264E0,1.015800095E1
3.048618153E1,-2.844000101E0,3.961050272E0,8.350049973E0
3.050607963E1,-2.904000044E0,4.093050003E0,7.504050255E0
3.052597755E1,-2.965950251E0,4.135950089E0,7.308000565E0
3.054587562E1,-2.689050198E0,4.171950340E0,7.324950218E0
3.056577353E1,-1.992000103E0,4.219950199E0,7.447050571E0
3.058567168E1,-1.423950076E0,4.179000378E0,7.456050396E0
3.060556973E1,-1.162950039E0,4.066950321E0,7.600050449E0
3.062546763E1,-1.198950052E0,3.772050142E0,8.380949974E0
3.064536570E1,-1.290000081E0,3.343950272E0,9.631050110E0
3.066526381E1,-1.624950051E0,3.061050177E0,1.096500015E1
3.068516172E1,-1.647000074E0,2.685000181E0,1.093395042E1
3.070505980E1,-1.467000127E0,2.419050217E0,9.301050186E0
3.072495795E1,-1.525050044E0,2.758950233E0,7.660050392E0
3.074485587E1,-1.531950116E0,3.127950191E0,6.937050343E0
3.076475396E1,-1.374000072E0,3.142050266E0,6.790950298E0
3.078465190E1,-1.306950092E0,3.259950161E0,6.697050095E0
3.080454998E1,-1.594050050E0,3.589950085E0,6.526950359E0
3.082444813E1,-1.804950118E0,3.801000118E0,6.807000160E0
3.084434603E1,-1.822050095E0,3.964050293E0,7.573950291E0
3.086424409E1,-1.873950124E0,4.084050179E0,8.319000244E0
3.088414202E1,-2.197950125E0,4.656000137E0,8.251950264E0
3.090404010E1,-2.001000166E0,5.454000473E0,8.338050842E0
3.092393825E1,-7.729500532E-1,5.262000084E0,9.135000229E0
3.094383618E1,-9.090000391E-1,4.807050228E0,1.102305031E1
3.096373423E1,-2.047049999E0,4.157999992E0,1.325205040E1
3.098363212E1,-3.012000084E0,3.648000240E0,1.358805084E1
3.100353019E1,-3.421050072E0,3.645000219E0,1.191600037E1
3.102342833E1,-2.890050173E0,3.763050079E0,9.817950249E0
3.104332621E1,-2.089950085E0,3.886950254E0,8.668050766E0
3.106322435E1,-1.419000030E0,3.906000137E0,7.978050232E0
3.108312240E1,-1.065000057E0,3.817950249E0,7.284000397E0
3.110302021E1,-1.002000093E0,3.733950138E0,6.967950344E0
3.112291833E1,-1.434000015E0,3.753000259E0,7.260000229E0
3.114281625E1,-2.004000187E0,3.732000113E0,7.528050423E0
3.116271440E1,-2.290950060E0,3.633000135E0,7.497000217E0
3.118261249E1,-2.413050175E0,3.688050270E0,7.260000229E0
3.120251040E1,-2.523000002E0,3.901950121E0,6.915000439E0
3.122240847E1,-2.571000099E0,4.206000328E0,6.676050186E0
3.124230642E1,-2.511000156E0,4.552950382E0,6.846000195E0
3.126220457E1,-2.218950033E0,4.780950069E0,7.231050491E0
3.128210264E1,-1.879050136E0,5.085000038E0,7.552050591E0
3.130200065E1,-1.867050052E0,5.377050400E0,7.665000439E0
3.132189873E1,-2.180999994E0,5.499000072E0,7.861050606E0
3.134179663E1,-2.631000042E0,5.643000126E0,7.987950325E0
3.136169481E1,-2.986050129E0,5.857950211E0,8.010000229E0
3.138159294E1,-3.177000046E0,6.097950459E0,8.304000854E0
3.140149099E1,-3.168000221E0,6.201000214E0,8.881050110E0
3.142138890E1,-3.213000059E0,6.237000465E0,8.833950043E0
3.144128702E1,-3.414000273E0,6.334950447E0,8.091000557E0
3.146118517E1,-3.934050083E0,6.586050510E0,7.365000248E0
3.148108310E1,-4.494000435E0,7.093950272E0,7.324950218E0
3.150098115E1,-3.714000225E0,6.922050476E0,8.383049965E0
3.152087907E1,-2.145000219E0,6.124050140E0,9.966000557E0
3.154077724E1,-2.071050167E0,5.475000381E0,1.123095036E1
3.156067530E1,-2.727000237E0,4.587000370E0,1.146105099E1
3.158057322E1,-3.091050148E0,4.072050095E0,1.080705070E1
3.160047130E1,-2.692950010E0,3.916050196E0,9.823050499E0
3.162036939E1,-2.230950117E0,3.862950087E0,8.959950447E0
3.164026734E1,-2.320050001E0,3.921000242E0,8.484000206E0
3.166016555E1,-2.437050104E0,3.778950214E0,8.053050041E0
3.168006365E1,-2.514000177E0,3.624000072E0,7.782000542E0
3.169996157E1,-2.665050030E0,3.648000240E0,8.171999931E0
3.171985969E1,-2.302950144E0,3.492000103E0,8.749950409E0
3.173975785E1,-1.953000069E0,3.490050077E0,8.995950699E0
3.175965575E1,-1.771050096E0,3.420000076E0,8.686950684E0
3.177955381E1,-1.608000040E0,3.159000158E0,7.995000362E0
3.179945198E1,-1.381050110E0,3.007950068E0,7.465950489E0
3.181934990E1,-1.366050124E0,3.039000034E0,7.411050320E0
3.183924799E1,-1.567950130E0,3.073050261E0,7.657950401E0
3.185914590E1,-1.708950043E0,3.018000126E0,7.473000526E0
3.187904404E1,-2.226000071E0,3.400950193E0,7.435050488E0
3.189894211E1,-2.443950176E0,3.817950249E0,7.642950535E0
3.191884002E1,-2.095050097E0,4.057050228E0,7.612050533E0
3.193873818E1,-2.277000189E0,4.536000252E0,7.768050194E0
3.195863625E1,-2.871000051E0,4.837950230E0,8.323050499E0
3.197853416E1,-3.342000246E0,5.020050049E0,8.649000168E0
3.199843228E1,-3.208050251E0,5.164050102E0,8.424000740E0
3.201833039E1,-3.189000130E0,5.331000328E0,8.095950127E0
3.203822830E1,-3.715950251E0,5.506050110E0,8.215950012E0
3.205812648E1,-4.185000420E0,5.221050262E0,9.451050758E0
3.207802456E1,-4.449000359E0,4.417050362E0,1.104405022E1
3.209792250E1,-4.449000359E0,3.775050163E0,1.183200073E1
3.211782062E1,-3.783000231E0,3.451050282E0,1.138695049E1
3.213771872E1,-2.836950064E0,3.432000160E0,1.005300045E1
3.215761660E1,-2.389050007E0,3.636000156E0,8.625000000E0
3.217751464E1,-2.416050196E0,3.684000254E0,7.549950123E0
3.219741279E1,-2.431950092E0,3.595050097E0,7.203000546E0
3.221731072E1,-2.404050112E0,3.645000219E0,7.602000237E0
3.223720889E1,-2.320050001E0,3.628950119E0,7.906950474E0
3.225710698E1,-2.515950203E0,3.664050102E0,7.614000320E0
3.227700494E1,-2.959050179E0,3.748050213E0,7.090050220E0
3.229690291E1,-3.256050110E0,3.853950262E0,6.574950218E0
3.231680109E1,-3.322950125E0,4.014000416E0,6.666000366E0
3.233669900E1,-3.193950176E0,4.105050087E0,7.114050388E0
3.235659715E1,-3.031050205E0,4.249050140E0,7.471050262E0
3.237649521E1,-2.905950069E0,4.570050240E0,7.437000275E0
3.239639313E1,-3.165000200E0,4.951050282E0,7.372950554E0
3.241629128E1,-3.534000158E0,5.158950329E0,7.432050228E0
3.243618936E1,-3.862050295E0,5.415000439E0,7.597950459E0
3.245608730E1,-3.832950115E0,5.722050190E0,7.852050304E0
3.247598540E1,-3.426000118E0,5.973000050E0,8.328000069E0
3.249588359E1,-3.352050066E0,5.983050346E0,8.613000870E0
3.251578174E1,-3.963000298E0,5.953950405E0,8.593950272E0
3.253567959E1,-4.509000301E0,6.004050255E0,8.380949974E0
3.255557777E1,-4.564050198E0,6.105000496E0,8.019000053E0
3.257547569E1,-4.276050091E0,6.333000183E0,7.855950356E0
3.259537380E1,-3.354000092E0,6.094950199E0,8.640000343E0
3.261527198E1,-2.410950184E0,5.406000137E0,1.009800053E1
3.263516988E1,-2.562000036E0,4.623000145E0,1.085295010E1
3.265506798E1,-2.896950245E0,3.949950218E0,1.002900028E1
3.267496613E1,-2.824950218E0,3.898950100E0,8.623050690E0
3.269486406E1,-2.692950010E0,4.069050312E0,7.974000454E0
3.271476223E1,-2.787000179E0,4.222949982E0,8.164950371E0
3.273466006E1,-2.665050030E0,4.230000019E0,8.282999992E0
3.275455823E1,-2.142000198E0,4.183950424E0,7.852050304E0
3.277445635E1,-1.720950127E0,4.314000130E0,7.411050320E0
3.279435444E1,-1.728000045E0,4.390050411E0,7.329000473E0
3.281425233E1,-1.963050127E0,4.315950394E0,7.678950310E0
3.283415048E1,-2.059050083E0,4.048050404E0,8.143950462E0
3.285404855E1,-1.872000098E0,3.805950165E0,8.488950729E0
3.287394645E1,-1.903050065E0,3.832050085E0,8.754000664E0
3.289384461E1,-1.840950131E0,3.741000175E0,8.596050262E0
3.291374270E1,-1.714050055E0,3.868050098E0,8.014050484E0
3.293364085E1,-1.431000113E0,4.177050114E0,7.855950356E0
3.295353880E1,-1.069950104E0,4.371000290E0,8.043000221E0
3.297343685E1,-1.098000050E0,4.504950047E0,8.031000137E0
3.299333499E1,-1.347000122E0,4.833000183E0,7.975950241E0
3.301323290E1,-1.479000092E0,5.547000408E0,8.553000450E0
3.303313097E1,-1.033950090E0,5.848950386E0,9.511050224E0
3.305302893E1,-4.879500270E-1,5.800950050E0,1.032795048E1
3.307292708E1,-9.190500379E-1,5.446050167E0,1.031400013E1
3.309282519E1,-2.154000044E0,5.194950104E0,9.238050461E0
3.311272310E1,-2.595000029E0,5.269050121E0,7.806000233E0
3.313262130E1,-2.535000086E0,5.571000099E0,7.072950363E0
3.315251937E1,-2.371950150E0,5.554050446E0,8.023950577E0
3.317241729E1,-2.274000168E0,4.749000072E0,9.954000473E0
3.319231544E1,-2.847000122E0,4.075950146E0,1.110900021E1
3.321221353E1,-2.916000128E0,3.550050259E0,1.008405018E1
3.323211146E1,-2.262000084E0,3.717000246E0,7.678950310E0
3.325200952E1,-1.684950113E0,4.708950043E0,6.325950146E0
3.327190766E1,-1.234950066E0,5.200050354E0,6.985050201E0
3.329180557E1,-1.069950104E0,4.821000099E0,8.434050560E0
3.331170372E1,-1.137000084E0,4.512000084E0,9.645000458E0
3.333160182E1,-1.066950083E0,4.345050335E0,9.532950401E0
3.335149972E1,-1.060050011E0,4.618050098E0,8.568000793E0
3.337139776E1,-9.330000281E-1,4.896000385E0,7.927950382E0
3.339129590E1,-1.081050038E0,4.941000462E0,7.894950390E0
3.341119384E1,-1.579950094E0,5.130000114E0,7.614000320E0
3.343109189E1,-1.498050094E0,5.298000336E0,7.090050220E0
3.345099002E1,-8.250000477E-1,5.437050343E0,7.315050125E0
3.347088796E1,-5.329500437E-1,5.599950314E0,8.315999985E0
3.349078605E1,-6.409500241E-1,5.578050137E0,8.737950325E0
3.351068419E1,-8.560500145E-1,5.310000420E0,7.818000317E0
3.353058231E1,-1.041000009E0,5.311950207E0,6.586950302E0
3.355048015E1,-1.507950068E0,5.743050098E0,6.628050327E0
3.357037827E1,-1.486050129E0,5.928000450E0,7.705050468E0
3.359027621E1,-9.210000634E-1,6.133950233E0,8.035950661E0
3.361017427E1,-4.129500091E-1,6.601050377E0,7.497000217E0
3.363007242E1,-4.489500225E-1,7.099050522E0,7.104000568E0
3.364997034E1,-6.930000186E-1,7.219050407E0,7.966950417E0
3.366986850E1,-5.790000558E-1,6.970050335E0,8.884050369E0
3.368976660E1,-2.860500216E-1,6.847050190E0,8.653950691E0
3.370966453E1,-2.740500271E-1,6.900000095E0,7.303050518E0
3.372956261E1,-7.770000100E-1,7.183050156E0,6.517950535E0
3.374946079E1,-8.970000148E-1,7.111050129E0,7.468050480E0
3.376935875E1,-5.879999995E-1,6.673050404E0,8.809950829E0
3.378925693E1,-6.889500618E-1,6.454950333E0,9.223950386E0
3.380915500E1,-8.539500237E-1,6.081000328E0,8.689949989E0
3.382905292E1,-1.054949999E0,5.877000332E0,8.043000221E0
3.384895100E1,-1.026000023E0,5.748000145E0,7.902000427E0
3.386884915E1,-8.950500488E-1,5.719050407E0,7.621950150E0
3.388874709E1,-7.960500121E-1,5.691000462E0,6.846000195E0
3.390864516E1,-6.259500384E-1,5.515950203E0,6.115050316E0
3.392854332E1,-5.710500479E-1,5.427000046E0,6.364050388E0
3.394844127E1,-3.030000031E-1,5.407950401E0,7.429950237E0
3.396833935E1,4.605000094E-2,5.331000328E0,7.987950325E0
3.398823750E1,7.200000435E-2,5.293050289E0,7.780050278E0
3.400813540E1,2.710500062E-1,5.284050465E0,7.428000450E0
3.402803348E1,5.869500041E-1,5.470050335E0,7.363050461E0
3.404793162E1,5.149500370E-1,5.548950195E0,7.492050171E0
3.406782955E1,-6.000000052E-3,5.719050407E0,7.150050163E0
3.408772767E1,-5.350500345E-1,6.004050255E0,6.735000134E0
3.410762571E1,-4.129500091E-1,6.345000267E0,6.976950169E0
3.412752365E1,-4.695000127E-2,6.550050259E0,7.702950478E0
3.414742174E1,2.520000041E-1,6.493050098E0,8.625000000E0
3.416731970E1,3.400500119E-1,6.412050247E0,8.728050232E0
3.418721784E1,-2.239500135E-1,6.414000511E0,7.873050213E0
3.420711594E1,-7.170000076E-1,6.643950462E0,7.143000126E0
3.422701385E1,-6.049500108E-1,6.694050312E0,7.413000584E0
3.424691203E1,-2.719500065E-1,6.663000107E0,8.515049934E0
3.426681009E1,5.505000427E-2,6.373050213E0,9.090000153E0
3.428670802E1,2.230500132E-1,5.857950211E0,8.497950554E0
3.430660620E1,-2.340000123E-1,5.667000294E0,6.907950401E0
3.432650430E1,-8.280000687E-1,6.016050339E0,5.320050240E0
3.434640245E1,-5.279999971E-1,6.292050362E0,5.382000446E0
3.436630038E1,2.110500038E-1,6.105000496E0,7.104000568E0
3.438619843E1,6.420000196E-1,5.640000343E0,9.051000595E0
3.440609636E1,5.269500017E-1,5.335950375E0,9.804000854E0
3.442599453E1,3.900000155E-1,5.263950348E0,9.065999985E0
3.444589261E1,1.560000032E-1,5.386950493E0,7.804050446E0
3.446579050E1,-3.100500107E-1,5.821950436E0,7.107000351E0
3.448568854E1,-2.820000052E-1,6.103050232E0,7.099950314E0
3.450558671E1,2.250000089E-1,6.105000496E0,7.540050507E0
3.452548465E1,3.739500046E-1,6.196050167E0,7.983000278E0
3.454538280E1,7.005000114E-2,6.340050220E0,8.019000053E0
3.456528087E1,-4.489500225E-1,6.330000401E0,7.933050156E0
3.458517878E1,-7.129500508E-1,6.246000290E0,7.995000362E0
3.460507692E1,-5.689499974E-1,6.213000298E0,7.477950573E0
3.462497476E1,-4.249500334E-1,6.172050476E0,6.601050377E0
3.464487292E1,-3.559500277E-1,6.174000263E0,6.502950191E0
3.466477108E1,-1.500000060E-1,6.082950115E0,7.516050339E0
3.468466891E1,-1.800000109E-2,5.937000275E0,8.721000671E0
3.470456708E1,1.249500066E-1,5.644950390E0,8.677950859E0
3.472446514E1,-3.195000067E-2,5.572950363E0,7.708050251E0
3.474436332E1,-2.380500138E-1,5.784000397E0,7.252950191E0
3.476426123E1,-1.620000005E-1,6.004050255E0,7.417950153E0
3.478415932E1,-1.069500074E-1,6.268050194E0,7.938000202E0
3.480405725E1,-2.119500041E-1,6.469050407E0,8.695050240E0
3.482395544E1,-3.079500198E-1,6.529050350E0,9.238050461E0
3.484385349E1,-6.139500141E-1,6.651000500E0,9.061050415E0
3.486375166E1,-9.670500755E-1,6.915000439E0,8.616000175E0
3.488364950E1,-1.210950017E0,7.156050205E0,8.505000114E0
3.490354766E1,-1.386000037E0,7.165950298E0,8.533950806E0
3.492344558E1,-1.587000132E0,6.949950218E0,8.452950478E0
3.494334365E1,-1.672950029E0,6.474000454E0,8.529000282E0
3.496324178E1,-1.801950097E0,5.872950077E0,8.788050652E0
3.498313993E1,-2.056050062E0,5.602050304E0,9.363000870E0
3.500303787E1,-2.073000193E0,5.523000240E0,9.586050034E0
3.502293591E1,-2.044049978E0,5.542050362E0,9.247950554E0
3.504283386E1,-2.080049992E0,5.655000210E0,8.469000816E0
3.506273200E1,-2.113950014E0,5.751000404E0,7.951950550E0
3.508263008E1,-1.873950124E0,5.751000404E0,7.746000290E0
3.510252798E1,-1.534050107E0,5.650050163E0,7.440000534E0
3.512242609E1,-1.194000006E0,5.497050285E0,6.918000221E0
3.514232420E1,-9.900000691E-1,5.403000355E0,6.264000416E0
3.516222213E1,-1.002000093E0,5.479950428E0,5.497050285E0
3.518212017E1,-1.017000079E0,5.410050392E0,5.320050240E0
3.520201812E1,-1.534050107E0,5.257050037E0,6.610950470E0
3.522191628E1,-1.825950146E0,4.881000042E0,8.328000069E0
3.524181434E1,-1.591950059E0,4.560000420E0,9.142050743E0
3.526171248E1,-9.589500427E-1,4.548000336E0,8.692049980E0
3.528161042E1,-4.249500334E-1,4.741950035E0,7.918950558E0
3.530150852E1,-5.710500479E-1,4.915050030E0,8.218050003E0
3.532140643E1,-8.370000124E-1,4.816950321E0,9.315000534E0
3.534130462E1,-8.899500370E-1,4.703999996E0,9.801000595E0
3.536120268E1,-3.769500256E-1,4.756950378E0,9.451050758E0
3.538110058E1,-1.090500057E-1,5.041950226E0,8.424000740E0
3.540099868E1,-6.139500141E-1,5.515950203E0,8.011950493E0
3.542089685E1,-6.529500484E-1,5.524950027E0,9.018000603E0
3.544079475E1,-3.700500131E-1,5.212050438E0,9.576000214E0
3.546069283E1,-8.250000477E-1,5.286000252E0,8.320950508E0
3.548059097E1,-1.297050118E0,5.443950176E0,7.039950371E0
3.550048889E1,-1.759050131E0,5.712000370E0,6.847950459E0
3.552038693E1,-1.975050092E0,5.809950352E0,7.546950340E0
3.554028486E1,-1.651050091E0,5.407950401E0,8.308950424E0
3.556018297E1,-1.270950079E0,4.996050358E0,8.902950287E0
3.558008114E1,-1.096050024E0,4.714050293E0,9.363000870E0
3.559997904E1,-1.450050116E0,4.608000278E0,9.094950676E0
3.561987711E1,-2.152050018E0,4.908000469E0,8.292000771E0
3.563977526E1,-2.266950130E0,5.227950096E0,7.626000404E0
3.565967310E1,-1.824000120E0,5.439000130E0,7.243050575E0
3.567957127E1,-1.366050124E0,5.616000175E0,7.119000435E0
3.569946942E1,-1.113000035E0,5.691000462E0,7.138050556E0
3.571936731E1,-8.830500245E-1,5.535000324E0,7.425000191E0
3.573926516E1,-7.489500642E-1,5.299950123E0,7.669950485E0
3.575916331E1,-1.110000014E0,5.278950214E0,7.768050194E0
3.577906147E1,-1.350000024E0,5.293050289E0,7.552050591E0
3.579895958E1,-1.258950114E0,5.311950207E0,7.023000240E0
3.581885753E1,-1.036050081E0,5.355000019E0,6.853050232E0
3.583875561E1,-8.520000577E-1,5.413050175E0,7.222050190E0
3.585865354E1,-1.042950034E0,5.407950401E0,7.678950310E0
3.587855171E1,-1.402050018E0,5.395950317E0,7.405950546E0
3.589844980E1,-1.816950083E0,5.671950340E0,6.940950394E0
3.591834772E1,-1.555950046E0,5.929950237E0,7.252950191E0
3.593824584E1,-1.041000009E0,6.100050449E0,7.876050472E0
3.595814372E1,-1.122000098E0,6.367950439E0,8.092950821E0
3.597804188E1,-1.558050036E0,6.591000080E0,7.783950329E0
3.599793996E1,-1.969950080E0,6.943050385E0,7.641000271E0
3.601783786E1,-1.699050069E0,6.960000515E0,8.179950714E0
3.603773599E1,-1.683000088E0,6.802050114E0,8.529000282E0
3.605763409E1,-2.431950092E0,6.754050255E0,7.701000214E0
3.607753200E1,-3.181950092E0,6.820950508E0,6.823950291E0
3.609743015E1,-3.750000238E0,6.967050552E0,7.210050106E0
3.611732798E1,-3.550950050E0,7.009950161E0,8.161050797E0
3.613722614E1,-2.347950220E0,6.675000191E0,9.135000229E0
3.615712423E1,-9.930000305E-1,6.067050457E0,9.957000732E0
3.617702216E1,-1.089000106E0,5.604000092E0,1.024695015E1
3.619692030E1,-2.001000166E0,5.322000027E0,9.328950882E0
3.621681813E1,-2.193000078E0,5.359950066E0,8.227950096E0
3.623671632E1,-1.765950084E0,5.563950062E0,8.152950287E0
3.625661442E1,-1.477050066E0,5.547000408E0,8.500950813E0
3.627651232E1,-1.575000048E0,5.248050213E0,8.164950371E0
3.629641047E1,-1.909950137E0,5.104050159E0,7.732050419E0
3.631630855E1,-1.675050020E0,5.109000206E0,7.902000427E0
3.633620650E1,-1.180050015E0,5.137050152E0,8.380949974E0
3.635610462E1,-7.630500197E-1,5.142000198E0,8.497950554E0
3.637600252E1,-5.279999971E-1,5.046000004E0,7.690950394E0
3.639590067E1,-9.859500527E-1,5.170950413E0,6.685050488E0
3.641579877E1,-1.146000028E0,5.355000019E0,6.526950359E0
3.643569667E1,-7.770000100E-1,5.338950157E0,7.264950275E0
3.645559480E1,-6.910500526E-1,5.379000187E0,7.741050243E0
3.647549289E1,-7.530000210E-1,5.275950432E0,7.567050457E0
3.649539080E1,-1.150950074E0,5.307000160E0,6.853050232E0
3.651528894E1,-1.342950106E0,5.587950230E0,7.191000462E0
3.653518678E1,-1.000050068E0,5.620950222E0,8.620050430E0
3.655508490E1,-5.980500579E-1,5.691000462E0,9.432000160E0
3.657498300E1,-1.759500057E-1,5.854050159E0,8.836050034E0
3.659488093E1,-2.359500080E-1,6.067050457E0,7.497000217E0
3.661477906E1,-8.539500237E-1,6.370950222E0,7.300950527E0
3.663467717E1,-1.240050077E0,6.418950081E0,8.773950577E0
3.665457511E1,-8.760000467E-1,6.354000092E0,9.643050194E0
3.667447319E1,-5.790000558E-1,6.316050529E0,8.568000793E0
3.669437112E1,-8.730000257E-1,6.052050114E0,6.910050392E0
3.671426928E1,-1.702050090E0,6.196050167E0,5.812950134E0
3.673416735E1,-2.145000219E0,6.021000385E0,6.271050453E0
3.675406530E1,-1.789950132E0,5.338950157E0,8.103000641E0
3.677396348E1,-1.120050073E0,4.600950241E0,9.817950249E0
3.679386133E1,-4.060500264E-1,3.997050285E0,1.064895058E1
3.681375945E1,-2.860500216E-1,4.029000282E0,9.952050209E0
3.683365752E1,-4.759500325E-1,4.555050373E0,8.407050133E0
3.685355546E1,-4.110000134E-1,5.215950012E0,7.179000378E0
3.687345356E1,-2.770500183E-1,5.698050499E0,6.793050289E0
3.689335144E1,-3.000000119E-2,5.887050152E0,7.143000126E0
3.691324957E1,1.410000026E-1,5.985000134E0,7.801050186E0
3.693314764E1,-2.839500010E-1,6.094950199E0,8.350049973E0
3.695304554E1,-9.640500546E-1,6.166950226E0,8.244000435E0
3.697294365E1,-1.431000113E0,6.085950375E0,7.573950291E0
3.699284171E1,-1.716000080E0,6.127050400E0,7.228950500E0
3.701273964E1,-1.764000058E0,6.286950111E0,7.312950134E0
3.703263769E1,-1.660950065E0,6.342000484E0,7.131000519E0
3.705253560E1,-1.314000010E0,6.220050335E0,6.793050289E0
3.707243376E1,-1.441050053E0,6.258000374E0,6.369000435E0
3.709233183E1,-2.178000212E0,6.304050446E0,6.180000305E0
3.711222975E1,-2.743950129E0,6.186000347E0,6.570000172E0
3.713212787E1,-2.662050009E0,6.189000130E0,7.095000267E0
3.715202583E1,-2.362950087E0,6.403950214E0,7.428000450E0
3.717192396E1,-2.017950058E0,6.553050518E0,7.840050220E0
3.719182178E1,-1.933950067E0,6.582000256E0,8.473950386E0
3.721171995E1,-2.047049999E0,6.249000072E0,8.806950569E0
3.723161804E1,-2.296050072E0,6.076050282E0,8.782950401E0
3.725151599E1,-2.356050014E0,6.117000103E0,8.632050514E0
3.727141414E1,-2.149950027E0,6.337050438E0,8.355000496E0
3.729131222E1,-1.975050092E0,6.679950237E0,7.959000587E0
3.731121016E1,-1.843050122E0,6.664950371E0,7.597950459E0
3.733110828E1,-2.047049999E0,6.699000359E0,7.249950409E0
3.735100615E1,-2.296050072E0,6.676950455E0,7.368000507E0
3.737090423E1,-1.939050078E0,6.106950283E0,8.113050461E0
3.739080238E1,-1.093050003E0,5.442000389E0,9.232950211E0
3.741070029E1,-7.080000043E-1,5.173050404E0,9.652950287E0
3.743059835E1,-9.900000691E-1,5.065950394E0,8.944050789E0
3.745049628E1,-1.407000065E0,5.170950413E0,7.852050304E0
3.747039436E1,-1.459950089E0,5.394000053E0,7.435050488E0
3.749029252E1,-1.237050056E0,5.485050201E0,7.558950424E0
3.751019048E1,-9.019500613E-1,5.403000355E0,7.300950527E0
3.753008855E1,-7.650000453E-1,5.479950428E0,6.795000553E0
3.754998647E1,-1.030950069E0,5.712000370E0,6.592050076E0
3.756988466E1,-1.468950033E0,5.980050087E0,6.700050354E0
3.758978275E1,-1.192050099E0,6.079050064E0,7.249950409E0
3.760968070E1,-6.409500241E-1,6.238950253E0,7.617000580E0
3.762957875E1,-6.670500040E-1,6.208050251E0,7.561950207E0
3.764947670E1,-1.102950096E0,5.901000500E0,7.696050167E0
3.766937482E1,-1.339950085E0,5.607000351E0,7.789050579E0
3.768927292E1,-1.546050072E0,5.686050415E0,7.588050365E0
3.770917084E1,-1.327950120E0,5.785950184E0,7.423050404E0
3.772906894E1,-9.109500647E-1,5.736000061E0,7.114050388E0
3.774896686E1,-5.929500461E-1,5.809950352E0,6.655950546E0
3.776886499E1,-4.729500115E-1,6.009000301E0,6.508050442E0
3.778876306E1,-3.079500198E-1,6.241950512E0,7.060950279E0
3.780866096E1,-2.939999998E-1,6.481050491E0,7.665000439E0
3.782855902E1,-2.029500157E-1,6.582000256E0,7.732050419E0
3.784845720E1,-6.000000052E-3,6.679950237E0,7.774950504E0
3.786835513E1,2.320500165E-1,6.949950218E0,8.017050743E0
3.788825317E1,4.579500258E-1,7.422000408E0,7.999950409E0
3.790815108E1,5.770500302E-1,7.671000481E0,7.971000195E0
3.792804914E1,3.400500119E-1,7.497000217E0,8.227950096E0
3.794794705E1,-2.860500216E-1,7.147050381E0,8.505000114E0
3.796784513E1,-5.089499950E-1,6.637050152E0,8.637000084E0
3.798774330E1,-2.140500098E-1,6.178950310E0,8.769000053E0
3.800764119E1,1.440000087E-1,5.854050159E0,8.938950539E0
3.802753927E1,1.819500029E-1,5.626050472E0,8.805000305E0
3.804743720E1,-6.599999964E-2,5.533050060E0,7.794000149E0
3.806733526E1,-3.850500286E-1,5.704950333E0,6.685050488E0
3.808723340E1,-3.370500207E-1,5.952000141E0,6.313950062E0
3.810713133E1,4.605000094E-2,6.016050339E0,6.525000095E0
3.812702943E1,7.695000619E-2,6.037950516E0,6.975000381E0
3.814692736E1,-3.130500019E-1,5.901000500E0,7.447050571E0
3.816682542E1,-6.310500503E-1,5.832000256E0,7.807950497E0
3.818672358E1,-5.790000558E-1,5.985000134E0,7.648050308E0
3.820662146E1,-4.350000322E-1,6.285000324E0,7.369950294E0
3.822651961E1,-3.340500295E-1,6.427950382E0,7.204950333E0
3.824641756E1,-3.700500131E-1,6.346950531E0,7.123050213E0
3.826631566E1,-3.970500231E-1,6.391950130E0,7.009050369E0
3.828621359E1,-5.400000215E-1,6.522000313E0,6.802950382E0
3.830611168E1,-6.769500375E-1,6.709050179E0,6.738000393E0
3.832600963E1,-4.110000134E-1,6.760950089E0,6.766950130E0
3.834590779E1,-1.620000005E-1,6.784950256E0,6.735000134E0
3.836580561E1,-3.439500034E-1,6.778050423E0,6.589050293E0
3.838570378E1,-6.889500618E-1,6.775950432E0,6.568050385E0
3.840560184E1,-6.480000019E-1,6.772950172E0,6.642000198E0
3.842549969E1,-5.670000315E-1,7.018050194E0,6.762000084E0
3.844539785E1,-4.920000136E-1,7.270950317E0,7.135050297E0
3.846529592E1,-5.209500194E-1,7.390950203E0,7.684050560E0
3.848519386E1,-4.080000222E-1,7.317000389E0,8.539050102E0
3.850509192E1,-3.510000110E-1,7.117950439E0,8.785950661E0
3.852498984E1,-8.350500464E-1,7.279050350E0,8.050050735E0
3.854488792E1,-1.309050083E0,7.509000301E0,7.324950218E0
3.856478582E1,-1.230000019E0,7.281000137E0,7.840050220E0
3.858468387E1,-1.315950036E0,6.946050167E0,8.484000206E0
3.860458204E1,-1.798050046E0,6.679950237E0,8.236949921E0
3.862447995E1,-1.897950053E0,6.151050091E0,7.849050522E0
3.864437803E1,-1.680000067E0,5.679000378E0,7.927950382E0
3.866427621E1,-1.516950130E0,5.509050369E0,8.266050339E0
3.868417406E1,-1.453050017E0,5.443950176E0,8.326050758E0
3.870407200E1,-1.492950082E0,5.535000324E0,8.143950462E0
3.872397018E1,-1.249050021E0,5.679000378E0,7.906950474E0
3.874386835E1,-8.299500346E-1,5.904000282E0,7.507050514E0
3.876376626E1,-5.569500327E-1,6.013950348E0,6.814950466E0
3.878366432E1,-5.070000291E-1,5.917950153E0,6.355050087E0
3.880356222E1,-5.929500461E-1,5.731050491E0,6.658950329E0
3.882346032E1,-5.350500345E-1,5.631000042E0,7.380000114E0
3.884335824E1,-3.940500319E-1,5.608950138E0,7.770000458E0
3.886325637E1,-4.660500288E-1,5.716950417E0,7.569000244E0
3.888315446E1,-7.800000310E-1,5.827050209E0,6.915000439E0
3.890305240E1,-1.162950039E0,5.875050068E0,6.739950180E0
3.892295047E1,-1.180050015E0,5.949000359E0,7.369950294E0
3.894284842E1,-8.950500488E-1,6.103050232E0,7.564050198E0
3.896274650E1,-7.609500289E-1,6.244050503E0,6.931950092E0
3.898264438E1,-8.950500488E-1,6.306000233E0,6.498000145E0
3.900254246E1,-1.381050110E0,6.340050220E0,7.039950371E0
3.902244034E1,-1.618050098E0,6.273000240E0,7.854000568E0
3.904233849E1,-1.441050053E0,6.310950279E0,8.236949921E0
3.906223656E1,-1.177050114E0,6.418950081E0,8.149050713E0
3.908213451E1,-1.114950061E0,6.418950081E0,7.933050156E0
3.910203260E1,-1.149000049E0,6.502950191E0,7.810950279E0
3.912193075E1,-1.050000072E0,6.712950230E0,7.974000454E0
3.914182868E1,-8.200500607E-1,6.811950207E0,8.434050560E0
3.916172650E1,-6.240000129E-1,6.778050423E0,8.347050667E0
3.918162466E1,-7.170000076E-1,6.706050396E0,7.701000214E0
3.920152274E1,-1.273050070E0,6.663000107E0,7.056000233E0
3.922142068E1,-1.810050130E0,6.388050079E0,7.285950184E0
3.924131877E1,-1.699050069E0,5.824950218E0,8.709000587E0
3.926121690E1,-1.335000038E0,5.158950329E0,1.018905067E1
3.928111472E1,-1.338000059E0,4.519950390E0,1.086900043E1
3.930101289E1,-1.807050109E0,4.360949993E0,1.011495018E1
3.932091084E1,-1.837950110E0,4.576950073E0,8.295000076E0
3.934080895E1,-1.362000108E0,4.942950249E0,6.906000137E0
3.936070690E1,-8.710500598E-1,5.251950264E0,6.514950275E0
3.938060493E1,-7.489500642E-1,5.443950176E0,6.712050438E0
3.940050284E1,-1.050000072E0,5.461050034E0,7.090050220E0
3.942040090E1,-1.342950106E0,5.322000027E0,7.240950108E0
3.944029884E1,-1.687050104E0,5.317050457E0,7.459050179E0
3.946019702E1,-1.980000138E0,5.478000164E0,8.029050827E0
3.948009512E1,-2.016000032E0,5.664000034E0,8.299050331E0
3.949999307E1,-1.852950096E0,5.767050266E0,8.053050041E0
3.951989114E1,-1.644000053E0,5.856000423E0,7.641000271E0
3.953978928E1,-1.522050023E0,5.949000359E0,7.258050442E0
3.955968710E1,-1.780950069E0,6.043050289E0,7.116000175E0
3.957958526E1,-2.013000011E0,5.973000050E0,7.284000397E0
3.959948319E1,-2.209950209E0,5.937000275E0,7.087950230E0
3.961938124E1,-2.461050034E0,5.976000309E0,6.514950275E0
3.963927918E1,-2.563950062E0,6.226950169E0,6.349950314E0
3.965917724E1,-2.284050226E0,6.406950474E0,6.568050385E0
3.967907537E1,-2.206950188E0,6.519000530E0,6.799950123E0
3.969897321E1,-2.313000202E0,6.421050072E0,6.975000381E0
3.971887136E1,-2.593050241E0,6.555000305E0,7.147050381E0
3.973876927E1,-2.665050030E0,6.562050343E0,7.437000275E0
3.975866734E1,-2.716950178E0,6.663000107E0,7.807950497E0
3.977856522E1,-2.716950178E0,6.736950397E0,8.125050545E0
3.979846329E1,-2.944950104E0,6.958050251E0,8.275050163E0
3.981836120E1,-2.976000071E0,7.056000233E0,7.947000504E0
3.983825928E1,-2.847000122E0,7.129950523E0,7.351050377E0
3.985815722E1,-2.083050013E0,6.835950375E0,7.435050488E0
3.987805535E1,-1.467000127E0,6.274950504E0,8.295000076E0
3.989795319E1,-1.699050069E0,5.643000126E0,9.157050133E0
3.991785135E1,-2.134950161E0,5.134950161E0,9.097050667E0
3.993774947E1,-2.298000097E0,4.939050198E0,8.467050552E0
3.995764736E1,-2.016000032E0,5.025000095E0,8.331000328E0
3.997754545E1,-1.738050103E0,5.233050346E0,8.260950089E0
3.999744338E1,-1.831050038E0,5.350950241E0,7.593000412E0
4.001734156E1,-2.008050203E0,5.406000137E0,6.787950516E0
4.003723964E1,-2.098950148E0,5.490000248E0,6.745050430E0
4.005713760E1,-2.047049999E0,5.521050453E0,7.264950275E0
4.007703564E1,-1.747050047E0,5.398050308E0,7.689000130E0
4.009693354E1,-1.515000105E0,5.310000420E0,7.708050251E0
4.011683162E1,-1.468950033E0,5.350950241E0,7.657950401E0
4.013672975E1,-1.678050041E0,5.475000381E0,7.741050243E0
4.015662761E1,-1.792950034E0,5.389050484E0,7.672050476E0
4.017652576E1,-1.474050045E0,5.395950317E0,7.294050217E0
4.019642370E1,-9.400500655E-1,5.583000183E0,7.216950417E0
4.021632180E1,-5.569500327E-1,5.707050323E0,7.417950153E0
4.023621974E1,-6.240000129E-1,5.752950191E0,7.437000275E0
4.025611781E1,-1.054949999E0,5.734050274E0,7.344000340E0
4.027601576E1,-1.258950114E0,5.719050407E0,7.444050312E0
4.029591392E1,-1.161000013E0,5.872950077E0,7.782000542E0
4.031581177E1,-1.113000035E0,6.028050423E0,7.923000336E0
4.033570992E1,-1.105050087E0,6.088050365E0,7.974000454E0
4.035560800E1,-1.146000028E0,5.997000217E0,8.220000267E0
4.037550591E1,-1.249050021E0,5.869950294E0,8.556000710E0
4.039540405E1,-1.273050070E0,6.021000385E0,8.707050323E0
4.041530201E1,-1.057950020E0,6.493050098E0,8.455050468E0
4.043520011E1,-9.829500318E-1,7.027050495E0,7.665000439E0
4.045509828E1,-1.162950039E0,7.222950459E0,6.979950428E0
4.047499622E1,-1.282950044E0,6.907050133E0,7.642950535E0
4.049489428E1,-1.395000100E0,6.082950115E0,9.214050293E0
4.051479220E1,-1.656000137E0,5.395950317E0,1.032795048E1
4.053469023E1,-1.989000082E0,4.885950089E0,1.036605072E1
4.055458813E1,-2.185950041E0,4.630050182E0,9.328950882E0
4.057448626E1,-2.077950001E0,4.752000332E0,7.602000237E0
4.059438407E1,-1.756950140E0,5.161050320E0,6.208950520E0
4.061428214E1,-1.275000095E0,5.491950035E0,6.165000439E0
4.063418028E1,-1.054949999E0,5.391000271E0,7.525950432E0
4.065407818E1,-1.294950008E0,5.128050327E0,8.524950027E0
4.067397627E1,-1.957950115E0,5.161050320E0,8.308950424E0
4.069387421E1,-2.157000065E0,5.323950291E0,7.605000496E0
4.071377223E1,-1.861950040E0,5.557050228E0,7.365000248E0
4.073367038E1,-1.704000115E0,5.727000237E0,7.519050121E0
4.075356824E1,-2.001000166E0,5.815050125E0,7.498950481E0
4.077346608E1,-2.128050089E0,5.977950096E0,7.260000229E0
4.079336420E1,-2.218950033E0,6.112050056E0,6.771000385E0
4.081326228E1,-2.374950171E0,6.273000240E0,6.592050076E0
4.083316021E1,-2.356050014E0,6.412050247E0,7.231050491E0
4.085305827E1,-2.061000109E0,6.391950130E0,7.867950439E0
4.087295644E1,-1.900950074E0,6.442950249E0,7.702950478E0
4.089285435E1,-2.178000212E0,6.555000305E0,7.183050156E0
4.091275245E1,-2.359950066E0,6.742050171E0,7.009050369E0
4.093265034E1,-2.278950214E0,6.952950478E0,7.345950127E0
4.095254843E1,-2.190000057E0,7.041000366E0,7.804050446E0
4.097244637E1,-2.130000114E0,7.060950279E0,8.041049957E0
4.099234443E1,-1.896000147E0,7.149000168E0,8.149050713E0
4.101224259E1,-1.335000038E0,7.039050102E0,8.278050423E0
4.103214052E1,-1.216050029E0,6.706050396E0,7.822950363E0
4.105203860E1,-2.154000044E0,6.685050488E0,6.450000286E0
4.107193656E1,-3.165000200E0,6.967050552E0,5.809050083E0
4.109183465E1,-3.394950151E0,7.147050381E0,6.903000355E0
4.111173257E1,-2.959050179E0,6.940950394E0,8.545949936E0
4.113163074E1,-2.353049994E0,6.345000267E0,9.109050751E0
4.115152883E1,-2.206950188E0,5.863050461E0,8.143950462E0
4.117142680E1,-2.800950050E0,5.631000042E0,7.060950279E0
4.119132484E1,-3.196050167E0,5.500950336E0,6.742950439E0
4.121122280E1,-3.001950026E0,5.485050201E0,7.186050415E0
4.123112090E1,-2.434950113E0,5.557050228E0,7.219050407E0
4.125101886E1,-2.074949980E0,5.710050106E0,6.393000126E0
4.127091696E1,-2.386950016E0,6.052050114E0,5.599950314E0
4.129081504E1,-2.451000214E0,5.952000141E0,5.878050327E0
4.131071297E1,-1.936950088E0,5.571000099E0,7.555050373E0
4.133061104E1,-1.264050007E0,5.334000111E0,8.934000015E0
4.135050896E1,-1.261050105E0,5.260050297E0,8.853000641E0
4.137040704E1,-1.743000031E0,5.539950371E0,7.332000256E0
4.139030500E1,-1.443000078E0,5.818050385E0,6.130050182E0
4.141020307E1,-9.349500537E-1,5.917950153E0,6.580050468E0
4.143010124E1,-1.038000107E0,5.848950386E0,7.609950542E0
4.144999913E1,-1.374000072E0,5.743050098E0,7.921050549E0
4.146989725E1,-1.168050051E0,5.764950275E0,7.606950283E0
4.148979516E1,-6.600000262E-1,5.928000450E0,7.384950161E0
4.150969325E1,-7.290000319E-1,6.141000271E0,7.945050240E0
4.152959118E1,-1.077000022E0,5.992050171E0,8.697000504E0
4.154948929E1,-1.117050052E0,5.832000256E0,8.793000221E0
4.156938714E1,-1.078950047E0,6.013950348E0,8.539050102E0
4.158928533E1,-9.520500302E-1,6.079050064E0,8.161050797E0
4.160918342E1,-9.979500771E-1,6.253950119E0,7.878000259E0
4.162908134E1,-1.246950030E0,6.412050247E0,8.164950371E0
4.164897940E1,-1.062000036E0,6.222000122E0,8.493000031E0
4.166887735E1,-1.048050046E0,6.021000385E0,8.062050819E0
4.168877543E1,-1.285050035E0,6.340050220E0,6.793050289E0
4.170867354E1,-1.096050024E0,6.523950100E0,5.479950428E0
