"Time (s)","Acceleration x (m/s^2)","Acceleration y (m/s^2)","Acceleration z (m/s^2)"
2.223308100E-2,-2.851646423E0,3.281756163E0,8.690732002E0
4.225625800E-2,-2.962015390E0,3.279363394E0,8.219046593E0
6.231651800E-2,-2.549851656E0,3.435195923E0,8.717351913E0
8.237480000E-2,-1.941476464E0,3.389433384E0,1.001545811E1
1.024350600E-1,-1.939083695E0,3.233899832E0,1.044915771E1
1.225192790E-1,-2.312663078E0,3.099602699E0,9.474081993E0
1.425794870E-1,-2.466102839E0,3.063710213E0,8.606983185E0
1.626443830E-1,-2.437388897E0,3.085245609E0,8.302795410E0
1.827046430E-1,-2.238485575E0,3.214757204E0,8.314759254E0
2.027380290E-1,-1.829013824E0,3.284149170E0,9.083752632E0
2.227982890E-1,-1.699502230E0,3.253042459E0,9.613164902E0
2.428549560E-1,-1.965404749E0,3.125923634E0,9.397511482E0
2.629152160E-1,-2.173879385E0,3.027817965E0,8.995218277E0
2.829737060E-1,-2.109273195E0,3.137887716E0,8.700303078E0
3.030339140E-1,-1.771286964E0,3.310470104E0,8.755637169E0
3.231109980E-1,-1.476670623E0,3.428017616E0,8.980861664E0
3.431712060E-1,-1.364207983E0,3.495016575E0,8.758029938E0
3.632155290E-1,-1.380957723E0,3.612264872E0,8.211868286E0
3.832757370E-1,-1.457528114E0,3.856631994E0,8.125427246E0
4.033398000E-1,-1.376172066E0,4.060320854E0,8.374580383E0
4.234000080E-1,-1.215553880E0,3.940380573E0,8.444271088E0
4.434399040E-1,-1.091127157E0,3.722633839E0,8.381758690E0
4.635001120E-1,-1.162911773E0,3.617050648E0,8.293224335E0
4.835808410E-1,-1.395314693E0,3.875774384E0,8.173283577E0
5.036410500E-1,-1.285244823E0,3.557229996E0,7.897810459E0
5.237017270E-1,-1.141376376E0,2.735594511E0,8.513663292E0
5.437619350E-1,-2.248056889E0,2.409871578E0,9.797711372E0
5.638264140E-1,-2.207378864E0,1.755733609E0,1.020239735E1
5.838866230E-1,-2.636292458E0,-3.690928817E-1,1.146969604E1
6.039374040E-1,-3.098406315E0,-2.203789711E0,9.126823425E0
6.239976120E-1,-3.577569008E0,-1.554736495E0,1.085414219E1
6.440566230E-1,-2.276770830E0,-8.793623447E-1,1.458604908E1
6.641168310E-1,-3.048156977E0,-1.374975681E0,1.983470535E1
6.841944870E-1,-2.288734913E0,-2.977568626E0,1.798774529E1
7.042546960E-1,-4.082753658E-1,-4.381557465E0,1.028375340E1
7.243050600E-1,-8.300103545E-1,-4.096512318E0,5.495117188E0
7.443652680E-1,-4.353740692E0,-3.935894251E0,3.272184849E0
7.644166750E-1,-8.033304214E0,-3.638885021E0,1.913959026E0
7.844768830E-1,-8.172087669E0,1.439581871E0,4.241278172E-1
8.045455810E-1,-3.881756544E0,2.436192513E0,2.270788670E0
8.246057890E-1,-3.101696372E-1,4.381856322E-1,7.083353043E0
8.446567270E-1,-2.513959408E0,4.911268353E-1,1.121575832E1
8.647169350E-1,-2.010868311E0,1.233500123E0,1.091874886E1
8.847779250E-1,-1.373779297E0,8.144569993E-1,9.138788223E0
9.048381330E-1,-4.633102715E-1,2.035992861E0,9.835996628E0
9.249008930E-1,-1.115055323E0,2.728415966E0,1.129472065E1
9.449611020E-1,-1.196411371E0,1.825424552E0,1.296909904E1
9.650195910E-1,-6.550351977E-1,1.269392371E0,1.539571953E1
9.850798000E-1,-1.551147223E0,7.208378315E-1,1.497189140E1
1.005143810E0,-2.255235434E0,5.653043389E-1,1.184327602E1
1.025204018E0,-1.582253933E0,1.204786181E0,1.077248764E1
1.045254696E0,-1.462313771E0,1.437189102E0,1.088285637E1
1.065314175E0,-2.137987137E0,6.323033571E-1,8.506484032E0
1.085380321E0,-3.544069529E0,-5.748756528E-1,6.161219120E0
1.105439800E0,-4.593322277E0,-1.077966571E0,4.836492538E0
1.125496050E0,-4.451846600E0,2.754737139E-1,3.224328518E0
1.145555529E0,-4.325026989E0,2.543869495E0,2.522334099E0
1.165615998E0,-2.530709028E0,3.669692516E0,4.735994339E0
1.185675477E0,5.449653864E-1,3.262613773E0,9.189037323E0
1.205759435E0,5.425725579E-1,1.667199135E0,1.241575813E1
1.225818914E0,-1.251446247E0,-6.969095767E-2,1.301007557E1
1.245859018E0,-1.399801224E-1,3.113660514E-1,1.273460197E1
1.265918498E0,1.982453585E0,1.418046474E0,1.173081303E1
1.285981831E0,3.247060299E0,1.719841242E0,1.100967598E1
1.306041310E0,3.671188116E0,1.961815476E0,1.137846947E1
1.326097821E0,2.569293261E0,1.624128342E0,9.586843491E0
1.346157248E0,1.716551185E0,1.341476202E0,6.975676060E0
1.366217925E0,1.984846354E0,1.674377680E0,5.076074123E0
1.386277404E0,2.863909483E0,2.491227388E0,3.801596880E0
1.406342925E0,3.194418192E0,2.831307411E0,3.243471146E0
1.426402404E0,3.608974695E0,2.630310297E0,5.147858620E0
1.446459800E0,2.348854542E0,1.633699656E0,7.452445984E0
1.466519279E0,2.032702923E0,1.154536963E0,7.696813107E0
1.486583341E0,2.224427700E0,1.612164259E0,6.894320011E0
1.506642821E0,2.609971285E0,1.748555183E0,5.294120312E0
1.526703029E0,2.832803011E0,1.025324464E0,5.308476925E0
1.546762508E0,3.304787159E0,2.682952285E-1,7.188936710E0
1.566822925E0,4.124029636E0,-2.060818523E-1,7.979465485E0
1.586882404E0,6.850052834E0,-1.797607988E-1,6.446264267E0
1.606946466E0,1.054158020E1,1.268195957E-1,9.428618431E0
1.627005946E0,9.763015747E0,-8.455637097E-1,1.913749695E1
1.647059852E0,8.198707581E0,-3.674777269E0,2.544258499E1
1.667119331E0,7.659724236E0,-3.389732361E0,2.307339096E1
1.687182873E0,7.829914093E0,-7.402794957E-1,1.882134438E1
1.707242352E0,7.218846798E0,5.270192027E-1,1.841187286E1
1.727319904E0,5.134698391E0,8.135596663E-2,1.691934967E1
1.747379383E0,3.002693415E0,-5.294120312E-1,1.178345490E1
1.767426362E0,2.408675194E0,1.698904037E-1,7.955537319E0
1.787485841E0,2.861516714E0,1.348654628E0,6.448657036E0
1.807551518E0,2.969193697E0,1.976172447E0,5.521737576E0
1.827610998E0,2.516651154E0,2.163111687E0,5.102395058E0
1.847667248E0,3.038884640E0,1.528116345E0,5.837889194E0
1.867726727E0,2.648256540E0,5.294120312E-1,6.491727829E0
1.887779071E0,1.769193292E0,-1.390828192E-1,7.236793041E0
1.907838550E0,1.474576950E0,-7.115656137E-1,7.426125050E0
1.927898446E0,1.359422326E0,-7.139584422E-1,6.846463680E0
1.947957925E0,1.441077471E0,-3.113660514E-1,6.276074886E0
1.968019696E0,1.220638633E0,-1.342971772E-1,5.665306568E0
1.988079175E0,1.122233868E0,2.635096014E-1,5.263013363E0
2.008150216E0,1.263709426E0,7.953144312E-1,5.495117188E0
2.028209696E0,1.548754454E0,1.506580949E0,5.995815277E0
2.048213446E0,2.535793781E0,2.469691992E0,6.161219120E0
2.068272612E0,3.244667530E0,3.238685369E0,5.643771172E0
2.088382716E0,3.599403381E0,2.956033230E0,6.041578293E0
2.108441935E0,3.225524902E0,1.882852316E0,7.732705593E0
2.128499175E0,3.616153240E0,1.597807288E0,1.008754253E1
2.148558393E0,4.104887009E0,1.842174292E0,1.219083309E1
2.168625164E0,3.980161428E0,1.856531262E0,1.255723381E1
2.188684383E0,3.965804338E0,1.712662816E0,1.187438202E1
2.208763862E0,5.034199715E0,1.820638895E0,1.224826050E1
2.228823133E0,5.810371399E0,1.520937920E0,1.428425407E1
2.248860946E0,5.817550182E0,1.106680512E0,1.508196068E1
2.268920164E0,5.755336761E0,8.718847632E-1,1.333340645E1
2.288987664E0,5.757729530E0,4.959124923E-1,1.400878048E1
2.309046883E0,5.185246468E0,-1.510469317E-1,1.683560181E1
2.329097977E0,3.460320711E0,-7.666005492E-1,1.495035553E1
2.349157196E0,1.634896040E0,-7.187440991E-1,8.219046593E0
2.369224018E0,5.808576941E-1,1.794617027E-1,3.392125130E0
2.389283237E0,5.042873621E-1,7.833502889E-1,3.868596077E0
2.409366154E0,6.720840335E-1,6.011967063E-1,6.453442574E0
2.429425425E0,1.124626637E0,1.435693651E-1,8.841778755E0
2.449462664E0,1.579861164E0,3.281157911E-1,1.060977554E1
2.469521883E0,2.475973129E0,7.896314561E-2,9.857531548E0
2.489574956E0,3.527319670E0,-2.132603228E-1,8.647661209E0
2.509634175E0,3.395714521E0,4.785645381E-2,8.920742035E0
2.529689279E0,3.081955671E0,4.668995142E-1,9.553344727E0
2.549748498E0,3.165704250E0,7.351947427E-1,9.478867531E0
2.569837612E0,3.597010612E0,1.082752228E0,8.400900841E0
2.589896831E0,3.896412611E0,1.748555183E0,6.951747894E0
2.609936518E0,3.858127356E0,2.306680918E0,6.087041855E0
2.629995737E0,3.858127356E0,2.440978289E0,6.261717796E0
2.650079383E0,3.805186272E0,2.285145521E0,6.580561161E0
2.670138654E0,3.683152199E0,2.263610125E0,6.549155712E0
2.690179800E0,3.144168854E0,2.165504456E0,6.611668110E0
2.710239018E0,2.607578516E0,1.849352837E0,7.078567505E0
2.730296623E0,2.586043119E0,1.561915040E0,8.120641708E0
2.750355841E0,3.196810961E0,1.420439363E0,9.598808289E0
2.770416154E0,3.982554197E0,1.545165181E0,1.150080299E1
2.790475373E0,4.200600147E0,1.722234130E0,1.257637691E1
2.810586883E0,4.267599106E0,2.232503414E0,1.091396332E1
2.830646154E0,4.787439823E0,2.934497833E0,8.626125336E0
2.850669591E0,6.037988663E0,2.824128866E0,9.969994545E0
2.870728810E0,7.240382195E0,1.916351795E0,1.533350658E1
2.890793758E0,7.479963779E0,1.343868971E0,1.936989975E1
2.910852977E0,6.057131290E0,8.455637097E-1,1.647398567E1
2.930902768E0,4.305884361E0,1.219143152E0,9.795318604E0
2.950961987E0,3.841377735E0,2.325823545E0,5.334797859E0
2.971035268E0,4.317848682E0,3.363112211E0,3.526123285E0
2.991094487E0,4.447360039E0,3.588336706E0,3.131008387E0
3.011159123E0,4.150351048E0,2.833700180E0,3.993321896E0
3.031218393E0,3.465106249E0,1.576271892E0,5.265406132E0
3.051272404E0,2.485544443E0,6.969096065E-1,6.309873104E0
3.071333185E0,1.615753531E0,4.573282301E-1,5.921638012E0
3.091399175E0,6.000002623E-1,5.988038778E-1,4.958526611E0
3.111459956E0,-4.298107624E-1,6.083751321E-1,5.047360420E0
3.131512508E0,-9.113663435E-1,7.881359458E-1,5.368297577E0
3.151573289E0,-1.258624673E0,1.209571838E0,5.857031822E0
3.171637925E0,-1.177268744E0,1.588235974E0,6.302694798E0
3.191698706E0,-3.915255964E-1,2.143969059E0,6.764808655E0
3.211750893E0,1.414756417E0,3.116352320E0,7.586444378E0
3.231811727E0,1.857727647E0,3.396611691E0,9.273084641E0
3.251875789E0,1.520040631E0,2.979961395E0,1.051376343E1
3.271936571E0,2.360818624E0,3.437588930E0,1.075095177E1
3.292000321E0,2.509472847E0,3.562015533E0,1.161326599E1
3.312061102E0,2.011167526E0,2.836092949E0,1.235833073E1
3.332115581E0,1.740479350E0,1.777269006E0,1.339561939E1
3.352176362E0,2.197807550E0,1.427617788E0,1.441615868E1
3.372255998E0,2.308176517E0,1.717448473E0,1.345304680E1
3.392316779E0,1.697408557E0,1.183250785E0,1.219561863E1
3.412370946E0,9.403793216E-1,-8.404789865E-2,1.430578899E1
3.432431779E0,3.583251834E-1,-9.128618240E-1,1.618146324E1
3.452479643E0,1.761715710E-1,-1.284048438E0,1.349133205E1
3.472540425E0,-2.455634177E-1,-4.815555513E-1,9.859925270E0
3.492597352E0,1.307079345E-1,1.746760458E-1,8.343473434E0
3.512658133E0,6.888338327E-1,2.491526604E-1,1.136650562E1
3.532726675E0,2.363211393E0,2.632104978E-2,1.455494213E1
3.552787456E0,3.436392307E0,-4.067798331E-2,1.471077442E1
3.572838446E0,4.159922123E0,-3.137588799E-1,1.213310623E1
3.592899227E0,4.492823601E0,5.270192027E-1,9.404690742E0
3.612960685E0,3.182454109E0,1.593021631E0,7.876275063E0
3.633021518E0,1.790728688E0,8.503493667E-1,6.362515450E0
3.653079279E0,1.836192250E0,2.156531364E-1,5.097609520E0
3.673140060E0,2.176272154E0,9.819545746E-1,6.362515450E0
3.693174071E0,1.970489502E0,1.317547917E0,6.151648045E0
3.713234852E0,2.054238319E0,1.406082392E0,5.662913799E0
3.733328914E0,1.481755376E0,1.020538807E0,5.437689304E0
3.753389696E0,2.033899166E-2,-1.534397453E-1,5.140680313E0
3.773445321E0,-2.982055247E-1,-9.601201117E-2,5.957530022E0
3.793506102E0,7.414759398E-1,4.501497746E-1,6.645167351E0
3.813561102E0,1.637288928E0,8.614161611E-2,7.557730198E0
3.833621883E0,1.445863128E0,-1.217049360E0,8.606983185E0
3.853681206E0,1.493719578E0,-6.565307379E-1,8.175975800E0
3.873741987E0,1.139282703E0,7.088736892E-1,1.042044353E1
3.893797300E0,1.771586061E0,1.109073281E0,1.159651566E1
3.913858081E0,2.483151674E0,1.410868049E0,1.345783234E1
3.933915633E0,3.211168051E0,2.115255117E0,1.502214050E1
3.953976414E0,3.757329702E0,2.254039049E0,1.536939907E1
3.974038654E0,2.890230656E0,7.546364665E-1,1.769791412E1
3.994099435E0,2.550150633E0,-8.407780528E-1,2.226850510E1
4.014157560E0,2.873480797E0,-1.329512119E0,2.175823593E1
4.034218341E0,2.090130568E0,-7.594220638E-1,1.498146248E1
4.054230060E0,2.011167526E0,9.173483849E-1,8.568697929E0
4.074289539E0,2.866302490E0,2.608475685E0,5.562415123E0
4.094397248E0,2.983550787E0,2.874378204E0,4.879563808E0
4.114456727E0,2.451745987E0,1.880459547E0,5.294120312E0
4.134515529E0,1.663609982E0,5.365904570E-1,6.087041855E0
4.154575008E0,6.912266612E-1,-5.503492057E-2,6.870391846E0
4.174643810E0,9.164510965E-1,7.417750359E-2,6.954140663E0
4.194703341E0,8.419744968E-1,4.238287210E-1,6.824629307E0
4.214762248E0,4.181457460E-1,1.003789067E0,6.091827393E0
4.234821779E0,-1.519442350E-1,1.528116345E0,5.159822941E0
4.254879696E0,-9.257232547E-1,1.633699656E0,5.056931496E0
4.274939227E0,-1.512562990E0,1.918744683E0,6.039185047E0
4.295003029E0,-1.649253011E0,2.333002090E0,7.155436993E0
4.315062560E0,-1.306780219E0,2.524727106E0,7.960322857E0
4.335131883E0,-7.438687682E-1,2.793022156E0,9.605986595E0
4.355191414E0,-3.843471408E-1,2.852842808E0,1.124686432E1
4.375238602E0,-6.981059909E-1,3.125923634E0,1.131864929E1
4.395298081E0,-1.016949654E0,3.753740549E0,1.013539886E1
4.415357196E0,-1.009771109E0,3.708276987E0,9.871889114E0
4.435416675E0,-1.004985452E0,3.224328518E0,1.134018517E1
4.455496310E0,-9.927222729E-1,3.023032188E0,1.304836082E1
4.475555789E0,-6.933203340E-1,2.922533751E0,1.329272842E1
4.495657768E0,-6.885347366E-1,2.979961395E0,1.188156128E1
4.515717248E0,-6.981059909E-1,2.819343328E0,1.153190994E1
4.535739383E0,-1.830509305E-1,2.203789711E0,1.416700554E1
4.555798862E0,4.516452849E-1,1.638485312E0,1.461984730E1
4.575831518E0,1.761715710E-1,1.758126378E0,1.030528927E1
4.595890998E0,-9.137591720E-1,2.833700180E0,5.866602898E0
4.615962977E0,-1.512562990E0,3.566801310E0,3.516551971E0
4.636022456E0,-1.127019525E0,3.164507866E0,4.156033993E0
4.656062039E0,-5.425725579E-1,2.778665304E0,7.517052174E0
4.676121466E0,2.288136631E-1,2.455335140E0,1.049222851E1
4.696186102E0,8.132606149E-1,2.304288149E0,1.117268753E1
4.716245633E0,7.606185079E-1,2.426621199E0,1.008514881E1
4.736346935E0,7.079764009E-1,2.735594511E0,8.489734650E0
4.756406414E0,8.036893010E-1,2.965604544E0,7.440482140E0
4.776440529E0,9.475577474E-1,3.039782047E0,6.939784050E0
4.796500008E0,1.050449133E0,3.178864956E0,6.841678143E0
4.816556310E0,8.180462122E-1,3.293720484E0,7.160222530E0
4.836615789E0,9.930213690E-1,2.840878725E0,7.080960274E0
4.856675685E0,1.136590719E0,2.560619354E0,7.188936710E0
4.876735164E0,1.139282703E0,2.469691992E0,8.063214302E0
4.896809904E0,1.313958764E0,2.405085802E0,9.380762100E0
4.916869435E0,1.484148264E0,2.433799744E0,1.028375340E1
4.936929591E0,1.316351533E0,2.694916487E0,1.064566803E1
4.956989071E0,8.228318691E-1,2.912962437E0,1.066241741E1
4.977058914E0,4.157529473E-1,2.488834620E0,1.101685429E1
4.997118446E0,3.415754437E-1,2.064706802E0,1.163240814E1
5.017170685E0,7.486543655E-1,2.079362869E0,1.209242821E1
5.037230164E0,1.529611826E0,2.146361828E0,1.177149105E1
5.057259487E0,2.451745987E0,2.031207323E0,1.140987587E1
5.077319852E0,2.997907639E0,1.758126378E0,1.307468224E1
5.097382248E0,3.338286638E0,1.303191066E0,1.573849201E1
5.117442612E0,3.251846075E0,5.653043389E-1,1.524736500E1
5.137517196E0,2.411067963E0,3.448655605E-1,1.205653572E1
5.157577560E0,1.625324726E0,9.460622668E-1,8.504091263E0
5.177623810E0,1.646860242E0,1.978565216E0,6.391229153E0
5.197684175E0,2.267498493E0,2.816950560E0,5.339583874E0
5.217760581E0,2.595614433E0,3.265006542E0,4.767100811E0
5.237820946E0,2.516651154E0,3.243471146E0,5.325226784E0
5.257883550E0,2.348854542E0,2.850450039E0,6.860820770E0
5.277943914E0,1.984846354E0,2.460120678E0,8.662017822E0
5.298005164E0,1.575075507E0,2.177468538E0,9.617950439E0
5.318065529E0,1.196710467E0,2.093719721E0,8.954241753E0
5.338125373E0,6.026921868E-1,2.297109842E0,7.507481098E0
5.358185737E0,2.512463741E-2,2.733201742E0,6.918248653E0
5.378238133E0,-2.024926096E-1,3.121138096E0,7.191329479E0
5.398298498E0,-6.819544733E-2,3.363112211E0,7.890631676E0
5.418368029E0,-2.751746029E-2,3.360719442E0,8.614161491E0
5.438428393E0,-1.423729509E-1,3.296113253E0,9.287442207E0
5.458481571E0,-1.064806059E-1,3.207578659E0,1.014018440E1
5.478541935E0,-1.232303679E-1,3.133102179E0,1.102403259E1
5.498592612E0,-2.958126962E-1,3.401397467E0,1.138325596E1
5.518652977E0,-5.042873621E-1,4.024428368E0,1.089003468E1
5.538722664E0,-3.771686554E-1,4.424329281E0,1.089482021E1
5.558783029E0,4.666004330E-2,4.331008911E0,1.166860008E1
5.578834279E0,2.335993052E-1,3.902095556E0,1.164676476E1
5.598894643E0,5.623133108E-2,3.597908020E0,1.112722397E1
5.618956935E0,-9.212367237E-2,3.432803154E0,1.014018440E1
5.639017300E0,9.242277592E-2,2.970390320E0,1.023589706E1
5.659075998E0,9.720841795E-2,1.904387712E0,1.125882912E1
5.679136362E0,-3.675973713E-1,1.066002488E0,1.099531937E1
5.699146571E0,-8.611170650E-1,1.188036442E0,9.871889114E0
5.719206935E0,-1.354636669E0,1.767697692E0,8.178368568E0
5.739325164E0,-1.534098387E0,2.450549603E0,7.246364117E0
5.759385529E0,-7.462615371E-1,2.263610125E0,8.242975235E0
5.779435633E0,5.186443329E-1,1.489831209E0,1.052572727E1
5.799495998E0,1.500898004E0,1.235892892E0,1.206371403E1
5.819556675E0,1.915155411E0,1.312762380E0,1.204696465E1
5.839617039E0,1.663609982E0,1.451546073E0,1.049462128E1
5.859673029E0,7.342974544E-1,1.621735573E0,8.264510155E0
5.879733393E0,-2.647060156E-1,1.707877159E0,7.080960274E0
5.899797768E0,-3.221337497E-1,1.978565216E0,6.841678143E0
5.919858133E0,9.242277592E-2,2.836092949E0,6.482156754E0
5.939924071E0,7.606185079E-1,3.870988846E0,6.201897144E0
5.959984435E0,1.565504193E0,4.647160530E0,6.326622963E0
5.980038446E0,2.159522533E0,4.984847546E0,6.434299946E0
6.000098810E0,2.222034931E0,4.750350952E0,6.934998035E0
6.020155477E0,1.788335800E0,4.259224415E0,7.962715626E0
6.040215841E0,1.093519926E0,4.007678986E0,8.621339798E0
6.060270685E0,9.020941257E-1,3.964607954E0,8.956634521E0
6.080330893E0,1.239781260E0,4.141676903E0,9.141180992E0
6.100398966E0,1.366600871E0,4.139284134E0,9.323334694E0
6.120459175E0,1.050449133E0,3.439981699E0,1.038694382E1
6.140524227E0,6.337988973E-1,2.642274380E0,1.160130119E1
6.160584435E0,6.242275834E-1,2.440978289E0,1.175952721E1
6.180640164E0,1.342672586E0,2.975175858E0,1.105035400E1
6.200700425E0,2.859123945E0,3.461517096E0,1.075334454E1
6.220751935E0,4.133601189E0,3.063710213E0,1.194407368E1
6.240812143E0,4.605286121E0,2.052742720E0,1.413111305E1
6.260872873E0,3.905983925E0,1.209571838E0,1.489532089E1
6.280933081E0,2.667398930E0,6.394818425E-1,1.278006554E1
6.300993914E0,2.090130568E0,5.054838061E-1,1.000588703E1
6.321054123E0,1.733300924E0,9.364909530E-1,8.017750740E0
6.341123654E0,1.759621978E0,1.581057549E0,5.442475319E0
6.361183862E0,1.876870275E0,2.239681959E0,3.794418573E0
6.381234175E0,1.788335800E0,2.488834620E0,4.022035599E0
6.401294383E0,1.876870275E0,2.134397745E0,5.416153908E0
6.421305477E0,1.903191328E0,1.854138494E0,6.702595234E0
6.441365737E0,1.594218135E0,1.992922187E0,7.270292282E0
6.461425268E0,1.071984529E0,2.129612207E0,7.485945702E0
6.481485477E0,5.401797295E-1,2.031207323E0,7.495516777E0
6.501595008E0,2.718844712E-1,2.000100613E0,7.581658363E0
6.521655216E0,1.019940674E-1,2.270788670E0,7.893024445E0
6.541725425E0,4.187439755E-2,2.577368975E0,8.640482903E0
6.561785633E0,2.120639086E-1,2.776272535E0,9.280263901E0
6.581832873E0,4.205385745E-1,3.078067303E0,9.507581711E0
6.601893081E0,6.122635007E-1,3.305684566E0,9.677771568E0
6.621958133E0,8.733802438E-1,3.257827997E0,1.035105133E1
6.642018341E0,1.091127157E0,3.229114056E0,1.141466141E1
6.662072300E0,1.110269666E0,3.471088409E0,1.206371403E1
6.682132560E0,4.420739710E-1,3.514159203E0,1.144098282E1
6.702197039E0,-2.910270393E-1,3.509373426E0,1.035344410E1
6.722257300E0,-6.909275651E-1,3.799204111E0,1.020239735E1
6.742342091E0,-7.606185079E-1,3.590729475E0,1.089960670E1
6.762402404E0,-2.192423791E-1,2.867199659E0,1.218814087E1
6.782440216E0,3.966103494E-1,2.393121719E0,1.292842102E1
6.802500477E0,5.952146053E-1,2.143969059E0,1.353948784E1
6.822578185E0,6.529414654E-1,1.882852316E0,1.524975777E1
6.842638446E0,6.050850153E-1,1.365404367E0,1.449272823E1
6.862705841E0,-8.494520187E-2,1.250249863E0,1.049462128E1
6.882766102E0,-8.467600942E-1,1.779661894E0,6.942176819E0
6.902822508E0,-1.210768223E0,2.462513685E0,5.935994625E0
6.922882768E0,-8.036893010E-1,2.366800785E0,7.926823139E0
6.942918289E0,3.750749528E-1,1.593021631E0,1.035344410E1
6.962978550E0,8.877372146E-1,1.144965649E0,1.098096180E1
6.983060008E0,5.234299302E-1,1.291226864E0,9.608379364E0
7.003120268E0,4.396811724E-1,1.995314956E0,7.677670479E0
7.023180893E0,7.797610760E-1,2.663809776E0,6.752844810E0
7.043241102E0,9.858429432E-1,2.996711254E0,6.901498795E0
7.063267039E0,1.064806104E0,3.068495989E0,7.485945702E0
7.083327039E0,1.057627559E0,3.137887716E0,7.996214867E0
7.103389487E0,1.246959686E0,3.315255880E0,7.934001446E0
7.123449487E0,1.539183140E0,3.624228954E0,7.756633759E0
7.143562508E0,1.709372640E0,3.792025566E0,8.118248940E0
7.163622508E0,1.766800404E0,3.372683525E0,8.673981667E0
7.183634748E0,1.721336842E0,2.927319288E0,8.834600449E0
7.203694748E0,1.692622900E0,3.274577856E0,8.432007790E0
7.223763446E0,1.584646821E0,3.902095556E0,8.223832130E0
7.243823446E0,1.196710467E0,3.780061483E0,8.369794846E0
7.263888654E0,5.210371017E-1,2.979961395E0,8.556734085E0
7.283948654E0,1.426720470E-1,2.675773859E0,9.306584358E0
7.304000164E0,1.737787426E-1,3.085245609E0,9.716055870E0
7.324060164E0,1.285244823E0,3.748954773E0,1.017368412E1
7.344128081E0,3.357429266E0,4.256831646E0,1.052333450E1
7.364188081E0,4.356432915E0,3.964607954E0,1.105274677E1
7.384243602E0,3.580260992E0,3.003889799E0,1.355145168E1
7.404303602E0,3.352643728E0,1.880459547E0,1.621765518E1
7.424366154E0,3.405285835E0,8.623134494E-1,1.518515205E1
7.444426206E0,3.002693415E0,5.126622319E-1,1.313210964E1
7.464475998E0,2.595614433E0,8.216354847E-1,1.047787094E1
7.484535998E0,2.535793781E0,1.358225942E0,8.226224899E0
7.504595946E0,2.693720102E0,1.798804402E0,6.007779598E0
7.524655946E0,2.665006161E0,2.165504456E0,4.728815556E0
7.544706050E0,2.324926376E0,2.069492579E0,4.941776752E0
7.564766050E0,1.747657895E0,1.511366606E0,5.540879726E0
7.584838081E0,9.403793216E-1,9.771689177E-1,5.504987717E0
7.604898081E0,9.481559694E-2,8.862416744E-1,4.913063049E0
7.624956206E0,-6.215356588E-1,1.087537885E0,4.505984306E0
7.645016206E0,-9.496514797E-1,1.360618830E0,4.707280159E0
7.665077508E0,-8.204390407E-1,1.667199135E0,5.042574406E0
7.685137508E0,-8.706883192E-1,1.909173369E0,5.571986675E0
7.705199435E0,-1.086341500E0,2.189432621E0,6.372086525E0
7.725259435E0,-1.220339537E0,2.596511602E0,7.562515736E0
7.745312977E0,-1.234696507E0,2.960819006E0,8.755637169E0
7.765373029E0,-1.074377418E0,3.188436270E0,1.019761181E1
7.785438185E0,-7.390831113E-1,3.238685369E0,1.243250847E1
7.805498185E0,-6.071787477E-1,3.408575773E0,1.435873032E1
7.825563393E0,-7.339983582E-1,3.866203070E0,1.493599892E1
7.845623393E0,-9.017950296E-1,3.978965044E0,1.487857151E1
7.865675893E0,-7.965108156E-1,3.959822416E0,1.496471310E1
7.885735893E0,-3.963112533E-1,3.880560160E0,1.481366634E1
7.905799904E0,-3.556332588E-1,3.662514210E0,1.444008636E1
7.925859904E0,-7.893323898E-1,3.137887716E0,1.428903961E1
7.945925789E0,-9.137591720E-1,2.000100613E0,1.571934891E1
7.965985841E0,-4.803591371E-1,7.666005492E-1,1.709193230E1
7.986041518E0,-4.633102715E-1,-7.178467698E-3,1.560180187E1
8.006101518E0,-8.084749579E-1,7.657032460E-2,1.140987587E1
8.026161154E0,-8.682954907E-1,7.857431173E-1,7.342077255E0
8.046221154E0,-7.797610760E-1,1.719841242E0,5.147858620E0
8.066280841E0,-6.000002623E-1,2.472084999E0,4.810171604E0
8.086340841E0,-1.016949639E-1,2.644667149E0,5.603093147E0
8.106397352E0,5.186443329E-1,2.407478571E0,6.443871498E0
8.126457352E0,7.127620578E-1,2.237289190E0,7.265506744E0
8.146540529E0,5.162515044E-1,1.980958104E0,8.142177582E0
8.166600529E0,3.077768087E-1,1.652842283E0,8.860920906E0
8.186655633E0,3.559323549E-1,1.394118309E0,9.224929810E0
8.206715633E0,5.258227587E-1,1.152144074E0,9.047860146E0
8.226756518E0,7.869395614E-1,1.188036442E0,8.650053978E0
8.246816518E0,1.359422326E0,1.458724499E0,7.984251022E0
8.266885529E0,1.807478428E0,1.873281002E0,6.887141705E0
8.286945529E0,1.637288928E0,2.232503414E0,5.938387394E0
8.306996206E0,1.323530078E0,2.417049885E0,5.538486958E0
8.327056206E0,1.131805062E0,2.522334099E0,5.550451279E0
8.347117091E0,8.156534433E-1,2.390728951E0,6.166004658E0
8.367177091E0,1.833500415E-1,2.096112728E0,7.191329479E0
8.387240008E0,-4.369892478E-1,1.786840320E0,8.561519623E0
8.407300008E0,-1.093519926E0,1.420439363E0,1.007557774E1
8.427361571E0,-1.438385487E0,1.192822099E0,1.119661522E1
8.447421571E0,-9.472586513E-1,1.657627940E0,1.130189991E1
8.467478602E0,5.401797295E-1,2.819343328E0,1.116550827E1
8.487538602E0,2.190629244E0,3.772883177E0,1.272503090E1
8.507596883E0,3.074777126E0,3.526123285E0,1.496471310E1
8.527656883E0,3.048455954E0,2.637488842E0,1.596850204E1
8.547721362E0,2.559721947E0,1.794018745E0,1.567149258E1
8.567781362E0,2.123630047E0,1.291226864E0,1.401356602E1
8.587839852E0,1.793121457E0,1.353440285E0,1.174516964E1
8.607899852E0,1.663609982E0,1.604985833E0,9.788140297E0
8.627956518E0,1.829013824E0,1.736590981E0,7.996214867E0
8.648016518E0,1.797907114E0,2.055135489E0,6.434299946E0
8.668085321E0,1.644467354E0,2.424228430E0,5.234299660E0
8.688145321E0,1.443470240E0,2.565404892E0,4.867599487E0
8.708198081E0,1.378564954E0,2.347658157E0,5.368297577E0
8.728258081E0,1.433898926E0,2.084148407E0,6.118148327E0
8.748322143E0,1.256531000E0,1.966601133E0,6.793522358E0
8.768382143E0,8.587242365E-1,2.000100613E0,6.987640381E0
8.788440581E0,3.702892959E-1,2.033600092E0,7.148258686E0
8.808500581E0,-1.351944804E-1,2.000100613E0,7.380661488E0
8.828564487E0,-2.982055247E-1,2.117648125E0,7.989036560E0
8.848624487E0,-1.734796464E-1,2.378764868E0,8.915956497E0
8.868676727E0,1.187438220E-1,2.555833578E0,9.960423470E0
8.888736727E0,4.420739710E-1,2.627917528E0,1.094028378E1
8.908798810E0,4.971089065E-1,2.740380049E0,1.155105209E1
8.928858810E0,1.618146300E-1,2.716451883E0,1.193689442E1
8.948922456E0,-3.173480928E-1,2.702095032E0,1.177388382E1
8.968982456E0,-4.082753658E-1,2.960819006E0,1.147448158E1
8.989037196E0,9.481559694E-2,3.526123285E0,1.148405361E1
9.009097248E0,5.808576941E-1,3.787240028E0,1.188634682E1
9.029157352E0,4.636093974E-1,3.296113253E0,1.215942764E1
9.049217352E0,9.002995491E-2,2.747558594E0,1.240618706E1
9.069276727E0,7.567301393E-2,2.491227388E0,1.271037483E1
9.089336727E0,4.660021961E-1,2.141576290E0,1.388435364E1
9.109397456E0,9.595218897E-1,1.626521230E0,1.505085468E1
9.129457456E0,6.000002623E-1,1.125823021E0,1.291406345E1
9.149512977E0,-2.838485837E-1,1.437189102E0,8.329116821E0
9.169573029E0,-6.598208547E-1,2.519941330E0,5.753840923E0
9.189646518E0,-2.096710801E-1,3.463909864E0,7.114758968E0
9.209706518E0,1.028913736E0,2.862414122E0,9.958030701E0
9.229745737E0,1.510469317E0,1.750947952E0,1.135693455E1
9.249805789E0,6.266204119E-1,1.085145116E0,1.049940681E1
9.269892508E0,-2.455634177E-1,1.001097202E0,8.494520187E0
9.289952456E0,-2.048854381E-1,1.384546995E0,7.294220924E0
9.310014383E0,1.235294715E-1,1.731805444E0,6.906284332E0
9.330074331E0,3.708875179E-2,1.870888233E0,6.640381813E0
9.350136258E0,-2.096710801E-1,1.837388635E0,5.943173409E0
9.370196206E0,-2.335993052E-1,1.901994944E0,5.097609520E0
9.390265268E0,-5.623133108E-2,2.208575249E0,4.568197727E0
9.410325268E0,1.794617064E-2,2.572583437E0,4.402793884E0
9.430369696E0,4.133601189E-1,2.920140982E0,5.128716469E0
9.450429696E0,1.395314693E0,3.116352320E0,6.992425919E0
9.470486987E0,2.145165443E0,2.965604544E0,9.292227745E0
9.490546987E0,2.238784790E0,2.742773056E0,1.145773220E1
9.510606258E0,1.924726725E0,2.536691189E0,1.189831066E1
9.530666258E0,1.855334878E0,2.318645239E0,1.113200951E1
9.550728446E0,2.322533369E0,2.381157637E0,1.121097183E1
9.570788446E0,2.684148788E0,2.488834620E0,1.167817116E1
9.590849279E0,2.674577475E0,2.246860504E0,1.182891846E1
9.610909279E0,2.626721144E0,1.573879123E0,1.274178028E1
9.630970998E0,2.497508526E0,6.873382926E-1,1.611685753E1
9.651030998E0,2.492722988E0,-4.307080805E-2,1.994238281E1
9.671085685E0,1.996810555E0,-7.331010103E-1,1.880220222E1
9.691145685E0,1.124626637E0,-6.206383705E-1,1.274178028E1
9.711212508E0,1.268495083E0,7.112665176E-1,8.108677864E0
9.731272508E0,2.317747831E0,2.496013165E0,4.913063049E0
9.751331571E0,3.168097258E0,3.899702787E0,3.849453449E0
9.771391571E0,3.115455151E0,3.780061483E0,4.010071754E0
9.791453602E0,2.775375128E0,2.785843849E0,4.879563808E0
9.811513654E0,2.159522533E0,2.079362869E0,6.187540054E0
9.831571414E0,1.606182218E0,1.612164259E0,7.507481098E0
9.851631414E0,1.337886930E0,1.351047516E0,7.919644833E0
9.871687352E0,9.547362328E-1,1.473081470E0,7.349255562E0
9.891747352E0,4.109672904E-1,2.050349951E0,6.673881531E0
9.911814696E0,1.316052489E-2,2.649452925E0,6.527620316E0
9.931874696E0,2.033899166E-2,3.044567823E0,6.894320011E0
9.951935685E0,4.037888348E-1,3.241078377E0,7.979465485E0
9.971995685E0,4.995017350E-1,3.113959551E0,9.867103577E0
9.992052352E0,1.555334684E-2,2.440978289E0,1.167338562E1
1.001211240E1,-6.071787477E-1,1.748555183E0,1.285663605E1
1.003217011E1,-1.040877819E0,1.832603097E0,1.239661598E1
1.005223011E1,-9.807581902E-1,2.680559635E0,1.034626579E1
1.007230522E1,-8.587242365E-1,3.638586044E0,9.155537605E0
1.009236532E1,-9.664012194E-1,3.990929127E0,9.464510918E0
1.011240506E1,-5.306084156E-1,3.471088409E0,1.033908749E1
1.013246516E1,-5.862415582E-2,3.137887716E0,1.074855900E1
1.015253891E1,-4.666004330E-2,3.078067303E0,1.143380356E1
1.017259902E1,-3.029911816E-1,2.084148407E0,1.435873032E1
1.019265850E1,-5.665007830E-1,5.916253924E-1,1.664626884E1
1.021271860E1,-1.170090318E0,-2.922234535E-1,1.394417381E1
1.023276871E1,-1.910369754E0,3.400799036E-1,9.780961990E0
1.025282881E1,-1.802393675E0,1.523330688E0,8.278866768E0
1.027289251E1,-1.071984529E0,1.511366606E0,9.812067986E0
1.029295261E1,-3.843471408E-1,7.136593461E-1,1.132822037E1
1.031301589E1,-1.136590764E-1,3.065803945E-1,1.094985580E1
1.033307600E1,-4.106681943E-1,3.305086195E-1,9.328120232E0
1.035313214E1,-7.100701332E-1,8.288139701E-1,7.631907940E0
1.037319225E1,-5.760720372E-1,1.482652783E0,6.611668110E0
1.039322964E1,-2.431706041E-1,1.952244163E0,6.553941250E0
1.041328975E1,-6.101697683E-2,2.112862349E0,6.793522358E0
1.043336834E1,-9.212367237E-2,2.103291035E0,6.515655994E0
1.045342845E1,-2.288136631E-1,2.258824587E0,5.979065418E0
1.047349152E1,5.383851007E-2,2.503191471E0,5.741877079E0
1.049355162E1,6.290132403E-1,2.654238462E0,6.340980053E0
1.051360964E1,1.211067319E0,2.615953445E0,7.818847179E0
1.053366975E1,1.601396561E0,2.424228430E0,9.392725945E0
1.055374074E1,1.361815214E0,2.282752752E0,1.038933659E1
1.057380084E1,7.223333120E-1,2.445763826E0,1.011864853E1
1.059385897E1,-3.675973713E-1,2.543869495E0,1.012104130E1
1.061391907E1,-7.076773047E-1,1.921137452E0,1.159412289E1
1.063397204E1,-1.854437590E-1,1.152144074E0,1.232004547E1
1.065403214E1,1.163510010E-1,1.432403445E0,1.207089329E1
1.067409006E1,6.000002623E-1,2.299502611E0,1.231765270E1
1.069415016E1,1.757229090E0,2.524727106E0,1.362802219E1
1.071421990E1,2.324926376E0,1.911566138E0,1.497667694E1
1.073428001E1,2.226820469E0,1.140179992E0,1.656491280E1
1.075433527E1,2.073380709E0,3.352942765E-1,1.573131371E1
1.077439537E1,1.601396561E0,1.962114573E-1,1.185045433E1
1.079440850E1,1.881655931E0,1.296012521E0,8.784351349E0
1.081446860E1,3.148954630E0,2.654238462E0,6.848856449E0
1.083457480E1,4.289134502E0,3.629014730E0,4.704887390E0
1.085463490E1,4.336990833E0,3.909274101E0,4.007678986E0
1.087469553E1,3.862913132E0,3.054138899E0,4.817350388E0
1.089475563E1,3.297608614E0,1.645663738E0,6.079863071E0
1.091481183E1,2.303390980E0,7.809575200E-1,7.061817646E0
1.093487194E1,1.323530078E0,6.179464459E-1,7.080960274E0
1.095493694E1,6.409773827E-1,7.713862062E-1,6.278467655E0
1.097499704E1,3.948157281E-2,9.771689177E-1,5.861817360E0
1.099505391E1,-3.388835192E-1,1.080359459E0,6.125326633E0
1.101511402E1,-6.239284873E-1,1.274477124E0,6.439085960E0
1.103518683E1,-1.007378340E0,1.590628862E0,7.076174736E0
1.105524699E1,-1.194018483E0,1.892423630E0,8.060821533E0
1.107525631E1,-1.203589797E0,2.175075769E0,9.062217712E0
1.109531621E1,-1.148554921E0,2.424228430E0,1.007557774E1
1.111542438E1,-1.229910851E0,2.577368975E0,1.102403259E1
1.113548433E1,-1.244267821E0,2.747558594E0,1.152712440E1
1.115557173E1,-1.311565876E0,3.154936552E0,1.160847950E1
1.117563168E1,-1.433599830E0,3.497409344E0,1.260987663E1
1.119567308E1,-1.134197950E0,3.162115097E0,1.472034550E1
1.121573298E1,-8.635098934E-1,2.313859463E0,1.623918915E1
1.123577511E1,-1.313958764E0,1.767697692E0,1.564008713E1
1.125583506E1,-1.761715651E0,1.942672849E0,1.384128284E1
1.127600657E1,-1.534098387E0,1.842174292E0,1.329272842E1
1.129606641E1,-1.376172066E0,7.498508096E-1,1.430818176E1
1.131599485E1,-1.404886007E0,-1.773679852E-1,1.413589859E1
1.133605475E1,-1.318744421E0,3.589234129E-2,1.015693378E1
1.135617058E1,-1.198804140E0,1.319940805E0,5.210072041E0
1.137623053E1,-1.502991676E0,3.061317444E0,3.209971666E0
1.139625782E1,-1.754537225E0,3.231507063E0,4.848456860E0
1.141631777E1,-5.353940725E-1,1.492223978E0,8.844171524E0
1.143633886E1,5.090730190E-1,1.483550072E-1,1.281595802E1
1.145639876E1,5.736792088E-1,-2.060818523E-1,1.425314713E1
1.147647032E1,2.264208496E-1,-1.941177398E-1,1.250219917E1
1.149653022E1,-2.551347017E-1,-9.571290575E-3,9.953245163E0
1.151661709E1,-6.550351977E-1,4.166502357E-1,8.695517540E0
1.153667704E1,-3.891327679E-1,8.766704202E-1,8.185546875E0
1.155677714E1,3.990031779E-1,1.499402523E0,7.320541859E0
1.157683704E1,1.043270707E0,2.340180635E0,6.216254234E0
1.159686730E1,1.465005636E0,3.231507063E0,5.641378403E0
1.161692720E1,1.702194214E0,3.708276987E0,5.591129303E0
1.163697058E1,1.742872238E0,3.765704632E0,6.005386829E0
1.165703053E1,1.975275040E0,3.827918053E0,6.724130630E0
1.167708808E1,2.063809633E0,4.084249020E0,7.229614735E0
1.169714803E1,1.771586061E0,4.323830605E0,7.450053215E0
1.171720855E1,1.139282703E0,4.129712582E0,7.866703510E0
1.173726850E1,5.090730190E-1,3.461517096E0,8.966205597E0
1.175731631E1,1.316052489E-2,2.840878725E0,1.059063339E1
1.177737626E1,-5.641079545E-1,2.548655272E0,1.282552910E1
1.179742881E1,-8.850452900E-1,2.112862349E0,1.479930878E1
1.181748876E1,-5.401797295E-1,1.499402523E0,1.588445377E1
1.183755016E1,-4.666004330E-2,1.231107235E0,1.614796448E1
1.185761011E1,4.779663086E-1,1.144965649E0,1.629661751E1
1.187767636E1,8.682954907E-1,7.833502889E-1,1.584856129E1
1.189773631E1,9.954141974E-1,3.687937856E-1,1.403270817E1
1.191780928E1,1.124626637E0,1.842473447E-1,1.143380356E1
1.193786923E1,1.395314693E0,6.275177598E-1,8.997611046E0
1.195793996E1,2.020738840E0,1.655235052E0,6.467799664E0
1.197799990E1,2.233999014E0,2.529512644E0,4.467699051E0
1.199804069E1,1.922333837E0,2.740380049E0,3.698705673E0
1.201810063E1,1.752443433E0,2.651845694E0,3.585943937E0
1.203816391E1,1.565504193E0,2.433799744E0,4.077070713E0
1.205822386E1,1.153639674E0,2.364407778E0,4.896313190E0
1.207829188E1,7.079764009E-1,2.311466694E0,5.607879162E0
1.209835194E1,4.666004330E-2,2.122433662E0,5.540879726E0
1.211841100E1,-7.366902828E-1,2.050349951E0,5.145465851E0
1.213847105E1,-1.237089276E0,2.115255117E0,5.432903767E0
1.215853647E1,-1.495813251E0,2.417049885E0,6.427121639E0
1.217859652E1,-1.215553880E0,2.766701221E0,7.593622684E0
1.219866131E1,-9.065806866E-1,2.999104023E0,8.942276955E0
1.221872136E1,-9.089735150E-1,2.687737942E0,1.044197845E1
1.223876371E1,-1.093519926E0,2.251646042E0,1.203260803E1
1.225882376E1,-1.016949654E0,2.512762785E0,1.336929798E1
1.227888527E1,-9.568299651E-1,2.932105064E0,1.360170078E1
1.229894532E1,-1.292423368E0,3.157329559E0,1.230329609E1
1.231900621E1,-1.316351533E0,3.248256683E0,1.166860008E1
1.233906626E1,-1.098305583E0,2.915355206E0,1.246630669E1
1.235913089E1,-7.196413875E-1,2.704487801E0,1.272233868E1
1.237919095E1,-3.245265782E-1,2.879462957E0,1.163480091E1
1.239924501E1,-8.494520187E-2,2.690130949E0,1.034387302E1
1.241930506E1,1.498505175E-1,1.940280080E0,1.100489044E1
1.243936282E1,1.158425212E0,1.731805444E0,1.314885998E1
1.245942287E1,1.024128079E0,1.995314956E0,1.267926788E1
1.247949334E1,4.660021961E-1,2.345265388E0,8.853742599E0
1.249955334E1,2.847159863E0,3.291327477E0,1.064806080E1
1.251960548E1,1.189531922E0,4.007678986E0,1.065523911E1
1.253966553E1,-7.582256794E-1,1.650449395E0,1.062413216E1
1.255972553E1,-2.633899450E0,-3.451646566E-1,9.716055870E0
1.257978558E1,-8.324031830E-1,-1.394118309E0,9.663414001E0
1.259984058E1,1.297209024E0,-9.320043921E-1,9.804889679E0
1.261990063E1,1.855334878E0,-7.163512707E-1,7.847560883E0
1.263996162E1,9.308080077E-1,4.887340367E-1,7.047461033E0
1.266002168E1,1.122233868E0,2.488834620E0,8.492127419E0
1.268005032E1,1.146461129E0,1.552343726E0,6.151648045E0
1.270011032E1,1.862513304E0,2.124826431E0,4.505984306E0
1.272019761E1,2.377568483E0,3.154936552E0,6.609275341E0
1.274025766E1,1.589432478E0,2.733201742E0,8.959027290E0
1.276032204E1,7.223333120E-1,2.112862349E0,8.544769287E0
1.278038214E1,7.582256794E-1,2.764308453E0,8.084749222E0
1.280044115E1,1.855334878E0,2.869592667E0,8.041678429E0
1.282050121E1,-6.580262631E-2,1.418046474E0,1.505085468E1
1.284056095E1,1.223031521E0,1.391725421E0,1.402313709E1
1.286062100E1,2.605185747E0,1.449153185E0,1.412872028E1
1.288068043E1,3.922733545E0,1.830210209E0,1.507238960E1
1.290074053E1,4.849653244E0,2.670988321E0,1.319671631E1
1.292080199E1,4.231706619E0,2.903391123E0,1.138834000E1
1.294086204E1,3.422035456E0,3.262613773E0,1.071266651E1
1.296092860E1,2.339283228E0,3.176471949E0,1.130429268E1
1.298098865E1,1.613360643E0,2.910569668E0,1.264576817E1
1.300104433E1,1.510469317E0,2.318645239E0,1.203260803E1
1.302110438E1,1.124626637E0,1.257428288E0,9.680164337E0
1.304111751E1,1.000199914E0,1.066002488E0,7.507481098E0
1.306117756E1,6.840481758E-1,1.391725421E0,5.878567219E0
1.308128777E1,4.540380836E-1,1.693520188E0,5.744269848E0
1.310134777E1,1.184746265E0,2.014457464E0,7.806882858E0
1.312135881E1,4.588237405E-1,8.647062778E-1,8.276473999E0
1.314141886E1,-5.688936114E-1,5.503492057E-2,6.513263226E0
1.316147569E1,-8.395816684E-1,2.563311160E-1,6.101398468E0
1.318153574E1,-8.491529226E-1,6.370890141E-1,7.941180229E0
1.320164464E1,-2.551347017E-1,7.929216027E-1,9.119645119E0
1.322170464E1,7.567301393E-2,6.179464459E-1,8.103892326E0
1.324176324E1,2.359921336E-1,8.694919348E-1,7.176972389E0
1.326182324E1,1.450648755E-1,1.149751306E0,7.766204834E0
1.328188402E1,-1.555334684E-2,1.121037364E0,9.043074608E0
1.330194402E1,2.273181453E-2,9.843474030E-1,9.917352676E0
1.332200516E1,3.469592705E-2,9.939187169E-1,9.998708725E0
1.334206522E1,-2.096710801E-1,1.111466169E0,9.493225098E0
1.336212136E1,-4.082753658E-1,1.300798178E0,9.711270332E0
1.338218136E1,-5.808576941E-1,1.564307809E0,1.018086243E1
1.340224589E1,-9.065806866E-1,1.679163337E0,9.653842926E0
1.342230595E1,-8.946165442E-1,1.427617788E0,9.239286423E0
1.344236188E1,-4.441677034E-1,1.099501967E0,9.728020668E0
1.346242194E1,1.977069676E-1,9.269196987E-1,1.072702408E1
1.348249438E1,1.043868884E-1,6.155536175E-1,1.137607670E1
1.350255444E1,-7.534400225E-1,8.614161611E-2,1.168056393E1
1.352262360E1,-1.282852054E0,-3.595215976E-1,1.257637691E1
1.354268360E1,-7.749754190E-1,-5.341976285E-1,1.334537029E1
1.356274371E1,2.575275302E-1,-4.241278172E-1,1.261705494E1
1.358280376E1,7.055835724E-1,-3.305086195E-1,1.146251774E1
1.360284714E1,6.194419861E-1,-1.510469317E-1,1.111017418E1
1.362290725E1,-1.615155339E-1,4.307080805E-2,1.111256790E1
1.364298318E1,-1.529312730E0,-2.850449979E-1,1.119900799E1
1.366304324E1,-2.094916344E0,-7.666005492E-1,1.132343483E1
1.368309938E1,-1.725823283E0,-6.038886309E-1,1.127557850E1
1.370315944E1,-1.682752490E0,-3.690928817E-1,1.011625576E1
1.372321058E1,-1.213161111E0,-1.677966863E-1,8.602197647E0
1.374327058E1,-3.460619748E-1,3.592225015E-1,7.512266636E0
1.376332720E1,6.849455088E-2,8.407780528E-1,7.136294365E0
1.378338720E1,9.242277592E-2,1.044467092E0,6.841678143E0
1.380343105E1,2.742772996E-1,1.262213945E0,6.693024158E0
1.382349105E1,6.098706722E-1,1.743769526E0,6.920641422E0
1.384354402E1,7.654041648E-1,2.143969059E0,7.251150131E0
1.386360407E1,1.148854017E0,2.218146563E0,8.338687897E0
1.388366079E1,9.164510965E-1,2.191825628E0,8.949456215E0
1.390372084E1,1.309173107E0,1.882852316E0,8.281260490E0
1.392381292E1,2.574079037E0,1.942672849E0,8.628518105E0
1.394387292E1,2.816053152E0,1.985743642E0,1.009232807E1
1.396392334E1,2.047059774E0,1.731805444E0,1.093310547E1
1.398398334E1,1.984846354E0,1.281655669E0,1.169013500E1
1.400405553E1,2.437388897E0,2.055135489E0,1.329990673E1
1.402411553E1,2.051845312E0,2.225325108E0,1.167099285E1
1.404418225E1,1.517647743E0,1.561915040E0,1.132104206E1
1.406424230E1,1.651645780E0,1.743769526E0,1.240618706E1
1.408429100E1,1.872084618E0,1.523330688E0,1.348893929E1
1.410435100E1,1.695015788E0,5.030909777E-1,1.413589859E1
1.412441266E1,1.766800404E0,2.108674943E-1,1.309382439E1
1.414447266E1,1.860120535E0,5.653043389E-1,1.077727318E1
1.416452266E1,1.512862086E0,9.029914737E-1,9.270691872E0
1.418458272E1,8.709874153E-1,8.312067389E-1,9.174679756E0
1.420465339E1,5.306084156E-1,4.621138871E-1,9.684949875E0
1.422471339E1,6.936194897E-1,2.276172489E-1,9.342476845E0
1.424476626E1,8.659027219E-1,9.332008660E-2,8.388936996E0
1.426482626E1,9.595218897E-1,4.785645381E-2,7.624729156E0
1.428488949E1,1.043270707E0,5.982056633E-2,7.418946743E0
1.430494949E1,1.091127157E0,-9.571290575E-3,7.969893932E0
1.432500324E1,1.086341500E0,-1.797607988E-1,8.662017822E0
1.434506329E1,9.308080077E-1,-2.635096014E-1,9.246764183E0
1.436512397E1,5.712863803E-1,-1.989033818E-1,9.474081993E0
1.438518397E1,1.115653589E-1,-2.252244353E-1,9.136395454E0
1.440525813E1,-2.216351926E-1,-1.821536273E-1,8.925527573E0
1.442531813E1,-6.239284873E-1,-5.024927482E-2,8.808279037E0
1.444536048E1,-1.253839016E0,-2.392822644E-3,8.185546875E0
1.446542053E1,-1.459920883E0,2.060818523E-1,7.682456017E0
1.448549053E1,-1.158126116E0,5.820540786E-1,7.358827114E0
1.450555053E1,-1.093519926E0,7.881359458E-1,7.176972389E0
1.452560490E1,-1.404886007E0,6.921239495E-1,7.622336388E0
1.454566490E1,-1.421635747E0,3.161516786E-1,8.963812828E0
1.456572694E1,-7.558328509E-1,-6.969095767E-2,1.080359459E1
1.458578694E1,4.109672904E-1,-4.408775866E-1,1.247587776E1
1.460586016E1,9.882357717E-1,-6.397809386E-1,1.384367561E1
1.462592016E1,3.774677813E-1,-9.248259664E-1,1.473948860E1
1.464598022E1,-6.430711150E-1,-1.257727385E0,1.551326752E1
1.466604022E1,-3.604189157E-1,-1.020538807E0,1.625833321E1
1.468609516E1,4.899304509E-1,-5.126622319E-1,1.553719521E1
1.470615516E1,7.328019291E-2,-3.619144261E-1,1.305075359E1
1.472620824E1,-1.009771109E0,1.172483116E-1,1.085653591E1
1.474626824E1,-2.681756020E0,1.459621787E-1,9.261120796E0
1.476632282E1,-3.441178083E0,1.028913707E-1,9.100502968E0
1.478638282E1,-2.990729094E0,-5.742774159E-2,9.582057953E0
1.480645376E1,-2.568994284E0,-5.389832854E-1,9.984351158E0
1.482651376E1,-1.625324726E0,-5.006981492E-1,9.953245163E0
1.484655152E1,-6.598208547E-1,-2.922234535E-1,8.798707962E0
1.486661157E1,-1.974078715E-1,-1.674975827E-2,7.423732281E0
1.488668256E1,-2.838485837E-1,2.108674943E-1,6.486942291E0
1.490674256E1,-5.497509837E-1,4.911268353E-1,5.916851997E0
1.492680574E1,-9.592227936E-1,6.203392744E-1,5.756234169E0
1.494686574E1,-1.321137190E0,8.407780528E-1,5.665306568E0
1.496692496E1,-8.802596331E-1,1.303191066E0,5.641378403E0
1.498698496E1,-3.029911816E-1,1.051645517E0,6.170790672E0
1.500705188E1,2.192423791E-1,7.328019142E-1,7.519444942E0
1.502711188E1,8.371888399E-1,7.402794957E-1,9.186644554E0
1.504715996E1,1.345065475E0,7.112665176E-1,1.056401253E1
1.506721996E1,2.178664923E0,7.064808607E-1,1.171167088E1
1.508728610E1,2.830410004E0,9.388837814E-1,1.272503090E1
1.510734610E1,2.063809633E0,5.102694035E-1,1.314646626E1
1.512740496E1,1.179960608E0,3.233301640E-1,1.326879978E1
1.514746496E1,1.206281662E0,5.270192027E-1,1.276331615E1
1.516752714E1,1.414756417E0,6.131607890E-1,1.145533943E1
1.518758714E1,1.529611826E0,4.767699242E-1,1.062891865E1
1.520765855E1,1.606182218E0,1.076770201E-1,1.137129116E1
1.522771855E1,1.613360643E0,-5.198407173E-1,1.262901878E1
1.524776214E1,1.620539188E0,-1.085145116E0,1.305793190E1
1.526782214E1,1.836192250E0,-1.274477124E0,1.249502087E1
1.528788662E1,1.888834357E0,-1.015753269E0,1.111017418E1
1.530794662E1,1.220638633E0,-9.583254457E-1,1.010189915E1
1.532800423E1,6.385845542E-1,-1.020538807E0,1.025025368E1
1.534806423E1,3.607180119E-1,-1.164407372E0,1.064806080E1
1.536812464E1,2.527419031E-1,-1.020538807E0,9.735198975E0
1.538818464E1,-4.513461590E-1,-1.116251707E0,7.744669437E0
1.540825803E1,-2.041975021E0,-1.339083314E0,6.218647003E0
1.542831803E1,-2.104487419E0,-7.666005492E-1,5.047360420E0
1.544836959E1,-6.717849374E-1,1.914258115E-2,5.495117188E0
1.546842959E1,3.678964674E-1,1.076770201E-1,7.107580662E0
1.548848532E1,1.067198873E0,-1.079761237E-1,8.662017822E0
1.550854532E1,1.227817178E0,-5.940182209E-1,1.044197845E1
1.552860376E1,7.390831113E-1,-1.077966571E0,1.118465137E1
1.554866376E1,-3.652045429E-1,-1.307976723E0,1.086610699E1
1.556872266E1,-1.253839016E0,-1.341476202E0,1.025264645E1
1.558878266E1,-1.287637711E0,-1.025324464E0,1.018804073E1
1.560886256E1,-1.043270707E0,-4.983053207E-1,1.026221848E1
1.562892256E1,-1.249053478E0,-4.911268353E-1,1.055204868E1
1.564892251E1,-1.692323804E0,-8.312067389E-1,1.117029476E1
1.566898256E1,-1.845763564E0,-1.087537885E0,1.169731331E1
1.568908907E1,-1.644467354E0,-1.181157112E0,1.209242821E1
1.570914907E1,-1.759322882E0,-1.176371455E0,1.244686508E1
1.572920511E1,-2.169093609E0,-1.049252748E0,1.225543976E1
1.574926511E1,-2.487638235E0,-1.130608678E0,1.218574810E1
1.576932631E1,-2.233700037E0,-1.106680512E0,1.252852058E1
1.578938631E1,-1.462313771E0,-7.115656137E-1,1.260030460E1
1.580947042E1,-1.321137190E0,-7.211369276E-1,1.238943768E1
1.582953043E1,-1.927119493E0,-7.163512707E-1,1.197517967E1
1.584958683E1,-3.119941711E0,-8.072785139E-1,1.146491051E1
1.586964688E1,-3.970590115E0,-1.058824062E0,1.077488041E1
1.588970756E1,-3.728615999E0,-8.575277925E-1,9.275477409E0
1.590976756E1,-2.760719061E0,-7.378866673E-1,8.539983749E0
1.592982490E1,-1.409671664E0,-6.684948206E-1,8.678768158E0
1.594988485E1,-2.431706041E-1,-4.121637046E-1,8.274081230E0
1.596994277E1,2.862414122E-1,-1.151545867E-1,7.442874908E0
1.599000277E1,-1.447657645E-1,1.196411327E-1,7.179365158E0
1.601009079E1,-6.598208547E-1,3.640081584E-1,7.284649372E0
1.603015074E1,-9.185447693E-1,7.304090858E-1,7.124330521E0
1.605020095E1,-1.036092162E0,1.054038405E0,6.920641422E0
1.607026100E1,-9.687940478E-1,1.032503009E0,7.095317364E0
1.609031220E1,-7.124629617E-1,1.030110121E0,7.181757927E0
1.611037230E1,-4.441677034E-1,1.030110121E0,7.483552933E0
1.613039673E1,-2.455634177E-1,9.939187169E-1,7.938787460E0
1.615045683E1,4.426721856E-2,1.070788145E0,8.449056625E0
1.617053756E1,1.450648755E-1,1.113858938E0,9.536594391E0
1.619059766E1,3.053839803E-1,1.152144074E0,1.067677498E1
1.621064162E1,7.127620578E-1,1.398903966E0,1.105753231E1
1.623070173E1,8.204390407E-1,1.446760416E0,1.102642632E1
1.625078220E1,7.438687682E-1,1.669592023E0,1.093789101E1
1.627084230E1,5.976074338E-1,1.846959949E0,1.126122189E1
1.629089865E1,2.575275302E-1,1.849352837E0,1.209242821E1
1.631095876E1,1.187438220E-1,1.418046474E0,1.336929798E1
1.633101313E1,6.050850153E-1,6.562315822E-1,1.508196068E1
1.635107324E1,1.119840980E0,6.221338734E-2,1.594457340E1
1.637113636E1,1.357029557E0,1.866401732E-1,1.527368641E1
1.639119647E1,7.438687682E-1,2.922234535E-1,1.399920845E1
1.641125746E1,-3.412763178E-1,-9.361918271E-2,1.258594799E1
1.643131756E1,-3.556332588E-1,-2.682952285E-1,1.085174942E1
1.645136194E1,1.794617064E-2,-3.547359705E-1,8.767601013E0
1.647142209E1,7.567301393E-2,-3.523431420E-1,6.609275341E0
1.649149751E1,1.091725305E-1,-1.674975827E-2,5.171787262E0
1.651155761E1,4.468596280E-1,4.645066857E-1,4.901099205E0
1.653162168E1,9.236295223E-1,6.777670383E-1,5.998208046E0
1.655168178E1,1.153639674E0,3.281157911E-1,7.639385223E0
1.657174084E1,1.122233868E0,-2.153540403E-2,8.882456779E0
1.659180095E1,9.547362328E-1,-7.686942816E-2,9.251549721E0
1.661185990E1,4.540380836E-1,-2.347957194E-1,9.361619949E0
1.663192001E1,-2.991028316E-2,7.178467698E-3,9.304191589E0
1.665196964E1,-7.725825906E-1,1.339980662E-1,8.729315758E0
1.667202975E1,-1.397707582E0,-1.390828192E-1,8.398508072E0
1.669208048E1,-1.217946768E0,-3.828516230E-2,8.549555779E0
1.671214058E1,-1.095912814E0,3.161516786E-1,9.273084641E0
1.673222777E1,-1.718644857E0,2.871387079E-2,1.032712364E1
1.675228787E1,-2.202593327E0,-6.699903309E-2,1.127797127E1
1.677235532E1,-2.631506681E0,-1.914258115E-2,1.165663528E1
1.679241542E1,-2.609971285E0,3.616153300E-1,1.185523987E1
1.681245839E1,-2.827718258E0,6.490531564E-1,1.211635685E1
1.683251850E1,-3.841078520E0,-9.840483218E-2,1.255484104E1
1.685255475E1,-3.719044685E0,-5.413761139E-1,1.319910908E1
1.687261485E1,-2.041975021E0,-4.001995921E-1,1.401595879E1
1.689270308E1,-6.622136831E-1,1.531406492E-1,1.354427338E1
1.691276318E1,-5.569294691E-1,2.563311160E-1,1.278724384E1
1.693282141E1,-1.210768223E0,3.472583890E-1,1.248305702E1
1.695288152E1,-2.609971285E0,6.939185411E-2,1.203500080E1
1.697294266E1,-4.332205296E0,-6.326025128E-1,1.107188988E1
1.699300282E1,-5.031806946E0,-8.599206209E-1,9.476474762E0
1.701305621E1,-4.181158543E0,-5.365904570E-1,8.571090698E0
1.703311631E1,-2.612364054E0,-4.456632137E-1,7.809275627E0
1.705319053E1,-9.759725332E-1,-1.079761237E-1,5.902495384E0
1.707325063E1,7.806584239E-2,3.185445070E-1,5.349154949E0
1.709329923E1,2.024926096E-1,-8.644071966E-2,6.063113689E0
1.711335923E1,4.037888348E-1,3.065803945E-1,5.389832973E0
1.713341839E1,8.539385796E-1,1.164108157E0,5.397011280E0
1.715347845E1,1.469791293E0,1.791625977E0,6.451049805E0
1.717353834E1,1.345065475E0,2.007279158E0,7.186543941E0
1.719359834E1,9.882357717E-1,2.043171406E0,8.005785942E0
1.721365855E1,7.534400225E-1,2.071885347E0,9.273084641E0
1.723371855E1,4.229314029E-1,1.990529299E0,1.023350430E1
1.725379105E1,4.325026870E-1,1.854138494E0,1.069113159E1
1.727385105E1,9.355936646E-1,1.695913076E0,1.093549824E1
1.729390303E1,1.793121457E0,1.683948994E0,1.123729324E1
1.731396303E1,1.987239242E0,1.691127419E0,1.207089329E1
1.733401949E1,9.068797827E-1,1.329512119E0,1.234636688E1
1.735407954E1,-2.335993052E-1,8.694919348E-1,1.244686508E1
1.737414157E1,-5.186443329E-1,6.634100676E-1,1.278006554E1
1.739420157E1,-6.741777658E-1,-9.122636169E-2,1.368544960E1
1.741425735E1,-1.543370634E-1,-3.041875660E-1,1.427229023E1
1.743431735E1,1.057627559E0,-4.307080805E-2,1.340997601E1
1.745437402E1,1.663609982E0,-3.834498227E-1,1.208764267E1
1.747443402E1,2.087737799E0,-3.355933726E-1,1.091635609E1
1.749450391E1,2.173879385E0,1.387837082E-1,1.044915771E1
1.751456391E1,1.922333837E0,4.070789516E-1,1.036540890E1
1.753462371E1,1.397707582E0,3.376871049E-1,9.902996063E0
1.755468376E1,8.709874153E-1,2.970091105E-1,9.936494827E0
1.757474506E1,2.168495506E-1,3.281157911E-1,9.582057953E0
1.759480506E1,-5.976074338E-1,4.668995142E-1,9.023932457E0
1.761486605E1,-1.177268744E0,7.064808607E-1,8.345866203E0
1.763492605E1,-1.548754454E0,1.032503009E0,7.435696602E0
1.765497813E1,-1.819442511E0,1.545165181E0,6.894320011E0
1.767503813E1,-2.554637194E0,1.573879123E0,6.223432541E0
1.769512839E1,-3.146561861E0,1.561915040E0,6.798308372E0
1.771518845E1,-2.274377823E0,1.973779559E0,7.699205875E0
1.773522105E1,-1.431207061E0,1.564307809E0,8.127820015E0
1.775528110E1,-7.124629617E-1,1.520937920E0,9.212965012E0
1.777534266E1,9.960123897E-2,2.112862349E0,9.402297020E0
1.779540272E1,1.785643846E-1,2.242074728E0,9.292227745E0
1.781547787E1,-5.162515044E-1,2.004886389E0,9.828818321E0
1.783553792E1,-1.014556766E0,2.009671926E0,1.083230782E1
1.785562319E1,-1.055234790E0,2.277967215E0,1.124207878E1
1.787568329E1,-1.021735311E0,2.735594511E0,1.095703411E1
1.789571694E1,-1.467099428E0,2.879462957E0,1.082991505E1
1.791577699E1,-1.960619092E0,2.800200701E0,1.081077290E1
1.793580110E1,-1.979761600E0,2.692523718E0,1.167099285E1
1.795586121E1,-1.551147223E0,2.572583437E0,1.277049446E1
1.797592871E1,-9.664012194E-1,2.189432621E0,1.307707500E1
1.799598876E1,-4.178466499E-1,1.957029819E0,1.226501083E1
1.801604912E1,-4.947160780E-1,2.218146563E0,1.098814106E1
1.803610918E1,-1.634896040E0,2.177468538E0,1.015214825E1
1.805622240E1,-2.822932482E0,1.937887192E0,9.191430092E0
1.807628246E1,-3.040978432E0,1.849352837E0,8.645268440E0
1.809630209E1,-2.681756020E0,1.346261859E0,9.119645119E0
1.811636214E1,-1.934298038E0,1.099501967E0,8.451449394E0
1.813639657E1,-1.165304661E0,1.284048438E0,7.013961315E0
1.815645662E1,-6.909275651E-1,1.561915040E0,6.264110565E0
1.817653053E1,-4.202394783E-1,2.093719721E0,5.557629585E0
1.819659058E1,-4.633102715E-1,2.553440809E0,5.088038445E0
1.821666907E1,-6.191428304E-1,2.793022156E0,5.224429131E0
1.823672912E1,-5.042873621E-1,3.082852840E0,6.072684765E0
1.825682115E1,-2.623131871E-1,3.363112211E0,7.246364117E0
1.827688121E1,-4.426721856E-2,3.667299747E0,7.943572998E0
1.829689574E1,4.683950245E-1,3.847060680E0,8.032107353E0
1.831695579E1,9.116654396E-1,3.942773581E0,8.477770805E0
1.833701855E1,1.129412293E0,4.057928085E0,9.270691872E0
1.835707855E1,1.208674550E0,4.247260094E0,9.788140297E0
1.837712168E1,1.215852976E0,4.316651821E0,1.032233810E1
1.839718173E1,1.009771109E0,4.093820572E0,1.086132145E1
1.841725053E1,5.282155871E-1,3.861417532E0,1.110538864E1
1.843731058E1,2.312064916E-1,3.787240028E0,1.104556847E1
1.845736730E1,6.744768620E-1,3.708276987E0,1.124447155E1
1.847742735E1,1.239781260E0,3.379862070E0,1.164197922E1
1.849748985E1,1.397707582E0,3.133102179E0,1.177388382E1
1.851754985E1,8.563314080E-1,2.074577332E0,1.177149105E1
1.853761438E1,1.040877819E0,1.923530340E0,1.129232788E1
1.855767438E1,1.654038668E0,2.366800785E0,1.072223854E1
1.857774350E1,1.738086581E0,2.524727106E0,9.993923187E0
1.859780350E1,1.409970760E0,2.443371058E0,8.973383904E0
1.861786751E1,1.325922847E0,2.196611166E0,8.846564293E0
1.863792751E1,9.954141974E-1,1.928315997E0,9.249156952E0
1.865798490E1,1.187438220E-1,1.827817440E0,8.884849548E0
1.867804490E1,-4.345964193E-1,1.983350873E0,8.288438797E0
1.869810891E1,-7.773682475E-1,1.679163337E0,8.257331848E0
1.871816891E1,-5.090730190E-1,2.177468538E0,7.780561924E0
1.873823168E1,-6.287141442E-1,2.515155792E0,7.507481098E0
1.875829168E1,-1.031306505E0,2.527119875E0,7.696813107E0
1.877834912E1,-1.290030479E0,2.464906454E0,8.024929047E0
1.879840912E1,-1.306780219E0,2.301895380E0,8.439186096E0
1.881847027E1,-1.167697430E0,2.373979092E0,8.609375954E0
1.883853027E1,-1.076770186E0,2.517548561E0,8.683553696E0
1.885858933E1,-1.244267821E0,2.507977247E0,8.542376518E0
1.887864933E1,-1.514955878E0,2.222932339E0,8.647661209E0
1.889870006E1,-1.773679733E0,1.688734531E0,9.318549156E0
1.891876006E1,-1.941476464E0,1.377368569E0,1.017607689E1
1.893882855E1,-1.941476464E0,1.250249863E0,1.089960670E1
1.895888855E1,-2.375175476E0,4.334000051E-1,1.103599739E1
1.897894886E1,-2.676970243E0,1.818545163E-1,1.222672558E1
1.899900886E1,-1.364207983E0,1.719841242E0,1.315364552E1
1.901905970E1,-7.124629617E-1,2.405085802E0,1.293559933E1
1.903911970E1,-1.079162955E0,1.394118309E0,1.243011570E1
1.905917735E1,-1.244267821E0,5.772684813E-1,1.233440208E1
1.907923740E1,-7.390831113E-1,1.046859860E0,1.235833073E1
1.909930016E1,-7.366902828E-1,1.458724499E0,1.220758247E1
1.911936016E1,-1.512562990E0,1.518545032E0,1.160130119E1
1.913944595E1,-2.822932482E0,1.384546995E0,1.101685429E1
1.915950595E1,-3.891327858E0,1.209571838E0,1.021914768E1
1.917951850E1,-3.939184189E0,1.180858016E0,9.098110199E0
1.919957850E1,-2.950051308E0,1.358225942E0,8.266902924E0
1.921965980E1,-1.864906192E0,1.581057549E0,7.658527851E0
1.923971980E1,-1.198804140E0,1.743769526E0,6.999604225E0
1.925977621E1,-9.520443082E-1,1.887637973E0,6.455835342E0
1.927983621E1,-1.040877819E0,1.980958104E0,6.022136211E0
1.929990225E1,-1.119840980E0,2.213361025E0,5.818746567E0
1.931996225E1,-1.028913736E0,2.582154751E0,5.928816319E0
1.934003037E1,-8.276175261E-1,2.795415163E0,6.393621922E0
1.936009037E1,-7.725825906E-1,2.802593470E0,7.124330521E0
1.938014292E1,-9.017950296E-1,2.577368975E0,7.680063248E0
1.940020293E1,-8.443672657E-1,2.438585281E0,7.802097321E0
1.942026214E1,-4.178466499E-1,2.481656075E0,7.735098362E0
1.944032214E1,2.096710801E-1,2.608475685E0,8.235795975E0
1.946037855E1,3.173480928E-1,2.436192513E0,9.646664619E0
1.948043855E1,2.551347017E-1,1.947458506E0,1.141944695E1
1.950050074E1,4.013960063E-1,1.674377680E0,1.319432354E1
1.952056074E1,6.146563292E-1,1.288834095E0,1.382213974E1
1.954062595E1,6.936194897E-1,1.010967612E0,1.329990673E1
1.956068595E1,6.768696904E-1,7.040880919E-1,1.143380356E1
1.958074496E1,6.194419861E-1,8.623134494E-1,1.219561863E1
1.960080496E1,4.372883439E-1,1.032503009E0,1.158215904E1
1.962086475E1,-5.521438122E-1,1.130608678E0,1.067916775E1
1.964092475E1,-2.346461773E0,5.940182209E-1,1.048983574E1
1.966098053E1,-3.424428225E0,-4.289134443E-1,9.589237213E0
1.968104053E1,-2.844467878E0,-1.188335538E0,8.975776672E0
1.970110303E1,-6.646065116E-1,-1.094716311E0,9.383154869E0
1.972116303E1,1.754836321E0,-2.563311160E-1,1.001067257E1
1.974123266E1,2.324926376E0,1.148554832E-1,1.008036327E1
1.976129266E1,1.290030479E0,-7.019943595E-1,9.744770050E0
1.978134209E1,7.247261405E-1,-1.423131227E0,9.016754150E0
1.980140214E1,1.282852054E0,-8.048857450E-1,8.214261055E0
1.982141829E1,1.656431437E0,3.137588799E-1,8.067999840E0
1.984147829E1,6.098706722E-1,6.753742099E-1,8.530412674E0
1.986158032E1,-1.335494161E0,4.070789516E-1,9.021539688E0
1.988164032E1,-2.799004316E0,2.467598319E-1,9.800104141E0
1.990169824E1,-3.723830223E0,3.807578981E-1,1.027418232E1
1.992175829E1,-3.951447487E0,2.060818523E-1,1.019043350E1
1.994182980E1,-3.826721668E0,3.616153300E-1,9.972387314E0
1.996188985E1,-3.534498215E0,5.054838061E-1,9.742377281E0
1.998194402E1,-2.947658300E0,7.881359458E-1,1.004656506E1
2.000200402E1,-2.336591244E0,1.147358418E0,1.023589706E1
2.002205886E1,-2.411067963E0,1.113858938E0,1.058824062E1
2.004211886E1,-2.741576433E0,7.666005492E-1,1.058345413E1
2.006218048E1,-2.655434847E0,5.150550604E-1,1.043719292E1
2.008224048E1,-2.209771633E0,6.634100676E-1,9.900602341E0
2.010229787E1,-1.977368832E0,6.753742099E-1,1.000588703E1
2.012235787E1,-2.164308071E0,6.418746710E-1,1.135693455E1
2.014244678E1,-2.338984251E0,3.352942765E-1,1.325414371E1
2.016250678E1,-1.582253933E0,-1.127617657E-1,1.512263870E1
2.018257371E1,-1.064806059E-1,-1.342971772E-1,1.532393551E1
2.020263376E1,4.229314029E-1,-1.462612897E-1,1.495514107E1
2.022269339E1,-6.000002623E-1,-2.395813614E-1,1.422204018E1
2.024275339E1,-2.193022013E0,-3.161516786E-1,1.317996597E1
2.026278657E1,-3.280559778E0,-2.324029058E-1,1.193928814E1
2.028284657E1,-3.388236761E0,-5.264209956E-2,1.069830990E1
2.030290537E1,-2.935694218E0,1.435693540E-2,9.881460190E0
2.032296537E1,-2.454138756E0,1.004985496E-1,9.100502968E0
2.034324808E1,-2.126022816E0,1.363908947E-1,7.991429329E0
2.036330808E1,-1.788036704E0,2.300100774E-1,6.934998035E0
2.038316371E1,-1.440778375E0,5.198407173E-1,6.419943333E0
2.040322371E1,-1.301994562E0,7.474579811E-1,6.417550564E0
2.042326605E1,-1.397707582E0,8.312067389E-1,6.446264267E0
2.044332605E1,-1.491027594E0,8.455637097E-1,6.374479294E0
2.046338470E1,-1.589432478E0,8.982058167E-1,6.329015732E0
2.048344470E1,-1.668395638E0,1.195214868E0,6.479763508E0
2.050352371E1,-1.560718536E0,1.652842283E0,7.001997471E0
2.052358371E1,-1.622931957E0,1.923530340E0,7.703991413E0
2.054363214E1,-1.687538147E0,1.823031783E0,8.400900841E0
2.056369220E1,-1.373779297E0,1.738983870E0,9.100502968E0
2.058375475E1,-8.587242365E-1,1.837388635E0,9.783354759E0
2.060381475E1,-4.465605319E-1,1.964208245E0,1.027657509E1
2.062387673E1,-2.479562461E-1,2.033600092E0,1.075573826E1
2.064393673E1,-3.580260873E-1,1.815853238E0,1.088764191E1
2.066399428E1,-6.646065116E-1,1.425225019E0,1.054965591E1
2.068405428E1,-6.143572330E-1,1.358225942E0,1.045394325E1
2.070411782E1,1.881356835E-1,1.676770449E0,1.020000458E1
2.072417782E1,1.012163997E0,1.535294771E0,9.682557106E0
2.074424037E1,1.071984529E0,7.785646915E-1,9.792925835E0
2.076430037E1,9.020941257E-1,1.363908947E-1,1.052094173E1
2.078435329E1,9.978070259E-1,-2.871387079E-2,1.122532940E1
2.080441324E1,8.036893010E-1,-2.850449979E-1,1.162522984E1
2.082446308E1,4.540380836E-1,-7.785646915E-1,1.174995518E1
2.084452308E1,4.061816335E-1,-9.511470199E-1,1.143619633E1
2.086458261E1,2.407777756E-1,-9.343972206E-1,1.090199947E1
2.088464261E1,-1.710868180E-1,-9.176474810E-1,1.053051376E1
2.090470522E1,-5.521438122E-1,-6.828517914E-1,1.007797050E1
2.092476522E1,-9.951151013E-1,-4.001995921E-1,9.495617867E0
2.094484027E1,-1.601396561E0,-2.491526604E-1,9.095717430E0
2.096490027E1,-2.202593327E0,-1.630110443E-1,8.746066093E0
2.098494647E1,-2.592922449E0,-2.392822644E-3,8.422436714E0
2.100500647E1,-2.789433002E0,1.674975902E-1,8.077570915E0
2.102506876E1,-2.911766052E0,1.363908947E-1,7.885846138E0
2.104512876E1,-2.619542599E0,2.754737139E-1,7.869096279E0
2.106518418E1,-2.114058733E0,4.959124923E-1,7.919644833E0
2.108524418E1,-1.951047778E0,3.975076675E-1,8.391329765E0
2.110530605E1,-2.197807550E0,-1.199402362E-1,9.153144836E0
2.112536605E1,-2.324627161E0,-6.254240274E-1,1.009472084E1
2.114542058E1,-2.399103880E0,-1.080359459E0,1.105274677E1
2.116548058E1,-2.679363251E0,-1.621735573E0,1.182174015E1
2.118554740E1,-3.048156977E0,-2.100898266E0,1.230568886E1
2.120560740E1,-3.079263687E0,-2.421835661E0,1.254526997E1
2.122566449E1,-2.528316259E0,-2.900998354E0,1.283988667E1
2.124572449E1,-1.009771109E0,-2.714059114E0,1.300768280E1
2.126578615E1,3.726821244E-1,-1.789532185E0,1.303161144E1
2.128584615E1,-1.184447184E-1,-1.406381488E0,1.361845112E1
2.130591162E1,-1.651645780E0,-1.473380566E0,1.364716530E1
2.132597162E1,-3.404986620E0,-1.708176255E0,1.325653648E1
2.134603069E1,-4.902295589E0,-2.033899307E0,1.246152115E1
2.136609068E1,-5.074877739E0,-1.856531262E0,1.080359459E1
2.138614470E1,-3.675674677E0,-9.822536707E-1,9.038289070E0
2.140620470E1,-1.848156333E0,-1.342971772E-1,7.675277710E0
2.142626464E1,-7.339983582E-1,3.520440459E-1,6.733702183E0
2.144632464E1,-6.287141442E-1,5.270192027E-1,6.233004093E0
2.146639079E1,-1.079162955E0,5.341976285E-1,6.144469261E0
2.148645079E1,-1.479063511E0,6.442674994E-1,6.273681641E0
2.150650787E1,-1.785643935E0,8.910273314E-1,6.570990086E0
2.152656787E1,-1.900798440E0,1.049252748E0,7.100102901E0
2.154662829E1,-1.857727647E0,1.123430252E0,7.835597038E0
2.156668829E1,-1.912762642E0,9.556335211E-1,8.458627701E0
2.158674511E1,-1.706680775E0,7.498508096E-1,8.995218277E0
2.160680511E1,-1.340279818E0,6.610172391E-1,9.661021233E0
2.162686923E1,-9.209375978E-1,7.809575200E-1,1.039412212E1
2.164692923E1,-3.245265782E-1,1.032503009E0,1.122772217E1
2.166699334E1,3.846462369E-1,1.408475280E0,1.173559856E1
2.168705334E1,6.625127792E-1,1.719841242E0,1.211396408E1
2.170710876E1,-1.375873089E-1,1.398903966E0,1.239422321E1
2.172716876E1,-1.481456280E0,5.150550604E-1,1.278006554E1
2.174722928E1,-1.829013824E0,3.349951655E-2,1.302443314E1
2.176728928E1,-1.076770186E0,5.264209956E-2,1.324217987E1
2.178734761E1,-1.208375469E-1,-2.392822690E-2,1.315125275E1
2.180740761E1,6.242275834E-1,-4.959124923E-1,1.285424328E1
2.182747522E1,9.786644578E-1,-1.058824062E0,1.212592793E1
2.184753522E1,1.206281662E0,-1.190728426E0,1.125164986E1
2.186759079E1,4.420739710E-1,-1.142871857E0,1.071506023E1
2.188765079E1,-1.263410330E0,-1.514058471E0,1.030768204E1
2.190770641E1,-1.800000787E0,-1.406381488E0,9.124430656E0
2.192776641E1,-1.443171144E0,-1.051645517E0,7.543373585E0
2.194783287E1,-7.462615371E-1,-8.407780528E-1,6.410371780E0
2.196789287E1,4.157529473E-1,-3.834498227E-1,5.708377361E0
2.198795141E1,1.572682738E0,2.036890239E-1,5.962316036E0
2.200801141E1,2.097309113E0,5.246263742E-1,6.750451565E0
2.202807490E1,1.496112347E0,3.329014480E-1,7.778169155E0
2.204813496E1,9.002995491E-2,-7.926224917E-2,8.734101295E0
2.206818798E1,-1.390529037E0,-2.802593410E-1,9.546165466E0
2.208824798E1,-2.561815739E0,-4.408775866E-1,9.661021233E0
2.210831662E1,-2.827718258E0,-3.906283081E-1,9.509974480E0
2.212837668E1,-1.797608018E0,1.986042857E-1,9.277871132E0
2.214842959E1,-1.830509305E-1,9.364909530E-1,8.954241753E0
2.216848964E1,9.164510965E-1,1.489831209E0,8.657232285E0
2.218855303E1,9.499505758E-1,1.602592945E0,8.901598930E0
2.220861308E1,-2.273181453E-2,1.185643673E0,9.529416084E0
2.222867147E1,-1.244267821E0,8.096713424E-1,1.001067257E1
2.224873152E1,-2.276770830E0,7.570292354E-1,1.034148026E1
2.226879527E1,-2.653042078E0,8.048857450E-1,1.066720295E1
2.228885532E1,-2.104487419E0,8.694919348E-1,1.163719368E1
2.230890881E1,-1.634896040E0,4.381856322E-1,1.308664608E1
2.232896886E1,-1.601396561E0,-3.690928817E-1,1.467966747E1
2.234903371E1,-1.196411371E0,-5.126622319E-1,1.551326752E1
2.236909376E1,-6.957131624E-1,-1.079761237E-1,1.524975777E1
2.238914537E1,-1.100698471E0,-1.103689447E-1,1.443290806E1
2.240920542E1,-2.123630047E0,-2.587239444E-1,1.342194080E1
2.242927345E1,-3.385843992E0,-3.882354796E-1,1.236790180E1
2.244933350E1,-4.193122387E0,-4.695914388E-1,1.107906818E1
2.246939183E1,-3.615854025E0,3.110669367E-2,9.723235130E0
2.248945188E1,-2.233700037E0,7.112665176E-1,8.839385986E0
2.250951194E1,-1.304387450E0,8.072785139E-1,8.151748657E0
2.252957204E1,-8.754739761E-1,5.820540786E-1,7.337291718E0
2.254961735E1,-6.861419082E-1,6.969096065E-1,6.702595234E0
2.256967746E1,-6.550351977E-1,1.020538807E0,6.247360706E0
2.258977089E1,-7.869395614E-1,1.247856975E0,6.048756599E0
2.260983095E1,-1.048056364E0,1.355833173E0,5.967101574E0
2.262988621E1,-1.031306505E0,1.504188180E0,5.993422508E0
2.264994626E1,-9.664012194E-1,1.760519266E0,6.082255840E0
2.267000652E1,-8.443672657E-1,2.093719721E0,6.075077534E0
2.269006652E1,-9.927222729E-1,2.457727909E0,6.793522358E0
2.271013022E1,-1.601396561E0,2.680559635E0,8.810671806E0
2.273019027E1,-2.006082773E0,2.558226585E0,1.110538864E1
2.275025714E1,-1.333101273E0,2.208575249E0,1.177149105E1
2.277031720E1,7.127620578E-1,1.925923109E0,1.171645641E1
2.279032621E1,2.940479994E0,2.414657116E0,1.117268753E1
2.281038626E1,3.961018801E0,3.008675337E0,1.177149105E1
2.283047871E1,3.136990547E0,2.670988321E0,1.192971611E1
2.285053876E1,1.407577872E0,1.846959949E0,1.191745281E1
2.287059938E1,-1.076770201E-2,1.296012521E0,1.215942764E1
2.289065944E1,-1.213161111E0,9.436694384E-1,1.242533016E1
2.291071647E1,-1.730608940E0,7.833502889E-1,1.221954727E1
2.293077652E1,-1.402493119E0,5.653043389E-1,1.134018517E1
2.295084251E1,-5.090730190E-1,2.300100774E-1,1.024786091E1
2.297090256E1,3.487538993E-1,4.067798331E-2,9.191430092E0
2.299095605E1,6.361917257E-1,1.339980662E-1,8.597412109E0
2.301101615E1,1.522433460E-1,3.616153300E-1,8.405686378E0
2.303107688E1,-9.592227936E-1,3.807578981E-1,8.516056061E0
2.305113694E1,-2.109273195E0,1.004985496E-1,8.652446747E0
2.307119970E1,-2.454138756E0,-1.558325738E-1,8.652446747E0
2.309125975E1,-1.931905150E0,9.092725813E-2,8.508877754E0
2.311131787E1,-1.134197950E0,5.724828243E-1,8.432007790E0
2.313137793E1,-7.677969933E-1,7.426723242E-1,8.470592499E0
2.315144162E1,-8.371888399E-1,7.328019142E-1,8.365009308E0
2.317150168E1,-9.927222729E-1,9.293124676E-1,8.103892326E0
2.319156996E1,-1.402493119E0,1.276870012E0,7.761419296E0
2.321163001E1,-2.245664120E0,1.520937920E0,7.421339512E0
2.323168209E1,-2.995514870E0,1.750947952E0,7.078567505E0
2.325174214E1,-3.235096216E0,2.024028778E0,7.080960274E0
2.327180589E1,-2.887837887E0,2.340180635E0,7.334898949E0
2.329186595E1,-2.604886532E0,2.452942371E0,7.641777992E0
2.331192308E1,-2.418246269E0,2.170290232E0,8.259724617E0
2.333198313E1,-2.346461773E0,1.707877159E0,9.124430656E0
2.335205121E1,-2.260020971E0,1.319940805E0,9.910174370E0
2.337211126E1,-1.625324726E0,1.291226864E0,1.118225861E1
2.339216709E1,-1.050449133E0,1.427617788E0,1.269123173E1
2.341222714E1,-1.721037745E0,1.061216831E0,1.461745453E1
2.343229683E1,-2.801397085E0,3.664009571E-1,1.612164307E1
2.345235688E1,-2.480459690E0,1.914258152E-1,1.664387703E1
2.347236188E1,-1.203589797E0,6.562315822E-1,1.644257927E1
2.349242199E1,-6.813562512E-1,8.575277925E-1,1.592991734E1
2.351252173E1,-1.354636669E0,7.280163169E-1,1.500299835E1
2.353258178E1,-3.235096216E0,1.316052526E-1,1.381974697E1
2.355264464E1,-5.077270508E0,-4.839483798E-1,1.252373505E1
2.357270470E1,-5.551348686E0,-3.451646566E-1,1.122293663E1
2.359274996E1,-4.650749683E0,4.142574072E-1,9.500403404E0
2.361281001E1,-3.400201082E0,9.005986452E-1,7.696813107E0
2.363288475E1,-2.391925335E0,9.652048349E-1,6.403193474E0
2.365294480E1,-1.579861164E0,1.109073281E0,5.598307610E0
2.367300673E1,-1.208375454E0,1.420439363E0,5.487938881E0
2.369306678E1,-1.385743380E0,1.710269928E0,5.868995667E0
2.371312704E1,-1.790429592E0,1.957029819E0,6.412764549E0
2.373318709E1,-2.351247311E0,1.959422588E0,6.856035233E0
2.375324121E1,-2.535494804E0,1.811067581E0,7.337291718E0
2.377330126E1,-1.951047778E0,1.930708766E0,7.581658363E0
2.379334277E1,-1.064806104E0,2.201396942E0,7.078567505E0
2.381340282E1,-3.939184248E-1,2.275574446E0,7.133901596E0
2.383348480E1,1.076770201E-2,2.323430777E0,8.017750740E0
2.385354485E1,6.340979785E-2,2.273181438E0,8.609375954E0
2.387360548E1,2.288136631E-1,2.328216314E0,9.153144836E0
2.389366553E1,5.688936114E-1,2.637488842E0,9.672985077E0
2.391372485E1,3.607180119E-1,2.740380049E0,1.057358456E1
2.393378490E1,-5.138586760E-1,2.445763826E0,1.141226864E1
2.395383897E1,-1.227517962E0,2.232503414E0,1.142662525E1
2.397389902E1,-1.459920883E0,2.287538528E0,1.097856903E1
2.399395949E1,-1.404886007E0,2.234896421E0,1.081555843E1
2.401401954E1,-9.185447693E-1,2.151147604E0,1.114636612E1
2.403407678E1,-3.101696372E-1,1.890030742E0,1.125404263E1
2.405413683E1,1.713859290E-1,1.532902002E0,1.029811001E1
2.407415371E1,4.612165689E-1,1.655235052E0,9.273084641E0
2.409421376E1,3.077768087E-1,1.904387712E0,8.571090698E0
2.411431881E1,-1.902294010E-1,2.026421785E0,8.453842163E0
2.413437886E1,-6.574280262E-1,1.892423630E0,9.208179474E0
2.415444126E1,-9.233304262E-1,1.418046474E0,1.033430195E1
2.417450131E1,-5.760720372E-1,1.037288666E0,1.082273674E1
2.419457100E1,3.589233849E-3,1.027717352E0,1.012821960E1
2.421463105E1,1.259222925E-1,1.176072359E0,9.500403404E0
2.423468381E1,-2.407777756E-1,1.288834095E0,9.040681839E0
2.425474386E1,-8.611170650E-1,1.377368569E0,8.772386551E0
2.427480464E1,-1.424028635E0,1.566700578E0,8.635697365E0
2.429486470E1,-1.867298961E0,1.803590059E0,8.369794846E0
2.431492365E1,-2.413460732E0,1.839781523E0,7.883453369E0
2.433498371E1,-2.851646423E0,1.791625977E0,7.356434345E0
2.435504319E1,-3.052942514E0,1.722234130E0,7.124330521E0
2.437510324E1,-2.734398127E0,1.669592023E0,7.013961315E0
2.439517641E1,-1.864906192E0,2.016850471E0,7.107580662E0
2.441523647E1,-1.174875975E0,2.203789711E0,7.857132435E0
2.443527845E1,-8.228318691E-1,2.047957182E0,9.134002686E0
2.445533850E1,-7.292127013E-1,1.875673890E0,1.020718288E1
2.447541584E1,-8.563314080E-1,1.762912035E0,1.111256790E1
2.449547589E1,-9.352945685E-1,1.856531262E0,1.225783253E1
2.451555027E1,-1.237089276E0,2.019243240E0,1.386521053E1
2.453561032E1,-2.010868311E0,2.043171406E0,1.554437447E1
2.455567944E1,-2.114058733E0,1.842174292E0,1.676142311E1
2.457573949E1,-1.208375454E0,1.679163337E0,1.701296806E1
2.459577975E1,-5.880361795E-1,1.463510156E0,1.544626808E1
2.461583980E1,-1.002293587E0,1.238285661E0,1.420529079E1
2.463588522E1,-2.473281384E0,5.868397355E-1,1.281117249E1
2.465594527E1,-3.699902058E0,1.028913707E-1,1.044437218E1
2.467598016E1,-4.126123428E0,1.579262912E-1,8.067999840E0
2.469604022E1,-3.762115479E0,4.357928336E-1,6.743273258E0
2.471611563E1,-2.818146944E0,4.597210586E-1,6.980462074E0
2.473617569E1,-1.661217093E0,1.866401732E-1,7.631907940E0
2.475625287E1,-8.563314080E-1,1.459621787E-1,7.660920620E0
2.477631293E1,-7.028916478E-1,2.802593410E-1,7.124330521E0
2.479634975E1,-8.826524615E-1,6.155536175E-1,6.189933300E0
2.481640980E1,-1.131805062E0,1.054038405E0,5.358726501E0
2.483644360E1,-1.416850090E0,1.463510156E0,4.932205677E0
2.485650365E1,-1.780858278E0,1.820638895E0,4.927420139E0
2.487659975E1,-1.960619092E0,1.942672849E0,5.466403484E0
2.489665980E1,-1.553540111E0,1.961815476E0,6.565905571E0
2.491677022E1,-9.329017401E-1,1.916351795E0,8.094321251E0
2.493683032E1,-7.100701332E-1,1.729412556E0,9.505188942E0
2.495685595E1,-5.018945336E-1,1.681556106E0,1.048026371E1
2.497691600E1,2.033899166E-2,1.719841242E0,1.123729324E1
2.499696168E1,3.726821244E-1,1.593021631E0,1.176909828E1
2.501702173E1,1.378864050E-1,1.504188180E0,1.200628662E1
2.503705438E1,-6.933203340E-1,1.343868971E0,1.167817116E1
2.505711444E1,-1.392921925E0,1.214357495E0,1.113440228E1
2.507721996E1,-1.148554921E0,1.441974759E0,1.119900799E1
2.509728001E1,-4.561318159E-1,1.614557028E0,1.205892849E1
2.511729589E1,-4.187439755E-2,1.296012521E0,1.250219917E1
2.513735589E1,4.516452849E-1,1.037288666E0,1.155344486E1
2.515741615E1,8.563314080E-1,1.190429211E0,1.015454102E1
2.517747615E1,8.180462122E-1,1.458724499E0,9.352047920E0
2.519754725E1,3.583251834E-1,1.597807288E0,9.486045837E0
2.521760725E1,-8.973085135E-2,1.693520188E0,1.015214825E1
2.523766886E1,-7.052844763E-1,1.542772412E0,1.075573826E1
2.525772881E1,-1.297209024E0,1.207179070E0,1.080359459E1
2.527780990E1,-1.340279818E0,1.164108157E0,1.008275604E1
2.529786985E1,-1.117448211E0,1.365404367E0,9.074181557E0
2.531791865E1,-1.349851131E0,1.458724499E0,8.528019905E0
2.533797865E1,-1.742573142E0,1.463510156E0,8.427222252E0
2.535803277E1,-1.994118571E0,1.569093466E0,8.571090698E0
2.537809277E1,-2.197807550E0,1.528116345E0,8.844171524E0
2.539815548E1,-2.382354021E0,1.425225019E0,8.954241753E0
2.541821548E1,-2.580958366E0,1.195214868E0,9.043074608E0
2.543827923E1,-2.717648268E0,8.623134494E-1,9.234500885E0
2.545833923E1,-2.116451740E0,7.737790346E-1,9.469296455E0
2.547838313E1,-1.222732425E0,8.910273314E-1,9.481260300E0
2.549844313E1,-1.040877819E0,7.112665176E-1,9.478867531E0
2.551851918E1,-1.225125194E0,5.485545993E-1,9.826425552E0
2.553857918E1,-9.281160831E-1,7.402794957E-1,1.058345413E1
2.555862954E1,-2.814557552E-1,1.202393413E0,1.141226864E1
2.557868954E1,-6.580262631E-2,1.638485312E0,1.179781246E1
2.559875720E1,-5.401797295E-1,1.743769526E0,1.133061314E1
2.561881720E1,-1.079162955E0,2.062314034E0,1.082273674E1
2.563886985E1,-1.716252089E0,2.467299223E0,1.145294666E1
2.565892985E1,-2.126022816E0,2.522334099E0,1.273220921E1
2.567894626E1,-2.300698996E0,1.980958104E0,1.309143162E1
2.569900621E1,-2.717648268E0,1.183250785E0,1.250219917E1
2.571910714E1,-2.930908680E0,7.256234884E-1,1.127557850E1
2.573916714E1,-2.729612350E0,7.040880919E-1,1.001545811E1
2.575922881E1,-2.384746790E0,5.916253924E-1,9.407083511E0
2.577928881E1,-1.706680775E0,5.940182209E-1,9.306584358E0
2.579934964E1,-1.064806104E0,5.892325640E-1,9.105288506E0
2.581940964E1,-1.067198873E0,3.568296731E-1,8.288438797E0
2.583947162E1,-1.261017561E0,3.424727321E-1,7.013961315E0
2.585953162E1,-1.217946768E0,6.562315822E-1,5.684449196E0
2.587958912E1,-8.754739761E-1,1.149751306E0,4.910670280E0
2.589964912E1,-7.172485590E-1,1.501795292E0,5.119144917E0
2.591971287E1,-8.108677864E-1,1.528116345E0,5.933601856E0
2.593977287E1,-5.377869010E-1,1.738983870E0,6.688238621E0
2.595982891E1,1.115653589E-1,2.084148407E0,7.473981380E0
2.597988891E1,5.090730190E-1,2.237289190E0,8.856135368E0
2.599995261E1,4.731806815E-1,2.179861546E0,1.011386299E1
2.602001261E1,1.809572130E-1,2.187039852E0,1.062652493E1
2.604007022E1,-2.273181453E-2,2.201396942E0,1.072941685E1
2.606013022E1,-3.293122053E-1,2.160718918E0,1.143619633E1
2.608019345E1,-1.359422326E0,1.777269006E0,1.228893852E1
2.610025345E1,-2.468495607E0,1.315155149E0,1.212114239E1
2.612030772E1,-2.799004316E0,1.351047516E0,1.167577839E1
2.614036772E1,-2.283949137E0,1.406082392E0,1.240140152E1
2.616043287E1,-1.189232826E0,9.771689177E-1,1.386042500E1
2.618049287E1,2.838485837E-1,6.083751321E-1,1.447358608E1
2.620054949E1,1.484148264E0,6.825526357E-1,1.273699474E1
2.622060949E1,1.524826288E0,8.503493667E-1,1.170927715E1
2.624066928E1,6.481558084E-1,9.029914737E-1,1.116790104E1
2.626072928E1,-2.216351926E-1,1.250249863E0,1.034865856E1
2.628079345E1,-8.084749579E-1,1.396511078E0,9.900602341E0
2.630085345E1,-1.162911773E0,1.458724499E0,9.629914284E0
2.632091376E1,-1.704287887E0,1.396511078E0,9.134002686E0
2.634097376E1,-2.202593327E0,1.528116345E0,8.331509590E0
2.636103449E1,-2.530709028E0,1.786840320E0,7.761419296E0
2.638109449E1,-2.585743904E0,2.045564175E0,7.488338470E0
2.640115022E1,-2.547458887E0,2.194218397E0,7.337291718E0
2.642121022E1,-2.552244425E0,2.167897224E0,7.248756886E0
2.644122589E1,-2.564208508E0,2.028814554E0,7.426125050E0
2.646128589E1,-2.552244425E0,1.985743642E0,7.864310741E0
2.648134173E1,-2.288734913E0,1.918744683E0,8.319544792E0
2.650140173E1,-1.860120535E0,1.717448473E0,8.676374435E0
2.652146251E1,-1.414457321E0,1.499402523E0,9.076574326E0
2.654152256E1,-1.213161111E0,1.432403445E0,9.663414001E0
2.656163298E1,-1.385743380E0,1.367797256E0,1.008036327E1
2.658169303E1,-1.744965911E0,1.238285661E0,1.036301613E1
2.660175199E1,-1.646860242E0,1.547558069E0,1.048744297E1
2.662181199E1,-1.534098387E0,1.973779559E0,1.038694382E1
2.664186782E1,-2.053939104E0,2.000100613E0,1.056161976E1
2.666192782E1,-2.557030201E0,2.028814554E0,1.117029476E1
2.668201334E1,-2.653042078E0,2.261217356E0,1.153669548E1
2.670207329E1,-2.755933523E0,1.820638895E0,1.220279694E1
2.672211256E1,-2.983550787E0,1.281655669E0,1.296191978E1
2.674217256E1,-3.546462297E0,9.556335211E-1,1.293081379E1
2.676222860E1,-3.941577196E0,5.796613097E-1,1.212832069E1
2.678228860E1,-3.395415306E0,5.365904570E-1,1.085174942E1
2.680234860E1,-2.006082773E0,1.054038405E0,9.380762100E0
2.682240865E1,-1.191625714E0,1.523330688E0,8.276473999E0
2.684306600E1,-1.584646821E0,1.245464206E0,7.315756321E0
2.686249162E1,-2.193022013E0,7.570292354E-1,6.348158360E0
2.688248220E1,-2.228914261E0,6.490531564E-1,5.363512039E0
2.690247673E1,-1.699502230E0,1.013360381E0,4.819743156E0
2.692246256E1,-1.136590719E0,1.686341763E0,4.824528694E0
2.694248027E1,-7.100701332E-1,2.414657116E0,5.004289627E0
2.696244105E1,-6.000002623E-1,2.757129908E0,5.373083115E0
2.698243032E1,-6.071787477E-1,2.759522676E0,6.187540054E0
2.700242355E1,-3.005983531E-1,2.845664263E0,7.380661488E0
2.702241886E1,7.567301393E-2,3.092424154E0,8.635697365E0
2.704239845E1,2.335993052E-1,2.991925716E0,9.953245163E0
2.706237615E1,2.718844712E-1,2.788236618E0,1.126840019E1
2.708237037E1,1.139581800E-1,2.900998354E0,1.241815090E1
2.710235214E1,-2.551347017E-1,3.046960592E0,1.319193077E1
2.712234423E1,-9.664012194E-1,2.889034271E0,1.354188061E1
2.714233881E1,-1.687538147E0,2.498405933E0,1.328315639E1
2.716232418E1,-1.860120535E0,2.263610125E0,1.275853062E1
2.718230824E1,-1.282852054E0,2.170290232E0,1.250698471E1
2.720229704E1,-4.899304509E-1,1.983350873E0,1.218096256E1
2.722228501E1,3.678964674E-1,1.571486235E0,1.180738354E1
2.724227933E1,1.026520967E0,1.195214868E0,1.137607670E1
2.726226282E1,1.191924810E0,1.018146038E0,1.119900799E1
2.728225449E1,7.103692293E-1,9.388837814E-1,1.113440228E1
2.730224235E1,1.794617064E-2,9.460622668E-1,1.086610699E1
2.732222694E1,-4.010969102E-1,1.010967612E0,1.058824062E1
2.734222938E1,-5.186443329E-1,9.029914737E-1,1.013300610E1
2.736220636E1,-6.454638839E-1,6.370890141E-1,9.507581711E0
2.738220220E1,-7.606185079E-1,5.724828243E-1,9.009575844E0
2.740220480E1,-8.850452900E-1,7.929216027E-1,8.614161491E0
2.742218261E1,-1.450349569E0,9.891330600E-1,8.343473434E0
2.744217058E1,-2.221735716E0,1.070788145E0,8.077570915E0
2.746215714E1,-2.753540754E0,1.080359459E0,7.747062206E0
2.748214813E1,-2.899801970E0,1.061216831E0,7.390232563E0
2.750213449E1,-2.890230656E0,1.144965649E0,7.131508827E0
2.752212543E1,-2.928515911E0,1.133001566E0,7.016354084E0
2.754213542E1,-2.746362209E0,1.001097202E0,7.047461033E0
2.756210730E1,-2.190629244E0,8.982058167E-1,7.239185810E0
2.758209449E1,-1.644467354E0,9.149555564E-1,7.876275063E0
2.760208850E1,-1.376172066E0,8.958129883E-1,9.004789352E0
2.762207496E1,-1.464706540E0,9.723833203E-1,9.804889679E0
2.764206839E1,-1.464706540E0,9.436694384E-1,1.069830990E1
2.766205704E1,-1.249053478E0,1.022931695E0,1.174277687E1
2.768204532E1,-1.208375454E0,1.149751306E0,1.250937748E1
2.770203636E1,-1.397707582E0,1.178465128E0,1.289492130E1
2.772202048E1,-1.630110383E0,9.652048349E-1,1.369023609E1
2.774202350E1,-1.675574064E0,7.689933777E-1,1.485195065E1
2.776200589E1,-1.639681697E0,4.743770957E-1,1.529043579E1
2.778199808E1,-1.689931035E0,2.635096014E-1,1.476341629E1
2.780198402E1,-2.181057930E0,2.826521695E-1,1.349611759E1
2.782197386E1,-2.962015390E0,2.874378264E-1,1.196800137E1
2.784197214E1,-3.407379389E0,2.826521695E-1,1.040369415E1
2.786194933E1,-3.107977629E0,3.711866140E-1,8.911170959E0
2.788192897E1,-2.257628202E0,5.389832854E-1,7.442874908E0
2.790192824E1,-1.443171144E0,6.490531564E-1,5.852245808E0
2.792190787E1,-1.110269666E0,5.365904570E-1,4.141676903E0
2.794191902E1,-1.205982566E0,3.855435550E-1,2.788236618E0
2.796189865E1,-1.083948612E0,3.233301640E-1,2.194218397E0
2.798190626E1,-5.186443329E-1,5.820540786E-1,3.384946823E0
2.800188589E1,3.269194067E-1,1.552343726E0,4.651946545E0
2.802185813E1,9.044869542E-1,2.203789711E0,5.270191669E0
2.804183777E1,9.619147182E-1,2.210968018E0,6.623631954E0
2.806184214E1,7.917252183E-1,1.887637973E0,8.396115303E0
2.808182178E1,5.521438122E-1,1.638485312E0,1.056640530E1
2.810182006E1,9.547362328E-1,1.798804402E0,1.241575813E1
2.812179970E1,1.491326690E0,2.064706802E0,1.337169075E1
2.814180553E1,1.486541033E0,2.028814554E0,1.352004623E1
2.816178516E1,1.532004714E0,1.973779559E0,1.362084389E1
2.818181433E1,1.292423368E0,2.100898266E0,1.403749371E1
2.820179391E1,4.181457460E-1,1.784447432E0,1.445444298E1
2.822174407E1,-3.173480928E-1,1.152144074E0,1.454537106E1
2.824172371E1,-2.264208496E-1,6.179464459E-1,1.420768356E1
2.826171834E1,8.228318691E-1,2.563311160E-1,1.344108295E1
2.828169798E1,2.097309113E0,1.914258152E-1,1.260509014E1
2.830169496E1,2.526222467E0,7.417750359E-2,1.174277687E1
2.832167459E1,2.023131609E0,-1.103689447E-1,1.126840019E1
2.834167860E1,9.906286001E-1,-2.371885478E-1,1.079641533E1
2.836165824E1,-2.751746029E-2,-1.295115203E-1,1.025503922E1
2.838166438E1,-1.012163997E0,3.828516230E-2,9.653842926E0
2.840164397E1,-1.824228168E0,-9.361918271E-2,8.865707397E0
2.842162485E1,-2.056331873E0,-2.611167729E-1,8.029714584E0
2.844160449E1,-1.666002750E0,-2.252244353E-1,7.356434345E0
2.846159761E1,-1.265803218E0,-1.414756328E-1,7.097710133E0
2.848157725E1,-1.131805062E0,-6.969095767E-2,7.006783009E0
2.850157714E1,-1.237089276E0,-5.264209956E-2,7.018746853E0
2.852155678E1,-1.455135226E0,-9.122636169E-2,7.112366199E0
2.854155964E1,-1.599003673E0,-2.392822690E-2,6.915855408E0
2.856153928E1,-1.723430514E0,1.483550072E-1,6.463014126E0
2.858153798E1,-1.756929994E0,3.448655605E-1,6.266503334E0
2.860151761E1,-1.634896040E0,6.083751321E-1,6.645167351E0
2.862150318E1,-1.699502230E0,8.431708813E-1,7.236793041E0
2.864148282E1,-1.622931957E0,1.039681435E0,8.151748657E0
2.866147641E1,-1.052842021E0,1.087537885E0,8.784351349E0
2.868145605E1,-1.974078715E-1,1.130608678E0,9.193822861E0
2.870145527E1,4.731806815E-1,1.453938842E0,1.011625576E1
2.872143490E1,8.084749579E-1,1.655235052E0,1.220997620E1
2.874144371E1,5.665007830E-1,1.535294771E0,1.481127262E1
2.876142334E1,-8.973085135E-2,1.195214868E0,1.617189217E1
2.878140803E1,-8.084749579E-1,1.092323542E0,1.623679733E1
2.880138766E1,-1.153340459E0,1.185643673E0,1.614557076E1
2.882138876E1,-1.060020447E0,1.130608678E0,1.625354767E1
2.884136839E1,-1.060020447E0,4.645066857E-1,1.656491280E1
2.886136371E1,-1.290030479E0,7.657032460E-2,1.587488270E1
2.888135027E1,-2.303091764E0,-2.874378264E-1,1.412154198E1
2.890133865E1,-3.426821232E0,-6.445665956E-1,1.187438202E1
2.892132522E1,-3.714258909E0,-4.743770957E-1,9.450154305E0
2.894131761E1,-3.215953588E0,-2.587239444E-1,7.564908981E0
2.896130418E1,-2.176272154E0,-1.510469317E-1,6.223432541E0
2.898129042E1,-1.249053478E0,-2.871387079E-2,5.049753189E0
2.900127699E1,-9.113663435E-1,1.028913707E-1,3.839882135E0
2.902126871E1,-1.050449133E0,2.419741899E-1,2.881855726E0
2.904125527E1,-1.208375454E0,3.951148391E-1,2.333301067E0
2.906123970E1,-8.826524615E-1,9.340981245E-1,1.988136530E0
2.908122626E1,-1.447657645E-1,1.839781523E0,2.407478571E0
2.910121657E1,-2.527419031E-1,2.175075769E0,3.983750582E0
2.912120313E1,-9.305089116E-1,1.870888233E0,6.122933865E0
2.914119959E1,-7.339983582E-1,1.923530340E0,8.424829483E0
2.916118615E1,3.269194067E-1,2.313859463E0,1.042762184E1
2.918117188E1,1.388136268E0,2.560619354E0,1.205892849E1
2.920115845E1,1.658824325E0,2.498405933E0,1.306271839E1
2.922114610E1,1.723729610E0,2.507977247E0,1.381017590E1
2.924113266E1,1.759621978E0,2.553440809E0,1.456929874E1
2.926112115E1,1.517647743E0,2.519941330E0,1.514925957E1
2.928110772E1,1.095912814E0,2.316252232E0,1.513490200E1
2.930110063E1,8.467600942E-1,2.093719721E0,1.441855145E1
2.932108720E1,6.816553473E-1,1.906780601E0,1.366630745E1
2.934107777E1,6.912266612E-1,1.676770449E0,1.355145168E1
2.936106433E1,9.762716293E-1,1.418046474E0,1.342194080E1
2.938105001E1,1.242174029E0,1.051645517E0,1.237747288E1
2.940103657E1,1.337886930E0,1.118644595E0,1.078923702E1
2.942102470E1,6.000002623E-1,1.135394335E0,9.668199539E0
2.944101126E1,-5.330012441E-1,9.819545746E-1,8.961420059E0
2.946100522E1,-1.184447169E0,9.149555564E-1,8.547162056E0
2.948099178E1,-1.241874933E0,7.040880919E-1,8.475378036E0
2.950098121E1,-1.155733347E0,3.951148391E-1,8.731708527E0
2.952096777E1,-9.927222729E-1,1.818545163E-1,8.868100166E0
2.954095865E1,-6.454638839E-1,2.850449979E-1,8.463413239E0
2.956094522E1,-4.010969102E-1,4.046861231E-1,7.912466049E0
2.958092850E1,-4.923232496E-1,4.743770957E-1,7.723134041E0
2.960091506E1,-6.741777658E-1,5.126622319E-1,7.694420338E0
2.962090433E1,-9.927222729E-1,4.863412082E-1,7.718348503E0
2.964089089E1,-1.385743380E0,3.472583890E-1,7.562515736E0
2.966087438E1,-1.476670623E0,2.946162820E-1,7.090531826E0
2.968086095E1,-1.304387450E0,3.065803945E-1,6.463014126E0
2.970085647E1,-1.012163997E0,4.070789516E-1,6.079863071E0
2.972084303E1,-6.693921089E-1,6.897311211E-1,6.261717796E0
2.974083220E1,-5.521438122E-1,9.029914737E-1,6.978068829E0
2.976081876E1,-7.004988194E-1,8.312067389E-1,7.766204834E0
2.978080058E1,-6.717849374E-1,8.527421951E-1,8.676374435E0
2.980078714E1,-4.707878530E-1,8.910273314E-1,1.094985580E1
2.982077782E1,-1.280160099E-1,8.479565382E-1,1.381256866E1
2.984076438E1,-1.615155339E-1,9.915258884E-1,1.548216057E1
2.986075720E1,-1.064806104E0,1.034895778E0,1.604746437E1
2.988074480E1,-1.062413216E0,1.164108157E0,1.613839149E1
2.990073621E1,-1.663011760E-1,1.202393413E0,1.608575058E1
2.992072376E1,2.527419031E-1,5.389832854E-1,1.594457340E1
2.994071787E1,3.708875179E-2,4.429712892E-1,1.519711590E1
2.996070542E1,-1.014556766E0,5.365904570E-1,1.359930801E1
2.998069266E1,-2.461317301E0,3.305086195E-1,1.167577839E1
3.000068027E1,-3.270988464E0,3.903291821E-1,9.558130264E0
3.002066641E1,-3.093620539E0,5.126622319E-1,7.687242031E0
3.004065397E1,-2.295913219E0,5.485545993E-1,6.132505417E0
3.006064787E1,-1.498206019E0,7.304090858E-1,4.764708042E0
3.008063542E1,-1.141376376E0,9.173483849E-1,3.727419376E0
3.010062589E1,-1.198804140E0,1.073180914E0,2.982354403E0
3.012061345E1,-1.342672586E0,1.398903966E0,2.390728951E0
3.014060798E1,-8.706883192E-1,2.033600092E0,2.366800785E0
3.016059553E1,1.833500415E-1,2.718844652E0,3.931108475E0
3.018057964E1,1.028913736E0,2.881855726E0,6.280860424E0
3.020056730E1,1.278066397E0,2.584547520E0,8.461020470E0
3.022055990E1,1.505683661E0,2.294716835E0,1.048026371E1
3.024054746E1,1.728515267E0,2.613560438E0,1.204457188E1
3.026053360E1,1.601396561E0,2.845664263E0,1.325414371E1
3.028052126E1,9.451649189E-1,2.517548561E0,1.406172180E1
3.030050980E1,7.462615371E-1,2.464906454E0,1.424596882E1
3.032049740E1,8.925228715E-1,2.565404892E0,1.428903961E1
3.034049214E1,7.582256794E-1,2.481656075E0,1.427707577E1
3.036047970E1,2.599203587E-1,1.976172447E0,1.397049522E1
3.038046136E1,-1.782652885E-1,1.588235974E0,1.364955807E1
3.040044902E1,-3.053839803E-1,1.188036442E0,1.363759327E1
3.042044329E1,3.607180119E-1,7.785646915E-1,1.377159119E1
3.044043084E1,1.599003673E0,4.815555513E-1,1.303639698E1
3.046041308E1,2.423032045E0,3.520440459E-1,1.128275681E1
3.048040074E1,2.348854542E0,3.233301640E-1,1.063370419E1
3.050041813E1,1.610967875E0,4.238287210E-1,1.005882835E1
3.052040569E1,5.784648657E-1,3.544368446E-1,9.445367813E0
3.054037480E1,-1.998006850E-1,8.614161611E-2,8.877671242E0
3.056036240E1,-4.322035909E-1,-3.110669367E-2,8.072785378E0
3.058034266E1,-3.699901998E-1,9.092725813E-2,7.227221489E0
3.060033032E1,-3.269194067E-1,3.329014480E-1,6.685845375E0
3.062032162E1,-6.526423693E-1,5.102694035E-1,6.388836384E0
3.064030918E1,-1.265803218E0,5.868397355E-1,6.417550564E0
3.066028912E1,-2.027618170E0,5.796613097E-1,6.812664986E0
3.068027673E1,-2.641077995E0,4.621138871E-1,7.212864876E0
3.070031136E1,-2.902194738E0,2.946162820E-1,7.330112934E0
3.072029897E1,-2.741576433E0,1.339980662E-1,7.198507786E0
3.074024100E1,-2.025225163E0,1.244267747E-1,7.114758968E0
3.076022860E1,-1.347458243E0,1.890329868E-1,7.011568546E0
3.078021287E1,-1.012163997E0,3.735794425E-1,6.800701141E0
3.080020053E1,-9.424729943E-1,5.581258535E-1,6.949355125E0
3.082019668E1,-1.062413216E0,7.064808607E-1,7.672884941E0
3.084018423E1,-1.107876897E0,8.359923959E-1,8.408080101E0
3.086016391E1,-8.970093727E-1,7.016952634E-1,9.411869049E0
3.088015194E1,-4.298107624E-1,6.394818425E-1,1.078445148E1
3.090015829E1,-1.686939895E-1,8.001000881E-1,1.281356525E1
3.092014631E1,-1.174875975E0,7.160521746E-1,1.549173164E1
3.094012730E1,-2.513959408E0,5.150550604E-1,1.763330841E1
3.096011537E1,-1.824228168E0,1.219143152E0,1.862991905E1
3.098009615E1,-7.869395614E-1,9.077770710E-1,1.854108620E1
3.100008412E1,-3.173480928E-1,4.959124923E-1,1.661037636E1
3.102007225E1,-9.711868763E-1,9.508479238E-1,1.515404510E1
3.104006027E1,-3.201596737E0,5.605186820E-1,1.413589859E1
3.106004704E1,-4.511966228E0,6.059823632E-1,1.171884918E1
3.108003506E1,-4.243670940E0,8.599206209E-1,9.186644554E0
3.110004516E1,-3.127120018E0,5.365904570E-1,7.809275627E0
3.112003318E1,-1.788036704E0,4.839483798E-1,6.635596275E0
3.114001016E1,-1.311565876E0,2.467598319E-1,5.375475883E0
3.115999824E1,-1.481456280E0,4.067798331E-2,4.304687977E0
3.117997266E1,-1.519741535E0,3.017947674E-1,3.355933666E0
3.119996068E1,-1.507777333E0,7.618148923E-1,2.601596355E0
3.121995579E1,-1.333101273E0,1.329512119E0,1.947458506E0
3.123994386E1,-7.749754190E-1,1.894816399E0,2.270788670E0
3.125992225E1,-4.226323068E-1,1.880459547E0,4.237689018E0
3.127991027E1,-2.033899166E-2,1.473081470E0,6.716952324E0
3.129990121E1,6.696912646E-1,1.485045552E0,9.297013283E0
3.131988918E1,1.726122379E0,1.913959026E0,1.139312553E1
3.133988178E1,2.598007202E0,2.249253273E0,1.272233868E1
3.135986980E1,2.823231697E0,2.357229471E0,1.380060482E1
3.137985079E1,2.411067963E0,2.491227388E0,1.448315716E1
3.139983881E1,1.479362607E0,2.484049082E0,1.462941837E1
3.141983240E1,5.330012441E-1,2.462513685E0,1.405902958E1
3.143982042E1,-8.733802289E-2,2.455335140E0,1.336451244E1
3.145980803E1,-2.455634177E-1,2.342872381E0,1.284467220E1
3.147979605E1,1.043868884E-1,2.091326952E0,1.278485107E1
3.149978110E1,7.175477147E-1,1.648056626E0,1.357777309E1
3.151976912E1,1.091127157E0,1.080359459E0,1.479452324E1
3.153976610E1,1.666002750E0,7.040880919E-1,1.376680565E1
3.155975412E1,1.924726725E0,7.737790346E-1,1.145533943E1
3.157973246E1,1.211067319E0,8.168498278E-1,1.017607689E1
3.159972048E1,2.072782665E-1,1.077966571E0,8.911170959E0
3.161970746E1,-7.438687682E-1,1.315155149E0,8.276473999E0
3.163969548E1,-1.361815214E0,1.185643673E0,8.355437279E0
3.165968402E1,-1.668395638E0,7.833502889E-1,8.300402641E0
3.167967204E1,-1.426421404E0,7.184450030E-1,7.718348503E0
3.169966058E1,-1.043270707E0,8.527421951E-1,7.421339512E0
3.171964865E1,-8.395816684E-1,1.020538807E0,7.282256603E0
3.173964152E1,-6.526423693E-1,1.231107235E0,7.001997471E0
3.175962954E1,-7.390831113E-1,1.221535921E0,6.949355125E0
3.177960787E1,-1.026520967E0,1.317547917E0,7.186543941E0
3.179959589E1,-1.148554921E0,1.482652783E0,7.334898949E0
3.181959287E1,-1.184447169E0,1.650449395E0,7.497909546E0
3.183958095E1,-1.337886930E0,1.736590981E0,7.806882858E0
3.185956433E1,-1.366600871E0,1.815853238E0,8.113463402E0
3.187955230E1,-1.191625714E0,1.966601133E0,8.321938515E0
3.189953782E1,-6.646065116E-1,2.388336182E0,8.717351913E0
3.191952579E1,-3.029911816E-1,2.697309256E0,9.306584358E0
3.193952402E1,-5.617151260E-1,2.824128866E0,9.713663101E0
3.195951204E1,-9.735797048E-1,2.759522676E0,1.033190918E1
3.197948818E1,-1.194018483E0,2.752344131E0,1.077009487E1
3.199947615E1,-1.625324726E0,2.843271494E0,1.092353439E1
3.201947168E1,-2.468495607E0,2.623131752E0,1.140748310E1
3.203945970E1,-3.000300407E0,1.964208245E0,1.242772293E1
3.205944282E1,-2.461317301E0,1.545165181E0,1.380778313E1
3.207943079E1,-1.349851131E0,1.226321578E0,1.506042576E1
3.209941636E1,-5.138586760E-1,1.130608678E0,1.450230026E1
3.211940433E1,-6.119644046E-1,1.501795292E0,1.296909904E1
3.213940188E1,-1.946262121E0,1.190429211E0,1.158455181E1
3.215938990E1,-3.424428225E0,9.412766099E-1,1.018804073E1
3.217936251E1,-3.867399693E0,1.073180914E0,8.398508072E0
3.219935048E1,-3.194418192E0,1.296012521E0,6.594918251E0
3.221934886E1,-2.195414782E0,1.327119231E0,5.737091541E0
3.223933688E1,-1.443171144E0,1.374975681E0,5.231906891E0
3.225931391E1,-8.515457511E-1,1.662413478E0,4.846064091E0
3.227930194E1,-4.731806815E-1,1.978565216E0,4.992325306E0
3.229928496E1,-3.340978622E-1,2.282752752E0,5.478367329E0
3.231927292E1,-4.513461590E-1,2.702095032E0,6.204289913E0
3.233928610E1,-9.065806866E-1,2.972783089E0,7.054639339E0
3.235927412E1,-1.445564032E0,2.967997313E0,7.929215908E0
3.237923188E1,-1.565504193E0,3.001496792E0,8.760422707E0
3.239921985E1,-1.031306505E0,3.125923634E0,9.594022751E0
3.241922256E1,-3.077768087E-1,3.219542980E0,1.040130138E1
3.243921058E1,3.005983531E-1,3.320041418E0,1.119182968E1
3.245918907E1,8.060821295E-1,3.423231840E0,1.202064323E1
3.247917704E1,1.215852976E0,3.744169235E0,1.271276760E1
3.249916386E1,1.055234790E0,4.089034557E0,1.323739433E1
3.251915183E1,1.316052489E-2,3.928416491E0,1.337408352E1
3.253915412E1,-1.028913736E0,3.533301830E0,1.290449238E1
3.255914214E1,-1.162911773E0,3.396611691E0,1.197517967E1
3.257911162E1,-4.995017350E-1,3.447160006E0,1.088764191E1
3.259909959E1,6.505486369E-1,3.288934708E0,1.007318497E1
3.261909261E1,1.543968797E0,2.706880569E0,9.608379364E0
3.263908063E1,2.090130568E0,2.421835661E0,8.681160927E0
3.265906428E1,2.233999014E0,2.709273338E0,8.523234367E0
3.267905225E1,1.762014747E0,3.116352320E0,8.688339233E0
3.269903865E1,7.271189690E-1,3.097209692E0,8.963812828E0
3.271902662E1,1.076770201E-2,2.563012123E0,8.935098648E0
3.273903220E1,9.242277592E-2,2.148754835E0,8.384151459E0
3.275902022E1,8.925228715E-1,2.582154751E0,7.622336388E0
3.277899220E1,1.740479350E0,4.122534275E0,7.694420338E0
3.279898016E1,8.491529226E-1,4.551447868E0,9.019146919E0
3.281897095E1,-1.165304661E0,3.360719442E0,1.021675491E1
3.283895897E1,-1.443171144E0,2.440978289E0,9.847960472E0
3.285894303E1,-2.120639086E-1,1.878066659E0,8.846564293E0
3.287893074E1,6.050850153E-1,1.875673890E0,8.374580383E0
3.289891850E1,3.245265782E-1,1.861316919E0,8.386544228E0
3.291890621E1,-4.130610228E-1,1.386939883E0,8.561519623E0
3.293891178E1,-5.162515044E-1,1.274477124E0,8.233403206E0
3.295889944E1,-2.623131871E-1,1.456331730E0,7.730312824E0
3.297887714E1,-2.072782665E-1,1.712662816E0,7.310970306E0
3.299886485E1,-6.167500615E-1,1.897209287E0,6.805486679E0
3.301885022E1,-1.036092162E0,2.163111687E0,6.506084919E0
3.303883792E1,-1.400100350E0,2.400300264E0,7.251150131E0
3.305882782E1,-1.829013824E0,2.318645239E0,8.523234367E0
3.307881553E1,-2.109273195E0,2.172683001E0,9.361619949E0
3.309880709E1,-2.423032045E0,2.071885347E0,1.014496994E1
3.311879480E1,-2.959622622E0,1.901994944E0,1.206610775E1
3.313879048E1,-2.787040234E0,1.786840320E0,1.445444298E1
3.315877813E1,-1.287637711E0,2.246860504E0,1.602353668E1
3.317874907E1,-1.076770201E-2,2.323430777E0,1.601157188E1
3.319873678E1,1.713859290E-1,2.220539331E0,1.378594875E1
3.321872954E1,-8.778668046E-1,2.304288149E0,1.265055466E1
3.323871720E1,-2.679363251E0,1.885245085E0,1.120618629E1
3.325870418E1,-3.646960735E0,2.076970100E0,9.696913719E0
3.327869188E1,-3.738187075E0,1.830210209E0,9.014361382E0
3.329867574E1,-2.846860647E0,1.372582912E0,9.067003250E0
3.331866345E1,-1.500598907E0,1.259821177E0,8.638090134E0
3.333867246E1,-4.537389874E-1,1.288834095E0,7.440482140E0
3.335866011E1,4.905286431E-2,1.324726462E0,6.058327675E0
3.337862912E1,2.958126962E-1,1.573879123E0,5.169394016E0
3.339861683E1,2.623131871E-1,1.878066659E0,5.028217793E0
3.341861376E1,-3.029911816E-1,1.971386790E0,5.358726501E0
3.343860141E1,-9.903294444E-1,1.976172447E0,5.627021313E0
3.345858063E1,-1.208375454E0,2.289931297E0,5.705984592E0
3.347856834E1,-1.112662554E0,2.656631231E0,6.348158360E0
3.349855855E1,-9.951151013E-1,2.680559635E0,7.644171238E0
3.351854626E1,-5.234299302E-1,2.601297379E0,9.220144272E0
3.353855016E1,3.774677813E-1,2.551048040E0,1.111017418E1
3.355853782E1,1.378564954E0,2.821736097E0,1.318235874E1
3.357851188E1,1.994417667E0,3.188436270E0,1.428186131E1
3.359849959E1,1.579861164E0,3.322434187E0,1.406172180E1
3.361849777E1,3.197409213E-1,2.953640461E0,1.369262886E1
3.363848542E1,-3.795614839E-1,2.718844652E0,1.274178028E1
3.365846845E1,-3.589233849E-3,3.058924675E0,1.172842026E1
3.367845615E1,3.391826153E-1,3.159722328E0,1.148405361E1
3.369844355E1,2.335993052E-1,2.536691189E0,1.247827053E1
3.371843126E1,5.282155871E-1,1.698305845E0,1.306511116E1
3.373842912E1,1.465005636E0,1.470688581E0,1.186720371E1
3.375841678E1,1.927119493E0,1.628913999E0,9.922138214E0
3.377840136E1,1.546361685E0,1.916351795E0,9.016754150E0
3.379838907E1,4.731806815E-1,1.861316919E0,9.378369331E0
3.381837761E1,-6.191428304E-1,1.600200176E0,1.004417229E1
3.383836532E1,-1.543968797E0,1.221535921E0,1.012343407E1
3.385835266E1,-1.891227245E0,9.388837814E-1,9.251549721E0
3.387834074E1,-1.862513304E0,4.695914388E-1,8.439186096E0
3.389833027E1,-1.570289850E0,3.711866140E-1,8.008178711E0
3.391831834E1,-1.033699393E0,8.814560175E-1,7.430910587E0
3.393831438E1,-9.927222729E-1,1.013360381E0,6.992425919E0
3.395830246E1,-1.309173107E0,9.747761488E-1,6.824629307E0
3.397828032E1,-1.855334878E0,1.116251707E0,6.918248653E0
3.399826834E1,-2.379961252E0,1.281655669E0,6.949355125E0
3.401826027E1,-2.638685226E0,1.365404367E0,6.937391281E0
3.403824839E1,-2.679363251E0,1.427617788E0,7.109973431E0
3.405823069E1,-2.434996128E0,1.602592945E0,7.373483181E0
3.407821876E1,-2.281556368E0,1.736590981E0,7.871489048E0
3.409820668E1,-2.384746790E0,1.559522152E0,8.810671806E0
3.411819470E1,-2.420639277E0,1.444367528E0,9.682557106E0
3.413819235E1,-2.173879385E0,1.310369492E0,1.046590710E1
3.415818043E1,-1.756929994E0,1.185643673E0,1.142662525E1
3.417815813E1,-1.380957723E0,1.219143152E0,1.202782249E1
3.419814615E1,-1.361815214E0,1.262213945E0,1.275135231E1
3.421813444E1,-1.610967875E0,1.159322619E0,1.381735420E1
3.423812256E1,-1.107876897E0,1.322333574E0,1.473231030E1
3.425810657E1,-3.197409213E-1,1.523330688E0,1.484716511E1
3.427809470E1,-3.197409213E-1,1.264606714E0,1.503410435E1
3.429808178E1,-1.275673628E0,1.195214868E0,1.521625805E1
3.431806985E1,-2.988336325E0,1.097109199E0,1.461506176E1
3.433805975E1,-4.619643211E0,8.072785139E-1,1.318714428E1
3.435804782E1,-4.852046013E0,9.843474030E-1,1.081077290E1
3.437802704E1,-3.838685751E0,1.195214868E0,8.609375954E0
3.439801511E1,-2.626721144E0,1.231107235E0,6.932605267E0
3.441800110E1,-2.003689766E0,1.274477124E0,5.591129303E0
3.443798918E1,-2.053939104E0,1.374975681E0,4.735994339E0
3.445797563E1,-2.406282187E0,1.339083314E0,4.153641224E0
3.447796371E1,-2.712862730E0,1.374975681E0,4.026821613E0
3.449794865E1,-2.700898647E0,1.494616866E0,4.216153622E0
3.451793673E1,-2.475674152E0,1.482652783E0,4.819743156E0
3.453793058E1,-1.948654890E0,1.473081470E0,5.487938881E0
3.455791871E1,-1.107876897E0,1.468295813E0,6.012565136E0
3.457789777E1,-4.803591371E-1,1.284048438E0,6.431907177E0
3.459788579E1,1.378864050E-1,9.987043738E-1,7.473981380E0
3.461787141E1,8.997012973E-1,7.737790346E-1,9.167501450E0
3.463785949E1,2.051845312E0,9.723833203E-1,1.052094173E1
3.465784652E1,3.192025423E0,1.688734531E0,1.190548897E1
3.467783464E1,3.335893869E0,2.203789711E0,1.341476154E1
3.469782027E1,1.692622900E0,1.930708766E0,1.484477234E1
3.471780834E1,2.790629268E-1,1.327119231E0,1.561137295E1
3.473780558E1,9.140582681E-1,1.537687659E0,1.503171158E1
3.475779365E1,2.159522533E0,1.798804402E0,1.388435364E1
3.477777188E1,2.631506681E0,1.870888233E0,1.214267731E1
3.479775996E1,2.638685226E0,1.957029819E0,1.077966595E1
3.481774157E1,2.200200319E0,1.779661894E0,1.018564796E1
3.483772964E1,1.577468276E0,1.928315997E0,9.744770050E0
3.485771459E1,7.271189690E-1,2.337787628E0,9.517452240E0
3.487770204E1,-1.208375469E-1,2.596511602E0,1.013539886E1
3.489768746E1,-5.066801906E-1,2.313859463E0,1.103121185E1
3.491767490E1,-4.154538214E-1,1.648056626E0,1.144576836E1
3.493766813E1,-1.232303679E-1,1.255035520E0,1.102403259E1
3.495765553E1,4.187439755E-2,1.152144074E0,9.768698692E0
3.497763240E1,-1.663011760E-1,1.075573802E0,8.470592499E0
3.499761985E1,-5.186443329E-1,1.104287624E0,7.615158081E0
3.501762043E1,-7.821539044E-1,1.109073281E0,7.097710133E0
3.503760782E1,-9.041878581E-1,1.116251707E0,6.599703789E0
3.505758470E1,-9.496514797E-1,1.106680512E0,6.280860424E0
3.507757214E1,-9.520443082E-1,9.125627279E-1,6.240182400E0
3.509756136E1,-7.845467329E-1,7.618148923E-1,6.324230194E0
3.511754881E1,-6.502495408E-1,8.407780528E-1,6.453442574E0
3.513754303E1,-3.819543123E-1,1.061216831E0,6.740880489E0
3.515753043E1,-2.273181453E-2,1.180858016E0,7.612765312E0
3.517750944E1,-5.377869010E-1,8.766704202E-1,9.138788223E0
3.519749688E1,-1.311565876E0,5.030909777E-1,1.025503922E1
3.521748829E1,-1.471885085E0,4.935196638E-1,1.083948612E1
3.523747568E1,-1.366600871E0,5.772684813E-1,1.178345490E1
3.525745777E1,-1.261017561E0,5.174478889E-1,1.283031464E1
3.527744522E1,-1.122233868E0,4.238287210E-1,1.291645622E1
3.529743876E1,-1.098305583E0,4.959124923E-1,1.265055466E1
3.531742615E1,-9.568299651E-1,4.238287210E-1,1.290209961E1
3.533741391E1,-1.950150430E-1,2.802593410E-1,1.372373486E1
3.535740136E1,7.366902828E-1,3.089732230E-1,1.436590862E1
3.537738365E1,1.062413216E0,5.796613097E-1,1.430578899E1
3.539737110E1,-1.088734269E-1,6.729813814E-1,1.352004623E1
3.541736470E1,-2.240878344E0,5.030909777E-1,1.249741364E1
3.543735209E1,-3.879363775E0,3.089732230E-1,1.146969604E1
3.545733022E1,-3.539283752E0,4.983053207E-1,9.708877563E0
3.547731766E1,-1.857727647E0,7.666005492E-1,8.137392044E0
3.549730418E1,-7.100701332E-1,5.533402562E-1,7.241578579E0
3.551729162E1,-3.125624657E-1,4.863412082E-1,6.482156754E0
3.553728839E1,-2.838485837E-1,6.825526357E-1,5.897709846E0
3.555727579E1,-3.867399693E-1,1.056431174E0,5.677270889E0
3.557724647E1,-4.274179339E-1,1.458724499E0,5.876173973E0
3.559723391E1,-7.268198729E-1,1.588235974E0,6.525227547E0
3.561722277E1,-1.321137190E0,1.511366606E0,7.390232563E0
3.563721016E1,-1.129412293E0,1.504188180E0,8.132605553E0
3.565718990E1,-5.665007830E-1,1.406082392E0,9.112466812E0
3.567717735E1,5.623133108E-2,1.293619752E0,1.008754253E1
3.569715688E1,9.092726111E-1,1.319940805E0,1.106949711E1
3.571714433E1,2.056631088E0,1.453938842E0,1.170449162E1
3.573716001E1,3.151347399E0,1.909173369E0,1.200867939E1
3.575714746E1,3.886841297E0,2.383550406E0,1.230329609E1
3.577709704E1,4.234099865E0,2.733201742E0,1.227936745E1
3.579708449E1,3.132204771E0,2.436192513E0,1.202542973E1
3.581706891E1,1.453041553E0,1.928315997E0,1.156301594E1
3.583705636E1,7.725825906E-1,2.170290232E0,1.087089252E1
3.585704110E1,7.654041648E-1,2.472084999E0,1.110299587E1
3.587702777E1,5.258227587E-1,2.050349951E0,1.253330612E1
3.589701016E1,3.589233849E-3,1.252642632E0,1.319910908E1
3.591699688E1,-3.948157281E-2,7.929216027E-1,1.211396408E1
3.593699657E1,5.383851007E-2,1.030110121E0,1.007797050E1
3.595698324E1,-4.609174728E-1,1.303191066E0,8.741280556E0
3.597695084E1,-1.189232826E0,1.156929731E0,8.480163574E0
3.599693756E1,-1.309173107E0,9.508479238E-1,8.659625053E0
3.601692511E1,-1.127019525E0,6.705885530E-1,9.299406052E0
3.603691183E1,-1.155733347E0,5.078766346E-1,9.354440689E0
3.605689720E1,-1.177268744E0,4.668995142E-1,8.314759254E0
3.607688386E1,-9.257232547E-1,5.796613097E-1,7.181757927E0
3.609687230E1,-6.406782866E-1,8.862416744E-1,6.819843769E0
3.611685902E1,-7.366902828E-1,1.068395257E0,7.109973431E0
3.613685381E1,-1.160519004E0,1.197607756E0,7.361219883E0
3.615684048E1,-1.548754454E0,1.286441326E0,7.418946743E0
3.617681662E1,-1.630110383E0,1.382154226E0,7.718348503E0
3.619680329E1,-1.505384564E0,1.418046474E0,8.132605553E0
3.621679214E1,-1.502991676E0,1.367797256E0,8.475378036E0
3.623677886E1,-1.479063511E0,1.266999602E0,8.645268440E0
3.625676261E1,-1.225125194E0,1.367797256E0,8.595019341E0
3.627674933E1,-9.951151013E-1,1.525723577E0,8.702695847E0
3.629673990E1,-7.821539044E-1,1.353440285E0,8.995218277E0
3.631672662E1,-2.958126962E-1,8.312067389E-1,9.804889679E0
3.633673412E1,2.790629268E-1,5.916253924E-1,1.135693455E1
3.635672079E1,-3.245265782E-1,5.078766346E-1,1.305553913E1
3.637669011E1,-2.087737799E0,3.089732230E-1,1.431775379E1
3.639667683E1,-2.851646423E0,2.467598319E-1,1.438983727E1
3.641666808E1,-1.268195987E0,5.461617708E-1,1.402552986E1
3.643665480E1,9.667003751E-1,4.695914388E-1,1.416700554E1
3.645664063E1,2.133201361E0,2.180459648E-1,1.392981720E1
3.647662730E1,1.864906192E0,4.501497746E-1,1.295952702E1
3.649661891E1,1.642074585E-1,6.538388133E-1,1.169731331E1
3.651660558E1,-2.001296997E0,7.016952634E-1,1.081077290E1
3.653662126E1,-3.290131092E0,9.005986452E-1,1.032233810E1
3.655660792E1,-3.105584621E0,9.723833203E-1,9.579665184E0
3.657656912E1,-2.044367790E0,7.953144312E-1,8.911170959E0
3.659655584E1,-1.100698471E0,4.959124923E-1,7.773383617E0
3.661655126E1,-5.425725579E-1,5.772684813E-1,6.329015732E0
3.663653798E1,-3.221337497E-1,1.027717352E0,5.672485352E0
3.665651615E1,-4.875376225E-1,1.406082392E0,5.708377361E0
3.667650217E1,-8.922237158E-1,1.686341763E0,6.206682682E0
3.669649181E1,-1.239482164E0,1.801197290E0,7.138687134E0
3.671647853E1,-1.292423368E0,1.870888233E0,8.302795410E0
3.673648415E1,-9.616156220E-1,2.035992861E0,9.869496346E0
3.675647082E1,-6.478567123E-1,2.019243240E0,1.180020523E1
3.677643811E1,-3.412763178E-1,1.868495345E0,1.291645622E1
3.679642483E1,2.048854381E-1,2.096112728E0,1.244207954E1
3.681641587E1,6.361917257E-1,2.524727106E0,1.145055389E1
3.683640259E1,8.108677864E-1,2.752344131E0,1.092353439E1
3.685639228E1,8.419744968E-1,2.785843849E0,1.100967598E1
3.687637920E1,7.677969933E-1,2.342872381E0,1.097378349E1
3.689637045E1,1.012163997E0,1.652842283E0,1.014257717E1
3.691635743E1,1.884048700E0,1.549950838E0,8.846564293E0
3.693635019E1,2.188236237E0,1.470688581E0,8.633303642E0
3.695633717E1,1.165603757E0,1.075573802E0,1.058345413E1
3.697632337E1,1.043868884E-1,4.695914388E-1,1.274417305E1
3.699631035E1,2.033899166E-2,1.938186288E-1,1.290927792E1
3.701629941E1,3.583251834E-1,2.994019389E-1,1.103599739E1
3.703628639E1,2.718844712E-1,6.634100676E-1,9.201001167E0
3.705627420E1,-5.066801906E-1,9.436694384E-1,8.894420624E0
3.707626118E1,-1.376172066E0,6.801598072E-1,9.191430092E0
3.709624957E1,-1.208375454E0,7.304090858E-1,8.892027855E0
3.711623655E1,-6.885347366E-1,1.123430252E0,7.934001446E0
3.713622519E1,-4.417748749E-1,1.437189102E0,7.267899513E0
3.715621217E1,-5.976074338E-1,1.612164259E0,7.073781967E0
3.717620071E1,-7.510471940E-1,2.043171406E0,6.939784050E0
3.719618769E1,-9.544371367E-1,2.594118834E0,7.172186852E0
3.721618202E1,-1.273280740E0,2.783450842E0,7.957930088E0
3.723616900E1,-1.309173107E0,2.934497833E0,8.777172089E0
3.725615748E1,-1.253839016E0,2.869592667E0,9.172286987E0
3.727614446E1,-1.431207061E0,2.586940289E0,9.632308006E0
3.729613212E1,-1.502991676E0,2.225325108E0,1.016411209E1
3.731611905E1,-1.357029557E0,2.155933142E0,1.007079220E1
3.733611087E1,-1.570289850E0,2.057528257E0,9.459725380E0
3.735609848E1,-1.912762642E0,2.031207323E0,9.198608398E0
3.737608712E1,-1.982154489E0,1.964208245E0,9.838389397E0
3.739607410E1,-1.749751568E0,1.832603097E0,1.108863926E1
3.741606514E1,-1.888834357E0,1.422832131E0,1.206850052E1
3.743605212E1,-2.317448616E0,1.087537885E0,1.238225937E1
3.745603582E1,-2.525923491E0,7.498508096E-1,1.237986660E1
3.747602280E1,-2.200200319E0,6.035895348E-1,1.221954727E1
3.749601400E1,-1.565504193E0,7.112665176E-1,1.186002541E1
3.751600098E1,-1.184447169E0,6.155536175E-1,1.108146095E1
3.753598431E1,-8.108677864E-1,5.437689424E-1,1.014257717E1
3.755597129E1,-8.587242365E-1,4.381856322E-1,9.881460190E0
3.757595941E1,-1.735394597E0,4.785645381E-2,1.064566803E1
3.759594639E1,-2.099701881E0,-2.802593410E-1,1.179063320E1
3.761593848E1,-1.316351533E0,-1.271187067E-1,1.206610775E1
3.763592545E1,-4.441677034E-1,3.065803945E-1,1.091874886E1
3.765591290E1,-3.589233849E-3,7.857431173E-1,8.779565811E0
3.767589988E1,1.283151209E-1,1.331904888E0,6.911069870E0
3.769589243E1,-8.973085135E-2,1.875673890E0,5.935994625E0
3.771587941E1,-5.569294691E-1,2.280359983E0,5.871388435E0
3.773586504E1,-8.443672657E-1,2.584547520E0,5.931209087E0
3.775585202E1,-8.156534433E-1,2.972783089E0,5.897709846E0
3.777583999E1,-4.971089065E-1,3.118745327E0,6.268896103E0
3.779582696E1,1.354935765E-1,3.137887716E0,6.846463680E0
3.781581493E1,7.773682475E-1,3.116352320E0,7.265506744E0
3.783580191E1,1.433898926E0,3.097209692E0,7.689634800E0
3.785578915E1,2.322533369E0,3.322434187E0,8.487341881E0
3.787577691E1,3.280858994E0,3.576372623E0,9.397511482E0
3.789576400E1,4.107280254E0,3.784847260E0,1.030768204E1
3.791575176E1,4.150351048E0,3.717848301E0,1.115354443E1
3.793573634E1,2.425424814E0,3.226721287E0,1.241575813E1
3.795572410E1,4.277170599E-1,2.889034271E0,1.399920845E1
3.797571217E1,-8.015955985E-2,2.869592667E0,1.480170155E1
3.799569993E1,5.042873621E-1,2.999104023E0,1.415982723E1
3.801568920E1,5.114658475E-1,2.682952404E0,1.343390465E1
3.803567696E1,-1.040877849E-1,2.057528257E0,1.288295746E1
3.805566384E1,-2.934198678E-1,1.648056626E0,1.219801140E1
3.807565165E1,-7.537391037E-2,1.671984792E0,1.150080299E1
3.809564150E1,-4.666004330E-2,1.796411633E0,1.091396332E1
3.811562926E1,-4.465605319E-1,1.748555183E0,1.040847969E1
3.813561915E1,-1.222732425E0,1.408475280E0,1.030768204E1
3.815560691E1,-2.085345030E0,6.921239495E-1,9.984351158E0
3.817559066E1,-2.621935368E0,6.699903309E-2,8.975776672E0
3.819557842E1,-2.794218540E0,7.417750359E-2,7.464410305E0
3.821557269E1,-2.827718258E0,2.922234535E-1,6.130112648E0
3.823556040E1,-2.770290375E0,5.126622319E-1,5.840281963E0
3.825554212E1,-2.466102839E0,9.723833203E-1,6.031707764E0
3.827552993E1,-2.238485575E0,1.398903966E0,6.194718838E0
3.829551946E1,-2.351247311E0,1.403689623E0,6.863213539E0
3.831550723E1,-2.353640079E0,1.705484390E0,7.167401314E0
3.833549457E1,-2.262413740E0,2.167897224E0,7.653742313E0
3.835548233E1,-2.360818624E0,2.225325108E0,8.441578865E0
3.837547040E1,-2.331805706E0,2.266003132E0,8.805886269E0
3.839545816E1,-2.051546335E0,2.515155792E0,9.040681839E0
3.841544972E1,-1.886441588E0,2.690130949E0,9.488439560E0
3.843543748E1,-1.821835399E0,2.776272535E0,1.011625576E1
3.845541879E1,-1.790429592E0,2.623131752E0,1.092353439E1
3.847540660E1,-2.109273195E0,2.218146563E0,1.179781246E1
3.849539624E1,-2.607279301E0,1.846959949E0,1.258834076E1
3.851538400E1,-2.997907639E0,1.446760416E0,1.343869019E1
3.853537217E1,-2.803789854E0,1.288834095E0,1.402552986E1
3.855535993E1,-1.797608018E0,1.461117268E0,1.371894932E1
3.857534801E1,-1.060020447E0,1.427617788E0,1.196321583E1
3.859533577E1,-8.036893010E-1,1.823031783E0,1.021436119E1
3.861532316E1,-1.390529037E0,2.124826431E0,9.320941925E0
3.863531092E1,-2.573779821E0,1.971386790E0,8.343473434E0
3.865529863E1,-3.251846075E0,2.096112728E0,7.713562965E0
3.867528639E1,-3.280559778E0,1.935494423E0,8.060821533E0
3.869527176E1,-2.568994284E0,1.372582912E0,8.635697365E0
3.871525952E1,-1.244267821E0,1.346261859E0,8.281260490E0
3.873525134E1,-3.317050338E-1,1.683948994E0,7.176972389E0
3.875523910E1,-2.264208496E-1,2.071885347E0,6.410371780E0
3.877522801E1,-5.018945336E-1,2.362015009E0,6.139683723E0
3.879521577E1,-6.885347366E-1,2.586940289E0,6.187540054E0
3.881520821E1,-6.143572330E-1,2.850450039E0,6.446264267E0
3.883519592E1,-5.449653864E-1,3.044567823E0,6.870391846E0
3.885517941E1,-5.760720372E-1,3.130709410E0,7.531409264E0
3.887516723E1,-6.334998012E-1,3.147758245E0,8.195118904E0
3.889515738E1,-8.778668046E-1,3.150151014E0,9.205786705E0
3.891514519E1,-6.406782866E-1,3.269792080E0,1.025982571E1
3.893513832E1,2.024926096E-1,3.492623806E0,1.072941685E1
3.895512613E1,1.388136268E0,3.844667673E0,1.094028378E1
3.897511280E1,2.478366137E0,4.259224415E0,1.134257793E1
3.899510061E1,2.636292458E0,4.606482506E0,1.219083309E1
3.901509493E1,1.107876897E0,4.213461399E0,1.279442310E1
3.903508269E1,-2.718844712E-1,4.074677944E0,1.224108219E1
3.905506837E1,-2.958126962E-1,4.314259052E0,1.147448158E1
3.907505624E1,4.013960063E-1,4.167997837E0,1.155344486E1
3.909504613E1,6.194419861E-1,3.253042459E0,1.246869946E1
3.911503400E1,6.720840335E-1,2.182254314E0,1.336929798E1
3.913502613E1,1.048056364E0,1.164108157E0,1.278485107E1
3.915501394E1,2.233999014E0,1.808674812E0,1.041805077E1
3.917499707E1,1.771586061E0,2.120040894E0,8.477770805E0
3.919498488E1,-3.556332588E-1,1.518545032E0,7.737491131E0
3.921498363E1,-1.357029557E0,1.430010676E0,7.730312824E0
3.923497139E1,-1.603789330E0,1.130608678E0,8.137392044E0
3.925495509E1,-1.397707582E0,8.431708813E-1,7.562515736E0
3.927494295E1,-8.826524615E-1,1.034895778E0,6.173183441E0
3.929492603E1,-6.598208547E-1,1.406082392E0,5.571986675E0
3.931491389E1,-8.563314080E-1,1.770090580E0,5.962316036E0
3.933490483E1,-1.203589797E0,1.985743642E0,7.117151737E0
3.935489269E1,-1.443171144E0,1.851745605E0,8.240582466E0
3.937488051E1,-1.493420482E0,1.545165181E0,8.583054543E0
3.939486837E1,-1.357029557E0,1.238285661E0,8.453842163E0
3.941485696E1,-1.170090318E0,1.168893814E0,8.446663857E0
3.943484473E1,-1.256231904E0,1.458724499E0,8.568697929E0
3.945483332E1,-1.730608940E0,1.406082392E0,8.269295692E0
3.947482118E1,-1.651645780E0,1.564307809E0,8.288438797E0
3.949480790E1,-1.677966833E0,1.830210209E0,9.241679192E0
3.951479577E1,-2.248056889E0,1.616949916E0,1.066241741E1
3.953477931E1,-2.288734913E0,1.571486235E0,1.175713444E1
3.955476712E1,-1.955833435E0,1.695913076E0,1.229372501E1
3.957475499E1,-1.754537225E0,1.966601133E0,1.271755314E1
3.959474280E1,-1.563111424E0,1.971386790E0,1.365673637E1
3.961473728E1,-1.095912814E0,1.801197290E0,1.499581909E1
3.963472509E1,-6.000002623E-1,1.779661894E0,1.596371651E1
3.965471426E1,-6.837490797E-1,1.571486235E0,1.572174168E1
3.967470212E1,-1.220339537E0,1.475474238E0,1.434676647E1
3.969468957E1,-2.336591244E0,1.245464206E0,1.273938751E1
3.971467743E1,-3.314059258E0,9.580263495E-1,1.135214901E1
3.973466972E1,-3.422035456E0,9.963115454E-1,9.773484230E0
3.975465754E1,-3.055335522E0,1.015753269E0,8.429615021E0
3.977464420E1,-2.691327333E0,8.264211416E-1,7.430910587E0
3.979463202E1,-2.264806747E0,8.527421951E-1,6.221039772E0
3.981462952E1,-1.955833435E0,1.070788145E0,5.147858620E0
3.983461728E1,-1.814656854E0,1.255035520E0,4.472484589E0
3.985459900E1,-1.725823283E0,1.626521230E0,4.146462440E0
3.987458722E1,-1.737787485E0,2.127219439E0,4.031607151E0
3.989458108E1,-1.694716692E0,2.460120678E0,4.362115860E0
3.991456936E1,-1.347458243E0,2.694916487E0,5.732305527E0
3.993455420E1,-9.568299651E-1,2.678166628E0,7.639385223E0
3.995454243E1,-2.264208496E-1,2.711666346E0,9.021539688E0
3.997453108E1,5.162515044E-1,3.130709410E0,9.668199539E0
3.999451936E1,7.103692293E-1,3.581158161E0,1.008993530E1
4.001450514E1,6.000002623E-1,3.955036640E0,1.101446152E1
4.003449342E1,5.377869010E-1,4.005286217E0,1.230329609E1
4.005447696E1,9.810572863E-1,3.926023722E0,1.352243900E1
4.007446519E1,1.697408557E0,3.909274101E0,1.410000610E1
4.009445368E1,2.190629244E0,3.713062525E0,1.361605835E1
4.011444191E1,2.116451740E0,3.375076294E0,1.250698471E1
4.013442868E1,1.738086581E0,2.927319288E0,1.226501083E1
4.015441691E1,1.663609982E0,2.407478571E0,1.258594799E1
4.017440337E1,2.166700840E0,2.218146563E0,1.224347496E1
4.019439160E1,2.341675997E0,1.930708766E0,1.098814106E1
4.021437879E1,2.061416626E0,1.842174292E0,9.560523033E0
4.023436702E1,1.783550143E0,2.093719721E0,8.839385986E0
4.025435728E1,1.424327731E0,2.232503414E0,8.758029938E0
4.027434556E1,1.012163997E0,1.767697692E0,8.978468895E0
4.029433113E1,8.443672657E-1,1.276870012E0,8.942276955E0
4.031431941E1,7.271189690E-1,1.061216831E0,8.432007790E0
4.033430301E1,4.492524564E-1,1.022931695E0,8.120641708E0
4.035429124E1,-1.040877849E-1,1.075573802E0,8.326724052E0
4.037427926E1,-7.028916478E-1,8.886345029E-1,8.360222816E0
4.039426754E1,-9.041878581E-1,7.689933777E-1,7.727920055E0
4.041426301E1,-8.347960114E-1,9.436694384E-1,6.841678143E0
4.043425129E1,-1.117448211E0,1.135394335E0,6.451049805E0
4.045423405E1,-1.860120535E0,1.228714466E0,6.795915604E0
4.047422233E1,-2.537887573E0,1.422832131E0,7.617550850E0
4.049421467E1,-2.760719061E0,1.743769526E0,8.398508072E0
4.051420295E1,-2.789433002E0,1.968993902E0,8.762815475E0
4.053418577E1,-2.607279301E0,2.237289190E0,8.207082748E0
4.055417400E1,-2.271985054E0,2.816950560E0,7.737491131E0
4.057416243E1,-2.157129526E0,3.094816923E0,8.472985268E0
4.059415066E1,-2.348854542E0,3.058924675E0,1.038215828E1
4.061414228E1,-2.674577475E0,2.848057270E0,1.162522984E1
4.063413056E1,-2.571387053E0,2.656631231E0,1.093549824E1
4.065411379E1,-1.553540111E0,2.788236618E0,1.002502918E1
4.067410202E1,-2.527419031E-1,3.542873144E0,1.110060310E1
4.069409577E1,6.849455088E-2,3.538087368E0,1.288295746E1
4.071408405E1,-1.555334684E-2,2.826521635E0,1.292363548E1
4.073406321E1,-5.383851007E-2,2.874378204E0,1.164197922E1
4.075405144E1,-1.395314693E0,2.850450039E0,1.117747307E1
4.077403894E1,-3.110370398E0,2.306680918E0,1.127318573E1
4.079402717E1,-3.383451223E0,2.019243240E0,1.037019444E1
4.081402071E1,-2.684148788E0,1.976172447E0,9.107681274E0
4.083400900E1,-2.365604401E0,1.806282043E0,8.554341316E0
4.085399452E1,-2.142772675E0,1.636092424E0,8.082356453E0
4.087398248E1,-1.728216171E0,1.695913076E0,7.466803074E0
4.089397561E1,-1.613360643E0,1.892423630E0,6.956533432E0
4.091396358E1,-1.800000787E0,1.904387712E0,6.779165745E0
4.093394712E1,-1.785643935E0,1.978565216E0,6.185147285E0
4.095393509E1,-1.649253011E0,2.071885347E0,5.111966610E0
4.097392738E1,-1.637288928E0,2.268395901E0,4.187439442E0
4.099391535E1,-1.500598907E0,2.659024239E0,3.933501244E0
4.101390202E1,-1.153340459E0,3.157329559E0,4.441378117E0
4.103388998E1,-5.186443329E-1,3.410968781E0,5.823532104E0
4.105388170E1,2.240280211E-1,3.236292601E0,7.941180229E0
4.107386967E1,1.316351533E0,3.257827997E0,1.031755257E1
4.109385983E1,2.195414782E0,3.696312666E0,1.216421318E1
4.111384780E1,2.042274237E0,4.259224415E0,1.341476154E1
4.113383535E1,9.954141974E-1,4.494019985E0,1.448554993E1
4.115382332E1,2.273181453E-2,4.096213341E0,1.476580906E1
4.117381540E1,6.340979785E-2,3.882952929E0,1.505324745E1
4.119380337E1,7.103692293E-1,4.494019985E0,1.557308769E1
4.121378811E1,-1.734796464E-1,4.690231323E0,1.595414543E1
4.123377608E1,-2.317448616E0,3.801596880E0,1.570977783E1
4.125376566E1,-3.328416348E0,2.721237659E0,1.356341648E1
4.127375363E1,-1.936690807E0,2.848057270E0,9.857531548E0
4.129374321E1,-4.609174728E-1,3.492623806E0,6.827022076E0
4.131373118E1,-1.998006850E-1,3.698705673E0,6.075077534E0
4.133371827E1,-3.029911816E-1,3.094816923E0,7.485945702E0
4.135370624E1,3.230310604E-2,2.081755638E0,9.385547638E0
4.137369009E1,7.869395614E-1,1.243071318E0,1.057358456E1
4.139367806E1,1.706979871E0,1.061216831E0,1.025743294E1
4.141367077E1,2.059023857E0,1.226321578E0,9.052646637E0
4.143365874E1,1.342672586E0,1.334297776E0,8.276473999E0
4.145364368E1,3.245265782E-1,1.355833173E0,7.893024445E0
4.147363165E1,-1.112662554E-1,1.643270969E0,7.395018578E0
4.149361842E1,-5.066801906E-1,1.909173369E0,7.076174736E0
4.151360639E1,-9.735797048E-1,2.079362869E0,6.970890522E0
4.153358733E1,-1.388136268E0,2.325823545E0,7.109973431E0
4.155357530E1,-2.015654087E0,2.445763826E0,7.837989807E0
4.157356629E1,-2.820539713E0,2.234896421E0,8.774779320E0
4.159355426E1,-3.400201082E0,1.861316919E0,9.035896301E0
4.161354582E1,-3.757329702E0,1.432403445E0,8.439186096E0
4.163353379E1,-3.656532049E0,1.070788145E0,7.385447025E0
4.165351832E1,-2.940479994E0,1.140179992E0,6.630810738E0
4.167350629E1,-2.305484533E0,1.590628862E0,6.817451000E0
4.169349337E1,-2.260020971E0,1.743769526E0,7.787740231E0
4.171348134E1,-2.430210590E0,1.489831209E0,8.734101295E0
4.173346738E1,-2.317448616E0,1.612164259E0,9.538987160E0
4.175345535E1,-2.228914261E0,2.033600092E0,1.084427261E1
4.177344446E1,-1.644467354E0,2.297109842E0,1.243968678E1
4.179343243E1,-8.706883192E-1,1.803590059E0,1.353948784E1
4.181341962E1,-1.016949639E-1,1.449153185E0,1.323739433E1
