"Time (s)","Acceleration x (m/s^2)","Acceleration y (m/s^2)","Acceleration z (m/s^2)"
2.854777100E-2,-2.293950081E0,7.363050461E0,5.878050327E0
4.855168000E-2,-1.336050034E0,8.005050659E0,8.134050369E0
6.855906000E-2,-8.110500574E-1,7.828050137E0,8.862000465E0
8.856559800E-2,-1.336050034E0,7.075050354E0,7.926000595E0
1.085720590E-1,-1.876950145E0,6.469950199E0,6.667950153E0
1.285765920E-1,-1.887000084E0,6.462000370E0,6.156000137E0
1.485803720E-1,-1.714050055E0,6.822000504E0,6.385950089E0
1.685864680E-1,-1.302000046E0,7.267050266E0,6.826950550E0
1.885933140E-1,-1.039050102E0,7.417950153E0,7.200000286E0
2.085991740E-1,-1.413000107E0,6.991950512E0,6.970050335E0
2.286040300E-1,-1.621050119E0,6.295050144E0,6.783000469E0
2.486099570E-1,-1.623000026E0,6.129000187E0,6.988950253E0
2.686157320E-1,-1.413000107E0,6.706950188E0,7.203000546E0
2.886207470E-1,-1.089000106E0,7.248000145E0,7.167000294E0
3.086252800E-1,-1.228050113E0,7.210050106E0,6.822000504E0
3.286302750E-1,-1.579950094E0,6.963000298E0,6.297000408E0
3.486357120E-1,-1.705050111E0,6.775950432E0,6.148950100E0
3.686413220E-1,-1.743000031E0,6.814050198E0,6.139050484E0
3.886470780E-1,-1.642050028E0,6.879000187E0,6.175050259E0
4.086523810E-1,-1.537050128E0,6.910050392E0,6.541950226E0
4.286585350E-1,-1.654050112E0,6.709050179E0,6.609000206E0
4.486646120E-1,-1.741050124E0,6.532050133E0,6.490950108E0
4.686696200E-1,-1.633050084E0,6.369000435E0,6.769050121E0
4.886748560E-1,-1.870050073E0,6.127050400E0,6.714000225E0
5.086806120E-1,-2.121000051E0,5.830050468E0,6.309000492E0
5.286859100E-1,-1.990050077E0,5.467950344E0,5.857050419E0
5.486914490E-1,-1.936950088E0,4.702050209E0,5.353950024E0
5.686965970E-1,-2.380050182E0,3.595950127E0,4.987050056E0
5.887018950E-1,-2.632050037E0,2.974950075E0,5.892000198E0
6.087068040E-1,-1.543950081E0,2.958000183E0,7.525950432E0
6.287119630E-1,1.410000026E-1,3.126000166E0,9.360000610E0
6.487169630E-1,1.060950041E0,3.145050049E0,9.648000717E0
6.687225110E-1,3.130500019E-1,2.853000164E0,9.150000572E0
6.887270440E-1,3.400500119E-1,2.008050203E0,9.097050667E0
7.087311120E-1,5.860500336E-1,1.351050019E0,9.304950714E0
7.287351260E-1,6.730500460E-1,8.320500255E-1,1.020105076E1
7.487397520E-1,4.900500178E-1,4.699500203E-1,1.147995090E1
7.687443810E-1,4.210500121E-1,3.810000122E-1,1.175505066E1
7.887489200E-1,7.039500475E-1,9.195000678E-2,1.147800064E1
8.087526840E-1,1.120050073E0,-1.159500033E-1,1.144695091E1
8.287566070E-1,1.434000015E0,4.395000264E-2,1.193805027E1
8.487600160E-1,1.209000111E0,-3.940500319E-1,1.158300018E1
8.687637800E-1,4.620000124E-1,-1.765950084E0,1.050105095E1
8.887686210E-1,5.700000376E-2,-2.295000076E0,1.157805061E1
9.087736400E-1,-6.705000252E-2,-2.422049999E0,1.330005074E1
9.287785680E-1,-6.559500098E-1,-3.556950092E0,1.368600082E1
9.487825870E-1,-6.130500436E-1,-4.365000248E0,1.365000057E1
9.687877460E-1,-6.900000572E-2,-4.321050167E0,1.306095028E1
9.887920390E-1,3.970500231E-1,-4.336050034E0,1.178400040E1
1.008796966E0,9.105000645E-2,-4.206000328E0,9.708000183E0
1.028802250E0,-1.819950104E0,-3.943050146E0,7.834950447E0
1.048806558E0,-3.532050133E0,-3.247950077E0,7.756050587E0
1.068811707E0,-4.090050220E0,-3.186000109E0,7.092000484E0
1.088816399E0,-2.169000149E0,-2.880000114E0,3.948000193E0
1.108821553E0,-3.910950184E0,-3.874050140E0,5.707950115E0
1.128826188E0,-7.407000542E0,-3.073950052E0,1.006200027E1
1.148831447E0,-7.489050388E0,2.350500077E-1,6.321000099E0
1.168836991E0,-6.603000164E0,-1.129050016E0,5.871000290E0
1.188841678E0,-5.400000095E0,-3.061950207E0,5.338950157E0
1.208847461E0,-5.934000492E0,-2.496000051E0,4.522950172E0
1.228853389E0,-4.789950371E0,-9.829500318E-1,1.034505081E1
1.248858923E0,-4.609950066E0,-9.349500537E-1,8.806950569E0
1.268864130E0,-4.011000156E0,-9.040500522E-1,9.565950394E0
1.288869279E0,-3.241950035E0,-9.900000691E-1,1.064895058E1
1.308874509E0,-2.995950222E0,-1.119000077E0,1.074195004E1
1.328879745E0,-3.586950064E0,-9.900000691E-1,9.696000099E0
1.348885923E0,-4.303050041E0,-8.269500136E-1,8.544000626E0
1.368891783E0,-4.344000340E0,-4.560000300E-1,7.669950485E0
1.388898015E0,-3.427050114E0,4.870500267E-1,7.669950485E0
1.408905091E0,-2.109000206E0,1.186050057E0,8.119950294E0
1.428911544E0,-1.863000035E0,1.200000048E0,7.198050499E0
1.448917698E0,-2.569050074E0,1.416000009E0,6.594000340E0
1.468923765E0,-2.538000107E0,1.545000076E0,6.031050205E0
1.488930515E0,-2.275050163E0,1.489950061E0,5.299050331E0
1.508936678E0,-2.203050137E0,1.624050021E0,4.738050461E0
1.528941905E0,-1.900950074E0,2.151000023E0,4.411950111E0
1.548946221E0,-1.756950140E0,2.716950178E0,4.294950008E0
1.568950231E0,-1.135050058E0,2.656950235E0,5.587950230E0
1.588953707E0,2.770500183E-1,2.884050131E0,6.501000404E0
1.608957654E0,1.069950104E0,2.604000092E0,6.987000465E0
1.628963213E0,1.456050038E0,1.785000086E0,8.367000580E0
1.648969054E0,2.469000101E0,1.264950037E0,1.022295094E1
1.668974083E0,3.264000177E0,6.979500055E-1,1.110195065E1
1.688978900E0,3.015000105E0,-6.139500141E-1,1.108005047E1
1.708982679E0,1.972950101E0,-1.347000122E0,1.067805004E1
1.728986674E0,1.894050121E0,-1.641000032E0,9.016050339E0
1.748990905E0,2.871000051E0,-6.690000296E-1,6.874050140E0
1.768994597E0,3.027000189E0,4.960500300E-1,4.693050385E0
1.788999833E0,3.123000145E0,8.749500513E-1,4.591950417E0
1.809004526E0,3.520050049E0,3.889500201E-1,7.162050247E0
1.829009064E0,4.444950104E0,-1.035000086E0,8.865000725E0
1.849013136E0,5.331000328E0,-2.098950148E0,1.000500011E1
1.869018343E0,4.561950207E0,-2.737950087E0,9.364950180E0
1.889023184E0,4.186050415E0,-2.812950134E0,9.430050850E0
1.909027487E0,3.753000259E0,-3.913950205E0,1.230600071E1
1.929030636E0,3.451050282E0,-4.827000141E0,1.537005043E1
1.949034308E0,3.252000093E0,-4.603950024E0,1.560705090E1
1.969036775E0,2.827950239E0,-4.027050018E0,1.489095116E1
1.989039842E0,2.590950012E0,-3.943050146E0,1.573095036E1
2.009042231E0,2.386950016E0,-4.942050457E0,1.793700027E1
2.029045006E0,1.471950054E0,-5.608050346E0,1.930005074E1
2.049049020E0,4.399500191E-1,-4.767000198E0,1.759005165E1
2.069052106E0,-4.995000362E-2,-2.899050236E0,1.415100098E1
2.089054861E0,1.410000026E-1,-7.219500542E-1,1.160895061E1
2.109057385E0,-9.000000358E-2,2.830500007E-1,1.132200050E1
2.129061313E0,-2.269500047E-1,1.990500093E-1,1.199505043E1
2.149065328E0,1.770000011E-1,4.410000145E-1,1.305105019E1
2.169068716E0,5.650500059E-1,7.549500465E-1,1.360005093E1
2.189072125E0,8.500500321E-1,1.234050035E0,1.308195019E1
2.209074971E0,2.410500050E-1,1.429950118E0,1.234200096E1
2.229077658E0,-5.050500035E-1,1.195950031E0,1.243095016E1
2.249080745E0,-1.080000043E0,6.349500418E-1,1.250295067E1
2.269084458E0,-1.209000111E0,6.040500402E-1,1.228200054E1
2.289088160E0,-1.408050060E0,7.840500474E-1,1.177695084E1
2.309092145E0,-1.876950145E0,9.780000448E-1,1.099605083E1
2.329095622E0,-1.507950068E0,1.138050079E0,1.118505096E1
2.349099617E0,-5.700000525E-1,6.379500031E-1,1.258695030E1
2.369103212E0,1.620000005E-1,-2.260500044E-1,1.364805031E1
2.389107212E0,8.430000544E-1,-7.819500566E-1,1.365495110E1
2.409110915E0,1.039050102E0,-5.040000081E-1,1.264905071E1
2.429114318E0,1.101000071E0,6.300000101E-2,1.150605011E1
2.449118703E0,5.860500336E-1,-3.790500164E-1,1.012905025E1
2.469123867E0,-4.005000368E-2,-8.800500631E-1,8.371050835E0
2.489128491E0,-1.395000052E-2,-4.339500070E-1,6.766950130E0
2.509133170E0,4.669500291E-1,2.350500077E-1,6.453000069E0
2.529137799E0,6.100500226E-1,2.380500138E-1,6.673050404E0
2.549140871E0,1.333950043E0,7.000500560E-1,6.949050426E0
2.569144237E0,2.914050102E0,1.840050101E0,7.015950203E0
2.589148529E0,3.966000080E0,2.704950094E0,6.925050259E0
2.609153376E0,4.059000015E0,3.037050247E0,7.119000435E0
2.629157390E0,3.364950180E0,2.839050055E0,6.793050289E0
2.649160769E0,2.398950100E0,2.962950230E0,5.659950256E0
2.669163851E0,1.954050064E0,3.445050240E0,4.792950153E0
2.689167246E0,1.971000075E0,3.849000216E0,5.160000324E0
2.709170082E0,2.217000008E0,4.162950039E0,5.425050259E0
2.729174303E0,1.836000085E0,4.561050415E0,5.109000206E0
2.749178909E0,1.309950113E0,4.522050381E0,4.209000111E0
2.769182924E0,5.290500522E-1,5.443950176E0,4.357050419E0
2.789187607E0,3.850500286E-1,5.871000290E0,4.963050365E0
2.809191520E0,1.048950076E0,5.370000362E0,5.952000141E0
2.829195294E0,1.185000062E0,5.764950275E0,6.601050377E0
2.849199534E0,1.249950051E0,6.129000187E0,6.637050152E0
2.869204236E0,1.639950037E0,6.381000519E0,7.219050407E0
2.889208232E0,2.227050066E0,6.216000080E0,8.215950012E0
2.909212554E0,2.371050119E0,6.298950195E0,9.219000816E0
2.929218636E0,2.217000008E0,6.505050182E0,9.262050629E0
2.949224492E0,2.241000175E0,6.082050323E0,8.496000290E0
2.969230420E0,2.221950054E0,6.175050259E0,8.436000824E0
2.989235862E0,2.524050236E0,5.824950218E0,8.587050438E0
3.009241088E0,2.839950085E0,5.353050232E0,8.905050278E0
3.029245780E0,2.965050220E0,5.041950226E0,9.580950737E0
3.049250406E0,3.007950068E0,4.558050156E0,9.978000641E0
3.069255637E0,2.943000078E0,4.321050167E0,9.957000732E0
3.089259939E0,2.995950222E0,4.776000023E0,9.949950218E0
3.109264170E0,3.348000050E0,5.317950249E0,1.022700024E1
3.129268179E0,3.499050140E0,5.409000397E0,1.002405071E1
3.149270622E0,3.204000235E0,5.430000305E0,9.049050331E0
3.169273761E0,2.641050100E0,5.302950382E0,7.999950409E0
3.189277376E0,2.136000156E0,5.337000370E0,7.375050545E0
3.209280155E0,1.887000084E0,5.386950493E0,7.224000454E0
3.229282972E0,1.801050067E0,5.238000393E0,7.420950413E0
3.249285044E0,1.735950112E0,5.281950474E0,7.794000149E0
3.269288481E0,1.516050100E0,5.290950298E0,7.662000179E0
3.289291775E0,1.053000093E0,5.121000290E0,6.525000095E0
3.309294011E0,6.649500132E-1,5.242950439E0,5.617050171E0
3.329297303E0,5.620500445E-1,5.518950462E0,5.164050102E0
3.349301313E0,7.060500383E-1,5.839950085E0,4.969950199E0
3.369305304E0,9.670500755E-1,6.148950100E0,5.089950085E0
3.389309290E0,1.219050050E0,6.421950340E0,5.521050453E0
3.409312367E0,1.516050100E0,6.595950127E0,5.919000149E0
3.429313977E0,1.614000082E0,6.640050411E0,5.932950497E0
3.449316736E0,1.540050030E0,6.726000309E0,5.854050159E0
3.469320131E0,1.768950105E0,6.790050507E0,5.967000484E0
3.489323434E0,2.124000072E0,6.793050289E0,6.478950500E0
3.509327707E0,2.485950232E0,6.984000206E0,6.763950348E0
3.529332025E0,2.821050167E0,6.991950512E0,7.629000187E0
3.549336059E0,2.896950245E0,6.573000431E0,8.343000412E0
3.569339526E0,2.107050180E0,6.450000286E0,7.969050407E0
3.589343449E0,1.330950022E0,6.759000301E0,6.601050377E0
3.609346848E0,1.092000008E0,7.473000526E0,5.418000221E0
3.629350011E0,2.040000200E0,7.648050308E0,4.573050022E0
3.649353097E0,3.421950102E0,7.281000137E0,5.482950211E0
3.669356396E0,4.009050369E0,5.979000092E0,8.260950089E0
3.689360395E0,3.316950083E0,4.192049980E0,1.080495071E1
3.709364405E0,1.762050033E0,3.346050262E0,1.182495022E1
3.729369395E0,7.905000448E-2,3.660000086E0,1.121400070E1
3.749373088E0,-1.111050010E0,4.206000328E0,1.012395000E1
3.769377328E0,-5.719500184E-1,4.474050045E0,9.487050056E0
3.789381338E0,6.270000339E-1,4.455000401E0,9.241050720E0
3.809385334E0,9.499500394E-1,4.254000187E0,9.576000214E0
3.829388838E0,-1.429500133E-1,3.736950159E0,1.023900032E1
3.849393136E0,-9.979500771E-1,3.021000147E0,1.066605091E1
3.869397962E0,-7.399500608E-1,2.878950119E0,1.014105034E1
3.889403251E0,-4.279500246E-1,3.363000154E0,9.789000511E0
3.909407861E0,2.029500157E-1,3.391950130E0,1.020795059E1
3.929413024E0,4.950000346E-1,3.262950182E0,1.007400036E1
3.949418044E0,-1.819500029E-1,4.206000328E0,7.636050224E0
3.969424125E0,1.099500060E-1,5.290950298E0,5.385000229E0
3.989429674E0,2.878050089E0,4.507950306E0,4.369050026E0
4.009434063E0,5.848050117E0,3.331950188E0,5.767950058E0
4.029439308E0,2.458950043E0,3.222000122E0,8.914950371E0
4.049443862E0,-1.795950055E0,2.649000168E0,8.881050110E0
4.069448852E0,-1.912950039E0,1.441950083E0,7.720050335E0
4.089453717E0,-2.695950031E0,-3.430500031E-1,8.282999992E0
4.109459337E0,-3.822000265E0,-1.383000016E0,9.472949982E0
4.129464799E0,-3.766950130E0,-9.300000668E-1,1.121895027E1
4.149469780E0,-2.562000036E0,1.305000018E-2,1.238505077E1
4.169475553E0,-1.498950124E0,1.231950045E0,1.037805080E1
4.189479323E0,-1.123050094E0,2.424000025E0,9.304950714E0
4.209484174E0,-9.480000734E-1,2.259000063E0,1.010505009E1
4.229489193E0,-1.282950044E0,1.627050042E0,1.112295055E1
4.249495015E0,-1.891950130E0,1.471050024E0,1.167405033E1
4.269500458E0,-1.843950033E0,1.248000026E0,1.198095036E1
4.289506688E0,-1.626000047E0,1.054050088E0,1.176705074E1
4.309511919E0,-1.128000021E0,4.339500070E-1,1.159005070E1
4.329517063E0,-7.920000553E-1,-3.499500155E-1,1.228200054E1
4.349523578E0,-7.950000167E-1,-9.660000205E-1,1.328595066E1
4.369529717E0,-1.282950044E0,-1.158000112E0,1.335495090E1
4.389536116E0,-1.888950109E0,-1.633950114E0,1.194000053E1
4.409542236E0,-2.337000132E0,-2.008050203E0,1.039005089E1
4.429548457E0,-2.422950029E0,-1.849950075E0,9.094950676E0
4.449553308E0,-2.056950092E0,-1.263000011E0,8.232000351E0
4.469557626E0,-1.321950078E0,-7.304999977E-2,7.998000145E0
4.489561318E0,-6.169500351E-1,1.191000104E0,7.918950558E0
4.509565626E0,-1.890000105E-1,2.107950211E0,7.255050182E0
4.529570568E0,9.795000404E-2,2.302050114E0,6.922050476E0
4.549576116E0,5.839500427E-1,1.834950089E0,7.762950420E0
4.569581731E0,8.140500188E-1,1.270050049E0,9.127950668E0
4.589586659E0,3.439500034E-1,9.679500461E-1,1.019400024E1
4.609591515E0,-3.760500252E-1,7.690500617E-1,1.036905003E1
4.629596131E0,-9.720000625E-1,5.730000138E-1,9.274050713E0
4.649600222E0,-1.609050035E0,7.450500131E-1,7.842000484E0
4.669604529E0,-2.107050180E0,1.315050006E0,6.715950489E0
4.689610000E0,-2.164950132E0,1.852050066E0,6.316050529E0
4.709615010E0,-1.939050078E0,2.103000164E0,6.373950481E0
4.729619880E0,-1.686000109E0,2.154000044E0,6.015000343E0
4.749624486E0,-1.422000051E0,2.347950220E0,5.445000172E0
4.769628812E0,-9.340500236E-1,3.042000055E0,6.027000427E0
4.789634058E0,-1.650000066E-1,3.628950119E0,6.700050354E0
4.809639592E0,4.759500325E-1,3.472950220E0,7.545000553E0
4.829646438E0,7.710000277E-1,2.664000034E0,8.857950211E0
4.849652895E0,7.249500155E-1,1.714950085E0,1.019895077E1
4.869657505E0,2.869500220E-1,1.038000107E0,1.154700089E1
4.889661823E0,-4.590000212E-1,6.180000305E-1,1.260795021E1
4.909667669E0,-6.100500226E-1,3.379500210E-1,1.234500027E1
4.929672804E0,-7.009500265E-1,2.860500216E-1,1.238100052E1
4.949677794E0,-9.340500236E-1,5.749500394E-1,1.222500038E1
4.969682087E0,-4.309500158E-1,7.600500584E-1,1.141500092E1
4.989687256E0,2.770500183E-1,7.309500575E-1,1.211505032E1
5.009691654E0,7.009500265E-1,2.539499998E-1,1.376295090E1
5.029696198E0,9.930000305E-1,-5.299500227E-1,1.470900059E1
5.049701712E0,9.019500613E-1,-1.165050030E0,1.482105064E1
5.069706943E0,7.609500289E-1,-1.546050072E0,1.395900059E1
5.089711625E0,3.420000076E-1,-1.500000119E0,1.283295059E1
5.109715596E0,-1.860000044E-1,-1.069050074E0,1.177500057E1
5.129719895E0,-2.610000074E-1,-4.510500133E-1,1.067805004E1
5.149724449E0,-2.100000158E-2,1.660500020E-1,9.753000259E0
5.169729645E0,2.269500047E-1,5.299500227E-1,9.292950630E0
5.189734242E0,2.200500071E-1,6.229500175E-1,9.205050468E0
5.209740463E0,1.840500087E-1,5.560500026E-1,9.256950378E0
5.229745987E0,2.050500065E-1,3.379500210E-1,9.364950180E0
5.249751771E0,1.360500008E-1,-1.009500027E-1,9.859050751E0
5.269757073E0,3.495000303E-2,-6.550500393E-1,1.033500004E1
5.289763150E0,-1.860000044E-1,-1.167000055E0,1.043100071E1
5.309769598E0,-5.140500069E-1,-1.552950025E0,9.957000732E0
5.329774896E0,-7.870500088E-1,-1.798950076E0,9.259950638E0
5.349779415E0,-9.690000415E-1,-1.675050020E0,8.635050774E0
5.369784121E0,-9.460500479E-1,-9.559500217E-1,8.206049919E0
5.389788367E0,-6.270000339E-1,-1.090500057E-1,8.005050659E0
5.409792371E0,-1.890000105E-1,3.600000143E-1,8.151000023E0
5.429796477E0,1.909500062E-1,4.099500179E-1,8.115000725E0
5.449799862E0,2.460000068E-1,4.840500355E-1,7.911000252E0
5.469803872E0,2.130000144E-1,7.170000076E-1,7.579050541E0
5.489807290E0,3.229500055E-1,9.780000448E-1,7.405950546E0
5.509810607E0,5.239500403E-1,1.167000055E0,7.794000149E0
5.529814915E0,7.060500383E-1,1.366050124E0,8.371050835E0
5.549818939E0,9.409500360E-1,1.561950088E0,8.644050598E0
5.569823934E0,1.087050080E0,1.806000113E0,8.758950233E0
5.589829165E0,1.149000049E0,2.110949993E0,8.541000366E0
5.609834709E0,1.302000046E0,2.086950064E0,8.151000023E0
5.629839328E0,1.273950100E0,1.765950084E0,8.665950775E0
5.649843852E0,9.859500527E-1,1.584000111E0,9.745950699E0
5.669847627E0,1.567950130E0,2.215950012E0,1.023195076E1
5.689851636E0,2.518950224E0,2.376000166E0,1.011705017E1
5.709855862E0,3.630000114E0,1.830000043E0,1.059600067E1
5.729861689E0,4.809000015E0,1.308000088E0,1.210005093E1
5.749866352E0,5.700000286E0,6.229500175E-1,1.346595097E1
5.769870578E0,5.848050117E0,3.220500052E-1,1.488795090E1
5.789875492E0,4.902000427E0,4.240500331E-1,1.495305061E1
5.809879887E0,3.733050108E0,4.219500124E-1,1.320900059E1
5.829883266E0,3.142050266E0,4.150500298E-1,1.103205013E1
5.849887294E0,2.785050154E0,6.259500384E-1,9.343950272E0
5.869891286E0,2.617050171E0,9.970500469E-1,8.107950211E0
5.889897444E0,2.569050074E0,1.360950112E0,7.533000469E0
5.909902382E0,2.530950069E0,1.531050086E0,7.308000565E0
5.929907617E0,2.605050087E0,1.524000049E0,7.435050488E0
5.949912459E0,2.634000063E0,1.509000063E0,7.777050495E0
5.969916536E0,2.413950205E0,1.579050064E0,8.019000053E0
5.989921078E0,2.050050020E0,1.629000068E0,8.070000648E0
6.009925703E0,1.639950037E0,1.552950025E0,7.864050388E0
6.029931030E0,1.197000027E0,1.392000079E0,7.341000557E0
6.049935977E0,9.769500494E-1,1.543050051E0,7.108950138E0
6.069940838E0,1.045950055E0,1.963950038E0,7.318050385E0
6.089946145E0,1.165950060E0,2.307000160E0,7.534950256E0
6.109951293E0,1.626000047E0,2.605950117E0,7.909050465E0
6.129955342E0,2.698950052E0,3.124050140E0,8.896050453E0
6.149958948E0,3.802950144E0,3.769950151E0,9.844050407E0
6.169962063E0,3.657000065E0,4.036050320E0,9.703050613E0
6.189965983E0,1.654050112E0,2.796000242E0,7.372950554E0
6.209970035E0,-7.780500650E-1,9.250500202E-1,5.065950394E0
6.229973655E0,-2.596050024E0,5.659500360E-1,5.155050278E0
6.249977419E0,-3.649050236E0,1.324950099E0,7.260000229E0
6.269981737E0,-3.367050171E0,1.801950097E0,1.008900070E1
6.289987276E0,-2.440050125E0,2.233050108E0,1.245195103E1
6.309992419E0,-2.026050091E0,2.641950130E0,1.294605064E1
6.329997713E0,-1.840950131E0,2.496000051E0,1.246695042E1
6.350003160E0,-9.379500151E-1,2.134950161E0,1.343895054E1
6.370008055E0,2.680500150E-1,1.753950119E0,1.489800072E1
6.390013891E0,1.087050080E0,8.100000620E-1,1.587495041E1
6.410019756E0,1.270950079E0,2.110500038E-1,1.637295151E1
6.430025900E0,1.004999995E0,4.395000264E-2,1.592805099E1
6.450032673E0,5.380499959E-1,7.995000482E-2,1.425105095E1
6.470038520E0,1.789500117E-1,4.170000255E-1,1.207905102E1
6.490044130E0,-2.595000155E-2,9.370500445E-1,9.952050209E0
6.510049885E0,-8.100000024E-2,1.416000009E0,8.158050537E0
6.530055434E0,-1.240500063E-1,1.821000099E0,7.329000473E0
6.550061337E0,-1.500000060E-1,2.119950056E0,7.534950256E0
6.570066794E0,4.305000231E-2,2.173050165E0,8.380949974E0
6.590073010E0,2.610000074E-1,2.098950148E0,9.568950653E0
6.610079159E0,5.620500445E-1,2.146950006E0,1.059405041E1
6.630085236E0,1.219050050E0,2.146950006E0,1.145400047E1
6.650091434E0,1.699950099E0,2.263950109E0,1.244295025E1
6.670097583E0,1.695000052E0,2.350050211E0,1.278300095E1
6.690103742E0,1.330950022E0,2.350050211E0,1.194195080E1
6.710109280E0,9.190500379E-1,2.689950228E0,1.028295040E1
6.730113785E0,6.100500226E-1,3.166950226E0,8.557950020E0
6.750118779E0,5.070000291E-1,3.571950197E0,7.441950321E0
6.770124866E0,5.460000038E-1,4.098000050E0,6.841050148E0
6.790130106E0,5.839500427E-1,4.501049995E0,6.580050468E0
6.810134428E0,7.080000043E-1,4.647000313E0,6.742950439E0
6.830138212E0,8.830500245E-1,4.795050144E0,6.874050140E0
6.850141890E0,9.360000491E-1,5.272050381E0,6.622950077E0
6.870145827E0,1.389000058E0,5.455950260E0,6.180000305E0
6.890150226E0,2.131050110E0,5.682000160E0,6.427050114E0
6.910155072E0,2.145000219E0,6.454950333E0,6.385950089E0
6.930159087E0,1.774050117E0,6.619950294E0,6.007050514E0
6.950162462E0,1.594950080E0,6.390000343E0,6.109950066E0
6.970166558E0,1.177950025E0,6.925050259E0,6.316050529E0
6.990170549E0,1.092000008E0,6.967950344E0,5.739000320E0
7.010175101E0,1.714050055E0,5.875950336E0,5.800950050E0
7.030178876E0,2.269950151E0,5.338950157E0,6.805050373E0
7.050183111E0,2.839950085E0,5.136000156E0,7.830000401E0
7.070186891E0,3.319050074E0,5.169000149E0,8.505000114E0
7.090191429E0,3.324000120E0,5.406000137E0,8.461950302E0
7.110195424E0,2.959950209E0,5.373000145E0,7.686000347E0
7.130199742E0,2.622000217E0,5.100000381E0,7.288950443E0
7.150203511E0,2.209950209E0,4.939050198E0,7.345950127E0
7.170207535E0,1.759950042E0,4.936950207E0,7.440000534E0
7.190212064E0,1.537050128E0,5.245950222E0,7.381950378E0
7.210216030E0,1.663950086E0,5.643000126E0,6.937050343E0
7.230220016E0,1.872000098E0,5.896950245E0,6.529950142E0
7.250224636E0,1.960950136E0,6.024000168E0,6.490950108E0
7.270229944E0,1.983000040E0,5.899950504E0,7.047000408E0
7.290235420E0,1.848000050E0,5.575950146E0,7.765050411E0
7.310240030E0,1.494000077E0,5.308050156E0,8.176950455E0
7.330243487E0,1.060950041E0,5.286000252E0,8.176950455E0
7.350248107E0,8.089500666E-1,5.455950260E0,7.686000347E0
7.370252439E0,7.200000286E-1,5.785050392E0,7.168950558E0
7.390257275E0,6.199500561E-1,6.067050457E0,6.766950130E0
7.410262496E0,4.980000257E-1,6.172950268E0,6.673050404E0
7.430266891E0,3.970500231E-1,6.169950485E0,7.006050110E0
7.450271809E0,2.490000129E-1,6.283050060E0,7.384950161E0
7.470278183E0,-1.095000096E-2,6.433950424E0,7.420950413E0
7.490284106E0,-2.080500126E-1,6.513000488E0,7.432050228E0
7.510289265E0,-3.349500299E-1,6.814050198E0,7.653000355E0
7.530294592E0,-3.079500198E-1,7.063050270E0,7.962000370E0
7.550299760E0,-7.050000131E-3,6.934050560E0,8.527050018E0
7.570304385E0,1.579500139E-1,7.060950279E0,9.202050209E0
7.590308996E0,1.669500023E-1,7.080000401E0,9.684000015E0
7.610313654E0,2.805000171E-2,6.786000252E0,9.799050331E0
7.630317044E0,-2.530499995E-1,6.838050365E0,9.372000694E0
7.650321548E0,-2.749500275E-1,6.903000355E0,8.350049973E0
7.670326227E0,2.029500157E-1,6.592050076E0,8.026050568E0
7.690330548E0,8.620500565E-1,6.346950531E0,8.788050652E0
7.710335472E0,1.246950030E0,6.108000278E0,1.011000061E1
7.730339702E0,1.261950016E0,5.686050415E0,1.059195042E1
7.750343765E0,8.950500488E-1,4.924950123E0,1.022295094E1
7.770348371E0,2.340000123E-1,4.474050045E0,9.279000282E0
7.790353919E0,-4.020000100E-1,4.743000031E0,8.011950493E0
7.810359756E0,-7.800000310E-1,4.987050056E0,6.910050392E0
7.830365255E0,-8.020500541E-1,4.795050144E0,6.795000553E0
7.850369799E0,-6.510000229E-1,4.647000313E0,7.573950291E0
7.870373202E0,-6.580500603E-1,4.843050003E0,8.151000023E0
7.890377265E0,-7.440000176E-1,5.097000122E0,7.849050522E0
7.910382438E0,-5.740500093E-1,4.992000103E0,7.195050240E0
7.930387135E0,1.120500043E-1,4.675950050E0,7.191000462E0
7.950392375E0,1.048950076E0,4.735949993E0,8.419050217E0
7.970398549E0,1.722000122E0,4.936950207E0,1.017000008E1
7.990404088E0,1.888950109E0,4.879050255E0,1.100100040E1
8.010409246E0,1.573050022E0,4.692000389E0,1.027095032E1
8.030414185E0,1.152000070E0,4.711950302E0,8.716050148E0
8.050419440E0,9.810000658E-1,4.980000019E0,7.837050438E0
8.070425285E0,1.033950090E0,5.313000202E0,7.435050488E0
8.090430843E0,1.087050080E0,5.650050163E0,7.144950390E0
8.110436064E0,1.108050108E0,5.859000206E0,6.867000103E0
8.130440737E0,1.135050058E0,5.959050179E0,6.790950298E0
8.150446309E0,1.041000009E0,6.189000130E0,6.805050373E0
8.170450309E0,1.053000093E0,6.340050220E0,6.754950523E0
8.190454516E0,1.180050015E0,6.388050079E0,6.790950298E0
8.210458588E0,1.159050107E0,6.426000118E0,6.700050354E0
8.230462189E0,1.009950042E0,6.436050415E0,6.486000538E0
8.250464987E0,8.740500212E-1,6.505050182E0,6.312000275E0
8.270468434E0,7.849500179E-1,6.667950153E0,6.225000381E0
8.290472449E0,7.969500422E-1,6.747000217E0,6.169950485E0
8.310477405E0,8.110500574E-1,6.670950413E0,6.145950317E0
8.330481925E0,7.900500298E-1,6.510000229E0,6.180000305E0
8.350486216E0,6.580500603E-1,6.297000408E0,6.490950108E0
8.370489885E0,3.349500299E-1,6.322950363E0,7.044000149E0
8.390493269E0,1.380000114E-1,6.898050308E0,7.174050331E0
8.410496025E0,8.830500245E-1,6.709050179E0,7.107000351E0
8.430498496E0,1.615950108E0,6.385950089E0,7.669950485E0
8.450500972E0,1.846050143E0,6.244050503E0,8.371050835E0
8.470504434E0,2.038050175E0,5.538000107E0,9.346050262E0
8.490508367E0,1.968000054E0,4.884000301E0,1.014600086E1
8.510512477E0,1.747950077E0,4.446000099E0,1.039005089E1
8.530516174E0,1.555950046E0,4.192049980E0,1.027500057E1
8.550518919E0,1.470000029E0,4.054950237E0,1.012395000E1
8.570522304E0,1.456050038E0,3.945000172E0,9.841950417E0
8.590526227E0,1.578000069E0,4.054950237E0,9.435000420E0
8.610530525E0,1.828950047E0,4.405050278E0,8.938950539E0
8.630533952E0,1.992000103E0,4.726050377E0,8.491050720E0
8.650537323E0,1.978050113E0,5.080050468E0,8.019000053E0
8.670540631E0,2.026050091E0,5.368050098E0,7.722000599E0
8.690543087E0,2.172000170E0,5.394000053E0,7.722000599E0
8.710545318E0,2.313000202E0,5.157000065E0,8.113050461E0
8.730547775E0,2.313000202E0,4.743000031E0,8.692049980E0
8.750549626E0,2.065950155E0,4.246950150E0,9.222000122E0
8.770550554E0,1.621050119E0,3.921000242E0,9.693000793E0
8.790553934E0,1.234950066E0,3.897000074E0,9.589950562E0
8.810557534E0,9.529500604E-1,4.218000412E0,8.731050491E0
8.830560597E0,8.520000577E-1,4.624950409E0,7.804050446E0
8.850564982E0,8.260500431E-1,4.873950005E0,7.492050171E0
8.870568635E0,7.990500331E-1,4.864950180E0,7.570950508E0
8.890573006E0,6.799500585E-1,4.621050358E0,7.642950535E0
8.910576948E0,4.639500082E-1,4.471950054E0,7.689000130E0
8.930580328E0,2.250000089E-1,4.503000259E0,7.672050476E0
8.950583405E0,1.789500117E-1,4.618050098E0,7.600050449E0
8.970586573E0,2.749500275E-1,4.728000164E0,7.573950291E0
8.990588650E0,3.900000155E-1,4.659000397E0,7.749000549E0
9.010591741E0,5.119500160E-1,4.543950081E0,8.143950462E0
9.030594593E0,6.150000095E-1,4.498050213E0,8.632050514E0
9.050597573E0,6.799500585E-1,4.567950249E0,9.018000603E0
9.070600636E0,6.510000229E-1,4.703999996E0,9.025050163E0
9.090602867E0,7.060500383E-1,4.915050030E0,8.893050194E0
9.110605559E0,1.015050054E0,4.828950405E0,8.946000099E0
9.130608327E0,1.273950100E0,4.417050362E0,9.480000496E0
9.150609929E0,1.125000000E0,4.474050045E0,1.023000050E1
9.170612698E0,9.910500646E-1,4.594050407E0,1.059600067E1
9.190614525E0,1.153950095E0,4.350000381E0,1.101795006E1
9.210617905E0,1.434000015E0,3.981000185E0,1.126005077E1
9.230619972E0,1.606950045E0,3.592950106E0,1.160895061E1
9.250621823E0,1.540050030E0,3.279000044E0,1.196100044E1
9.270624313E0,1.113000035E0,3.009000063E0,1.201695061E1
9.290625909E0,2.989500165E-1,2.773950100E0,1.167900085E1
9.310627463E0,-3.610500097E-1,2.554050207E0,1.090995026E1
9.330629540E0,-6.630000472E-1,2.416950226E0,1.048095036E1
9.350631473E0,-7.830000520E-1,2.299950123E0,1.038300037E1
9.370633266E0,-8.809500337E-1,2.107950211E0,1.029900074E1
9.390635107E0,-9.340500236E-1,1.963950038E0,1.000995064E1
9.410636411E0,-9.139500260E-1,2.029050112E0,9.732000351E0
9.430638160E0,-8.400000334E-1,2.197050095E0,9.291000366E0
9.450640107E0,-5.929500461E-1,2.284950018E0,8.725950241E0
9.470641261E0,2.295000106E-2,2.305050135E0,8.611050606E0
9.490642852E0,8.500500321E-1,2.314050198E0,9.640950203E0
9.510644714E0,1.587000132E0,2.230050087E0,1.108500099E1
9.530646256E0,1.864950061E0,1.990950108E0,1.164300060E1
9.550647463E0,1.659000039E0,1.753950119E0,1.073505020E1
9.570647473E0,1.243050098E0,1.957050085E0,9.082950592E0
9.590647988E0,1.003050089E0,2.460000038E0,7.843950272E0
9.610648607E0,9.619500637E-1,3.013950109E0,7.060950279E0
9.630648963E0,1.032000065E0,3.531000137E0,6.522000313E0
9.650649515E0,1.168050051E0,3.928050280E0,6.277950287E0
9.670651136E0,1.213950038E0,4.066950321E0,6.307050228E0
9.690654131E0,1.231050014E0,4.039050102E0,6.625050545E0
9.710657606E0,1.225950003E0,4.029000282E0,7.131000519E0
9.730660073E0,1.294950008E0,4.033950329E0,7.593000412E0
9.750662563E0,1.369050026E0,3.940050125E0,7.885050297E0
9.770664318E0,1.329000115E0,3.784950256E0,8.074049950E0
9.790666164E0,1.302000046E0,3.682050228E0,8.422050476E0
9.810668410E0,1.353000045E0,3.688950062E0,8.890950203E0
9.830670779E0,1.314000010E0,3.979050159E0,9.025050163E0
9.850671784E0,1.077000022E0,4.417050362E0,8.601000786E0
9.870674198E0,9.070500135E-1,4.804950237E0,8.199000359E0
9.890675722E0,1.004999995E0,5.296050072E0,8.005050659E0
9.910678501E0,1.354950070E0,5.743950367E0,8.095950127E0
9.930682255E0,1.654050112E0,5.794050217E0,8.560950279E0
9.950685890E0,1.540050030E0,5.919000149E0,9.250050545E0
9.970688958E0,1.633050084E0,6.109950066E0,9.459000587E0
9.990692938E0,2.251049995E0,5.233950138E0,9.940050125E0
1.001069604E1,2.185950041E0,4.611000061E0,1.120500088E1
1.003069882E1,2.023050070E0,4.234950066E0,1.200495052E1
1.005070290E1,2.071050167E0,3.403950214E0,1.254300022E1
1.007070688E1,1.968000054E0,2.683050156E0,1.271295071E1
1.009071026E1,1.846050143E0,2.388000011E0,1.214100075E1
1.011071512E1,1.827000141E0,2.436000109E0,1.147800064E1
1.013071827E1,1.887000084E0,2.282999992E0,1.136505032E1
1.015072164E1,1.968000054E0,2.089050055E0,1.138200092E1
1.017072495E1,1.912950039E0,2.227950096E0,1.057200050E1
1.019072810E1,1.846050143E0,2.524950027E0,9.412950516E0
1.021073142E1,1.908000112E0,2.757000208E0,8.785950661E0
1.023073385E1,1.956000090E0,2.968050241E0,8.539050102E0
1.025073608E1,1.959000111E0,3.154950142E0,8.194050789E0
1.027073877E1,1.930050135E0,3.231000185E0,7.708050251E0
1.029074090E1,1.906050086E0,3.229050159E0,7.569000244E0
1.031074398E1,1.858050108E0,3.142950058E0,7.864050388E0
1.033074611E1,1.807950139E0,3.069000244E0,8.368950844E0
1.035074795E1,1.578000069E0,3.049050093E0,8.532000542E0
1.037075071E1,1.228050113E0,3.187950134E0,8.179950714E0
1.039075319E1,1.017000079E0,3.532950163E0,7.567050457E0
1.041075596E1,9.580500722E-1,3.945000172E0,7.203000546E0
1.043075904E1,1.099050045E0,4.369050026E0,7.258050442E0
1.045076120E1,1.362000108E0,4.656000137E0,7.464000225E0
1.047076254E1,1.432050109E0,4.822050095E0,7.593000412E0
1.049076407E1,1.408050060E0,4.872000217E0,7.686000347E0
1.051076556E1,1.365000010E0,4.906050205E0,7.861050606E0
1.053076624E1,1.410000086E0,4.956000328E0,8.155950546E0
1.055076712E1,1.537050128E0,5.083050251E0,8.367000580E0
1.057076901E1,1.674000025E0,5.049000263E0,8.428950310E0
1.059076971E1,1.693050027E0,4.948950291E0,8.746950150E0
1.061077117E1,1.566000104E0,5.218950272E0,8.962950706E0
1.063077241E1,1.501050115E0,5.562000275E0,8.800050735E0
1.065077248E1,1.603950024E0,5.655000210E0,8.551050186E0
1.067077392E1,1.734000087E0,5.734050274E0,8.628000259E0
1.069077423E1,1.597050071E0,6.156000137E0,8.656050682E0
1.071077514E1,1.645050049E0,6.169950485E0,8.455050468E0
1.073077673E1,1.627950072E0,5.547000408E0,8.623050690E0
1.075077757E1,1.386000037E0,5.145000458E0,8.953050613E0
1.077077787E1,1.317000031E0,4.908000469E0,9.145050049E0
1.079077908E1,1.458000064E0,4.599000454E0,9.468000412E0
1.081078101E1,1.686000109E0,4.314000130E0,1.005000019E1
1.083078315E1,1.683000088E0,4.114950180E0,1.060605049E1
1.085078378E1,1.269000053E0,3.856950283E0,1.055805016E1
1.087078437E1,7.680000067E-1,3.430050135E0,9.928050041E0
1.089078498E1,3.010500073E-1,3.196050167E0,9.115950584E0
1.091078612E1,-4.305000231E-2,3.351000071E0,8.352000237E0
1.093078766E1,-3.990000188E-1,3.811050177E0,7.630950451E0
1.095078990E1,-7.080000043E-1,4.459950447E0,7.030050278E0
1.097079237E1,-7.660500407E-1,4.896000385E0,6.766950130E0
1.099079506E1,-5.599500537E-1,4.848000050E0,6.484050274E0
1.101079753E1,-3.520500064E-1,4.228050232E0,6.168000221E0
1.103080069E1,-7.095000148E-2,3.469050169E0,7.183050156E0
1.105080434E1,1.429500133E-1,3.223950148E0,9.174000740E0
1.107080690E1,2.269500047E-1,2.889000177E0,1.070895004E1
1.109080968E1,4.500000179E-2,2.082000017E0,1.090500069E1
1.111081239E1,-4.620000124E-1,1.105050087E0,9.930000305E0
1.113081546E1,-1.432050109E0,3.480000198E-1,8.460000038E0
1.115081860E1,-3.151050091E0,3.070500195E-1,7.552050591E0
1.117082105E1,-4.090050220E0,-5.160000324E-1,5.739000320E0
1.119082283E1,-3.618000269E0,-3.001950026E0,7.140000343E0
1.121082500E1,-2.533050060E0,-4.338000298E0,1.040895081E1
1.123082787E1,-9.739500284E-1,-2.983050108E0,1.279305077E1
1.125083055E1,8.449500203E-1,-8.200500607E-1,1.343895054E1
1.127083332E1,2.565000057E0,3.124050140E0,8.544000626E0
1.129083585E1,4.069050312E0,8.509950638E0,4.804950237E0
1.131083894E1,5.302050114E0,8.208000183E0,8.388000488E0
1.133084293E1,6.568950176E0,5.871000290E0,6.724050522E0
1.135084539E1,5.311950207E0,5.550000191E0,7.210050106E0
1.137084724E1,3.355050087E0,5.971050262E0,9.157050133E0
1.139084936E1,2.386950016E0,5.334000111E0,9.307950020E0
1.141085172E1,1.753050089E0,4.149000168E0,8.680050850E0
1.143085507E1,1.480050087E0,3.667050123E0,7.975950241E0
1.145085722E1,1.549050093E0,4.146000385E0,7.918950558E0
1.147085969E1,1.731000066E0,4.858050346E0,8.470050812E0
1.149086286E1,1.995000124E0,5.028000355E0,9.034950256E0
1.151086554E1,2.361000061E0,4.764000416E0,9.460950851E0
1.153086769E1,2.941050053E0,4.567950249E0,1.003800011E1
1.155087052E1,3.493950129E0,4.029000282E0,1.119000053E1
1.157087422E1,3.075000048E0,2.977950096E0,1.242795086E1
1.159087724E1,1.882050037E0,1.576950073E0,1.330305099E1
1.161088040E1,8.260500431E-1,4.099500179E-1,1.382505035E1
1.163088403E1,2.200500071E-1,-3.289500177E-1,1.391595078E1
1.165088680E1,-1.120500043E-1,-7.789500356E-1,1.366005039E1
1.167089110E1,-1.020000055E-1,-1.030950069E0,1.294800091E1
1.169089479E1,1.819500029E-1,-1.237050056E0,1.225800037E1
1.171089727E1,5.380499959E-1,-1.150050044E0,1.160895061E1
1.173090103E1,7.129500508E-1,-7.219500542E-1,1.061505032E1
1.175090436E1,6.919500232E-1,-1.159500033E-1,9.507000923E0
1.177090805E1,6.510000229E-1,4.320000112E-1,8.515049934E0
1.179091119E1,5.740500093E-1,9.199500680E-1,7.737000465E0
1.181091488E1,5.260500312E-1,1.332000017E0,7.252950191E0
1.183091849E1,5.890500546E-1,1.483050108E0,6.688050270E0
1.185092226E1,6.490500569E-1,1.414050102E0,6.213000298E0
1.187092594E1,7.080000043E-1,1.462050080E0,6.508050442E0
1.189093018E1,7.489500642E-1,1.629000068E0,7.405950546E0
1.191093292E1,7.039500475E-1,1.723050117E0,7.890000343E0
1.193093506E1,6.049500108E-1,1.852050066E0,7.417950153E0
1.195093879E1,5.220000148E-1,2.065050125E0,6.799950123E0
1.197094212E1,7.060500383E-1,2.245050192E0,6.510000229E0
1.199094559E1,1.045950055E0,2.532000065E0,6.786000252E0
1.201094897E1,1.338000059E0,2.946000099E0,7.533000469E0
1.203095197E1,1.687950134E0,3.088050127E0,8.275950432E0
1.205095577E1,2.658000231E0,3.169050217E0,9.475050926E0
1.207095886E1,4.084949970E0,4.018949986E0,1.121895027E1
1.209096279E1,4.789950371E0,5.029950142E0,1.235700035E1
1.211096621E1,4.447050095E0,4.798050404E0,1.228005028E1
1.213097017E1,3.597000122E0,3.475950241E0,1.181805038E1
1.215097395E1,2.482950211E0,2.407950163E0,1.121700096E1
1.217097664E1,1.255050063E0,1.786950111E0,1.040205002E1
1.219098041E1,4.110000134E-1,1.438050032E0,9.667050362E0
1.221098340E1,3.439500034E-1,1.735050082E0,9.391950607E0
1.223098749E1,7.710000277E-1,2.568000078E0,9.334050179E0
1.225099140E1,1.233000040E0,3.118950129E0,9.031949997E0
1.227099542E1,1.225950003E0,2.254050016E0,8.862000465E0
1.229099878E1,4.279500246E-1,6.210000515E-1,8.884050369E0
1.231100250E1,-7.780500650E-1,-6.670500040E-1,8.970000267E0
1.233100690E1,-2.050050020E0,-1.501950026E0,9.042000771E0
1.235101059E1,-3.070050240E0,-1.900050044E0,8.704050064E0
1.237101488E1,-3.757050276E0,-1.981050134E0,8.315999985E0
1.239101889E1,-4.099950314E0,-1.713000059E0,8.282999992E0
1.241102256E1,-4.263000011E0,-1.324950099E0,8.515049934E0
1.243102715E1,-4.272000313E0,-1.528950095E0,9.268950462E0
1.245103240E1,-4.324950218E0,-2.401050091E0,1.098195076E1
1.247103733E1,-4.168950081E0,-3.232050180E0,1.215495014E1
1.249104155E1,-3.645000219E0,-3.751050234E0,1.223205090E1
1.251104587E1,-3.187050104E0,-3.787050247E0,1.199505043E1
1.253104957E1,-2.830050230E0,-3.265050173E0,1.201395035E1
1.255105234E1,-1.699950099E0,-2.607000113E0,1.039500046E1
1.257105489E1,-8.640000224E-1,-1.447050095E0,9.853950500E0
1.259105889E1,-6.319500208E-1,-5.209500194E-1,9.334050179E0
1.261106381E1,-7.489500642E-1,-3.705000132E-2,9.511050224E0
1.263106895E1,-7.950000167E-1,-2.239500135E-1,1.161705017E1
1.265107455E1,-1.326000094E0,-9.949500561E-1,1.385595036E1
1.267107971E1,-1.369050026E0,-1.332000017E0,1.089105034E1
1.269108411E1,-7.350000143E-1,9.799500704E-1,5.835000515E0
1.271108780E1,5.220000148E-1,4.663950443E0,5.173950195E0
1.273109172E1,1.702050090E0,6.115050316E0,7.024950504E0
1.275109488E1,1.888950109E0,4.459950447E0,9.709950447E0
1.277109859E1,6.270000339E-1,2.568000078E0,1.246395016E1
1.279110382E1,-4.930500090E-1,2.443050146E0,1.378395081E1
1.281110836E1,1.960500032E-1,4.294950008E0,1.314195061E1
1.283111245E1,1.822050095E0,5.602950096E0,1.167900085E1
1.285111728E1,2.517000198E0,5.602950096E0,1.031595039E1
1.287112221E1,1.542000055E0,5.337000370E0,9.576000214E0
1.289112690E1,6.390000582E-1,4.824000359E0,8.932050705E0
1.291113153E1,1.458000064E0,4.567950249E0,8.731050491E0
1.293113668E1,3.028950214E0,4.960950375E0,9.454050064E0
1.295114160E1,2.785050154E0,4.615950108E0,9.969000816E0
1.297114683E1,1.614000082E0,2.829000235E0,1.041900063E1
1.299115205E1,7.249500155E-1,1.528950095E0,1.231605053E1
1.301115603E1,-4.500000179E-1,5.179499984E-1,1.297005081E1
1.303116032E1,-1.462950110E0,-2.040000111E-1,1.306995106E1
1.305116348E1,-2.437950134E0,-4.510500133E-1,1.221795082E1
1.307116687E1,-3.111000061E0,-2.809500098E-1,9.772050858E0
1.309116985E1,-3.525000095E0,1.510500014E-1,7.435050488E0
1.311117262E1,-3.652050257E0,4.699500203E-1,5.995050430E0
1.313117516E1,-3.421950102E0,7.720500231E-1,4.828950405E0
1.315117820E1,-3.613950253E0,1.035000086E0,3.955050230E0
1.317118182E1,-4.135950089E0,1.138050079E0,3.538050175E0
1.319118528E1,-4.260000229E0,1.147950053E0,3.883050203E0
1.321118990E1,-3.975000143E0,1.332000017E0,4.636950016E0
1.323119443E1,-3.226050138E0,1.375050068E0,5.587950230E0
1.325119811E1,-1.243050098E0,2.011950016E0,7.243050575E0
1.327120218E1,9.100500345E-1,2.364000082E0,1.106805038E1
1.329120611E1,6.409500241E-1,1.924050093E0,1.303695107E1
1.331120981E1,-7.780500650E-1,1.699050069E0,1.161195087E1
1.333121474E1,-2.350950003E0,2.364000082E0,9.862950325E0
1.335121943E1,-2.665050030E0,4.627950191E0,8.515049934E0
1.337122435E1,-4.590000212E-1,7.942050457E0,9.031949997E0
1.339122980E1,3.070050240E0,1.026795006E1,1.011300087E1
1.341123419E1,4.066050053E0,1.053600025E1,9.685950279E0
1.343123841E1,1.117950082E0,9.135000229E0,8.386050224E0
1.345124273E1,-2.128950119E0,7.084950447E0,7.525950432E0
1.347124776E1,-3.874950171E0,5.776950359E0,8.251950264E0
1.349125360E1,-4.765950203E0,4.735949993E0,9.238050461E0
1.351125936E1,-5.463000298E0,3.745950222E0,1.043805027E1
1.353126461E1,-5.269050121E0,2.506050110E0,1.197795010E1
1.355126921E1,-4.459050179E0,2.170050144E0,1.299105072E1
1.357127516E1,-3.874950171E0,2.692950010E0,1.233495045E1
1.359127946E1,-3.082050085E0,3.127950191E0,1.060800076E1
1.361128346E1,-2.059050083E0,3.160050154E0,9.586050034E0
1.363128676E1,-1.402950048E0,3.151950121E0,9.387000084E0
1.365129045E1,-1.483950019E0,3.531000137E0,9.990000725E0
1.367129487E1,-1.783950090E0,3.820950270E0,9.781949997E0
1.369129972E1,-1.530000091E0,3.715050220E0,9.007950783E0
1.371130381E1,-8.449500203E-1,3.805950165E0,9.229050636E0
1.373130812E1,1.069500074E-1,3.912000179E0,9.601950645E0
1.375131180E1,1.111050010E0,3.813000202E0,9.772050858E0
1.377131571E1,1.393050075E0,3.778050184E0,9.990000725E0
1.379132039E1,1.240050077E0,3.742050171E0,9.969000816E0
1.381132500E1,1.255050063E0,3.598050117E0,9.792000771E0
1.383132955E1,1.293000102E0,3.576000214E0,9.432000160E0
1.385133353E1,1.108050108E0,3.616950274E0,8.898000717E0
1.387133724E1,6.960000396E-1,3.603000164E0,8.331000328E0
1.389133999E1,2.850000262E-1,3.643050194E0,7.701000214E0
1.391134284E1,-1.429500133E-1,3.745950222E0,7.180950165E0
1.393134655E1,-4.039500058E-1,3.792000294E0,7.174050331E0
1.395134954E1,-3.949500322E-1,3.805950165E0,7.339050293E0
1.397135242E1,-3.490500152E-1,3.912000179E0,7.504050255E0
1.399135578E1,-1.980000138E-1,3.937950134E0,7.861050606E0
1.401135908E1,-3.495000303E-2,3.688950062E0,8.212950706E0
1.403136283E1,-6.195000187E-2,3.301050186E0,8.661000252E0
1.405136708E1,-2.010000050E-1,2.950950146E0,9.564000130E0
1.407137170E1,-4.470000267E-1,2.515050173E0,1.028700066E1
1.409137601E1,-7.399500608E-1,2.058000088E0,1.038105011E1
1.411137969E1,-1.174950004E0,1.869000077E0,9.744000435E0
1.413138339E1,-1.465050101E0,1.885050058E0,8.824049950E0
1.415138680E1,-1.408050060E0,2.058000088E0,8.005050659E0
1.417139047E1,-1.116000056E0,2.398050070E0,7.605000496E0
1.419139384E1,-6.799500585E-1,2.649000168E0,7.726950169E0
1.421139724E1,-3.610500097E-1,2.938950062E0,8.212950706E0
1.423140038E1,-8.805000782E-2,3.279000044E0,8.340000153E0
1.425140498E1,3.060000241E-1,3.471000195E0,7.971000195E0
1.427140992E1,5.670000315E-1,3.294000149E0,7.662000179E0
1.429141351E1,9.070500135E-1,3.049050093E0,7.813050270E0
1.431141729E1,1.446000099E0,3.229050159E0,8.470050812E0
1.433142100E1,1.858050108E0,3.766050100E0,8.983950615E0
1.435142532E1,1.936950088E0,4.279950142E0,8.962950706E0
1.437143053E1,1.789050102E0,4.534049988E0,8.458050728E0
1.439143484E1,1.483950019E0,4.672950268E0,8.005050659E0
1.441143886E1,1.041000009E0,4.635000229E0,7.825050354E0
1.443144342E1,5.790000558E-1,4.441050053E0,7.911000252E0
1.445144805E1,2.700000107E-1,4.321050167E0,8.010000229E0
1.447145388E1,-1.950000064E-3,4.213050365E0,8.275950432E0
1.449145922E1,-7.990500331E-1,3.865950108E0,8.527050018E0
1.451146478E1,-6.289500594E-1,3.535950184E0,8.980050087E0
1.453146970E1,-7.369500399E-1,3.490050077E0,9.685950279E0
1.455147401E1,-8.070000410E-1,3.289050102E0,1.050495052E1
1.457147740E1,-4.519500136E-1,2.836050034E0,1.194900036E1
1.459148039E1,2.580000162E-1,2.050950050E0,1.391805077E1
1.461148347E1,8.230500221E-1,1.219950080E0,1.550805092E1
1.463148592E1,7.990500331E-1,4.530000091E-1,1.609500122E1
1.465148873E1,7.905000448E-2,3.705000132E-2,1.573605061E1
1.467149118E1,-8.040000200E-1,-1.590000093E-1,1.459800053E1
1.469149356E1,-1.531950116E0,-2.860500216E-1,1.290705109E1
1.471149603E1,-1.731000066E0,-3.840000033E-1,1.141095066E1
1.473149856E1,-1.555950046E0,-3.840000033E-1,1.034505081E1
1.475150162E1,-1.099050045E0,-2.089500129E-1,9.661950111E0
1.477150490E1,-4.669500291E-1,6.795000285E-2,9.277050018E0
1.479150830E1,1.140000075E-1,2.980500162E-1,8.995950699E0
1.481151143E1,5.359500051E-1,4.440000355E-1,8.770950317E0
1.483151534E1,7.729500532E-1,5.830500126E-1,8.338050842E0
1.485151871E1,9.120000601E-1,6.810000539E-1,8.019000053E0
1.487152249E1,9.649500251E-1,7.069500089E-1,8.122050285E0
1.489152650E1,8.470500112E-1,5.629500151E-1,8.282999992E0
1.491153081E1,6.199500561E-1,3.139500022E-1,8.401950836E0
1.493153597E1,3.610500097E-1,7.995000482E-2,8.568000793E0
1.495153852E1,5.895000324E-2,-8.895000070E-2,8.647050858E0
1.497154191E1,-3.079500198E-1,-1.090500057E-1,8.315999985E0
1.499154439E1,-5.580000281E-1,1.590000093E-1,7.741050243E0
1.501154831E1,-6.990000606E-1,6.739500165E-1,7.227000237E0
1.503155176E1,-6.319500208E-1,1.195950031E0,7.060950279E0
1.505155506E1,-4.189500213E-1,1.579050064E0,7.096950531E0
1.507155730E1,-2.749500275E-1,1.882950068E0,7.243050575E0
1.509156031E1,-1.770000011E-1,2.005050182E0,7.662000179E0
1.511156256E1,-1.890000105E-1,1.792050123E0,8.320950508E0
1.513156620E1,-2.490000129E-1,1.405950069E0,9.138000488E0
1.515156897E1,-3.300000131E-1,1.063950062E0,1.001400089E1
1.517157145E1,-4.470000267E-1,7.500000596E-1,1.064895058E1
1.519157511E1,-5.140500069E-1,5.950500369E-1,1.101300049E1
1.521157848E1,-4.159500301E-1,4.890000224E-1,1.124505043E1
1.523158220E1,-5.700000376E-2,3.120000064E-1,1.127400017E1
1.525158497E1,4.570500255E-1,2.880000174E-1,1.136505032E1
1.527158745E1,7.489500642E-1,5.850000381E-1,1.129605007E1
1.529159023E1,7.420500517E-1,9.780000448E-1,1.084995079E1
1.531159390E1,5.190000534E-1,1.204950094E0,1.021800041E1
1.533159636E1,3.439500034E-1,1.156949997E0,9.727050781E0
1.535159891E1,2.580000162E-1,1.093050003E0,9.475050926E0
1.537160169E1,2.200500071E-1,1.393950105E0,9.540000916E0
1.539160384E1,1.669500023E-1,2.035950184E0,9.613950729E0
1.541160629E1,4.159500301E-1,2.250000000E0,9.688950539E0
1.543161020E1,9.120000601E-1,1.656000137E0,1.039500046E1
1.545161325E1,9.220500588E-1,8.869500160E-1,1.217700100E1
1.547161726E1,3.250500262E-1,8.205000311E-2,1.419105053E1
1.549162003E1,-4.999500215E-1,-1.123950005E0,1.530000114E1
1.551162260E1,-1.458000064E0,-2.118000031E0,1.496505070E1
1.553162568E1,-2.167050123E0,-2.343000174E0,1.366905022E1
1.555162871E1,-2.251049995E0,-1.768050075E0,1.182495022E1
1.557163202E1,-1.918050051E0,-9.090000391E-1,1.017195034E1
1.559163454E1,-1.450950027E0,-4.440000355E-1,9.163949966E0
1.561163754E1,-9.340500236E-1,-1.710000038E-1,8.625000000E0
1.563164102E1,-5.479500294E-1,9.195000678E-2,8.580000877E0
1.565164347E1,-4.380000234E-1,1.110000089E-1,8.920050621E0
1.567164586E1,-5.170500278E-1,6.795000285E-2,9.175950050E0
1.569164807E1,-5.910000205E-1,6.300000101E-2,9.259950638E0
1.571165078E1,-7.110000253E-1,4.800000042E-2,9.217050552E0
1.573165263E1,-5.770500302E-1,-4.605000094E-2,9.544950485E0
1.575165324E1,-3.199500144E-1,-1.060500070E-1,1.058700085E1
1.577165456E1,-9.300000221E-2,-8.895000070E-2,1.182705021E1
1.579165600E1,-4.050000105E-3,-6.000000052E-3,1.228500080E1
1.581165638E1,-2.530499995E-1,1.510500014E-1,1.110195065E1
1.583165759E1,-6.889500618E-1,4.939500093E-1,9.372000694E0
1.585165875E1,-9.670500755E-1,9.709500670E-1,8.371050835E0
1.587165947E1,-9.169500470E-1,1.513950109E0,7.873050213E0
1.589165970E1,-6.460500360E-1,2.122950077E0,7.828050137E0
1.591165946E1,-3.559500277E-1,2.640000105E0,7.843950272E0
1.593165947E1,-1.600500047E-1,3.121050119E0,7.702950478E0
1.595166125E1,-1.360500008E-1,3.610050201E0,7.609950542E0
1.597166279E1,-1.840500087E-1,3.799050093E0,7.626000404E0
1.599166470E1,-2.629500031E-1,3.709950209E0,8.070000648E0
1.601166842E1,-4.740000367E-1,3.520950079E0,8.553000450E0
1.603167025E1,-6.010500193E-1,3.471000195E0,8.841000557E0
1.605167242E1,-6.889500618E-1,3.720000267E0,8.893050194E0
1.607167450E1,-7.780500650E-1,3.913950205E0,8.551050186E0
1.609167696E1,-7.320000529E-1,3.985950232E0,8.496000290E0
1.611167951E1,-6.169500351E-1,3.945000172E0,8.944050789E0
1.613168221E1,-6.220500469E-1,3.919050217E0,9.520950317E0
1.615168382E1,-7.750500441E-1,4.495950222E0,9.648000717E0
1.617168713E1,-7.200000286E-1,4.836000443E0,9.325050354E0
1.619168966E1,-5.100000501E-1,4.692000389E0,8.752050400E0
1.621169182E1,-1.960500032E-1,4.407000065E0,8.476950645E0
1.623169398E1,3.900000155E-1,4.063050270E0,8.890950203E0
1.625169605E1,1.101000071E0,3.924000263E0,9.756000519E0
1.627169797E1,1.678050041E0,4.072050095E0,1.035900021E1
1.629170043E1,2.050050020E0,4.105950356E0,1.036395073E1
1.631170281E1,2.056950092E0,4.036050320E0,9.748050690E0
1.633170501E1,1.683000088E0,3.892050266E0,8.805000305E0
1.635170647E1,1.177950025E0,3.861000299E0,8.194050789E0
1.637170892E1,9.220500588E-1,3.913950205E0,7.843950272E0
1.639171168E1,9.960000515E-1,3.979050159E0,7.725000381E0
1.641171354E1,1.156050086E0,4.072050095E0,7.785000324E0
1.643171476E1,1.231050014E0,4.216050148E0,7.935000420E0
1.645171635E1,1.278000116E0,4.314000130E0,7.867950439E0
1.647171975E1,1.281000018E0,4.431000233E0,7.636050224E0
1.649172276E1,1.362000108E0,4.539000034E0,7.579050541E0
1.651172493E1,1.549050093E0,4.510050297E0,7.842000484E0
1.653172800E1,1.719000101E0,4.394999981E0,8.412000656E0
1.655173087E1,1.771950126E0,4.327950001E0,8.953050613E0
1.657173353E1,1.695000052E0,4.399950027E0,9.065999985E0
1.659173668E1,1.495950103E0,4.588950157E0,8.896050453E0
1.661173968E1,1.365000010E0,4.815000057E0,8.497950554E0
1.663174307E1,1.384050012E0,4.932000160E0,8.151000023E0
1.665174624E1,1.366950035E0,5.080050468E0,8.019000053E0
1.667174902E1,1.453050017E0,5.266950130E0,8.067000389E0
1.669175049E1,1.663950086E0,5.413050175E0,8.170050621E0
1.671175449E1,1.695000052E0,5.523000240E0,8.128950119E0
1.673175795E1,1.681050062E0,5.598000050E0,8.146050453E0
1.675176004E1,1.741050124E0,5.514000416E0,8.434050560E0
1.677176198E1,1.690050125E0,5.380050182E0,8.814000130E0
1.679176413E1,1.650000095E0,5.257950306E0,8.838000298E0
1.681176680E1,1.650000095E0,4.996950150E0,8.853000641E0
1.683176811E1,1.723950028E0,4.687950134E0,9.097050667E0
1.685176987E1,1.729050040E0,4.659000397E0,9.042000771E0
1.687177177E1,1.519950032E0,4.876950264E0,8.356950760E0
1.689177425E1,1.246950030E0,4.915050030E0,7.521000385E0
1.691177694E1,1.057950020E0,4.993950367E0,7.171050549E0
1.693177856E1,8.929500580E-1,5.158950329E0,7.167000294E0
1.695178000E1,6.730500460E-1,5.236050129E0,7.468050480E0
1.697178093E1,3.060000241E-1,5.706000328E0,7.392000198E0
1.699178218E1,2.629500031E-1,5.914050102E0,6.850050449E0
1.701178347E1,9.670500755E-1,4.930050373E0,7.453950405E0
1.703178560E1,1.722000122E0,3.967050076E0,9.862950325E0
1.705178736E1,1.980000138E0,3.361050129E0,1.230195045E1
1.707178951E1,1.486950040E0,2.767050028E0,1.328100109E1
1.709179174E1,4.039500058E-1,2.572950125E0,1.215495014E1
1.711179419E1,-2.170500159E-1,3.082950115E0,9.721950531E0
1.713179627E1,-3.640500307E-1,4.122000217E0,7.864050388E0
1.715179933E1,-2.220000178E-1,4.804950237E0,6.979950428E0
1.717180241E1,2.610000074E-1,4.843050003E0,7.297950268E0
1.719180581E1,4.189500213E-1,4.720950127E0,8.352000237E0
1.721181021E1,-5.505000427E-2,4.507950306E0,9.013050079E0
1.723181413E1,-7.369500399E-1,4.278000355E0,9.004050255E0
1.725181760E1,-1.233000040E0,4.266000271E0,8.644050598E0
1.727182186E1,-1.465050101E0,4.312050343E0,8.236949921E0
1.729182461E1,-1.290000081E0,4.132050037E0,8.014050484E0
1.731182683E1,-7.159500122E-1,4.009950161E0,9.226050377E0
1.733183014E1,-1.789500117E-1,3.969000101E0,1.144905090E1
1.735183384E1,1.890000105E-1,3.531000137E0,1.299600029E1
1.737183846E1,3.495000303E-2,2.884050131E0,1.292895031E1
1.739184255E1,-4.620000124E-1,2.398050070E0,1.151100063E1
1.741184595E1,-7.080000043E-1,2.410050154E0,1.020795059E1
1.743184874E1,-6.199500561E-1,2.881950140E0,9.564000130E0
1.745185183E1,-2.820000052E-1,3.445050240E0,9.098999977E0
1.747185615E1,1.099500060E-1,3.757950068E0,8.447999954E0
1.749186140E1,3.949500322E-1,3.973950148E0,7.849050522E0
1.751186561E1,4.999500215E-1,4.182000160E0,7.488000393E0
1.753187029E1,5.340000391E-1,4.288050175E0,7.653000355E0
1.755187491E1,5.070000291E-1,4.206000328E0,8.187000275E0
1.757188067E1,4.069500268E-1,3.955050230E0,8.745000839E0
1.759188525E1,3.469500244E-1,3.769950151E0,8.889000893E0
1.761188995E1,3.520500064E-1,3.828000069E0,8.749950409E0
1.763189356E1,4.039500058E-1,3.979050159E0,8.359050751E0
1.765189787E1,5.430000424E-1,3.964050293E0,8.266050339E0
1.767190133E1,6.030000448E-1,3.969000101E0,8.460000038E0
1.769190411E1,5.340000391E-1,4.153950214E0,8.497950554E0
1.771190716E1,4.810500145E-1,4.269000053E0,8.212950706E0
1.773191086E1,4.900500178E-1,4.242000103E0,8.151000023E0
1.775191455E1,4.810500145E-1,4.330950260E0,8.371050835E0
1.777191845E1,4.930500090E-1,4.458000183E0,8.467050552E0
1.779192191E1,3.660000265E-1,4.762050152E0,8.287950516E0
1.781192614E1,3.829500079E-1,4.987050056E0,8.010000229E0
1.783192993E1,8.110500574E-1,4.834050179E0,8.296950340E0
1.785193354E1,1.128000021E0,4.513050079E0,9.532950401E0
1.787193763E1,1.008000016E0,4.422000408E0,1.084095097E1
1.789194256E1,7.110000253E-1,4.423950195E0,1.161705017E1
1.791194743E1,4.690500200E-1,4.318950176E0,1.173405075E1
1.793195212E1,9.795000404E-2,3.976050138E0,1.126200008E1
1.795195698E1,-5.220000148E-1,3.445050240E0,1.080195045E1
1.797196159E1,-1.063050032E0,3.049050093E0,1.053195095E1
1.799196623E1,-1.480050087E0,2.848050117E0,1.041195011E1
1.801197245E1,-1.582950115E0,2.608950138E0,1.022505093E1
1.803197762E1,-1.525050044E0,2.398050070E0,9.813000679E0
1.805198192E1,-1.369050026E0,2.388000011E0,9.388950348E0
1.807198723E1,-1.060050011E0,2.641950130E0,9.049050331E0
1.809199146E1,-6.250500083E-1,2.968050241E0,8.521950722E0
1.811199615E1,-9.795000404E-2,3.289050102E0,8.247000694E0
1.813200107E1,6.630000472E-1,3.559950113E0,8.343000412E0
1.815200537E1,1.537050128E0,3.796950102E0,8.905050278E0
1.817201023E1,2.317950010E0,4.150950432E0,9.580950737E0
1.819201398E1,2.706000090E0,4.546050072E0,9.871050835E0
1.821201766E1,2.565000057E0,4.762050152E0,9.471000671E0
1.823202097E1,2.113950014E0,4.731000423E0,8.752050400E0
1.825202527E1,1.710000038E0,4.702050209E0,8.151000023E0
1.827203050E1,1.555950046E0,4.831050396E0,7.746000290E0
1.829203551E1,1.621050119E0,5.013000011E0,7.629000187E0
1.831204072E1,1.591950059E0,5.136000156E0,7.545000553E0
1.833204473E1,1.446000099E0,5.284050465E0,7.329000473E0
1.835204904E1,1.269000053E0,5.431950092E0,6.967950344E0
1.837205359E1,1.092000008E0,5.542950153E0,6.589050293E0
1.839205830E1,9.889500737E-1,5.683950424E0,6.289950371E0
1.841206162E1,9.499500394E-1,5.773050308E0,6.391050339E0
1.843206508E1,8.230500221E-1,5.739000320E0,7.321950436E0
1.845206994E1,5.719500184E-1,5.944950104E0,8.625000000E0
1.847207495E1,1.699500084E-1,6.277950287E0,8.896050453E0
1.849207917E1,-1.459500045E-1,6.583950520E0,8.280000687E0
1.851208349E1,-1.980000138E-1,6.781050205E0,7.546950340E0
1.853208851E1,-1.380000114E-1,6.865050316E0,7.555050373E0
1.855209221E1,-8.100000024E-2,6.778050423E0,8.122050285E0
1.857209682E1,-6.900000572E-2,6.601050377E0,8.719050407E0
1.859210075E1,-5.505000427E-2,6.405000210E0,8.869050026E0
1.861210453E1,6.900000572E-2,6.105000496E0,8.575050354E0
1.863210937E1,9.105000645E-2,6.390000343E0,8.278050423E0
1.865211460E1,2.050500065E-1,7.195050240E0,8.079000473E0
1.867211960E1,7.639500499E-1,7.012950420E0,8.515049934E0
1.869212412E1,1.087050080E0,6.759000301E0,9.612000465E0
1.871212811E1,1.032000065E0,6.532050133E0,1.026105022E1
1.873213371E1,9.859500527E-1,5.782050133E0,1.064400005E1
1.875213948E1,7.780500650E-1,4.867050171E0,1.076400089E1
1.877214378E1,4.710000157E-1,4.256999969E0,1.033305073E1
1.879214717E1,1.549500078E-1,4.075050354E0,9.562050819E0
1.881215064E1,2.295000106E-2,4.101000309E0,8.998950005E0
1.883215463E1,3.105000220E-2,4.180050373E0,8.680050850E0
1.885215956E1,1.095000096E-2,4.273050308E0,8.271000862E0
1.887216449E1,-1.120500043E-1,4.369050026E0,7.777050495E0
1.889216972E1,-2.869500220E-1,4.459950447E0,7.459050179E0
1.891217427E1,-4.110000134E-1,4.743000031E0,7.288950443E0
1.893217856E1,-5.070000291E-1,5.101950169E0,7.270050526E0
1.895218321E1,-6.870000362E-1,5.394000053E0,7.219050407E0
1.897218753E1,-9.100500345E-1,5.643000126E0,6.951000214E0
1.899219190E1,-1.180050015E0,5.706000328E0,6.609000206E0
1.901219653E1,-1.063050032E0,5.490000248E0,6.805050373E0
1.903220168E1,-5.910000205E-1,5.356050491E0,7.840050220E0
1.905220694E1,-2.530499995E-1,5.380050182E0,8.850000381E0
1.907221224E1,-1.189500093E-1,5.455950260E0,9.562050819E0
1.909221738E1,-4.210500121E-1,5.500050068E0,9.178050041E0
1.911222135E1,-8.400000334E-1,5.455950260E0,7.938000202E0
1.913222595E1,-1.033950090E0,5.629050255E0,7.198050499E0
1.915223003E1,-9.019500613E-1,5.920950413E0,6.955950260E0
1.917223548E1,-5.580000281E-1,6.058050156E0,7.300950527E0
1.919224039E1,-3.520500064E-1,5.943000317E0,7.705950260E0
1.921224470E1,-4.470000267E-1,5.844000340E0,7.549950123E0
1.923224938E1,-5.530500412E-1,5.991000175E0,6.930000305E0
1.925225430E1,-6.319500208E-1,6.145950317E0,6.361950397E0
1.927225861E1,-6.889500618E-1,6.301950455E0,6.216000080E0
1.929226290E1,-6.409500241E-1,6.421950340E0,6.412050247E0
1.931226782E1,-5.479500294E-1,6.537000179E0,6.988950253E0
1.933227181E1,-4.810500145E-1,6.592050076E0,7.219050407E0
1.935227673E1,-4.470000267E-1,6.517050266E0,7.056000233E0
1.937228097E1,-4.570500255E-1,6.501000404E0,7.056000233E0
1.939228526E1,-4.450500309E-1,6.643950462E0,7.258050442E0
1.941229018E1,-4.450500309E-1,6.874050140E0,7.369950294E0
1.943229450E1,-3.640500307E-1,7.044000149E0,7.270050526E0
1.945229942E1,-2.149500102E-1,7.222050190E0,7.261950493E0
1.947230435E1,-7.905000448E-2,7.341000557E0,7.492050171E0
1.949230959E1,-8.595000207E-2,7.392000198E0,7.918950558E0
1.951231459E1,-2.800500095E-1,7.629000187E0,7.855950356E0
1.953231913E1,-7.395000011E-2,7.534950256E0,7.698000431E0
1.955232374E1,4.429500103E-1,7.441950321E0,8.242050171E0
1.957232775E1,1.108050108E0,7.483050346E0,9.114000320E0
1.959233234E1,1.345950007E0,7.243050575E0,9.358050346E0
1.961233667E1,1.087050080E0,6.478950500E0,9.126000404E0
1.963234012E1,6.439500451E-1,5.899950504E0,9.127950668E0
1.965234443E1,4.020000100E-1,5.779950142E0,8.857950211E0
1.967234865E1,3.079500198E-1,5.923050404E0,8.223000526E0
1.969235301E1,4.090500176E-1,6.082050323E0,7.810950279E0
1.971235671E1,5.310000181E-1,6.070050240E0,7.636050224E0
1.973236033E1,4.999500215E-1,5.863950253E0,7.525950432E0
1.975236402E1,3.709500134E-1,5.581050396E0,7.618950367E0
1.977236718E1,2.939999998E-1,5.370000362E0,7.825050354E0
1.979237079E1,3.370500207E-1,5.421000481E0,7.819950581E0
1.981237448E1,3.760500252E-1,5.863950253E0,7.452000141E0
1.983237854E1,3.640500307E-1,6.334950447E0,6.841050148E0
1.985238253E1,4.380000234E-1,6.619950294E0,6.142050266E0
1.987238562E1,7.399500608E-1,6.646950245E0,5.928000450E0
1.989238891E1,1.258950114E0,6.472050190E0,6.946050167E0
1.991239228E1,1.543950081E0,6.325950146E0,8.260950089E0
1.993239634E1,1.570950031E0,6.160950184E0,9.049050331E0
1.995240094E1,1.389000058E0,5.991000175E0,8.778000832E0
1.997240587E1,1.096050024E0,6.046050072E0,7.492050171E0
1.999241172E1,8.520000577E-1,6.288000107E0,6.412050247E0
2.001241604E1,7.110000253E-1,6.589050293E0,5.971950054E0
2.003242006E1,7.590000629E-1,6.823950291E0,5.746050358E0
2.005242345E1,8.899500370E-1,7.018050194E0,5.706000328E0
2.007242709E1,8.209500313E-1,7.128000259E0,5.727000237E0
2.009242992E1,6.730500460E-1,7.119000435E0,5.622000217E0
2.011243359E1,5.410500169E-1,7.099050522E0,5.626950264E0
2.013243812E1,4.279500246E-1,7.156950474E0,5.854050159E0
2.015244181E1,3.799500167E-1,7.147050381E0,6.220950127E0
2.017244621E1,4.350000322E-1,7.186050415E0,6.633000374E0
2.019245051E1,4.350000322E-1,7.186050415E0,6.814950466E0
2.021245474E1,4.279500246E-1,7.138050556E0,7.107000351E0
2.023245782E1,3.180000186E-1,7.417950153E0,7.512000561E0
2.025246028E1,2.700000107E-1,7.774950504E0,7.585950375E0
2.027246370E1,3.160500228E-1,7.938000202E0,7.312950134E0
2.029246708E1,3.300000131E-1,7.890000343E0,7.048950195E0
2.031247200E1,1.579500139E-1,7.819950581E0,6.988950253E0
2.033247691E1,-3.559500277E-1,8.356950760E0,6.826950550E0
2.035248098E1,-5.239500403E-1,8.424000740E0,6.177000523E0
2.037248580E1,-1.290000081E-1,7.816050529E0,6.513000488E0
2.039249133E1,2.959500253E-1,7.498950481E0,7.537950516E0
2.041249635E1,6.559500098E-1,7.020000458E0,8.323050499E0
2.043250099E1,9.580500722E-1,6.610950470E0,8.970000267E0
2.045250437E1,9.910500646E-1,6.334950447E0,9.487050056E0
2.047250714E1,7.830000520E-1,5.908950329E0,9.592950821E0
2.049251146E1,3.079500198E-1,5.521050453E0,9.004050255E0
2.051251632E1,-1.699500084E-1,5.179050446E0,8.280000687E0
2.053252009E1,-5.119500160E-1,4.956000328E0,7.933050156E0
2.055252371E1,-7.680000067E-1,4.896000385E0,7.746000290E0
2.057252748E1,-9.910500646E-1,5.032950401E0,7.485000134E0
2.059253141E1,-1.165950060E0,5.236050129E0,7.147050381E0
2.061253486E1,-1.225950003E0,5.362950325E0,6.949050426E0
2.063253823E1,-1.183050036E0,5.557050228E0,6.927000523E0
2.065254216E1,-9.739500284E-1,5.689050198E0,6.907950401E0
2.067254656E1,-4.810500145E-1,5.641050339E0,7.798950195E0
2.069255088E1,-1.069500074E-1,5.638050079E0,9.010950089E0
2.071255449E1,-1.309500039E-1,5.485050201E0,9.604950905E0
2.073255951E1,-4.780500233E-1,5.167050362E0,9.163949966E0
2.075256442E1,-7.350000143E-1,5.289000034E0,8.350049973E0
2.077256904E1,-6.289500594E-1,5.764950275E0,7.678950310E0
2.079257336E1,-3.319500089E-1,6.115050316E0,7.365000248E0
2.081257849E1,-4.695000127E-2,6.169950485E0,7.413000584E0
2.083258186E1,1.240500063E-1,6.025950432E0,7.744050503E0
2.085258495E1,1.069500074E-1,5.823000431E0,7.978950500E0
2.087258903E1,1.950000064E-3,5.698050499E0,7.983000278E0
2.089259456E1,1.950000064E-3,5.686050415E0,7.921050549E0
2.091260094E1,4.995000362E-2,5.755950451E0,7.918950558E0
2.093260626E1,1.650000066E-1,5.866050243E0,7.834950447E0
2.095261119E1,1.360500008E-1,6.079050064E0,7.591050148E0
2.097261665E1,9.300000221E-2,6.261000156E0,7.231050491E0
2.099262188E1,2.730000019E-1,6.168000221E0,7.258050442E0
2.101262655E1,4.159500301E-1,6.232050419E0,7.579050541E0
2.103263088E1,3.469500244E-1,6.486000538E0,7.603050232E0
2.105263603E1,1.740000099E-1,6.634950161E0,7.425000191E0
2.107264094E1,1.240500063E-1,6.739950180E0,7.356000423E0
2.109264556E1,2.820000052E-1,6.817050457E0,7.534950256E0
2.111265108E1,3.199500144E-1,7.123050213E0,8.050050735E0
2.113265662E1,1.290000081E-1,7.449000359E0,7.926000595E0
2.115265970E1,3.370500207E-1,7.177950382E0,7.882950306E0
2.117266432E1,6.030000448E-1,7.071000099E0,8.842950821E0
2.119266780E1,8.350500464E-1,6.774000168E0,9.817950249E0
2.121267243E1,1.116000056E0,6.168000221E0,1.052400017E1
2.123267603E1,1.258950114E0,5.650050163E0,1.094595051E1
2.125267982E1,1.269000053E0,5.353050232E0,1.098900032E1
2.127268252E1,1.240050077E0,5.281950474E0,1.051695061E1
2.129268652E1,1.317000031E0,5.245950222E0,9.856050491E0
2.131269088E1,1.585050106E0,5.065950394E0,9.310050011E0
2.133269457E1,1.795950055E0,4.915050030E0,8.956050873E0
2.135269887E1,1.651950121E0,4.969950199E0,8.428950310E0
2.137270379E1,1.354950070E0,5.197950363E0,7.678950310E0
2.139270835E1,9.979500771E-1,5.554950237E0,6.874050140E0
2.141271172E1,7.489500642E-1,5.980950356E0,6.196950436E0
2.143271449E1,6.840000153E-1,6.201000214E0,5.959950447E0
2.145271672E1,7.420500517E-1,5.964000225E0,6.397950172E0
2.147272073E1,8.689500690E-1,5.437050343E0,7.492050171E0
2.149272504E1,8.449500203E-1,5.193000317E0,8.295000076E0
2.151272902E1,6.270000339E-1,5.418000221E0,8.295000076E0
2.153273231E1,5.700000525E-1,5.884950161E0,7.420950413E0
2.155273578E1,8.899500370E-1,6.136950493E0,6.834000111E0
2.157273999E1,1.171050072E0,6.228000164E0,6.750000477E0
2.159274460E1,1.219050050E0,6.301950455E0,6.775950432E0
2.161274930E1,9.529500604E-1,6.466950417E0,6.445950508E0
2.163275330E1,5.820000172E-1,6.691950321E0,5.691000462E0
2.165275723E1,4.639500082E-1,7.024950504E0,5.049000263E0
2.167276032E1,5.959500074E-1,7.474950314E0,4.834050179E0
2.169276316E1,8.310000300E-1,7.710000515E0,4.954050064E0
2.171276656E1,9.360000491E-1,7.828050137E0,5.404050350E0
2.173277018E1,8.710500598E-1,7.867950439E0,5.964000225E0
2.175277449E1,7.800000310E-1,7.794000149E0,6.370950222E0
2.177277850E1,7.920000553E-1,7.678950310E0,6.549000263E0
2.179278342E1,7.800000310E-1,7.701000214E0,6.586950302E0
2.181278864E1,6.490500569E-1,7.746000290E0,6.502950191E0
2.183279241E1,5.220000148E-1,7.923000336E0,6.477000237E0
2.185279704E1,5.410500169E-1,8.059950829E0,6.493950367E0
2.187280066E1,6.270000339E-1,8.140950203E0,6.748050213E0
2.189280381E1,5.239500403E-1,8.484000206E0,6.867000103E0
2.191280712E1,6.409500241E-1,8.347050667E0,6.757050514E0
2.193281112E1,8.950500488E-1,7.962000370E0,6.937050343E0
2.195281388E1,1.186950088E0,7.558950424E0,7.464000225E0
2.197281735E1,1.513050079E0,7.111050129E0,8.282999992E0
2.199282103E1,1.627950072E0,6.750000477E0,9.138000488E0
2.201282380E1,1.506000042E0,6.345000267E0,9.226050377E0
2.203282710E1,1.330950022E0,6.153000355E0,8.641950607E0
2.205282902E1,1.057950020E0,6.508050442E0,7.552050591E0
2.207283179E1,9.169500470E-1,6.562950134E0,6.918000221E0
2.209283511E1,5.929500461E-1,6.273000240E0,6.913050175E0
2.211283790E1,2.595000155E-2,6.208050251E0,6.934050560E0
2.213284104E1,-3.640500307E-1,6.211050510E0,6.997050285E0
2.215284465E1,-5.119500160E-1,6.205950260E0,7.162050247E0
2.217284842E1,-6.199500561E-1,6.424050331E0,7.120950222E0
2.219285211E1,-6.940500140E-1,6.727950096E0,6.750000477E0
2.221285634E1,-5.790000558E-1,6.711000443E0,6.496050358E0
2.223286072E1,-4.995000362E-2,6.568050385E0,7.447050571E0
2.225286287E1,5.910000205E-1,6.558000088E0,8.853000641E0
2.227286558E1,9.810000658E-1,6.448050499E0,9.720000267E0
2.229286934E1,9.460500479E-1,6.259050369E0,9.736050606E0
2.231287336E1,4.470000267E-1,6.112950325E0,8.778000832E0
2.233287756E1,0.000000000E0,6.139050484E0,7.681950569E0
2.235288124E1,-7.605000585E-2,6.261000156E0,6.970050335E0
2.237288618E1,-4.995000362E-2,6.301950455E0,6.433950424E0
2.239288987E1,2.295000106E-2,6.309000492E0,6.157950401E0
2.241289426E1,2.340000123E-1,6.237000465E0,6.292050362E0
2.243289919E1,3.420000076E-1,6.117000103E0,6.537000179E0
2.245290413E1,2.869500220E-1,6.034050465E0,6.618000507E0
2.247290775E1,2.530499995E-1,5.955000401E0,6.727950096E0
2.249291112E1,3.199500144E-1,6.001950264E0,6.829050541E0
2.251291490E1,5.479500294E-1,6.247050285E0,6.793050289E0
2.253291859E1,8.929500580E-1,6.436050415E0,6.811950207E0
2.255292223E1,1.024950027E0,6.631950378E0,6.931950092E0
2.257292724E1,7.560000420E-1,7.063050270E0,6.606000423E0
2.259293239E1,4.470000267E-1,7.264950275E0,6.063000202E0
2.261293700E1,4.309500158E-1,7.099050522E0,6.094050407E0
2.263294136E1,3.349500299E-1,7.068000317E0,6.748050213E0
2.265294661E1,-1.429500133E-1,7.665000439E0,7.234050274E0
2.267295278E1,-7.605000585E-2,7.689000130E0,7.236000538E0
2.269295861E1,2.250000089E-1,7.264950275E0,7.738950253E0
2.271296475E1,4.279500246E-1,7.198050499E0,8.764050484E0
2.273297029E1,4.470000267E-1,7.243050575E0,9.756000519E0
2.275297548E1,1.050000042E-1,7.264950275E0,9.990000725E0
2.277298162E1,-7.605000585E-2,6.972000122E0,9.780000687E0
2.279298738E1,5.700000376E-2,6.550950527E0,9.985950470E0
2.281299207E1,2.805000171E-2,6.160950184E0,1.038105011E1
2.283299667E1,-1.170000061E-1,5.563950062E0,1.071795082E1
2.285300121E1,-1.669500023E-1,4.827000141E0,1.082595062E1
2.287300642E1,-1.170000061E-1,4.209000111E0,1.031400013E1
2.289301110E1,-4.695000127E-2,4.157999992E0,9.291000366E0
2.291301540E1,1.600500047E-1,4.645050049E0,8.254050255E0
2.293302032E1,4.930500090E-1,5.035050392E0,7.558950424E0
2.295302493E1,8.620500565E-1,5.205000401E0,7.060950279E0
2.297302915E1,1.234950066E0,5.092050076E0,6.939000130E0
2.299303322E1,1.309950113E0,4.791000366E0,7.126050472E0
2.301303715E1,1.093950033E0,4.678050041E0,7.183050156E0
2.303304185E1,9.430500269E-1,4.755000114E0,6.655950546E0
2.305304607E1,9.049500227E-1,4.953000069E0,5.935950279E0
2.307304863E1,8.449500203E-1,5.365050316E0,5.215050220E0
2.309305195E1,7.900500298E-1,5.836950302E0,4.636950016E0
2.311305479E1,8.400000334E-1,6.297000408E0,4.180050373E0
2.313305841E1,9.289500713E-1,6.793050289E0,3.981000185E0
2.315306181E1,9.720000625E-1,7.219050407E0,4.157999992E0
2.317306436E1,9.100500345E-1,7.474950314E0,4.426949978E0
2.319306652E1,8.310000300E-1,7.399050236E0,4.882050037E0
2.321306981E1,6.889500618E-1,7.164000511E0,5.694000244E0
2.323307260E1,5.839500427E-1,7.075050354E0,6.300000191E0
2.325307537E1,5.340000391E-1,7.261950493E0,6.736050129E0
2.327307875E1,7.710000277E-1,7.200000286E0,7.075950146E0
2.329308193E1,1.039050102E0,6.955950260E0,7.617000580E0
2.331308378E1,1.009950042E0,6.742950439E0,8.379000664E0
2.333308649E1,6.820500493E-1,6.625050545E0,9.058950424E0
2.335308932E1,3.490500152E-1,6.379050255E0,9.463050842E0
2.337309200E1,1.170000061E-1,5.932950497E0,9.664950371E0
2.339309484E1,-1.360500008E-1,5.569050312E0,9.844050407E0
2.341309697E1,-5.410500169E-1,5.622000217E0,1.012005043E1
2.343309853E1,-8.110500574E-1,6.486000538E0,9.772050858E0
2.345310068E1,-2.580000162E-1,6.529050350E0,9.475050926E0
2.347310405E1,3.160500228E-1,5.710050106E0,1.033500004E1
2.349310678E1,3.780000210E-1,5.158950329E0,1.139400101E1
2.351310981E1,2.730000019E-1,4.539000034E0,1.197300053E1
2.353311291E1,9.300000221E-2,3.664950132E0,1.232100105E1
2.355311597E1,-3.919500113E-1,3.049050093E0,1.213605022E1
2.357311881E1,-1.036949992E0,2.889000177E0,1.089600086E1
2.359312190E1,-1.542000055E0,3.223950148E0,9.234000206E0
2.361312560E1,-1.872000098E0,3.909000158E0,8.035950661E0
2.363312866E1,-2.109000206E0,4.339950085E0,7.471050262E0
2.365313226E1,-2.293950081E0,4.222949982E0,7.606950283E0
2.367313543E1,-2.478000164E0,3.861000299E0,8.374050140E0
2.369313906E1,-2.598000050E0,3.418050051E0,9.046950340E0
2.371314368E1,-2.650950193E0,2.761950016E0,9.634050369E0
2.373314739E1,-2.574000120E0,2.254050016E0,1.038105011E1
2.375315169E1,-2.257950068E0,1.948050141E0,1.091700077E1
2.377315571E1,-1.741050124E0,1.818000078E0,1.090305042E1
2.379316003E1,-1.123050094E0,2.191950083E0,1.010100079E1
2.381316436E1,-5.380499959E-1,2.812050104E0,9.190050125E0
2.383316872E1,-1.905000024E-2,3.307950258E0,8.685000420E0
2.385317333E1,3.880500197E-1,3.627000093E0,8.224950790E0
2.387317703E1,6.750000119E-1,3.909000158E0,7.951950550E0
2.389318158E1,9.169500470E-1,4.120050430E0,7.923000336E0
2.391318590E1,1.129950047E0,4.258950233E0,7.935000420E0
2.393319143E1,1.384050012E0,4.530000210E0,7.914000511E0
2.395319552E1,1.719000101E0,4.896000385E0,7.900050163E0
2.397319976E1,1.951050043E0,5.310000420E0,7.987950325E0
2.399320382E1,2.023050070E0,5.647950172E0,7.963950157E0
2.401320714E1,2.056950092E0,5.800950050E0,7.903950214E0
2.403321114E1,2.056950092E0,5.755950451E0,7.951950550E0
2.405321483E1,1.960950136E0,5.607000351E0,8.128950119E0
2.407321790E1,1.734000087E0,5.626050472E0,8.119950294E0
2.409322218E1,1.402950048E0,5.799000263E0,7.636050224E0
2.411322625E1,1.132050037E0,5.892000198E0,7.054050446E0
2.413323085E1,1.055999994E0,5.800950050E0,6.748050213E0
2.415323422E1,1.057950020E0,5.701050282E0,7.021050453E0
2.417323815E1,6.840000153E-1,6.271050453E0,7.428000450E0
2.419324216E1,5.770500302E-1,6.798000336E0,7.318050385E0
2.421324585E1,1.140000105E0,6.379050255E0,7.677000523E0
2.423324960E1,1.615950108E0,5.896950245E0,9.030000687E0
2.425325266E1,1.638000131E0,5.416050434E0,1.055805016E1
2.427325604E1,1.132050037E0,4.609050274E0,1.157100010E1
2.429325974E1,3.520500064E-1,3.793950081E0,1.178895092E1
2.431326342E1,-5.895000324E-2,3.375000238E0,1.140300083E1
2.433326734E1,5.895000324E-2,3.436950207E0,1.060605049E1
2.435327111E1,6.130500436E-1,3.720000267E0,1.003605080E1
2.437327503E1,1.096050024E0,4.017000198E0,9.768000603E0
2.439327943E1,1.210950017E0,4.300050259E0,9.376950264E0
2.441328368E1,1.413000107E0,4.594050407E0,8.589000702E0
2.443328831E1,1.669050097E0,5.001000404E0,7.834950447E0
2.445329231E1,1.792950034E0,5.083050251E0,7.404000282E0
2.447329631E1,1.777050138E0,4.752000332E0,7.452000141E0
2.449330131E1,1.518000126E0,4.371000290E0,7.807950497E0
2.451330467E1,1.068000078E0,4.186950207E0,8.047950745E0
2.453330857E1,7.369500399E-1,4.108050346E0,7.528050423E0
2.455331320E1,6.799500585E-1,4.180050373E0,6.769050121E0
2.457331782E1,6.630000472E-1,4.503000259E0,6.448050499E0
2.459332129E1,5.670000315E-1,4.804950237E0,6.445950508E0
2.461332560E1,5.220000148E-1,4.944000244E0,6.490950108E0
2.463333108E1,4.549500346E-1,5.040000439E0,6.502950191E0
2.465333608E1,4.399500191E-1,5.164050102E0,6.664050102E0
2.467334195E1,5.929500461E-1,5.212050438E0,7.039950371E0
2.469334720E1,6.270000339E-1,5.253000259E0,7.669950485E0
2.471335304E1,6.049500108E-1,5.317950249E0,8.179950714E0
2.473335882E1,7.200000286E-1,5.385000229E0,8.470050812E0
2.475336497E1,9.480000734E-1,5.449050426E0,8.833950043E0
2.477336991E1,1.297950029E0,5.385000229E0,9.343950272E0
2.479337491E1,1.575000048E0,5.242950439E0,9.957000732E0
2.481337921E1,1.566000104E0,5.322000027E0,1.038300037E1
2.483338448E1,1.372050047E0,5.566950321E0,1.002600002E1
2.485339054E1,1.209000111E0,5.655000210E0,9.339000702E0
2.487339609E1,1.165950060E0,5.526000500E0,9.207000732E0
2.489340102E1,1.269000053E0,5.215050220E0,9.697950363E0
2.491340479E1,1.137000084E0,4.933950424E0,1.008405018E1
2.493340931E1,4.429500103E-1,5.539950371E0,9.676950455E0
2.495341269E1,3.010500073E-1,5.812950134E0,8.563050270E0
2.497341423E1,8.809500337E-1,5.004000187E0,8.986950874E0
2.499341736E1,1.123050094E0,4.458000183E0,1.015800095E1
2.501342034E1,9.550500512E-1,3.742050171E0,1.094805050E1
2.503342403E1,3.180000186E-1,3.009000063E0,1.116600037E1
2.505342771E1,-2.959500253E-1,2.626050234E0,1.086000061E1
2.507343178E1,-5.380499959E-1,2.764050245E0,9.919050217E0
2.509343754E1,-3.709500134E-1,3.349050045E0,8.830950737E0
2.511344185E1,8.295000345E-2,3.793950081E0,8.493000031E0
2.513344614E1,3.679500222E-1,3.924000263E0,8.778000832E0
2.515344923E1,1.549500078E-1,3.579000235E0,9.087000847E0
2.517345241E1,-2.530499995E-1,3.169050217E0,9.157050133E0
2.519345632E1,-4.740000367E-1,3.229050159E0,9.090000153E0
2.521345887E1,-4.570500255E-1,3.483000278E0,9.018000603E0
2.523346185E1,-1.600500047E-1,3.604950190E0,9.016050339E0
2.525346339E1,4.350000322E-1,3.709950209E0,9.339000702E0
2.527346585E1,9.769500494E-1,3.820950270E0,9.832050323E0
2.529346870E1,1.207050085E0,3.895050287E0,9.976050377E0
2.531347078E1,1.161000013E0,3.909000158E0,9.480000496E0
2.533347201E1,9.169500470E-1,3.793950081E0,8.806950569E0
2.535347300E1,7.660500407E-1,3.672000170E0,8.665950775E0
2.537347485E1,8.040000200E-1,3.648000240E0,8.721000671E0
2.539347700E1,8.550000191E-1,3.733950138E0,8.544000626E0
2.541347915E1,8.449500203E-1,3.973950148E0,8.034000397E0
2.543348186E1,7.420500517E-1,4.318950176E0,7.569000244E0
2.545348464E1,6.820500493E-1,4.671000004E0,7.240950108E0
2.547348830E1,6.199500561E-1,4.774050236E0,7.333950520E0
2.549349077E1,4.710000157E-1,4.435950279E0,7.816050529E0
2.551349386E1,2.029500157E-1,4.027050018E0,8.395050049E0
2.553349663E1,-1.380000114E-1,3.766050100E0,8.677950859E0
2.555349971E1,-5.580000281E-1,3.718050241E0,8.476950645E0
2.557350318E1,-8.500500321E-1,4.066950321E0,7.777050495E0
2.559350711E1,-9.840000272E-1,4.591950417E0,7.276950359E0
2.561350992E1,-7.470000386E-1,4.972950459E0,7.321950436E0
2.563351238E1,-3.300000131E-1,5.233950138E0,7.765050411E0
2.565351507E1,-1.170000061E-1,5.389050484E0,8.103000641E0
2.567351948E1,-1.950000064E-3,5.356050491E0,8.208000183E0
2.569352279E1,1.819500029E-1,5.409000397E0,8.461950302E0
2.571352650E1,3.610500097E-1,5.655000210E0,8.656050682E0
2.573352928E1,6.700500250E-1,5.943000317E0,8.661000252E0
2.575353265E1,1.003050089E0,6.091050148E0,8.789999962E0
2.577353613E1,1.152000070E0,5.895000458E0,9.063000679E0
2.579353920E1,8.950500488E-1,5.571000099E0,9.382050514E0
2.581354251E1,1.960500032E-1,5.911050320E0,9.246000290E0
2.583354472E1,8.100000024E-2,6.109950066E0,8.854949951E0
2.585354687E1,7.009500265E-1,5.574000359E0,9.205050468E0
2.587355026E1,1.116000056E0,4.900950432E0,1.024695015E1
2.589355394E1,1.237950087E0,4.269000053E0,1.176000023E1
2.591355694E1,1.017000079E0,3.724950075E0,1.272495079E1
2.593356006E1,6.510000229E-1,3.283950090E0,1.243800068E1
2.595356414E1,3.349500299E-1,3.090000153E0,1.092900085E1
2.597356754E1,-1.095000096E-2,3.342000246E0,9.412950516E0
2.599357054E1,-1.600500047E-1,3.592950106E0,8.671050072E0
2.601357423E1,-2.220000178E-1,3.622050285E0,8.284950256E0
2.603357799E1,-2.629500031E-1,3.544950247E0,8.158050537E0
2.605358075E1,-2.170500159E-1,3.378000259E0,8.520000458E0
2.607358292E1,-3.130500019E-1,3.246000051E0,8.824049950E0
2.609358537E1,-4.830000103E-1,3.172050238E0,8.685000420E0
2.611358901E1,-4.830000103E-1,2.992050171E0,8.452950478E0
2.613359239E1,-3.850500286E-1,2.736000061E0,8.773950577E0
2.615359494E1,-1.890000105E-1,2.640000105E0,9.607050896E0
2.617359826E1,-1.395000052E-2,2.721000195E0,1.018695068E1
2.619360072E1,-1.480500102E-1,2.913000107E0,9.849000931E0
2.621360318E1,-3.280500174E-1,3.238950253E0,8.673000336E0
2.623360504E1,-3.010500073E-1,3.624000072E0,7.858950138E0
2.625360694E1,-1.020000055E-1,4.048050404E0,7.773000240E0
2.627360904E1,1.000500023E-1,4.338000298E0,8.146050453E0
2.629361178E1,2.490000129E-1,4.249050140E0,8.635050774E0
2.631361524E1,2.460000068E-1,4.036050320E0,8.998950005E0
2.633361922E1,1.360500008E-1,4.042950153E0,9.181050301E0
2.635362260E1,1.069500074E-1,4.102950096E0,9.123000145E0
2.637362598E1,1.740000099E-1,4.114950180E0,9.166050911E0
2.639362990E1,1.620000005E-1,3.921000242E0,9.439949989E0
2.641363337E1,-6.405000389E-2,3.631050110E0,9.660000801E0
2.643363607E1,-3.730500042E-1,3.600000143E0,9.407999992E0
2.645363913E1,-4.879500270E-1,3.817950249E0,8.950950623E0
2.647364344E1,-4.189500213E-1,4.066950321E0,8.731050491E0
2.649364657E1,-3.900000155E-1,4.132050037E0,8.628000259E0
2.651365082E1,-5.140500069E-1,4.048050404E0,8.698950768E0
2.653365453E1,-7.129500508E-1,3.844950199E0,8.962950706E0
2.655365790E1,-1.017000079E0,3.718050241E0,9.082950592E0
2.657366252E1,-1.264050007E0,3.937950134E0,8.788050652E0
2.659366688E1,-1.080000043E0,4.029000282E0,8.446050644E0
2.661367113E1,-6.390000582E-1,3.873000145E0,8.905050278E0
2.663367456E1,-3.109500110E-1,3.742050171E0,9.616950035E0
2.665367920E1,-1.429500133E-1,3.672000170E0,1.000200081E1
2.667368314E1,1.950000064E-3,3.744000196E0,1.017195034E1
2.669368714E1,1.669500023E-1,3.801000118E0,1.011300087E1
2.671368998E1,2.629500031E-1,3.808950186E0,1.005495071E1
2.673369326E1,9.300000221E-2,3.801000118E0,9.844050407E0
2.675369634E1,-1.720500141E-1,3.859050274E0,9.384000778E0
2.677370036E1,-3.780000210E-1,3.940050125E0,8.866950035E0
2.679370380E1,-4.950000346E-1,4.066950321E0,8.407050133E0
2.681370626E1,-5.620500445E-1,4.318950176E0,8.043000221E0
2.683370956E1,-5.430000424E-1,4.666050434E0,7.903950214E0
2.685371199E1,-4.020000100E-1,4.888950348E0,8.067000389E0
2.687371539E1,-1.099500060E-1,4.867050171E0,8.340000153E0
2.689371823E1,1.170000061E-1,4.683000088E0,8.733000755E0
2.691372040E1,1.459500045E-1,4.515000343E0,9.178050041E0
2.693372280E1,8.295000345E-2,4.399950027E0,9.559050560E0
2.695372380E1,-1.095000096E-2,4.642050266E0,9.679050446E0
2.697372617E1,-5.205000192E-2,5.013000011E0,9.061050415E0
2.699372900E1,-1.605000161E-2,5.253000259E0,8.557950020E0
2.701373293E1,-1.605000161E-2,5.293950081E0,8.756999969E0
2.703373671E1,-1.980000138E-1,5.064000130E0,9.085050583E0
2.705374195E1,-3.799500167E-1,4.834050179E0,9.147000313E0
2.707374595E1,-4.210500121E-1,4.815000057E0,8.944050789E0
2.709374871E1,-3.250500262E-1,4.848000050E0,8.733000755E0
2.711375179E1,-3.010500073E-1,4.840950012E0,8.557950020E0
2.713375389E1,-3.730500042E-1,4.815000057E0,8.319000244E0
2.715375758E1,-3.970500231E-1,4.827000141E0,8.140950203E0
2.717376158E1,-3.180000186E-1,4.822050095E0,8.203949928E0
2.719376494E1,-2.269500047E-1,4.798050404E0,8.287950516E0
2.721376710E1,-1.960500032E-1,4.756950378E0,8.278050423E0
2.723377056E1,-2.410500050E-1,4.707000256E0,8.199000359E0
2.725377262E1,-2.560500205E-1,4.720950127E0,8.122050285E0
2.727377415E1,-1.789500117E-1,4.774050236E0,8.101050377E0
2.729377547E1,-9.000000358E-2,4.831050396E0,8.239950180E0
2.731377702E1,-6.195000187E-2,4.873950005E0,8.410050392E0
2.733377793E1,-1.260000020E-1,4.848000050E0,8.392950058E0
2.735377916E1,-2.770500183E-1,4.896000385E0,8.155950546E0
2.737378070E1,-5.809500217E-1,5.209950447E0,7.756050587E0
2.739378316E1,-7.969500422E-1,5.485050201E0,7.231050491E0
2.741378532E1,-5.980500579E-1,5.188050270E0,7.272000313E0
2.743378839E1,-3.109500110E-1,4.426949978E0,8.407050133E0
2.745379168E1,-2.580000162E-1,3.780000210E0,9.850950241E0
2.747379330E1,-3.610500097E-1,3.310050249E0,1.102695084E1
2.749379660E1,-6.370500326E-1,2.938950062E0,1.143000031E1
2.751380063E1,-9.310500622E-1,2.779050112E0,1.078995037E1
2.753380410E1,-1.008000016E0,3.064050198E0,9.571050644E0
2.755380718E1,-9.070500135E-1,3.544950247E0,9.065999985E0
2.757381020E1,-7.969500422E-1,3.844950199E0,9.058950424E0
2.759381330E1,-7.900500298E-1,3.853950262E0,9.154950142E0
2.761381675E1,-8.980500698E-1,3.700950146E0,9.348000526E0
2.763382067E1,-8.449500203E-1,3.334050179E0,9.571050644E0
2.765382376E1,-4.830000103E-1,2.908050060E0,1.034700012E1
2.767382628E1,-1.950000064E-3,2.773950100E0,1.146105099E1
2.769382968E1,3.640500307E-1,2.605950117E0,1.192095089E1
2.771383332E1,5.290500522E-1,2.215950012E0,1.159500027E1
2.773383638E1,5.620500445E-1,2.158050060E0,1.079700089E1
2.775383894E1,6.510000229E-1,2.551050186E0,1.003305054E1
2.777384132E1,7.900500298E-1,2.926950216E0,9.598050117E0
2.779384471E1,9.649500251E-1,3.243000269E0,9.154950142E0
2.781384696E1,1.081950068E0,3.651000261E0,8.398050308E0
2.783385001E1,1.093950033E0,4.129950047E0,7.591050148E0
2.785385338E1,1.081950068E0,4.494000435E0,7.012950420E0
2.787385735E1,9.930000305E-1,4.795050144E0,6.754950523E0
2.789386066E1,9.840000272E-1,4.981950283E0,6.790950298E0
2.791386351E1,9.220500588E-1,5.035050392E0,7.108950138E0
2.793386652E1,7.420500517E-1,4.915050030E0,7.570950508E0
2.795386992E1,6.130500436E-1,4.627950191E0,7.983000278E0
2.797387401E1,5.020500422E-1,4.482000351E0,8.259000778E0
2.799387864E1,4.210500121E-1,4.537050247E0,8.272950172E0
2.801388170E1,5.140500069E-1,4.567950249E0,8.232000351E0
2.803388599E1,5.119500160E-1,4.539000034E0,8.404950142E0
2.805389085E1,4.330500066E-1,4.414950371E0,8.734950066E0
2.807389553E1,4.930500090E-1,4.157999992E0,9.037050247E0
2.809390162E1,4.140000343E-1,4.039050102E0,9.340950012E0
2.811390661E1,3.640500307E-1,4.197000027E0,9.475050926E0
2.813391154E1,5.860500336E-1,4.294950008E0,9.595050812E0
2.815391609E1,7.800000310E-1,4.245000362E0,9.732000351E0
2.817392079E1,7.900500298E-1,4.189050198E0,9.976050377E0
2.819392604E1,7.590000629E-1,4.258950233E0,1.009605026E1
2.821393096E1,7.279500365E-1,4.141950130E0,9.957000732E0
2.823393550E1,8.950500488E-1,3.967050076E0,9.907050133E0
2.825394073E1,1.096050024E0,3.912000179E0,1.006200027E1
2.827394564E1,1.174950004E0,3.816000223E0,1.019400024E1
2.829395060E1,1.207050085E0,3.684000254E0,1.017705059E1
2.831395554E1,1.245000005E0,3.660000086E0,9.865950584E0
2.833396076E1,1.149000049E0,3.732000113E0,9.271950722E0
2.835396590E1,1.027050018E0,3.792000294E0,8.592000008E0
2.837397120E1,9.619500637E-1,3.811050177E0,8.017050743E0
2.839397612E1,8.380500674E-1,3.994950294E0,7.615050316E0
2.841398073E1,7.350000143E-1,4.435950279E0,7.227000237E0
2.843398527E1,8.400000334E-1,4.752000332E0,6.894000530E0
2.845398988E1,9.840000272E-1,4.776000023E0,7.119000435E0
2.847399455E1,1.003050089E0,4.530000210E0,7.861050606E0
2.849399887E1,8.280000687E-1,4.279950142E0,8.532000542E0
2.851400288E1,6.049500108E-1,4.216050148E0,8.926950455E0
2.853400772E1,5.119500160E-1,4.285050392E0,9.163949966E0
2.855401241E1,5.460000038E-1,4.453050137E0,9.058950424E0
2.857401756E1,5.790000558E-1,4.678050041E0,8.704050064E0
2.859402281E1,5.719500184E-1,4.764000416E0,8.560950279E0
2.861402773E1,4.710000157E-1,4.680000305E0,8.644050598E0
2.863403296E1,3.130500019E-1,4.711950302E0,8.673000336E0
2.865403664E1,2.530499995E-1,4.771050453E0,8.545949936E0
2.867403970E1,3.709500134E-1,4.840950012E0,8.592000008E0
2.869404341E1,5.239500403E-1,4.965000153E0,8.961000443E0
2.871404780E1,5.700000525E-1,4.872000217E0,9.214050293E0
2.873405172E1,4.690500200E-1,4.554000378E0,9.291000366E0
2.875405549E1,4.159500301E-1,4.228050232E0,9.411000252E0
2.877405887E1,5.220000148E-1,4.098000050E0,9.637950897E0
2.879406256E1,6.769500375E-1,4.093950272E0,9.768000603E0
2.881406618E1,6.870000362E-1,4.173000336E0,9.700950623E0
2.883407022E1,7.660500407E-1,4.134000301E0,9.637950897E0
2.885407391E1,8.110500574E-1,3.907050133E0,9.877950668E0
2.887407752E1,7.470000386E-1,3.732000113E0,1.001205063E1
2.889408162E1,6.960000396E-1,3.555000067E0,9.925950050E0
2.891408586E1,6.049500108E-1,3.478050232E0,9.613950729E0
2.893409022E1,4.740000367E-1,3.579000235E0,9.058950424E0
2.895409483E1,4.090500176E-1,3.801000118E0,8.472000122E0
2.897409879E1,3.709500134E-1,4.065000057E0,8.115000725E0
2.899410310E1,2.370000184E-1,4.326000214E0,7.923000336E0
2.901410594E1,-1.140000075E-1,4.989000320E0,7.389000416E0
2.903410932E1,-9.000000358E-2,5.374950409E0,6.585000515E0
2.905411238E1,3.319500089E-1,4.944000244E0,7.132950306E0
2.907411569E1,6.130500436E-1,4.387950420E0,8.886000633E0
2.909411916E1,9.690000415E-1,3.733950138E0,1.041705036E1
2.911412317E1,9.840000272E-1,3.100050211E0,1.173195076E1
2.913412777E1,3.919500113E-1,2.661000013E0,1.210995102E1
2.915413149E1,-3.490500152E-1,2.320950031E0,1.121400070E1
2.917413543E1,-5.890500546E-1,2.482050180E0,9.828000069E0
2.919413912E1,-4.669500291E-1,3.186000109E0,9.004050255E0
2.921414279E1,-3.349500299E-1,3.775050163E0,8.674950600E0
2.923414656E1,-3.610500097E-1,4.017000198E0,8.260950089E0
2.925414999E1,-5.220000148E-1,3.969000101E0,8.038050652E0
2.927415369E1,-7.660500407E-1,3.924000263E0,8.200950623E0
2.929415792E1,-9.619500637E-1,4.042950153E0,8.331000328E0
2.931416222E1,-9.810000658E-1,4.098000050E0,8.355000496E0
2.933416599E1,-7.440000176E-1,4.027050018E0,8.593950272E0
2.935416969E1,-1.620000005E-1,3.799050093E0,9.075000763E0
2.937417301E1,5.260500312E-1,3.523950100E0,1.021095085E1
2.939417708E1,8.430000544E-1,3.378000259E0,1.183695030E1
2.941418230E1,7.639500499E-1,2.992050171E0,1.266105080E1
2.943418621E1,5.359500051E-1,2.652000189E0,1.194900036E1
2.945418999E1,6.010500193E-1,2.937000036E0,1.019595051E1
2.947419387E1,7.680000067E-1,3.588000059E0,9.078000069E0
2.949419795E1,8.230500221E-1,4.161000252E0,8.575050354E0
2.951420156E1,7.420500517E-1,4.398000240E0,8.065050125E0
2.953420649E1,4.999500215E-1,4.422000408E0,7.509000301E0
2.955420995E1,2.250000089E-1,4.479000092E0,6.988950253E0
2.957421415E1,1.905000024E-2,4.659000397E0,6.799950123E0
2.959421760E1,-1.339500099E-1,4.816950321E0,6.970050335E0
2.961422251E1,-7.095000148E-2,4.800000191E0,7.570950508E0
2.963422644E1,1.905000024E-2,4.603950024E0,8.314050674E0
2.965423050E1,1.819500029E-1,4.383000374E0,8.982000351E0
2.967423504E1,3.040500283E-1,4.149000168E0,9.502050400E0
2.969423906E1,2.340000123E-1,3.933000088E0,9.703050613E0
2.971424251E1,-1.395000052E-2,3.912000179E0,9.607050896E0
2.973424676E1,-2.650500238E-1,4.066950321E0,9.255000114E0
2.975425046E1,-4.230000079E-1,4.141950130E0,9.073050499E0
2.977425362E1,-4.110000134E-1,3.994950294E0,9.379950523E0
2.979425642E1,-3.420000076E-1,3.948000193E0,9.964050293E0
2.981425949E1,-2.320500165E-1,4.108050346E0,1.010805035E1
2.983426226E1,-3.010500073E-1,4.494000435E0,9.541950226E0
2.985426442E1,-2.680500150E-1,4.824000359E0,8.695050240E0
2.987426772E1,4.500000179E-2,4.588950157E0,8.781000137E0
2.989427147E1,1.260000020E-1,4.435950279E0,9.817950249E0
2.991427385E1,2.595000155E-2,4.551000118E0,1.035705090E1
2.993427602E1,7.095000148E-2,4.519950390E0,9.958950043E0
2.995427733E1,3.495000303E-2,4.567950249E0,9.298050880E0
2.997427880E1,-1.905000024E-2,4.537050247E0,9.052050591E0
2.999428096E1,3.495000303E-2,4.414950371E0,9.265050888E0
3.001428341E1,1.410000026E-1,4.522050381E0,9.664950371E0
3.003428527E1,3.400500119E-1,4.675950050E0,9.733950615E0
3.005428771E1,4.860000312E-1,4.656000137E0,9.343950272E0
3.007429049E1,4.470000267E-1,4.702050209E0,8.806950569E0
3.009429272E1,2.749500275E-1,4.828950405E0,8.200950623E0
3.011429518E1,4.500000179E-2,4.960950375E0,7.411050320E0
3.013429794E1,-5.205000192E-2,5.113950253E0,6.847950459E0
3.015430010E1,1.120500043E-1,5.338950157E0,6.751950264E0
3.017430279E1,3.900000155E-1,5.527950287E0,7.107000351E0
3.019430532E1,4.980000257E-1,5.326950073E0,7.729050159E0
3.021430904E1,4.740000367E-1,4.933950424E0,8.434050560E0
3.023431235E1,5.070000291E-1,4.812000275E0,8.709000587E0
3.025431611E1,6.289500594E-1,5.056050301E0,8.211000443E0
3.027431828E1,8.500500321E-1,5.535000324E0,7.525950432E0
3.029432104E1,1.060950041E0,5.887950420E0,7.300950527E0
3.031432380E1,1.111050010E0,6.120000362E0,7.096950531E0
3.033432720E1,1.065000057E0,6.037950516E0,6.982050419E0
3.035433180E1,1.072050095E0,5.892000198E0,7.188000202E0
3.037433570E1,1.000950098E0,5.866050243E0,7.645950317E0
3.039433978E1,7.950000167E-1,5.839950085E0,7.825050354E0
3.041434400E1,6.370500326E-1,5.818050385E0,7.513950348E0
3.043434837E1,6.199500561E-1,5.832000256E0,7.260000229E0
3.045435229E1,7.300500274E-1,6.084000111E0,7.119000435E0
3.047435629E1,7.560000420E-1,6.418950081E0,6.793050289E0
3.049435969E1,8.350500464E-1,6.493050098E0,6.514950275E0
3.051436215E1,9.409500360E-1,6.409950256E0,6.541950226E0
3.053436592E1,8.190000653E-1,6.424050331E0,6.751950264E0
3.055437024E1,4.830000103E-1,6.364050388E0,7.035000324E0
3.057437485E1,1.459500045E-1,6.283050060E0,7.246050358E0
3.059438008E1,-7.050000131E-3,6.181950092E0,7.048950195E0
3.061438592E1,1.395000052E-2,5.950050354E0,6.642000198E0
3.063439108E1,-1.069500074E-1,6.283050060E0,6.418950081E0
3.065439639E1,-2.530499995E-1,6.943950176E0,6.228000164E0
3.067440224E1,2.320500165E-1,6.811950207E0,7.063950539E0
3.069440649E1,9.220500588E-1,6.525000095E0,9.098999977E0
3.071441086E1,1.297950029E0,5.773050308E0,1.078305054E1
3.073441510E1,1.132050037E0,4.411950111E0,1.144200039E1
3.075441910E1,2.320500165E-1,3.214950085E0,1.096005058E1
3.077442287E1,-8.160000443E-1,2.578050137E0,9.997950554E0
3.079442688E1,-1.554000020E0,2.617950201E0,8.617950439E0
3.081443054E1,-1.995000124E0,2.980050087E0,7.630950451E0
3.083443354E1,-2.164950132E0,3.250950098E0,7.276950359E0
3.085443660E1,-2.461950064E0,3.082950115E0,7.612050533E0
3.087443997E1,-3.046050072E0,2.455050230E0,8.553000450E0
3.089444434E1,-3.568050146E0,1.653000116E0,8.908050537E0
3.091444764E1,-3.616050243E0,1.174050093E0,7.320000172E0
3.093445102E1,-2.890050173E0,9.660000205E-1,3.016050100E0
3.095445416E1,-1.324050069E0,-2.760000229E-1,9.870000482E-1
3.097445839E1,9.240000248E-1,-9.040500522E-1,5.794050217E0
3.099446277E1,3.276000261E0,-9.250500202E-1,1.186305046E1
3.101446493E1,5.352000237E0,-1.443000078E0,1.607595062E1
3.103446768E1,6.355950356E0,-1.596000075E0,1.887795067E1
3.105447108E1,6.298050404E0,-6.910500526E-1,1.798500061E1
3.107447441E1,5.446050167E0,7.480500340E-1,1.410000038E1
3.109447748E1,4.306050301E0,2.009999990E0,1.144200039E1
3.111448179E1,3.729000092E0,2.368950129E0,1.082895088E1
3.113448528E1,3.360000134E0,2.569950104E0,1.065900040E1
3.115448928E1,2.706000090E0,3.148050070E0,9.835050583E0
3.117449145E1,2.533050060E0,3.679050207E0,8.367000580E0
3.119449414E1,2.680050135E0,4.108050346E0,7.227000237E0
3.121449755E1,2.466000080E0,4.651950359E0,7.236000538E0
3.123450123E1,2.452050209E0,4.944000244E0,7.810950279E0
3.125450500E1,2.635950089E0,4.654050350E0,8.467050552E0
3.127450809E1,2.299050093E0,4.399950027E0,8.599050522E0
3.129451079E1,1.753050089E0,3.757950068E0,8.806950569E0
3.131451451E1,1.264050007E0,3.495000124E0,9.645000458E0
3.133451787E1,1.185000062E0,3.676950216E0,9.652950287E0
3.135452036E1,1.213950038E0,3.229050159E0,8.749950409E0
3.137452289E1,9.340500236E-1,2.239950180E0,8.946000099E0
3.139452524E1,3.469500244E-1,9.799500704E-1,1.039995003E1
3.141452779E1,-5.310000181E-1,-1.420500129E-1,1.255095100E1
3.143453085E1,-1.055999994E0,-7.500000298E-2,1.429695034E1
3.145453353E1,-5.599500537E-1,-8.895000070E-2,1.559700108E1
3.147453661E1,1.905000024E-2,-4.729500115E-1,1.640205002E1
3.149454031E1,2.959500253E-1,-2.520000041E-1,1.647599983E1
3.151454370E1,3.679500222E-1,3.705000132E-2,1.520400047E1
3.153454832E1,4.950000346E-1,4.990500212E-1,1.238505077E1
3.155455202E1,4.620000124E-1,8.820000291E-1,1.103505039E1
3.157455602E1,2.700000107E-1,8.269500136E-1,1.031100082E1
3.159456001E1,7.759500146E-1,1.131000042E0,9.468000412E0
3.161456256E1,7.660500407E-1,1.501950026E0,8.697000504E0
3.163456584E1,-4.995000362E-2,1.794000030E0,7.855950356E0
3.165456925E1,2.730000019E-1,2.058000088E0,6.757050514E0
3.167457232E1,4.590000212E-1,2.245050192E0,6.793050289E0
3.169457633E1,-2.100000083E-1,2.272950172E0,6.934050560E0
3.171458104E1,-3.199500144E-1,2.448000193E0,6.649050236E0
3.173458444E1,-1.069500074E-1,2.685000181E0,6.621000290E0
3.175458874E1,2.080500126E-1,2.968050241E0,6.594000340E0
3.177459337E1,4.380000234E-1,3.271950245E0,6.766950130E0
3.179459737E1,5.460000038E-1,3.511950254E0,6.822000504E0
3.181460074E1,3.300000131E-1,3.174000263E0,7.167000294E0
3.183460505E1,-9.000000358E-2,3.154950142E0,7.636050224E0
3.185460989E1,-1.860000044E-1,3.205050230E0,7.842000484E0
3.187461459E1,-1.530000120E-1,3.277050257E0,7.416000366E0
3.189461860E1,-3.660000265E-1,3.475950241E0,6.748050213E0
3.191462254E1,-2.413950205E0,3.478050232E0,7.831950188E0
3.193462568E1,-2.703000069E0,4.771050453E0,1.099605083E1
3.195462844E1,5.782950401E0,1.055100060E1,1.705800056E1
3.197463244E1,5.895000324E-2,6.064950466E0,1.024905014E1
3.199463736E1,-2.104950190E0,2.961000204E0,7.329000473E0
3.201464066E1,-4.549500346E-1,4.506000042E0,1.050495052E1
3.203464436E1,1.290000081E-1,4.057950020E0,9.268950462E0
3.205464836E1,1.029000044E0,4.405050278E0,6.867000103E0
3.207465206E1,4.930500090E-1,5.179050446E0,8.026050568E0
3.209465521E1,-5.205000192E-2,5.380050182E0,6.811950207E0
3.211465942E1,7.009500265E-1,5.824950218E0,7.624050140E0
3.213466434E1,-1.260000020E-1,6.358950138E0,7.890000343E0
3.215466811E1,-1.024950027E0,6.247050285E0,8.034000397E0
3.217467264E1,-2.610000134E0,5.820000172E0,8.175000191E0
3.219467695E1,-3.997050285E0,5.674050331E0,8.163000107E0
3.221468131E1,-3.843000174E0,5.370000362E0,7.351050377E0
3.223468561E1,-3.004950047E0,4.759050369E0,6.645000458E0
3.225469016E1,-2.152950048E0,4.300050259E0,6.618000507E0
3.227469448E1,-1.477050066E0,4.246950150E0,6.870000362E0
3.229469908E1,-6.010500193E-1,4.441050053E0,6.628050327E0
3.231470408E1,2.389500141E-1,4.846050262E0,6.253950119E0
3.233470831E1,9.529500604E-1,5.035050392E0,6.106050491E0
3.235471169E1,1.446000099E0,4.945950031E0,6.313950062E0
3.237471607E1,1.377000093E0,4.383000374E0,7.222050190E0
3.239472122E1,1.570950031E0,3.852000237E0,8.280000687E0
3.241472646E1,1.791000128E0,3.574050188E0,8.841000557E0
3.243473139E1,1.999050140E0,3.289050102E0,9.019950867E0
3.245473663E1,1.848000050E0,3.016050100E0,9.475050926E0
3.247474156E1,8.670000434E-1,2.536950111E0,1.045005035E1
3.249474587E1,-2.290500104E-1,1.933050036E0,1.137705040E1
3.251474966E1,-9.259500504E-1,1.749000072E0,1.194000053E1
3.253475513E1,-1.261950016E0,1.768050075E0,1.184205055E1
3.255476038E1,-1.645050049E0,1.785000086E0,1.141500092E1
3.257476475E1,-1.983000040E0,1.864050031E0,1.078995037E1
3.259476996E1,-2.263050079E0,2.005050182E0,1.029000092E1
3.261477513E1,-2.409000158E0,2.175000191E0,9.873000145E0
3.263477974E1,-2.257950068E0,2.311950207E0,9.430050850E0
3.265478443E1,-2.088000059E0,2.368950129E0,9.094950676E0
3.267478866E1,-1.819950104E0,2.463000059E0,8.958000183E0
3.269479242E1,-1.459950089E0,2.532000065E0,8.944050789E0
3.271479604E1,-1.183050036E0,2.551050186E0,9.106950760E0
3.273479948E1,-1.141950011E0,2.416950226E0,9.379950523E0
3.275480349E1,-9.979500771E-1,2.440950155E0,9.552000046E0
3.277480686E1,-8.710500598E-1,2.404950142E0,9.640950203E0
3.279481109E1,-1.162950039E0,2.005050182E0,9.973950386E0
3.281481478E1,-1.353000045E0,1.632000089E0,1.038795090E1
3.283481879E1,-1.546950102E0,1.371000051E0,1.084305096E1
3.285482317E1,-1.753050089E0,1.180950046E0,1.129800034E1
3.287482769E1,-1.942050099E0,9.469500184E-1,1.149405098E1
3.289483170E1,-2.197950125E0,7.240500450E-1,1.140105057E1
3.291483542E1,-2.437950134E0,6.280500293E-1,1.119705009E1
3.293483886E1,-2.341950178E0,7.260000110E-1,1.085295010E1
3.295484197E1,-2.080950022E0,9.900000691E-1,1.033995056E1
3.297484682E1,-1.983000040E0,1.198050022E0,9.883050919E0
3.299485052E1,-1.975050092E0,1.315050006E0,9.601950645E0
3.301485490E1,-2.152950048E0,1.320000052E0,9.508950233E0
3.303485922E1,-2.461950064E0,1.260000110E0,9.496950150E0
3.305486323E1,-2.983950138E0,1.062000036E0,9.583050728E0
3.307486684E1,-3.441000223E0,8.269500136E-1,9.709950447E0
3.309487116E1,-3.526950121E0,7.410000563E-1,9.765000343E0
3.311487462E1,-3.393000126E0,8.530500531E-1,9.669000626E0
3.313487800E1,-3.256950140E0,1.054050088E0,9.331950188E0
3.315488168E1,-2.947950125E0,1.356000066E0,8.860050201E0
3.317488382E1,-2.677050114E0,1.597950101E0,8.548950195E0
3.319488628E1,-2.703000069E0,1.789950132E0,8.625000000E0
3.321488865E1,-2.992950201E0,2.175000191E0,8.938950539E0
3.323489082E1,-3.501000166E0,2.539050102E0,9.268950462E0
3.325489389E1,-3.853050232E0,3.037050247E0,9.325050354E0
3.327489642E1,-3.975000143E0,3.490050077E0,9.042000771E0
3.329489910E1,-3.882000208E0,3.766050100E0,8.553000450E0
3.331490216E1,-3.682950258E0,3.772950172E0,8.211000443E0
3.333490493E1,-3.352950096E0,3.775050163E0,8.104949951E0
3.335490830E1,-2.722950220E0,3.787050247E0,8.196000099E0
3.337491177E1,-2.020950079E0,3.730050087E0,8.247000694E0
3.339491577E1,-1.365000010E0,3.675000191E0,8.185050011E0
3.341491968E1,-6.990000606E-1,3.778050184E0,8.043000221E0
3.343492376E1,-2.680500150E-1,3.883050203E0,7.957050323E0
3.345492838E1,1.069500074E-1,3.889950275E0,7.942950249E0
3.347493229E1,6.490500569E-1,4.041000366E0,7.981050491E0
3.349493629E1,9.600000381E-1,4.312050343E0,8.014050484E0
3.351494029E1,9.739500284E-1,4.551000118E0,8.038050652E0
3.353494436E1,8.470500112E-1,4.660950184E0,8.137050629E0
3.355494828E1,8.350500464E-1,4.900950432E0,8.263950348E0
3.357495112E1,8.710500598E-1,5.245950222E0,8.278050423E0
3.359495595E1,5.740500093E-1,5.155050278E0,8.212950706E0
3.361495996E1,2.939999998E-1,5.071050167E0,8.163000107E0
3.363496374E1,-2.939999998E-1,4.771050453E0,8.347050667E0
3.365496674E1,-1.009950042E0,4.039050102E0,8.725950241E0
3.367496891E1,-1.222950101E0,3.526050091E0,9.483000755E0
3.369497269E1,-1.438950062E0,3.088050127E0,1.055805016E1
3.371497641E1,-1.863000035E0,2.539050102E0,1.131705093E1
3.373497948E1,-2.137950182E0,2.086950064E0,1.143495083E1
3.375498225E1,-2.209950209E0,2.070000172E0,1.120695019E1
3.377498464E1,-2.389950037E0,2.290050030E0,1.087200069E1
3.379498680E1,-2.605050087E0,2.518050194E0,1.019595051E1
3.381499049E1,-2.914050102E0,2.721000195E0,9.403950691E0
3.383499328E1,-3.084000111E0,2.965950251E0,8.789999962E0
3.385499544E1,-3.003000259E0,3.289050102E0,8.308950424E0
3.387499766E1,-2.814000130E0,3.424950123E0,8.086050034E0
3.389499945E1,-2.509050131E0,3.538050175E0,8.006999969E0
3.391500202E1,-2.167050123E0,3.619050264E0,8.083950043E0
3.393500595E1,-1.792950034E0,3.697950125E0,8.232000351E0
3.395500933E1,-1.408050060E0,3.888000250E0,8.299050331E0
3.397501394E1,-1.147050023E0,4.113000393E0,8.287950516E0
3.399501830E1,-1.096050024E0,4.326000214E0,8.275950432E0
3.401502190E1,-1.186950088E0,4.489050388E0,8.212950706E0
3.403502443E1,-1.372050047E0,4.633050442E0,7.998000145E0
3.405502782E1,-1.567950130E0,4.695000172E0,7.684050560E0
3.407503120E1,-1.732950091E0,4.645050049E0,7.357950211E0
3.409503514E1,-1.783950090E0,4.756950378E0,7.066050529E0
3.411503954E1,-1.633050084E0,5.191050053E0,6.870000362E0
3.413504292E1,-1.483950019E0,5.706000328E0,6.790950298E0
3.415504568E1,-1.531950116E0,6.070050240E0,6.843000412E0
3.417504930E1,-1.662000060E0,6.232050419E0,7.078050137E0
3.419505276E1,-1.671000123E0,6.525000095E0,7.428000450E0
3.421505604E1,-1.506000042E0,6.738000393E0,7.615050316E0
3.423505880E1,-1.362000108E0,6.786000252E0,7.732050419E0
3.425506226E1,-1.306950092E0,6.721050262E0,7.909050465E0
3.427506619E1,-1.165950060E0,6.751950264E0,8.067000389E0
3.429507091E1,-9.480000734E-1,6.952950478E0,8.239950180E0
3.431507462E1,-5.839500427E-1,7.554000378E0,8.268000603E0
3.433507793E1,-7.369500399E-1,7.696050167E0,8.103000641E0
3.435508253E1,-1.072050095E0,7.413000584E0,8.119950294E0
3.437508629E1,-1.270950079E0,7.165950298E0,8.422050476E0
3.439509053E1,-1.393050075E0,6.526950359E0,9.006000519E0
3.441509429E1,-1.051050067E0,5.892000198E0,9.355950356E0
3.443509797E1,-6.580500603E-1,5.173950195E0,9.460950851E0
3.445510160E1,-3.079500198E-1,4.692000389E0,9.331950188E0
3.447510467E1,1.260000020E-1,4.576950073E0,8.938950539E0
3.449510775E1,5.620500445E-1,4.612950325E0,8.352000237E0
3.451511029E1,9.649500251E-1,4.860000134E0,7.945050240E0
3.453511332E1,1.135050058E0,4.999050140E0,7.693950176E0
3.455511738E1,1.024950027E0,4.984950066E0,7.630950451E0
3.457512066E1,8.329500556E-1,4.822050095E0,7.843950272E0
3.459512344E1,5.500500202E-1,4.294950008E0,8.344950676E0
3.461512468E1,1.789500117E-1,3.627000093E0,8.623050690E0
3.463512613E1,-1.699500084E-1,3.610050201E0,9.367950439E0
3.465512775E1,-6.840000153E-1,3.427950144E0,9.463050842E0
3.467513023E1,-9.019500613E-1,3.315000057E0,9.042000771E0
3.469513259E1,-1.594950080E0,3.789000273E0,8.419050217E0
3.471513451E1,-1.705050111E0,3.925950289E0,8.449950218E0
3.473513630E1,-1.633050084E0,3.516000271E0,7.780050278E0
3.475513852E1,-1.587000132E0,3.411000252E0,7.618950367E0
3.477514091E1,-1.365000010E0,3.493050098E0,7.939950466E0
3.479514274E1,-1.123050094E0,3.478050232E0,7.915950298E0
3.481514551E1,-1.243050098E0,3.061050177E0,7.966950417E0
3.483514744E1,-1.465050101E0,2.659050226E0,8.050050735E0
3.485514951E1,-1.609050035E0,2.584950209E0,8.254050255E0
3.487515239E1,-1.702050090E0,2.604000092E0,8.652000427E0
3.489515508E1,-1.189950109E0,2.566050053E0,9.210000038E0
3.491515664E1,-4.900500178E-1,2.614050150E0,9.375000000E0
3.493515948E1,4.570500255E-1,2.901000023E0,8.695050240E0
3.495516258E1,4.830000103E-1,3.175950050E0,8.707050323E0
3.497516710E1,5.380499959E-1,3.399000168E0,9.310050011E0
3.499517116E1,1.353000045E0,3.231000185E0,1.002900028E1
3.501517480E1,1.563000083E0,2.695050240E0,1.161900043E1
3.503517788E1,1.425000072E0,2.446050167E0,1.284000015E1
3.505517916E1,6.319500208E-1,2.311950207E0,1.349700069E1
3.507518093E1,3.040500283E-1,2.460000038E0,1.317105103E1
3.509518216E1,4.695000127E-2,2.187000036E0,1.229205036E1
3.511518401E1,-4.279500246E-1,1.537950039E0,1.175100040E1
3.513518656E1,-2.610000074E-1,9.250500202E-1,1.152600098E1
3.515519054E1,5.050500035E-1,6.760500073E-1,1.224600029E1
3.517519323E1,1.389000058E0,9.319500327E-1,1.233495045E1
3.519519631E1,2.143050194E0,9.319500327E-1,1.039305019E1
3.521519939E1,2.292000055E0,4.770000279E-1,9.247950554E0
3.523520100E1,1.968000054E0,7.380000353E-1,9.816000938E0
3.525520339E1,1.438950062E0,1.845000029E0,1.015995026E1
3.527520554E1,3.850500286E-1,1.972050071E0,9.370050430E0
3.529520803E1,-1.072050095E0,2.077050209E0,8.632050514E0
3.531521118E1,-1.575000048E0,2.656950235E0,9.394050598E0
3.533521393E1,-5.580000281E-1,2.355000019E0,9.781949997E0
3.535521701E1,1.069500074E-1,6.949500442E-1,9.885000229E0
3.537521999E1,8.880000710E-1,-1.090500057E-1,1.166205025E1
3.539522091E1,3.880500197E-1,2.020500153E-1,1.155000019E1
3.541522222E1,-3.370500207E-1,6.280500293E-1,9.688950539E0
3.543522428E1,1.380000114E-1,1.300950050E0,8.098050117E0
3.545522705E1,9.795000404E-2,1.462050080E0,7.284000397E0
3.547522867E1,-8.100000024E-2,1.464000106E0,6.994050503E0
3.549523044E1,4.930500090E-1,1.656000137E0,6.961050510E0
3.551523320E1,9.790500402E-1,1.435050011E0,5.185950279E0
3.553523635E1,1.420050025E0,1.974000096E0,5.380050182E0
3.555523914E1,1.614000082E0,2.713950157E0,6.445950508E0
3.557524283E1,1.980000138E0,2.077050209E0,6.883950233E0
3.559524551E1,2.730000019E0,1.540950060E0,8.218050003E0
3.561524824E1,3.673050165E0,2.086950064E0,8.529000282E0
3.563525102E1,4.648050308E0,2.163000107E0,8.577000618E0
3.565525327E1,4.999950409E0,1.480950117E0,8.230050087E0
3.567525565E1,5.212950230E0,1.351050019E0,8.428950310E0
3.569525732E1,5.688000202E0,1.609950066E0,8.674950600E0
3.571525878E1,6.154950142E0,1.701000094E0,8.710950851E0
3.573526004E1,6.088050365E0,1.528950095E0,9.054000854E0
3.575526250E1,5.854950428E0,1.069050074E0,9.637950897E0
3.577526558E1,5.496000290E0,4.459500313E-1,1.017000008E1
3.579526720E1,5.275950432E0,-1.489500105E-1,1.078305054E1
3.581526804E1,5.886000156E0,-5.419500470E-1,1.137195015E1
3.583526965E1,6.610050201E0,-5.760000348E-1,1.138695049E1
3.585527204E1,6.454050541E0,-6.829500198E-1,1.123305035E1
3.587527239E1,5.848050117E0,-1.075950027E0,1.059195042E1
3.589527208E1,5.548950195E0,-1.143000007E0,9.969000816E0
3.591527302E1,5.352000237E0,-1.018950105E0,9.568950653E0
3.593527367E1,5.218050480E0,-7.000500560E-1,8.776050568E0
3.595527573E1,4.849050045E0,-4.530000091E-1,8.173049927E0
3.597527825E1,4.387050152E0,-1.879500151E-1,7.525950432E0
3.599528188E1,4.132950306E0,2.689500153E-1,6.886050224E0
3.601528441E1,3.973050117E0,7.720500231E-1,6.508050442E0
3.603528741E1,3.616050243E0,1.099950075E0,6.565050125E0
3.605528992E1,2.977050066E0,1.051950097E0,7.012950420E0
3.607529386E1,2.314950228E0,9.199500680E-1,7.593000412E0
3.609529662E1,1.705050111E0,6.709500551E-1,8.170050621E0
3.611529817E1,1.177950025E0,3.049500287E-1,8.874000549E0
3.613529910E1,8.569500446E-1,-1.540500075E-1,9.472949982E0
3.615530042E1,9.340500236E-1,-6.259500384E-1,9.768000603E0
3.617530280E1,1.390950084E0,-7.860000134E-1,9.913950920E0
3.619530627E1,1.999050140E0,-7.980000377E-1,9.873000145E0
3.621530896E1,2.731950045E0,-7.980000377E-1,1.006500053E1
3.623531025E1,3.094050169E0,-7.429500222E-1,1.051500034E1
3.625531240E1,2.718000174E0,-8.100000620E-1,1.080195045E1
3.627531478E1,1.803000093E0,-8.700000644E-1,1.096800041E1
3.629531726E1,1.132050037E0,-8.130000234E-1,1.103505039E1
3.631531918E1,9.139500260E-1,-4.630500078E-1,1.092705059E1
3.633532103E1,8.640000224E-1,-7.500000298E-2,1.050105095E1
3.635532404E1,8.430000544E-1,5.595000088E-2,1.005300045E1
3.637532620E1,9.070500135E-1,3.310500085E-1,9.664950371E0
3.639532843E1,8.640000224E-1,6.520500183E-1,9.211950302E0
3.641532990E1,7.200000286E-1,1.003950000E0,8.632050514E0
3.643533058E1,6.960000396E-1,1.368000031E0,8.155950546E0
3.645533234E1,7.060500383E-1,1.701000094E0,8.104949951E0
3.647533478E1,7.710000277E-1,2.047950029E0,8.335050583E0
3.649533672E1,7.159500122E-1,2.155950069E0,8.733000755E0
3.651533818E1,3.160500228E-1,1.804050088E0,9.415950775E0
3.653534041E1,-1.620000005E-1,1.132950068E0,1.028700066E1
3.655534318E1,-4.450500309E-1,5.970000029E-1,1.090005016E1
3.657534587E1,-8.190000653E-1,-3.360000253E-1,1.103505039E1
3.659534803E1,-5.620500445E-1,-9.439500570E-1,1.051005077E1
3.661535047E1,4.980000257E-1,-7.069500089E-1,9.732000351E0
3.663535393E1,1.080000043E0,-1.021050096E0,9.652950287E0
3.665535659E1,1.135050058E0,-1.888050079E0,1.031400013E1
3.667535966E1,1.366950035E0,-2.776950121E0,1.086900043E1
3.669536243E1,1.816950083E0,-3.339000225E0,1.099095058E1
3.671536435E1,2.541000128E0,-3.399000168E0,1.083795071E1
3.673536711E1,3.264000177E0,-3.082950115E0,1.045695019E1
3.675537080E1,3.520050049E0,-2.644950151E0,9.832050323E0
3.677537420E1,3.079950094E0,-2.620950222E0,9.037050247E0
3.679537698E1,2.548050165E0,-2.520000219E0,8.152950287E0
3.681538035E1,2.385000229E0,-1.926000118E0,7.167000294E0
3.683538368E1,2.608050108E0,-1.308000088E0,6.036000252E0
3.685538644E1,3.115050077E0,-7.549500465E-1,5.107050419E0
3.687538861E1,3.733050108E0,-2.329500169E-1,4.648950100E0
3.689539084E1,4.144950390E0,-1.660500020E-1,4.896000385E0
3.691539384E1,4.417950153E0,-9.850500226E-1,6.157950401E0
3.693539701E1,4.878000259E0,-1.873950124E0,7.741050243E0
3.695540071E1,5.625000477E0,-2.403000116E0,8.664000511E0
3.697540463E1,6.166950226E0,-2.853000164E0,9.231000900E0
3.699540803E1,6.358050346E0,-3.259950161E0,9.679050446E0
3.701541118E1,6.217050076E0,-3.459000111E0,1.002900028E1
3.703541416E1,5.518050194E0,-3.880950212E0,1.032105064E1
3.705541631E1,4.873050213E0,-4.161000252E0,1.059195042E1
3.707541855E1,4.519050121E0,-4.003050327E0,1.060095024E1
3.709542061E1,4.180950165E0,-3.718050241E0,1.028295040E1
3.711542162E1,3.666000128E0,-3.495000124E0,9.649950027E0
3.713542277E1,3.163050175E0,-3.114000082E0,9.055950165E0
3.715542439E1,2.835000038E0,-2.698050022E0,8.731050491E0
3.717542616E1,2.584050179E0,-2.431950092E0,8.698950768E0
3.719542808E1,2.349000216E0,-2.401050091E0,8.836050034E0
3.721542993E1,2.208000183E0,-2.449050188E0,9.135000229E0
3.723543209E1,2.301000118E0,-2.410050154E0,9.384000778E0
3.725543478E1,2.385000229E0,-2.427000046E0,9.667050362E0
3.727543663E1,2.220000029E0,-2.767050028E0,1.012695026E1
3.729543757E1,2.080950022E0,-2.940000057E0,1.067505074E1
3.731543886E1,1.867950082E0,-2.965950251E0,1.080900097E1
3.733544040E1,1.615950108E0,-2.650050163E0,1.056300068E1
3.735544222E1,1.444050074E0,-2.143949986E0,1.022700024E1
3.737544406E1,8.980500698E-1,-2.242950201E0,9.841950417E0
3.739544499E1,6.030000448E-1,-2.524950027E0,9.705000877E0
3.741544623E1,9.409500360E-1,-2.638050079E0,9.861000061E0
3.743544837E1,1.426950097E0,-2.638050079E0,9.756000519E0
3.745544937E1,1.888950109E0,-2.290050030E0,9.480000496E0
3.747545051E1,2.239050150E0,-1.680000067E0,8.994000435E0
3.749545173E1,2.229000092E0,-1.183950067E0,8.359050751E0
3.751545296E1,1.911000133E0,-8.580000401E-1,7.785000324E0
3.753545386E1,1.542000055E0,-6.640500426E-1,7.597950459E0
3.755545602E1,1.258950114E0,-5.779500008E-1,7.705950260E0
3.757545971E1,1.290000081E0,-4.969500303E-1,7.876050472E0
3.759546133E1,1.519950032E0,-4.650000334E-1,8.254050255E0
3.761546248E1,1.554000020E0,-6.790500283E-1,8.773950577E0
3.763546348E1,1.429050088E0,-1.123950005E0,9.382050514E0
3.765546442E1,1.246950030E0,-1.717950106E0,9.994950294E0
3.767546564E1,1.210950017E0,-2.213999987E0,1.058400059E1
3.769546710E1,1.471950054E0,-2.410050154E0,1.109895039E1
3.771546894E1,1.960950136E0,-2.247000217E0,1.125000095E1
3.773547023E1,2.068950176E0,-1.897950053E0,1.113795090E1
3.775547141E1,1.441050053E0,-1.759050131E0,1.086900043E1
3.777547210E1,7.759500146E-1,-1.495050073E0,1.066095066E1
3.779547422E1,4.230000079E-1,-1.042950034E0,1.038105011E1
3.781547554E1,3.079500198E-1,-6.570000052E-1,1.005300045E1
3.783547732E1,4.039500058E-1,-1.830000132E-1,9.669000626E0
3.785547771E1,5.380499959E-1,2.040000111E-1,9.355950356E0
3.787547861E1,7.110000253E-1,3.910500109E-1,9.135000229E0
3.789548098E1,1.027050018E0,5.659500360E-1,9.061050415E0
3.791548290E1,1.450950027E0,7.000500560E-1,9.085050583E0
3.793548373E1,1.918050051E0,8.119500279E-1,9.078000069E0
3.795548467E1,2.373000145E0,9.750000238E-1,9.247950554E0
3.797548588E1,2.602950096E0,9.300000668E-1,9.693000793E0
3.799548810E1,2.670000076E0,7.860000134E-1,1.043595028E1
3.801548965E1,2.797050238E0,9.300000668E-1,1.110195065E1
3.803549088E1,2.442000151E0,7.909500599E-1,1.126905060E1
3.805549245E1,1.558950067E0,2.520000041E-1,1.107795048E1
3.807549490E1,5.580000281E-1,-8.080500364E-1,1.085295010E1
3.809549675E1,-7.050000131E-3,-1.797000051E0,1.122405052E1
3.811549912E1,-8.805000782E-2,-2.287950039E0,1.168800068E1
3.813549981E1,3.610500097E-1,-1.945950150E0,1.160700035E1
3.815550096E1,1.068000078E0,-1.239000082E0,1.098405075E1
3.817550251E1,1.486950040E0,-7.360500097E-1,9.871050835E0
3.819550374E1,1.630950093E0,-2.310000062E-1,8.898000717E0
3.821550505E1,1.381050110E0,2.089500129E-1,8.331000328E0
3.823550658E1,1.012950063E0,4.530000091E-1,8.023950577E0
3.825550927E1,9.619500637E-1,9.750000238E-1,7.822950363E0
3.827551181E1,9.600000381E-1,1.468950033E0,7.882950306E0
3.829551366E1,1.063050032E0,1.846950054E0,7.954950333E0
3.831551540E1,1.258950114E0,2.230050087E0,7.923000336E0
3.833551733E1,1.587000132E0,2.587050200E0,7.855950356E0
3.835551977E1,1.864950061E0,2.878950119E0,7.885050297E0
3.837552091E1,1.980000138E0,3.130950212E0,8.035950661E0
3.839552311E1,1.968000054E0,3.295950174E0,8.191950798E0
3.841552433E1,1.858050108E0,3.390000105E0,8.248950005E0
3.843552556E1,1.825050116E0,3.457050085E0,8.315999985E0
3.845552703E1,1.789050102E0,3.454050064E0,8.455050468E0
3.847552947E1,1.678050041E0,3.466050148E0,8.521950722E0
3.849553046E1,1.534950018E0,3.448950052E0,8.560950279E0
3.851553107E1,1.420050025E0,3.499950171E0,8.665950775E0
3.853553107E1,1.405050039E0,3.760950089E0,8.821949959E0
3.855553193E1,1.053000093E0,3.820950270E0,8.977050781E0
3.857553356E1,6.130500436E-1,3.619050264E0,8.971950531E0
3.859553541E1,6.319500208E-1,3.732000113E0,9.019950867E0
3.861553541E1,7.830000520E-1,3.877950191E0,9.202050209E0
3.863553566E1,7.230000496E-1,3.885000229E0,9.343950272E0
3.865553658E1,6.169500351E-1,3.853950262E0,9.372000694E0
3.867553699E1,6.150000095E-1,3.943050146E0,9.495000839E0
3.869553814E1,1.395000052E-2,3.346050262E0,9.895050049E0
3.871553969E1,-5.980500579E-1,2.764050245E0,1.038600063E1
3.873554094E1,-7.230000496E-1,2.467050076E0,1.079700089E1
3.875554161E1,-5.119500160E-1,2.190000057E0,1.076595020E1
3.877554217E1,-2.295000106E-2,2.014950037E0,1.032795048E1
3.879554246E1,4.950000346E-1,2.091000080E0,9.940050125E0
3.881554493E1,9.690000415E-1,2.254050016E0,9.604950905E0
3.883554647E1,1.266000032E0,2.403000116E0,9.459000587E0
3.885554832E1,1.144050002E0,2.392950058E0,9.483000755E0
3.887555049E1,6.220500469E-1,2.067000151E0,9.685950279E0
3.889555201E1,7.395000011E-2,1.615050077E0,1.005495071E1
3.891555478E1,-2.029500157E-1,1.372950077E0,1.027500057E1
3.893555796E1,-1.909500062E-1,1.444950104E0,1.016805077E1
3.895556130E1,-7.605000585E-2,1.605000019E0,9.942000389E0
3.897556466E1,-2.295000106E-2,1.777950048E0,9.610050201E0
3.899556683E1,6.705000252E-2,2.044049978E0,9.211950302E0
3.901556904E1,1.030500084E-1,2.230050087E0,8.949000359E0
3.903557019E1,1.530000120E-1,2.388000011E0,8.805000305E0
3.905557234E1,2.080500126E-1,2.511000156E0,8.817000389E0
3.907557419E1,1.669500023E-1,2.620950222E0,8.806950569E0
3.909557609E1,7.395000011E-2,2.740050077E0,8.881050110E0
3.911557789E1,-6.195000187E-2,2.845950127E0,9.007950783E0
3.913557914E1,-1.620000005E-1,2.958000183E0,9.042000771E0
3.915558077E1,-2.680500150E-1,2.992050171E0,9.022950172E0
3.917558140E1,-3.420000076E-1,2.962950230E0,9.025050163E0
3.919558232E1,-2.820000052E-1,2.986950159E0,9.145050049E0
3.921558264E1,-2.560500205E-1,3.022950172E0,9.364950180E0
3.923558418E1,-3.300000131E-1,3.022950172E0,9.636000633E0
3.925558569E1,-4.159500301E-1,3.090000153E0,9.825000763E0
3.927558720E1,-4.590000212E-1,3.166950226E0,9.897000313E0
3.929558868E1,-5.770500302E-1,3.115950108E0,9.756000519E0
3.931559021E1,-5.959500074E-1,3.100050211E0,9.705000877E0
3.933559238E1,-2.340000123E-1,3.631050110E0,9.847050667E0
3.935559371E1,-4.069500268E-1,3.732000113E0,9.904050827E0
3.937559518E1,-1.318950057E0,2.965950251E0,9.942000389E0
3.939559618E1,-2.002050161E0,2.581950188E0,9.868050575E0
3.941559649E1,-2.493000031E0,2.106000185E0,9.895050049E0
3.943559740E1,-2.518950224E0,1.330050111E0,1.026105022E1
3.945559947E1,-2.107050180E0,7.549500465E-1,1.077795029E1
3.947560199E1,-1.714050055E0,3.570000231E-1,1.116405010E1
3.949560310E1,-1.474950075E0,1.420500129E-1,1.125705051E1
3.951560525E1,-1.197000027E0,2.809500098E-1,1.114995098E1
3.953560739E1,-1.137000084E0,6.180000305E-1,1.078095055E1
3.955560899E1,-1.372050047E0,8.100000620E-1,9.961950302E0
3.957561146E1,-1.554000020E0,9.949500561E-1,9.193050385E0
3.959561269E1,-1.474950075E0,1.228950024E0,8.637000084E0
3.961561452E1,-1.213950038E0,1.615050077E0,8.356950760E0
3.963561627E1,-1.068000078E0,1.914000034E0,8.239950180E0
3.965561721E1,-1.222950101E0,2.130000114E0,8.304000854E0
3.967561843E1,-1.506000042E0,2.250000000E0,8.449950218E0
3.969561881E1,-1.602000117E0,2.254050016E0,8.428950310E0
3.971561965E1,-1.306950092E0,2.388000011E0,8.413949966E0
3.973561972E1,-7.440000176E-1,2.551050186E0,8.343000412E0
3.975562088E1,-4.110000134E-1,2.749950171E0,8.272950172E0
3.977562119E1,-3.420000076E-1,2.941950083E0,8.355000496E0
3.979562242E1,-3.780000210E-1,3.013950109E0,8.497950554E0
3.981562313E1,-3.469500244E-1,3.016050100E0,8.500950813E0
3.983562437E1,-7.395000011E-2,3.157050133E0,8.443050385E0
3.985562491E1,1.819500029E-1,3.196050167E0,8.512949944E0
3.987562470E1,3.760500252E-1,3.222000122E0,8.697000504E0
3.989562525E1,5.620500445E-1,3.330000162E0,8.889000893E0
3.991562596E1,6.769500375E-1,3.435000181E0,8.980050087E0
3.993562658E1,5.670000315E-1,3.286950111E0,9.106950760E0
3.995562691E1,6.529500484E-1,3.115950108E0,9.159000397E0
3.997562716E1,1.171050072E0,3.030000210E0,9.042000771E0
3.999562747E1,1.735950112E0,3.097050190E0,9.078000069E0
4.001562868E1,1.959000111E0,3.418050051E0,9.372000694E0
4.003563062E1,1.207050085E0,3.054000139E0,1.003605080E1
4.005563239E1,4.110000134E-1,2.403000116E0,1.092705059E1
4.007563548E1,-3.349500299E-1,1.842000127E0,1.194000053E1
4.009563793E1,-6.990000606E-1,1.162050009E0,1.247205067E1
4.011564049E1,-5.119500160E-1,7.360500097E-1,1.235205078E1
4.013564264E1,-3.490500152E-1,1.969500035E-1,1.190595055E1
4.015564501E1,9.000000544E-3,1.695000008E-2,1.135995007E1
4.017564632E1,5.380499959E-1,1.080000028E-1,1.080900097E1
4.019564879E1,1.051050067E0,2.230500132E-1,1.008105087E1
4.021565095E1,1.498950124E0,5.160000324E-1,9.316950798E0
4.023565216E1,1.326000094E0,6.589500308E-1,8.722949982E0
4.025565300E1,2.340000123E-1,6.090000272E-1,8.548950195E0
4.027565400E1,-4.069500268E-1,8.820000291E-1,8.640000343E0
4.029565512E1,2.530499995E-1,1.123950005E0,8.896050453E0
4.031565520E1,1.117950082E0,9.490500689E-1,9.013050079E0
4.033565637E1,1.462950110E0,6.930000186E-1,9.091950417E0
4.035565796E1,1.288050056E0,5.440500379E-1,9.222000122E0
4.037566033E1,1.077000022E0,4.990500212E-1,9.432000160E0
4.039566314E1,1.125000000E0,4.170000255E-1,9.672000885E0
4.041566646E1,1.441050053E0,4.680000246E-1,9.679050446E0
4.043566777E1,1.567950130E0,5.730000138E-1,9.637950897E0
4.045566962E1,1.471950054E0,7.000500560E-1,9.721950531E0
4.047567084E1,1.384050012E0,8.509500623E-1,9.835050583E0
4.049567115E1,1.240050077E0,9.420000315E-1,9.940050125E0
4.051567114E1,1.210950017E0,1.119000077E0,1.005300045E1
4.053567113E1,1.233000040E0,1.210050106E0,1.013400078E1
4.055567137E1,1.201950073E0,1.239000082E0,1.024395084E1
4.057567207E1,1.113000035E0,1.252950072E0,1.035405064E1
4.059567261E1,1.039050102E0,1.371000051E0,1.050300026E1
4.061567302E1,9.480000734E-1,1.500000119E0,1.057200050E1
4.063567324E1,9.600000381E-1,1.636050105E0,1.055805016E1
4.065567363E1,8.470500112E-1,1.629000068E0,1.045500088E1
4.067567417E1,6.370500326E-1,1.488000035E0,1.038105011E1
4.069567419E1,5.959500074E-1,1.459050059E0,1.048095036E1
4.071567460E1,9.049500227E-1,1.866000056E0,1.065105057E1
4.073567514E1,5.910000205E-1,1.777950048E0,1.082400036E1
4.075567706E1,-2.440500110E-1,1.099950075E0,1.099095058E1
4.077567912E1,-5.910000205E-1,9.709500670E-1,1.116600037E1
4.079568012E1,-4.710000157E-1,1.006049991E0,1.101300049E1
4.081568159E1,-4.330500066E-1,9.150000215E-1,1.058700085E1
4.083568351E1,-8.430000544E-1,7.860000134E-1,1.055100060E1
4.085568467E1,-1.294950008E0,3.289500177E-1,1.062705040E1
4.087568651E1,-1.168050051E0,7.695000619E-2,1.026105022E1
4.089568773E1,-5.740500093E-1,3.930000067E-1,9.387000084E0
4.091568934E1,-1.240500063E-1,9.199500680E-1,8.460000038E0
4.093569108E1,-1.819500029E-1,1.417950034E0,8.050050735E0
4.095569179E1,-5.340000391E-1,1.753950119E0,8.119950294E0
4.097569354E1,-8.310000300E-1,2.023950100E0,8.331000328E0
4.099569547E1,-1.008000016E0,2.338050127E0,8.319000244E0
4.101569672E1,-1.101000071E0,2.635050058E0,8.208000183E0
4.103569919E1,-1.055999994E0,2.901000023E0,8.175000191E0
4.105570042E1,-1.101000071E0,3.009000063E0,8.304000854E0
4.107570104E1,-1.273950100E0,3.058950186E0,8.527050018E0
4.109570167E1,-1.089000106E0,3.255000114E0,8.467050552E0
4.111570260E1,-9.379500151E-1,3.370050192E0,8.389950752E0
4.113570252E1,-9.100500345E-1,3.496950150E0,8.683050156E0
4.115570283E1,-9.019500613E-1,3.694050074E0,8.593950272E0
4.117570290E1,-1.104000092E0,3.769950151E0,8.220000267E0
4.119570253E1,-1.041000009E0,3.684000254E0,8.413949966E0
4.121570253E1,-1.039050102E0,3.523950100E0,9.016050339E0
4.123570347E1,-3.136950254E0,2.841000080E0,9.042000771E0
4.125570446E1,-2.647950172E0,4.872000217E0,9.820050240E0
4.127570414E1,-7.969500422E-1,4.279950142E0,9.106950760E0
4.129570476E1,-6.370500326E-1,3.466050148E0,9.007950783E0
4.131570476E1,-6.559500098E-1,3.610050201E0,8.944050789E0
4.133570529E1,-9.810000658E-1,3.828000069E0,9.439949989E0
4.135570628E1,-1.149000049E0,4.303950310E0,9.331950188E0
4.137570619E1,-5.530500412E-1,4.708950043E0,9.219000816E0
4.139570771E1,-1.459500045E-1,4.944000244E0,9.387000084E0
4.141570956E1,-1.290000081E-1,4.588950157E0,1.000200081E1
4.143571147E1,-1.905000024E-2,3.888000250E0,1.088100052E1
4.145571323E1,1.600500047E-1,3.066000223E0,1.144395065E1
4.147571484E1,-2.805000171E-2,2.560950041E0,1.134405041E1
4.149571759E1,-2.050500065E-1,2.829000235E0,1.054395008E1
4.151571811E1,-1.189500093E-1,3.250950098E0,9.328950882E0
4.153571941E1,-2.959500253E-1,3.559950113E0,7.909050465E0
4.155572056E1,-6.390000582E-1,3.526050091E0,8.560950279E0
4.157572212E1,-1.309500039E-1,3.651000261E0,9.676950455E0
4.159572367E1,1.605000161E-2,3.829950094E0,9.540000916E0
4.161572315E1,3.319500089E-1,3.901950121E0,8.611050606E0
