"Time (s)","Acceleration x (m/s^2)","Acceleration y (m/s^2)","Acceleration z (m/s^2)"
5.427402000E-3,-2.305017710E0,8.340201378E0,6.989871979E0
1.550386000E-2,-2.594716072E0,8.457517624E0,6.434417248E0
3.550386000E-2,-2.678513050E0,8.459911346E0,6.221333027E0
5.550386000E-2,-1.814206362E0,8.383296967E0,6.997054577E0
7.550386000E-2,-1.541267395E0,8.433575630E0,7.897274494E0
9.550386000E-2,-2.000954151E0,8.479064941E0,8.055291176E0
1.155038600E-1,-2.302623510E0,8.462306023E0,7.909245491E0
1.355038600E-1,-2.575562477E0,8.402450562E0,7.135918140E0
1.555038600E-1,-3.289034605E0,7.952341080E0,7.195773125E0
1.755038600E-1,-4.261080265E0,7.023390770E0,6.901286602E0
1.955038600E-1,-4.296993732E0,6.479907036E0,6.527791023E0
2.155038600E-1,-3.435081005E0,6.592434406E0,7.071274757E0
2.355038600E-1,-2.604292870E0,6.637924194E0,7.612364292E0
2.555038600E-1,-2.580350876E0,6.532579422E0,8.091204643E0
2.755038600E-1,-2.934692621E0,6.135141850E0,7.949946880E0
2.955038600E-1,-3.152565002E0,5.426458359E0,7.981071472E0
3.155038600E-1,-3.016095638E0,4.717774391E0,7.535749912E0
3.355038600E-1,-3.107075214E0,4.255693436E0,7.554903507E0
3.555038600E-1,-3.107075214E0,4.255693436E0,7.554903507E0
3.555038600E-1,-2.882020235E0,4.358644009E0,7.698555470E0
3.955038600E-1,-2.882020235E0,4.358644009E0,7.698555470E0
4.155038600E-1,-2.882020235E0,4.358644009E0,7.698555470E0
4.355038600E-1,-1.929128051E0,4.205415249E0,7.016208172E0
4.555038600E-1,-2.032078743E0,3.946841478E0,7.779958248E0
4.755038600E-1,-1.653794765E0,4.033032894E0,8.696937561E0
4.955038600E-1,-1.543661594E0,3.757699490E0,9.475052834E0
5.155038600E-1,-2.283469915E0,3.537432909E0,8.170213699E0
5.355038600E-1,-2.783858061E0,3.934870481E0,6.518214226E0
5.555038600E-1,-1.977012038E0,4.698620796E0,6.477512836E0
5.755038600E-1,-2.962824702E-1,5.598840714E0,8.766369820E0
5.955038600E-1,4.985924959E-1,5.234921932E0,1.050934792E1
6.155038600E-1,-2.795230448E-1,4.349067211E0,1.066257763E1
6.355038600E-1,-1.265934110E0,4.080916882E0,9.771934509E0
6.555038600E-1,-1.265934110E0,4.080916882E0,9.771934509E0
6.755038600E-1,-1.265934110E0,4.080916882E0,9.771934509E0
6.955038600E-1,-1.265934110E0,4.080916882E0,9.771934509E0
7.155038600E-1,-1.265934110E0,4.080916882E0,9.771934509E0
7.355038600E-1,5.057750940E-1,4.339490414E0,9.877279282E0
7.555038600E-1,1.013345838E0,3.949235678E0,1.031541824E1
7.755038600E-1,1.156997919E0,3.898957491E0,1.145745182E1
7.955038600E-1,6.757634282E-1,3.779247284E0,1.262821674E1
8.155038600E-1,4.219780564E-1,3.238157749E0,1.212543488E1
8.355038600E-1,1.113902330E0,1.940500498E0,9.980229378E0
8.555038600E-1,7.811083198E-1,5.925649405E-1,9.024943352E0
8.755038600E-1,-1.933317930E-1,3.076549172E-1,9.089587212E0
8.955038600E-1,-4.495113790E-1,-1.209071875E-1,8.100781441E0
9.155038600E-1,-5.333084464E-1,-5.135562420E-1,7.370550156E0
9.355038600E-1,-1.047463268E-1,-4.153940082E-1,6.549338818E0
9.555038600E-1,-1.047463268E-1,-4.153940082E-1,6.549338818E0
9.755038600E-1,-1.047463268E-1,-4.153940082E-1,6.549338818E0
9.955038600E-1,-1.047463268E-1,-4.153940082E-1,6.549338818E0
1.015503860E0,-1.047463268E-1,-4.153940082E-1,6.549338818E0
1.035503860E0,-1.047463268E-1,-4.153940082E-1,6.549338818E0
1.055503860E0,-5.093663931E-1,1.796848416E0,7.346607685E0
1.075503860E0,-2.008136749E0,1.918952703E0,7.210138321E0
1.095503860E0,-1.586757183E0,2.493561029E0,7.150283337E0
1.115503860E0,-1.665765882E0,1.966836691E0,8.009801865E0
1.135503860E0,-1.299453020E0,1.954865694E0,8.984241486E0
1.155503860E0,-1.000177741E0,1.945288897E0,9.700108528E0
1.175503860E0,-1.031302333E0,1.741781712E0,9.666589737E0
1.195503860E0,-1.301847219E0,1.504755735E0,1.083256531E1
1.215503860E0,-7.679402232E-1,1.329979062E0,1.212304020E1
1.235503860E0,-1.244386315E0,1.456871748E0,1.265215874E1
1.255503860E0,-1.675342679E0,1.186326981E0,1.228105736E1
1.275503860E0,-1.684919477E0,1.717839718E0,1.210867500E1
1.295503860E0,-1.684919477E0,1.717839718E0,1.210867500E1
1.315503860E0,-1.684919477E0,1.717839718E0,1.210867500E1
1.335503860E0,-1.684919477E0,1.717839718E0,1.210867500E1
1.355503860E0,-1.684919477E0,1.717839718E0,1.210867500E1
1.375503860E0,-2.125452518E0,1.729810715E0,1.104564953E1
1.395503860E0,-1.045667648E0,1.962048292E0,1.241513252E1
1.415503860E0,-3.705027103E-1,1.756146908E0,1.313099957E1
1.435503860E0,-6.194996834E-1,1.143231273E0,1.214698219E1
1.455503860E0,-8.158242106E-1,1.349132657E0,1.086129570E1
1.475503860E0,-7.990648150E-1,1.009155989E0,1.059793377E1
1.495503860E0,-2.580350876E0,5.386953801E-2,8.953117371E0
1.515503860E0,-2.740762472E0,-2.190694511E-1,7.787140846E0
1.535503860E0,-2.257133722E0,6.548141837E-1,6.908469200E0
1.555503860E0,-1.064821243E0,1.282094955E0,6.314706802E0
1.575503860E0,-1.064821243E0,1.282094955E0,6.314706802E0
1.595503860E0,-1.064821243E0,1.282094955E0,6.314706802E0
1.615503860E0,1.049258947E0,1.255758762E0,9.271546364E0
1.635503860E0,3.357867897E-1,9.493009448E-1,8.747216225E0
1.655503860E0,-5.141547918E-1,6.428431273E-1,8.344989777E0
1.675503860E0,-8.756792545E-1,5.710170865E-1,7.813477039E0
1.695503860E0,-4.447229803E-1,1.140837073E0,7.442376137E0
1.715503860E0,-2.053027898E-1,1.950077295E0,7.109581947E0
1.735503860E0,-4.542997777E-1,2.522291422E0,6.602011204E0
1.755503860E0,-7.607575655E-1,2.771288395E0,7.413645744E0
1.775503860E0,-7.799112201E-1,2.498349428E0,8.179790497E0
1.795503860E0,-4.016273320E-1,2.677914619E0,9.882067680E0
1.815503860E0,3.405751884E-1,3.008314371E0,1.053568459E1
1.835503860E0,6.183025837E-1,3.233369350E0,1.076552773E1
1.855503860E0,4.052186310E-1,3.228580952E0,1.038963795E1
1.875503860E0,-5.925649032E-2,3.223792553E0,9.558850288E0
1.895503860E0,9.397241473E-2,3.125630379E0,9.475052834E0
1.915503860E0,7.308300734E-1,2.948459387E0,1.039682102E1
1.935503860E0,1.080383539E0,3.017891169E0,1.079904652E1
1.955503860E0,1.140238523E0,3.154360771E0,1.165377712E1
1.975503860E0,1.049258947E0,2.797624588E0,1.099537086E1
1.995503860E0,1.049258947E0,2.797624588E0,1.099537086E1
2.015503860E0,1.049258947E0,2.797624588E0,1.099537086E1
2.035503860E0,1.049258947E0,2.797624588E0,1.099537086E1
2.055503860E0,1.049258947E0,2.797624588E0,1.099537086E1
2.075503860E0,1.049258947E0,2.797624588E0,1.099537086E1
2.095503860E0,1.049258947E0,2.797624588E0,1.099537086E1
2.115503860E0,5.416881442E-1,1.057040095E0,9.724050522E0
2.135503860E0,-3.561375141E-1,4.129997790E-1,9.472659111E0
2.155503860E0,1.256955881E-2,8.726865053E-1,8.704120636E0
2.175503860E0,8.481459618E-1,1.794454217E0,7.861361504E0
2.195503860E0,1.669357181E0,2.280477047E0,7.629123688E0
2.215503860E0,1.492186189E0,2.194285870E0,7.583633900E0
2.235503860E0,1.267131209E0,2.005143881E0,7.466318130E0
2.255503860E0,8.792705536E-1,1.839944005E0,7.574057102E0
2.275503860E0,1.681926697E-1,1.751358509E0,7.272387505E0
2.295503860E0,-2.412158251E-1,1.710657120E0,7.368155956E0
2.315503860E0,-2.412158251E-1,1.710657120E0,7.368155956E0
2.335503860E0,-2.412158251E-1,1.710657120E0,7.368155956E0
2.355503860E0,-2.412158251E-1,1.710657120E0,7.368155956E0
2.375503860E0,-2.412158251E-1,1.710657120E0,7.368155956E0
2.395503860E0,-2.412158251E-1,1.710657120E0,7.368155956E0
2.415503860E0,5.368997455E-1,3.396175146E0,8.555679321E0
2.435503860E0,4.746504724E-1,3.386598349E0,9.238027573E0
2.455503860E0,3.764882088E-1,3.226186752E0,9.616311073E0
2.475503860E0,1.705868691E-1,3.324349165E0,1.014782429E1
2.495503860E0,1.777694821E-1,3.575740337E0,1.026992798E1
2.515503860E0,1.825578809E-1,3.695450306E0,1.075355721E1
2.535503860E0,-3.052607179E-2,3.341108561E0,1.168250751E1
2.555503860E0,-3.417722881E-1,2.905363798E0,1.222838497E1
2.575503860E0,-8.349778652E-1,2.642001629E0,1.265215874E1
2.595503860E0,-1.395220995E0,2.677914619E0,1.288679028E1
2.615503860E0,-1.589151382E0,2.931699991E0,1.159392166E1
2.635503860E0,-1.321000814E0,3.202244759E0,9.980229378E0
2.655503860E0,-1.158195019E0,3.041833162E0,1.029147625E1
2.675503860E0,-1.158195019E0,3.041833162E0,1.029147625E1
2.695503860E0,-1.158195019E0,3.041833162E0,1.029147625E1
2.715503860E0,-1.158195019E0,3.041833162E0,1.029147625E1
2.735503860E0,-1.158195019E0,3.041833162E0,1.029147625E1
2.735503860E0,-1.115099430E0,8.583213091E-1,1.183094788E1
2.775503860E0,-1.244386315E0,1.102529883E0,8.467094421E0
2.795503860E0,-1.244386315E0,1.102529883E0,8.467094421E0
2.815503860E0,-7.080851793E-1,1.875856996E0,7.059303761E0
2.835503860E0,-4.997895956E-1,2.220622063E0,6.692990780E0
2.855503860E0,-5.045779943E-1,2.206256866E0,6.920440197E0
2.875503860E0,-2.747346461E-1,1.971625090E0,7.854178905E0
2.895503860E0,2.232593149E-1,1.607706428E0,9.396044731E0
2.915503860E0,-3.292027488E-2,1.152808070E0,1.035611916E1
2.935503860E0,-9.475052953E-1,7.266402245E-1,9.977835655E0
2.955503860E0,-1.620275974E0,6.667851806E-1,8.570044518E0
2.975503860E0,-1.502960086E0,1.212663174E0,7.224503517E0
2.995503860E0,-8.182184100E-1,2.024297476E0,6.364984989E0
3.015503860E0,-5.207388848E-2,2.809595585E0,6.384139061E0
3.035503860E0,1.897404790E-1,3.235763550E0,6.429628849E0
3.055503860E0,-1.334767491E-1,3.417722940E0,6.762422562E0
3.075503860E0,-3.848679364E-1,3.269282341E0,7.688978672E0
3.095503860E0,-3.848679364E-1,3.269282341E0,7.688978672E0
3.115503860E0,-3.848679364E-1,3.269282341E0,7.688978672E0
3.135503860E0,-3.848679364E-1,3.269282341E0,7.688978672E0
3.155503860E0,-3.848679364E-1,3.269282341E0,7.688978672E0
3.175503860E0,-3.848679364E-1,3.269282341E0,7.688978672E0
3.195503860E0,-3.848679364E-1,3.269282341E0,7.688978672E0
3.215503860E0,-3.848679364E-1,3.269282341E0,7.688978672E0
3.235503860E0,-3.848679364E-1,3.269282341E0,7.688978672E0
3.255503860E0,-3.848679364E-1,3.269282341E0,7.688978672E0
3.275503860E0,-3.848679364E-1,3.269282341E0,7.688978672E0
3.295503860E0,8.840589523E-1,2.287659645E0,1.163462353E1
3.315503860E0,9.750386477E-1,1.971625090E0,1.295622253E1
3.335503860E0,6.542156339E-1,1.480813742E0,1.386841297E1
3.355503860E0,-1.646013707E-1,1.080982089E0,1.276468658E1
3.375503860E0,-3.752911091E-1,9.014169574E-1,1.098340034E1
3.395503860E0,2.735375464E-1,1.169567585E0,9.666589737E0
3.415503860E0,1.315015316E0,1.756146908E0,8.816647530E0
3.435503860E0,2.117072821E0,2.290053844E0,8.170213699E0
3.455503860E0,2.313397408E0,2.450465441E0,8.060079575E0
3.475503860E0,2.313397408E0,2.450465441E0,8.060079575E0
3.495503860E0,2.313397408E0,2.450465441E0,8.060079575E0
3.515503860E0,2.313397408E0,2.450465441E0,8.060079575E0
3.535503860E0,2.313397408E0,2.450465441E0,8.060079575E0
3.555503860E0,2.313397408E0,2.450465441E0,8.060079575E0
3.575503860E0,2.313397408E0,2.450465441E0,8.060079575E0
3.595503860E0,-6.386532784E-1,2.409764051E0,5.029020786E0
3.615503860E0,-6.985083222E-1,2.639607430E0,5.359420300E0
3.635503860E0,-5.285200477E-1,2.981978178E0,6.477512836E0
3.655503860E0,-2.723404467E-1,3.207033157E0,7.801506042E0
3.675503860E0,-1.334767491E-1,3.295618534E0,8.653841972E0
3.695503860E0,-3.202244639E-1,3.298012733E0,9.750386238E0
3.715503860E0,-3.202244639E-1,3.298012733E0,9.750386238E0
3.735503860E0,-1.299453020E0,3.360262156E0,1.014303589E1
3.755503860E0,-1.208473325E0,3.621230125E0,1.031062984E1
3.775503860E0,-7.320271730E-1,3.910928488E0,1.092833328E1
3.795503860E0,-3.489548862E-1,4.068945885E0,1.165617085E1
3.815503860E0,2.855085433E-1,4.016273499E0,1.224035645E1
3.835503860E0,4.914098978E-1,3.836708307E0,1.308311558E1
3.855503860E0,2.304419130E-1,3.695450306E0,1.344463921E1
3.875503860E0,-8.206126094E-1,3.377021551E0,1.365054131E1
3.895503860E0,-8.206126094E-1,3.377021551E0,1.365054131E1
3.915503860E0,-8.206126094E-1,3.377021551E0,1.365054131E1
3.935503860E0,-8.206126094E-1,3.377021551E0,1.365054131E1
3.955503860E0,-8.206126094E-1,3.377021551E0,1.365054131E1
3.975503860E0,-8.206126094E-1,3.377021551E0,1.365054131E1
3.995503860E0,-8.206126094E-1,3.377021551E0,1.365054131E1
4.015503860E0,-8.206126094E-1,3.377021551E0,1.365054131E1
4.035503860E0,-1.234809518E0,1.375468850E0,9.147047997E0
4.055503860E0,-6.266822815E-1,1.686715126E0,8.486248016E0
4.075503860E0,-2.938882709E-1,1.890222192E0,7.849390507E0
4.095503860E0,-2.938882709E-1,1.890222192E0,7.849390507E0
4.115503860E0,-5.883750916E-1,1.641225219E0,8.007407188E0
4.135503860E0,-4.566939771E-1,1.332373261E0,8.754398346E0
4.155503860E0,1.586158574E-1,1.198297977E0,1.001614285E1
4.175503860E0,5.608417392E-1,1.006761789E0,1.112705231E1
4.195503860E0,3.884592354E-1,7.529764175E-1,1.079904652E1
4.215503860E0,-1.813607812E-1,7.793126702E-1,8.804677010E0
4.235503860E0,-5.428852439E-1,1.109712481E0,7.009025574E0
4.255503860E0,-5.500678420E-1,1.758541107E0,5.776011467E0
4.275503860E0,-2.819172442E-1,2.498349428E0,5.424064159E0
4.295503860E0,1.705868691E-1,3.168725967E0,5.570110321E0
4.315503860E0,2.950853705E-1,3.604470730E0,6.096834660E0
4.335503860E0,1.945288926E-1,3.594893932E0,7.011419773E0
4.355503860E0,3.214215636E-1,3.645172119E0,8.021772385E0
4.375503860E0,4.794389009E-1,3.683479309E0,9.233239174E0
4.395503860E0,3.333925903E-1,3.582922935E0,1.028189945E1
4.415503860E0,4.147954583E-1,3.616441727E0,1.037287903E1
4.435503860E0,7.571662664E-1,3.879803896E0,9.956287384E0
4.455503860E0,1.329380512E0,3.922899485E0,9.858125687E0
4.475503860E0,1.329380512E0,3.922899485E0,9.858125687E0
4.495503860E0,2.224812031E0,3.594893932E0,1.142872143E1
4.515503860E0,1.427542806E0,2.929305792E0,1.243189240E1
4.535503860E0,6.183025837E-1,2.179920673E0,1.198896503E1
4.555503860E0,3.070563674E-1,2.108094692E0,1.177109241E1
4.575503860E0,5.105634928E-1,2.043451071E0,1.213740540E1
4.595503860E0,8.864531517E-1,1.868674397E0,1.241273880E1
4.615503860E0,8.601169586E-1,1.748964310E0,1.263539982E1
4.635503860E0,7.068880796E-1,1.660378933E0,1.209670448E1
4.655503860E0,4.004302323E-1,1.461660147E0,1.095706367E1
4.675503860E0,4.369417951E-2,1.212663174E0,9.673771858E0
4.695503860E0,5.327098817E-2,1.097741485E0,9.147047997E0
4.715503860E0,2.256535143E-1,1.349132657E0,8.534132004E0
4.735503860E0,4.171896577E-1,1.626860023E0,7.681796074E0
4.755503860E0,3.070563674E-1,1.820790410E0,6.824671745E0
4.775503860E0,3.980360329E-1,1.928529501E0,6.187814236E0
4.795503860E0,6.230909824E-1,1.885433793E0,7.088034153E0
4.815503860E0,4.052186310E-1,1.974019289E0,7.645883083E0
4.835503860E0,5.321113467E-1,2.019509077E0,7.978677273E0
4.855503860E0,3.740940094E-1,2.280477047E0,8.045714378E0
4.875503860E0,-2.076970041E-1,2.498349428E0,7.430405140E0
4.895503860E0,-4.830302000E-1,2.730587006E0,6.939593792E0
4.915503860E0,-3.681085110E-1,2.960430384E0,7.214926720E0
4.935503860E0,-1.502361596E-1,2.943670988E0,8.713697433E0
4.955503860E0,1.131260321E-1,3.187879562E0,9.460687637E0
4.975503860E0,5.105634928E-1,3.542221308E0,9.484629631E0
4.995503860E0,6.494272351E-1,3.918111086E0,8.869319916E0
5.015503860E0,7.691373229E-1,4.270058632E0,8.706514359E0
5.035503860E0,7.523778677E-1,4.380191803E0,8.941145897E0
5.055503860E0,3.645172119E-1,4.231751442E0,9.920374870E0
5.075503860E0,2.807201445E-1,4.016273499E0,1.163222885E1
5.095503860E0,3.262099922E-1,3.882198095E0,1.206079102E1
5.115503860E0,4.219780564E-1,3.774458885E0,1.142872143E1
5.135503860E0,7.236474752E-1,3.652354717E0,1.168250751E1
5.155503860E0,8.864531517E-1,3.417722940E0,1.267849541E1
5.175503860E0,2.304419130E-1,3.068169594E0,1.287242508E1
5.195503860E0,-2.890998423E-1,2.826355219E0,1.241034412E1
5.215503860E0,-7.009025216E-1,2.483984232E0,1.214458847E1
5.235503860E0,-9.738415480E-1,1.662773132E0,1.247498798E1
5.255503860E0,-8.541314602E-1,1.116895080E0,1.265215874E1
5.275503860E0,-5.237316489E-1,1.143231273E0,1.152927876E1
5.295503860E0,-3.441664875E-1,1.507149935E0,9.240421295E0
5.315503860E0,-5.165489912E-1,1.569399238E0,8.632294655E0
5.335503860E0,-5.309142470E-1,1.291671872E0,8.936357498E0
5.355503860E0,-2.819172442E-1,1.308431268E0,9.063250542E0
5.375503860E0,3.118447661E-1,1.397016644E0,9.364919662E0
5.395503860E0,6.518214345E-1,1.449689150E0,8.649053574E0
5.415503860E0,6.135141850E-1,1.471236944E0,7.765593052E0
5.435503860E0,6.853402257E-1,1.394622445E0,7.394492149E0
5.455503860E0,6.542156339E-1,1.334767461E0,7.052121162E0
5.475503860E0,3.118447661E-1,1.270123959E0,6.530185223E0
5.495503860E0,-5.686229095E-2,1.361103654E0,6.523002625E0
5.515503860E0,2.454056777E-2,1.547851443E0,7.528567314E0
5.535503860E0,-1.765723825E-1,1.887827992E0,8.292317390E0
5.555503860E0,-2.507926226E-1,2.242169857E0,8.002618790E0
5.575503860E0,-3.770867735E-2,2.551021814E0,7.844601631E0
5.595503860E0,3.812766075E-1,3.113659382E0,7.966706276E0
5.615503860E0,1.236006618E0,3.616441727E0,8.854954720E0
5.635503860E0,1.741183162E0,3.640383720E0,9.724050522E0
5.655503860E0,1.171363235E0,3.187879562E0,9.625887871E0
5.675503860E0,1.250970364E-1,2.505532026E0,8.708909035E0
5.695503860E0,1.250970364E-1,2.505532026E0,8.708909035E0
5.715503860E0,6.494272351E-1,2.395398855E0,8.605957985E0
5.735503860E0,2.334945202E0,2.852691412E0,7.993042469E0
5.755503860E0,2.334945202E0,2.852691412E0,7.993042469E0
5.775503860E0,2.334945202E0,2.852691412E0,7.993042469E0
5.795503860E0,2.334945202E0,2.852691412E0,7.993042469E0
5.815503860E0,2.334945202E0,2.852691412E0,7.993042469E0
5.835503860E0,2.334945202E0,2.852691412E0,7.993042469E0
5.855503860E0,8.768763542E-1,1.066616893E0,1.196502304E1
5.875503860E0,1.324592113E0,8.008604646E-1,1.329141045E1
5.895503860E0,8.337807655E-1,8.224082589E-1,1.326746845E1
5.915503860E0,2.328361124E-1,1.025915384E0,1.226190376E1
5.935503860E0,-7.362170517E-2,1.128866076E0,1.113423538E1
5.955503860E0,-6.404489279E-2,9.253589511E-1,1.101691914E1
5.975503860E0,-2.094926499E-2,1.195903778E0,1.008318043E1
5.995503860E0,2.855085433E-1,1.799242616E0,8.883685112E0
6.015503860E0,7.978677154E-1,2.369062662E0,7.926004887E0
6.035503860E0,9.917980433E-1,2.670732021E0,7.509413719E0
6.055503860E0,8.289923668E-1,2.531868219E0,7.890091896E0
6.075503860E0,5.033808947E-1,2.304419041E0,8.074444771E0
6.095503860E0,-6.584054790E-3,2.349909067E0,8.038532257E0
6.115503860E0,-3.130418658E-1,2.313995838E0,8.242039680E0
6.135503860E0,-5.285200477E-1,2.385822058E0,7.815871239E0
6.155503860E0,-3.465606868E-1,2.747346401E0,6.963535786E0
6.175503860E0,6.045359373E-2,2.984372377E0,7.408857346E0
6.195503860E0,4.698620737E-1,3.202244759E0,7.961917877E0
6.215503860E0,6.661866307E-1,3.456030130E0,8.637083054E0
6.235503860E0,5.776011348E-1,3.408146143E0,9.003395081E0
6.255503860E0,4.339490533E-1,3.257311344E0,9.563638687E0
6.275503860E0,5.512649417E-1,3.013102770E0,1.151012421E1
6.295503860E0,4.578910768E-1,3.166331768E0,1.233133602E1
6.315503860E0,1.801636815E-1,3.578134537E0,1.092354488E1
6.335503860E0,2.472013235E-1,4.059369087E0,1.001853657E1
6.355503860E0,1.145026922E0,4.430470467E0,1.047104073E1
6.375503860E0,1.599925280E0,3.982754469E0,1.236964321E1
6.395503860E0,6.422445774E-1,3.111265182E0,1.502481270E1
6.415503860E0,-7.583633661E-1,2.512714624E0,1.474229717E1
6.435503860E0,-1.299453020E0,2.452859640E0,1.190756226E1
6.455503860E0,-1.086369038E0,2.630030632E0,9.589975357E0
6.475503860E0,-1.153406620E0,1.954865694E0,1.026753426E1
6.495503860E0,-1.251568913E0,1.399410844E0,1.088284397E1
6.515503860E0,-1.239597917E0,1.341950059E0,1.015740108E1
6.535503860E0,-1.182137132E0,1.476025343E0,8.953117371E0
6.555503860E0,-1.309029818E0,1.394622445E0,8.634688377E0
6.575503860E0,-1.301847219E0,1.198297977E0,8.816647530E0
6.595503860E0,-1.431134105E0,1.119289279E0,8.591592789E0
6.615503860E0,-1.349731207E0,1.310825467E0,8.347384453E0
6.635503860E0,-1.184531331E0,1.504755735E0,8.376114845E0
6.655503860E0,-7.894880176E-1,1.600523829E0,8.510190010E0
6.675503860E0,-4.183867574E-1,1.653196216E0,8.438364029E0
6.695503860E0,-3.824737072E-1,1.775300503E0,7.799111843E0
6.715503860E0,-4.662707746E-1,1.914164305E0,7.277175903E0
6.735503860E0,-6.386532784E-1,2.081758261E0,7.262810707E0
6.755503860E0,-8.158242106E-1,2.302024841E0,7.523778915E0
6.775503860E0,-8.373720646E-1,2.531868219E0,7.638700485E0
6.795503860E0,-8.780734539E-1,2.649184227E0,7.368155956E0
6.815503860E0,-6.266822815E-1,2.900575399E0,7.092822552E0
6.835503860E0,-2.890998423E-1,3.185485363E0,7.875726700E0
6.855503860E0,1.250970364E-1,3.281253338E0,8.792705536E0
6.875503860E0,1.825578809E-1,3.317166567E0,9.338583946E0
6.895503860E0,6.284779310E-2,3.259705544E0,1.009036350E1
6.915503860E0,-4.189853091E-3,3.238157749E0,1.086369038E1
6.935503860E0,3.172317147E-2,3.585317135E0,1.072482681E1
6.955503860E0,2.017114908E-1,3.736151695E0,1.046625233E1
6.975503860E0,5.847837925E-1,3.702632904E0,1.006881523E1
6.995503860E0,1.118690729E0,3.666719913E0,1.086129570E1
7.015503860E0,8.792705536E-1,3.436876535E0,1.196502304E1
7.035503860E0,9.157821536E-2,3.494337320E0,1.106001472E1
7.055503860E0,6.278793812E-1,3.731363297E0,8.914810181E0
7.075503860E0,6.278793812E-1,3.731363297E0,8.914810181E0
7.095503860E0,6.278793812E-1,3.731363297E0,8.914810181E0
7.115503860E0,1.513733983E0,2.467224836E0,1.207994461E1
7.135503860E0,9.127894044E-1,2.488772631E0,1.140238571E1
7.155503860E0,8.792705536E-1,2.747346401E0,9.451110840E0
7.175503860E0,8.601169586E-1,2.960430384E0,7.918822289E0
7.195503860E0,1.030105233E0,2.905363798E0,8.186972618E0
7.215503860E0,1.362899303E0,2.665943623E0,9.257181168E0
7.235503860E0,1.607107878E0,2.709039211E0,9.453505516E0
7.255503860E0,1.413177609E0,2.706645012E0,8.529343605E0
7.275503860E0,1.224035621E0,2.584540844E0,7.739256859E0
7.295503860E0,1.049258947E0,2.426523447E0,7.916428089E0
7.315503860E0,7.954735160E-1,2.306813240E0,8.251616478E0
7.335503860E0,6.446388364E-1,2.364274263E0,8.182184219E0
7.355503860E0,5.392939448E-1,2.680308819E0,7.605181694E0
7.375503860E0,2.136825025E-1,2.890998602E0,7.198167324E0
7.395503860E0,-2.723404467E-1,2.967612982E0,6.908469200E0
7.415503860E0,-5.165489912E-1,3.111265182E0,6.439205647E0
7.435503860E0,-4.519055784E-1,3.367444754E0,7.114370346E0
7.455503860E0,2.879027426E-1,3.937264681E0,7.966706276E0
7.475503860E0,6.350619793E-1,4.277241230E0,8.797493935E0
7.495503860E0,3.812766075E-1,4.155137062E0,8.933963776E0
7.515503860E0,-1.023521200E-1,4.061763287E0,8.778340340E0
7.535503860E0,-5.644330382E-1,4.169502258E0,8.831012726E0
7.555503860E0,-7.942764163E-1,4.320336819E0,9.419986725E0
7.575503860E0,-5.692214370E-1,4.703409195E0,1.009994030E1
7.595503860E0,-2.436100245E-1,5.017049789E0,1.008318043E1
7.615503860E0,-8.319851011E-2,4.969165802E0,9.855731010E0
7.635503860E0,6.284779310E-2,4.583699226E0,1.070567322E1
7.655503860E0,-3.034650683E-1,4.365826607E0,1.220444298E1
7.675503860E0,-1.378461599E0,3.776853085E0,1.131858826E1
7.695503860E0,-1.735197663E0,3.657143116E0,1.055004978E1
7.715503860E0,-1.471835494E0,4.037821293E0,1.018373680E1
7.735503860E0,-7.344213724E-1,3.805583715E0,1.002571964E1
7.755503860E0,-9.044097066E-1,2.998737574E0,1.073679733E1
7.775503860E0,-1.857301950E0,1.899798989E0,1.094030476E1
7.795503860E0,-2.391208887E0,1.356315255E0,8.807070732E0
7.815503860E0,-2.724003077E0,1.950077295E0,6.997054577E0
7.835503860E0,-2.587533474E0,3.400963545E0,8.435969353E0
7.855503860E0,-3.770867735E-2,2.165555477E0,8.481459618E0
7.875503860E0,-5.931634903E-1,1.552639842E0,9.118317604E0
7.895503860E0,-1.208473325E0,1.169567585E0,9.645041466E0
7.895503860E0,-1.208473325E0,1.169567585E0,9.645041466E0
7.935503860E0,-6.410474777E-1,2.088941097E0,8.967482567E0
7.955503860E0,-3.298012912E-1,2.457648039E0,8.095993042E0
7.975503860E0,6.045359373E-2,2.536656618E0,7.454347134E0
7.995503860E0,-4.614823759E-1,2.244564056E0,8.388085365E0
8.015503860E0,-5.093663931E-1,2.390610456E0,9.896432877E0
8.035503860E0,-4.614823759E-1,2.448071241E0,9.613917351E0
8.055503860E0,-9.618705511E-1,2.723404408E0,7.325059891E0
8.075503860E0,-6.266822815E-1,3.252522945E0,6.254851818E0
8.095503860E0,-8.230068088E-1,3.333925962E0,8.364143372E0
8.115503860E0,-8.924387097E-1,3.396175146E0,9.870096207E0
8.135503860E0,-1.371279001E0,2.780865192E0,1.161786366E1
8.155503860E0,-4.207809567E-1,2.474407434E0,1.066018295E1
8.175503860E0,-1.693897694E-1,3.166331768E0,9.645041466E0
8.195503860E0,-9.786299467E-1,3.884592295E0,8.979453087E0
8.215503860E0,-1.462258697E0,3.784035683E0,9.606734276E0
8.235503860E0,-1.589151382E0,3.175908566E0,1.157237434E1
8.255503860E0,-1.589151382E0,3.175908566E0,1.157237434E1
8.275503860E0,-1.589151382E0,3.175908566E0,1.157237434E1
8.295503860E0,-1.589151382E0,3.175908566E0,1.157237434E1
8.315503860E0,-1.589151382E0,3.175908566E0,1.157237434E1
8.335503860E0,-8.517372608E-1,4.432864666E0,1.026992798E1
8.355503860E0,-4.950011969E-1,3.975571871E0,1.008796883E1
8.375503860E0,-5.333084464E-1,3.245340347E0,9.661801338E0
8.395503860E0,-5.333084464E-1,3.245340347E0,9.661801338E0
8.415503860E0,-1.795052767E0,1.543063045E0,9.958682060E0
8.435503860E0,-2.307411909E0,1.234210968E0,9.230844498E0
8.455503860E0,-2.324171305E0,1.569399238E0,9.319430351E0
8.475503860E0,-7.751228213E-1,2.725798607E0,8.938752174E0
8.495503860E0,-5.925649032E-2,2.393004656E0,9.144653320E0
8.515503860E0,-5.883750916E-1,1.602918029E0,1.020767879E1
8.535503860E0,5.536591411E-1,4.485537052E0,9.305065155E0
8.555503860E0,1.504157186E0,5.127182961E0,7.765593052E0
8.575503860E0,1.027711034E0,4.176684856E0,8.359354973E0
8.595503860E0,8.505401611E-1,2.431311846E0,9.417592049E0
8.615503860E0,-4.327519536E-1,3.910928488E0,6.415263653E0
8.635503860E0,-6.165069342E-2,4.492719650E0,7.480683327E0
8.655503860E0,-9.810241461E-1,3.582922935E0,6.688202381E0
8.675503860E0,-1.031302333E0,3.590105534E0,6.618770599E0
8.695503860E0,-1.850119352E0,2.443282843E0,4.988319397E0
8.715503860E0,-1.850119352E0,2.443282843E0,4.988319397E0
8.735503860E0,-1.146224022E0,3.779247284E0,5.378573895E0
8.755503860E0,-1.972223639E0,4.085705280E0,5.529408932E0
8.775503860E0,-1.440710902E0,4.363432407E0,5.888539314E0
8.795503860E0,-1.230021119E0,5.096058369E0,6.467936039E0
8.815503860E0,1.753752679E-1,5.507861137E0,6.673837185E0
8.835503860E0,-1.048061848E0,5.989095688E0,6.678625584E0
8.855503860E0,2.495955229E-1,6.599617004E0,6.616376400E0
8.875503860E0,2.270301819E0,7.566874504E0,9.408015251E0
8.895503860E0,1.183334231E0,6.101623058E0,1.212304020E1
8.915503860E0,-9.187749028E-1,4.535815239E0,1.144069290E1
8.935503860E0,1.516128182E0,5.254075527E0,9.927556992E0
8.955503860E0,1.123479128E0,6.489483833E0,1.074637413E1
8.975503860E0,-5.548562407E-1,4.485537052E0,1.181897640E1
8.995503860E0,-7.942764163E-1,3.192667961E0,1.265934181E1
9.015503860E0,-6.051344872E-1,3.934870481E0,1.158913326E1
9.035503860E0,-5.931634903E-1,4.095282078E0,1.072961521E1
9.055503860E0,-5.907692909E-1,3.084928989E0,1.010951710E1
9.075503860E0,-5.907692909E-1,3.084928989E0,1.010951710E1
9.095503860E0,-5.907692909E-1,3.084928989E0,1.010951710E1
9.115503860E0,-5.907692909E-1,3.084928989E0,1.010951710E1
9.135503860E0,-1.644217968E0,3.001131773E0,6.123170853E0
9.155503860E0,-1.395220995E0,2.955641985E0,4.581305027E0
9.175503860E0,-1.218050122E0,2.498349428E0,3.032256365E0
9.195503860E0,-2.448669672E0,1.686715126E0,5.938817501E0
9.215503860E0,2.472013235E-1,6.284779310E-1,7.681796074E0
9.235503860E0,2.416347980E0,1.722628117E0,9.285911560E0
9.255503860E0,3.117849112E0,1.997961283E0,1.033936024E1
9.275503860E0,1.195305228E0,1.641225219E0,1.006402683E1
9.295503860E0,5.321113467E-1,1.499967337E0,1.045907021E1
9.315503860E0,5.321113467E-1,1.499967337E0,1.045907021E1
9.335503860E0,5.321113467E-1,1.499967337E0,1.045907021E1
9.355503860E0,5.321113467E-1,1.499967337E0,1.045907021E1
9.375503860E0,-3.537433147E-1,2.895787001E0,8.974664688E0
9.395503860E0,-4.327519536E-1,3.010708570E0,8.531737328E0
9.415503860E0,-1.406593472E-1,3.092111588E0,8.668207169E0
9.435503860E0,-1.238999367E-1,2.620453835E0,1.038724422E1
9.455503860E0,5.087678507E-2,1.957259893E0,1.162983513E1
9.475503860E0,1.945288926E-1,2.165555477E0,1.122760868E1
9.495503860E0,1.945288926E-1,2.165555477E0,1.122760868E1
9.515503860E0,1.310226917E0,1.770512104E0,1.145266342E1
9.535503860E0,1.394023895E0,1.351526856E0,1.283411789E1
9.555503860E0,4.674678743E-1,9.445125461E-1,1.287003136E1
9.575503860E0,5.321113467E-1,1.193509579E0,1.181179428E1
9.595503860E0,7.882909179E-1,1.413776159E0,1.162504673E1
9.615503860E0,1.616684675E0,1.622071624E0,1.169447803E1
9.635503860E0,2.045246840E0,1.602918029E0,1.206557941E1
9.655503860E0,2.045246840E0,1.602918029E0,1.206557941E1
9.675503860E0,2.045246840E0,1.602918029E0,1.206557941E1
9.695503860E0,2.045246840E0,1.602918029E0,1.206557941E1
9.715503860E0,2.045246840E0,1.602918029E0,1.206557941E1
9.735503860E0,2.045246840E0,1.602918029E0,1.206557941E1
9.755503860E0,3.318962097E0,6.883329749E-1,9.264363289E0
9.775503860E0,2.658162355E0,4.082113802E-1,1.017894840E1
9.795503860E0,1.999756932E0,2.262520641E-1,9.096769333E0
9.815503860E0,1.999756932E0,2.262520641E-1,9.096769333E0
9.835503860E0,2.330156803E0,1.612494826E0,5.182249546E0
9.855503860E0,2.986168146E0,2.005143881E0,5.268440723E0
9.875503860E0,2.157774210E0,1.976413488E0,6.360196590E0
9.895503860E0,2.057217836E0,1.181538582E0,6.458359241E0
9.915503860E0,6.829460263E-1,2.232593060E0,7.188590527E0
9.935503860E0,5.632359385E-1,2.610877037E0,6.410475254E0
9.955503860E0,1.597531080E0,3.106476784E0,5.364208698E0
9.975503860E0,2.186504602E0,3.111265182E0,3.977966070E0
9.995503860E0,2.797026157E0,3.496731520E0,4.404133797E0
1.001550386E1,2.928707123E0,2.230198860E0,7.629123688E0
1.003550386E1,2.557605982E0,1.447294950E0,1.015021801E1
1.005550386E1,3.812167645E0,1.368286252E0,1.208712769E1
1.007550386E1,3.484162092E0,1.528697729E0,1.261624622E1
1.009550386E1,3.484162092E0,1.528697729E0,1.261624622E1
1.011550386E1,3.484162092E0,1.528697729E0,1.261624622E1
1.013550386E1,3.484162092E0,1.528697729E0,1.261624622E1
1.015550386E1,2.275090218E0,2.220622063E0,1.040639782E1
1.017550386E1,3.594295263E0,2.764105797E0,1.024838066E1
1.019550386E1,4.597465992E0,3.111265182E0,1.161307526E1
1.021550386E1,4.597465992E0,3.111265182E0,1.161307526E1
1.023550386E1,2.114678621E0,1.883039594E0,1.104325581E1
1.025550386E1,1.868075848E0,1.641225219E0,1.029386997E1
1.027550386E1,2.538452387E0,1.215057373E0,1.148378849E1
1.029550386E1,2.722805977E0,7.625532150E-1,1.238879681E1
1.031550386E1,2.320580006E0,5.781996846E-1,1.176630402E1
1.033550386E1,1.762730956E0,7.410054207E-1,9.542090416E0
1.035550386E1,1.322197914E0,1.030703783E0,7.416039944E0
1.037550386E1,1.020528436E0,9.109937549E-1,7.602787495E0
1.039550386E1,6.398503780E-1,4.656722248E-1,8.177395821E0
1.041550386E1,8.289923668E-1,4.465186298E-1,8.467094421E0
1.043550386E1,1.360505104E0,4.656722248E-1,7.981071472E0
1.045550386E1,2.200869799E0,1.073799491E0,6.891709805E0
1.047550386E1,2.200869799E0,1.073799491E0,6.891709805E0
1.049550386E1,2.200869799E0,1.073799491E0,6.891709805E0
1.051550386E1,2.200869799E0,1.073799491E0,6.891709805E0
1.053550386E1,2.598307371E0,5.853823423E-1,6.410475254E0
1.055550386E1,2.598307371E0,5.853823423E-1,6.410475254E0
1.057550386E1,2.598307371E0,5.853823423E-1,6.410475254E0
1.059550386E1,2.598307371E0,5.853823423E-1,6.410475254E0
1.061550386E1,2.598307371E0,5.853823423E-1,6.410475254E0
1.063550386E1,4.705204964E0,1.413776159E0,3.199850559E0
1.065550386E1,4.140173435E0,5.614402890E-1,3.901351690E0
1.067550386E1,2.457049608E0,8.499415964E-2,4.777629375E0
1.069550386E1,2.035670042E0,-5.231330991E-1,3.458424330E0
1.071550386E1,3.057994127E0,-9.277531505E-1,2.358288616E-1
1.073550386E1,5.366004467E0,-1.159990668E0,4.153940082E-1
1.075550386E1,7.101800919E0,-2.086546898E0,1.708262920E0
1.077550386E1,7.197568893E0,-3.942053080E0,3.314772367E0
1.079550386E1,6.002861977E0,-6.848613739E0,3.242946148E0
1.081550386E1,7.547122478E0,-8.512583733E0,2.711433411E0
1.083550386E1,9.876680374E0,-8.979453087E0,8.511387110E-1
1.085550386E1,1.056621075E1,-1.115099430E1,-8.655039072E-1
1.087550386E1,1.056621075E1,-1.115099430E1,-8.655039072E-1
1.089550386E1,1.056621075E1,-1.115099430E1,-8.655039072E-1
1.091550386E1,1.056621075E1,-1.115099430E1,-8.655039072E-1
1.093550386E1,1.056621075E1,-1.115099430E1,-8.655039072E-1
1.095550386E1,1.056621075E1,-1.115099430E1,-8.655039072E-1
1.097550386E1,1.056621075E1,-1.115099430E1,-8.655039072E-1
1.099550386E1,1.056621075E1,-1.115099430E1,-8.655039072E-1
1.101550386E1,1.056621075E1,-1.115099430E1,-8.655039072E-1
1.103550386E1,1.056621075E1,-1.115099430E1,-8.655039072E-1
1.105550386E1,1.056621075E1,-1.115099430E1,-8.655039072E-1
1.107550386E1,1.056621075E1,-1.115099430E1,-8.655039072E-1
1.109550386E1,9.558251381E0,-6.209362030E0,9.540894032E-1
1.111550386E1,8.368333817E0,-5.742492676E0,1.042674899E0
1.113550386E1,7.499238491E0,-5.349843502E0,9.157821536E-1
1.115550386E1,7.022792339E0,-4.835090160E0,3.675099611E-1
1.117550386E1,6.646902561E0,-4.382586002E0,-1.017535701E-1
1.119550386E1,6.646902561E0,-4.382586002E0,-1.017535701E-1
1.121550386E1,6.682815552E0,-4.176684856E0,-2.190694511E-1
1.123550386E1,6.994061947E0,-4.770446777E0,-5.351040959E-1
1.125550386E1,6.994061947E0,-4.770446777E0,-5.351040959E-1
1.127550386E1,6.994061947E0,-4.770446777E0,-5.351040959E-1
1.129550386E1,6.994061947E0,-4.770446777E0,-5.351040959E-1
1.131550386E1,6.994061947E0,-4.770446777E0,-5.351040959E-1
1.133550386E1,6.994061947E0,-4.770446777E0,-5.351040959E-1
1.135550386E1,6.994061947E0,-4.770446777E0,-5.351040959E-1
1.137550386E1,6.994061947E0,-4.770446777E0,-5.351040959E-1
1.139550386E1,6.994061947E0,-4.770446777E0,-5.351040959E-1
1.141550386E1,6.994061947E0,-4.770446777E0,-5.351040959E-1
1.143550386E1,6.994061947E0,-4.770446777E0,-5.351040959E-1
1.145550386E1,6.994061947E0,-4.770446777E0,-5.351040959E-1
1.147550386E1,1.392048740E1,-1.030344677E1,3.060986757E0
1.147550386E1,1.392048740E1,-1.030344677E1,3.060986757E0
1.151550386E1,1.224694061E1,-9.441534042E0,2.455253839E0
1.153550386E1,1.129165363E1,-8.249221802E0,1.655590534E0
1.155550386E1,1.152389145E1,-7.301117897E0,4.289212227E0
1.157550386E1,1.128686523E1,-7.562086105E0,6.894104004E0
1.159550386E1,1.128686523E1,-7.562086105E0,6.894104004E0
1.161550386E1,8.557475090E0,-8.931569099E0,5.270834923E0
1.163550386E1,8.274959564E0,-8.639476776E0,5.313930511E0
1.165550386E1,8.368333817E0,-8.400056839E0,5.445611954E0
1.167550386E1,7.444171429E0,-8.170213699E0,5.469553947E0
1.169550386E1,6.345232964E0,-7.612364292E0,5.972336292E0
1.171550386E1,5.468955040E0,-6.563704014E0,6.238092422E0
1.173550386E1,4.628590584E0,-5.538985729E0,6.487089634E0
1.175550386E1,4.355651379E0,-4.361038208E0,6.977900982E0
1.177550386E1,3.620631456E0,-3.580528736E0,6.752845764E0
1.179550386E1,2.988562346E0,-3.003525972E0,7.123947144E0
1.181550386E1,2.519298792E0,-2.230198860E0,7.468712330E0
1.183550386E1,2.208052635E0,-1.353921056E0,6.867767811E0
1.185550386E1,1.540070295E0,-4.297592044E-1,6.075286865E0
1.187550386E1,1.271919608E0,4.824316502E-1,5.685031891E0
1.189550386E1,1.032499433E0,9.205705523E-1,6.022614479E0
1.191550386E1,6.566098332E-1,8.631097078E-1,6.628347397E0
1.193550386E1,6.302735806E-1,1.286883354E0,6.822277546E0
1.195550386E1,1.032499433E0,1.720233917E0,7.708132267E0
1.197550386E1,6.183025837E-1,1.679532528E0,8.256404877E0
1.199550386E1,-2.460042238E-1,1.351526856E0,7.612364292E0
1.201550386E1,-2.531868219E-1,1.768117905E0,7.765593052E0
1.203550386E1,2.932897024E-2,2.302024841E0,8.517372131E0
1.205550386E1,-5.925649032E-2,2.230198860E0,9.776722908E0
1.207550386E1,-7.009025216E-1,2.064998865E0,9.860519409E0
1.209550386E1,-1.076792240E0,2.541445017E0,9.226056099E0
1.211550386E1,-9.690531492E-1,3.424905539E0,9.338583946E0
1.213550386E1,-7.128735781E-1,3.657143116E0,9.939528465E0
1.215550386E1,-5.285200477E-1,3.901351690E0,9.779116631E0
1.217550386E1,-8.876502514E-1,3.664325714E0,9.937133789E0
1.219550386E1,-1.598728180E0,2.646790028E0,1.085650730E1
1.221550386E1,-2.161365509E0,1.804031014E0,1.091396809E1
1.223550386E1,-2.297835112E0,1.655590534E0,9.783905029E0
1.225550386E1,-1.371279001E0,2.637213230E0,8.622717857E0
1.227550386E1,-9.115923047E-1,3.032256365E0,7.990648270E0
1.229550386E1,-9.115923047E-1,3.032256365E0,7.990648270E0
1.231550386E1,-9.115923047E-1,3.032256365E0,7.990648270E0
1.233550386E1,-9.115923047E-1,3.032256365E0,7.990648270E0
1.235550386E1,-9.115923047E-1,3.032256365E0,7.990648270E0
1.237550386E1,-9.115923047E-1,3.032256365E0,7.990648270E0
1.239550386E1,-9.115923047E-1,3.032256365E0,7.990648270E0
1.241550386E1,-1.406593472E-1,3.333925962E0,7.425616741E0
1.243550386E1,-1.406593472E-1,3.333925962E0,7.425616741E0
1.245550386E1,-1.406593472E-1,3.333925962E0,7.425616741E0
1.247550386E1,-1.406593472E-1,3.333925962E0,7.425616741E0
1.249550386E1,-1.406593472E-1,3.333925962E0,7.425616741E0
1.251550386E1,-1.406593472E-1,3.333925962E0,7.425616741E0
1.253550386E1,-1.406593472E-1,3.333925962E0,7.425616741E0
1.255550386E1,-1.406593472E-1,3.333925962E0,7.425616741E0
1.257550386E1,-1.406593472E-1,3.333925962E0,7.425616741E0
1.259550386E1,-1.406593472E-1,3.333925962E0,7.425616741E0
1.261550386E1,-1.406593472E-1,3.333925962E0,7.425616741E0
1.263550386E1,-1.406593472E-1,3.333925962E0,7.425616741E0
1.265550386E1,-1.406593472E-1,3.333925962E0,7.425616741E0
1.267550386E1,3.788824081E-1,6.353013992E0,8.967482567E0
1.267550386E1,3.788824081E-1,6.353013992E0,8.967482567E0
1.271550386E1,3.788824081E-1,6.353013992E0,8.967482567E0
1.273550386E1,3.788824081E-1,6.353013992E0,8.967482567E0
1.275550386E1,3.788824081E-1,6.353013992E0,8.967482567E0
1.277550386E1,3.788824081E-1,6.353013992E0,8.967482567E0
1.279550386E1,3.788824081E-1,6.353013992E0,8.967482567E0
1.281550386E1,3.788824081E-1,6.353013992E0,8.967482567E0
1.283550386E1,3.788824081E-1,6.353013992E0,8.967482567E0
1.285550386E1,3.788824081E-1,6.353013992E0,8.967482567E0
1.287550386E1,3.788824081E-1,6.353013992E0,8.967482567E0
1.289550386E1,3.788824081E-1,6.353013992E0,8.967482567E0
1.291550386E1,3.788824081E-1,6.353013992E0,8.967482567E0
1.293550386E1,3.788824081E-1,6.353013992E0,8.967482567E0
1.295550386E1,3.788824081E-1,6.353013992E0,8.967482567E0
1.297550386E1,3.788824081E-1,6.353013992E0,8.967482567E0
1.299550386E1,3.788824081E-1,6.353013992E0,8.967482567E0
1.301550386E1,3.788824081E-1,6.353013992E0,8.967482567E0
1.303550386E1,3.788824081E-1,6.353013992E0,8.967482567E0
1.305550386E1,3.788824081E-1,6.353013992E0,8.967482567E0
1.307550386E1,3.788824081E-1,6.353013992E0,8.967482567E0
1.309550386E1,3.788824081E-1,6.353013992E0,8.967482567E0
1.311550386E1,3.788824081E-1,6.353013992E0,8.967482567E0
1.313550386E1,3.788824081E-1,6.353013992E0,8.967482567E0
1.315550386E1,3.788824081E-1,6.353013992E0,8.967482567E0
1.317550386E1,3.788824081E-1,6.353013992E0,8.967482567E0
1.319550386E1,3.788824081E-1,6.353013992E0,8.967482567E0
1.321550386E1,3.788824081E-1,6.353013992E0,8.967482567E0
1.323550386E1,3.788824081E-1,6.353013992E0,8.967482567E0
1.325550386E1,3.788824081E-1,6.353013992E0,8.967482567E0
1.327550386E1,3.788824081E-1,6.353013992E0,8.967482567E0
1.329550386E1,3.788824081E-1,6.353013992E0,8.967482567E0
1.331550386E1,3.788824081E-1,6.353013992E0,8.967482567E0
1.333550386E1,3.788824081E-1,6.353013992E0,8.967482567E0
1.335550386E1,-4.782418013E-1,5.503072739E0,1.037048435E1
1.337550386E1,1.825578809E-1,6.113594055E0,9.707290649E0
1.339550386E1,1.825578809E-1,6.113594055E0,9.707290649E0
1.341550386E1,1.825578809E-1,6.113594055E0,9.707290649E0
1.343550386E1,1.825578809E-1,6.113594055E0,9.707290649E0
1.345550386E1,6.733692288E-1,3.077746391E0,1.300889492E1
1.347550386E1,9.157821536E-2,1.938106298E0,1.293228054E1
1.349550386E1,-1.981201917E-1,1.401805043E0,1.237443161E1
1.351550386E1,1.538274586E-1,1.727416515E0,1.114620590E1
1.353550386E1,5.728127360E-1,2.309207439E0,9.508571625E0
1.355550386E1,7.643488646E-1,3.017891169E0,8.103176117E0
1.357550386E1,8.409633636E-1,3.491943121E0,6.731297970E0
1.359550386E1,6.063315868E-1,3.649960518E0,6.302735806E0
1.361550386E1,3.884592354E-1,3.772064686E0,6.010643482E0
1.363550386E1,-2.436100245E-1,3.468001127E0,6.453570843E0
1.365550386E1,-2.100912035E-1,3.321954966E0,7.040150166E0
1.367550386E1,1.657984704E-1,3.618835926E0,7.114370346E0
1.369550386E1,2.448071241E-1,4.100070477E0,6.788758755E0
1.371550386E1,6.763619930E-2,4.485537052E0,6.262034416E0
1.373550386E1,-2.148796022E-1,4.902127743E0,6.096834660E0
1.375550386E1,-5.237316489E-1,4.885368347E0,6.896498203E0
1.377550386E1,-1.067215443E0,4.456806660E0,7.437587738E0
1.379550386E1,-1.390432596E0,4.272452831E0,7.811082840E0
1.381550386E1,-8.661024570E-1,4.871003151E0,8.007407188E0
1.383550386E1,-4.590881765E-1,5.333084106E0,8.093599319E0
1.385550386E1,-7.392097712E-1,5.534197330E0,8.292317390E0
1.387550386E1,-1.052850246E0,5.555745125E0,8.737639427E0
1.389550386E1,-1.289876223E0,5.785588264E0,8.584410667E0
1.391550386E1,-1.581968784E0,6.171054840E0,8.548497200E0
1.393550386E1,-1.165377736E0,6.446388245E0,9.326612473E0
1.395550386E1,-7.535749674E-1,6.561309814E0,1.043273354E1
1.397550386E1,-3.920505345E-1,6.463147640E0,1.169447803E1
1.399550386E1,-8.589198589E-1,6.161478043E0,1.175912189E1
1.401550386E1,-1.682525277E0,6.226121426E0,9.736021042E0
1.403550386E1,-2.094327927E0,6.760028362E0,8.550890923E0
1.405550386E1,-1.706467271E0,6.709750175E0,8.780735016E0
1.407550386E1,-8.756792545E-1,6.336254597E0,9.501389503E0
1.409550386E1,-7.655459642E-1,5.254075527E0,9.872490883E0
1.411550386E1,-1.304241419E0,4.449624062E0,9.245209694E0
1.413550386E1,-1.854907751E0,3.719392300E0,9.204508781E0
1.415550386E1,-2.214038134E0,3.398569345E0,8.852560997E0
1.417550386E1,-2.446275473E0,3.321954966E0,8.112752914E0
1.419550386E1,-2.764704466E0,3.420117140E0,7.451952934E0
1.421550386E1,-2.673724651E0,3.463212729E0,7.111976147E0
1.423550386E1,-2.388814688E0,3.527856112E0,7.497442722E0
1.425550386E1,-2.008136749E0,3.590105534E0,7.729680061E0
1.427550386E1,-1.392826796E0,3.551798105E0,8.438364029E0
1.429550386E1,-1.249174714E0,3.355473757E0,8.826224327E0
1.431550386E1,-1.081580639E0,3.271676540E0,8.998606682E0
1.433550386E1,-1.134253025E0,3.570951939E0,8.306682587E0
1.435550386E1,-1.634641171E0,3.846285105E0,6.800729752E0
1.437550386E1,-1.962646842E0,4.396951199E0,5.517437935E0
1.439550386E1,-1.883638144E0,5.009867191E0,4.916493416E0
1.441550386E1,-2.015319347E0,5.371391296E0,5.117606163E0
1.443550386E1,-2.039261341E0,5.565321922E0,5.639542103E0
1.445550386E1,-2.039261341E0,5.565321922E0,5.639542103E0
1.447550386E1,-2.039261341E0,5.565321922E0,5.639542103E0
1.449550386E1,-2.039261341E0,5.565321922E0,5.639542103E0
1.451550386E1,-2.039261341E0,5.565321922E0,5.639542103E0
1.453550386E1,-2.039261341E0,5.565321922E0,5.639542103E0
1.455550386E1,-2.039261341E0,5.565321922E0,5.639542103E0
1.457550386E1,-2.039261341E0,5.565321922E0,5.639542103E0
1.459550386E1,-2.039261341E0,5.565321922E0,5.639542103E0
1.461550386E1,-2.039261341E0,5.565321922E0,5.639542103E0
1.463550386E1,-2.039261341E0,5.565321922E0,5.639542103E0
1.465550386E1,-2.039261341E0,5.565321922E0,5.639542103E0
1.467550386E1,-2.039261341E0,5.565321922E0,5.639542103E0
1.469550386E1,-2.039261341E0,5.565321922E0,5.639542103E0
1.471550386E1,-2.039261341E0,5.565321922E0,5.639542103E0
1.473550386E1,-2.039261341E0,5.565321922E0,5.639542103E0
1.475550386E1,-2.039261341E0,5.565321922E0,5.639542103E0
1.477550386E1,-2.039261341E0,5.565321922E0,5.639542103E0
1.479550386E1,-2.039261341E0,5.565321922E0,5.639542103E0
1.481550386E1,-2.039261341E0,5.565321922E0,5.639542103E0
1.483550386E1,-2.039261341E0,5.565321922E0,5.639542103E0
1.485550386E1,-2.039261341E0,5.565321922E0,5.639542103E0
1.487550386E1,-2.039261341E0,5.565321922E0,5.639542103E0
1.489550386E1,-2.039261341E0,5.565321922E0,5.639542103E0
1.491550386E1,-2.039261341E0,5.565321922E0,5.639542103E0
1.493550386E1,-2.039261341E0,5.565321922E0,5.639542103E0
1.495550386E1,-2.039261341E0,5.565321922E0,5.639542103E0
1.497550386E1,-2.039261341E0,5.565321922E0,5.639542103E0
1.499550386E1,-2.039261341E0,5.565321922E0,5.639542103E0
1.501550386E1,-2.039261341E0,5.565321922E0,5.639542103E0
1.503550386E1,-2.039261341E0,5.565321922E0,5.639542103E0
1.505550386E1,-2.039261341E0,5.565321922E0,5.639542103E0
1.507550386E1,-2.039261341E0,5.565321922E0,5.639542103E0
1.509550386E1,-2.039261341E0,5.565321922E0,5.639542103E0
1.511550386E1,-2.039261341E0,5.565321922E0,5.639542103E0
1.513550386E1,-2.039261341E0,5.565321922E0,5.639542103E0
1.515550386E1,-2.039261341E0,5.565321922E0,5.639542103E0
1.517550386E1,-2.039261341E0,5.565321922E0,5.639542103E0
1.519550386E1,-2.039261341E0,5.565321922E0,5.639542103E0
1.521550386E1,-2.039261341E0,5.565321922E0,5.639542103E0
1.523550386E1,-2.039261341E0,5.565321922E0,5.639542103E0
1.525550386E1,-2.039261341E0,5.565321922E0,5.639542103E0
1.527550386E1,-2.039261341E0,5.565321922E0,5.639542103E0
1.529550386E1,-2.039261341E0,5.565321922E0,5.639542103E0
1.531550386E1,-2.039261341E0,5.565321922E0,5.639542103E0
1.533550386E1,-2.747945070E0,6.345831394E0,1.119408989E1
1.535550386E1,-3.221997023E0,6.582857609E0,1.025316906E1
1.537550386E1,-2.843713045E0,7.198167324E0,8.955511093E0
1.539550386E1,-2.271498919E0,7.305906296E0,8.316259384E0
1.541550386E1,-2.024896145E0,6.716932774E0,8.031349182E0
1.543550386E1,-2.202066898E0,5.656301498E0,7.885303497E0
1.545550386E1,-2.767098665E0,4.528632641E0,8.428787231E0
1.547550386E1,-2.968211651E0,3.803189516E0,9.149441719E0
1.549550386E1,-2.874837637E0,3.515885115E0,8.898050308E0
1.551550386E1,-2.759916067E0,3.688267708E0,7.803900242E0
1.553550386E1,-2.767098665E0,3.848679304E0,6.688202381E0
1.555550386E1,-2.585139275E0,4.059369087E0,6.259640217E0
1.557550386E1,-2.106298923E0,4.049792290E0,6.590040207E0
1.559550386E1,-1.783081770E0,3.812766314E0,7.399280548E0
1.561550386E1,-1.818994761E0,3.647566319E0,7.588422298E0
1.563550386E1,-1.871667147E0,3.740940094E0,7.301117897E0
1.565550386E1,-1.704073071E0,4.241328239E0,6.956353188E0
1.567550386E1,-1.818994761E0,4.574122429E0,6.748057365E0
1.569550386E1,-1.986588836E0,4.722562790E0,6.898892403E0
1.571550386E1,-1.931522250E0,4.997896194E0,6.831854343E0
1.573550386E1,-1.795052767E0,5.292382717E0,6.697779179E0
1.575550386E1,-1.706467271E0,5.500678539E0,6.992266178E0
1.577550386E1,-1.581968784E0,5.720944881E0,7.265204906E0
1.579550386E1,-1.613093376E0,5.665878296E0,7.746439457E0
1.581550386E1,-1.404797792E0,5.632359505E0,8.692149162E0
1.583550386E1,-9.714473486E-1,5.874173641E0,8.828619003E0
1.585550386E1,-6.482301354E-1,6.053739071E0,8.802282333E0
1.587550386E1,-6.889315248E-1,6.151901245E0,8.651448250E0
1.589550386E1,-5.500678420E-1,6.432023048E0,8.409633636E0
1.591550386E1,-5.955576897E-1,6.496666431E0,8.601169586E0
1.593550386E1,-4.327519536E-1,6.566098213E0,8.859743118E0
1.595550386E1,-8.080431074E-2,6.475118637E0,9.566033363E0
1.597550386E1,-4.973953962E-1,6.228515625E0,9.848548889E0
1.599550386E1,-1.055244446E0,6.326677799E0,9.044096947E0
1.601550386E1,-7.799112201E-1,6.812700748E0,8.665813446E0
1.603550386E1,2.400187254E-1,7.325059891E0,9.120711327E0
1.605550386E1,4.890156984E-1,7.006631374E0,9.973047256E0
1.607550386E1,7.781155407E-3,5.989095688E0,1.068891335E1
1.609550386E1,-5.404910445E-1,5.187037945E0,1.040879154E1
1.611550386E1,-7.152677774E-1,4.727351189E0,9.623494148E0
1.613550386E1,-8.445546627E-1,4.370615005E0,9.027337074E0
1.615550386E1,-6.194996834E-1,3.999513865E0,8.919598579E0
1.617550386E1,-4.495113790E-1,3.700238705E0,9.036913872E0
1.619550386E1,-6.099228859E-1,3.640383720E0,8.036137581E0
1.621550386E1,-5.093663931E-1,4.344278812E0,6.173449039E0
1.623550386E1,-5.907692909E-1,4.945223808E0,4.820724964E0
1.625550386E1,-7.990648150E-1,5.148730755E0,4.624400616E0
1.627550386E1,-8.852560520E-1,4.921281815E0,5.926846504E0
1.629550386E1,-1.086369038E0,4.509479046E0,7.356184959E0
1.631550386E1,-1.541267395E0,4.305971622E0,7.679401875E0
1.633550386E1,-1.890820742E0,4.444835663E0,7.071274757E0
1.635550386E1,-1.811812162E0,4.926070213E0,6.403292656E0
1.637550386E1,-1.488594890E0,5.586869717E0,5.934029102E0
1.639550386E1,-1.438316703E0,5.934029102E0,5.883750439E0
1.641550386E1,-1.304241419E0,5.948394299E0,6.489483833E0
1.643550386E1,-1.337760210E0,5.979518890E0,7.090428352E0
1.645550386E1,-1.148618221E0,6.369773388E0,7.334636688E0
1.647550386E1,-1.256357312E0,6.556521416E0,7.897274494E0
1.649550386E1,-1.514931083E0,6.578069210E0,8.234856606E0
1.651550386E1,-1.737591863E0,6.819883347E0,8.000225067E0
1.653550386E1,-1.615487576E0,7.171831131E0,7.858967304E0
1.655550386E1,-1.598728180E0,7.358579159E0,8.055291176E0
1.657550386E1,-1.795052767E0,7.444770336E0,7.966706276E0
1.659550386E1,-1.534084797E0,7.365761757E0,8.275558472E0
1.661550386E1,-1.273116708E0,7.303512096E0,8.754398346E0
1.663550386E1,-1.802235365E0,7.052121162E0,8.787917137E0
1.665550386E1,-2.819771051E0,6.987477779E0,7.564480305E0
1.667550386E1,-2.819771051E0,6.987477779E0,7.564480305E0
1.669550386E1,-2.819771051E0,6.987477779E0,7.564480305E0
1.671550386E1,-2.819771051E0,6.987477779E0,7.564480305E0
1.673550386E1,-3.253121614E0,6.405686855E0,8.016983986E0
1.675550386E1,-3.253121614E0,6.405686855E0,8.016983986E0
1.677550386E1,-3.253121614E0,6.405686855E0,8.016983986E0
1.679550386E1,-3.253121614E0,6.405686855E0,8.016983986E0
1.681550386E1,-3.253121614E0,6.405686855E0,8.016983986E0
1.683550386E1,-3.253121614E0,6.405686855E0,8.016983986E0
1.685550386E1,-3.253121614E0,6.405686855E0,8.016983986E0
1.687550386E1,-3.253121614E0,6.405686855E0,8.016983986E0
1.689550386E1,-3.253121614E0,6.405686855E0,8.016983986E0
1.691550386E1,-3.253121614E0,6.405686855E0,8.016983986E0
1.693550386E1,-3.253121614E0,6.405686855E0,8.016983986E0
1.695550386E1,-3.253121614E0,6.405686855E0,8.016983986E0
1.697550386E1,-3.253121614E0,6.405686855E0,8.016983986E0
1.699550386E1,-3.253121614E0,6.405686855E0,8.016983986E0
1.701550386E1,-3.253121614E0,6.405686855E0,8.016983986E0
1.703550386E1,-3.253121614E0,6.405686855E0,8.016983986E0
1.705550386E1,-3.253121614E0,6.405686855E0,8.016983986E0
1.707550386E1,-3.253121614E0,6.405686855E0,8.016983986E0
1.709550386E1,-3.253121614E0,6.405686855E0,8.016983986E0
1.711550386E1,-3.253121614E0,6.405686855E0,8.016983986E0
1.713550386E1,-3.253121614E0,6.405686855E0,8.016983986E0
1.715550386E1,-3.253121614E0,6.405686855E0,8.016983986E0
1.717550386E1,-3.253121614E0,6.405686855E0,8.016983986E0
1.719550386E1,-3.253121614E0,6.405686855E0,8.016983986E0
1.721550386E1,-3.253121614E0,6.405686855E0,8.016983986E0
1.723550386E1,-3.253121614E0,6.405686855E0,8.016983986E0
1.725550386E1,-3.253121614E0,6.405686855E0,8.016983986E0
1.727550386E1,-2.483984232E-1,7.198167324E0,8.682572365E0
1.729550386E1,-7.846996188E-1,7.126341343E0,8.967482567E0
1.731550386E1,-1.184531331E0,7.334636688E0,8.359354973E0
1.733550386E1,-1.414374709E0,7.597999096E0,7.633912086E0
1.735550386E1,-1.009754539E0,7.631517887E0,8.110358238E0
1.737550386E1,-8.397662640E-1,6.518214226E0,9.836577415E0
1.739550386E1,-5.117605925E-1,5.756857872E0,1.009994030E1
1.741550386E1,5.560533404E-1,6.276399612E0,8.483853340E0
1.743550386E1,6.542156339E-1,6.262034416E0,7.337030888E0
1.745550386E1,5.153518915E-1,5.565321922E0,7.667430878E0
1.747550386E1,1.203086376E-1,4.880579948E0,8.505401611E0
1.749550386E1,1.729810685E-1,4.722562790E0,8.503006935E0
1.751550386E1,2.902969420E-1,5.280411720E0,7.078457355E0
1.753550386E1,3.411737457E-2,5.617994308E0,5.835866451E0
1.755550386E1,-1.765723825E-1,5.905298710E0,5.493495941E0
1.757550386E1,-5.446808785E-2,5.967547894E0,6.010643482E0
1.759550386E1,-2.292448133E-1,5.766434669E0,6.697779179E0
1.761550386E1,-6.649895310E-1,5.424064159E0,6.793547153E0
1.763550386E1,-1.153406620E0,5.321113110E0,6.527791023E0
1.765550386E1,-1.433528304E0,5.366602898E0,6.096834660E0
1.767550386E1,-1.411980510E0,5.555745125E0,5.675455093E0
1.769550386E1,-1.124676228E0,5.857414246E0,5.380968094E0
1.771550386E1,-9.020155072E-1,5.919663906E0,5.289988518E0
1.773550386E1,-2.867056429E-1,6.281188011E0,5.651513100E0
1.775550386E1,-1.262941360E-1,6.738480568E0,5.953182697E0
1.777550386E1,-4.489128292E-2,7.174225330E0,6.518214226E0
1.779550386E1,-8.080431074E-2,7.255628109E0,7.710526466E0
1.781550386E1,-2.483984232E-1,7.135918140E0,8.732851028E0
1.783550386E1,-4.351461530E-1,7.061697960E0,8.938752174E0
1.785550386E1,-5.285200477E-1,7.504625320E0,8.287528992E0
1.787550386E1,-6.769605279E-1,7.835024834E0,7.669825077E0
1.789550386E1,-6.554127336E-1,7.629123688E0,8.325836182E0
1.791550386E1,-5.692214370E-1,7.205349922E0,9.235632896E0
1.793550386E1,-1.019331336E0,6.616376400E0,9.484629631E0
1.795550386E1,-1.629852772E0,6.570886612E0,8.526948929E0
1.797550386E1,-1.318606615E0,7.212532520E0,7.387309551E0
1.799550386E1,-1.117493629E0,7.296329498E0,7.844601631E0
1.801550386E1,-1.352125406E0,6.587646008E0,8.155848503E0
1.803550386E1,-1.581968784E0,6.034585476E0,7.957129478E0
1.805550386E1,-1.419163108E0,5.783194065E0,7.959523678E0
1.807550386E1,-1.443105102E0,5.795165062E0,7.746439457E0
1.809550386E1,-2.008136749E0,5.689820290E0,7.104793549E0
1.811550386E1,-2.024896145E0,5.639542103E0,6.822277546E0
1.813550386E1,-1.713649869E0,5.790376663E0,6.874950409E0
1.815550386E1,-1.742380261E0,5.651513100E0,6.915651798E0
1.817550386E1,-1.842936754E0,5.457582951E0,7.315483093E0
1.819550386E1,-1.950675845E0,5.139153957E0,7.830236435E0
1.821550386E1,-2.041655540E0,4.918887615E0,8.124723434E0
1.823550386E1,-1.775899053E0,4.916493416E0,8.421604156E0
1.825550386E1,-1.397615194E0,4.871003151E0,8.593987465E0
1.827550386E1,-1.265934110E0,4.959589005E0,7.684190273E0
1.829550386E1,-1.107916832E0,5.153519154E0,6.712144375E0
1.831550386E1,-1.069609642E0,5.337872505E0,6.027402878E0
1.833550386E1,-1.119887829E0,5.376179695E0,5.792770863E0
1.835550386E1,-9.546879530E-1,5.565321922E0,6.029797077E0
1.837550386E1,-8.230068088E-1,5.737704277E0,6.532579422E0
1.839550386E1,-8.541314602E-1,5.787982464E0,7.224503517E0
1.841550386E1,-1.115099430E0,5.699397087E0,7.818265438E0
1.843550386E1,-9.906009436E-1,5.862202644E0,8.263586998E0
1.845550386E1,-6.003460884E-1,6.084863663E0,8.898050308E0
1.847550386E1,-6.290764809E-1,6.108805656E0,9.096769333E0
1.849550386E1,-7.248445749E-1,6.400898457E0,8.254010201E0
1.851550386E1,-4.590881765E-1,6.867767811E0,8.067262650E0
1.853550386E1,-1.191115379E-1,7.121552944E0,8.613141060E0
1.855550386E1,-4.351461530E-1,6.616376400E0,9.906009674E0
1.857550386E1,-7.918822169E-1,6.034585476E0,1.111029339E1
1.859550386E1,-1.095945835E0,6.175843239E0,9.549273491E0
1.861550386E1,-6.434416771E-1,7.121552944E0,7.777564049E0
1.863550386E1,-3.896563351E-1,7.020996571E0,8.007407188E0
1.865550386E1,-7.392097712E-1,6.254851818E0,8.356961250E0
1.867550386E1,-1.038484931E0,5.538985729E0,8.778340340E0
1.869550386E1,-1.263539910E0,4.837484360E0,9.554061890E0
1.871550386E1,-1.332971811E0,4.463989258E0,9.388861656E0
1.873550386E1,-1.002571940E0,4.411316395E0,8.689755440E0
1.875550386E1,-4.926069975E-1,4.717774391E0,7.693767071E0
1.877550386E1,1.496376097E-2,5.151124954E0,7.030573368E0
1.879550386E1,1.496376097E-2,5.151124954E0,7.030573368E0
1.881550386E1,1.496376097E-2,5.151124954E0,7.030573368E0
1.883550386E1,1.496376097E-2,5.151124954E0,7.030573368E0
1.885550386E1,1.496376097E-2,5.151124954E0,7.030573368E0
1.887550386E1,1.496376097E-2,5.151124954E0,7.030573368E0
1.889550386E1,1.496376097E-2,5.151124954E0,7.030573368E0
1.891550386E1,1.496376097E-2,5.151124954E0,7.030573368E0
1.893550386E1,1.496376097E-2,5.151124954E0,7.030573368E0
1.895550386E1,1.496376097E-2,5.151124954E0,7.030573368E0
1.897550386E1,1.496376097E-2,5.151124954E0,7.030573368E0
1.899550386E1,1.496376097E-2,5.151124954E0,7.030573368E0
1.901550386E1,1.496376097E-2,5.151124954E0,7.030573368E0
1.903550386E1,1.496376097E-2,5.151124954E0,7.030573368E0
1.905550386E1,1.496376097E-2,5.151124954E0,7.030573368E0
1.907550386E1,1.496376097E-2,5.151124954E0,7.030573368E0
1.909550386E1,1.496376097E-2,5.151124954E0,7.030573368E0
1.911550386E1,1.496376097E-2,5.151124954E0,7.030573368E0
1.913550386E1,1.496376097E-2,5.151124954E0,7.030573368E0
1.915550386E1,1.496376097E-2,5.151124954E0,7.030573368E0
1.917550386E1,-2.651578486E-1,7.509413719E0,8.838195801E0
1.919550386E1,-6.099228859E-1,7.138312340E0,9.623494148E0
1.921550386E1,-1.203684926E0,6.621164799E0,1.016697788E1
1.923550386E1,-1.771110654E0,6.597222805E0,9.065644264E0
1.925550386E1,-1.596333981E0,7.423222542E0,7.097610950E0
1.927550386E1,-1.426345706E0,7.763198853E0,7.018602371E0
1.929550386E1,-1.902791858E0,6.405686855E0,8.486248016E0
1.931550386E1,-2.034472942E0,5.553350925E0,9.309853554E0
1.933550386E1,-1.541267395E0,5.045780182E0,9.958682060E0
1.935550386E1,-1.174954534E0,4.947618008E0,9.659406662E0
1.937550386E1,-1.074398041E0,5.258863926E0,8.222886086E0
1.939550386E1,-1.383249998E0,5.093664169E0,7.547720909E0
1.941550386E1,-1.548449993E0,4.995501995E0,7.205349922E0
1.943550386E1,-1.459864497E0,5.120000362E0,6.882133007E0
1.945550386E1,-1.253963113E0,5.170278549E0,6.853402138E0
1.947550386E1,-8.780734539E-1,5.012261391E0,7.562086105E0
1.949550386E1,-5.524620414E-1,4.887762547E0,8.364143372E0
1.951550386E1,-7.392097712E-1,4.593276024E0,8.771158218E0
1.953550386E1,-1.332971811E0,4.277241230E0,8.627506256E0
1.955550386E1,-1.553238392E0,4.442441463E0,7.643488884E0
1.957550386E1,-1.366490602E0,4.835090160E0,6.719326973E0
1.959550386E1,-1.347337008E0,5.158307552E0,5.850231647E0
1.961550386E1,-1.256357312E0,5.479130745E0,5.218162537E0
1.963550386E1,-1.249174714E0,5.802347660E0,5.304353714E0
1.965550386E1,-1.467047095E0,5.723339081E0,6.139930248E0
1.967550386E1,-1.677736878E0,5.735310078E0,7.040150166E0
1.969550386E1,-1.898003340E0,5.625176907E0,8.043320656E0
1.971550386E1,-1.979406238E0,5.728127480E0,8.481459618E0
1.973550386E1,-1.706467271E0,6.139930248E0,8.462306023E0
1.975550386E1,-1.419163108E0,6.453570843E0,8.517372131E0
1.977550386E1,-1.112705231E0,6.745663166E0,8.507795334E0
1.979550386E1,-8.421604633E-1,7.028179169E0,8.402450562E0
1.981550386E1,-7.344213724E-1,7.092822552E0,8.787917137E0
1.983550386E1,-9.666589499E-1,6.697779179E0,9.601945877E0
1.985550386E1,-1.344942808E0,6.027402878E0,1.062427044E1
1.987550386E1,-1.474229693E0,5.948394299E0,9.860519409E0
1.989550386E1,-1.313818216E0,6.360196590E0,8.567650795E0
1.991550386E1,-1.256357312E0,6.099228859E0,8.392873764E0
1.993550386E1,-1.225232720E0,5.570110321E0,8.768763542E0
1.995550386E1,-1.167771935E0,4.961983204E0,9.515754700E0
1.997550386E1,-7.846996188E-1,4.686649799E0,9.616311073E0
1.999550386E1,-3.752911091E-1,4.660313606E0,9.144653320E0
2.001550386E1,-7.362170517E-2,4.710591793E0,8.158242226E0
2.003550386E1,6.045359373E-2,4.815936565E0,7.243657112E0
2.005550386E1,1.346738487E-1,5.024232388E0,6.451176643E0
2.007550386E1,-1.167173311E-1,5.297171116E0,5.773617268E0
2.009550386E1,-5.925649032E-2,5.548562527E0,5.725733280E0
2.011550386E1,-9.038111567E-2,5.438429356E0,6.132747650E0
2.013550386E1,-6.793547273E-1,4.947618008E0,7.025784969E0
2.015550386E1,-1.277905107E0,4.617218018E0,7.104793549E0
2.017550386E1,-1.459864497E0,4.911705017E0,6.274005413E0
2.019550386E1,-1.617881775E0,5.184643745E0,5.881356239E0
2.021550386E1,-1.838148355E0,5.167884350E0,6.242880821E0
2.023550386E1,-1.814206362E0,5.330689907E0,6.484695435E0
2.025550386E1,-1.560420990E0,5.957971096E0,6.479907036E0
2.027550386E1,-1.555632591E0,6.326677799E0,6.989871979E0
2.029550386E1,-1.842936754E0,6.645106792E0,7.076063156E0
2.031550386E1,-2.415150881E0,6.886921406E0,6.896498203E0
2.033550386E1,-2.656965256E0,6.527791023E0,7.777564049E0
2.035550386E1,-2.036867142E0,6.185420036E0,9.465476036E0
2.037550386E1,-1.728015065E0,5.866991043E0,9.862914085E0
2.039550386E1,-1.672948480E0,5.462371349E0,9.877279282E0
2.041550386E1,-1.210867524E0,5.711368084E0,9.460687637E0
2.043550386E1,-5.500678420E-1,6.556521416E0,8.282740593E0
2.045550386E1,8.678980917E-2,7.322665691E0,7.751227856E0
2.047550386E1,-5.446808785E-2,6.925228596E0,8.723274231E0
2.049550386E1,-5.069721937E-1,6.029797077E0,1.026513958E1
2.051550386E1,-1.110311031E0,5.555745125E0,1.015740108E1
2.053550386E1,-1.414374709E0,6.573280811E0,7.442376137E0
2.055550386E1,-1.981800437E0,6.915651798E0,6.046556473E0
2.057550386E1,-2.721608877E0,5.582081318E0,8.139088631E0
2.059550386E1,-2.970605850E0,4.947618008E0,8.383296967E0
2.061550386E1,-3.166930199E0,5.507861137E0,6.523002625E0
2.063550386E1,-3.633799553E0,5.780799866E0,5.491101742E0
2.065550386E1,-3.708019972E0,5.349843502E0,7.052121162E0
2.067550386E1,-3.375225782E0,4.885368347E0,8.268375397E0
2.069550386E1,-2.606687069E0,4.722562790E0,8.833407402E0
2.071550386E1,-1.785475969E0,4.610035419E0,9.719262123E0
2.073550386E1,-1.646612167E0,3.944447279E0,1.078707600E1
2.075550386E1,-1.474229693E0,3.544615507E0,1.022443867E1
2.077550386E1,-1.474229693E0,3.544615507E0,1.022443867E1
2.079550386E1,-4.782418013E-1,4.528632641E0,6.604405403E0
2.081550386E1,-4.782418013E-1,4.528632641E0,6.604405403E0
2.083550386E1,-1.225232720E0,3.465606928E0,7.516596317E0
2.085550386E1,-1.510142684E0,3.408146143E0,7.011419773E0
2.087550386E1,-1.510142684E0,3.408146143E0,7.011419773E0
2.089550386E1,-1.510142684E0,3.408146143E0,7.011419773E0
2.091550386E1,-1.510142684E0,3.408146143E0,7.011419773E0
2.093550386E1,-1.510142684E0,3.408146143E0,7.011419773E0
2.095550386E1,-1.385644197E0,4.267664433E0,8.711302757E0
2.097550386E1,-1.385644197E0,4.267664433E0,8.711302757E0
2.099550386E1,-1.385644197E0,4.267664433E0,8.711302757E0
2.101550386E1,-1.385644197E0,4.267664433E0,8.711302757E0
2.103550386E1,-1.385644197E0,4.267664433E0,8.711302757E0
2.105550386E1,-1.385644197E0,4.267664433E0,8.711302757E0
2.107550386E1,-1.385644197E0,4.267664433E0,8.711302757E0
2.109550386E1,-6.841431260E-1,5.687426090E0,8.189367294E0
2.111550386E1,1.179144308E-1,5.754463673E0,9.573215485E0
2.113550386E1,9.157821536E-2,4.971560001E0,1.131140614E1
2.115550386E1,-1.885433793E-1,4.420893669E0,1.186925507E1
2.117550386E1,5.566519126E-2,4.698620796E0,1.131619453E1
2.119550386E1,3.525462151E-1,4.911705017E0,1.051413631E1
2.121550386E1,3.788824081E-1,4.806359768E0,9.894038200E0
2.123550386E1,7.721300423E-2,4.322731018E0,9.834183693E0
2.125550386E1,7.781155407E-3,3.855861902E0,1.068412495E1
2.127550386E1,-4.878185987E-1,3.578134537E0,1.014064121E1
2.129550386E1,-7.368155718E-1,4.076128483E0,8.385691643E0
2.131550386E1,-3.537433147E-1,4.622006416E0,7.550115108E0
2.133550386E1,-3.298012912E-1,4.519055843E0,7.837419033E0
2.135550386E1,-8.852560520E-1,4.112041473E0,7.823053837E0
2.137550386E1,-1.158195019E0,3.965995073E0,7.574057102E0
2.139550386E1,-1.237203717E0,3.985148668E0,7.238868713E0
2.141550386E1,-1.148618221E0,4.066551685E0,6.848613739E0
2.143550386E1,-1.074398041E0,4.260481834E0,6.214150429E0
2.145550386E1,-8.541314602E-1,4.729745388E0,5.723339081E0
2.147550386E1,-7.894880176E-1,4.782417774E0,6.259640217E0
2.149550386E1,-9.163807034E-1,4.765658379E0,6.697779179E0
2.151550386E1,-1.107916832E0,4.667496204E0,7.186196327E0
2.153550386E1,-1.268328309E0,4.701014996E0,7.384915352E0
2.155550386E1,-1.019331336E0,5.088875771E0,7.466318130E0
2.157550386E1,-8.277952671E-1,5.421669960E0,7.308300495E0
2.159550386E1,-7.176619768E-1,5.649118900E0,7.643488884E0
2.161550386E1,-5.596446395E-1,5.649118900E0,8.821435928E0
2.163550386E1,-7.392097712E-1,5.634753704E0,9.376891136E0
2.165550386E1,-1.036090732E0,5.838260651E0,9.527725220E0
2.167550386E1,-1.637035370E0,5.811924458E0,9.302670479E0
2.169550386E1,-1.979406238E0,5.998672485E0,8.795100212E0
2.171550386E1,-1.627458572E0,6.252457619E0,8.809465408E0
2.173550386E1,-1.304241419E0,6.240486622E0,9.408015251E0
2.175550386E1,-1.505354285E0,6.139930248E0,9.515754700E0
2.177550386E1,-1.124676228E0,6.221333027E0,9.192537308E0
2.179550386E1,-5.285200477E-1,6.439205647E0,1.007839203E1
2.181550386E1,-5.045779943E-1,5.699397087E0,1.122760868E1
2.183550386E1,-8.325836658E-1,5.038597584E0,1.133295345E1
2.185550386E1,-9.187749028E-1,4.499902248E0,1.107437992E1
2.187550386E1,-1.127070427E0,4.341884613E0,9.721655846E0
2.189550386E1,-1.371279001E0,4.657919407E0,7.870938301E0
2.191550386E1,-1.601122379E0,4.648342609E0,7.729680061E0
2.193550386E1,-2.024896145E0,4.217386246E0,7.971494675E0
2.195550386E1,-2.350507498E0,3.858256102E0,7.926004887E0
2.197550386E1,-2.046443939E0,3.515885115E0,8.778340340E0
2.199550386E1,-1.378461599E0,3.561375141E0,9.259574890E0
2.201550386E1,-9.570821524E-1,3.669114113E0,8.771158218E0
2.203550386E1,-5.716156363E-1,3.769670486E0,8.455122948E0
2.205550386E1,-3.872621357E-1,3.719392300E0,8.165425301E0
2.207550386E1,-6.841431260E-1,3.527856112E0,7.638700485E0
2.209550386E1,-1.038484931E0,3.374627352E0,7.128735542E0
2.211550386E1,-8.996213078E-1,3.676296711E0,6.508637428E0
2.213550386E1,-7.439981699E-1,4.124012470E0,6.025008678E0
2.215550386E1,-8.684966564E-1,4.542997837E0,5.732915878E0
2.217550386E1,-8.397662640E-1,4.894945145E0,6.594828606E0
2.219550386E1,-1.321000814E0,4.736927986E0,7.518990517E0
2.221550386E1,-1.716044068E0,4.736927986E0,7.997830868E0
2.223550386E1,-1.814206362E0,4.839878559E0,8.720879555E0
2.225550386E1,-1.795052767E0,4.894945145E0,9.484629631E0
2.227550386E1,-1.723226666E0,5.184643745E0,9.546878815E0
2.229550386E1,-1.409586191E0,5.723339081E0,9.372102737E0
2.231550386E1,-1.151012421E0,5.981913090E0,9.475052834E0
2.233550386E1,-1.122282028E0,5.998672485E0,9.396044731E0
2.235550386E1,-1.445499301E0,5.503072739E0,9.894038200E0
2.237550386E1,-1.756745458E0,5.251681328E0,9.961075783E0
2.239550386E1,-1.388038397E0,5.613205910E0,9.791088104E0
2.241550386E1,-7.751228213E-1,5.692214489E0,1.022443867E1
2.243550386E1,-6.362590790E-1,5.230133533E0,1.059793377E1
2.245550386E1,-7.416039705E-1,4.784811974E0,1.047343540E1
2.247550386E1,-9.786299467E-1,4.416105270E0,9.975440979E0
2.249550386E1,-1.052850246E0,4.284423828E0,9.364919662E0
2.251550386E1,-8.349778652E-1,4.085705280E0,9.175778389E0
2.253550386E1,-3.130418658E-1,4.102464676E0,8.912415504E0
2.255550386E1,-4.249707982E-2,4.073734283E0,8.356961250E0
2.257550386E1,3.172317147E-2,4.102464676E0,7.511807919E0
2.259550386E1,-3.226186931E-1,4.147954464E0,6.506243229E0
2.261550386E1,-7.128735781E-1,4.150348663E0,5.866991043E0
2.263550386E1,-7.942764163E-1,4.214992046E0,6.041768074E0
2.265550386E1,-7.870938182E-1,4.195838451E0,6.755239964E0
2.267550386E1,-1.014542937E0,4.085705280E0,7.179013729E0
2.269550386E1,-1.263539910E0,4.272452831E0,6.534973621E0
2.271550386E1,-1.060032845E0,4.902127743E0,5.730521679E0
2.273550386E1,-6.602011323E-1,5.469553947E0,5.567716122E0
2.275550386E1,-4.878185987E-1,5.737704277E0,6.092046261E0
2.277550386E1,-5.261258483E-1,5.747281075E0,6.594828606E0
2.279550386E1,-5.428852439E-1,5.845443249E0,7.174225330E0
2.281550386E1,-6.961141229E-1,5.919663906E0,7.935581684E0
2.283550386E1,-1.086369038E0,5.708973885E0,8.646659851E0
2.285550386E1,-1.282693505E0,5.783194065E0,8.574832916E0
2.287550386E1,-1.292270422E0,6.211756229E0,7.870938301E0
2.289550386E1,-1.534084797E0,6.439205647E0,7.712920666E0
2.291550386E1,-1.907580256E0,6.590040207E0,8.016983986E0
2.293550386E1,-1.972223639E0,6.585251808E0,9.041702271E0
2.295550386E1,-1.668160081E0,6.609193802E0,9.776722908E0
2.297550386E1,-1.313818216E0,6.568492413E0,1.056202126E1
2.299550386E1,-1.534084797E0,6.578069210E0,9.360131264E0
2.301550386E1,-1.622670174E0,6.795941353E0,8.160636902E0
2.303550386E1,-1.603516579E0,7.365761757E0,7.332242489E0
2.305550386E1,-2.278681517E0,5.680243492E0,1.003769016E1
2.307550386E1,-3.176506996E0,4.097676277E0,1.148139381E1
2.309550386E1,-2.795829058E0,3.992331266E0,9.937133789E0
2.311550386E1,-1.898003340E0,5.203797340E0,7.167042732E0
2.313550386E1,-1.699284673E0,5.979518890E0,5.574898720E0
2.315550386E1,-2.520495892E0,5.503072739E0,5.938817501E0
2.317550386E1,-2.879626036E0,4.782417774E0,7.466318130E0
2.319550386E1,-3.035249233E0,4.250905037E0,8.615534782E0
2.321550386E1,-3.092710018E0,3.798400879E0,9.288305283E0
2.323550386E1,-2.668936253E0,3.535038710E0,9.716867447E0
2.325550386E1,-1.902791858E0,3.295618534E0,1.003529644E1
2.327550386E1,-1.253963113E0,3.329137564E0,9.226056099E0
2.329550386E1,-8.780734539E-1,3.796006680E0,7.370550156E0
2.331550386E1,-1.318606615E0,3.918111086E0,6.092046261E0
2.333550386E1,-1.857301950E0,3.913322687E0,5.644330502E0
2.335550386E1,-1.991377234E0,4.100070477E0,5.857414246E0
2.337550386E1,-2.070385933E0,4.286818027E0,6.451176643E0
2.339550386E1,-1.998559833E0,4.528632641E0,7.217320919E0
2.341550386E1,-1.998559833E0,4.528632641E0,7.217320919E0
2.343550386E1,-2.020107746E0,4.602852821E0,9.075222015E0
2.345550386E1,-2.175730705E0,4.478354454E0,9.518148422E0
2.347550386E1,-1.936310649E0,4.629189014E0,9.707290649E0
2.347550386E1,-1.936310649E0,4.629189014E0,9.707290649E0
2.351550386E1,-1.816600561E0,5.098452568E0,9.022548676E0
2.353550386E1,-1.797446966E0,5.440823555E0,8.735244751E0
2.355550386E1,-1.220444322E0,5.778405666E0,9.319430351E0
2.357550386E1,-8.469488621E-1,5.732915878E0,9.822212219E0
2.359550386E1,-8.349778652E-1,5.594052315E0,9.941922188E0
2.361550386E1,-9.259575009E-1,5.486313343E0,1.020289040E1
2.363550386E1,-8.565256596E-1,5.804741859E0,9.606734276E0
2.365550386E1,-5.572504401E-1,6.218938828E0,9.072827339E0
2.367550386E1,-1.119289324E-1,5.857414246E0,9.999382973E0
2.369550386E1,-3.154360652E-1,4.684255600E0,1.148618221E1
2.371550386E1,-7.918822169E-1,3.870227098E0,1.136886692E1
2.373550386E1,-7.009025216E-1,4.236539841E0,9.513360023E0
2.375550386E1,-2.890998423E-1,4.578910828E0,8.505401611E0
2.377550386E1,-1.693897694E-1,4.253299236E0,8.476671219E0
2.379550386E1,-2.507926226E-1,3.664325714E0,8.713697433E0
2.381550386E1,-2.507926226E-1,3.664325714E0,8.713697433E0
2.383550386E1,-2.507926226E-1,3.664325714E0,8.713697433E0
2.385550386E1,-2.507926226E-1,3.664325714E0,8.713697433E0
2.387550386E1,-2.507926226E-1,3.664325714E0,8.713697433E0
2.389550386E1,-2.507926226E-1,3.664325714E0,8.713697433E0
2.391550386E1,-2.507926226E-1,3.664325714E0,8.713697433E0
2.391550386E1,-1.335366011E0,3.846285105E0,7.291541100E0
2.395550386E1,-9.738415480E-1,4.554968834E0,6.238092422E0
2.397550386E1,-6.769605279E-1,5.112817764E0,5.718550682E0
2.399550386E1,-4.806360006E-1,5.548562527E0,5.785588264E0
2.401550386E1,-6.338648796E-1,5.249287128E0,6.999448776E0
2.403550386E1,-8.086416125E-1,5.084087372E0,7.894880295E0
2.405550386E1,-9.139865041E-1,5.179855347E0,8.184578896E0
2.407550386E1,-9.498994946E-1,5.354631901E0,8.392873764E0
2.409550386E1,-7.846996188E-1,5.699397087E0,8.208520889E0
2.411550386E1,-8.110358119E-1,6.008249283E0,7.918822289E0
2.413550386E1,-9.762357473E-1,6.161478043E0,7.605181694E0
2.415550386E1,-1.139041424E0,6.482301235E0,7.478289127E0
2.417550386E1,-1.364096403E0,6.738480568E0,8.057685852E0
2.419550386E1,-1.476623893E0,6.613982201E0,9.118317604E0
2.421550386E1,-1.285087705E0,6.285976410E0,1.020289040E1
2.421550386E1,-1.285087705E0,6.285976410E0,1.020289040E1
2.425550386E1,-1.335366011E0,6.525396824E0,9.329007149E0
2.427550386E1,-1.220444322E0,7.667430878E0,7.425616741E0
2.429550386E1,-7.272387743E-1,8.000225067E0,8.500613213E0
2.431550386E1,-1.186925530E0,6.417657852E0,1.066736603E1
2.433550386E1,-1.593939781E0,5.105635166E0,1.185488987E1
2.435550386E1,-2.048838139E0,4.667496204E0,1.049019432E1
2.437550386E1,-2.034472942E0,5.191826344E0,8.483853340E0
2.439550386E1,-2.319382906E0,5.227739334E0,7.157465935E0
2.441550386E1,-2.573168278E0,5.069722176E0,6.788758755E0
2.443550386E1,-2.865260839E0,4.674678802E0,6.858190536E0
2.445550386E1,-2.893991232E0,4.461595058E0,7.344213486E0
2.447550386E1,-2.977788448E0,4.023456097E0,8.198944092E0
2.449550386E1,-2.637811661E0,4.033032894E0,8.615534782E0
2.451550386E1,-2.149394512E0,3.848679304E0,8.953117371E0
2.453550386E1,-1.589151382E0,3.614047527E0,8.708909035E0
2.455550386E1,-1.213261724E0,4.004302502E0,7.032967567E0
2.457550386E1,-1.213261724E0,4.004302502E0,7.032967567E0
2.459550386E1,-1.213261724E0,4.004302502E0,7.032967567E0
2.461550386E1,-1.213261724E0,4.004302502E0,7.032967567E0
2.463550386E1,-1.213261724E0,4.004302502E0,7.032967567E0
2.465550386E1,-2.719214678E0,4.636371613E0,6.554127216E0
2.467550386E1,-2.920327425E0,4.856637955E0,6.767210960E0
2.469550386E1,-3.545214176E0,5.218162537E0,6.149507046E0
2.471550386E1,-3.545214176E0,5.218162537E0,6.149507046E0
2.473550386E1,-4.823718071E0,4.787206173E0,7.363367558E0
2.475550386E1,-4.380790710E0,4.528632641E0,9.506177902E0
2.477550386E1,-3.830124140E0,4.193444252E0,1.195783997E1
2.479550386E1,-3.482964993E0,4.435258865E0,1.119887829E1
2.481550386E1,-2.838924646E0,5.349843502E0,9.063250542E0
2.483550386E1,-1.572391987E0,6.161478043E0,7.976283073E0
2.485550386E1,-4.662707746E-1,6.482301235E0,8.282740593E0
2.487550386E1,-1.262941360E-1,6.812700748E0,9.099164009E0
2.489550386E1,-3.369838893E-1,5.486313343E0,8.467094421E0
2.491550386E1,-7.870938182E-1,5.723339081E0,6.585251808E0
2.493550386E1,-7.870938182E-1,5.723339081E0,6.585251808E0
2.495550386E1,-7.870938182E-1,5.723339081E0,6.585251808E0
2.497550386E1,-7.870938182E-1,5.723339081E0,6.585251808E0
2.499550386E1,-7.870938182E-1,5.723339081E0,6.585251808E0
2.501550386E1,-7.870938182E-1,5.723339081E0,6.585251808E0
2.503550386E1,-7.870938182E-1,5.723339081E0,6.585251808E0
2.505550386E1,-7.870938182E-1,5.723339081E0,6.585251808E0
2.505550386E1,1.997362733E0,4.037821293E0,9.482235909E0
2.509550386E1,8.026561141E-1,5.483919144E0,6.120776653E0
2.511550386E1,8.026561141E-1,5.483919144E0,6.120776653E0
2.513550386E1,2.689286947E0,6.250063419E0,8.831012726E0
2.515550386E1,-2.139817715E0,3.843890905E0,4.028244495E0
2.517550386E1,-2.613869667E0,4.863820553E0,4.545392036E0
2.519550386E1,-1.115099430E0,5.258863926E0,5.189432144E0
2.521550386E1,-9.786299467E-1,4.298789024E0,6.053739071E0
2.523550386E1,4.650736749E-1,3.432088137E0,7.310694695E0
2.525550386E1,-1.301847219E0,3.460818529E0,8.802282333E0
2.527550386E1,-1.998559833E0,3.130418777E0,9.123106003E0
2.529550386E1,-1.998559833E0,3.130418777E0,9.123106003E0
2.531550386E1,-1.998559833E0,3.130418777E0,9.123106003E0
2.533550386E1,-1.998559833E0,3.130418777E0,9.123106003E0
2.535550386E1,-1.998559833E0,3.130418777E0,9.123106003E0
2.537550386E1,-1.998559833E0,3.130418777E0,9.123106003E0
2.539550386E1,-1.998559833E0,3.130418777E0,9.123106003E0
2.541550386E1,-1.093551636E0,7.437587738E0,6.815094948E0
2.543550386E1,4.608838260E-2,7.691372871E0,7.966706276E0
2.545550386E1,3.812766075E-1,7.279570103E0,9.400833130E0
2.547550386E1,2.992752008E-3,6.781576157E0,1.097142887E1
2.549550386E1,-5.668272376E-1,6.628347397E0,1.138562584E1
2.551550386E1,-4.231751561E-1,6.578069210E0,1.099297714E1
2.553550386E1,-3.250128925E-1,6.831854343E0,1.012867069E1
2.555550386E1,-8.637082577E-1,6.635529995E0,1.011191082E1
2.557550386E1,-1.189319730E0,6.537367821E0,9.448717117E0
2.559550386E1,-1.265934110E0,6.025008678E0,8.644265175E0
2.561550386E1,-1.016937137E0,5.347449303E0,8.376114845E0
2.563550386E1,-7.511807680E-1,4.456806660E0,8.917203903E0
2.565550386E1,-7.511807680E-1,4.456806660E0,8.917203903E0
2.567550386E1,-7.511807680E-1,4.456806660E0,8.917203903E0
2.569550386E1,-1.526303589E-1,3.556586742E0,8.076839447E0
2.571550386E1,-4.734533727E-1,3.515885115E0,7.533355713E0
2.571550386E1,-4.734533727E-1,3.515885115E0,7.533355713E0
2.575550386E1,-1.119289324E-1,3.985148668E0,7.020996571E0
2.577550386E1,3.453635871E-1,4.064157486E0,7.229291916E0
2.579550386E1,8.050503135E-1,4.181473255E0,7.571662903E0
2.581550386E1,7.236474752E-1,4.186261654E0,7.710526466E0
2.583550386E1,7.787141204E-1,4.430470467E0,7.478289127E0
2.585550386E1,9.702502489E-1,4.586093426E0,7.071274757E0
2.587550386E1,1.121084929E0,4.689043999E0,6.817489147E0
2.589550386E1,8.146271110E-1,4.818330765E0,6.805518150E0
2.591550386E1,1.897404790E-1,5.210979939E0,6.795941353E0
2.593550386E1,-1.909375787E-1,5.352237701E0,6.652289391E0
2.595550386E1,-8.798690885E-2,5.383362293E0,6.719326973E0
2.597550386E1,-8.798690885E-2,5.383362293E0,6.719326973E0
2.599550386E1,-8.798690885E-2,5.383362293E0,6.719326973E0
2.601550386E1,-8.798690885E-2,5.383362293E0,6.719326973E0
2.603550386E1,-8.798690885E-2,5.383362293E0,6.719326973E0
2.605550386E1,-8.798690885E-2,5.383362293E0,6.719326973E0
2.607550386E1,-8.798690885E-2,5.383362293E0,6.719326973E0
2.609550386E1,-8.798690885E-2,5.383362293E0,6.719326973E0
2.611550386E1,-8.798690885E-2,5.383362293E0,6.719326973E0
2.613550386E1,-8.798690885E-2,5.383362293E0,6.719326973E0
2.615550386E1,-8.798690885E-2,5.383362293E0,6.719326973E0
2.617550386E1,-8.798690885E-2,5.383362293E0,6.719326973E0
2.619550386E1,-8.798690885E-2,5.383362293E0,6.719326973E0
2.621550386E1,-8.798690885E-2,5.383362293E0,6.719326973E0
2.623550386E1,-8.798690885E-2,5.383362293E0,6.719326973E0
2.625550386E1,1.068412542E0,4.873397350E0,1.032020664E1
2.627550386E1,8.744821548E-1,4.602852821E0,9.925163269E0
2.629550386E1,7.092822790E-1,4.475960255E0,9.089587212E0
2.631550386E1,7.092822790E-1,4.475960255E0,9.089587212E0
2.633550386E1,7.092822790E-1,4.475960255E0,9.089587212E0
2.635550386E1,7.092822790E-1,4.475960255E0,9.089587212E0
2.637550386E1,7.092822790E-1,4.475960255E0,9.089587212E0
2.639550386E1,7.092822790E-1,4.475960255E0,9.089587212E0
2.641550386E1,7.092822790E-1,4.475960255E0,9.089587212E0
2.643550386E1,7.092822790E-1,4.475960255E0,9.089587212E0
2.645550386E1,7.092822790E-1,4.475960255E0,9.089587212E0
2.647550386E1,7.092822790E-1,4.475960255E0,9.089587212E0
2.649550386E1,7.092822790E-1,4.475960255E0,9.089587212E0
2.651550386E1,7.092822790E-1,4.475960255E0,9.089587212E0
2.653550386E1,7.092822790E-1,4.475960255E0,9.089587212E0
2.655550386E1,6.350619793E-1,4.801571369E0,6.843825340E0
2.657550386E1,6.039373875E-1,5.268440723E0,6.977900982E0
2.659550386E1,6.039373875E-1,5.268440723E0,6.977900982E0
2.661550386E1,6.039373875E-1,5.268440723E0,6.977900982E0
2.663550386E1,8.457517624E-1,5.950788498E0,7.236474514E0
2.665550386E1,5.967547894E-1,6.063315868E0,7.748833656E0
2.667550386E1,7.164648771E-1,6.094440460E0,8.246828079E0
2.669550386E1,7.164648771E-1,6.094440460E0,8.246828079E0
2.671550386E1,7.164648771E-1,6.094440460E0,8.246828079E0
2.673550386E1,7.164648771E-1,6.094440460E0,8.246828079E0
2.675550386E1,7.164648771E-1,6.094440460E0,8.246828079E0
2.677550386E1,7.164648771E-1,6.094440460E0,8.246828079E0
2.679550386E1,7.164648771E-1,6.094440460E0,8.246828079E0
2.681550386E1,7.164648771E-1,6.094440460E0,8.246828079E0
2.683550386E1,7.164648771E-1,6.094440460E0,8.246828079E0
2.685550386E1,-1.060032845E0,5.752069473E0,1.002332497E1
2.687550386E1,-8.732850552E-1,5.263652325E0,9.630676270E0
2.689550386E1,-8.948329091E-1,4.866214752E0,8.941145897E0
2.691550386E1,-7.631517649E-1,4.485537052E0,8.265981674E0
2.693550386E1,-5.309142470E-1,4.351461411E0,7.643488884E0
2.695550386E1,-4.728548229E-2,4.279635429E0,7.001842976E0
2.697550386E1,3.932476342E-1,4.387374401E0,6.499060631E0
2.699550386E1,2.974795699E-1,4.351461411E0,6.740874767E0
2.701550386E1,2.256535143E-1,4.207809448E0,7.439981937E0
2.703550386E1,2.543839216E-1,4.176684856E0,7.746439457E0
2.705550386E1,3.836708367E-1,4.200626850E0,7.684190273E0
2.707550386E1,4.219780564E-1,4.329913616E0,7.123947144E0
2.709550386E1,2.160767019E-1,4.756081581E0,6.640318394E0
2.711550386E1,-1.981201917E-1,5.103240967E0,6.226121426E0
2.713550386E1,-2.388216257E-1,5.203797340E0,6.168660641E0
2.715550386E1,7.481880486E-2,5.357026100E0,6.532579422E0
2.717550386E1,2.448071241E-1,5.357026100E0,7.068880558E0
2.719550386E1,1.681926697E-1,5.294776917E0,7.940370083E0
2.721550386E1,1.634042710E-1,5.455188751E0,7.897274494E0
2.723550386E1,3.740940094E-1,5.694608688E0,7.775169849E0
2.725550386E1,5.536591411E-1,6.039373875E0,7.997830868E0
2.727550386E1,4.818331003E-1,6.312312603E0,8.720879555E0
2.729550386E1,2.376245260E-1,6.436811447E0,9.453505516E0
2.731550386E1,2.376245260E-1,6.436811447E0,9.453505516E0
2.733550386E1,2.376245260E-1,6.436811447E0,9.453505516E0
2.735550386E1,2.376245260E-1,6.436811447E0,9.453505516E0
2.737550386E1,2.376245260E-1,6.436811447E0,9.453505516E0
2.739550386E1,5.919663906E-1,6.745663166E0,1.005445004E1
2.741550386E1,4.267664552E-1,6.142324448E0,1.050216579E1
2.743550386E1,5.368997455E-1,5.598840714E0,1.027711105E1
2.743550386E1,5.368997455E-1,5.598840714E0,1.027711105E1
2.747550386E1,5.368997455E-1,5.598840714E0,1.027711105E1
2.749550386E1,5.368997455E-1,5.598840714E0,1.027711105E1
2.751550386E1,5.368997455E-1,5.598840714E0,1.027711105E1
2.753550386E1,5.368997455E-1,5.598840714E0,1.027711105E1
2.755550386E1,5.368997455E-1,5.598840714E0,1.027711105E1
2.757550386E1,5.368997455E-1,5.598840714E0,1.027711105E1
2.759550386E1,5.368997455E-1,5.598840714E0,1.027711105E1
2.761550386E1,5.368997455E-1,5.598840714E0,1.027711105E1
2.763550386E1,5.368997455E-1,5.598840714E0,1.027711105E1
2.765550386E1,5.368997455E-1,5.598840714E0,1.027711105E1
2.767550386E1,5.368997455E-1,5.598840714E0,1.027711105E1
2.769550386E1,5.368997455E-1,5.598840714E0,1.027711105E1
2.771550386E1,5.368997455E-1,5.598840714E0,1.027711105E1
2.773550386E1,5.368997455E-1,5.598840714E0,1.027711105E1
2.775550386E1,5.368997455E-1,5.598840714E0,1.027711105E1
2.777550386E1,6.661866307E-1,4.602852821E0,7.013813972E0
2.779550386E1,6.374561787E-1,4.839878559E0,7.200561523E0
2.781550386E1,6.374561787E-1,4.839878559E0,7.200561523E0
2.783550386E1,6.374561787E-1,4.839878559E0,7.200561523E0
2.785550386E1,6.374561787E-1,4.839878559E0,7.200561523E0
2.787550386E1,6.374561787E-1,4.839878559E0,7.200561523E0
2.789550386E1,6.374561787E-1,4.839878559E0,7.200561523E0
2.791550386E1,6.374561787E-1,4.839878559E0,7.200561523E0
2.793550386E1,6.374561787E-1,4.839878559E0,7.200561523E0
2.795550386E1,6.374561787E-1,4.839878559E0,7.200561523E0
2.797550386E1,6.374561787E-1,4.839878559E0,7.200561523E0
2.799550386E1,6.374561787E-1,4.839878559E0,7.200561523E0
2.801550386E1,6.374561787E-1,4.839878559E0,7.200561523E0
2.803550386E1,6.374561787E-1,4.839878559E0,7.200561523E0
2.805550386E1,6.374561787E-1,4.839878559E0,7.200561523E0
2.807550386E1,6.374561787E-1,4.839878559E0,7.200561523E0
2.809550386E1,6.374561787E-1,4.839878559E0,7.200561523E0
2.811550386E1,6.374561787E-1,4.839878559E0,7.200561523E0
2.813550386E1,6.374561787E-1,4.839878559E0,7.200561523E0
2.815550386E1,6.374561787E-1,4.839878559E0,7.200561523E0
2.817550386E1,6.374561787E-1,4.839878559E0,7.200561523E0
2.819550386E1,6.374561787E-1,4.839878559E0,7.200561523E0
2.821550386E1,6.374561787E-1,4.839878559E0,7.200561523E0
2.823550386E1,6.374561787E-1,4.839878559E0,7.200561523E0
2.825550386E1,6.374561787E-1,4.839878559E0,7.200561523E0
2.827550386E1,6.374561787E-1,4.839878559E0,7.200561523E0
2.829550386E1,6.374561787E-1,4.839878559E0,7.200561523E0
2.831550386E1,6.374561787E-1,4.839878559E0,7.200561523E0
2.833550386E1,6.374561787E-1,4.839878559E0,7.200561523E0
2.835550386E1,6.374561787E-1,4.839878559E0,7.200561523E0
2.837550386E1,6.374561787E-1,4.839878559E0,7.200561523E0
2.839550386E1,-2.627636492E-1,5.776011467E0,6.783970356E0
2.839550386E1,-2.627636492E-1,5.776011467E0,6.783970356E0
2.843550386E1,-4.016273320E-1,6.063315868E0,7.899668694E0
2.845550386E1,-2.723404467E-1,6.027402878E0,8.421604156E0
2.847550386E1,-2.723404467E-1,6.027402878E0,8.421604156E0
2.849550386E1,-2.723404467E-1,6.027402878E0,8.421604156E0
2.851550386E1,-2.723404467E-1,6.027402878E0,8.421604156E0
2.853550386E1,-2.723404467E-1,6.027402878E0,8.421604156E0
2.855550386E1,-2.723404467E-1,6.027402878E0,8.421604156E0
2.857550386E1,-2.723404467E-1,6.027402878E0,8.421604156E0
2.859550386E1,8.840589523E-1,6.783970356E0,9.005789757E0
2.861550386E1,8.840589523E-1,6.783970356E0,9.005789757E0
2.863550386E1,8.840589523E-1,6.783970356E0,9.005789757E0
2.865550386E1,8.840589523E-1,6.783970356E0,9.005789757E0
2.867550386E1,6.805518270E-1,5.998672485E0,1.004247856E1
2.869550386E1,8.122329116E-1,5.488707542E0,9.625887871E0
2.871550386E1,1.054047346E0,5.210979939E0,9.080010414E0
2.871550386E1,8.122329116E-1,5.488707542E0,9.625887871E0
2.875550386E1,1.054047346E0,5.210979939E0,9.080010414E0
2.877550386E1,8.744821548E-1,4.724956989E0,8.201337814E0
2.879550386E1,6.757634282E-1,4.586093426E0,8.131906509E0
2.881550386E1,8.696937561E-1,4.550180435E0,7.849390507E0
2.883550386E1,1.116296530E0,4.569334030E0,7.530961514E0
2.885550386E1,9.965864420E-1,4.614823818E0,7.329848289E0
2.887550386E1,7.475894690E-1,4.701014996E0,7.260416508E0
2.889550386E1,4.602852762E-1,4.689043999E0,7.475894928E0
2.891550386E1,5.129576921E-1,4.679467201E0,7.863755703E0
2.893550386E1,5.249287486E-1,4.712985992E0,7.966706276E0
2.895550386E1,3.549404144E-1,4.717774391E0,7.851784706E0
2.897550386E1,5.386953708E-3,4.849455357E0,7.605181694E0
2.899550386E1,-1.957259923E-1,4.882974148E0,7.277175903E0
2.901550386E1,-4.088099301E-1,4.902127743E0,7.425616741E0
2.903550386E1,-3.274070919E-1,5.131971359E0,7.641094685E0
2.905550386E1,-2.340332121E-1,5.299565315E0,7.518990517E0
2.907550386E1,-1.789665818E-1,5.548562527E0,7.305906296E0
2.909550386E1,1.975216344E-2,5.759252071E0,6.975506783E0
2.911550386E1,3.118447661E-1,6.017826080E0,7.212532520E0
2.913550386E1,4.076128304E-1,6.187814236E0,7.669825077E0
2.915550386E1,2.855085433E-1,6.120776653E0,8.376114845E0
2.917550386E1,9.876082093E-2,6.010643482E0,9.051279068E0
2.919550386E1,-1.813607812E-1,6.106411457E0,9.587580681E0
2.921550386E1,7.721300423E-2,6.479907036E0,9.391256332E0
2.923550386E1,2.926911712E-1,6.889315605E0,8.883685112E0
2.925550386E1,-4.878185987E-1,6.669048786E0,9.199720383E0
2.927550386E1,-1.079186440E0,6.594828606E0,9.659406662E0
2.929550386E1,-1.079186440E0,6.594828606E0,9.659406662E0
2.931550386E1,-1.079186440E0,6.594828606E0,9.659406662E0
2.933550386E1,-1.079186440E0,6.594828606E0,9.659406662E0
2.935550386E1,-1.079186440E0,6.594828606E0,9.659406662E0
2.937550386E1,-3.082534671E-1,5.493495941E0,7.449558735E0
2.939550386E1,-4.303577542E-1,5.225345135E0,7.605181694E0
2.941550386E1,-3.824737072E-1,4.983530998E0,7.964312077E0
2.943550386E1,-2.172738016E-1,4.866214752E0,7.949946880E0
2.945550386E1,-8.798690885E-2,4.859032154E0,7.387309551E0
2.947550386E1,-1.358709484E-1,4.933252811E0,6.827065945E0
2.949550386E1,-1.143231317E-1,5.160701752E0,6.436811447E0
2.951550386E1,1.849520802E-1,5.318718910E0,6.111199856E0
2.953550386E1,5.608417392E-1,5.316324711E0,6.084863663E0
2.955550386E1,7.308300734E-1,5.345055103E0,6.484695435E0
2.957550386E1,7.428010702E-1,5.476736546E0,6.925228596E0
2.959550386E1,6.087257862E-1,5.629965305E0,6.973112583E0
2.961550386E1,3.908534348E-1,5.826289654E0,7.011419773E0
2.963550386E1,1.227028370E-1,6.020220280E0,7.025784969E0
2.965550386E1,-1.137245819E-2,6.171054840E0,7.047332764E0
2.967550386E1,7.242459804E-2,6.022614479E0,7.301117897E0
2.969550386E1,4.004302323E-1,6.127959251E0,7.454347134E0
2.971550386E1,7.140706778E-1,6.226121426E0,7.416039944E0
2.973550386E1,8.960300088E-1,6.372167587E0,7.456741333E0
2.975550386E1,9.654618502E-1,6.683413982E0,7.770381451E0
2.977550386E1,9.056068063E-1,6.803123951E0,8.306682587E0
2.979550386E1,8.002619147E-1,6.692990780E0,8.821435928E0
2.981550386E1,6.925228238E-1,6.587646008E0,9.242815971E0
2.983550386E1,1.051653147E0,6.997054577E0,8.783128738E0
2.985550386E1,8.960300088E-1,7.389703751E0,8.134300232E0
2.987550386E1,7.020996213E-1,7.396886349E0,8.328230858E0
2.989550386E1,7.284358740E-1,7.126341343E0,8.603564262E0
2.991550386E1,9.199720025E-1,6.472724438E0,9.056067467E0
2.993550386E1,1.322197914E0,5.773617268E0,9.046490669E0
2.995550386E1,1.894412041E0,5.495890141E0,8.723274231E0
2.997550386E1,1.880046844E0,5.268440723E0,8.735244751E0
2.999550386E1,1.336563110E0,5.120000362E0,8.752004623E0
3.001550386E1,9.295488000E-1,5.057751179E0,8.706514359E0
3.003550386E1,7.092822790E-1,5.007472992E0,8.553285599E0
3.005550386E1,7.380126715E-1,5.081693172E0,8.289923668E0
3.007550386E1,8.337807655E-1,5.143942356E0,7.832630634E0
3.009550386E1,7.811083198E-1,5.072116375E0,7.480683327E0
3.011550386E1,6.374561787E-1,5.005078793E0,7.346607685E0
3.013550386E1,6.159083843E-1,4.940435410E0,7.360973358E0
3.015550386E1,5.345055461E-1,4.830301762E0,7.195773125E0
3.017550386E1,4.291606545E-1,4.835090160E0,6.992266178E0
3.019550386E1,3.860650361E-1,4.964377403E0,6.678625584E0
3.021550386E1,2.759317458E-1,5.005078793E0,6.482301235E0
3.023550386E1,3.022679687E-1,5.129577160E0,6.424840450E0
3.025550386E1,3.022679687E-1,5.129577160E0,6.424840450E0
3.027550386E1,3.022679687E-1,5.129577160E0,6.424840450E0
3.029550386E1,3.022679687E-1,5.129577160E0,6.424840450E0
3.031550386E1,3.022679687E-1,5.129577160E0,6.424840450E0
3.033550386E1,3.022679687E-1,5.129577160E0,6.424840450E0
3.035550386E1,3.022679687E-1,5.129577160E0,6.424840450E0
3.037550386E1,3.022679687E-1,5.129577160E0,6.424840450E0
3.039550386E1,3.022679687E-1,5.129577160E0,6.424840450E0
3.041550386E1,3.022679687E-1,5.129577160E0,6.424840450E0
3.043550386E1,3.022679687E-1,5.129577160E0,6.424840450E0
3.045550386E1,3.022679687E-1,5.129577160E0,6.424840450E0
3.047550386E1,3.022679687E-1,5.129577160E0,6.424840450E0
3.049550386E1,3.022679687E-1,5.129577160E0,6.424840450E0
3.051550386E1,3.022679687E-1,5.129577160E0,6.424840450E0
3.053550386E1,3.022679687E-1,5.129577160E0,6.424840450E0
3.055550386E1,3.022679687E-1,5.129577160E0,6.424840450E0
3.057550386E1,3.022679687E-1,5.129577160E0,6.424840450E0
3.059550386E1,3.022679687E-1,5.129577160E0,6.424840450E0
3.061550386E1,3.022679687E-1,5.129577160E0,6.424840450E0
3.063550386E1,3.022679687E-1,5.129577160E0,6.424840450E0
3.065550386E1,3.022679687E-1,5.129577160E0,6.424840450E0
3.067550386E1,3.022679687E-1,5.129577160E0,6.424840450E0
3.069550386E1,1.350928307E0,4.748898983E0,7.657854080E0
3.071550386E1,6.518214345E-1,5.316324711E0,6.877344608E0
3.073550386E1,1.586158574E-1,5.675455093E0,6.185420036E0
3.075550386E1,4.722562730E-1,5.804741859E0,5.984307289E0
3.077550386E1,1.171363235E0,5.766434669E0,6.494272232E0
3.079550386E1,1.719635367E0,5.402516365E0,7.454347134E0
3.081550386E1,1.552041292E0,5.072116375E0,8.316259384E0
3.083550386E1,8.864531517E-1,5.103240967E0,8.665813446E0
3.085550386E1,2.376245260E-1,5.467159748E0,8.625111580E0
3.087550386E1,-9.277531505E-2,5.766434669E0,7.985859871E0
3.089550386E1,-5.069721937E-1,6.295553207E0,7.267599106E0
3.091550386E1,-9.522937536E-1,6.736086369E0,6.649895191E0
3.093550386E1,-1.244386315E0,6.927622795E0,6.415263653E0
3.095550386E1,-1.464652896E0,6.922834396E0,6.951564789E0
3.097550386E1,-1.536478996E0,6.386533260E0,7.966706276E0
3.099550386E1,-9.068039060E-1,6.130353451E0,8.787917137E0
3.101550386E1,-3.202244639E-1,5.984307289E0,8.787917137E0
3.103550386E1,-1.143231317E-1,6.362590790E0,8.392873764E0
3.105550386E1,-3.992331326E-1,6.487089634E0,8.055291176E0
3.107550386E1,-3.034650683E-1,6.613982201E0,7.803900242E0
3.109550386E1,1.035492271E-1,6.676231384E0,7.930793285E0
3.111550386E1,2.687491477E-1,6.831854343E0,8.622717857E0
3.113550386E1,-1.813607812E-1,6.977900982E0,9.326612473E0
3.115550386E1,-1.172560334E0,6.975506783E0,9.884461403E0
3.117550386E1,-1.512536883E0,6.781576157E0,9.326612473E0
3.119550386E1,-1.045667648E0,6.558915615E0,8.273163795E0
3.121550386E1,-6.937199235E-1,6.276399612E0,7.619546890E0
3.123550386E1,-5.069721937E-1,5.776011467E0,8.005013466E0
3.125550386E1,-5.021837950E-1,5.196614742E0,8.586804390E0
3.127550386E1,-1.837549806E-1,4.894945145E0,8.469488144E0
3.129550386E1,-4.967968538E-2,4.712985992E0,7.751227856E0
3.131550386E1,-3.531447425E-2,4.849455357E0,6.702567577E0
3.133550386E1,1.083376259E-1,5.143942356E0,5.886145115E0
3.135550386E1,4.483142793E-1,5.373785496E0,5.572504520E0
3.137550386E1,7.595604658E-1,5.424064159E0,5.934029102E0
3.139550386E1,1.051653147E0,5.309142113E0,6.551733017E0
3.141550386E1,1.152209520E0,5.155913353E0,7.114370346E0
3.143550386E1,1.276708007E0,5.196614742E0,7.392097950E0
3.145550386E1,1.360505104E0,5.380968094E0,7.341819286E0
3.147550386E1,1.247977614E0,5.419275761E0,7.020996571E0
3.149550386E1,1.022922635E0,5.450400352E0,6.956353188E0
3.151550386E1,6.973112226E-1,5.498284340E0,7.054515362E0
3.153550386E1,4.076128304E-1,5.565321922E0,7.238868713E0
3.155550386E1,4.100070298E-1,5.728127480E0,7.380126953E0
3.157550386E1,5.967547894E-1,5.766434669E0,7.265204906E0
3.159550386E1,8.457517624E-1,6.013037682E0,6.963535786E0
3.161550386E1,1.056441545E0,6.290764809E0,6.985083580E0
3.163550386E1,1.142632723E0,6.300341606E0,7.442376137E0
3.165550386E1,9.965864420E-1,6.362590790E0,8.093599319E0
3.167550386E1,7.882909179E-1,6.398504257E0,8.692149162E0
3.169550386E1,5.632359385E-1,6.372167587E0,9.029731750E0
3.171550386E1,5.632359385E-1,6.372167587E0,9.029731750E0
3.173550386E1,5.608417392E-1,6.831854343E0,8.428787231E0
3.175550386E1,4.459200799E-1,7.006631374E0,8.601169586E0
3.177550386E1,3.621230125E-1,7.224503517E0,8.847772598E0
3.179550386E1,-3.776853085E-1,6.774393559E0,9.259574890E0
3.181550386E1,-3.633201122E-1,6.254851818E0,9.613917351E0
3.183550386E1,-7.362170517E-2,6.068104267E0,9.429563522E0
3.185550386E1,-2.076970041E-1,5.448006153E0,8.969876289E0
3.187550386E1,-2.723404467E-1,5.220556736E0,8.512583733E0
3.189550386E1,-1.885433793E-1,5.040991783E0,8.349778175E0
3.191550386E1,-2.436100245E-1,4.830301762E0,8.373720169E0
3.193550386E1,-3.034650683E-1,4.894945145E0,8.294712067E0
3.195550386E1,-3.010708690E-1,5.021838188E0,8.093599319E0
3.197550386E1,-4.710591733E-1,4.957194805E0,7.894880295E0
3.199550386E1,-5.165489912E-1,4.938041210E0,7.842207432E0
3.201550386E1,-6.602011323E-1,4.997896194E0,7.763198853E0
3.203550386E1,-6.290764809E-1,5.060145378E0,7.392097950E0
3.205550386E1,-2.986766696E-1,5.055356979E0,7.049726963E0
3.207550386E1,2.615665495E-1,4.940435410E0,6.858190536E0
3.209550386E1,6.494272351E-1,4.763264179E0,6.997054577E0
3.211550386E1,8.912416101E-1,4.789600372E0,7.387309551E0
3.213550386E1,9.151836038E-1,4.873397350E0,7.521384716E0
3.215550386E1,8.385691643E-1,4.863820553E0,7.480683327E0
3.217550386E1,6.949170232E-1,5.029020786E0,7.459135532E0
3.219550386E1,6.637924314E-1,5.328295708E0,7.454347134E0
3.221550386E1,6.470330358E-1,5.414487362E0,7.545326710E0
3.223550386E1,8.361749649E-1,5.385756493E0,7.899668694E0
3.225550386E1,1.077989340E0,5.273229122E0,8.462306023E0
3.227550386E1,1.401206493E0,5.464765549E0,8.625111580E0
3.229550386E1,1.523310781E0,5.823895454E0,8.354566574E0
3.231550386E1,1.485003591E0,6.070498466E0,8.160636902E0
3.233550386E1,1.247977614E0,6.029797077E0,8.893261909E0
3.235550386E1,1.463455796E0,5.831078053E0,1.000417137E1
3.237550386E1,2.050035238E0,6.163872242E0,1.012867069E1
3.239550386E1,1.688510776E0,6.307524204E0,9.836577415E0
3.241550386E1,1.219247222E0,6.159083843E0,9.429563522E0
3.243550386E1,1.379658699E0,5.843049049E0,8.991424561E0
3.245550386E1,1.913565755E0,5.373785496E0,8.756793022E0
3.247550386E1,2.246359825E0,4.866214752E0,8.756793022E0
3.249550386E1,2.205658197E0,4.483142853E0,9.111134529E0
3.251550386E1,1.554435492E0,3.772064686E0,9.860519409E0
3.253550386E1,1.039682031E0,3.345896959E0,1.018852520E1
3.255550386E1,7.380126715E-1,3.233369350E0,9.745597839E0
3.257550386E1,6.206967831E-1,3.300406933E0,8.814253807E0
3.259550386E1,4.052186310E-1,3.307589531E0,7.904457092E0
3.261550386E1,2.902969420E-1,3.321954966E0,7.641094685E0
3.263550386E1,2.448071241E-1,3.283647537E0,6.913257599E0
3.265550386E1,4.507084787E-1,3.221398354E0,6.357802391E0
3.267550386E1,3.573346138E-1,3.003525972E0,6.343437195E0
3.269550386E1,6.183025837E-1,3.130418777E0,6.862978935E0
3.271550386E1,8.218097091E-1,3.147178173E0,7.138312340E0
3.273550386E1,1.010951638E0,3.491943121E0,7.334636688E0
3.275550386E1,7.739257216E-1,3.621230125E0,7.305906296E0
3.277550386E1,7.978677154E-1,3.982754469E0,7.150283337E0
3.279550386E1,9.989806414E-1,4.456806660E0,7.212532520E0
3.281550386E1,9.774328470E-1,4.890156746E0,7.811082840E0
3.283550386E1,8.385691643E-1,5.227739334E0,8.586804390E0
3.285550386E1,3.860650361E-1,5.321113110E0,9.726444244E0
3.287550386E1,-3.531447425E-2,5.462371349E0,1.018373680E1
3.289550386E1,1.681926697E-1,5.697002888E0,1.015261269E1
3.291550386E1,1.610100716E-1,5.907692909E0,1.014064121E1
3.293550386E1,-4.519055784E-1,5.838260651E0,1.043752193E1
3.295550386E1,-4.519055784E-1,5.838260651E0,1.043752193E1
3.297550386E1,-5.692214370E-1,5.294776917E0,1.097861195E1
3.299550386E1,3.411737457E-2,5.342660904E0,1.097382355E1
3.301550386E1,-6.266822815E-1,4.914099216E0,1.149097061E1
3.303550386E1,-1.402403593E0,4.825513363E0,1.168011284E1
3.305550386E1,-1.883638144E0,4.516661644E0,1.158195114E1
3.307550386E1,-1.728015065E0,4.078522682E0,1.078228760E1
3.309550386E1,-1.464652896E0,3.496731520E0,1.004726696E1
3.311550386E1,-1.321000814E0,3.171120167E0,9.319430351E0
3.313550386E1,-1.306635618E0,2.946065187E0,8.740033150E0
3.315550386E1,-1.275510907E0,2.512714624E0,8.110358238E0
3.317550386E1,-1.052850246E0,2.256535053E0,7.432799339E0
3.319550386E1,-7.511807680E-1,2.175132275E0,6.683413982E0
3.321550386E1,-8.062474132E-1,2.258929253E0,6.130353451E0
3.323550386E1,-9.068039060E-1,2.479195833E0,6.113594055E0
3.325550386E1,-8.230068088E-1,2.610877037E0,6.570886612E0
3.327550386E1,-5.261258483E-1,2.620453835E0,6.602011204E0
3.329550386E1,6.524199992E-2,2.828749418E0,6.939593792E0
3.331550386E1,4.243722558E-1,2.867056608E0,7.523778915E0
3.333550386E1,4.243722558E-1,2.867056608E0,7.523778915E0
3.335550386E1,6.949170232E-1,3.207033157E0,8.158242226E0
3.337550386E1,9.534908533E-1,3.582922935E0,8.163030624E0
3.339550386E1,1.183334231E0,3.714603901E0,8.309077263E0
3.341550386E1,1.219247222E0,3.939658880E0,8.452729225E0
3.343550386E1,1.315015316E0,4.121618271E0,8.610746384E0
3.345550386E1,1.525704980E0,4.447229862E0,8.656236649E0
3.347550386E1,1.882441044E0,4.791994572E0,8.878896713E0
3.349550386E1,1.994968534E0,4.873397350E0,8.981847763E0
3.351550386E1,2.363675594E0,5.024232388E0,9.419986725E0
3.353550386E1,2.567182779E0,4.988319397E0,1.036569595E1
3.355550386E1,2.279878616E0,4.770446777E0,1.165138245E1
3.357550386E1,2.279878616E0,4.770446777E0,1.165138245E1
3.357550386E1,2.320580006E0,4.866214752E0,1.181897640E1
3.361550386E1,1.125873327E0,4.617218018E0,1.115099430E1
3.363550386E1,-6.584054790E-3,4.428076267E0,1.219486618E1
3.365550386E1,-7.152677774E-1,3.685873508E0,1.351646614E1
3.367550386E1,-7.176619768E-1,3.214215755E0,1.371518421E1
3.369550386E1,-2.005143911E-1,3.072957993E0,1.255639076E1
3.371550386E1,-4.967968538E-2,2.962824583E0,1.103128433E1
3.373550386E1,1.017535757E-2,2.819172382E0,9.764751434E0
3.375550386E1,1.681926697E-1,2.804807186E0,9.151836395E0
3.377550386E1,4.554968774E-1,2.701856613E0,8.979453087E0
3.379550386E1,7.188590765E-1,2.493561029E0,9.103952408E0
3.381550386E1,7.380126715E-1,2.340332270E0,9.496601105E0
3.383550386E1,3.525462151E-1,2.376245260E0,9.771934509E0
3.385550386E1,-1.933317930E-1,2.462436438E0,9.738415718E0
3.387550386E1,-5.093663931E-1,2.584540844E0,9.173383713E0
3.389550386E1,-5.261258483E-1,2.740163803E0,8.414422035E0
3.391550386E1,-4.566939771E-1,2.764105797E0,7.899668694E0
3.393550386E1,-2.627636492E-1,2.850297213E0,7.530961514E0
3.395550386E1,-1.430535465E-1,2.792836189E0,7.377732754E0
3.397550386E1,-5.925649032E-2,2.922123194E0,7.485471725E0
3.399550386E1,-6.165069342E-2,3.161543369E0,7.672219276E0
3.401550386E1,5.985504249E-4,3.412934542E0,7.791929245E0
3.403550386E1,-2.813187055E-2,3.420117140E0,7.885303497E0
3.405550386E1,-1.765723825E-1,3.810372114E0,7.961917877E0
3.407550386E1,-3.202244639E-1,4.083311081E0,7.846996307E0
3.409550386E1,-1.789665818E-1,4.356249809E0,7.576451302E0
3.411550386E1,7.781155407E-3,4.622006416E0,7.770381451E0
3.413550386E1,-2.388216257E-1,4.729745388E0,8.567650795E0
3.415550386E1,-3.848679364E-1,4.784811974E0,9.089587212E0
3.417550386E1,-9.044097066E-1,4.808753967E0,9.724050522E0
3.419550386E1,-8.996213078E-1,4.837484360E0,1.006881523E1
3.421550386E1,-5.261258483E-1,5.024232388E0,1.005684471E1
3.423550386E1,-1.981201917E-1,5.725733280E0,9.762357712E0
3.425550386E1,-4.806360006E-1,6.238092422E0,9.680954933E0
3.427550386E1,-1.349731207E0,6.032191277E0,9.913191795E0
3.429550386E1,-1.574786186E0,5.706579685E0,9.985017776E0
3.431550386E1,-1.672948480E0,5.074510574E0,1.016697788E1
3.433550386E1,-1.957858443E0,4.425682068E0,1.020767879E1
3.435550386E1,-1.325789213E0,4.507084846E0,8.898050308E0
3.437550386E1,-9.283517003E-1,4.507084846E0,7.878120899E0
3.439550386E1,-1.340154409E0,4.150348663E0,7.507019520E0
3.441550386E1,-1.596333981E0,3.958812475E0,7.892486095E0
3.443550386E1,-1.330577612E0,3.460818529E0,8.409633636E0
3.445550386E1,-1.045667648E0,3.245340347E0,8.438364029E0
3.447550386E1,-9.834183455E-1,3.274070740E0,8.052897453E0
3.449550386E1,-9.834183455E-1,3.274070740E0,8.052897453E0
3.451550386E1,-7.727286220E-1,3.714603901E0,6.403292656E0
3.453550386E1,-5.931634903E-1,3.834314108E0,6.123170853E0
3.455550386E1,-1.598129570E-1,3.855861902E0,5.922058105E0
3.457550386E1,2.232593149E-1,3.743334293E0,6.209362030E0
3.459550386E1,4.938040972E-1,3.762487888E0,6.817489147E0
3.461550386E1,5.464765429E-1,3.803189516E0,7.384915352E0
3.463550386E1,5.273229480E-1,4.049792290E0,7.416039944E0
3.465550386E1,5.057750940E-1,4.394556999E0,7.009025574E0
3.467550386E1,5.177460909E-1,4.633977413E0,6.872556210E0
3.469550386E1,6.302735806E-1,4.698620796E0,7.162254333E0
3.471550386E1,1.300650120E0,5.052962780E0,7.547720909E0
3.473550386E1,1.832162857E0,5.335478306E0,7.997830868E0
3.475550386E1,2.143409014E0,5.436035156E0,8.392873764E0
3.477550386E1,2.291849613E0,5.886145115E0,8.572439194E0
3.479550386E1,2.030881643E0,5.833472252E0,8.905233383E0
3.481550386E1,1.396418095E0,5.790376663E0,1.005205631E1
3.483550386E1,8.672995567E-1,5.665878296E0,1.151970100E1
3.485550386E1,1.331774712E0,5.910087109E0,1.176391029E1
3.487550386E1,1.537676096E0,6.616376400E0,1.101931286E1
3.489550386E1,5.512649417E-1,6.676231384E0,1.126831055E1
3.491550386E1,-3.752911091E-1,6.053739071E0,1.201051235E1
3.493550386E1,-3.776853085E-1,4.966771603E0,1.204163742E1
3.495550386E1,-1.574187577E-1,4.310760021E0,1.114381218E1
3.497550386E1,5.608417392E-1,4.463989258E0,9.633070946E0
3.499550386E1,5.991489887E-1,4.248510838E0,8.603564262E0
3.501550386E1,4.315548539E-1,4.042609692E0,8.378508568E0
3.503550386E1,1.825578809E-1,3.879803896E0,8.742427826E0
3.505550386E1,-5.446808785E-2,3.374627352E0,9.319430351E0
3.507550386E1,-6.643909961E-2,3.278859138E0,9.159018517E0
3.509550386E1,-2.076970041E-1,3.403357744E0,8.474276543E0
3.511550386E1,-4.614823759E-1,3.424905539E0,7.526173115E0
3.513550386E1,-5.309142470E-1,3.465606928E0,6.760028362E0
3.515550386E1,-6.218938828E-1,3.539827108E0,6.606799603E0
3.517550386E1,-7.176619768E-1,3.379415751E0,7.119158745E0
3.519550386E1,-4.327519536E-1,3.180696964E0,7.526173115E0
3.521550386E1,-6.584054790E-3,3.290830135E0,7.978677273E0
3.523550386E1,1.274912357E-1,3.393780947E0,8.189367294E0
3.525550386E1,1.083376259E-1,3.724180698E0,7.863755703E0
3.527550386E1,2.328361124E-1,4.169502258E0,7.394492149E0
3.529550386E1,3.525462151E-1,4.583699226E0,7.267599106E0
3.531550386E1,3.525462151E-1,4.583699226E0,7.267599106E0
3.533550386E1,3.525462151E-1,4.583699226E0,7.267599106E0
3.535550386E1,3.525462151E-1,4.583699226E0,7.267599106E0
3.537550386E1,3.525462151E-1,4.583699226E0,7.267599106E0
3.539550386E1,8.242039084E-1,5.031414986E0,9.017760277E0
3.541550386E1,4.746504724E-1,5.040991783E0,9.293093681E0
3.543550386E1,-2.124854028E-1,4.985925198E0,1.041836834E1
3.545550386E1,-7.080851793E-1,4.806359768E0,1.164420033E1
3.547550386E1,-5.740098357E-1,4.849455357E0,1.207036781E1
3.549550386E1,-5.500678420E-1,4.945223808E0,1.150294209E1
3.551550386E1,-1.143829823E0,4.566939831E0,1.081580639E1
3.553550386E1,-1.608304977E0,4.748898983E0,1.042794514E1
3.555550386E1,-1.687313676E0,4.571728230E0,1.001374817E1
3.557550386E1,-1.687313676E0,4.571728230E0,1.001374817E1
3.559550386E1,-1.687313676E0,4.571728230E0,1.001374817E1
3.561550386E1,-1.687313676E0,4.571728230E0,1.001374817E1
3.563550386E1,-6.793547273E-1,3.647566319E0,8.287528992E0
3.565550386E1,-9.666589499E-1,3.484760523E0,8.328230858E0
3.567550386E1,-9.666589499E-1,3.484760523E0,8.328230858E0
3.569550386E1,-1.390432596E0,3.298012733E0,8.555679321E0
3.571550386E1,-1.218050122E0,3.422511339E0,8.316259384E0
3.573550386E1,-9.762357473E-1,3.511096716E0,7.760804653E0
3.575550386E1,-7.224503756E-1,3.525461912E0,7.133523941E0
3.577550386E1,-2.890998423E-1,3.527856112E0,6.659471989E0
3.579550386E1,2.280477136E-1,3.539827108E0,6.216544628E0
3.581550386E1,5.752069354E-1,3.705027103E0,6.137536049E0
3.583550386E1,6.302735806E-1,3.901351690E0,6.364984989E0
3.585550386E1,5.392939448E-1,4.071340084E0,6.714538574E0
3.587550386E1,6.637924314E-1,4.334702015E0,7.360973358E0
3.589550386E1,6.853402257E-1,4.531026840E0,8.062474251E0
3.591550386E1,6.039373875E-1,4.631583214E0,8.723274231E0
3.593550386E1,5.225345492E-1,4.923676014E0,8.888473511E0
3.595550386E1,4.674678743E-1,5.124788761E0,8.943540573E0
3.597550386E1,7.260416746E-1,5.285200119E0,8.859743118E0
3.599550386E1,1.106719732E0,5.562927723E0,8.955511093E0
3.601550386E1,1.288679123E0,5.718550682E0,9.563638687E0
3.603550386E1,1.027711034E0,5.548562527E0,1.083256531E1
3.605550386E1,8.672995567E-1,5.134365559E0,1.208712769E1
3.607550386E1,1.252766013E0,5.009867191E0,1.227626896E1
3.609550386E1,1.334168911E0,5.112817764E0,1.146702862E1
3.611550386E1,7.954735160E-1,5.261258125E0,1.106719780E1
3.613550386E1,1.657984704E-1,5.088875771E0,1.133534813E1
3.615550386E1,1.801636815E-1,4.554968834E0,1.123958015E1
3.617550386E1,1.801636815E-1,4.554968834E0,1.123958015E1
3.619550386E1,1.801636815E-1,4.554968834E0,1.123958015E1
3.621550386E1,1.801636815E-1,4.554968834E0,1.123958015E1
3.623550386E1,1.801636815E-1,4.554968834E0,1.123958015E1
3.625550386E1,3.166331649E-1,2.831143618E0,9.532513618E0
3.625550386E1,3.166331649E-1,2.831143618E0,9.532513618E0
3.629550386E1,3.166331649E-1,2.831143618E0,9.532513618E0
3.631550386E1,4.722562730E-1,3.041833162E0,7.380126953E0
3.633550386E1,2.974795699E-1,3.130418777E0,7.236474514E0
3.635550386E1,1.203086376E-1,2.929305792E0,7.399280548E0
3.637550386E1,5.386953708E-3,2.713827610E0,7.777564049E0
3.639550386E1,2.136825025E-1,2.634819031E0,7.645883083E0
3.641550386E1,4.602852762E-1,2.898181200E0,7.490260124E0
3.643550386E1,4.650736749E-1,3.065775394E0,7.337030888E0
3.645550386E1,1.179144308E-1,3.300406933E0,6.999448776E0
3.647550386E1,-2.436100245E-1,3.494337320E0,6.980295181E0
3.649550386E1,-2.172738016E-1,3.772064686E0,7.116764545E0
3.651550386E1,-2.172738016E-1,3.772064686E0,7.116764545E0
3.653550386E1,-2.172738016E-1,3.772064686E0,7.116764545E0
3.655550386E1,-2.172738016E-1,3.772064686E0,7.116764545E0
3.657550386E1,-2.172738016E-1,3.772064686E0,7.116764545E0
3.659550386E1,-2.172738016E-1,3.772064686E0,7.116764545E0
3.661550386E1,-2.172738016E-1,3.772064686E0,7.116764545E0
3.663550386E1,-1.717839688E-1,5.088875771E0,9.771934509E0
3.665550386E1,-4.183867574E-1,5.019443989E0,1.047582912E1
3.667550386E1,-1.861491799E-1,5.019443989E0,1.066736603E1
3.669550386E1,-1.861491799E-1,5.019443989E0,1.066736603E1
3.671550386E1,2.160767019E-1,5.852625847E0,9.996989250E0
3.673550386E1,-6.314706802E-1,5.725733280E0,1.049498272E1
3.675550386E1,-1.227626920E0,5.309142113E0,1.079425812E1
3.677550386E1,-1.177348733E0,4.684255600E0,1.027471638E1
3.679550386E1,-4.112041295E-1,4.363432407E0,9.144653320E0
3.681550386E1,5.566519126E-2,4.126406670E0,7.882909298E0
3.683550386E1,1.735796221E-2,3.724180698E0,7.258022308E0
3.685550386E1,2.424129248E-1,3.558980942E0,7.174225330E0
3.687550386E1,2.424129248E-1,3.558980942E0,7.174225330E0
3.689550386E1,2.424129248E-1,3.558980942E0,7.174225330E0
3.691550386E1,2.424129248E-1,3.558980942E0,7.174225330E0
3.691550386E1,1.350928307E0,2.931699991E0,8.280346870E0
3.695550386E1,1.123479128E0,3.463212729E0,7.667430878E0
3.697550386E1,9.032126069E-1,3.640383720E0,7.593210697E0
3.699550386E1,9.032126069E-1,3.640383720E0,7.593210697E0
3.701550386E1,1.370081902E0,3.875015497E0,7.844601631E0
3.703550386E1,1.568800688E0,4.064157486E0,7.935581684E0
3.705550386E1,1.298255920E0,4.131195068E0,8.167819023E0
3.707550386E1,1.001374841E0,4.344278812E0,8.282740593E0
3.709550386E1,7.332242727E-1,4.317942619E0,8.639476776E0
3.711550386E1,5.584475398E-1,4.028244495E0,9.166201591E0
3.713550386E1,6.805518270E-1,3.918111086E0,9.506177902E0
3.715550386E1,9.151836038E-1,4.157531261E0,9.309853554E0
3.717550386E1,6.709750295E-1,4.207809448E0,9.159018517E0
3.719550386E1,6.135141850E-1,4.437653065E0,9.257181168E0
3.721550386E1,5.823895931E-1,4.413711071E0,9.788693428E0
3.723550386E1,5.823895931E-1,4.413711071E0,9.788693428E0
3.725550386E1,5.823895931E-1,4.413711071E0,9.788693428E0
3.727550386E1,5.823895931E-1,4.413711071E0,9.788693428E0
3.729550386E1,5.823895931E-1,4.413711071E0,9.788693428E0
3.731550386E1,-2.436100245E-1,4.528632641E0,9.992200851E0
3.733550386E1,-1.238999367E-1,4.394556999E0,9.906009674E0
3.735550386E1,3.429693878E-1,3.989937067E0,1.040400314E1
3.737550386E1,5.368997455E-1,3.436876535E0,1.090678596E1
3.739550386E1,7.882909179E-1,3.096899986E0,1.079186440E1
3.739550386E1,7.882909179E-1,3.096899986E0,1.079186440E1
3.743550386E1,7.164648771E-1,2.859874010E0,9.668983459E0
3.745550386E1,4.914098978E-1,2.790441990E0,9.326612473E0
3.747550386E1,4.914098978E-1,2.790441990E0,9.326612473E0
3.749550386E1,4.914098978E-1,2.790441990E0,9.326612473E0
3.751550386E1,4.914098978E-1,2.790441990E0,9.326612473E0
3.753550386E1,4.914098978E-1,2.790441990E0,9.326612473E0
3.755550386E1,4.914098978E-1,2.790441990E0,9.326612473E0
3.757550386E1,4.914098978E-1,2.790441990E0,9.326612473E0
3.759550386E1,4.914098978E-1,2.790441990E0,9.326612473E0
3.761550386E1,4.914098978E-1,2.790441990E0,9.326612473E0
3.763550386E1,-5.668272376E-1,3.563769341E0,7.346607685E0
3.765550386E1,-5.668272376E-1,3.563769341E0,7.346607685E0
3.765550386E1,-4.471171796E-1,3.700238705E0,7.274781704E0
3.769550386E1,-4.471171796E-1,3.700238705E0,7.274781704E0
3.769550386E1,-4.255693555E-1,4.030638695E0,7.456741333E0
3.773550386E1,-3.010708690E-1,4.339490414E0,7.887697697E0
3.775550386E1,-1.765723825E-1,4.586093426E0,8.198944092E0
3.777550386E1,-1.502361596E-1,4.780023575E0,8.330624580E0
3.779550386E1,-3.010708690E-1,5.005078793E0,8.450334549E0
3.781550386E1,-3.298012912E-1,5.210979939E0,8.404845238E0
3.783550386E1,-3.298012912E-1,5.210979939E0,8.404845238E0
3.785550386E1,-3.298012912E-1,5.210979939E0,8.404845238E0
3.787550386E1,-3.298012912E-1,5.210979939E0,8.404845238E0
3.789550386E1,-3.298012912E-1,5.210979939E0,8.404845238E0
3.791550386E1,-3.298012912E-1,5.210979939E0,8.404845238E0
3.793550386E1,-3.298012912E-1,5.210979939E0,8.404845238E0
3.795550386E1,-3.298012912E-1,5.210979939E0,8.404845238E0
3.797550386E1,-3.298012912E-1,5.210979939E0,8.404845238E0
3.799550386E1,-3.298012912E-1,5.210979939E0,8.404845238E0
3.801550386E1,-3.298012912E-1,5.210979939E0,8.404845238E0
3.803550386E1,-3.298012912E-1,5.210979939E0,8.404845238E0
3.805550386E1,-3.298012912E-1,5.210979939E0,8.404845238E0
3.807550386E1,-3.298012912E-1,5.210979939E0,8.404845238E0
3.807550386E1,-2.436100245E-1,3.539827108E0,9.123106003E0
3.811550386E1,-5.787982345E-1,3.702632904E0,8.380903244E0
3.813550386E1,-6.458359361E-1,3.700238705E0,7.911639690E0
3.815550386E1,-7.416039705E-1,3.807977915E0,7.665036678E0
3.817550386E1,-9.307458997E-1,3.659537315E0,7.607575893E0
3.817550386E1,-7.416039705E-1,3.807977915E0,7.665036678E0
3.821550386E1,1.250970364E-1,3.202244759E0,7.942764282E0
3.823550386E1,1.250970364E-1,3.202244759E0,7.942764282E0
3.825550386E1,1.250970364E-1,3.202244759E0,7.942764282E0
3.827550386E1,1.250970364E-1,3.202244759E0,7.942764282E0
3.829550386E1,1.250970364E-1,3.202244759E0,7.942764282E0
3.831550386E1,1.250970364E-1,3.202244759E0,7.942764282E0
3.833550386E1,1.250970364E-1,3.202244759E0,7.942764282E0
3.835550386E1,1.250970364E-1,3.202244759E0,7.942764282E0
3.837550386E1,1.015740037E0,5.081693172E0,7.418434143E0
3.839550386E1,8.457517624E-1,5.402516365E0,7.837419033E0
3.841550386E1,5.536591411E-1,5.517437935E0,8.242039680E0
3.843550386E1,5.847837925E-1,5.464765549E0,8.768763542E0
3.845550386E1,7.787141204E-1,5.261258125E0,9.554061890E0
3.847550386E1,1.336563110E0,5.278017521E0,9.898826599E0
3.849550386E1,1.590348482E0,5.402516365E0,1.009275723E1
3.851550386E1,1.058835745E0,5.232527733E0,1.077749920E1
3.853550386E1,1.046864748E0,5.155913353E0,1.103607273E1
3.855550386E1,1.305438519E0,5.201403141E0,1.065300083E1
3.857550386E1,1.614290476E0,5.158307552E0,1.016218948E1
3.859550386E1,1.769913554E0,5.108029366E0,1.000177765E1
3.861550386E1,1.786673069E0,4.667496204E0,9.898826599E0
3.863550386E1,1.647809267E0,4.064157486E0,1.050216579E1
3.865550386E1,1.702875972E0,3.377021551E0,1.128028107E1
3.867550386E1,1.813009262E0,2.874239206E0,1.135929012E1
3.869550386E1,1.813009262E0,2.874239206E0,1.135929012E1
3.871550386E1,1.813009262E0,2.874239206E0,1.135929012E1
3.873550386E1,1.813009262E0,2.874239206E0,1.135929012E1
3.875550386E1,1.813009262E0,2.874239206E0,1.135929012E1
3.877550386E1,1.813009262E0,2.874239206E0,1.135929012E1
3.879550386E1,1.813009262E0,2.874239206E0,1.135929012E1
3.881550386E1,1.813009262E0,2.874239206E0,1.135929012E1
3.883550386E1,1.813009262E0,2.874239206E0,1.135929012E1
3.885550386E1,7.428010702E-1,3.312378168E0,7.739256859E0
3.887550386E1,8.601169586E-1,3.434482336E0,7.030573368E0
3.889550386E1,8.601169586E-1,3.434482336E0,7.030573368E0
3.891550386E1,9.080010056E-1,3.776853085E0,6.736086369E0
3.893550386E1,8.864531517E-1,3.767276287E0,7.181407928E0
3.895550386E1,9.367313981E-1,3.877409697E0,7.662642479E0
3.897550386E1,9.534908533E-1,4.061763287E0,7.894880295E0
3.899550386E1,9.056068063E-1,4.382586002E0,7.961917877E0
3.901550386E1,9.056068063E-1,4.382586002E0,7.961917877E0
3.903550386E1,9.056068063E-1,4.382586002E0,7.961917877E0
3.905550386E1,9.056068063E-1,4.382586002E0,7.961917877E0
3.907550386E1,9.056068063E-1,4.382586002E0,7.961917877E0
3.909550386E1,9.056068063E-1,4.382586002E0,7.961917877E0
3.911550386E1,9.056068063E-1,4.382586002E0,7.961917877E0
3.913550386E1,9.056068063E-1,4.382586002E0,7.961917877E0
3.915550386E1,9.056068063E-1,4.382586002E0,7.961917877E0
3.917550386E1,9.056068063E-1,4.382586002E0,7.961917877E0
3.919550386E1,9.056068063E-1,4.382586002E0,7.961917877E0
3.921550386E1,9.056068063E-1,4.382586002E0,7.961917877E0
3.923550386E1,9.056068063E-1,4.382586002E0,7.961917877E0
3.925550386E1,9.056068063E-1,4.382586002E0,7.961917877E0
3.927550386E1,-2.699462473E-1,4.387374401E0,8.428787231E0
3.929550386E1,-2.699462473E-1,4.387374401E0,8.428787231E0
3.931550386E1,-4.010287672E-2,3.932476282E0,8.258798599E0
3.933550386E1,-4.710591733E-1,3.599682331E0,8.584410667E0
3.935550386E1,-7.320271730E-1,3.570951939E0,8.725667953E0
3.937550386E1,-4.231751561E-1,3.496731520E0,8.464699745E0
3.939550386E1,-4.231751561E-1,3.496731520E0,8.464699745E0
3.941550386E1,-4.231751561E-1,3.496731520E0,8.464699745E0
3.943550386E1,-4.231751561E-1,3.496731520E0,8.464699745E0
3.945550386E1,-4.231751561E-1,3.496731520E0,8.464699745E0
3.947550386E1,-4.231751561E-1,3.496731520E0,8.464699745E0
3.949550386E1,-4.231751561E-1,3.496731520E0,8.464699745E0
3.951550386E1,-4.231751561E-1,3.496731520E0,8.464699745E0
3.953550386E1,-4.231751561E-1,3.496731520E0,8.464699745E0
3.955550386E1,-4.231751561E-1,3.496731520E0,8.464699745E0
3.957550386E1,-4.231751561E-1,3.496731520E0,8.464699745E0
3.959550386E1,-4.231751561E-1,3.496731520E0,8.464699745E0
3.961550386E1,-4.231751561E-1,3.496731520E0,8.464699745E0
3.963550386E1,4.674678743E-1,5.524620533E0,8.076839447E0
3.965550386E1,6.733692288E-1,5.776011467E0,8.407238960E0
3.967550386E1,9.175778031E-1,6.013037682E0,8.656236649E0
3.969550386E1,1.283890605E0,6.187814236E0,8.890868187E0
3.971550386E1,1.283890605E0,6.187814236E0,8.890868187E0
3.973550386E1,1.283890605E0,6.187814236E0,8.890868187E0
3.975550386E1,1.283890605E0,6.187814236E0,8.890868187E0
3.977550386E1,1.283890605E0,6.187814236E0,8.890868187E0
3.979550386E1,1.283890605E0,6.187814236E0,8.890868187E0
3.981550386E1,1.283890605E0,6.187814236E0,8.890868187E0
3.983550386E1,1.283890605E0,6.187814236E0,8.890868187E0
3.985550386E1,1.283890605E0,6.187814236E0,8.890868187E0
3.987550386E1,1.283890605E0,6.187814236E0,8.890868187E0
3.989550386E1,1.283890605E0,6.187814236E0,8.890868187E0
3.991550386E1,1.283890605E0,6.187814236E0,8.890868187E0
3.993550386E1,1.283890605E0,6.187814236E0,8.890868187E0
3.995550386E1,1.118690729E0,3.484760523E0,8.778340340E0
3.997550386E1,1.106719732E0,3.551798105E0,8.646659851E0
3.999550386E1,9.319429994E-1,3.530250311E0,8.146271706E0
4.001550386E1,7.140706778E-1,3.637989521E0,7.698555470E0
4.003550386E1,5.895721912E-1,3.666719913E0,7.360973358E0
4.005550386E1,8.265981078E-1,3.630806923E0,7.066486359E0
4.007550386E1,9.654618502E-1,3.494337320E0,7.054515362E0
4.009550386E1,1.156997919E0,3.444059134E0,7.059303761E0
4.011550386E1,1.156997919E0,3.444059134E0,7.059303761E0
4.013550386E1,1.156997919E0,3.444059134E0,7.059303761E0
4.015550386E1,1.156997919E0,3.444059134E0,7.059303761E0
4.017550386E1,1.156997919E0,3.444059134E0,7.059303761E0
4.019550386E1,1.156997919E0,3.444059134E0,7.059303761E0
4.021550386E1,1.156997919E0,3.444059134E0,7.059303761E0
4.023550386E1,1.156997919E0,3.444059134E0,7.059303761E0
4.025550386E1,1.156997919E0,3.444059134E0,7.059303761E0
4.027550386E1,1.156997919E0,3.444059134E0,7.059303761E0
4.029550386E1,-7.362170517E-2,5.816712856E0,8.301894188E0
4.031550386E1,2.454056777E-2,5.957971096E0,8.728062630E0
4.033550386E1,1.657984704E-1,5.917269707E0,9.671378136E0
4.035550386E1,1.490390599E-1,5.780799866E0,1.044709873E1
4.037550386E1,3.142389655E-1,6.080075264E0,1.094509315E1
4.039550386E1,2.232593149E-1,6.082469463E0,1.134253025E1
4.041550386E1,-3.417722881E-1,5.725733280E0,1.167532444E1
4.043550386E1,-5.811924338E-1,5.512649536E0,1.158673954E1
4.045550386E1,-5.452794433E-1,5.428852558E0,1.075595093E1
4.047550386E1,-7.272387743E-1,4.875791550E0,9.862914085E0
4.049550386E1,-7.775170207E-1,4.365826607E0,9.364919662E0
4.051550386E1,-4.040215313E-1,3.980360270E0,8.768763542E0
4.053550386E1,-2.699462473E-1,3.602076530E0,8.663418770E0
4.055550386E1,-4.926069975E-1,3.408146143E0,8.577227592E0
4.057550386E1,-5.907692909E-1,3.472789526E0,8.117541313E0
4.059550386E1,-7.104793787E-1,3.812766314E0,7.468712330E0
4.061550386E1,-9.044097066E-1,4.131195068E0,7.195773125E0
4.063550386E1,-6.673837304E-1,4.138377666E0,6.795941353E0
4.065550386E1,-9.756372124E-2,4.255693436E0,6.511031628E0
4.067550386E1,2.543839216E-1,4.294000626E0,6.353013992E0
4.069550386E1,6.206967831E-1,4.219780445E0,6.305130005E0
4.071550386E1,6.206967831E-1,4.219780445E0,6.305130005E0
4.073550386E1,6.206967831E-1,4.219780445E0,6.305130005E0
4.075550386E1,6.206967831E-1,4.219780445E0,6.305130005E0
4.077550386E1,6.206967831E-1,4.219780445E0,6.305130005E0
4.079550386E1,7.284358740E-1,5.067327976E0,6.958747387E0
4.081550386E1,4.339490533E-1,5.436035156E0,6.870162010E0
4.083550386E1,3.286041915E-1,5.464765549E0,7.028179169E0
4.085550386E1,5.440823436E-1,5.512649536E0,7.739256859E0
4.087550386E1,8.720879555E-1,5.670666695E0,8.093599319E0
4.089550386E1,8.720879555E-1,5.670666695E0,8.093599319E0
4.091550386E1,8.720879555E-1,5.670666695E0,8.093599319E0
4.093550386E1,8.720879555E-1,5.670666695E0,8.093599319E0
4.095550386E1,8.720879555E-1,5.670666695E0,8.093599319E0
4.097550386E1,8.720879555E-1,5.670666695E0,8.093599319E0
4.099550386E1,8.720879555E-1,5.670666695E0,8.093599319E0
4.101550386E1,8.720879555E-1,5.670666695E0,8.093599319E0
4.103550386E1,8.720879555E-1,5.670666695E0,8.093599319E0
4.105550386E1,8.720879555E-1,5.670666695E0,8.093599319E0
4.107550386E1,8.720879555E-1,5.670666695E0,8.093599319E0
4.109550386E1,8.720879555E-1,5.670666695E0,8.093599319E0
4.111550386E1,8.720879555E-1,5.670666695E0,8.093599319E0
4.113550386E1,8.720879555E-1,5.670666695E0,8.093599319E0
4.115550386E1,8.720879555E-1,5.670666695E0,8.093599319E0
4.117550386E1,8.720879555E-1,5.670666695E0,8.093599319E0
4.119550386E1,8.720879555E-1,5.670666695E0,8.093599319E0
4.121550386E1,8.720879555E-1,5.670666695E0,8.093599319E0
4.123550386E1,2.567781210E-1,3.477577925E0,8.325836182E0
4.125550386E1,-4.010287672E-2,3.451241732E0,7.820659637E0
4.127550386E1,-4.010287672E-2,3.451241732E0,7.820659637E0
4.129550386E1,-4.010287672E-2,3.451241732E0,7.820659637E0
4.131550386E1,-4.010287672E-2,3.451241732E0,7.820659637E0
4.133550386E1,-4.010287672E-2,3.451241732E0,7.820659637E0
4.135550386E1,-4.010287672E-2,3.451241732E0,7.820659637E0
4.137550386E1,-4.010287672E-2,3.451241732E0,7.820659637E0
4.139550386E1,-4.010287672E-2,3.451241732E0,7.820659637E0
4.141550386E1,-4.010287672E-2,3.451241732E0,7.820659637E0
4.143550386E1,-4.010287672E-2,3.451241732E0,7.820659637E0
4.145550386E1,-4.010287672E-2,3.451241732E0,7.820659637E0
4.147550386E1,-4.010287672E-2,3.451241732E0,7.820659637E0
4.149550386E1,-4.010287672E-2,3.451241732E0,7.820659637E0
4.151550386E1,-4.010287672E-2,3.451241732E0,7.820659637E0
4.153550386E1,-4.010287672E-2,3.451241732E0,7.820659637E0
4.155550386E1,-4.010287672E-2,3.451241732E0,7.820659637E0
4.157550386E1,-4.010287672E-2,3.451241732E0,7.820659637E0
4.159550386E1,6.661866307E-1,5.316324711E0,1.187643719E1
4.161550386E1,2.711433470E-1,5.749675274E0,1.138083744E1
4.163550386E1,-4.950011969E-1,5.790376663E0,1.085650730E1
4.165550386E1,-4.950011969E-1,5.790376663E0,1.085650730E1
4.167550386E1,-1.222838521E0,5.304353714E0,9.985017776E0
4.169550386E1,-1.222838521E0,5.304353714E0,9.985017776E0
4.171550386E1,-1.222838521E0,5.304353714E0,9.985017776E0
4.173550386E1,-1.222838521E0,5.304353714E0,9.985017776E0
4.175550386E1,-1.222838521E0,5.304353714E0,9.985017776E0
4.177550386E1,-1.222838521E0,5.304353714E0,9.985017776E0
4.179550386E1,-1.222838521E0,5.304353714E0,9.985017776E0
4.181550386E1,-1.222838521E0,5.304353714E0,9.985017776E0
4.183550386E1,-1.222838521E0,5.304353714E0,9.985017776E0
