"Time (s)","Acceleration x (m/s^2)","Acceleration y (m/s^2)","Acceleration z (m/s^2)"
1.594460400E-2,-2.491950035E0,6.853950500E0,6.823050499E0
3.181761900E-2,-2.491950035E0,6.624000549E0,7.186950207E0
5.181761900E-2,0.000000000E0,0.000000000E0,0.000000000E0
7.181761900E-2,-2.167050123E0,5.953950405E0,7.627050400E0
9.181761900E-2,-2.626050234E0,6.241050243E0,7.435950279E0
1.118176190E-1,-2.626050234E0,6.241050243E0,7.435950279E0
1.318176190E-1,-3.258000135E0,6.412950516E0,8.049000740E0
1.518176190E-1,-3.258000135E0,6.412950516E0,8.049000740E0
1.718176190E-1,-3.085950136E0,5.284050465E0,8.949000359E0
1.918176190E-1,-3.085950136E0,5.284050465E0,8.949000359E0
2.118176190E-1,-2.683950186E0,5.053950310E0,1.011705017E1
2.318176190E-1,-2.799000025E0,5.130000114E0,9.696000099E0
2.518176190E-1,-2.799000025E0,5.130000114E0,9.696000099E0
2.718176190E-1,-2.818050146E0,4.249950409E0,8.929950714E0
2.918176190E-1,-2.818050146E0,4.249950409E0,8.929950714E0
3.118176190E-1,-3.507000208E0,3.982050180E0,9.733950615E0
3.318176190E-1,-3.507000208E0,3.982050180E0,9.733950615E0
3.518176190E-1,-3.507000208E0,3.982050180E0,9.733950615E0
3.718176190E-1,-3.909000158E0,3.349950075E0,9.025050163E0
3.918176190E-1,-3.909000158E0,3.349950075E0,9.025050163E0
4.118176190E-1,-3.334950209E0,2.335050106E0,8.298000336E0
4.318176190E-1,-3.334950209E0,2.335050106E0,8.298000336E0
4.518176190E-1,-3.354000092E0,1.684050083E0,9.331950188E0
4.718176190E-1,-3.814050198E0,1.990050077E0,9.466050148E0
4.918176190E-1,-3.814050198E0,1.990050077E0,9.466050148E0
5.118176190E-1,-1.591950059E0,7.260000110E-1,9.541950226E0
5.318176190E-1,-1.591950059E0,7.260000110E-1,9.541950226E0
5.518176190E-1,-2.377050161E0,1.606950045E0,1.013595009E1
5.718176190E-1,-2.377050161E0,1.606950045E0,1.013595009E1
5.918176190E-1,-2.377050161E0,1.606950045E0,1.013595009E1
6.118176190E-1,-7.309500575E-1,8.220000267E-1,9.006000519E0
6.318176190E-1,-7.309500575E-1,8.220000267E-1,9.006000519E0
6.518176190E-1,-2.205000162E0,1.588050127E0,1.017405033E1
6.718176190E-1,-2.205000162E0,1.588050127E0,1.017405033E1
6.918176190E-1,-3.067050219E0,1.912950039E0,8.298000336E0
7.118176190E-1,-3.067050219E0,1.912950039E0,8.298000336E0
7.318176190E-1,-3.067050219E0,1.912950039E0,8.298000336E0
7.518176190E-1,-1.560000032E-1,7.069500089E-1,1.080600071E1
7.718176190E-1,-1.560000032E-1,7.069500089E-1,1.080600071E1
7.918176190E-1,1.680000126E-1,-4.410000145E-1,1.095900059E1
8.118176190E-1,1.680000126E-1,-4.410000145E-1,1.095900059E1
8.318176190E-1,1.680000126E-1,-4.410000145E-1,1.095900059E1
8.518176190E-1,1.680000126E-1,-4.410000145E-1,1.095900059E1
8.718176190E-1,1.680000126E-1,-4.410000145E-1,1.095900059E1
8.918176190E-1,2.064000130E0,-9.000000358E-1,1.258695030E1
9.118176190E-1,2.064000130E0,-9.000000358E-1,1.258695030E1
9.318176190E-1,2.064000130E0,-9.000000358E-1,1.258695030E1
9.518176190E-1,2.064000130E0,-9.000000358E-1,1.258695030E1
9.718176190E-1,2.275050163E0,5.350500345E-1,1.019295025E1
9.918176190E-1,1.068000078E0,2.086050034E0,8.872050285E0
1.011817619E0,1.068000078E0,2.086050034E0,8.872050285E0
1.031817619E0,1.222050071E0,2.775000095E0,9.006000519E0
1.051817619E0,1.222050071E0,2.775000095E0,9.006000519E0
1.071817619E0,2.658000231E0,2.871000051E0,8.298000336E0
1.091817619E0,2.658000231E0,2.871000051E0,8.298000336E0
1.111817619E0,2.658000231E0,2.871000051E0,8.298000336E0
1.131817619E0,9.150000215E-1,3.235050201E0,7.053000450E0
1.151817619E0,9.150000215E-1,3.235050201E0,7.053000450E0
1.171817619E0,8.580000401E-1,3.330000162E0,6.937950134E0
1.191817619E0,8.580000401E-1,3.330000162E0,6.937950134E0
1.211817619E0,3.600000143E-1,3.216000080E0,7.243950367E0
1.231817619E0,3.600000143E-1,3.216000080E0,7.243950367E0
1.251817619E0,3.600000143E-1,3.216000080E0,7.243950367E0
1.271817619E0,-4.429500103E-1,4.518000126E0,9.178950310E0
1.291817619E0,-4.429500103E-1,4.518000126E0,9.178950310E0
1.311817619E0,2.350950003E0,3.982050180E0,8.566050529E0
1.331817619E0,2.350950003E0,3.982050180E0,8.566050529E0
1.351817619E0,9.150000215E-1,4.402950287E0,1.032705021E1
1.371817619E0,-2.899500132E-1,4.039050102E0,1.161000061E1
1.391817619E0,-2.899500132E-1,4.039050102E0,1.161000061E1
1.411817619E0,-1.209000111E0,3.828000069E0,1.015500069E1
1.431817619E0,-1.209000111E0,3.828000069E0,1.015500069E1
1.451817619E0,-2.779050112E0,3.943050146E0,1.205100060E1
1.471817619E0,-2.779050112E0,3.943050146E0,1.205100060E1
1.491817619E0,-2.779050112E0,3.943050146E0,1.205100060E1
1.511817619E0,-1.534950018E0,3.004950047E0,1.103595066E1
1.531817619E0,-1.534950018E0,3.004950047E0,1.103595066E1
1.551817619E0,-2.185950041E0,3.310950041E0,1.124700069E1
1.571817619E0,-2.185950041E0,3.310950041E0,1.124700069E1
1.591817619E0,-1.630950093E0,3.388050079E0,1.105500031E1
1.611817619E0,-1.630950093E0,3.388050079E0,1.105500031E1
1.631817619E0,-1.630950093E0,3.388050079E0,1.105500031E1
1.651817619E0,-2.329500169E-1,1.933050036E0,9.580950737E0
1.671817619E0,-2.329500169E-1,1.933050036E0,9.580950737E0
1.691817619E0,-1.342950106E0,1.473000050E0,1.005900002E1
1.711817619E0,-1.342950106E0,1.473000050E0,1.005900002E1
1.731817619E0,-1.248000026E0,9.180000424E-1,8.756999969E0
1.751817619E0,-1.248000026E0,9.180000424E-1,8.756999969E0
1.771817619E0,-1.248000026E0,9.180000424E-1,8.756999969E0
1.791817619E0,-4.819500148E-1,1.416000009E0,7.149000168E0
1.811817619E0,-4.819500148E-1,1.416000009E0,7.149000168E0
1.831817619E0,-1.189950109E0,1.759950042E0,6.784950256E0
1.851817619E0,-1.189950109E0,1.759950042E0,6.784950256E0
1.871817619E0,-7.879500389E-1,2.028000116E0,6.841950417E0
1.891817619E0,1.680000126E-1,2.506950140E0,7.896000385E0
1.911817619E0,1.680000126E-1,2.506950140E0,7.896000385E0
1.931817619E0,1.680000126E-1,2.506950140E0,7.896000385E0
1.951817619E0,1.680000126E-1,2.506950140E0,7.896000385E0
1.971817619E0,-3.859500289E-1,1.837050080E0,1.095900059E1
1.991817619E0,-3.859500289E-1,1.837050080E0,1.095900059E1
2.011817619E0,-3.859500289E-1,1.837050080E0,1.095900059E1
2.031817619E0,-1.369500011E-1,2.067000151E0,1.080600071E1
2.051817619E0,-1.369500011E-1,2.067000151E0,1.080600071E1
2.071817619E0,2.639999986E-1,2.047049999E0,1.124700069E1
2.091817619E0,2.639999986E-1,2.047049999E0,1.124700069E1
2.111817619E0,2.260500044E-1,2.220000029E0,1.027005005E1
2.131817619E0,2.260500044E-1,2.220000029E0,1.027005005E1
2.151817619E0,2.260500044E-1,2.220000029E0,1.027005005E1
2.171817619E0,6.660000086E-1,2.392050028E0,9.064050674E0
2.191817619E0,6.660000086E-1,2.392050028E0,9.064050674E0
2.211817619E0,1.489950061E0,1.663950086E0,9.178950310E0
2.231817619E0,1.489950061E0,1.663950086E0,9.178950310E0
2.251817619E0,1.030050039E0,1.837050080E0,8.566050529E0
2.271817619E0,1.030050039E0,1.837050080E0,8.566050529E0
2.291817619E0,-8.260500431E-1,2.488050222E0,8.756999969E0
2.311817619E0,-5.580000281E-1,2.506950140E0,8.776050568E0
2.331817619E0,-5.580000281E-1,2.506950140E0,8.776050568E0
2.351817619E0,2.639999986E-1,2.928000212E0,9.696000099E0
2.371817619E0,2.639999986E-1,2.928000212E0,9.696000099E0
2.391817619E0,2.639999986E-1,2.928000212E0,9.696000099E0
2.411817619E0,7.240500450E-1,2.871000051E0,1.105500031E1
2.431817619E0,7.240500450E-1,2.871000051E0,1.105500031E1
2.451817619E0,6.469500065E-1,2.277000189E0,1.048095036E1
2.471817619E0,6.469500065E-1,2.277000189E0,1.048095036E1
2.491817619E0,-6.730500460E-1,2.775000095E0,1.080600071E1
2.511817619E0,-6.730500460E-1,2.775000095E0,1.080600071E1
2.531817619E0,-1.381950021E0,3.061950207E0,1.072995090E1
2.551817619E0,-1.477050066E0,3.196050167E0,1.093995094E1
2.571817619E0,-1.477050066E0,3.196050167E0,1.093995094E1
2.591817619E0,-4.240500331E-1,2.124000072E0,1.178295040E1
2.611817619E0,-4.240500331E-1,2.124000072E0,1.178295040E1
2.631817619E0,-1.114050031E0,2.047049999E0,1.210800076E1
2.651817619E0,-1.114050031E0,2.047049999E0,1.210800076E1
2.671817619E0,-2.683950186E0,2.392050028E0,1.164900017E1
2.691817619E0,-2.395950079E0,2.563950062E0,1.117005062E1
2.711817619E0,-2.395950079E0,2.563950062E0,1.117005062E1
2.731817619E0,-7.690500617E-1,2.469000101E0,9.753000259E0
2.751817619E0,-7.690500617E-1,2.469000101E0,9.753000259E0
2.771817619E0,-7.110000253E-1,2.410950184E0,9.523050308E0
2.791817619E0,-7.110000253E-1,2.410950184E0,9.523050308E0
2.811817619E0,-1.750500053E-1,1.606950045E0,8.776050568E0
2.831817619E0,-2.710500062E-1,1.702950120E0,8.641950607E0
2.851817619E0,-2.710500062E-1,1.702950120E0,8.641950607E0
2.871817619E0,-7.690500617E-1,2.182049990E0,7.321050167E0
2.891817619E0,-7.690500617E-1,2.182049990E0,7.321050167E0
2.911817619E0,-7.690500617E-1,2.182049990E0,7.321050167E0
2.931817619E0,-5.580000281E-1,2.335050106E0,6.708000183E0
2.951817619E0,-5.580000281E-1,2.335050106E0,6.708000183E0
2.971817619E0,-6.349500418E-1,2.967000246E0,7.321050167E0
2.991817619E0,-6.349500418E-1,2.967000246E0,7.321050167E0
3.011817619E0,1.680000126E-1,2.698950052E0,8.259000778E0
3.031817619E0,1.680000126E-1,2.698950052E0,8.259000778E0
3.051817619E0,4.560000300E-1,2.794050217E0,9.292950630E0
3.071817619E0,2.639999986E-1,2.584050179E0,9.541950226E0
3.091817619E0,2.639999986E-1,2.584050179E0,9.541950226E0
3.111817619E0,-5.389500260E-1,2.469000101E0,1.046205044E1
3.131817619E0,-5.389500260E-1,2.469000101E0,1.046205044E1
3.151817619E0,8.389500380E-1,2.200950146E0,1.170600033E1
3.171817619E0,8.389500380E-1,2.200950146E0,1.170600033E1
3.191817619E0,-4.819500148E-1,2.353950024E0,1.193595028E1
3.211817619E0,-2.329500169E-1,2.028000116E0,1.153395081E1
3.231817619E0,-2.329500169E-1,2.028000116E0,1.153395081E1
3.251817619E0,8.770500422E-1,2.833050251E0,1.124700069E1
3.271817619E0,8.770500422E-1,2.833050251E0,1.124700069E1
3.291817619E0,7.050000429E-1,2.506950140E0,1.034700012E1
3.311817619E0,7.050000429E-1,2.506950140E0,1.034700012E1
3.331817619E0,7.050000429E-1,2.506950140E0,1.034700012E1
3.351817619E0,-1.285950065E0,2.947050095E0,7.723050594E0
3.371817619E0,-1.285950065E0,2.947050095E0,7.723050594E0
3.391817619E0,-1.534950018E0,3.310950041E0,7.762050152E0
3.411817619E0,-1.534950018E0,3.310950041E0,7.762050152E0
3.431817619E0,-1.534950018E0,3.310950041E0,7.762050152E0
3.451817619E0,-1.534950018E0,3.502950191E0,8.182950020E0
3.471817619E0,-1.534950018E0,3.502950191E0,8.182950020E0
3.491817619E0,-1.860000134E0,3.982050180E0,8.431950569E0
3.511817619E0,-1.860000134E0,3.982050180E0,8.431950569E0
3.531817619E0,-1.744950056E0,3.943050146E0,8.700000763E0
3.551817619E0,-1.744950056E0,3.943050146E0,8.700000763E0
3.571817619E0,-2.032950163E0,3.943050146E0,9.274050713E0
3.591817619E0,-2.032950163E0,3.943050146E0,9.810000420E0
3.611817619E0,-2.032950163E0,3.943050146E0,9.810000420E0
3.631817619E0,-2.607000113E0,3.559950113E0,1.061505032E1
3.651817619E0,-2.607000113E0,3.559950113E0,1.061505032E1
3.671817619E0,-3.297000170E0,3.216000080E0,1.147605038E1
3.691817619E0,-3.297000170E0,3.216000080E0,1.147605038E1
3.711817619E0,-2.185950041E0,2.182049990E0,1.268295097E1
3.731817619E0,-1.822050095E0,2.239050150E0,1.252995014E1
3.751817619E0,-1.822050095E0,2.239050150E0,1.252995014E1
3.771817619E0,-1.018050075E0,2.124000072E0,1.247205067E1
3.791817619E0,-1.018050075E0,2.124000072E0,1.247205067E1
3.811817619E0,-1.956000090E0,2.602950096E0,1.151505089E1
3.831817619E0,-1.956000090E0,2.602950096E0,1.151505089E1
3.851817619E0,-1.956000090E0,2.602950096E0,1.151505089E1
3.871817619E0,-2.140500098E-1,2.008949995E0,8.239950180E0
3.891817619E0,-2.140500098E-1,2.008949995E0,8.239950180E0
3.911817619E0,-2.140500098E-1,2.008949995E0,8.239950180E0
3.931817619E0,-2.140500098E-1,2.008949995E0,8.239950180E0
3.951817619E0,-2.140500098E-1,2.008949995E0,8.239950180E0
3.971817619E0,-6.000000238E-2,2.086050034E0,6.900000095E0
3.991817619E0,-6.000000238E-2,2.086050034E0,6.900000095E0
4.011817619E0,-8.260500431E-1,2.794050217E0,7.492950439E0
4.031817619E0,-8.260500431E-1,2.794050217E0,7.492950439E0
4.051817619E0,-8.070000410E-1,2.967000246E0,8.125050545E0
4.071817619E0,-8.070000410E-1,2.967000246E0,8.125050545E0
4.091817619E0,1.300500035E-1,3.120000124E0,9.102000237E0
4.111817619E0,2.260500044E-1,3.004950047E0,9.427050591E0
4.131817619E0,2.260500044E-1,3.004950047E0,9.427050591E0
4.151817619E0,-8.260500431E-1,3.043050051E0,1.017405033E1
4.171817619E0,-8.260500431E-1,3.043050051E0,1.017405033E1
4.191817619E0,1.500000060E-2,3.082050085E0,1.082505035E1
4.211817619E0,1.500000060E-2,3.082050085E0,1.082505035E1
4.231817619E0,1.720050097E0,2.410950184E0,1.224195099E1
4.251817619E0,9.919500351E-1,2.488050222E0,1.193595028E1
4.271817619E0,9.919500351E-1,2.488050222E0,1.193595028E1
4.291817619E0,6.280500293E-1,2.239050150E0,1.117005062E1
4.311817619E0,6.280500293E-1,2.239050150E0,1.117005062E1
4.331817619E0,8.959500194E-1,3.004950047E0,1.178295040E1
4.351817619E0,8.959500194E-1,3.004950047E0,1.178295040E1
4.371817619E0,8.959500194E-1,3.004950047E0,1.178295040E1
4.391817619E0,1.164000034E0,1.933050036E0,8.796000481E0
4.411817619E0,1.164000034E0,1.933050036E0,8.796000481E0
4.431817619E0,-2.899500132E-1,3.310950041E0,8.278950691E0
4.451817619E0,-2.899500132E-1,3.310950041E0,8.278950691E0
4.471817619E0,-2.899500132E-1,3.310950041E0,8.278950691E0
4.491817619E0,2.449500114E-1,2.851950169E0,7.282950401E0
4.511817619E0,2.449500114E-1,2.851950169E0,7.282950401E0
4.531817619E0,-4.429500103E-1,4.039050102E0,7.225050449E0
4.551817619E0,-4.429500103E-1,4.039050102E0,7.225050449E0
4.571817619E0,-1.939500123E-1,4.575000286E0,8.105999947E0
4.591817619E0,-1.939500123E-1,4.575000286E0,8.105999947E0
4.611817619E0,2.830500007E-1,4.057950020E0,8.298000336E0
4.631817619E0,5.400000140E-2,4.077000141E0,8.623050690E0
4.651817619E0,5.400000140E-2,4.077000141E0,8.623050690E0
4.671817619E0,-3.090000153E-1,4.153950214E0,9.886950493E0
4.691817619E0,-3.090000153E-1,4.153950214E0,9.886950493E0
4.711817619E0,-9.600000381E-1,4.326000214E0,1.032705021E1
4.731817619E0,-9.600000381E-1,4.326000214E0,1.032705021E1
4.751817619E0,-1.879050136E0,4.019999981E0,1.101705074E1
4.771817619E0,-1.840950131E0,3.886050224E0,1.097895050E1
4.791817619E0,-1.840950131E0,3.886050224E0,1.097895050E1
4.811817619E0,-1.936950088E0,3.445050240E0,1.067205048E1
4.831817619E0,-1.936950088E0,3.445050240E0,1.067205048E1
4.851817619E0,-1.936950088E0,3.445050240E0,1.067205048E1
4.871817619E0,-1.936950088E0,3.445050240E0,1.067205048E1
4.891817619E0,-1.936950088E0,3.445050240E0,1.067205048E1
4.911817619E0,-1.534950018E0,2.698950052E0,6.880950451E0
4.931817619E0,-1.534950018E0,2.698950052E0,6.880950451E0
4.951817619E0,-1.534950018E0,2.698950052E0,6.880950451E0
4.971817619E0,-1.534950018E0,2.698950052E0,6.880950451E0
4.991817619E0,-1.171050072E0,1.473000050E0,1.157205009E1
5.011817619E0,-5.580000281E-1,8.790000677E-1,1.134195042E1
5.031817619E0,-5.580000281E-1,8.790000677E-1,1.134195042E1
5.051817619E0,-4.429500103E-1,1.645050049E0,8.470050812E0
5.071817619E0,-4.429500103E-1,1.645050049E0,8.470050812E0
5.091817619E0,-1.381950021E0,2.257950068E0,9.562050819E0
5.111817619E0,-1.381950021E0,2.257950068E0,9.562050819E0
5.131817619E0,1.048950076E0,1.569000125E0,8.355000496E0
5.151817619E0,8.770500422E-1,2.316000223E0,8.641950607E0
5.171817619E0,8.770500422E-1,2.316000223E0,8.641950607E0
5.191817619E0,-2.140500098E-1,3.253950119E0,1.027005005E1
5.211817619E0,-2.140500098E-1,3.253950119E0,1.027005005E1
5.231817619E0,1.879500151E-1,3.330000162E0,9.541950226E0
5.251817619E0,1.879500151E-1,3.330000162E0,9.541950226E0
5.271817619E0,9.919500351E-1,3.120000124E0,8.680950165E0
5.291817619E0,1.068000078E0,2.679000139E0,1.057605076E1
5.311817619E0,1.068000078E0,2.679000139E0,1.057605076E1
5.331817619E0,6.660000086E-1,2.277000189E0,1.287405014E1
5.351817619E0,6.660000086E-1,2.277000189E0,1.287405014E1
5.371817619E0,6.660000086E-1,2.277000189E0,1.287405014E1
5.391817619E0,6.660000086E-1,2.277000189E0,1.287405014E1
5.411817619E0,6.660000086E-1,2.277000189E0,1.287405014E1
5.431817619E0,1.699950099E0,1.261950016E0,1.007895088E1
5.451817619E0,1.699950099E0,1.261950016E0,1.007895088E1
5.471817619E0,1.222050071E0,1.645050049E0,8.451000214E0
5.491817619E0,1.222050071E0,1.645050049E0,8.451000214E0
5.511817619E0,1.585950017E0,1.837050080E0,7.704000473E0
5.531817619E0,1.834050059E0,1.875000119E0,7.647000313E0
5.551817619E0,1.834050059E0,1.875000119E0,7.647000313E0
5.571817619E0,1.279050112E0,2.622000217E0,7.666050434E0
5.591817619E0,1.279050112E0,2.622000217E0,7.666050434E0
5.611817619E0,1.317000031E0,2.928000212E0,7.417050362E0
5.631817619E0,1.317000031E0,2.928000212E0,7.417050362E0
5.651817619E0,1.336950064E0,3.082050085E0,8.527050018E0
5.671817619E0,1.144950032E0,3.445050240E0,8.796000481E0
5.691817619E0,1.144950032E0,3.445050240E0,8.796000481E0
5.711817619E0,1.336950064E0,2.584050179E0,9.541950226E0
5.731817619E0,1.336950064E0,2.584050179E0,9.541950226E0
5.751817619E0,6.859500408E-1,2.641050100E0,9.886950493E0
5.771817619E0,6.859500408E-1,2.641050100E0,9.886950493E0
5.791817619E0,-1.075049996E0,3.273000240E0,1.111305046E1
5.811817619E0,-9.030000567E-1,3.024000168E0,1.143795013E1
5.831817619E0,-9.030000567E-1,3.024000168E0,1.143795013E1
5.851817619E0,-3.090000153E-1,2.775000095E0,1.241505051E1
5.871817619E0,-3.090000153E-1,2.775000095E0,1.241505051E1
5.891817619E0,-3.090000153E-1,2.775000095E0,1.241505051E1
5.911817619E0,-3.090000153E-1,2.775000095E0,1.241505051E1
5.931817619E0,-3.090000153E-1,2.775000095E0,1.241505051E1
5.951817619E0,-7.879500389E-1,2.392050028E0,1.044195080E1
5.971817619E0,-7.879500389E-1,2.392050028E0,1.044195080E1
5.991817619E0,9.195000678E-2,2.277000189E0,1.107405090E1
6.011817619E0,9.195000678E-2,2.277000189E0,1.107405090E1
6.031817619E0,-7.905000448E-2,1.990050077E0,9.964050293E0
6.051817619E0,-4.050000310E-1,1.855950117E0,9.504000664E0
6.071817619E0,-4.050000310E-1,1.855950117E0,9.504000664E0
6.091817619E0,-9.030000567E-1,1.798950076E0,8.890950203E0
6.111817619E0,-9.030000567E-1,1.798950076E0,8.890950203E0
6.131817619E0,-1.285950065E0,1.798950076E0,8.239950180E0
6.151817619E0,-1.285950065E0,1.798950076E0,8.239950180E0
6.171817619E0,-6.919500232E-1,1.626000047E0,7.417050362E0
6.191817619E0,-7.110000253E-1,2.392050028E0,7.129950523E0
6.211817619E0,-7.110000253E-1,2.392050028E0,7.129950523E0
6.231817619E0,-5.200500488E-1,2.718000174E0,8.029950142E0
6.251817619E0,-5.200500488E-1,2.718000174E0,8.029950142E0
6.271817619E0,5.400000140E-2,2.833050251E0,8.641950607E0
6.291817619E0,5.400000140E-2,2.833050251E0,8.641950607E0
6.311817619E0,7.810500264E-1,2.086050034E0,1.082505035E1
6.331817619E0,2.070000172E-1,2.086050034E0,1.084500027E1
6.351817619E0,2.070000172E-1,2.086050034E0,1.084500027E1
6.371817619E0,9.195000678E-2,1.569000125E0,1.032705021E1
6.391817619E0,9.195000678E-2,1.569000125E0,1.032705021E1
6.411817619E0,3.220500052E-1,9.750000238E-1,1.149600029E1
6.431817619E0,-1.939500123E-1,1.588050127E0,1.220400047E1
6.451817619E0,-1.939500123E-1,1.588050127E0,1.220400047E1
6.471817619E0,1.048950076E0,9.370500445E-1,1.187895012E1
6.491817619E0,1.048950076E0,9.370500445E-1,1.187895012E1
6.511817619E0,9.540000558E-1,1.912950039E0,9.772050858E0
6.531817619E0,9.540000558E-1,1.912950039E0,9.772050858E0
6.551817619E0,9.540000558E-1,1.912950039E0,9.772050858E0
6.571817619E0,1.260000110E0,2.316000223E0,8.049000740E0
6.591817619E0,1.260000110E0,2.316000223E0,8.049000740E0
6.611817619E0,8.959500194E-1,2.563950062E0,7.588950157E0
6.631817619E0,8.959500194E-1,2.563950062E0,7.588950157E0
6.651817619E0,5.130000114E-1,2.430000067E0,7.033950329E0
6.671817619E0,5.130000114E-1,2.430000067E0,7.033950329E0
6.691817619E0,5.130000114E-1,2.430000067E0,7.033950329E0
6.711817619E0,-2.140500098E-1,3.120000124E0,7.972050190E0
6.731817619E0,-2.140500098E-1,3.120000124E0,7.972050190E0
6.751817619E0,3.405000269E-2,2.833050251E0,9.178950310E0
6.771817619E0,3.405000269E-2,2.833050251E0,9.178950310E0
6.791817619E0,5.899500251E-1,2.622000217E0,9.427050591E0
6.811817619E0,5.899500251E-1,2.622000217E0,9.427050591E0
6.831817619E0,-4.050000310E-1,3.196050167E0,1.120800018E1
6.851817619E0,-7.309500575E-1,3.004950047E0,1.118895054E1
6.871817619E0,-7.309500575E-1,3.004950047E0,1.118895054E1
6.891817619E0,-1.381950021E0,3.655950069E0,1.013595009E1
6.911817619E0,-1.381950021E0,3.655950069E0,1.013595009E1
6.931817619E0,-1.381950021E0,3.655950069E0,1.013595009E1
6.951817619E0,-1.055999994E0,3.618000269E0,1.228095055E1
6.971817619E0,-1.055999994E0,3.618000269E0,1.228095055E1
6.991817619E0,-1.458000064E0,2.373000145E0,1.216605091E1
7.011817619E0,-1.458000064E0,2.373000145E0,1.216605091E1
7.031817619E0,-1.899000049E0,2.718000174E0,1.101705074E1
7.051817619E0,-1.899000049E0,2.718000174E0,1.101705074E1
7.071817619E0,-1.899000049E0,2.718000174E0,1.101705074E1
7.091817619E0,-6.540000439E-1,2.469000101E0,9.676050186E0
7.111817619E0,-6.540000439E-1,2.469000101E0,9.676050186E0
7.131817619E0,-3.000000026E-3,2.335050106E0,8.546999931E0
7.151817619E0,-3.000000026E-3,2.335050106E0,8.546999931E0
7.171817619E0,-2.140500098E-1,1.933050036E0,7.780950546E0
7.191817619E0,-2.140500098E-1,1.933050036E0,7.780950546E0
7.211817619E0,-2.140500098E-1,1.933050036E0,7.780950546E0
7.231817619E0,-1.248000026E0,2.545050144E0,8.508000374E0
7.251817619E0,-1.248000026E0,2.545050144E0,8.508000374E0
7.271817619E0,-6.000000238E-2,2.104950190E0,7.704000473E0
7.291817619E0,-6.000000238E-2,2.104950190E0,7.704000473E0
7.311817619E0,-3.090000153E-1,2.812950134E0,8.049000740E0
7.331817619E0,-3.090000153E-1,2.812950134E0,8.049000740E0
7.351817619E0,-3.090000153E-1,2.812950134E0,8.049000740E0
7.371817619E0,-1.939500123E-1,3.139050245E0,9.121050835E0
7.391817619E0,-1.939500123E-1,3.139050245E0,9.121050835E0
7.411817619E0,4.170000255E-1,2.775000095E0,1.078695011E1
7.431817619E0,4.170000255E-1,2.775000095E0,1.078695011E1
7.451817619E0,-8.070000410E-1,2.928000212E0,1.120800018E1
7.471817619E0,-1.093950033E0,2.967000246E0,1.099800014E1
7.491817619E0,-5.010000467E-1,2.718000174E0,1.172505093E1
7.511817619E0,5.400000140E-2,2.449950218E0,1.233795071E1
7.531817619E0,5.400000140E-2,2.449950218E0,1.233795071E1
7.551817619E0,5.899500251E-1,2.200950146E0,1.212795067E1
7.571817619E0,5.899500251E-1,2.200950146E0,1.212795067E1
7.591817619E0,5.899500251E-1,2.200950146E0,1.212795067E1
7.611817619E0,6.660000086E-1,2.563950062E0,1.136205101E1
7.631817619E0,6.660000086E-1,2.563950062E0,1.136205101E1
7.651817619E0,7.240500450E-1,2.067000151E0,8.662050247E0
7.671817619E0,7.240500450E-1,2.067000151E0,8.662050247E0
7.691817619E0,1.087950110E0,2.239050150E0,8.010000229E0
7.711817619E0,1.087950110E0,2.239050150E0,8.010000229E0
7.731817619E0,1.087950110E0,2.239050150E0,8.010000229E0
7.751817619E0,-3.670500219E-1,2.775000095E0,6.651000500E0
7.771817619E0,-3.670500219E-1,2.775000095E0,6.651000500E0
7.791817619E0,-7.905000448E-2,3.349950075E0,6.766050339E0
7.811817619E0,-7.905000448E-2,3.349950075E0,6.766050339E0
7.831817619E0,-3.000000026E-3,3.867000103E0,7.206000328E0
7.851817619E0,-3.000000026E-3,3.867000103E0,7.206000328E0
7.871817619E0,-3.000000026E-3,3.867000103E0,7.206000328E0
7.891817619E0,3.405000269E-2,3.847050190E0,8.508000374E0
7.911817619E0,3.405000269E-2,3.847050190E0,8.508000374E0
7.931817619E0,-8.839500546E-1,3.637050152E0,1.019295025E1
7.951817619E0,-8.839500546E-1,3.637050152E0,1.019295025E1
7.971817619E0,-1.495950103E0,3.808950186E0,1.072995090E1
7.991817619E0,-2.052000046E0,4.039050102E0,1.101705074E1
8.011817619E0,-2.644950151E0,3.867000103E0,1.132305050E1
8.031817619E0,-2.320050001E0,3.712950230E0,1.199295044E1
8.051817619E0,-2.320050001E0,3.712950230E0,1.199295044E1
8.071817619E0,-1.381950021E0,3.484050274E0,1.260600090E1
8.091817619E0,-1.381950021E0,3.484050274E0,1.260600090E1
8.111817619E0,-1.381950021E0,3.484050274E0,1.260600090E1
8.131817619E0,-1.822050095E0,3.120000124E0,1.088295078E1
8.151817619E0,-1.822050095E0,3.120000124E0,1.088295078E1
8.171817619E0,-1.669050097E0,3.100950241E0,1.027005005E1
8.191817619E0,-1.669050097E0,3.100950241E0,1.027005005E1
8.211817619E0,-1.324050069E0,2.659950018E0,9.810000420E0
8.231817619E0,-1.324050069E0,2.659950018E0,9.810000420E0
8.251817619E0,-1.324050069E0,2.659950018E0,9.810000420E0
8.271817619E0,-4.240500331E-1,2.257950068E0,8.508000374E0
8.291817619E0,-4.240500331E-1,2.257950068E0,8.508000374E0
8.311817619E0,-5.770500302E-1,2.353950024E0,7.531950474E0
8.331817619E0,-5.770500302E-1,2.353950024E0,7.531950474E0
8.351817619E0,-1.591950059E0,2.833050251E0,7.417050362E0
8.371817619E0,-1.591950059E0,2.833050251E0,7.417050362E0
8.391817619E0,-1.591950059E0,2.833050251E0,7.417050362E0
8.411817619E0,7.304999977E-2,3.082050085E0,7.110000134E0
8.431817619E0,7.304999977E-2,3.082050085E0,7.110000134E0
8.451817619E0,-1.018050075E0,3.655950069E0,8.584950447E0
8.471817619E0,-1.018050075E0,3.655950069E0,8.584950447E0
8.491817619E0,-1.093950033E0,3.559950113E0,1.005900002E1
8.511817619E0,-4.620000124E-1,2.833050251E0,1.028895092E1
8.531817619E0,-4.620000124E-1,2.833050251E0,1.028895092E1
8.551817619E0,-3.859500289E-1,2.641050100E0,1.065300083E1
8.571817619E0,-3.859500289E-1,2.641050100E0,1.065300083E1
8.591817619E0,3.979500234E-1,1.492050052E0,1.111305046E1
8.611817619E0,3.979500234E-1,1.492050052E0,1.111305046E1
8.631817619E0,3.979500234E-1,1.492050052E0,1.111305046E1
8.651817619E0,-3.670500219E-1,1.933050036E0,1.067205048E1
8.671817619E0,-3.670500219E-1,1.933050036E0,1.067205048E1
8.691817619E0,7.240500450E-1,1.912950039E0,1.155300045E1
8.711817619E0,7.240500450E-1,1.912950039E0,1.155300045E1
8.731817619E0,1.144950032E0,2.373000145E0,1.015500069E1
8.751817619E0,1.144950032E0,2.373000145E0,1.015500069E1
8.771817619E0,1.144950032E0,2.373000145E0,1.015500069E1
8.791817619E0,1.297950029E0,2.659950018E0,8.968050003E0
8.811817619E0,1.297950029E0,2.659950018E0,8.968050003E0
8.831817619E0,1.317000031E0,2.430000067E0,7.513050556E0
8.851817619E0,1.317000031E0,2.430000067E0,7.513050556E0
8.871817619E0,2.830500007E-1,2.947050095E0,7.990950584E0
8.891817619E0,2.830500007E-1,2.947050095E0,7.990950584E0
8.911817619E0,2.830500007E-1,2.947050095E0,7.990950584E0
8.931817619E0,1.450950027E0,2.908950090E0,8.546999931E0
8.951817619E0,1.450950027E0,2.908950090E0,8.546999931E0
8.971817619E0,9.730500579E-1,3.082050085E0,9.292950630E0
8.991817619E0,9.730500579E-1,3.082050085E0,9.292950630E0
9.011817619E0,5.899500251E-1,2.641050100E0,9.427050591E0
9.031817619E0,7.050000429E-1,2.410950184E0,9.906000137E0
9.051817619E0,7.050000429E-1,2.410950184E0,9.906000137E0
9.071817619E0,-7.309500575E-1,2.526000023E0,1.025100040E1
9.091817619E0,-7.309500575E-1,2.526000023E0,1.025100040E1
9.111817619E0,-1.879050136E0,2.833050251E0,1.076805019E1
9.131817619E0,-1.879050136E0,2.833050251E0,1.076805019E1
9.151817619E0,-1.879050136E0,2.833050251E0,1.076805019E1
9.171817619E0,-1.342950106E0,2.641050100E0,1.161000061E1
9.191817619E0,-1.342950106E0,2.641050100E0,1.161000061E1
9.211817619E0,-6.540000439E-1,2.200950146E0,1.113195038E1
9.231817619E0,-6.540000439E-1,2.200950146E0,1.113195038E1
9.251817619E0,-8.449500203E-1,2.257950068E0,1.090200043E1
9.271817619E0,-8.449500203E-1,2.257950068E0,1.090200043E1
9.291817619E0,-8.449500203E-1,2.257950068E0,1.090200043E1
9.311817619E0,-8.260500431E-1,1.951950073E0,9.484950066E0
9.331817619E0,-8.260500431E-1,1.951950073E0,9.484950066E0
9.351817619E0,4.750500321E-1,2.047049999E0,9.600000381E0
9.371817619E0,4.750500321E-1,2.047049999E0,9.600000381E0
9.391817619E0,9.540000558E-1,1.416000009E0,8.086950302E0
9.411817619E0,9.540000558E-1,1.416000009E0,8.086950302E0
9.431817619E0,9.540000558E-1,1.416000009E0,8.086950302E0
9.451817619E0,-1.267050028E0,2.257950068E0,8.566050529E0
9.471817619E0,-1.267050028E0,2.257950068E0,8.566050529E0
9.491817619E0,-5.010000467E-1,1.684050083E0,7.186950207E0
9.511817619E0,-5.010000467E-1,1.684050083E0,7.186950207E0
9.531817619E0,-5.580000281E-1,2.622000217E0,7.647000313E0
9.551817619E0,-8.839500546E-1,3.216000080E0,8.317049980E0
9.571817619E0,-8.839500546E-1,3.216000080E0,8.317049980E0
9.591817619E0,-5.389500260E-1,2.908950090E0,1.000200081E1
9.611817619E0,-5.389500260E-1,2.908950090E0,1.000200081E1
9.631817619E0,-1.939500123E-1,2.506950140E0,1.051905060E1
9.651817619E0,-1.939500123E-1,2.506950140E0,1.051905060E1
9.671817619E0,-8.260500431E-1,3.157950163E0,1.088295078E1
9.691817619E0,-7.690500617E-1,3.273000240E0,1.107405090E1
9.711817619E0,-7.690500617E-1,3.273000240E0,1.107405090E1
9.731817619E0,2.830500007E-1,2.602950096E0,1.115100098E1
9.751817619E0,2.830500007E-1,2.602950096E0,1.115100098E1
9.771817619E0,5.130000114E-1,2.506950140E0,1.105500031E1
9.791817619E0,5.130000114E-1,2.506950140E0,1.105500031E1
9.811817619E0,5.130000114E-1,2.506950140E0,1.105500031E1
9.831817619E0,3.979500234E-1,2.698950052E0,1.025100040E1
9.851817619E0,3.979500234E-1,2.698950052E0,1.025100040E1
9.871817619E0,1.106999993E0,2.161950111E0,8.719050407E0
9.891817619E0,1.106999993E0,2.161950111E0,8.719050407E0
9.911817619E0,1.106999993E0,2.161950111E0,8.719050407E0
9.931817619E0,1.106999993E0,2.161950111E0,8.719050407E0
9.951817619E0,1.106999993E0,2.161950111E0,8.719050407E0
9.971817619E0,1.489500105E-1,2.812950134E0,7.206000328E0
9.991817619E0,1.489500105E-1,2.812950134E0,7.206000328E0
1.001181762E1,-5.389500260E-1,3.541050196E0,7.800000191E0
1.003181762E1,-5.389500260E-1,3.541050196E0,7.800000191E0
1.005181762E1,-7.879500389E-1,3.465000153E0,8.105999947E0
1.007181762E1,-4.050000310E-1,3.216000080E0,8.105999947E0
1.009181762E1,-4.050000310E-1,3.216000080E0,8.105999947E0
1.011181762E1,-2.140500098E-1,3.273000240E0,9.102000237E0
1.013181762E1,-2.140500098E-1,3.273000240E0,9.102000237E0
1.015181762E1,-5.010000467E-1,3.061950207E0,9.829950333E0
1.017181762E1,-5.010000467E-1,3.061950207E0,9.829950333E0
1.019181762E1,-1.516050100E0,3.310950041E0,1.042305088E1
1.021181762E1,-1.993950129E0,3.522000074E0,1.111305046E1
1.023181762E1,-1.993950129E0,3.522000074E0,1.111305046E1
1.025181762E1,-5.770500302E-1,2.967000246E0,1.293195057E1
1.027181762E1,-5.770500302E-1,2.967000246E0,1.293195057E1
1.029181762E1,-9.990000725E-1,2.833050251E0,1.331505108E1
1.031181762E1,-9.990000725E-1,2.833050251E0,1.331505108E1
1.033181762E1,-9.990000725E-1,2.833050251E0,1.331505108E1
1.035181762E1,-1.248000026E0,2.833050251E0,1.182105064E1
1.037181762E1,-1.248000026E0,2.833050251E0,1.182105064E1
1.039181762E1,-5.580000281E-1,3.139050245E0,1.030800056E1
1.041181762E1,-5.580000281E-1,3.139050245E0,1.030800056E1
1.043181762E1,-4.050000310E-1,2.851950169E0,9.388950348E0
1.045181762E1,-4.050000310E-1,2.851950169E0,9.388950348E0
1.047181762E1,-4.050000310E-1,2.851950169E0,9.388950348E0
1.049181762E1,-3.280500174E-1,2.718000174E0,7.972050190E0
1.051181762E1,-3.280500174E-1,2.718000174E0,7.972050190E0
1.053181762E1,-6.000000238E-2,1.971000075E0,6.996000290E0
1.055181762E1,-6.000000238E-2,1.971000075E0,6.996000290E0
1.057181762E1,-9.990000725E-1,2.410950184E0,6.841950417E0
1.059181762E1,-1.554000020E0,2.602950096E0,7.090950489E0
1.061181762E1,-1.554000020E0,2.602950096E0,7.090950489E0
1.063181762E1,-1.516050100E0,2.947050095E0,7.282950401E0
1.065181762E1,-1.516050100E0,2.947050095E0,7.282950401E0
1.067181762E1,-1.248000026E0,3.139050245E0,8.010000229E0
1.069181762E1,-1.248000026E0,3.139050245E0,8.010000229E0
1.071181762E1,-9.600000381E-1,3.541050196E0,9.790950775E0
1.073181762E1,-6.349500418E-1,3.139050245E0,1.027005005E1
1.075181762E1,-6.349500418E-1,3.139050245E0,1.027005005E1
1.077181762E1,-9.990000725E-1,3.139050245E0,1.076805019E1
1.079181762E1,-9.990000725E-1,3.139050245E0,1.076805019E1
1.081181762E1,-1.093950033E0,3.177000046E0,1.082505035E1
1.083181762E1,-1.093950033E0,3.177000046E0,1.082505035E1
1.085181762E1,-1.093950033E0,3.177000046E0,1.082505035E1
1.087181762E1,9.195000678E-2,2.335050106E0,1.195500088E1
1.089181762E1,9.195000678E-2,2.335050106E0,1.195500088E1
1.091181762E1,9.195000678E-2,2.335050106E0,1.195500088E1
1.093181762E1,9.195000678E-2,2.335050106E0,1.195500088E1
1.095181762E1,5.509500504E-1,2.775000095E0,1.080600071E1
1.097181762E1,5.509500504E-1,2.775000095E0,1.080600071E1
1.099181762E1,5.509500504E-1,2.775000095E0,1.080600071E1
1.101181762E1,1.738950133E0,2.718000174E0,9.121050835E0
1.103181762E1,1.738950133E0,2.718000174E0,9.121050835E0
1.105181762E1,4.170000255E-1,3.465000153E0,7.990950584E0
1.107181762E1,4.170000255E-1,3.465000153E0,7.990950584E0
1.109181762E1,-2.329500169E-1,3.847050190E0,7.608000278E0
1.111181762E1,-9.900000691E-2,3.655950069E0,7.398000240E0
1.113181762E1,-9.900000691E-2,3.655950069E0,7.398000240E0
1.115181762E1,1.300500035E-1,3.982050180E0,7.129950523E0
1.117181762E1,1.300500035E-1,3.982050180E0,7.129950523E0
1.119181762E1,1.110000089E-1,4.153950214E0,7.780950546E0
1.121181762E1,1.110000089E-1,4.153950214E0,7.780950546E0
1.123181762E1,8.580000401E-1,3.982050180E0,8.278950691E0
1.125181762E1,1.106999993E0,4.000950336E0,8.278950691E0
1.127181762E1,1.106999993E0,4.000950336E0,8.278950691E0
1.129181762E1,1.500000060E-2,4.153950214E0,1.048095036E1
1.131181762E1,1.500000060E-2,4.153950214E0,1.048095036E1
1.133181762E1,-6.349500418E-1,4.269000053E0,9.619050026E0
1.135181762E1,-6.349500418E-1,4.269000053E0,9.619050026E0
1.137181762E1,-6.349500418E-1,4.269000053E0,9.619050026E0
1.139181762E1,-1.267050028E0,4.633050442E0,1.157205009E1
1.141181762E1,-1.267050028E0,4.633050442E0,1.157205009E1
1.143181762E1,-2.140500098E-1,3.369000196E0,1.126605034E1
1.145181762E1,-2.140500098E-1,3.369000196E0,1.126605034E1
1.147181762E1,-4.819500148E-1,3.388050079E0,1.111305046E1
1.149181762E1,-4.819500148E-1,3.388050079E0,1.111305046E1
1.151181762E1,-4.819500148E-1,3.388050079E0,1.111305046E1
1.153181762E1,1.680000126E-1,3.100950241E0,9.178950310E0
1.155181762E1,1.680000126E-1,3.100950241E0,9.178950310E0
1.157181762E1,-3.859500289E-1,2.986050129E0,7.915050507E0
1.159181762E1,-3.859500289E-1,2.986050129E0,7.915050507E0
1.161181762E1,-3.280500174E-1,2.641050100E0,7.321050167E0
1.163181762E1,-4.819500148E-1,2.622000217E0,7.359000206E0
1.165181762E1,-4.819500148E-1,2.622000217E0,7.359000206E0
1.167181762E1,-7.905000448E-2,3.082050085E0,7.110000134E0
1.169181762E1,-7.905000448E-2,3.082050085E0,7.110000134E0
1.171181762E1,3.979500234E-1,3.292050123E0,7.896000385E0
1.173181762E1,3.979500234E-1,3.292050123E0,7.896000385E0
1.175181762E1,-2.520000041E-1,3.733050108E0,8.662050247E0
1.177181762E1,9.195000678E-2,3.579000235E0,8.796000481E0
1.179181762E1,9.195000678E-2,3.579000235E0,8.796000481E0
1.181181762E1,1.297950029E0,3.961950302E0,9.753000259E0
1.183181762E1,1.297950029E0,3.961950302E0,9.753000259E0
1.185181762E1,9.340500236E-1,3.847050190E0,1.103595066E1
1.187181762E1,9.340500236E-1,3.847050190E0,1.103595066E1
1.189181762E1,9.340500236E-1,3.847050190E0,1.103595066E1
1.191181762E1,1.528050065E0,3.502950191E0,1.115100098E1
1.193181762E1,1.528050065E0,3.502950191E0,1.115100098E1
1.195181762E1,1.528050065E0,3.502950191E0,1.115100098E1
1.197181762E1,1.528050065E0,3.502950191E0,1.115100098E1
1.199181762E1,1.795950055E0,3.004950047E0,1.069095039E1
1.201181762E1,1.795950055E0,3.004950047E0,1.069095039E1
1.203181762E1,1.795950055E0,3.004950047E0,1.069095039E1
1.205181762E1,2.044950008E0,1.894050121E0,1.030800056E1
1.207181762E1,2.044950008E0,1.894050121E0,1.030800056E1
1.209181762E1,1.891950130E0,2.047049999E0,8.949000359E0
1.211181762E1,1.891950130E0,2.047049999E0,8.949000359E0
1.213181762E1,1.891950130E0,2.047049999E0,8.949000359E0
1.215181762E1,1.546950102E0,2.239050150E0,7.723050594E0
1.217181762E1,1.546950102E0,2.239050150E0,7.723050594E0
1.219181762E1,7.240500450E-1,3.061950207E0,7.225050449E0
1.221181762E1,7.240500450E-1,3.061950207E0,7.225050449E0
1.223181762E1,8.389500380E-1,3.043050051E0,7.339950562E0
1.225181762E1,8.389500380E-1,3.043050051E0,7.339950562E0
1.227181762E1,6.469500065E-1,3.292050123E0,7.800000191E0
1.229181762E1,9.150000215E-1,3.541050196E0,8.202000618E0
1.231181762E1,9.150000215E-1,3.541050196E0,8.202000618E0
1.233181762E1,1.662000060E0,3.522000074E0,8.584950447E0
1.235181762E1,1.662000060E0,3.522000074E0,8.584950447E0
1.237181762E1,7.240500450E-1,3.177000046E0,9.351000786E0
1.239181762E1,7.240500450E-1,3.177000046E0,9.351000786E0
1.241181762E1,7.240500450E-1,3.177000046E0,9.351000786E0
1.243181762E1,-5.959500074E-1,3.024000168E0,1.072995090E1
1.245181762E1,-5.959500074E-1,3.024000168E0,1.072995090E1
1.247181762E1,-5.959500074E-1,2.449950218E0,1.118895054E1
1.249181762E1,-5.959500074E-1,2.449950218E0,1.118895054E1
1.251181762E1,-6.730500460E-1,2.871000051E0,1.090200043E1
1.253181762E1,-9.220500588E-1,3.061950207E0,1.076805019E1
1.255181762E1,-9.220500588E-1,3.061950207E0,1.076805019E1
1.257181762E1,-1.860000134E0,2.679000139E0,1.048095036E1
1.259181762E1,-1.860000134E0,2.679000139E0,1.048095036E1
1.261181762E1,-1.783950090E0,2.563950062E0,1.021305084E1
1.263181762E1,-1.783950090E0,2.563950062E0,1.021305084E1
1.265181762E1,-2.071050167E0,3.082050085E0,8.796000481E0
1.267181762E1,-1.534950018E0,2.833050251E0,8.355000496E0
1.269181762E1,-1.534950018E0,2.833050251E0,8.355000496E0
1.271181762E1,3.405000269E-2,3.484050274E0,9.139950752E0
1.273181762E1,3.405000269E-2,3.484050274E0,9.139950752E0
1.275181762E1,-7.309500575E-1,2.890050173E0,8.641950607E0
1.277181762E1,-7.309500575E-1,2.890050173E0,8.641950607E0
1.279181762E1,-7.309500575E-1,2.890050173E0,8.641950607E0
1.281181762E1,-1.650000095E0,3.082050085E0,7.053000450E0
1.283181762E1,-1.650000095E0,3.082050085E0,7.053000450E0
1.285181762E1,-5.959500074E-1,2.833050251E0,8.086950302E0
1.287181762E1,-5.959500074E-1,2.833050251E0,8.086950302E0
1.289181762E1,-3.280500174E-1,3.120000124E0,7.933950424E0
1.291181762E1,-3.280500174E-1,3.120000124E0,7.933950424E0
1.293181762E1,-3.280500174E-1,3.120000124E0,7.933950424E0
1.295181762E1,-3.090000153E-1,3.043050051E0,1.120800018E1
1.297181762E1,-3.090000153E-1,3.043050051E0,1.120800018E1
1.299181762E1,5.710500479E-1,2.469000101E0,1.264500046E1
1.301181762E1,5.710500479E-1,2.469000101E0,1.264500046E1
1.303181762E1,2.070000172E-1,2.410950184E0,1.371705055E1
1.305181762E1,2.260500044E-1,2.047049999E0,1.413795090E1
1.307181762E1,2.260500044E-1,2.047049999E0,1.413795090E1
1.309181762E1,1.317000031E0,1.128000021E0,1.297005081E1
1.311181762E1,1.317000031E0,1.128000021E0,1.297005081E1
1.313181762E1,1.509000063E0,1.473000050E0,1.057605076E1
1.315181762E1,1.509000063E0,1.473000050E0,1.057605076E1
1.317181762E1,1.509000063E0,1.473000050E0,1.057605076E1
1.319181762E1,1.432050109E0,1.912950039E0,7.990950584E0
1.321181762E1,1.432050109E0,1.912950039E0,7.990950584E0
1.323181762E1,7.999500632E-1,2.277000189E0,6.766050339E0
1.325181762E1,7.999500632E-1,2.277000189E0,6.766050339E0
1.327181762E1,7.620000243E-1,2.335050106E0,6.555000305E0
1.329181762E1,7.620000243E-1,2.335050106E0,6.555000305E0
1.331181762E1,7.620000243E-1,2.335050106E0,6.555000305E0
1.333181762E1,-1.750500053E-1,3.061950207E0,6.880950451E0
1.335181762E1,-1.750500053E-1,3.061950207E0,6.880950451E0
1.337181762E1,3.790500164E-1,3.177000046E0,7.435950279E0
1.339181762E1,3.790500164E-1,3.177000046E0,7.435950279E0
1.341181762E1,4.939500093E-1,3.712950230E0,8.756999969E0
1.343181762E1,4.939500093E-1,3.712950230E0,8.756999969E0
1.345181762E1,4.939500093E-1,3.712950230E0,8.756999969E0
1.347181762E1,7.240500450E-1,3.426000118E0,9.580950737E0
1.349181762E1,7.240500450E-1,3.426000118E0,9.580950737E0
1.351181762E1,-3.859500289E-1,3.484050274E0,1.105500031E1
1.353181762E1,-3.859500289E-1,3.484050274E0,1.105500031E1
1.355181762E1,-3.859500289E-1,3.484050274E0,1.105500031E1
1.357181762E1,-1.180500090E-1,3.771000147E0,1.168695068E1
1.359181762E1,-1.180500090E-1,3.771000147E0,1.168695068E1
1.361181762E1,3.030000031E-1,3.292050123E0,1.212795067E1
1.363181762E1,3.030000031E-1,3.292050123E0,1.212795067E1
1.365181762E1,-5.389500260E-1,2.506950140E0,1.262505054E1
1.367181762E1,-5.389500260E-1,2.506950140E0,1.262505054E1
1.369181762E1,-1.840950131E0,2.737050056E0,1.316205025E1
1.371181762E1,-2.148000002E0,2.563950062E0,1.270200062E1
1.373181762E1,-2.148000002E0,2.563950062E0,1.270200062E1
1.375181762E1,-1.477050066E0,1.855950117E0,9.523050308E0
1.377181762E1,-1.477050066E0,1.855950117E0,9.523050308E0
1.379181762E1,-1.132950068E0,2.220000029E0,8.374050140E0
1.381181762E1,-1.132950068E0,2.220000029E0,8.374050140E0
1.383181762E1,-1.132950068E0,2.220000029E0,8.374050140E0
1.385181762E1,4.939500093E-1,2.353950024E0,8.662050247E0
1.387181762E1,4.939500093E-1,2.353950024E0,8.662050247E0
1.389181762E1,3.409500122E-1,2.296050072E0,7.206000328E0
1.391181762E1,3.409500122E-1,2.296050072E0,7.206000328E0
1.393181762E1,3.409500122E-1,2.296050072E0,7.206000328E0
1.395181762E1,3.409500122E-1,2.296050072E0,7.206000328E0
1.397181762E1,3.409500122E-1,2.296050072E0,7.206000328E0
1.399181762E1,-6.000000238E-2,3.310950041E0,7.264050484E0
1.401181762E1,-6.000000238E-2,3.310950041E0,7.264050484E0
1.403181762E1,-4.095000029E-2,3.675000191E0,8.833950043E0
1.405181762E1,-4.095000029E-2,3.675000191E0,8.833950043E0
1.407181762E1,-5.770500302E-1,3.579000235E0,9.810000420E0
1.409181762E1,-9.030000567E-1,3.522000074E0,1.015500069E1
1.411181762E1,-9.030000567E-1,3.522000074E0,1.015500069E1
1.413181762E1,1.413000107E0,3.541050196E0,1.126605034E1
1.415181762E1,1.413000107E0,3.541050196E0,1.126605034E1
1.417181762E1,7.050000429E-1,2.871000051E0,1.247205067E1
1.419181762E1,7.050000429E-1,2.871000051E0,1.247205067E1
1.421181762E1,5.130000114E-1,1.951950073E0,1.208895016E1
1.423181762E1,5.509500504E-1,2.124000072E0,1.157205009E1
1.425181762E1,5.509500504E-1,2.124000072E0,1.157205009E1
1.427181762E1,5.899500251E-1,2.449950218E0,9.600000381E0
1.429181762E1,5.899500251E-1,2.449950218E0,9.600000381E0
1.431181762E1,3.409500122E-1,2.104950190E0,9.407999992E0
1.433181762E1,3.409500122E-1,2.104950190E0,9.407999992E0
1.435181762E1,3.409500122E-1,2.104950190E0,9.407999992E0
1.437181762E1,7.050000429E-1,2.563950062E0,7.647000313E0
1.439181762E1,7.050000429E-1,2.563950062E0,7.647000313E0
1.441181762E1,-5.010000467E-1,3.043050051E0,7.015050411E0
1.443181762E1,-5.010000467E-1,3.043050051E0,7.015050411E0
1.445181762E1,-2.520000041E-1,3.253950119E0,6.937950134E0
1.447181762E1,-2.520000041E-1,3.253950119E0,6.937950134E0
1.449181762E1,-2.520000041E-1,3.253950119E0,6.937950134E0
1.451181762E1,-8.449500203E-1,3.828000069E0,7.990950584E0
1.453181762E1,-8.449500203E-1,3.828000069E0,7.990950584E0
1.455181762E1,-1.560000032E-1,3.369000196E0,1.053795052E1
1.457181762E1,-1.560000032E-1,3.369000196E0,1.053795052E1
1.459181762E1,-3.090000153E-1,2.908950090E0,1.207005024E1
1.461181762E1,-6.160500050E-1,2.947050095E0,1.249095058E1
1.463181762E1,-6.160500050E-1,2.947050095E0,1.249095058E1
1.465181762E1,-6.160500050E-1,4.135050297E0,1.185900021E1
1.467181762E1,-6.160500050E-1,4.135050297E0,1.185900021E1
1.469181762E1,1.489500105E-1,4.612950325E0,1.092105007E1
1.471181762E1,1.489500105E-1,4.612950325E0,1.092105007E1
1.473181762E1,-8.449500203E-1,3.216000080E0,1.178295040E1
1.475181762E1,-1.765050054E0,3.292050123E0,1.218495083E1
1.477181762E1,-1.765050054E0,3.292050123E0,1.218495083E1
1.479181762E1,-2.052000046E0,2.967000246E0,1.057605076E1
1.481181762E1,-2.052000046E0,2.967000246E0,1.057605076E1
1.483181762E1,-1.267050028E0,2.506950140E0,9.043950081E0
1.485181762E1,-1.267050028E0,2.506950140E0,9.043950081E0
1.487181762E1,-1.267050028E0,2.506950140E0,9.043950081E0
1.489181762E1,-1.189950109E0,1.894050121E0,7.243950367E0
1.491181762E1,-1.189950109E0,1.894050121E0,7.243950367E0
1.493181762E1,-1.189950109E0,1.894050121E0,7.243950367E0
1.495181762E1,-1.189950109E0,1.894050121E0,7.243950367E0
1.497181762E1,-1.420050025E0,2.008949995E0,7.015050411E0
1.499181762E1,-1.420050025E0,2.008949995E0,7.015050411E0
1.501181762E1,-1.420050025E0,2.008949995E0,7.015050411E0
1.503181762E1,-1.132950068E0,2.182049990E0,7.090950489E0
1.505181762E1,-1.132950068E0,2.182049990E0,7.090950489E0
1.507181762E1,-3.670500219E-1,2.908950090E0,7.666050434E0
1.509181762E1,-3.670500219E-1,2.908950090E0,7.666050434E0
1.511181762E1,1.500000060E-2,3.177000046E0,8.719050407E0
1.513181762E1,4.750500321E-1,3.196050167E0,9.102000237E0
1.515181762E1,4.750500321E-1,3.196050167E0,9.102000237E0
1.517181762E1,2.639999986E-1,2.871000051E0,1.166805077E1
1.519181762E1,2.639999986E-1,2.871000051E0,1.166805077E1
1.521181762E1,2.350950003E0,2.104950190E0,1.524900055E1
1.523181762E1,2.350950003E0,2.104950190E0,1.524900055E1
1.525181762E1,2.350950003E0,2.104950190E0,1.524900055E1
1.527181762E1,2.466000080E0,6.880500317E-1,1.434900093E1
1.529181762E1,2.466000080E0,6.880500317E-1,1.434900093E1
1.531181762E1,1.260000110E0,1.645050049E0,1.249095058E1
1.533181762E1,1.260000110E0,1.645050049E0,1.249095058E1
1.535181762E1,1.566000104E0,1.569000125E0,9.925050735E0
1.537181762E1,1.566000104E0,1.569000125E0,9.925050735E0
1.539181762E1,1.566000104E0,1.569000125E0,9.925050735E0
1.541181762E1,9.150000215E-1,2.239050150E0,6.708000183E0
1.543181762E1,9.150000215E-1,2.239050150E0,6.708000183E0
1.545181762E1,5.400000140E-2,2.469000101E0,6.402000427E0
1.547181762E1,5.400000140E-2,2.469000101E0,6.402000427E0
1.549181762E1,-4.050000310E-1,2.871000051E0,6.343950272E0
1.551181762E1,-4.050000310E-1,2.871000051E0,6.343950272E0
1.553181762E1,-4.050000310E-1,2.871000051E0,6.343950272E0
1.555181762E1,-1.189950109E0,3.771000147E0,6.784950256E0
1.557181762E1,-1.189950109E0,3.771000147E0,6.784950256E0
1.559181762E1,-7.309500575E-1,4.077000141E0,7.647000313E0
1.561181762E1,-7.309500575E-1,4.077000141E0,7.647000313E0
1.563181762E1,-4.620000124E-1,3.847050190E0,9.178950310E0
1.565181762E1,-5.200500488E-1,3.445050240E0,9.849000931E0
1.567181762E1,-5.200500488E-1,3.445050240E0,9.849000931E0
1.569181762E1,-2.607000113E0,3.196050167E0,1.153395081E1
1.571181762E1,-2.607000113E0,3.196050167E0,1.153395081E1
1.573181762E1,-2.875050068E0,3.120000124E0,1.295100021E1
1.575181762E1,-2.875050068E0,3.120000124E0,1.295100021E1
1.577181762E1,-2.875050068E0,3.120000124E0,1.295100021E1
1.579181762E1,-1.650000095E0,2.851950169E0,1.346805096E1
1.581181762E1,-1.650000095E0,2.851950169E0,1.346805096E1
1.583181762E1,-3.067050219E0,1.779000044E0,1.387005043E1
1.585181762E1,-3.067050219E0,1.779000044E0,1.387005043E1
1.587181762E1,-2.587950230E0,1.933050036E0,1.327605057E1
1.589181762E1,-2.587950230E0,1.933050036E0,1.327605057E1
1.591181762E1,-2.587950230E0,1.933050036E0,1.327605057E1
1.593181762E1,-9.409500360E-1,1.798950076E0,9.925050735E0
1.595181762E1,-9.409500360E-1,1.798950076E0,9.925050735E0
1.597181762E1,-5.389500260E-1,1.702950120E0,7.896000385E0
1.599181762E1,-5.389500260E-1,1.702950120E0,7.896000385E0
1.601181762E1,-6.730500460E-1,2.008949995E0,7.110000134E0
1.603181762E1,-6.730500460E-1,2.008949995E0,7.110000134E0
1.605181762E1,8.200500607E-1,1.779000044E0,6.957000256E0
1.607181762E1,4.939500093E-1,2.410950184E0,6.861000538E0
1.609181762E1,4.939500093E-1,2.410950184E0,6.861000538E0
1.611181762E1,2.830500007E-1,2.641050100E0,6.919050217E0
1.613181762E1,2.830500007E-1,2.641050100E0,6.919050217E0
1.615181762E1,2.639999986E-1,3.388050079E0,7.551000595E0
1.617181762E1,5.320500135E-1,3.235050201E0,7.647000313E0
1.619181762E1,3.979500234E-1,3.330000162E0,7.837950230E0
1.621181762E1,2.070000172E-1,3.579000235E0,8.049000740E0
1.623181762E1,2.070000172E-1,3.579000235E0,8.049000740E0
1.625181762E1,-4.240500331E-1,3.655950069E0,9.217050552E0
1.627181762E1,-4.240500331E-1,3.655950069E0,9.217050552E0
1.629181762E1,-4.240500331E-1,3.655950069E0,9.217050552E0
1.631181762E1,5.710500479E-1,3.024000168E0,9.964050293E0
1.633181762E1,5.710500479E-1,3.024000168E0,9.964050293E0
1.635181762E1,-8.449500203E-1,2.851950169E0,1.256805038E1
1.637181762E1,-8.449500203E-1,2.851950169E0,1.256805038E1
1.639181762E1,-5.580000281E-1,2.161950111E0,1.268295097E1
1.641181762E1,-5.580000281E-1,2.161950111E0,1.268295097E1
1.643181762E1,-5.580000281E-1,2.161950111E0,1.268295097E1
1.645181762E1,2.070000172E-1,2.067000151E0,9.886950493E0
1.647181762E1,2.070000172E-1,2.067000151E0,9.886950493E0
1.649181762E1,-7.690500617E-1,2.335050106E0,8.604000092E0
1.651181762E1,-7.690500617E-1,2.335050106E0,8.604000092E0
1.653181762E1,-1.036949992E0,2.410950184E0,7.896000385E0
1.655181762E1,-1.036949992E0,2.410950184E0,7.896000385E0
1.657181762E1,-1.036949992E0,2.410950184E0,7.896000385E0
1.657181762E1,-9.409500360E-1,2.851950169E0,7.129950523E0
1.661181762E1,-9.409500360E-1,2.851950169E0,7.129950523E0
1.663181762E1,-1.401000023E0,3.579000235E0,7.915050507E0
1.665181762E1,-1.401000023E0,3.579000235E0,7.915050507E0
1.667181762E1,-1.209000111E0,3.655950069E0,8.737950325E0
1.669181762E1,-8.839500546E-1,3.484050274E0,9.102000237E0
1.671181762E1,-8.839500546E-1,3.484050274E0,9.102000237E0
1.673181762E1,-9.030000567E-1,3.177000046E0,9.925050735E0
1.675181762E1,-9.030000567E-1,3.177000046E0,9.925050735E0
1.677181762E1,-2.148000002E0,3.292050123E0,1.093995094E1
1.679181762E1,-2.148000002E0,3.292050123E0,1.093995094E1
1.681181762E1,-2.148000002E0,3.292050123E0,1.093995094E1
1.683181762E1,-2.818050146E0,3.465000153E0,1.113195038E1
1.685181762E1,-2.818050146E0,3.465000153E0,1.113195038E1
1.687181762E1,-2.109000206E0,3.541050196E0,1.306605053E1
1.689181762E1,-2.109000206E0,3.541050196E0,1.306605053E1
1.691181762E1,-2.109000206E0,3.541050196E0,1.306605053E1
1.693181762E1,-2.109000206E0,3.541050196E0,1.306605053E1
1.695181762E1,-2.109000206E0,3.541050196E0,1.306605053E1
1.697181762E1,-2.893950224E0,2.086050034E0,1.237605095E1
1.699181762E1,-2.893950224E0,2.086050034E0,1.237605095E1
1.701181762E1,-1.554000020E0,2.143050194E0,1.055700016E1
1.703181762E1,-1.554000020E0,2.143050194E0,1.055700016E1
1.705181762E1,-1.267050028E0,1.702950120E0,9.217050552E0
1.707181762E1,-1.267050028E0,1.702950120E0,9.217050552E0
1.709181762E1,-1.055999994E0,1.759950042E0,8.335950851E0
1.711181762E1,-1.152000070E0,1.855950117E0,8.086950302E0
1.713181762E1,-1.152000070E0,1.855950117E0,8.086950302E0
1.715181762E1,-5.200500488E-1,1.837050080E0,6.613050461E0
1.717181762E1,-5.200500488E-1,1.837050080E0,6.613050461E0
1.719181762E1,-4.240500331E-1,2.410950184E0,6.919050217E0
1.721181762E1,-6.919500232E-1,2.641050100E0,7.168050289E0
1.723181762E1,-8.070000410E-1,2.871000051E0,7.359000206E0
1.725181762E1,-3.670500219E-1,2.737050056E0,7.149000168E0
1.727181762E1,-3.670500219E-1,2.737050056E0,7.149000168E0
1.729181762E1,-5.389500260E-1,3.445050240E0,7.474050522E0
1.731181762E1,-5.389500260E-1,3.445050240E0,7.474050522E0
1.733181762E1,-5.389500260E-1,3.445050240E0,7.474050522E0
1.735181762E1,-5.389500260E-1,3.100950241E0,9.292950630E0
1.737181762E1,-5.389500260E-1,3.100950241E0,9.292950630E0
1.739181762E1,-2.032950163E0,3.082050085E0,1.040400028E1
1.741181762E1,-2.032950163E0,3.082050085E0,1.040400028E1
1.743181762E1,-1.744950056E0,3.082050085E0,1.128495026E1
1.745181762E1,-1.744950056E0,3.082050085E0,1.128495026E1
1.747181762E1,-1.744950056E0,3.082050085E0,1.128495026E1
1.749181762E1,-8.070000410E-1,2.316000223E0,1.297005081E1
1.751181762E1,-8.070000410E-1,2.316000223E0,1.297005081E1
1.753181762E1,-2.205000073E-2,1.855950117E0,1.117005062E1
1.755181762E1,-2.205000073E-2,1.855950117E0,1.117005062E1
1.757181762E1,1.489500105E-1,2.506950140E0,1.003995037E1
1.759181762E1,1.489500105E-1,2.506950140E0,1.003995037E1
1.761181762E1,4.939500093E-1,2.449950218E0,8.566050529E0
1.763181762E1,4.750500321E-1,2.622000217E0,8.278950691E0
1.765181762E1,4.750500321E-1,2.622000217E0,8.278950691E0
1.767181762E1,2.260500044E-1,2.812950134E0,7.627050400E0
1.769181762E1,2.260500044E-1,2.812950134E0,7.627050400E0
1.771181762E1,-2.205000073E-2,2.947050095E0,7.072050571E0
1.773181762E1,5.400000140E-2,3.004950047E0,7.090950489E0
1.775181762E1,5.400000140E-2,3.004950047E0,7.090950489E0
1.777181762E1,-6.160500050E-1,3.502950191E0,8.374050140E0
1.779181762E1,-6.160500050E-1,3.502950191E0,8.374050140E0
1.781181762E1,7.429500222E-1,3.253950119E0,8.566050529E0
1.783181762E1,7.429500222E-1,3.253950119E0,8.566050529E0
1.785181762E1,7.429500222E-1,3.253950119E0,8.566050529E0
1.787181762E1,5.899500251E-1,3.522000074E0,8.949000359E0
1.789181762E1,5.899500251E-1,3.522000074E0,8.949000359E0
1.791181762E1,-9.030000567E-1,3.253950119E0,1.053795052E1
1.793181762E1,-9.030000567E-1,3.253950119E0,1.053795052E1
1.795181762E1,-9.030000567E-1,3.253950119E0,1.053795052E1
1.797181762E1,-9.030000567E-1,3.253950119E0,1.053795052E1
1.799181762E1,-9.030000567E-1,3.253950119E0,1.053795052E1
1.801181762E1,-2.242950201E0,3.712950230E0,1.092105007E1
1.803181762E1,-2.242950201E0,3.712950230E0,1.092105007E1
1.805181762E1,-2.569050074E0,3.120000124E0,1.130400085E1
1.807181762E1,-2.569050074E0,3.120000124E0,1.130400085E1
1.809181762E1,-2.683950186E0,2.584050179E0,1.118895054E1
1.811181762E1,-2.683950186E0,2.584050179E0,1.118895054E1
1.813181762E1,-2.395950079E0,2.488050222E0,1.207005024E1
1.815181762E1,-2.416050196E0,2.641050100E0,1.239600086E1
1.817181762E1,-2.416050196E0,2.641050100E0,1.239600086E1
1.819181762E1,-6.730500460E-1,1.933050036E0,1.132305050E1
1.821181762E1,-6.730500460E-1,1.933050036E0,1.132305050E1
1.823181762E1,-6.730500460E-1,1.933050036E0,1.132305050E1
1.825181762E1,1.500000060E-2,1.510950089E0,8.566050529E0
1.827181762E1,1.500000060E-2,1.510950089E0,8.566050529E0
1.829181762E1,-6.540000439E-1,2.086050034E0,6.976050377E0
1.831181762E1,-6.540000439E-1,2.086050034E0,6.976050377E0
1.833181762E1,-8.260500431E-1,1.837050080E0,6.592950344E0
1.835181762E1,-8.260500431E-1,1.837050080E0,6.592950344E0
1.837181762E1,-8.260500431E-1,1.837050080E0,6.592950344E0
1.839181762E1,-6.349500418E-1,2.200950146E0,7.015050411E0
1.841181762E1,-6.349500418E-1,2.200950146E0,7.015050411E0
1.843181762E1,-3.480000198E-1,2.890050173E0,8.413050652E0
1.845181762E1,-3.480000198E-1,2.890050173E0,8.413050652E0
1.847181762E1,2.449500114E-1,2.794050217E0,8.853000641E0
1.849181762E1,2.449500114E-1,2.794050217E0,8.853000641E0
1.851181762E1,-7.905000448E-2,2.737050056E0,1.048095036E1
1.853181762E1,1.300500035E-1,2.833050251E0,1.069095039E1
1.855181762E1,1.300500035E-1,2.833050251E0,1.069095039E1
1.857181762E1,5.130000114E-1,3.235050201E0,1.174500084E1
1.859181762E1,5.130000114E-1,3.235050201E0,1.174500084E1
1.861181762E1,2.070000172E-1,2.316000223E0,1.281705093E1
1.863181762E1,2.070000172E-1,2.316000223E0,1.281705093E1
1.865181762E1,1.164000034E0,1.722000122E0,1.275900078E1
1.867181762E1,1.203000069E0,1.798950076E0,1.220400047E1
1.869181762E1,1.203000069E0,1.798950076E0,1.220400047E1
1.871181762E1,6.859500408E-1,1.971000075E0,1.021305084E1
1.873181762E1,6.859500408E-1,1.971000075E0,1.021305084E1
1.875181762E1,6.859500408E-1,1.971000075E0,1.021305084E1
1.877181762E1,6.859500408E-1,1.971000075E0,1.021305084E1
1.879181762E1,6.859500408E-1,1.971000075E0,1.021305084E1
1.881181762E1,-7.905000448E-2,2.679000139E0,6.727050304E0
1.883181762E1,-7.905000448E-2,2.679000139E0,6.727050304E0
1.885181762E1,-2.899500132E-1,2.928000212E0,6.957000256E0
1.887181762E1,-2.899500132E-1,2.928000212E0,6.957000256E0
1.889181762E1,-5.389500260E-1,3.712950230E0,7.627050400E0
1.891181762E1,-5.389500260E-1,3.771000147E0,8.202000618E0
1.893181762E1,-5.389500260E-1,3.771000147E0,8.202000618E0
1.895181762E1,1.110000089E-1,3.426000118E0,8.949000359E0
1.897181762E1,1.110000089E-1,3.426000118E0,8.949000359E0
1.899181762E1,-1.369500011E-1,3.694050074E0,8.623050690E0
1.901181762E1,-1.369500011E-1,3.694050074E0,8.623050690E0
1.903181762E1,-1.362000108E0,3.771000147E0,9.064050674E0
1.905181762E1,-2.071050167E0,3.712950230E0,9.466050148E0
1.907181762E1,-2.071050167E0,3.712950230E0,9.466050148E0
1.909181762E1,-3.238950253E0,4.210950375E0,1.042305088E1
1.911181762E1,-3.238950253E0,4.210950375E0,1.042305088E1
1.913181762E1,-2.587950230E0,3.733050108E0,1.092105007E1
1.915181762E1,-2.587950230E0,3.733050108E0,1.092105007E1
1.917181762E1,-3.028050184E0,2.794050217E0,1.235700035E1
1.919181762E1,-3.411000252E0,2.679000139E0,1.237605095E1
1.921181762E1,-3.411000252E0,2.679000139E0,1.237605095E1
1.923181762E1,-2.395950079E0,2.718000174E0,1.153395081E1
1.925181762E1,-2.395950079E0,2.718000174E0,1.153395081E1
1.927181762E1,-2.395950079E0,2.718000174E0,1.153395081E1
1.929181762E1,-2.395950079E0,2.718000174E0,1.153395081E1
1.931181762E1,-2.395950079E0,2.718000174E0,1.153395081E1
1.933181762E1,-1.458000064E0,2.641050100E0,1.078695011E1
1.935181762E1,-1.458000064E0,2.641050100E0,1.078695011E1
1.937181762E1,-2.032950163E0,1.894050121E0,8.833950043E0
1.939181762E1,-2.032950163E0,1.894050121E0,8.833950043E0
1.941181762E1,-1.228050113E0,2.104950190E0,7.741950512E0
1.943181762E1,-8.260500431E-1,2.373000145E0,7.647000313E0
1.945181762E1,-8.260500431E-1,2.373000145E0,7.647000313E0
1.947181762E1,-9.030000567E-1,2.718000174E0,6.115050316E0
1.949181762E1,-9.030000567E-1,2.718000174E0,6.115050316E0
1.951181762E1,-8.449500203E-1,2.947050095E0,6.229950428E0
1.953181762E1,-8.449500203E-1,2.947050095E0,6.229950428E0
1.955181762E1,-9.790500402E-1,2.967000246E0,7.741950512E0
1.957181762E1,-1.707000136E0,3.120000124E0,7.896000385E0
1.959181762E1,-1.707000136E0,3.120000124E0,7.896000385E0
1.961181762E1,-6.730500460E-1,2.718000174E0,9.064050674E0
1.963181762E1,-6.730500460E-1,2.718000174E0,9.064050674E0
1.965181762E1,-1.114050031E0,2.890050173E0,1.023195076E1
1.967181762E1,-1.114050031E0,2.890050173E0,1.023195076E1
1.969181762E1,-1.114050031E0,2.890050173E0,1.023195076E1
1.971181762E1,-9.409500360E-1,1.300950050E0,1.097895050E1
1.973181762E1,-9.409500360E-1,1.300950050E0,1.097895050E1
1.975181762E1,-1.554000020E0,1.779000044E0,1.197405052E1
1.977181762E1,-1.554000020E0,1.779000044E0,1.197405052E1
1.979181762E1,-7.879500389E-1,4.579500258E-1,1.115100098E1
1.981181762E1,-7.879500389E-1,4.579500258E-1,1.115100098E1
1.983181762E1,-7.879500389E-1,4.579500258E-1,1.115100098E1
1.985181762E1,-1.918050051E0,1.396050096E0,9.600000381E0
1.987181762E1,-1.918050051E0,1.396050096E0,9.600000381E0
1.989181762E1,-2.052000046E0,1.549950123E0,1.017405033E1
1.991181762E1,-2.052000046E0,1.549950123E0,1.017405033E1
1.993181762E1,-2.052000046E0,1.549950123E0,1.017405033E1
1.995181762E1,-2.491950035E0,1.261950016E0,9.006000519E0
1.997181762E1,-2.491950035E0,1.261950016E0,9.006000519E0
1.999181762E1,-1.018050075E0,1.549950123E0,7.090950489E0
2.001181762E1,-1.018050075E0,1.549950123E0,7.090950489E0
2.003181762E1,-2.473050117E0,2.659950018E0,8.317049980E0
2.005181762E1,-2.473050117E0,2.659950018E0,8.317049980E0
2.007181762E1,-2.473050117E0,2.659950018E0,8.317049980E0
2.009181762E1,-1.573050022E0,3.100950241E0,8.815050125E0
2.011181762E1,-1.573050022E0,3.100950241E0,8.815050125E0
2.013181762E1,-3.105000257E0,3.157950163E0,1.103595066E1
2.015181762E1,-3.105000257E0,3.157950163E0,1.103595066E1
2.017181762E1,-3.220050097E0,2.908950090E0,1.030800056E1
2.019181762E1,-3.220050097E0,2.908950090E0,1.030800056E1
2.021181762E1,-3.220050097E0,2.908950090E0,1.030800056E1
2.023181762E1,-4.407000065E0,2.622000217E0,1.350600052E1
2.025181762E1,-4.407000065E0,2.622000217E0,1.350600052E1
2.027181762E1,-3.142950058E0,2.392050028E0,1.243395042E1
2.029181762E1,-3.142950058E0,2.392050028E0,1.243395042E1
2.031181762E1,-3.142950058E0,2.392050028E0,1.243395042E1
2.031181762E1,-3.085950136E0,2.086050034E0,1.097895050E1
2.035181762E1,-3.085950136E0,2.086050034E0,1.097895050E1
2.037181762E1,-3.354000092E0,2.986050129E0,8.623050690E0
2.039181762E1,-3.354000092E0,2.986050129E0,8.623050690E0
2.041181762E1,-2.434950113E0,2.028000116E0,7.492950439E0
2.043181762E1,-2.434950113E0,2.028000116E0,7.492950439E0
2.045181762E1,-2.893950224E0,2.871000051E0,7.762050152E0
2.047181762E1,-3.105000257E0,3.139050245E0,8.700000763E0
2.049181762E1,-3.105000257E0,3.139050245E0,8.700000763E0
2.051181762E1,3.030000031E-1,2.335050106E0,8.872050285E0
2.053181762E1,3.030000031E-1,2.335050106E0,8.872050285E0
2.055181762E1,-4.620000124E-1,2.698950052E0,7.149000168E0
2.057181762E1,-4.620000124E-1,2.698950052E0,7.149000168E0
2.059181762E1,-4.620000124E-1,2.698950052E0,7.149000168E0
2.061181762E1,-4.240500331E-1,3.082050085E0,7.417050362E0
2.063181762E1,-4.240500331E-1,3.082050085E0,7.417050362E0
2.065181762E1,-1.420050025E0,2.871000051E0,7.933950424E0
2.067181762E1,-1.420050025E0,2.871000051E0,7.933950424E0
2.069181762E1,-1.171050072E0,2.890050173E0,8.374050140E0
2.071181762E1,-1.171050072E0,2.890050173E0,8.374050140E0
2.073181762E1,-1.171050072E0,2.890050173E0,8.374050140E0
2.075181762E1,-6.349500418E-1,2.086050034E0,1.023195076E1
2.077181762E1,-6.349500418E-1,2.086050034E0,1.023195076E1
2.079181762E1,-1.342950106E0,2.833050251E0,1.157205009E1
2.081181762E1,-1.342950106E0,2.833050251E0,1.157205009E1
2.083181762E1,-1.342950106E0,2.833050251E0,1.157205009E1
2.085181762E1,-1.342950106E0,2.833050251E0,1.157205009E1
2.087181762E1,-1.342950106E0,2.833050251E0,1.157205009E1
2.089181762E1,-9.220500588E-1,2.392050028E0,9.541950226E0
2.091181762E1,-9.220500588E-1,2.392050028E0,9.541950226E0
2.093181762E1,-9.220500588E-1,2.392050028E0,9.541950226E0
2.095181762E1,-9.220500588E-1,2.392050028E0,9.541950226E0
2.097181762E1,-1.401000023E0,3.426000118E0,8.968050003E0
2.099181762E1,-1.401000023E0,3.177000046E0,8.910000801E0
2.101181762E1,-1.401000023E0,3.177000046E0,8.910000801E0
2.103181762E1,-1.324050069E0,3.235050201E0,9.064050674E0
2.105181762E1,-1.324050069E0,3.235050201E0,9.064050674E0
2.107181762E1,-1.993950129E0,3.886050224E0,1.015500069E1
2.109181762E1,-1.993950129E0,3.886050224E0,1.015500069E1
2.111181762E1,-4.620000124E-1,2.986050129E0,6.286950111E0
2.113181762E1,-2.140500098E-1,3.043050051E0,5.866050243E0
2.115181762E1,-2.140500098E-1,3.043050051E0,5.866050243E0
2.117181762E1,-1.879050136E0,3.828000069E0,8.105999947E0
2.119181762E1,-1.879050136E0,3.828000069E0,8.105999947E0
2.121181762E1,-2.644950151E0,4.000950336E0,7.915050507E0
2.123181762E1,-2.644950151E0,4.000950336E0,7.915050507E0
2.125181762E1,-2.644950151E0,4.000950336E0,7.915050507E0
2.127181762E1,-2.665050030E0,4.365000248E0,1.126605034E1
2.129181762E1,-2.665050030E0,4.365000248E0,1.126605034E1
2.131181762E1,-2.740950108E0,3.502950191E0,1.708695030E1
2.133181762E1,-2.740950108E0,3.502950191E0,1.708695030E1
2.135181762E1,-2.740950108E0,3.502950191E0,1.708695030E1
2.137181762E1,-2.740950108E0,3.502950191E0,1.708695030E1
2.139181762E1,-2.740950108E0,3.502950191E0,1.708695030E1
2.141181762E1,-1.899000049E0,2.469000101E0,9.676050186E0
2.143181762E1,-1.899000049E0,2.469000101E0,9.676050186E0
2.145181762E1,-1.765050054E0,2.622000217E0,8.756999969E0
2.147181762E1,-1.765050054E0,2.622000217E0,8.756999969E0
2.149181762E1,-1.765050054E0,2.622000217E0,8.756999969E0
2.151181762E1,-6.349500418E-1,2.449950218E0,8.929950714E0
2.153181762E1,-6.349500418E-1,2.449950218E0,8.929950714E0
2.155181762E1,-2.205000073E-2,2.506950140E0,9.235950470E0
2.157181762E1,-2.205000073E-2,2.506950140E0,9.235950470E0
2.159181762E1,-2.205000073E-2,2.506950140E0,9.235950470E0
2.161181762E1,-2.205000073E-2,2.506950140E0,9.235950470E0
2.163181762E1,-2.205000073E-2,2.506950140E0,9.235950470E0
2.165181762E1,-1.687950134E0,1.951950073E0,7.225050449E0
2.167181762E1,-1.687950134E0,1.951950073E0,7.225050449E0
2.169181762E1,-8.650500178E-1,2.296050072E0,6.937950134E0
2.171181762E1,-8.650500178E-1,2.296050072E0,6.937950134E0
2.173181762E1,-1.018050075E0,2.143050194E0,8.392950058E0
2.175181762E1,-1.018050075E0,2.143050194E0,8.392950058E0
2.177181762E1,-9.900000691E-2,2.200950146E0,8.641950607E0
2.179181762E1,4.560000300E-1,2.239050150E0,8.719050407E0
2.181181762E1,4.560000300E-1,2.239050150E0,8.719050407E0
2.183181762E1,-1.036949992E0,3.043050051E0,1.050000095E1
2.185181762E1,-1.036949992E0,3.043050051E0,1.050000095E1
2.187181762E1,-1.036949992E0,3.043050051E0,1.050000095E1
2.189181762E1,-1.036949992E0,3.043050051E0,1.050000095E1
2.191181762E1,-1.036949992E0,3.043050051E0,1.050000095E1
2.193181762E1,-5.770500302E-1,2.679000139E0,1.521105099E1
2.195181762E1,-5.770500302E-1,2.679000139E0,1.521105099E1
2.197181762E1,2.446950197E0,3.619500101E-1,1.239600086E1
2.199181762E1,2.446950197E0,3.619500101E-1,1.239600086E1
2.201181762E1,2.350950003E0,1.684050083E0,1.072995090E1
2.203181762E1,8.580000401E-1,3.157950163E0,9.619050026E0
2.205181762E1,8.580000401E-1,3.157950163E0,9.619050026E0
2.207181762E1,1.489950061E0,2.086050034E0,7.378950119E0
2.209181762E1,1.489950061E0,2.086050034E0,7.378950119E0
2.211181762E1,1.222050071E0,3.196050167E0,5.904000282E0
2.213181762E1,1.222050071E0,3.196050167E0,5.904000282E0
2.215181762E1,1.222050071E0,3.196050167E0,5.904000282E0
2.217181762E1,-6.000000238E-2,3.082050085E0,7.339950562E0
2.219181762E1,-6.000000238E-2,3.082050085E0,7.339950562E0
2.221181762E1,-3.859500289E-1,4.039050102E0,7.359000206E0
2.223181762E1,-3.859500289E-1,4.039050102E0,7.359000206E0
2.225181762E1,1.680000126E-1,3.598950148E0,7.186950207E0
2.227181762E1,1.680000126E-1,3.598950148E0,7.186950207E0
2.229181762E1,1.680000126E-1,3.598950148E0,7.186950207E0
2.231181762E1,-1.132950068E0,3.924000263E0,8.737950325E0
2.233181762E1,-1.132950068E0,3.924000263E0,8.737950325E0
2.235181762E1,-1.362000108E0,4.365000248E0,1.233795071E1
2.237181762E1,-1.362000108E0,4.365000248E0,1.233795071E1
2.239181762E1,-2.140500098E-1,3.828000069E0,1.268295097E1
2.241181762E1,-2.140500098E-1,3.828000069E0,1.268295097E1
2.243181762E1,-2.140500098E-1,3.828000069E0,1.268295097E1
2.245181762E1,5.899500251E-1,5.920500159E-1,1.151505089E1
2.247181762E1,5.899500251E-1,5.920500159E-1,1.151505089E1
2.249181762E1,-1.554000020E0,1.416000009E0,1.314195061E1
2.251181762E1,-1.554000020E0,1.416000009E0,1.314195061E1
2.253181762E1,-1.554000020E0,1.416000009E0,1.314195061E1
2.255181762E1,-9.409500360E-1,1.473000050E0,9.715050697E0
2.257181762E1,-9.409500360E-1,1.473000050E0,9.715050697E0
2.259181762E1,5.400000140E-2,1.416000009E0,8.049000740E0
2.261181762E1,5.400000140E-2,1.416000009E0,8.049000740E0
2.263181762E1,-5.580000281E-1,2.277000189E0,8.853000641E0
2.265181762E1,-5.580000281E-1,2.277000189E0,8.853000641E0
2.267181762E1,-8.839500546E-1,3.465000153E0,9.753000259E0
2.269181762E1,-6.540000439E-1,3.043050051E0,8.182950020E0
2.271181762E1,-6.540000439E-1,3.043050051E0,8.182950020E0
2.273181762E1,-1.750500053E-1,3.579000235E0,8.662050247E0
2.275181762E1,-1.750500053E-1,3.579000235E0,8.662050247E0
2.277181762E1,-2.281949997E0,4.633050442E0,6.688950539E0
2.279181762E1,-2.281949997E0,4.633050442E0,6.688950539E0
2.281181762E1,-2.281949997E0,4.633050442E0,6.688950539E0
2.283181762E1,-2.710500062E-1,4.077000141E0,6.343950272E0
2.285181762E1,-2.710500062E-1,4.077000141E0,6.343950272E0
2.287181762E1,-1.093950033E0,4.498950005E0,7.762050152E0
2.289181762E1,-1.093950033E0,4.498950005E0,7.762050152E0
2.291181762E1,-1.093950033E0,4.498950005E0,7.762050152E0
2.293181762E1,-1.093950033E0,4.498950005E0,7.762050152E0
2.295181762E1,-1.093950033E0,4.498950005E0,7.762050152E0
2.297181762E1,2.260500044E-1,3.618000269E0,1.126605034E1
2.299181762E1,2.260500044E-1,3.618000269E0,1.126605034E1
2.301181762E1,2.830500007E-1,3.100950241E0,1.381305027E1
2.303181762E1,2.830500007E-1,3.100950241E0,1.381305027E1
2.305181762E1,1.699950099E0,2.373000145E0,1.281705093E1
2.307181762E1,2.371050119E0,2.008949995E0,1.233795071E1
2.309181762E1,2.371050119E0,2.008949995E0,1.233795071E1
2.311181762E1,2.638950109E0,2.353950024E0,1.172505093E1
2.313181762E1,2.638950109E0,2.353950024E0,1.172505093E1
2.315181762E1,2.638950109E0,2.353950024E0,1.172505093E1
2.317181762E1,2.638950109E0,2.353950024E0,1.172505093E1
2.319181762E1,2.638950109E0,2.353950024E0,1.172505093E1
2.321181762E1,6.660000086E-1,3.330000162E0,8.527050018E0
2.323181762E1,6.660000086E-1,3.330000162E0,8.527050018E0
2.325181762E1,7.240500450E-1,4.000950336E0,7.243950367E0
2.327181762E1,7.240500450E-1,4.000950336E0,7.243950367E0
2.329181762E1,8.959500194E-1,4.057950020E0,6.900000095E0
2.331181762E1,8.959500194E-1,4.057950020E0,6.900000095E0
2.333181762E1,8.959500194E-1,4.057950020E0,6.900000095E0
2.335181762E1,9.540000558E-1,4.269000053E0,7.359000206E0
2.337181762E1,9.540000558E-1,4.269000053E0,7.359000206E0
2.339181762E1,1.509000063E0,4.326000214E0,8.641950607E0
2.341181762E1,1.509000063E0,4.326000214E0,8.641950607E0
2.343181762E1,1.509000063E0,4.326000214E0,8.641950607E0
2.345181762E1,1.509000063E0,4.326000214E0,8.641950607E0
2.347181762E1,1.509000063E0,4.326000214E0,8.641950607E0
2.349181762E1,-1.093950033E0,3.445050240E0,8.949000359E0
2.351181762E1,-1.093950033E0,3.445050240E0,8.949000359E0
2.353181762E1,-2.262000084E0,2.602950096E0,1.061505032E1
2.355181762E1,-2.262000084E0,2.602950096E0,1.061505032E1
2.357181762E1,-2.262000084E0,2.602950096E0,1.061505032E1
2.357181762E1,-2.301000118E0,1.912950039E0,1.011705017E1
2.361181762E1,-2.301000118E0,1.912950039E0,1.011705017E1
2.363181762E1,-1.438950062E0,2.851950169E0,1.239600086E1
2.365181762E1,-1.438950062E0,2.851950169E0,1.239600086E1
2.367181762E1,4.750500321E-1,1.588050127E0,9.696000099E0
2.369181762E1,4.750500321E-1,1.588050127E0,9.696000099E0
2.371181762E1,7.810500264E-1,1.453950047E0,7.110000134E0
2.373181762E1,-4.429500103E-1,2.563950062E0,8.392950058E0
2.375181762E1,-4.429500103E-1,2.563950062E0,8.392950058E0
2.377181762E1,-1.573050022E0,3.369000196E0,8.604000092E0
2.379181762E1,-1.573050022E0,3.369000196E0,8.604000092E0
2.381181762E1,-1.180500090E-1,1.741050124E0,7.302000523E0
2.383181762E1,-1.180500090E-1,1.741050124E0,7.302000523E0
2.385181762E1,-1.180500090E-1,1.741050124E0,7.302000523E0
2.387181762E1,-1.093950033E0,3.522000074E0,9.121050835E0
2.389181762E1,-1.093950033E0,3.522000074E0,9.121050835E0
2.391181762E1,-1.093950033E0,3.522000074E0,9.121050835E0
2.393181762E1,-1.093950033E0,3.522000074E0,9.121050835E0
2.395181762E1,-5.580000281E-1,3.502950191E0,9.733950615E0
2.397181762E1,-1.180500090E-1,3.330000162E0,9.159000397E0
2.399181762E1,-1.180500090E-1,3.330000162E0,9.159000397E0
2.401181762E1,5.320500135E-1,2.698950052E0,1.011705017E1
2.403181762E1,5.320500135E-1,2.698950052E0,1.011705017E1
2.405181762E1,5.509500504E-1,2.182049990E0,1.019295025E1
2.407181762E1,5.509500504E-1,2.182049990E0,1.019295025E1
2.409181762E1,1.585950017E0,2.239050150E0,1.168695068E1
2.411181762E1,1.738950133E0,2.124000072E0,1.243395042E1
2.413181762E1,1.738950133E0,2.124000072E0,1.243395042E1
2.415181762E1,2.064000130E0,1.435050011E0,1.138095093E1
2.417181762E1,2.064000130E0,1.435050011E0,1.138095093E1
2.419181762E1,2.064000130E0,1.435050011E0,1.138095093E1
2.421181762E1,2.064000130E0,1.435050011E0,1.138095093E1
2.423181762E1,2.064000130E0,1.435050011E0,1.138095093E1
2.425181762E1,1.795950055E0,2.506950140E0,9.025050163E0
2.427181762E1,1.795950055E0,2.506950140E0,9.025050163E0
2.429181762E1,2.007000208E0,2.890050173E0,8.164050102E0
2.431181762E1,2.007000208E0,2.890050173E0,8.164050102E0
2.433181762E1,1.681050062E0,2.986050129E0,7.015050411E0
2.435181762E1,1.681050062E0,2.986050129E0,7.015050411E0
2.437181762E1,1.681050062E0,2.986050129E0,7.015050411E0
2.439181762E1,2.449500114E-1,3.273000240E0,7.551000595E0
2.441181762E1,2.449500114E-1,3.273000240E0,7.551000595E0
2.443181762E1,1.144950032E0,3.522000074E0,8.566050529E0
2.445181762E1,1.144950032E0,3.522000074E0,8.566050529E0
2.447181762E1,1.758000135E0,3.618000269E0,8.604000092E0
2.449181762E1,1.566000104E0,3.388050079E0,8.815050125E0
2.451181762E1,1.566000104E0,3.388050079E0,8.815050125E0
2.453181762E1,-3.670500219E-1,3.061950207E0,1.002105045E1
2.455181762E1,-3.670500219E-1,3.061950207E0,1.002105045E1
2.457181762E1,-6.540000439E-1,2.373000145E0,1.095900059E1
2.459181762E1,-6.540000439E-1,2.373000145E0,1.095900059E1
2.461181762E1,-6.540000439E-1,2.373000145E0,1.095900059E1
2.463181762E1,-2.089950085E0,2.908950090E0,1.126605034E1
2.465181762E1,-2.089950085E0,2.908950090E0,1.126605034E1
2.467181762E1,-1.189950109E0,1.741050124E0,1.207005024E1
2.469181762E1,-1.189950109E0,1.741050124E0,1.207005024E1
2.471181762E1,-7.500000596E-1,1.473000050E0,1.086405087E1
2.473181762E1,-7.500000596E-1,1.473000050E0,1.086405087E1
2.475181762E1,-1.189950109E0,1.722000122E0,1.090200043E1
2.477181762E1,-1.516050100E0,2.047049999E0,1.134195042E1
2.479181762E1,-1.516050100E0,2.047049999E0,1.134195042E1
2.481181762E1,-2.329500169E-1,1.377000093E0,1.090200043E1
2.483181762E1,-2.329500169E-1,1.377000093E0,1.090200043E1
2.485181762E1,1.680000126E-1,1.569000125E0,9.676050186E0
2.487181762E1,1.680000126E-1,1.569000125E0,9.676050186E0
2.489181762E1,1.680000126E-1,1.569000125E0,9.676050186E0
2.491181762E1,-3.000000026E-3,2.277000189E0,8.527050018E0
2.493181762E1,-3.000000026E-3,2.277000189E0,8.527050018E0
2.495181762E1,-3.000000026E-3,2.277000189E0,8.527050018E0
2.497181762E1,-3.000000026E-3,2.277000189E0,8.527050018E0
2.499181762E1,-1.939500123E-1,2.698950052E0,6.613050461E0
2.501181762E1,-1.560000032E-1,2.928000212E0,6.900000095E0
2.503181762E1,-1.560000032E-1,2.928000212E0,6.900000095E0
2.505181762E1,-9.790500402E-1,3.559950113E0,8.662050247E0
2.507181762E1,-9.790500402E-1,3.559950113E0,8.662050247E0
2.509181762E1,-7.500000596E-1,3.330000162E0,9.159000397E0
2.511181762E1,-7.500000596E-1,3.330000162E0,9.159000397E0
2.513181762E1,-7.690500617E-1,3.426000118E0,9.849000931E0
2.515181762E1,-6.160500050E-1,3.061950207E0,1.003995037E1
2.517181762E1,-6.160500050E-1,3.061950207E0,1.003995037E1
2.519181762E1,-8.650500178E-1,3.043050051E0,1.093995094E1
2.521181762E1,-8.650500178E-1,3.043050051E0,1.093995094E1
2.523181762E1,-8.650500178E-1,3.043050051E0,1.093995094E1
2.525181762E1,-8.650500178E-1,3.043050051E0,1.093995094E1
2.527181762E1,-8.650500178E-1,3.043050051E0,1.093995094E1
2.529181762E1,1.048950076E0,1.416000009E0,1.130400085E1
2.531181762E1,1.048950076E0,1.416000009E0,1.130400085E1
2.533181762E1,1.183050036E0,2.239050150E0,9.829950333E0
2.535181762E1,1.183050036E0,2.239050150E0,9.829950333E0
2.537181762E1,2.639999986E-1,2.871000051E0,9.676050186E0
2.539181762E1,2.639999986E-1,2.871000051E0,9.676050186E0
2.541181762E1,2.639999986E-1,2.871000051E0,9.676050186E0
2.543181762E1,-2.205000073E-2,2.335050106E0,8.355000496E0
2.545181762E1,-2.205000073E-2,2.335050106E0,8.355000496E0
2.547181762E1,-6.160500050E-1,2.775000095E0,7.876050472E0
2.549181762E1,-6.160500050E-1,2.775000095E0,7.876050472E0
2.551181762E1,-3.670500219E-1,3.024000168E0,7.435950279E0
2.553181762E1,-6.000000238E-2,3.082050085E0,7.149000168E0
2.555181762E1,-6.000000238E-2,3.082050085E0,7.149000168E0
2.557181762E1,3.600000143E-1,3.502950191E0,8.662050247E0
2.559181762E1,3.600000143E-1,3.502950191E0,8.662050247E0
2.561181762E1,1.489950061E0,3.502950191E0,8.910000801E0
2.563181762E1,1.489950061E0,3.502950191E0,8.910000801E0
2.565181762E1,1.489950061E0,3.502950191E0,8.910000801E0
2.567181762E1,4.560000300E-1,3.310950041E0,1.007895088E1
2.569181762E1,4.560000300E-1,3.310950041E0,1.007895088E1
2.571181762E1,-7.500000596E-1,3.502950191E0,1.050000095E1
2.573181762E1,-7.500000596E-1,3.502950191E0,1.050000095E1
2.575181762E1,-1.554000020E0,3.808950186E0,1.050000095E1
2.577181762E1,-1.554000020E0,3.808950186E0,1.050000095E1
2.579181762E1,-1.726050138E0,3.579000235E0,1.113195038E1
2.581181762E1,-2.281949997E0,3.771000147E0,1.157205009E1
2.579181762E1,-1.726050138E0,3.579000235E0,1.113195038E1
2.585181762E1,-2.550000191E0,2.563950062E0,1.231905079E1
2.587181762E1,-2.550000191E0,2.563950062E0,1.231905079E1
2.589181762E1,-1.650000095E0,2.316000223E0,1.205100060E1
2.591181762E1,-1.650000095E0,2.316000223E0,1.205100060E1
2.593181762E1,-1.650000095E0,2.316000223E0,1.205100060E1
2.595181762E1,-1.650000095E0,2.316000223E0,1.205100060E1
2.597181762E1,-1.650000095E0,2.316000223E0,1.205100060E1
2.599181762E1,-1.516050100E0,2.182049990E0,6.747000217E0
2.601181762E1,-1.516050100E0,2.182049990E0,6.747000217E0
2.603181762E1,-9.790500402E-1,2.296050072E0,8.470050812E0
2.605181762E1,-9.409500360E-1,2.812950134E0,8.719050407E0
2.607181762E1,-9.409500360E-1,2.812950134E0,8.719050407E0
2.609181762E1,3.220500052E-1,8.790000677E-1,7.647000313E0
2.611181762E1,3.220500052E-1,8.790000677E-1,7.647000313E0
2.613181762E1,-1.554000020E0,2.545050144E0,8.451000214E0
2.615181762E1,-1.554000020E0,2.545050144E0,8.451000214E0
2.617181762E1,-1.554000020E0,2.545050144E0,8.451000214E0
2.619181762E1,-1.381950021E0,2.602950096E0,7.704000473E0
2.621181762E1,-1.381950021E0,2.602950096E0,7.704000473E0
2.623181762E1,-5.200500488E-1,3.310950041E0,8.641950607E0
2.625181762E1,-5.200500488E-1,3.310950041E0,8.641950607E0
2.627181762E1,-6.540000439E-1,3.751950264E0,9.388950348E0
2.629181762E1,-6.540000439E-1,3.751950264E0,9.388950348E0
2.631181762E1,-6.540000439E-1,3.751950264E0,9.388950348E0
2.633181762E1,-5.959500074E-1,3.904950142E0,9.810000420E0
2.635181762E1,-5.959500074E-1,3.904950142E0,9.810000420E0
2.637181762E1,-6.730500460E-1,3.675000191E0,1.174500084E1
2.639181762E1,-6.730500460E-1,3.675000191E0,1.174500084E1
2.641181762E1,-2.140500098E-1,3.216000080E0,1.312305069E1
2.643181762E1,-2.140500098E-1,3.216000080E0,1.312305069E1
2.645181762E1,-2.140500098E-1,3.216000080E0,1.312305069E1
2.647181762E1,2.260500044E-1,2.373000145E0,1.130400085E1
2.649181762E1,2.260500044E-1,2.373000145E0,1.130400085E1
2.651181762E1,-2.899500132E-1,3.004950047E0,1.157205009E1
2.653181762E1,-2.899500132E-1,3.004950047E0,1.157205009E1
2.655181762E1,-2.205000073E-2,2.430000067E0,9.945000648E0
2.657181762E1,7.304999977E-2,2.316000223E0,8.488950729E0
2.659181762E1,7.304999977E-2,2.316000223E0,8.488950729E0
2.661181762E1,9.919500351E-1,1.473000050E0,7.129950523E0
2.663181762E1,9.919500351E-1,1.473000050E0,7.129950523E0
2.665181762E1,-7.500000596E-1,3.004950047E0,8.029950142E0
2.667181762E1,-7.500000596E-1,3.004950047E0,8.029950142E0
2.669181762E1,-7.500000596E-1,3.004950047E0,8.029950142E0
2.671181762E1,5.509500504E-1,3.369000196E0,7.282950401E0
2.673181762E1,5.509500504E-1,3.369000196E0,7.282950401E0
2.675181762E1,1.375050068E0,4.000950336E0,7.723050594E0
2.677181762E1,1.375050068E0,4.000950336E0,7.723050594E0
2.679181762E1,1.375050068E0,4.000950336E0,7.723050594E0
2.681181762E1,1.375050068E0,4.000950336E0,7.723050594E0
2.683181762E1,1.375050068E0,4.000950336E0,7.723050594E0
2.685181762E1,5.509500504E-1,2.296050072E0,1.090200043E1
2.687181762E1,5.509500504E-1,2.296050072E0,1.090200043E1
2.689181762E1,1.300500035E-1,2.086050034E0,1.117005062E1
2.691181762E1,1.300500035E-1,2.086050034E0,1.117005062E1
2.693181762E1,1.300500035E-1,2.086050034E0,1.117005062E1
2.695181762E1,1.300500035E-1,2.086050034E0,1.117005062E1
2.697181762E1,-9.790500402E-1,1.510950089E0,1.118895054E1
2.699181762E1,-9.220500588E-1,1.357950091E0,1.072995090E1
2.701181762E1,-9.220500588E-1,1.357950091E0,1.072995090E1
2.703181762E1,-1.362000108E0,1.971000075E0,1.092105007E1
2.705181762E1,-1.362000108E0,1.971000075E0,1.092105007E1
2.707181762E1,-1.209000111E0,1.912950039E0,1.021305084E1
2.709181762E1,-8.839500546E-1,1.684050083E0,9.849000931E0
2.707181762E1,-1.209000111E0,1.912950039E0,1.021305084E1
2.713181762E1,7.304999977E-2,1.855950117E0,8.680950165E0
2.715181762E1,7.304999977E-2,1.855950117E0,8.680950165E0
2.717181762E1,-4.050000310E-1,2.104950190E0,8.527050018E0
2.719181762E1,-4.050000310E-1,2.104950190E0,8.527050018E0
2.721181762E1,-5.770500302E-1,1.837050080E0,8.488950729E0
2.723181762E1,-4.050000310E-1,1.875000119E0,8.125050545E0
2.725181762E1,-4.050000310E-1,1.875000119E0,8.125050545E0
2.727181762E1,-4.819500148E-1,2.584050179E0,7.149000168E0
2.729181762E1,-4.819500148E-1,2.584050179E0,7.149000168E0
2.731181762E1,-7.690500617E-1,2.928000212E0,7.990950584E0
2.733181762E1,-7.690500617E-1,2.928000212E0,7.990950584E0
2.735181762E1,-7.690500617E-1,2.928000212E0,7.990950584E0
2.737181762E1,-4.050000310E-1,2.775000095E0,9.217050552E0
2.739181762E1,-4.050000310E-1,2.775000095E0,9.217050552E0
2.741181762E1,-5.580000281E-1,2.545050144E0,9.427050591E0
2.743181762E1,-5.580000281E-1,2.545050144E0,9.427050591E0
2.745181762E1,-5.580000281E-1,2.545050144E0,9.427050591E0
2.747181762E1,-5.580000281E-1,2.545050144E0,9.427050591E0
2.749181762E1,-5.580000281E-1,2.545050144E0,9.427050591E0
2.751181762E1,1.509000063E0,1.971000075E0,1.212795067E1
2.753181762E1,1.509000063E0,1.971000075E0,1.212795067E1
2.755181762E1,1.450950027E0,1.492050052E0,1.162995052E1
2.757181762E1,1.450950027E0,1.492050052E0,1.162995052E1
2.759181762E1,2.275050163E0,3.619500101E-1,1.003995037E1
2.761181762E1,2.083050013E0,6.880500317E-1,1.030800056E1
2.763181762E1,2.083050013E0,6.880500317E-1,1.030800056E1
2.765181762E1,1.815000057E0,2.047049999E0,1.030800056E1
2.767181762E1,1.815000057E0,2.047049999E0,1.030800056E1
2.769181762E1,2.542950153E0,1.741050124E0,8.910000801E0
2.771181762E1,2.542950153E0,1.741050124E0,8.910000801E0
2.773181762E1,2.542950153E0,1.741050124E0,8.910000801E0
2.775181762E1,1.011000037E0,2.239050150E0,8.604000092E0
2.777181762E1,1.011000037E0,2.239050150E0,8.604000092E0
2.779181762E1,7.429500222E-1,2.257950068E0,8.049000740E0
2.781181762E1,7.429500222E-1,2.257950068E0,8.049000740E0
2.783181762E1,1.068000078E0,2.718000174E0,8.527050018E0
2.785181762E1,1.068000078E0,2.718000174E0,8.527050018E0
2.787181762E1,1.068000078E0,2.718000174E0,8.527050018E0
2.789181762E1,4.560000300E-1,2.335050106E0,7.684950352E0
2.791181762E1,4.560000300E-1,2.335050106E0,7.684950352E0
2.793181762E1,4.560000300E-1,2.335050106E0,7.684950352E0
2.795181762E1,4.560000300E-1,2.335050106E0,7.684950352E0
2.797181762E1,3.220500052E-1,2.833050251E0,1.007895088E1
2.799181762E1,3.220500052E-1,2.833050251E0,1.007895088E1
2.801181762E1,3.220500052E-1,2.833050251E0,1.007895088E1
2.803181762E1,-5.010000467E-1,2.584050179E0,9.829950333E0
2.805181762E1,-5.010000467E-1,2.584050179E0,9.829950333E0
2.807181762E1,-1.477050066E0,3.157950163E0,1.172505093E1
2.809181762E1,-1.477050066E0,3.157950163E0,1.172505093E1
2.811181762E1,-1.171050072E0,2.182049990E0,1.145700073E1
2.813181762E1,-1.114050031E0,1.645050049E0,1.122705078E1
2.815181762E1,-1.114050031E0,1.645050049E0,1.122705078E1
2.817181762E1,-1.879050136E0,8.029500246E-1,1.153395081E1
2.819181762E1,-1.879050136E0,8.029500246E-1,1.153395081E1
2.821181762E1,-1.573050022E0,1.357950091E0,1.074900055E1
2.823181762E1,-1.573050022E0,1.357950091E0,1.074900055E1
2.825181762E1,-8.839500546E-1,1.167000055E0,1.065300083E1
2.827181762E1,-7.879500389E-1,1.090050101E0,1.034700012E1
2.829181762E1,-7.879500389E-1,1.090050101E0,1.034700012E1
2.831181762E1,-9.220500588E-1,8.029500246E-1,8.278950691E0
2.833181762E1,-9.220500588E-1,8.029500246E-1,8.278950691E0
2.835181762E1,-7.690500617E-1,1.090050101E0,8.068050385E0
2.837181762E1,-7.690500617E-1,1.090050101E0,8.068050385E0
2.839181762E1,-7.690500617E-1,1.090050101E0,8.068050385E0
2.841181762E1,-1.477050066E0,1.377000093E0,7.531950474E0
2.843181762E1,-1.477050066E0,1.377000093E0,7.531950474E0
2.845181762E1,-1.093950033E0,1.645050049E0,7.474050522E0
2.847181762E1,-1.093950033E0,1.645050049E0,7.474050522E0
2.849181762E1,-1.114050031E0,1.855950117E0,8.335950851E0
2.851181762E1,-1.114050031E0,1.855950117E0,8.335950851E0
2.853181762E1,-1.114050031E0,1.855950117E0,8.335950851E0
2.855181762E1,1.489950061E0,2.220000029E0,1.134195042E1
2.857181762E1,1.489950061E0,2.220000029E0,1.134195042E1
2.859181762E1,1.489950061E0,2.220000029E0,1.134195042E1
2.859181762E1,3.409500122E-1,1.339050055E0,1.050000095E1
2.863181762E1,-1.438950062E0,1.626000047E0,1.071000004E1
2.865181762E1,-1.495950103E0,1.626000047E0,1.074900055E1
2.867181762E1,-1.495950103E0,1.626000047E0,1.074900055E1
2.869181762E1,-6.540000439E-1,1.012950063E0,1.304700089E1
2.871181762E1,-6.540000439E-1,1.012950063E0,1.304700089E1
2.873181762E1,7.429500222E-1,0.000000000E0,1.203195095E1
2.875181762E1,7.429500222E-1,0.000000000E0,1.203195095E1
2.877181762E1,7.429500222E-1,0.000000000E0,1.203195095E1
2.879181762E1,-3.859500289E-1,-1.920000017E-1,1.078695011E1
2.881181762E1,-3.859500289E-1,-1.920000017E-1,1.078695011E1
2.883181762E1,-6.730500460E-1,8.989500403E-1,9.235950470E0
2.885181762E1,-6.730500460E-1,8.989500403E-1,9.235950470E0
2.887181762E1,-2.520000041E-1,1.033050060E0,7.800000191E0
2.889181762E1,-2.520000041E-1,1.033050060E0,7.800000191E0
2.891181762E1,-2.520000041E-1,1.033050060E0,7.800000191E0
2.893181762E1,-8.650500178E-1,2.008949995E0,7.033950329E0
2.895181762E1,-8.650500178E-1,2.008949995E0,7.033950329E0
2.897181762E1,-1.342950106E0,2.890050173E0,7.741950512E0
2.899181762E1,-1.342950106E0,2.890050173E0,7.741950512E0
2.901181762E1,-1.560000032E-1,2.679000139E0,8.182950020E0
2.903181762E1,-1.560000032E-1,2.679000139E0,8.182950020E0
2.905181762E1,-1.560000032E-1,2.679000139E0,8.182950020E0
2.907181762E1,6.660000086E-1,2.335050106E0,9.504000664E0
2.909181762E1,6.660000086E-1,2.335050106E0,9.504000664E0
2.911181762E1,-9.900000691E-2,2.200950146E0,1.030800056E1
2.913181762E1,-9.900000691E-2,2.200950146E0,1.030800056E1
2.915181762E1,-9.900000691E-2,2.200950146E0,1.030800056E1
2.917181762E1,-1.114050031E0,2.124000072E0,1.124700069E1
2.919181762E1,-1.114050031E0,2.124000072E0,1.124700069E1
2.921181762E1,-1.516050100E0,1.798950076E0,1.183995056E1
2.923181762E1,-1.516050100E0,1.798950076E0,1.183995056E1
2.925181762E1,-6.540000439E-1,4.579500258E-1,1.360200024E1
2.927181762E1,-6.540000439E-1,4.579500258E-1,1.360200024E1
2.929181762E1,-1.342950106E0,-2.880000174E-1,1.168695068E1
2.931181762E1,-1.075049996E0,-8.430000544E-1,1.107405090E1
2.933181762E1,-1.075049996E0,-8.430000544E-1,1.107405090E1
2.935181762E1,-1.936950088E0,-1.920000017E-1,1.147605038E1
2.937181762E1,-1.936950088E0,-1.920000017E-1,1.147605038E1
2.939181762E1,-1.803000093E0,-2.110500038E-1,1.007895088E1
2.941181762E1,-1.803000093E0,-2.110500038E-1,1.007895088E1
2.943181762E1,-1.803000093E0,-2.110500038E-1,1.007895088E1
2.945181762E1,-1.132950068E0,1.900500059E-1,8.221050262E0
2.947181762E1,-1.132950068E0,1.900500059E-1,8.221050262E0
2.949181762E1,-2.329500169E-1,7.450500131E-1,6.900000095E0
2.951181762E1,-2.329500169E-1,7.450500131E-1,6.900000095E0
2.953181762E1,-2.329500169E-1,7.450500131E-1,6.900000095E0
2.955181762E1,-2.329500169E-1,7.450500131E-1,6.900000095E0
2.957181762E1,-2.329500169E-1,7.450500131E-1,6.900000095E0
2.959181762E1,-5.010000467E-1,2.086050034E0,8.259000778E0
2.961181762E1,-5.010000467E-1,2.086050034E0,8.259000778E0
2.963181762E1,4.369500279E-1,1.702950120E0,8.929950714E0
2.965181762E1,4.369500279E-1,1.702950120E0,8.929950714E0
2.967181762E1,-7.500000596E-1,2.161950111E0,9.810000420E0
2.969181762E1,-7.690500617E-1,1.933050036E0,9.562050819E0
2.971181762E1,-7.690500617E-1,1.933050036E0,9.562050819E0
2.973181762E1,-4.819500148E-1,1.320000052E0,1.032705021E1
2.975181762E1,-4.819500148E-1,1.320000052E0,1.032705021E1
2.977181762E1,-1.591950059E0,1.645050049E0,9.945000648E0
2.979181762E1,-1.591950059E0,1.645050049E0,9.945000648E0
2.981181762E1,-1.591950059E0,1.645050049E0,9.945000648E0
2.983181762E1,-9.990000725E-1,1.357950091E0,1.187895012E1
2.985181762E1,-9.990000725E-1,1.357950091E0,1.187895012E1
2.987181762E1,-1.822050095E0,1.243050098E0,1.298895073E1
2.989181762E1,-1.822050095E0,1.243050098E0,1.298895073E1
2.991181762E1,-1.822050095E0,1.243050098E0,1.298895073E1
2.993181762E1,-1.822050095E0,1.243050098E0,1.298895073E1
2.995181762E1,-1.822050095E0,1.243050098E0,1.298895073E1
2.997181762E1,-1.560000032E-1,2.239050150E0,9.810000420E0
2.999181762E1,-1.560000032E-1,2.239050150E0,9.810000420E0
3.001181762E1,-2.520000041E-1,2.698950052E0,8.259000778E0
3.003181762E1,-2.520000041E-1,2.698950052E0,8.259000778E0
3.005181762E1,-2.710500062E-1,2.373000145E0,7.857000351E0
3.007181762E1,-2.710500062E-1,2.373000145E0,7.857000351E0
3.009181762E1,-2.710500062E-1,2.373000145E0,7.857000351E0
3.011181762E1,-3.480000198E-1,2.104950190E0,7.647000313E0
3.013181762E1,-3.480000198E-1,2.104950190E0,7.647000313E0
3.015181762E1,-2.416050196E0,2.928000212E0,7.531950474E0
3.017181762E1,-2.416050196E0,2.928000212E0,7.531950474E0
3.019181762E1,-2.416050196E0,2.928000212E0,7.531950474E0
3.021181762E1,-2.071050167E0,2.833050251E0,8.125050545E0
3.023181762E1,-2.071050167E0,2.833050251E0,8.125050545E0
3.025181762E1,-3.277050257E0,2.220000029E0,1.065300083E1
3.027181762E1,-3.277050257E0,2.220000029E0,1.065300083E1
3.029181762E1,-3.181950092E0,2.047049999E0,1.183995056E1
3.031181762E1,-3.181950092E0,2.047049999E0,1.183995056E1
3.033181762E1,-2.550000191E0,1.798950076E0,1.151505089E1
3.035181762E1,-2.281949997E0,2.239050150E0,1.249095058E1
3.037181762E1,-2.281949997E0,2.239050150E0,1.249095058E1
3.039181762E1,-9.220500588E-1,1.933050036E0,1.141905022E1
3.041181762E1,-9.220500588E-1,1.933050036E0,1.141905022E1
3.043181762E1,-1.611000061E0,3.733050108E0,1.130400085E1
3.045181762E1,-1.611000061E0,3.733050108E0,1.130400085E1
3.047181762E1,-1.611000061E0,3.733050108E0,1.130400085E1
3.049181762E1,5.320500135E-1,1.702950120E0,1.111305046E1
3.051181762E1,5.320500135E-1,1.702950120E0,1.111305046E1
3.053181762E1,1.144950032E0,1.645050049E0,9.982950211E0
3.055181762E1,1.144950032E0,1.645050049E0,9.982950211E0
3.057181762E1,9.150000215E-1,1.741050124E0,9.370050430E0
3.059181762E1,7.050000429E-1,2.028000116E0,8.662050247E0
3.061181762E1,7.050000429E-1,2.028000116E0,8.662050247E0
3.063181762E1,4.750500321E-1,2.316000223E0,8.700000763E0
3.065181762E1,4.750500321E-1,2.316000223E0,8.700000763E0
3.067181762E1,-1.750500053E-1,2.755950212E0,7.570050240E0
3.069181762E1,-1.750500053E-1,2.755950212E0,7.570050240E0
3.071181762E1,-8.650500178E-1,2.659950018E0,8.374050140E0
3.073181762E1,-1.285950065E0,3.120000124E0,8.239950180E0
3.075181762E1,-1.285950065E0,3.120000124E0,8.239950180E0
3.077181762E1,-5.389500260E-1,3.559950113E0,7.321050167E0
3.079181762E1,-5.389500260E-1,3.559950113E0,7.321050167E0
3.081181762E1,-5.389500260E-1,3.559950113E0,7.321050167E0
3.083181762E1,-5.389500260E-1,3.559950113E0,7.321050167E0
3.085181762E1,-5.389500260E-1,3.559950113E0,7.321050167E0
3.087181762E1,5.400000140E-2,4.288050175E0,8.833950043E0
3.089181762E1,5.400000140E-2,4.288050175E0,8.833950043E0
3.091181762E1,5.400000140E-2,4.288050175E0,8.833950043E0
3.093181762E1,5.400000140E-2,4.288050175E0,8.833950043E0
3.095181762E1,7.810500264E-1,3.712950230E0,9.772050858E0
3.097181762E1,7.810500264E-1,3.712950230E0,9.772050858E0
3.099181762E1,7.810500264E-1,3.712950230E0,9.772050858E0
3.101181762E1,1.489950061E0,3.004950047E0,1.028895092E1
3.103181762E1,1.489950061E0,3.004950047E0,1.028895092E1
3.105181762E1,1.720050097E0,2.563950062E0,1.042305088E1
3.107181762E1,1.720050097E0,2.563950062E0,1.042305088E1
3.109181762E1,1.930050135E0,3.522000074E0,1.050000095E1
3.111181762E1,2.026050091E0,3.828000069E0,1.003995037E1
3.113181762E1,2.026050091E0,3.828000069E0,1.003995037E1
3.115181762E1,1.720050097E0,3.139050245E0,8.049000740E0
3.117181762E1,1.720050097E0,3.139050245E0,8.049000740E0
3.119181762E1,1.144950032E0,3.675000191E0,6.900000095E0
3.121181762E1,1.144950032E0,3.675000191E0,6.900000095E0
3.123181762E1,1.144950032E0,3.675000191E0,6.900000095E0
3.125181762E1,4.560000300E-1,4.173000336E0,7.225050449E0
3.127181762E1,4.560000300E-1,4.173000336E0,7.225050449E0
3.129181762E1,8.200500607E-1,4.882050037E0,7.168050289E0
3.131181762E1,8.200500607E-1,4.882050037E0,7.168050289E0
3.133181762E1,1.662000060E0,5.092050076E0,7.608000278E0
3.135181762E1,1.662000060E0,5.092050076E0,7.608000278E0
3.137181762E1,1.662000060E0,5.092050076E0,7.608000278E0
3.139181762E1,5.710500479E-1,4.728000164E0,8.949000359E0
3.141181762E1,5.710500479E-1,4.728000164E0,8.949000359E0
3.143181762E1,1.500000060E-2,4.804950237E0,1.044195080E1
3.145181762E1,1.500000060E-2,4.804950237E0,1.044195080E1
3.147181762E1,1.500000060E-2,4.804950237E0,1.044195080E1
3.149181762E1,1.500000060E-2,4.804950237E0,1.044195080E1
3.151181762E1,1.500000060E-2,4.804950237E0,1.044195080E1
3.153181762E1,-7.110000253E-1,4.326000214E0,1.130400085E1
3.155181762E1,-7.110000253E-1,4.326000214E0,1.130400085E1
3.157181762E1,-2.109000206E0,4.135050297E0,1.122705078E1
3.159181762E1,-2.109000206E0,4.135050297E0,1.122705078E1
3.161181762E1,-2.109000206E0,4.135050297E0,1.122705078E1
3.163181762E1,-1.975050092E0,3.120000124E0,1.134195042E1
3.165181762E1,-1.975050092E0,3.120000124E0,1.134195042E1
3.167181762E1,-8.839500546E-1,3.867000103E0,1.036605072E1
3.169181762E1,-8.839500546E-1,3.867000103E0,1.036605072E1
3.171181762E1,1.110000089E-1,3.369000196E0,7.359000206E0
3.173181762E1,1.110000089E-1,3.369000196E0,7.359000206E0
3.175181762E1,1.110000089E-1,3.139050245E0,7.072050571E0
3.177181762E1,-3.280500174E-1,3.330000162E0,7.149000168E0
3.179181762E1,-3.280500174E-1,3.330000162E0,7.149000168E0
3.181181762E1,-1.305000067E0,3.369000196E0,7.513050556E0
3.183181762E1,-1.305000067E0,3.369000196E0,7.513050556E0
3.185181762E1,-1.573050022E0,3.273000240E0,7.417050362E0
3.187181762E1,-1.573050022E0,3.273000240E0,7.417050362E0
3.189181762E1,-1.573050022E0,3.273000240E0,7.417050362E0
3.191181762E1,-1.114050031E0,3.598950148E0,8.335950851E0
3.193181762E1,-1.114050031E0,3.598950148E0,8.335950851E0
3.195181762E1,-1.114050031E0,3.598950148E0,8.335950851E0
3.197181762E1,-1.114050031E0,3.598950148E0,8.335950851E0
3.199181762E1,-7.690500617E-1,3.522000074E0,1.015500069E1
3.201181762E1,-7.690500617E-1,3.522000074E0,1.015500069E1
3.203181762E1,-7.690500617E-1,3.522000074E0,1.015500069E1
3.205181762E1,-1.285950065E0,3.808950186E0,1.072995090E1
3.207181762E1,-1.285950065E0,3.808950186E0,1.072995090E1
3.209181762E1,-4.240500331E-1,3.522000074E0,1.128495026E1
3.211181762E1,-4.240500331E-1,3.522000074E0,1.128495026E1
3.213181762E1,-3.280500174E-1,3.369000196E0,1.207005024E1
3.215181762E1,-3.859500289E-1,3.253950119E0,1.187895012E1
3.217181762E1,-3.859500289E-1,3.253950119E0,1.187895012E1
3.219181762E1,-2.520000041E-1,2.641050100E0,1.032705021E1
3.221181762E1,-2.520000041E-1,2.641050100E0,1.032705021E1
3.223181762E1,-6.000000238E-2,3.043050051E0,9.676050186E0
3.225181762E1,-6.000000238E-2,3.043050051E0,9.676050186E0
3.227181762E1,-6.000000238E-2,3.043050051E0,9.676050186E0
3.229181762E1,2.070000172E-1,2.890050173E0,7.915050507E0
3.231181762E1,2.070000172E-1,2.890050173E0,7.915050507E0
3.233181762E1,6.280500293E-1,3.273000240E0,6.861000538E0
3.235181762E1,6.280500293E-1,3.273000240E0,6.861000538E0
3.237181762E1,-4.095000029E-2,3.694050074E0,6.804000378E0
3.239181762E1,-4.095000029E-2,3.694050074E0,6.804000378E0
3.241181762E1,-4.429500103E-1,4.306950092E0,7.015050411E0
3.243181762E1,-1.560000032E-1,4.402950287E0,7.186950207E0
3.245181762E1,-1.560000032E-1,4.402950287E0,7.186950207E0
3.247181762E1,6.660000086E-1,4.269000053E0,8.239950180E0
3.249181762E1,6.660000086E-1,4.269000053E0,8.239950180E0
3.251181762E1,3.409500122E-1,4.077000141E0,9.043950081E0
3.253181762E1,3.409500122E-1,4.077000141E0,9.043950081E0
3.255181762E1,3.409500122E-1,4.077000141E0,9.043950081E0
3.257181762E1,-6.730500460E-1,4.153950214E0,1.071000004E1
3.259181762E1,-6.730500460E-1,4.153950214E0,1.071000004E1
3.261181762E1,-1.477050066E0,4.671000004E0,1.310400105E1
3.263181762E1,-1.477050066E0,4.671000004E0,1.310400105E1
3.265181762E1,-9.900000691E-2,3.465000153E0,1.230000019E1
3.267181762E1,-1.369500011E-1,3.196050167E0,1.178295040E1
3.269181762E1,-1.369500011E-1,3.196050167E0,1.178295040E1
3.271181762E1,-2.358000040E0,3.484050274E0,1.046205044E1
3.273181762E1,-2.358000040E0,3.484050274E0,1.046205044E1
3.275181762E1,-2.089950085E0,3.712950230E0,9.868050575E0
3.277181762E1,-2.089950085E0,3.712950230E0,9.868050575E0
3.279181762E1,-2.089950085E0,3.712950230E0,9.868050575E0
3.281181762E1,-1.516050100E0,3.465000153E0,1.030800056E1
3.283181762E1,-1.516050100E0,3.465000153E0,1.030800056E1
3.285181762E1,-1.495950103E0,2.698950052E0,8.317049980E0
3.287181762E1,-1.495950103E0,2.698950052E0,8.317049980E0
3.289181762E1,-1.228050113E0,2.947050095E0,7.264050484E0
3.291181762E1,-1.228050113E0,2.947050095E0,7.264050484E0
3.293181762E1,-1.228050113E0,2.947050095E0,7.264050484E0
3.295181762E1,-1.516050100E0,3.043050051E0,6.229950428E0
3.297181762E1,-1.516050100E0,3.043050051E0,6.229950428E0
3.299181762E1,-1.055999994E0,3.061950207E0,6.115050316E0
3.301181762E1,-1.055999994E0,3.061950207E0,6.115050316E0
3.303181762E1,-1.783950090E0,3.349950075E0,7.723050594E0
3.305181762E1,-1.783950090E0,3.349950075E0,7.723050594E0
3.307181762E1,-1.209000111E0,3.637050152E0,9.006000519E0
3.309181762E1,-8.449500203E-1,3.637050152E0,9.580950737E0
3.311181762E1,-8.449500203E-1,3.637050152E0,9.580950737E0
3.313181762E1,-2.520000041E-1,5.418000221E0,1.072995090E1
3.315181762E1,-2.520000041E-1,5.418000221E0,1.072995090E1
3.317181762E1,-2.520000041E-1,5.418000221E0,1.072995090E1
3.319181762E1,2.581050158E0,3.330000162E0,9.619050026E0
3.321181762E1,2.581050158E0,3.330000162E0,9.619050026E0
3.323181762E1,3.060000181E0,5.379000187E0,1.164900017E1
3.325181762E1,3.060000181E0,5.379000187E0,1.164900017E1
3.327181762E1,2.083050013E0,2.182049990E0,1.318095016E1
3.329181762E1,2.083050013E0,2.182049990E0,1.318095016E1
3.331181762E1,1.815000057E0,2.737050056E0,1.241505051E1
3.333181762E1,1.948950052E0,3.253950119E0,1.147605038E1
3.335181762E1,1.948950052E0,3.253950119E0,1.147605038E1
3.337181762E1,1.566000104E0,4.671000004E0,9.006000519E0
3.339181762E1,1.566000104E0,4.671000004E0,9.006000519E0
3.341181762E1,1.948950052E0,3.867000103E0,7.647000313E0
3.343181762E1,1.948950052E0,3.867000103E0,7.647000313E0
3.345181762E1,1.948950052E0,3.867000103E0,7.647000313E0
3.347181762E1,1.795950055E0,3.637050152E0,6.343950272E0
3.349181762E1,1.795950055E0,3.637050152E0,6.343950272E0
3.351181762E1,4.750500321E-1,3.961950302E0,6.727050304E0
3.353181762E1,4.750500321E-1,3.961950302E0,6.727050304E0
3.355181762E1,-4.620000124E-1,4.249950409E0,7.608000278E0
3.357181762E1,-4.620000124E-1,4.249950409E0,7.608000278E0
3.359181762E1,-4.620000124E-1,4.249950409E0,7.608000278E0
3.361181762E1,2.562000036E0,4.384050369E0,7.819050312E0
3.363181762E1,2.562000036E0,4.384050369E0,7.819050312E0
3.365181762E1,5.320500135E-1,4.518000126E0,9.523050308E0
3.367181762E1,5.320500135E-1,4.518000126E0,9.523050308E0
3.369181762E1,5.320500135E-1,4.518000126E0,9.523050308E0
3.371181762E1,3.405000269E-2,4.690050125E0,8.968050003E0
3.373181762E1,3.405000269E-2,4.690050125E0,8.968050003E0
3.375181762E1,-1.516050100E0,6.030000210E0,1.017405033E1
3.377181762E1,-1.516050100E0,6.030000210E0,1.017405033E1
3.379181762E1,5.130000114E-1,5.245050430E0,1.076805019E1
3.381181762E1,5.130000114E-1,5.245050430E0,1.076805019E1
3.383181762E1,5.130000114E-1,5.245050430E0,1.076805019E1
3.385181762E1,-1.750500053E-1,3.445050240E0,1.050000095E1
3.387181762E1,-1.750500053E-1,3.445050240E0,1.050000095E1
3.389181762E1,-4.240500331E-1,3.426000118E0,1.117005062E1
3.391181762E1,-4.240500331E-1,3.426000118E0,1.117005062E1
3.393181762E1,-4.240500331E-1,3.426000118E0,1.117005062E1
3.395181762E1,-4.240500331E-1,3.426000118E0,1.117005062E1
3.397181762E1,-4.240500331E-1,3.426000118E0,1.117005062E1
3.399181762E1,-4.042950153E0,5.953950405E0,6.478950500E0
3.401181762E1,-4.042950153E0,5.953950405E0,6.478950500E0
3.403181762E1,-2.140500098E-1,3.502950191E0,7.492950439E0
3.405181762E1,-2.140500098E-1,3.502950191E0,7.492950439E0
3.407181762E1,9.730500579E-1,3.637050152E0,7.206000328E0
3.409181762E1,9.730500579E-1,3.637050152E0,7.206000328E0
3.411181762E1,-2.329500169E-1,3.330000162E0,6.325050354E0
3.413181762E1,-1.018050075E0,4.039050102E0,7.110000134E0
3.415181762E1,-1.018050075E0,4.039050102E0,7.110000134E0
3.417181762E1,-9.220500588E-1,4.326000214E0,7.837950230E0
3.419181762E1,-9.220500588E-1,4.326000214E0,7.837950230E0
3.421181762E1,-9.220500588E-1,4.326000214E0,7.837950230E0
3.423181762E1,-5.389500260E-1,4.019999981E0,9.274050713E0
3.425181762E1,-5.389500260E-1,4.019999981E0,9.274050713E0
3.427181762E1,5.509500504E-1,3.961950302E0,1.118895054E1
3.429181762E1,5.509500504E-1,3.961950302E0,1.118895054E1
3.431181762E1,-2.205000073E-2,3.637050152E0,1.015500069E1
3.433181762E1,-2.205000073E-2,3.637050152E0,1.015500069E1
3.435181762E1,-2.205000073E-2,3.637050152E0,1.015500069E1
3.437181762E1,1.183050036E0,3.157950163E0,1.216605091E1
3.439181762E1,1.183050036E0,3.157950163E0,1.216605091E1
3.441181762E1,1.566000104E0,2.220000029E0,1.172505093E1
3.443181762E1,1.566000104E0,2.220000029E0,1.172505093E1
3.445181762E1,2.754000187E0,1.033050060E0,1.228095055E1
3.447181762E1,2.754000187E0,1.033050060E0,1.228095055E1
3.449181762E1,2.754000187E0,1.033050060E0,1.228095055E1
3.451181762E1,2.715000153E0,2.067000151E0,8.680950165E0
3.453181762E1,2.715000153E0,2.067000151E0,8.680950165E0
3.455181762E1,2.350950003E0,2.449950218E0,8.853000641E0
3.457181762E1,2.350950003E0,2.449950218E0,8.853000641E0
3.459181762E1,2.350950003E0,2.449950218E0,8.853000641E0
3.461181762E1,2.350950003E0,2.449950218E0,8.853000641E0
3.463181762E1,2.350950003E0,2.449950218E0,8.853000641E0
3.465181762E1,1.048950076E0,2.622000217E0,7.780950546E0
3.467181762E1,1.048950076E0,2.622000217E0,7.780950546E0
3.469181762E1,4.369500279E-1,3.120000124E0,7.972050190E0
3.471181762E1,4.369500279E-1,3.120000124E0,7.972050190E0
3.473181762E1,4.369500279E-1,3.120000124E0,7.972050190E0
3.475181762E1,1.183050036E0,2.871000051E0,9.159000397E0
3.477181762E1,1.183050036E0,2.871000051E0,9.159000397E0
3.479181762E1,8.959500194E-1,2.908950090E0,8.335950851E0
3.481181762E1,8.959500194E-1,2.908950090E0,8.335950851E0
3.483181762E1,-4.620000124E-1,3.216000080E0,9.733950615E0
3.485181762E1,-4.620000124E-1,3.216000080E0,9.733950615E0
3.487181762E1,-1.936950088E0,3.061950207E0,1.023195076E1
3.489181762E1,-1.822050095E0,3.100950241E0,1.013595009E1
3.491181762E1,-1.822050095E0,3.100950241E0,1.013595009E1
3.493181762E1,-1.822050095E0,3.100950241E0,1.013595009E1
3.495181762E1,-1.822050095E0,3.100950241E0,1.013595009E1
3.497181762E1,-1.822050095E0,3.100950241E0,1.013595009E1
3.499181762E1,-1.822050095E0,3.100950241E0,1.013595009E1
3.501181762E1,-1.822050095E0,3.100950241E0,1.013595009E1
3.503181762E1,-2.710500062E-1,1.588050127E0,1.113195038E1
3.505181762E1,-2.710500062E-1,1.588050127E0,1.113195038E1
3.507181762E1,-7.500000596E-1,2.086050034E0,1.182105064E1
3.509181762E1,-7.500000596E-1,2.086050034E0,1.182105064E1
3.511181762E1,2.639999986E-1,1.684050083E0,1.117005062E1
3.513181762E1,2.639999986E-1,1.684050083E0,1.117005062E1
3.515181762E1,2.639999986E-1,1.684050083E0,1.117005062E1
3.517181762E1,5.899500251E-1,1.722000122E0,7.206000328E0
3.519181762E1,5.899500251E-1,1.722000122E0,7.206000328E0
3.521181762E1,-5.010000467E-1,3.330000162E0,7.684950352E0
3.523181762E1,-5.010000467E-1,3.330000162E0,7.684950352E0
3.525181762E1,-5.010000467E-1,3.330000162E0,7.684950352E0
3.527181762E1,1.680000126E-1,3.061950207E0,6.268050194E0
3.529181762E1,1.680000126E-1,3.061950207E0,6.268050194E0
3.531181762E1,-5.010000467E-1,3.694050074E0,7.837950230E0
3.533181762E1,-5.010000467E-1,3.694050074E0,7.837950230E0
3.535181762E1,-5.580000281E-1,4.345050335E0,8.086950302E0
3.537181762E1,-5.580000281E-1,4.345050335E0,8.086950302E0
3.539181762E1,-5.580000281E-1,4.345050335E0,8.086950302E0
3.541181762E1,4.939500093E-1,4.192049980E0,8.796000481E0
3.543181762E1,4.939500093E-1,4.192049980E0,8.796000481E0
3.545181762E1,7.240500450E-1,4.230000019E0,1.036605072E1
3.547181762E1,7.240500450E-1,4.230000019E0,1.036605072E1
3.549181762E1,9.150000215E-1,4.116000175E0,1.151505089E1
3.551181762E1,9.150000215E-1,4.116000175E0,1.151505089E1
3.553181762E1,9.150000215E-1,4.116000175E0,1.151505089E1
3.555181762E1,2.542950153E0,3.292050123E0,1.086405087E1
3.557181762E1,2.542950153E0,3.292050123E0,1.086405087E1
3.559181762E1,2.409000158E0,3.082050085E0,1.053795052E1
3.561181762E1,2.409000158E0,3.082050085E0,1.053795052E1
3.563181762E1,2.409000158E0,3.082050085E0,1.053795052E1
3.565181762E1,2.409000158E0,3.082050085E0,1.053795052E1
3.567181762E1,2.409000158E0,3.082050085E0,1.053795052E1
3.569181762E1,2.581050158E0,3.292050123E0,7.588950157E0
3.571181762E1,2.581050158E0,3.292050123E0,7.588950157E0
3.573181762E1,1.297950029E0,3.273000240E0,6.343950272E0
3.575181762E1,1.297950029E0,3.273000240E0,6.343950272E0
3.577181762E1,7.050000429E-1,3.655950069E0,6.937950134E0
3.579181762E1,7.240500450E-1,3.808950186E0,7.090950489E0
3.581181762E1,7.240500450E-1,3.808950186E0,7.090950489E0
3.583181762E1,7.999500632E-1,3.982050180E0,6.937950134E0
3.585181762E1,7.999500632E-1,3.982050180E0,6.937950134E0
3.587181762E1,9.150000215E-1,4.384050369E0,7.588950157E0
3.589181762E1,9.150000215E-1,4.384050369E0,7.588950157E0
3.591181762E1,9.150000215E-1,4.384050369E0,7.588950157E0
3.593181762E1,1.011000037E0,3.847050190E0,8.566050529E0
3.595181762E1,1.011000037E0,3.847050190E0,8.566050529E0
3.597181762E1,2.070000172E-1,3.867000103E0,1.028895092E1
3.599181762E1,2.070000172E-1,3.867000103E0,1.028895092E1
3.601181762E1,-6.730500460E-1,4.402950287E0,1.130400085E1
3.603181762E1,-6.730500460E-1,4.402950287E0,1.130400085E1
3.605181762E1,-6.730500460E-1,4.402950287E0,1.130400085E1
3.607181762E1,7.810500264E-1,4.153950214E0,1.143795013E1
3.609181762E1,7.810500264E-1,4.153950214E0,1.143795013E1
3.611181762E1,-2.710500062E-1,2.947050095E0,1.124700069E1
3.613181762E1,-2.710500062E-1,2.947050095E0,1.124700069E1
3.615181762E1,-2.329500169E-1,2.469000101E0,1.189800072E1
3.617181762E1,-2.329500169E-1,2.469000101E0,1.189800072E1
3.619181762E1,-2.329500169E-1,2.469000101E0,1.189800072E1
3.621181762E1,-1.750500053E-1,2.488050222E0,1.090200043E1
3.623181762E1,-1.750500053E-1,2.488050222E0,1.090200043E1
3.625181762E1,4.170000255E-1,1.645050049E0,9.292950630E0
3.627181762E1,4.170000255E-1,1.645050049E0,9.292950630E0
3.629181762E1,4.170000255E-1,1.645050049E0,9.292950630E0
3.631181762E1,-1.750500053E-1,2.641050100E0,9.313050270E0
3.633181762E1,-1.750500053E-1,2.641050100E0,9.313050270E0
3.635181762E1,3.220500052E-1,2.067000151E0,7.780950546E0
3.637181762E1,3.220500052E-1,2.067000151E0,7.780950546E0
3.639181762E1,-4.819500148E-1,2.967000246E0,7.896000385E0
3.641181762E1,-4.819500148E-1,2.967000246E0,7.896000385E0
3.643181762E1,-4.819500148E-1,2.967000246E0,7.896000385E0
3.645181762E1,-2.140500098E-1,3.502950191E0,6.766050339E0
3.647181762E1,-2.140500098E-1,3.502950191E0,6.766050339E0
3.649181762E1,7.240500450E-1,3.618000269E0,8.259000778E0
3.651181762E1,7.240500450E-1,3.618000269E0,8.259000778E0
3.653181762E1,7.240500450E-1,3.618000269E0,8.259000778E0
3.655181762E1,7.240500450E-1,3.618000269E0,8.259000778E0
3.657181762E1,7.240500450E-1,3.618000269E0,8.259000778E0
3.659181762E1,6.660000086E-1,2.563950062E0,1.053795052E1
3.661181762E1,6.660000086E-1,2.563950062E0,1.053795052E1
3.663181762E1,1.624050021E0,2.200950146E0,1.321905041E1
3.665181762E1,1.624050021E0,2.200950146E0,1.321905041E1
3.667181762E1,1.624050021E0,2.200950146E0,1.321905041E1
3.669181762E1,1.968000054E0,1.243050098E0,1.138095093E1
3.671181762E1,1.968000054E0,1.243050098E0,1.138095093E1
3.673181762E1,3.405000210E0,7.260000110E-1,9.600000381E0
3.675181762E1,3.405000210E0,7.260000110E-1,9.600000381E0
3.677181762E1,2.083050013E0,2.430000067E0,9.772050858E0
3.679181762E1,2.083050013E0,2.430000067E0,9.772050858E0
3.681181762E1,2.083050013E0,2.430000067E0,9.772050858E0
3.683181762E1,2.524050236E0,2.296050072E0,7.857000351E0
3.685181762E1,2.524050236E0,2.296050072E0,7.857000351E0
3.687181762E1,1.297950029E0,2.602950096E0,7.339950562E0
3.689181762E1,1.297950029E0,2.602950096E0,7.339950562E0
3.691181762E1,1.297950029E0,2.602950096E0,7.339950562E0
3.693181762E1,1.297950029E0,2.602950096E0,7.339950562E0
3.695181762E1,2.260500044E-1,3.484050274E0,6.364050388E0
3.697181762E1,3.790500164E-1,3.330000162E0,6.651000500E0
3.699181762E1,3.790500164E-1,3.330000162E0,6.651000500E0
3.701181762E1,2.070000172E-1,3.196050167E0,1.000200081E1
3.703181762E1,2.070000172E-1,3.196050167E0,1.000200081E1
3.705181762E1,2.070000172E-1,3.196050167E0,1.000200081E1
3.707181762E1,2.070000172E-1,3.196050167E0,1.000200081E1
3.709181762E1,2.070000172E-1,3.196050167E0,1.000200081E1
3.711181762E1,-1.324050069E0,3.310950041E0,1.055700016E1
3.713181762E1,-1.324050069E0,3.310950041E0,1.055700016E1
3.715181762E1,-8.070000410E-1,3.061950207E0,1.109295082E1
3.717181762E1,-8.070000410E-1,3.061950207E0,1.109295082E1
3.719181762E1,3.405000269E-2,2.296050072E0,1.249095058E1
3.721181762E1,-2.329500169E-1,2.008949995E0,1.272105026E1
3.723181762E1,-2.329500169E-1,2.008949995E0,1.272105026E1
3.725181762E1,-1.401000023E0,1.492050052E0,1.203195095E1
3.727181762E1,-1.401000023E0,1.492050052E0,1.203195095E1
3.729181762E1,-1.114050031E0,1.875000119E0,1.025100040E1
3.731181762E1,-1.114050031E0,1.875000119E0,1.025100040E1
3.733181762E1,-1.114050031E0,1.875000119E0,1.025100040E1
3.735181762E1,-1.939500123E-1,2.182049990E0,8.756999969E0
3.737181762E1,-1.939500123E-1,2.182049990E0,8.756999969E0
3.739181762E1,-4.240500331E-1,1.549950123E0,7.915050507E0
3.741181762E1,-4.240500331E-1,1.549950123E0,7.915050507E0
3.743181762E1,-5.200500488E-1,2.182049990E0,7.723050594E0
3.745181762E1,-5.200500488E-1,2.182049990E0,7.723050594E0
3.747181762E1,-5.200500488E-1,2.182049990E0,7.723050594E0
3.749181762E1,-1.573050022E0,2.373000145E0,8.086950302E0
3.751181762E1,-1.573050022E0,2.373000145E0,8.086950302E0
3.753181762E1,-9.030000567E-1,2.698950052E0,7.762050152E0
3.755181762E1,-9.030000567E-1,2.698950052E0,7.762050152E0
3.757181762E1,-6.730500460E-1,2.908950090E0,8.010000229E0
3.759181762E1,-6.730500460E-1,2.908950090E0,8.010000229E0
3.761181762E1,-2.899500132E-1,2.718000174E0,9.198000908E0
3.763181762E1,-4.620000124E-1,2.737050056E0,9.829950333E0
3.765181762E1,-4.620000124E-1,2.737050056E0,9.829950333E0
3.767181762E1,-8.650500178E-1,2.410950184E0,1.120800018E1
3.769181762E1,-8.650500178E-1,2.410950184E0,1.120800018E1
3.771181762E1,-8.650500178E-1,2.410950184E0,1.120800018E1
3.773181762E1,1.489500105E-1,2.086050034E0,1.272105026E1
3.775181762E1,1.489500105E-1,2.086050034E0,1.272105026E1
3.777181762E1,-4.429500103E-1,2.277000189E0,1.281705093E1
3.779181762E1,-4.429500103E-1,2.277000189E0,1.281705093E1
3.781181762E1,9.340500236E-1,9.750000238E-1,1.174500084E1
3.783181762E1,9.340500236E-1,9.750000238E-1,1.174500084E1
3.785181762E1,9.340500236E-1,9.750000238E-1,1.174500084E1
3.787181762E1,4.560000300E-1,1.855950117E0,9.715050697E0
3.789181762E1,4.560000300E-1,1.855950117E0,9.715050697E0
3.791181762E1,1.624050021E0,1.702950120E0,8.413050652E0
3.793181762E1,1.624050021E0,1.702950120E0,8.413050652E0
3.795181762E1,1.624050021E0,1.702950120E0,8.413050652E0
3.797181762E1,1.624050021E0,1.702950120E0,8.413050652E0
3.799181762E1,1.624050021E0,1.702950120E0,8.413050652E0
3.801181762E1,-1.369500011E-1,2.353950024E0,6.439950466E0
3.803181762E1,-1.369500011E-1,2.353950024E0,6.439950466E0
3.805181762E1,-6.349500418E-1,3.310950041E0,7.570050240E0
3.807181762E1,-6.349500418E-1,3.310950041E0,7.570050240E0
3.809181762E1,-6.349500418E-1,3.310950041E0,7.570050240E0
3.811181762E1,-6.349500418E-1,3.310950041E0,7.570050240E0
3.813181762E1,-6.349500418E-1,3.310950041E0,7.570050240E0
3.815181762E1,9.195000678E-2,3.043050051E0,9.829950333E0
3.817181762E1,9.195000678E-2,3.043050051E0,9.829950333E0
3.819181762E1,-5.959500074E-1,3.024000168E0,1.065300083E1
3.821181762E1,-5.959500074E-1,3.024000168E0,1.065300083E1
3.823181762E1,-1.611000061E0,3.445050240E0,1.174500084E1
3.825181762E1,-1.687950134E0,3.426000118E0,1.162995052E1
3.827181762E1,-1.687950134E0,3.426000118E0,1.162995052E1
3.829181762E1,-2.089950085E0,3.982050180E0,1.187895012E1
3.831181762E1,-2.089950085E0,3.982050180E0,1.187895012E1
3.833181762E1,-2.089950085E0,3.982050180E0,1.187895012E1
3.835181762E1,-2.089950085E0,3.982050180E0,1.187895012E1
3.837181762E1,-2.089950085E0,3.982050180E0,1.187895012E1
3.839181762E1,-3.067050219E0,2.679000139E0,1.201305103E1
3.841181762E1,-3.067050219E0,2.679000139E0,1.201305103E1
3.843181762E1,-1.975050092E0,2.335050106E0,1.124700069E1
3.845181762E1,-1.975050092E0,2.335050106E0,1.124700069E1
3.847181762E1,-2.071050167E0,2.124000072E0,1.063395023E1
3.849181762E1,-2.071050167E0,2.124000072E0,1.063395023E1
3.851181762E1,-2.071050167E0,2.124000072E0,1.063395023E1
3.853181762E1,-7.690500617E-1,2.182049990E0,7.780950546E0
3.855181762E1,-7.690500617E-1,2.182049990E0,7.780950546E0
3.857181762E1,-7.110000253E-1,2.584050179E0,6.498000145E0
3.859181762E1,-7.110000253E-1,2.584050179E0,6.498000145E0
3.861181762E1,-7.110000253E-1,2.584050179E0,6.498000145E0
3.863181762E1,-7.110000253E-1,2.584050179E0,6.498000145E0
3.865181762E1,-7.500000596E-1,3.177000046E0,6.555000305E0
3.867181762E1,-7.879500389E-1,3.349950075E0,7.302000523E0
3.869181762E1,-7.879500389E-1,3.349950075E0,7.302000523E0
3.871181762E1,-7.905000448E-2,3.369000196E0,8.527050018E0
3.873181762E1,-7.905000448E-2,3.369000196E0,8.527050018E0
3.875181762E1,-7.905000448E-2,3.369000196E0,8.527050018E0
3.877181762E1,3.790500164E-1,3.253950119E0,9.868050575E0
3.879181762E1,3.790500164E-1,3.253950119E0,9.868050575E0
3.881181762E1,-2.520000041E-1,3.484050274E0,1.027005005E1
3.883181762E1,-2.520000041E-1,3.484050274E0,1.027005005E1
3.885181762E1,5.130000114E-1,3.502950191E0,1.076805019E1
3.887181762E1,5.130000114E-1,3.502950191E0,1.076805019E1
3.889181762E1,5.130000114E-1,3.502950191E0,1.076805019E1
3.891181762E1,1.106999993E0,2.967000246E0,1.214700031E1
3.893181762E1,1.106999993E0,2.967000246E0,1.214700031E1
3.895181762E1,1.336950064E0,1.971000075E0,1.055700016E1
3.897181762E1,1.336950064E0,1.971000075E0,1.055700016E1
3.899181762E1,1.106999993E0,2.563950062E0,9.217050552E0
3.901181762E1,1.106999993E0,2.563950062E0,9.217050552E0
3.903181762E1,1.106999993E0,2.563950062E0,9.217050552E0
3.905181762E1,9.730500579E-1,2.067000151E0,9.810000420E0
3.907181762E1,9.730500579E-1,2.067000151E0,9.810000420E0
3.909181762E1,1.110000089E-1,2.812950134E0,8.566050529E0
3.911181762E1,1.110000089E-1,2.812950134E0,8.566050529E0
3.913181762E1,2.449500114E-1,2.775000095E0,7.168050289E0
3.915181762E1,2.449500114E-1,2.775000095E0,7.168050289E0
3.917181762E1,2.449500114E-1,2.775000095E0,7.168050289E0
3.919181762E1,5.130000114E-1,3.445050240E0,7.455000401E0
3.921181762E1,5.130000114E-1,3.445050240E0,7.455000401E0
3.923181762E1,7.999500632E-1,3.445050240E0,8.298000336E0
3.925181762E1,7.999500632E-1,3.445050240E0,8.298000336E0
3.927181762E1,1.048950076E0,3.694050074E0,8.239950180E0
3.929181762E1,5.899500251E-1,3.675000191E0,8.719050407E0
3.931181762E1,5.899500251E-1,3.675000191E0,8.719050407E0
3.933181762E1,-1.171050072E0,3.924000263E0,1.009800053E1
3.935181762E1,-1.171050072E0,3.924000263E0,1.009800053E1
3.937181762E1,-1.554000020E0,4.249950409E0,1.019295025E1
3.939181762E1,-1.554000020E0,4.249950409E0,1.019295025E1
3.941181762E1,-1.554000020E0,4.249950409E0,1.019295025E1
3.943181762E1,-2.281949997E0,3.961950302E0,1.193595028E1
3.945181762E1,-2.281949997E0,3.961950302E0,1.193595028E1
3.947181762E1,-2.416050196E0,3.388050079E0,1.208895016E1
3.949181762E1,-2.416050196E0,3.388050079E0,1.208895016E1
3.951181762E1,-2.989950180E0,2.851950169E0,1.302795029E1
3.953181762E1,-2.989950180E0,2.851950169E0,1.302795029E1
3.955181762E1,-2.989950180E0,2.851950169E0,1.302795029E1
3.957181762E1,-1.420050025E0,2.124000072E0,1.109295082E1
3.959181762E1,-1.420050025E0,2.124000072E0,1.109295082E1
3.961181762E1,-3.280500174E-1,1.741050124E0,8.853000641E0
3.963181762E1,-3.280500174E-1,1.741050124E0,8.853000641E0
3.965181762E1,-5.200500488E-1,2.296050072E0,8.623050690E0
3.967181762E1,-5.200500488E-1,2.296050072E0,8.623050690E0
3.969181762E1,-1.939500123E-1,2.506950140E0,7.837950230E0
3.971181762E1,-1.560000032E-1,2.296050072E0,7.704000473E0
3.973181762E1,-1.560000032E-1,2.296050072E0,7.704000473E0
3.975181762E1,-8.650500178E-1,2.718000174E0,6.841950417E0
3.977181762E1,-8.650500178E-1,2.718000174E0,6.841950417E0
3.979181762E1,-8.650500178E-1,2.718000174E0,6.841950417E0
3.981181762E1,-3.280500174E-1,3.004950047E0,7.513050556E0
3.983181762E1,-3.280500174E-1,3.004950047E0,7.513050556E0
3.985181762E1,-5.959500074E-1,3.043050051E0,9.159000397E0
3.987181762E1,-5.959500074E-1,3.043050051E0,9.159000397E0
3.989181762E1,-5.959500074E-1,3.043050051E0,9.159000397E0
3.991181762E1,-5.959500074E-1,3.043050051E0,9.159000397E0
3.993181762E1,-5.959500074E-1,3.043050051E0,9.159000397E0
3.995181762E1,-4.240500331E-1,2.161950111E0,9.810000420E0
3.997181762E1,-4.240500331E-1,2.161950111E0,9.810000420E0
3.999181762E1,-3.480000198E-1,2.353950024E0,9.562050819E0
4.001181762E1,-3.480000198E-1,2.353950024E0,9.562050819E0
4.003181762E1,1.260000110E0,1.473000050E0,1.140000057E1
4.005181762E1,1.260000110E0,1.473000050E0,1.140000057E1
4.007181762E1,7.620000243E-1,1.435050011E0,1.093995094E1
4.009181762E1,8.200500607E-1,1.243050098E0,1.084500027E1
4.011181762E1,8.200500607E-1,1.243050098E0,1.084500027E1
4.013181762E1,8.200500607E-1,1.243050098E0,1.084500027E1
4.015181762E1,8.200500607E-1,1.243050098E0,1.084500027E1
4.017181762E1,8.200500607E-1,1.243050098E0,1.084500027E1
4.019181762E1,8.200500607E-1,1.243050098E0,1.084500027E1
4.021181762E1,8.200500607E-1,1.243050098E0,1.084500027E1
4.023181762E1,-5.389500260E-1,1.759950042E0,9.235950470E0
4.025181762E1,-5.389500260E-1,1.759950042E0,9.235950470E0
4.027181762E1,-1.171050072E0,1.894050121E0,7.492950439E0
4.029181762E1,-1.171050072E0,1.894050121E0,7.492950439E0
4.031181762E1,-1.248000026E0,2.086050034E0,7.359000206E0
4.033181762E1,-1.342950106E0,2.506950140E0,7.647000313E0
4.035181762E1,-1.342950106E0,2.506950140E0,7.647000313E0
4.037181762E1,-6.540000439E-1,2.775000095E0,9.082950592E0
4.039181762E1,-6.540000439E-1,2.775000095E0,9.082950592E0
4.041181762E1,-3.670500219E-1,2.928000212E0,9.829950333E0
4.043181762E1,-3.670500219E-1,2.928000212E0,9.829950333E0
4.045181762E1,-3.670500219E-1,2.928000212E0,9.829950333E0
4.047181762E1,-2.148000002E0,2.563950062E0,9.715050697E0
4.049181762E1,-2.148000002E0,2.563950062E0,9.715050697E0
4.051181762E1,-3.967050076E0,3.292050123E0,1.088295078E1
4.053181762E1,-3.967050076E0,3.292050123E0,1.088295078E1
4.055181762E1,-3.718050241E0,2.986050129E0,1.140000057E1
4.057181762E1,-3.718050241E0,2.986050129E0,1.140000057E1
4.059181762E1,-3.718050241E0,2.986050129E0,1.140000057E1
4.061181762E1,-4.656000137E0,1.549950123E0,1.208895016E1
4.063181762E1,-4.656000137E0,1.549950123E0,1.208895016E1
4.065181762E1,-4.005000114E0,1.357950091E0,1.205100060E1
4.067181762E1,-4.005000114E0,1.357950091E0,1.205100060E1
4.069181762E1,-4.005000114E0,1.357950091E0,1.205100060E1
4.071181762E1,-4.005000114E0,1.357950091E0,1.205100060E1
4.073181762E1,-4.005000114E0,1.357950091E0,1.205100060E1
4.075181762E1,-3.124050140E0,7.069500089E-1,1.040400028E1
4.077181762E1,-3.124050140E0,7.069500089E-1,1.040400028E1
4.079181762E1,-1.860000134E0,7.450500131E-1,8.584950447E0
4.081181762E1,-1.860000134E0,7.450500131E-1,8.584950447E0
4.083181762E1,-1.860000134E0,7.450500131E-1,8.584950447E0
4.085181762E1,-1.477050066E0,1.167000055E0,7.588950157E0
4.087181762E1,-1.477050066E0,1.167000055E0,7.588950157E0
4.089181762E1,-1.420050025E0,1.147050023E0,7.033950329E0
4.091181762E1,-1.420050025E0,1.147050023E0,7.033950329E0
4.093181762E1,-1.420050025E0,1.147050023E0,7.033950329E0
4.095181762E1,-1.420050025E0,1.147050023E0,7.033950329E0
4.097181762E1,-1.822050095E0,2.410950184E0,7.800000191E0
4.099181762E1,-1.591950059E0,2.353950024E0,8.335950851E0
4.101181762E1,-1.591950059E0,2.353950024E0,8.335950851E0
4.103181762E1,-2.148000002E0,2.047049999E0,9.313050270E0
4.105181762E1,-2.148000002E0,2.047049999E0,9.313050270E0
4.107181762E1,-3.238950253E0,2.143050194E0,9.772050858E0
4.109181762E1,-3.238950253E0,2.143050194E0,9.772050858E0
4.111181762E1,-1.554000020E0,1.702950120E0,1.025100040E1
4.113181762E1,-1.018050075E0,1.510950089E0,1.145700073E1
4.115181762E1,-1.018050075E0,1.510950089E0,1.145700073E1
4.117181762E1,-1.591950059E0,1.012950063E0,1.247205067E1
4.119181762E1,-1.591950059E0,1.012950063E0,1.247205067E1
4.121181762E1,-1.591950059E0,1.012950063E0,1.247205067E1
4.123181762E1,-4.620000124E-1,9.559500217E-1,1.055700016E1
4.125181762E1,-4.620000124E-1,9.559500217E-1,1.055700016E1
4.127181762E1,3.979500234E-1,8.790000677E-1,1.101705074E1
4.129181762E1,3.979500234E-1,8.790000677E-1,1.101705074E1
4.131181762E1,2.449500114E-1,1.243050098E0,9.964050293E0
4.133181762E1,2.449500114E-1,1.243050098E0,9.964050293E0
4.135181762E1,2.830500007E-1,1.684050083E0,8.164050102E0
4.137181762E1,2.830500007E-1,1.933050036E0,7.780950546E0
4.139181762E1,2.830500007E-1,1.933050036E0,7.780950546E0
4.141181762E1,3.979500234E-1,2.430000067E0,7.876050472E0
4.143181762E1,3.979500234E-1,2.430000067E0,7.876050472E0
4.145181762E1,2.449500114E-1,2.430000067E0,7.837950230E0
4.147181762E1,2.449500114E-1,2.430000067E0,7.837950230E0
4.149181762E1,1.110000089E-1,2.812950134E0,8.049000740E0
4.151181762E1,-2.205000073E-2,2.986050129E0,8.451000214E0
4.153181762E1,-2.205000073E-2,2.986050129E0,8.451000214E0
4.155181762E1,8.580000401E-1,2.833050251E0,1.048095036E1
4.157181762E1,8.580000401E-1,2.833050251E0,1.048095036E1
4.159181762E1,1.110000089E-1,2.986050129E0,1.042305088E1
4.161181762E1,1.110000089E-1,2.986050129E0,1.042305088E1
4.163181762E1,1.110000089E-1,2.986050129E0,1.042305088E1
4.165181762E1,-1.783950090E0,3.522000074E0,1.099800014E1
4.167181762E1,-1.783950090E0,3.522000074E0,1.099800014E1
4.169181762E1,-1.534950018E0,2.506950140E0,1.208895016E1
4.171181762E1,-1.534950018E0,2.506950140E0,1.208895016E1
4.173181762E1,-1.228050113E0,1.741050124E0,1.266405106E1
4.175181762E1,-1.534950018E0,1.702950120E0,1.327605057E1
4.177181762E1,-1.534950018E0,1.702950120E0,1.327605057E1
4.179181762E1,-1.554000020E0,1.186050057E0,1.406205082E1
4.181181762E1,-1.554000020E0,1.186050057E0,1.406205082E1
4.183181762E1,-7.879500389E-1,1.779000044E0,1.161000061E1
4.185181762E1,-7.879500389E-1,1.779000044E0,1.161000061E1
