"Time (s)","Acceleration x (m/s^2)","Acceleration y (m/s^2)","Acceleration z (m/s^2)"
1.620299100E-2,-4.534398913E-1,6.086144447E0,7.091129780E0
3.575372100E-2,2.871387079E-2,5.745167255E0,7.067201614E0
5.530439800E-2,-1.634297848E0,5.516652584E0,7.086344242E0
7.485512700E-2,-2.955136061E0,5.158925533E0,7.220342159E0
9.440580400E-2,-3.448057413E0,5.023731232E0,7.093522549E0
1.139565330E-1,-3.655036688E0,5.204389095E0,7.003791809E0
1.335072100E-1,-2.827120066E0,5.114658356E0,7.920242786E0
1.530579390E-1,-2.383251429E0,4.663611412E0,9.528220177E0
1.726086160E-1,-3.823730469E0,4.551148891E0,1.069711399E1
1.921592940E-1,-4.886143684E0,4.823930264E0,1.004387283E1
2.117100230E-1,-4.542773724E0,5.060820103E0,8.886942863E0
2.312607000E-1,-4.049852371E0,5.295316696E0,7.405786037E0
2.508114290E-1,-2.916850805E0,5.710471153E0,6.379265308E0
2.703621060E-1,-9.367900491E-1,5.094319344E0,7.799405575E0
2.899127830E-1,-2.333002090E0,4.722235680E0,1.058584690E1
3.094635120E-1,-4.432703972E0,4.417150497E0,1.323709488E1
3.290141890E-1,-3.509074450E0,3.166900873E0,1.257188988E1
3.485648660E-1,-2.956332445E0,2.713460922E0,9.918250084E0
3.681155960E-1,-3.546163082E0,3.223132133E0,7.667799950E0
3.876662730E-1,-1.372283816E0,3.410968781E0,7.428517818E0
4.072170020E-1,6.352944374E-1,3.592823267E0,8.593822479E0
4.267676790E-1,8.614161611E-2,3.543770313E0,9.181260109E0
4.463183560E-1,-1.080359459E0,2.723032236E0,1.002114105E1
4.658690850E-1,-1.231107235E0,1.545763373E0,9.244669914E0
4.854197620E-1,-1.631905079E0,1.391426325E0,9.714859962E0
5.049704390E-1,-2.656033039E0,1.848455548E0,1.107757282E1
5.245211690E-1,-2.036292076E0,2.194218397E0,1.221655560E1
5.440718460E-1,2.560320199E-1,1.651047587E0,1.050688457E1
5.636225230E-1,1.359123230E0,1.458425403E0,9.004191399E0
5.831732000E-1,5.204389095E-1,1.934597135E0,8.471788406E0
6.027239290E-1,-1.082752228E0,2.796013355E0,1.050090218E1
6.222746060E-1,-7.286145091E-1,3.416950703E0,1.259342575E1
6.418252830E-1,1.117448211E0,2.542374134E0,1.142094231E1
6.613760120E-1,1.301695466E0,1.281356573E0,1.168056393E1
6.809266890E-1,-3.625126183E-1,2.282752752E0,1.213520050E1
7.004773660E-1,-7.453642488E-1,2.543570518E0,1.069591713E1
7.200280440E-1,6.580262184E-1,8.841479421E-1,1.253480148E1
7.395787210E-1,2.763710260E0,6.329016089E-1,1.547916985E1
7.591294500E-1,2.483749866E0,2.622533560E0,1.211605740E1
7.786801270E-1,2.361716032E0,1.454836130E0,8.159524918E0
7.982308040E-1,2.511267424E0,2.237289101E-1,7.009773731E0
8.177814810E-1,9.690931439E-2,1.367498159E0,6.729813576E0
8.373321580E-1,-2.397608280E0,2.776870728E0,9.153742790E0
8.568846870E-1,-2.600998163E0,3.337987661E0,9.060422897E0
8.764353640E-1,3.661018610E-1,1.542174220E0,9.529416084E0
8.959860410E-1,1.673779488E0,1.520638824E0,9.859625816E0
9.155367190E-1,7.800601721E-1,2.508874655E0,7.116254330E0
9.350873960E-1,-6.233302951E-1,3.966103554E0,4.649254322E0
9.546380730E-1,-8.051848412E-1,4.109673023E0,5.073980331E0
9.741888020E-1,-5.491527915E-1,4.512863636E0,6.421139717E0
9.937394790E-1,2.297109663E-1,4.576273441E0,7.585247993E0
1.013290156E0,9.487541914E-1,3.981656790E0,8.464610100E0
1.032840833E0,4.055834413E-1,3.601198196E0,8.285148621E0
1.052391510E0,-4.474578202E-1,3.337987661E0,8.459824562E0
1.071942187E0,-1.621137381E0,3.766302824E0,8.715856552E0
1.091492864E0,-2.056631088E0,3.361915827E0,8.124829292E0
1.111043541E0,-1.633101463E0,3.255435228E0,9.168100357E0
1.130594219E0,-1.171286702E0,2.395215511E0,1.042792130E1
1.150144948E0,-1.414158225E0,2.910868645E0,1.090409279E1
1.169695625E0,-1.617548108E0,3.589233875E0,1.146281719E1
1.189246302E0,-1.410568953E0,2.915654421E0,1.067677498E1
1.208796979E0,-2.213361025E0,2.245664120E0,1.053081226E1
1.228347656E0,-2.968296528E0,3.209971666E0,1.115055370E1
1.247898333E0,-1.010967612E0,2.941975355E0,1.117208862E1
1.267449010E0,-8.410771489E-1,2.105684042E0,1.079880905E1
1.286999687E0,-7.573283911E-1,1.659422517E0,1.188634682E1
1.306550364E0,-2.201396823E-1,1.642672777E0,1.257428265E1
1.326101041E0,-7.668996453E-1,2.407179594E0,1.202871990E1
1.345651719E0,-1.779063582E0,1.940579176E0,1.003789139E1
1.365202396E0,-2.012363911E0,1.046859860E0,1.003430176E1
1.384753073E0,-2.053041935E0,1.213161111E0,1.021496010E1
1.404303750E0,-1.051645517E0,2.778067112E0,1.015035343E1
1.423854427E0,9.930214286E-2,2.432304144E0,8.758927345E0
1.443405104E0,1.194018483E0,1.272981644E0,7.567301750E0
1.462955781E0,7.298108935E-1,1.129412293E0,6.727420807E0
1.482506458E0,-4.582255483E-1,1.634297848E0,7.073183537E0
1.502057135E0,-2.069791555E0,2.556730986E0,7.205985546E0
1.521607812E0,-1.977667928E0,2.391626120E0,7.046862602E0
1.541158437E0,-5.599204898E-1,2.708675146E0,7.128218651E0
1.560709114E0,-2.715853751E-1,3.625126362E0,5.942574978E0
1.580259791E0,-8.327022791E-1,4.057030678E0,4.859822750E0
1.599810469E0,-1.633101463E0,4.402793884E0,4.889732838E0
1.619361146E0,-2.005185366E0,4.847858906E0,5.730810165E0
1.638911823E0,-1.377069473E0,4.821537495E0,6.904489517E0
1.658462500E0,-4.223332107E-1,4.506881237E0,8.924032211E0
1.678013177E0,-1.375873089E-1,4.336990833E0,1.040279675E1
1.697563854E0,-6.137589812E-1,4.386044025E0,9.475577354E0
1.717114531E0,-6.771687865E-1,4.936393261E0,8.483752251E0
1.736665156E0,-2.620140910E-1,5.209175110E0,8.628518105E0
1.756215833E0,-4.534398913E-1,4.771288395E0,1.019103146E1
1.775766510E0,-3.326023519E-1,4.780859470E0,1.099621677E1
1.795317187E0,1.026520967E0,3.997210264E0,9.914660454E0
1.814867864E0,2.075773716E0,3.292523861E0,9.655039787E0
1.834418541E0,1.915454507E0,3.211168051E0,1.125464153E1
1.853969166E0,1.527817249E0,3.406183004E0,1.139462185E1
1.873519844E0,1.244267821E0,4.057030678E0,9.719645500E0
1.893070521E0,1.117448211E0,4.862215519E0,8.713463783E0
1.912621198E0,1.244267821E0,5.176871777E0,9.597611427E0
1.932171875E0,1.621137381E0,4.694717884E0,1.096989536E1
1.951722500E0,2.404786825E0,4.092923164E0,1.104646587E1
1.971273177E0,2.657229662E0,3.675375462E0,1.035374355E1
1.990823854E0,2.017149448E0,3.440878868E0,9.716055870E0
2.010374531E0,1.222732425E0,3.410968781E0,8.804390907E0
2.029925208E0,8.638089895E-1,3.433700562E0,7.174878597E0
2.049475833E0,5.228317380E-1,3.934996843E0,6.660421848E0
2.069026510E0,2.069791555E-1,4.063013077E0,8.447860718E0
2.088577187E0,5.563312769E-1,3.451646566E0,9.025727272E0
2.108127812E0,9.056833982E-1,3.528217077E0,8.274380684E0
2.127678489E0,8.063812256E-1,3.915854216E0,7.111468792E0
2.147229166E0,5.108676553E-1,4.311866283E0,5.940182209E0
2.166779844E0,3.314059377E-1,4.697110653E0,5.322834015E0
2.186330469E0,1.507478207E-1,4.894518852E0,5.541777134E0
2.205881146E0,-2.021935135E-1,4.772484779E0,6.579065800E0
2.225431823E0,5.024927482E-2,4.727021217E0,7.895118237E0
2.244982448E0,7.345965505E-1,5.093122959E0,8.177471161E0
2.264533125E0,1.036092162E0,5.274977684E0,7.972885132E0
2.284083802E0,4.953143001E-1,5.163711071E0,8.374878883E0
2.303634427E0,1.363908947E-1,4.957928658E0,8.959924698E0
2.323185104E0,-8.015955985E-2,5.075176716E0,9.225527763E0
2.342735781E0,-1.890329868E-1,5.239085197E0,8.997013092E0
2.362286406E0,-2.919243574E-1,5.095515728E0,9.489934921E0
2.381837083E0,-5.264210105E-1,4.602594376E0,1.080479050E1
2.401387760E0,-1.095912814E0,4.510470867E0,1.107159042E1
2.420938385E0,-1.325623751E0,4.807180882E0,1.041835022E1
2.440489062E0,-7.286145091E-1,4.851448059E0,9.647860527E0
2.460039739E0,1.914258152E-1,4.497310162E0,1.028195858E1
2.479590364E0,6.460621357E-1,3.924229145E0,1.147119141E1
2.499141041E0,5.814558864E-1,3.090330362E0,1.150828075E1
2.518691666E0,-2.536391914E-1,2.589034081E0,1.048534870E1
2.538242344E0,-1.308874011E0,2.861815929E0,9.589237213E0
2.557793021E0,-1.479960799E0,3.387040377E0,9.506684303E0
2.577343646E0,-9.786644578E-1,3.736392498E0,9.305686951E0
2.596894323E0,-4.354937077E-1,3.912265062E0,8.605786324E0
2.616444948E0,-9.212367237E-2,3.858426571E0,7.856832981E0
2.635995625E0,-2.380858511E-1,3.815355778E0,7.654639721E0
2.655546250E0,-4.438686073E-1,3.507878065E0,8.294719696E0
2.675096927E0,-4.414757788E-1,3.239881754E0,8.397610664E0
2.694647552E0,-3.888336718E-1,3.218346357E0,7.773084164E0
2.714198229E0,-1.304088384E-1,3.454039574E0,7.325626373E0
2.733748854E0,1.124626622E-1,3.818944931E0,7.178467751E0
2.753299531E0,-1.986042857E-1,4.046263218E0,7.670193195E0
2.772850208E0,-5.407779217E-1,4.047459602E0,7.926225185E0
2.792400833E0,-6.352944374E-1,3.973282099E0,7.592426300E0
2.811951458E0,-4.965106845E-1,3.979264021E0,6.972685337E0
2.831502135E0,-6.568298340E-1,4.375276089E0,6.825526714E0
2.851052812E0,-1.179661512E0,4.990231514E0,7.262216568E0
2.870603437E0,-9.571290612E-1,5.034498692E0,7.325626373E0
2.890154062E0,-5.766702294E-1,5.039284706E0,7.087540627E0
2.909704739E0,-5.228317380E-1,5.437689304E0,6.799205780E0
2.929255364E0,-8.518448472E-1,5.559723377E0,7.166503906E0
2.948806041E0,-1.103091240E0,5.598008633E0,8.245666504E0
2.968356666E0,-1.308874011E0,5.742774487E0,8.836693764E0
2.987907344E0,-7.250252366E-1,5.227120876E0,8.801998138E0
3.007457969E0,-9.320043921E-1,5.230710506E0,9.171689034E0
3.027008646E0,-1.040877819E0,5.324030399E0,1.053559780E1
3.046559271E0,5.204389095E-1,4.338187218E0,1.166022491E1
3.066109948E0,1.770688772E0,3.358326674E0,1.209332561E1
3.085660573E0,1.762313843E0,2.982653379E0,1.213400364E1
3.105211198E0,1.250249863E0,3.043670416E0,1.188514996E1
3.124761875E0,1.305284739E0,2.971885681E0,1.183250809E1
3.144312500E0,1.561316729E0,3.041277647E0,1.159083271E1
3.163863177E0,1.506281853E0,3.582055569E0,1.131805134E1
3.183413802E0,1.392622828E0,3.787838221E0,1.070668507E1
3.202964427E0,1.603191137E0,3.580859184E0,9.739984512E0
3.222515104E0,1.657029629E0,3.208775282E0,9.059226990E0
3.242065729E0,8.793623447E-1,3.121437073E0,9.343972206E0
3.261616406E0,2.021935135E-1,3.170490026E0,9.335597992E0
3.281167031E0,3.110669367E-2,3.066402197E0,8.851051331E0
3.300717656E0,1.591227055E-1,2.957528830E0,8.188239098E0
3.320268333E0,-8.255238086E-2,3.066402197E0,7.540980339E0
3.339818958E0,-2.799602449E-1,3.286541939E0,7.503891945E0
3.359369583E0,1.339980662E-1,3.492324591E0,7.268198967E0
3.378920260E0,7.034898400E-1,3.574877024E0,6.628118515E0
3.398470885E0,7.932206988E-1,3.796213150E0,6.172286034E0
3.418021510E0,4.366901219E-1,4.409972191E0,6.330212116E0
3.437572187E0,2.225325108E-1,4.886143684E0,6.482156754E0
3.457122812E0,3.613162339E-1,4.948357105E0,6.351747513E0
3.476673437E0,5.144568682E-1,4.881358147E0,6.246463299E0
3.496224114E0,6.305087805E-1,4.955535889E0,6.388836384E0
3.515774739E0,8.374879360E-1,4.979464054E0,6.836294174E0
3.535325364E0,6.879364848E-1,4.935196877E0,7.811369419E0
3.554876041E0,4.618147612E-1,4.826323509E0,8.701499939E0
3.574426666E0,4.319044948E-1,4.809573650E0,8.959924698E0
3.593977291E0,2.835494876E-1,5.259424210E0,9.186046600E0
3.613527916E0,-8.733802289E-2,5.669793129E0,9.701699257E0
3.633078594E0,-1.004985496E-1,5.605186939E0,1.044945621E1
3.652629219E0,-4.785645287E-3,5.003392220E0,1.096989536E1
3.672179844E0,-5.814558864E-1,5.003392220E0,1.068395329E1
3.691730521E0,-5.862415433E-1,5.192425251E0,1.035135078E1
3.711281146E0,5.144568682E-1,4.608576298E0,1.131685448E1
3.730831771E0,1.063609719E0,3.856033802E0,1.284945774E1
3.750382396E0,6.675975323E-1,2.997010469E0,1.235534000E1
3.769933073E0,-2.512463629E-1,2.691925526E0,1.075095177E1
3.789483698E0,-9.966106415E-1,3.102294445E0,9.397810936E0
3.809034323E0,-1.444068432E0,4.193421841E0,8.888139725E0
3.828584948E0,-4.510470629E-1,4.411168575E0,8.819944382E0
3.848135573E0,8.410771489E-1,3.877569199E0,8.508877754E0
3.867686250E0,8.829515576E-1,3.682554007E0,8.137989998E0
3.887236875E0,-2.632104978E-2,3.579662561E0,8.335397720E0
3.906787500E0,-8.051848412E-1,3.384647608E0,8.928817749E0
3.926338125E0,-6.999006271E-1,3.012563705E0,9.024530411E0
3.945888750E0,-3.828516304E-1,2.876172781E0,8.531609535E0
3.965439427E0,-8.614161611E-2,3.211168051E0,7.781459332E0
3.984990052E0,-8.255238086E-2,3.528217077E0,7.030112743E0
4.004540677E0,-2.596212626E-1,3.786641836E0,6.345765591E0
4.024091302E0,-7.274180651E-1,3.865604877E0,5.984449387E0
4.043641979E0,-1.289731383E0,4.077369690E0,5.962913990E0
4.063192604E0,-1.148554921E0,4.396811485E0,6.252445698E0
4.082743229E0,-6.460621357E-1,4.711467743E0,6.404389858E0
4.102293854E0,-8.985049129E-1,4.899304390E0,6.605386734E0
4.121844479E0,-1.432104349E0,4.888536453E0,7.148557663E0
4.141395104E0,-1.282552958E0,4.758127689E0,7.612765312E0
4.160945729E0,-7.238288522E-1,4.721039295E0,8.020741463E0
4.180496406E0,-9.092725813E-2,4.963910580E0,8.364111900E0
4.200047031E0,-3.780659735E-1,5.382654667E0,9.024530411E0
4.219597656E0,-9.918249846E-1,5.489135265E0,9.670592308E0
4.239148281E0,-8.901300430E-1,5.369493961E0,9.622735977E0
4.258698906E0,-3.888336718E-1,5.331208706E0,9.257830620E0
4.278249531E0,-1.698904037E-1,5.503491879E0,9.580862045E0
4.297800156E0,-3.206382394E-1,5.509474277E0,1.106201935E1
4.317350781E0,1.950150430E-1,4.817948341E0,1.206820107E1
4.336901406E0,7.154539824E-1,4.216153622E0,1.229551888E1
4.356452083E0,8.482556343E-1,3.767499208E0,1.171884918E1
4.376002708E0,4.773681164E-1,3.471985579E0,1.120080280E1
4.395553333E0,1.004985496E-1,3.285345554E0,1.098425198E1
4.415103958E0,2.428714931E-1,2.969492912E0,1.073659515E1
4.434654583E0,2.775674164E-1,3.012563705E0,1.021017456E1
4.454205208E0,8.494520187E-2,3.276970625E0,9.695717812E0
4.473755833E0,-2.703889608E-1,3.069991350E0,9.628718376E0
4.493306458E0,-2.644068897E-1,2.587837696E0,9.047262192E0
4.512857083E0,3.086741269E-1,2.455035925E0,8.664410591E0
4.532407708E0,5.838487148E-1,2.964707375E0,8.167900085E0
4.551958333E0,1.603191197E-1,3.653840065E0,7.551748276E0
4.571508958E0,9.571290761E-2,3.862015724E0,7.031309128E0
4.591059583E0,8.015955985E-2,3.866801500E0,7.037291527E0
4.610610208E0,-1.962114573E-1,3.921836376E0,7.182057381E0
4.630160833E0,-1.292124242E-1,3.835694790E0,7.161718369E0
4.649711510E0,8.015955985E-2,4.067798615E0,7.229913712E0
4.669262135E0,-5.264209956E-2,4.333401680E0,7.253841877E0
4.688812760E0,2.632104978E-2,4.229313850E0,7.243073940E0
4.708363333E0,3.002992272E-1,4.198207378E0,7.344769001E0
4.727914010E0,3.134597540E-1,4.431507587E0,7.386643410E0
4.747464635E0,1.531406492E-1,4.884947300E0,7.580461979E0
4.767015208E0,5.503492355E-1,5.084748268E0,8.053044319E0
4.786565833E0,7.429714203E-1,5.102694511E0,8.203792572E0
4.806116510E0,2.309073806E-1,5.284548759E0,8.525627136E0
4.825667135E0,-1.579262912E-1,5.320441246E0,8.580661774E0
4.845217708E0,-3.756731451E-1,5.234299660E0,8.660821915E0
4.864768385E0,-3.876372576E-1,5.222335339E0,9.053244591E0
4.884318958E0,-1.818545163E-1,5.070391178E0,9.728020668E0
4.903869583E0,1.076770201E-2,4.918447018E0,9.818947792E0
4.923420208E0,-7.405785918E-1,4.876572609E0,9.471988678E0
4.942970833E0,-2.342573404E0,4.609772682E0,1.011206818E1
4.962521458E0,-3.042474031E0,4.375276089E0,1.086939716E1
4.982072083E0,-1.786242127E0,4.006781578E0,1.144965649E1
5.001622708E0,4.510470629E-1,3.384647608E0,1.149990559E1
5.021173333E0,1.286142230E0,2.997010469E0,1.097468090E1
5.040723958E0,6.520441771E-1,2.098505497E0,1.044347477E1
5.060274583E0,-4.761717021E-1,1.825723648E0,9.949356079E0
5.079825208E0,-8.997012973E-1,2.494517565E0,9.890732765E0
5.099375833E0,4.642075896E-1,2.940778971E0,1.015274620E1
5.118926458E0,1.791027784E0,3.333201885E0,9.558130264E0
5.138477083E0,1.173679471E0,3.681357622E0,9.433703423E0
5.158027708E0,8.685946465E-1,2.785245657E0,8.514859200E0
5.177578333E0,3.840480447E-1,2.152343988E0,7.934599876E0
5.197128906E0,-4.642075896E-1,1.869990945E0,7.574480057E0
5.216679531E0,1.088734269E-1,1.874776483E0,7.575676441E0
5.236230156E0,3.780659735E-1,2.194218397E0,7.450053215E0
5.255780781E0,2.991028428E-1,2.005185366E0,1.141854954E1
5.275331406E0,-9.631111026E-1,2.420340061E0,1.248215961E1
5.294882031E0,-2.457428932E0,2.989831924E0,7.982456207E0
5.314432656E0,-2.575873613E0,2.836691141E0,8.276773453E0
5.333983281E0,-3.011367321E0,3.037688255E0,6.540780544E0
5.353533906E0,-1.820937991E0,3.470789194E0,6.311069489E0
5.373084479E0,-1.089930773E0,3.699303865E0,7.368697166E0
5.392635104E0,-2.142772675E0,4.505684853E0,9.376275063E0
5.412185729E0,-2.742174864E0,4.232903481E0,8.378468513E0
5.431736354E0,-3.753142357E0,4.189832687E0,7.885547161E0
5.451286979E0,-3.145365477E0,4.585844517E0,8.191828728E0
5.470837604E0,-1.418943882E0,5.429314613E0,8.193024635E0
5.490388229E0,-4.594219327E-1,6.118447304E0,7.508677483E0
5.509938802E0,-8.913264275E-1,5.857629776E0,8.310273170E0
5.529489427E0,-1.747956991E0,5.152943611E0,1.009890842E1
5.549040052E0,-1.779063582E0,4.663611412E0,1.101775169E1
5.568590677E0,-6.460621357E-1,4.098905087E0,1.007258701E1
5.588141302E0,-3.086741269E-1,4.772484779E0,9.796216011E0
5.607691927E0,-4.414757788E-1,5.854040623E0,9.741181374E0
5.627242552E0,-9.810572863E-2,5.410171986E0,1.006660461E1
5.646793125E0,2.392822690E-2,3.750749588E0,1.092323494E1
5.666343750E0,4.055834413E-1,2.707478762E0,1.198205948E1
5.685894375E0,7.405785918E-1,2.583052158E0,1.134197903E1
5.705445000E0,1.093519926E0,2.461018085E0,9.878767967E0
5.724995625E0,1.135394335E0,1.472782373E0,8.955139160E0
5.744546250E0,7.597211599E-1,5.599204898E-1,9.187242508E0
5.764096823E0,-4.426721856E-2,6.951149702E-1,1.005942631E1
5.783647448E0,-2.153540403E-1,1.418943882E0,9.521040916E0
5.803198073E0,-4.043870270E-1,2.376072884E0,8.323433876E0
5.822748698E0,-4.857429862E-1,3.052045345E0,7.347161770E0
5.842299323E0,-5.958128572E-1,3.464807272E0,7.432106972E0
5.861849896E0,-4.366901219E-1,3.418147087E0,7.940581799E0
5.881400521E0,2.991028316E-2,3.474378586E0,8.173882484E0
5.900951146E0,8.614161611E-2,3.623929977E0,7.835297585E0
5.920501771E0,9.332008660E-2,4.186243057E0,7.304090977E0
5.940052344E0,3.649054468E-1,3.967299938E0,7.170093060E0
5.959602969E0,1.316052526E-1,3.394218922E0,7.849654675E0
5.979153594E0,5.982056633E-2,2.969492912E0,8.218149185E0
5.998704219E0,4.366901219E-1,3.414557934E0,7.517052174E0
6.018254844E0,5.395814776E-1,4.009174347E0,7.331608772E0
6.037805416E0,8.123632669E-1,4.302295208E0,6.985845566E0
6.057356041E0,7.585247755E-1,4.177868366E0,7.075576782E0
6.076906666E0,6.927221417E-1,3.834498405E0,7.536194801E0
6.096457239E0,8.374879360E-1,3.774677753E0,7.946564198E0
6.116007864E0,9.762716293E-1,4.315455437E0,8.338987350E0
6.135558489E0,1.001396298E0,4.456632137E0,8.277970314E0
6.155109114E0,1.086341500E0,4.455435753E0,8.356932640E0
6.174659687E0,1.038485050E0,4.715056896E0,8.980263710E0
6.194210312E0,1.052842021E0,5.120640278E0,9.390632629E0
6.213760937E0,1.270588875E0,5.380261898E0,9.120243073E0
6.233311510E0,1.284945726E0,5.566901684E0,9.000602722E0
6.252862135E0,1.430907965E0,5.432903767E0,9.500701904E0
6.272412760E0,1.646261930E0,4.810770035E0,1.052722359E1
6.291963385E0,1.987239242E0,4.436293125E0,1.128215885E1
6.311513958E0,1.639083505E0,4.896911621E0,1.201316643E1
6.331064583E0,-1.112662554E-1,5.063212872E0,1.275374508E1
6.350615208E0,-1.144965649E0,4.055834293E0,1.322513103E1
6.370165781E0,-1.866401672E0,2.374876499E0,1.350509071E1
6.389716406E0,-1.631905079E0,1.380658627E0,1.269272804E1
6.409267031E0,-1.306481123E0,1.655833244E0,1.165663528E1
6.428817656E0,-7.274180651E-1,1.958525300E0,1.051525879E1
6.448368229E0,4.785645306E-1,1.719243050E0,9.188439369E0
6.467918854E0,1.051645517E0,1.838884234E0,8.530412674E0
6.487469479E0,4.546363056E-1,2.167897224E0,8.516056061E0
6.507020052E0,-2.775674164E-1,2.465803623E0,8.415556908E0
6.526570677E0,-3.984049559E-1,2.376072884E0,8.248059273E0
6.546121302E0,-5.312066078E-1,2.697907448E0,7.990831375E0
6.565671875E0,-1.926222295E-1,3.369094372E0,7.374679565E0
6.585222500E0,2.249253243E-1,3.841676712E0,6.827919483E0
6.604773125E0,2.201396823E-1,4.177868366E0,6.704689026E0
6.624323698E0,3.349951804E-1,3.852444410E0,6.233303070E0
6.643874323E0,4.271188378E-1,3.122633457E0,6.138786316E0
6.663424948E0,3.457628787E-1,3.038884640E0,6.240481377E0
6.682975521E0,6.089733839E-1,3.245863914E0,5.717649937E0
6.702526146E0,8.494520187E-1,3.142972469E0,6.204588890E0
6.722076771E0,6.616154313E-1,2.910868645E0,6.988238335E0
6.741627344E0,-2.428714931E-1,2.801995277E0,8.213363647E0
6.761177969E0,-1.320838094E0,4.291527271E0,9.381061554E0
6.780728541E0,-1.777867198E0,5.670989513E0,8.823533058E0
6.800279166E0,-1.384247899E0,5.498706341E0,8.021938324E0
6.819829791E0,-1.167697430E0,5.288137913E0,8.182256699E0
6.839380364E0,-8.638089895E-1,4.844269276E0,8.396414757E0
6.858930989E0,-5.814558864E-1,4.630111694E0,9.078369141E0
6.878481562E0,-7.920243144E-1,5.030909538E0,1.006780148E1
6.898032187E0,-1.003789067E0,5.375475883E0,1.022453117E1
6.917582812E0,-1.074377418E0,5.298905849E0,1.033938694E1
6.937133385E0,-4.618147612E-1,4.583451748E0,1.054038334E1
6.956684010E0,1.004985496E-1,3.846462488E0,1.140538883E1
6.976234583E0,-9.451649338E-2,4.177868366E0,1.205264759E1
6.995785208E0,-9.451649338E-2,4.167100430E0,1.179661560E1
7.015335833E0,-3.577269912E-1,3.873979807E0,1.237926769E1
7.034886406E0,-6.711867452E-1,3.262613773E0,1.257906818E1
7.054437031E0,-1.926222295E-1,2.127219439E0,1.185643578E1
7.073987604E0,-2.321037948E-1,1.848455548E0,1.146281719E1
7.093538229E0,-3.230310604E-2,2.291127682E0,1.068754196E1
7.113088854E0,2.392822690E-2,3.037688255E0,9.734002113E0
7.132639427E0,1.028913707E-1,3.713660717E0,9.022137642E0
7.152190052E0,1.124626622E-1,3.962514400E0,8.662017822E0
7.171740625E0,-3.110669367E-2,3.958925009E0,8.773283958E0
7.191291250E0,-1.986042857E-1,3.836891174E0,8.768498421E0
7.210841823E0,-1.519442350E-1,3.695714474E0,8.992227554E0
7.230392448E0,1.100698411E-1,3.493520975E0,8.799605370E0
7.249943073E0,2.979064286E-1,3.522234917E0,8.082955360E0
7.269493646E0,3.457628787E-1,3.439682484E0,6.996613503E0
7.289044271E0,2.165504545E-1,3.481556892E0,6.037091732E0
7.308594844E0,-1.280160099E-1,3.517449379E0,5.541777134E0
7.328145469E0,-4.271188378E-1,3.680161238E0,5.450850010E0
7.347696041E0,-6.221339107E-1,4.054637909E0,5.980860233E0
7.367246666E0,-5.587241054E-1,4.042674065E0,6.587440968E0
7.386797239E0,-4.247260094E-1,3.923032761E0,7.112665176E0
7.406347864E0,-1.363908947E-1,4.041477680E0,6.754938126E0
7.425898437E0,1.292124242E-1,4.415954113E0,6.717849731E0
7.445449062E0,5.383850932E-1,4.637290478E0,7.227520943E0
7.464999687E0,9.463613629E-1,4.554738045E0,7.927421570E0
7.484550260E0,1.429711580E0,4.466203690E0,8.574680328E0
7.504100833E0,1.502692580E0,4.813162804E0,9.163313866E0
7.523651458E0,1.399801254E0,4.954339504E0,9.987641335E0
7.543202083E0,1.159322619E0,5.528616905E0,1.062532902E1
7.562752656E0,1.599601984E0,5.921039581E0,1.033699417E1
7.582303281E0,2.245664120E0,6.169893265E0,9.902696609E0
7.601853854E0,2.696711063E0,6.193821430E0,9.365508080E0
7.621404479E0,2.965903759E0,5.887540340E0,9.577272415E0
7.640955052E0,2.553141832E0,6.118447304E0,1.067079258E1
7.660505677E0,1.735992789E0,6.300302029E0,1.158724403E1
7.680056250E0,8.865407705E-1,5.563312531E0,1.148674488E1
7.699606823E0,1.674975902E-1,3.972085476E0,1.113500023E1
7.719157448E0,2.428714931E-1,3.014956474E0,1.097109222E1
7.738708073E0,6.819544733E-2,2.748156786E0,1.018385315E1
7.758258646E0,-6.161518097E-1,3.064009428E0,9.510273933E0
7.777809219E0,-1.933400750E0,3.649054527E0,1.007258701E1
7.797359844E0,-1.714457393E0,3.373879910E0,9.565308571E0
7.816910416E0,-1.828116536E0,2.488535643E0,8.178668022E0
7.836461041E0,-1.073180914E0,2.667997360E0,8.445467949E0
7.856011614E0,9.056833982E-1,3.421736479E0,8.957531929E0
7.875562239E0,4.713860750E-1,2.987439156E0,8.038687706E0
7.895112812E0,-1.100698411E-1,3.087937593E0,7.670193195E0
7.914663437E0,-8.769695163E-1,3.273381472E0,7.517052174E0
7.934214010E0,-3.012563705E0,2.222932339E0,8.482556343E0
7.953764583E0,-2.604587555E0,2.344966173E0,7.983652592E0
7.973315208E0,-1.018146038E0,2.885744095E0,7.996813297E0
7.992865781E0,-3.696911037E-1,3.701696634E0,7.911868095E0
8.012416406E0,-1.056431174E0,3.911068678E0,7.006184578E0
8.031966979E0,-1.184447169E0,3.164507866E0,6.947560310E0
8.051517604E0,-1.022931695E0,3.194418192E0,7.140182972E0
8.071068177E0,-5.742774159E-2,4.380061626E0,6.409175396E0
8.090618750E0,7.298108935E-1,5.799005508E0,4.831109047E0
8.110169375E0,5.335994363E-1,5.320441246E0,5.693721294E0
8.129719948E0,-1.265803218E0,4.269991875E0,7.630711555E0
8.149270573E0,-1.566102386E0,3.960121393E0,9.418149948E0
8.168821146E0,-2.185843468E0,4.764110088E0,9.010173798E0
8.188371719E0,-2.065006018E0,5.697310925E0,7.746763229E0
8.207922344E0,-1.919043779E0,6.177071571E0,7.816154957E0
8.227472916E0,-1.141376376E0,5.990431309E0,7.965706348E0
8.247023541E0,-1.568495274E0,6.196214199E0,9.515059471E0
8.266574114E0,-1.064806104E0,5.740381718E0,8.651249886E0
8.286124687E0,7.417750359E-2,5.075176716E0,7.836493969E0
8.305675312E0,-4.654040039E-1,3.275774240E0,8.598608017E0
8.325225885E0,-3.864408493E0,2.371287346E0,1.032144070E1
8.344776510E0,-3.748356581E0,1.887937069E0,1.235773277E1
8.364327083E0,-4.881358147E-1,3.035295486E0,1.303131199E1
8.383877656E0,-4.821537733E-1,2.419143677E0,1.282792187E1
8.403428281E0,-8.255238086E-2,2.325823545E0,1.254676533E1
8.422978854E0,-1.155733347E0,2.368894339E0,1.286261845E1
8.442529479E0,-3.696911097E0,2.365305185E0,1.335195065E1
8.462080052E0,-1.983649969E0,3.504288673E0,1.010249710E1
8.481630625E0,-4.797609448E-1,2.721835852E0,8.334200859E0
8.501181250E0,-8.973085135E-2,1.948953986E0,6.977470875E0
8.520731823E0,-6.161518097E-1,2.074577332E0,7.237092018E0
8.540282396E0,-8.769695163E-1,1.569691658E0,7.075576782E0
8.559833021E0,-5.551348329E-1,7.668996453E-1,6.098108292E0
8.579383594E0,-1.525424480E0,8.027920127E-1,6.867401123E0
8.598934166E0,-1.347159147E0,6.448656917E-1,7.377072334E0
8.618484791E0,-1.469193101E0,-3.469592705E-2,6.905686378E0
8.638035364E0,-1.936989903E0,-1.663011760E-1,7.597211838E0
8.657585937E0,-1.052842021E0,-2.811566591E-1,7.758727551E0
8.677136562E0,-6.699903309E-2,-5.599204898E-1,6.887740135E0
8.696687135E0,6.053841114E-1,-8.003991842E-1,7.080362320E0
8.716237708E0,1.030110121E0,-8.087740541E-1,7.209574699E0
8.735788333E0,2.189432681E-1,-8.087740541E-1,7.034898758E0
8.755338906E0,2.859423161E-1,-6.879364848E-1,8.287541389E0
8.774889479E0,1.043270707E0,-9.559326172E-1,8.737391472E0
8.794440104E0,1.249053478E0,-1.119840980E0,9.001798630E0
8.813990677E0,7.298108935E-1,-8.733802438E-1,9.614361763E0
8.833541250E0,-1.567298770E-1,-8.075776696E-1,1.009771156E1
8.853091875E0,3.098705411E-1,-1.066002488E0,1.077248764E1
8.872642448E0,5.814558864E-1,-1.173679471E0,1.120439243E1
8.892193021E0,1.502692580E0,-9.403793216E-1,1.129531956E1
8.911743646E0,2.068595171E0,-1.142572761E0,1.162193966E1
8.931294219E0,3.487539053E0,-1.546959877E0,1.315334606E1
8.950844791E0,2.868994236E0,-2.114058733E0,1.620778465E1
8.970395416E0,1.275374413E0,-2.855833769E0,1.747358704E1
8.989945989E0,2.404786795E-1,-3.708875179E0,1.701895142E1
9.009496562E0,6.065805554E-1,-5.111069202E0,1.604626846E1
9.029047135E0,6.675975323E-1,-7.698906898E0,1.594218063E1
9.048597760E0,4.247260094E-1,-9.333204269E0,1.682154274E1
9.068148333E0,7.896314561E-2,-9.571290970E0,1.528176212E1
9.087698906E0,-1.771885157E0,-9.044869423E0,1.271545982E1
9.107249531E0,-3.202793121E0,-7.551748276E0,1.055832958E1
9.126800104E0,-3.093919754E0,-5.968895912E0,9.821340561E0
9.146350677E0,-3.686143398E0,-6.118447304E0,7.880761147E0
9.165901250E0,-2.902493954E0,-5.301298618E0,5.723631859E0
9.185451875E0,-1.746760488E0,-4.503292084E0,5.081159115E0
9.205002448E0,-8.901300430E-1,-3.985246181E0,6.281159401E0
9.224553021E0,-6.412764788E-1,-3.509074450E0,6.731009960E0
9.244103646E0,-6.807580590E-1,-2.943171740E0,6.774080753E0
9.263654219E0,-5.108676553E-1,-2.349751949E0,7.152146816E0
9.283204791E0,-3.672982752E-1,-1.493121386E0,7.087540627E0
9.302755364E0,5.862415433E-1,-9.631111026E-1,6.827919483E0
9.322305989E0,2.257628202E0,-2.148754835E0,7.062416077E0
9.341856562E0,3.745963812E0,-2.066202402E0,7.525427341E0
9.361407135E0,2.922832966E0,-1.715653777E0,8.685946465E0
9.380957708E0,3.328416348E0,-1.435693622E0,9.421739578E0
9.400508333E0,1.935793519E0,-7.920243144E-1,8.854640007E0
9.420058906E0,1.383051515E0,4.079762697E-1,8.054241180E0
9.439609479E0,2.269592285E0,1.042074203E0,8.173882484E0
9.459160052E0,2.059023857E0,1.127019525E0,8.478966713E0
9.478710677E0,3.513859987E0,1.414158225E0,9.588040352E0
9.498261250E0,3.924229145E0,1.426122308E0,1.015992451E1
9.517811823E0,3.972085476E0,1.651047587E0,1.167817116E1
9.537362396E0,3.588037491E0,2.481357098E0,1.111107159E1
9.556912969E0,3.388236761E0,3.050848961E0,1.093639565E1
9.576463594E0,4.244867325E0,3.211168051E0,9.710074425E0
9.596014166E0,5.218746185E0,3.153740168E0,1.028913784E1
9.615564739E0,5.644668579E0,3.415754318E0,1.184207916E1
9.635115312E0,4.738985062E0,3.739981890E0,1.432223988E1
9.654665885E0,3.613162279E0,3.970889091E0,1.493599892E1
9.674216510E0,2.132004976E0,4.439882278E0,1.386880016E1
9.693767083E0,1.406979680E0,5.065605640E0,1.158365440E1
9.713317656E0,2.303091764E0,5.419743061E0,8.749356270E0
9.732868229E0,2.933600664E0,5.133800983E0,6.841079712E0
9.752418802E0,1.417747378E0,4.616951466E0,6.486942291E0
9.771969427E0,-8.817551732E-1,5.112265587E0,6.437889099E0
9.791520000E0,-2.335394859E0,5.844469070E0,5.578866005E0
9.811070573E0,-1.890329838E0,5.437689304E0,4.387240410E0
9.830621146E0,-1.051645517E0,4.400400639E0,2.230110645E0
9.850171719E0,5.503492355E-1,3.305684566E0,1.111466169E0
9.869722344E0,9.678967595E-1,2.566302299E0,2.824727058E0
9.889272916E0,-2.428714931E-1,3.192025423E0,6.332605362E0
9.908823489E0,-4.510470629E-1,4.085744858E0,5.460421085E0
9.928374062E0,1.412961721E0,4.042674065E0,3.048455954E0
9.947924635E0,2.697907448E0,4.820341110E0,1.570888042E0
9.967475208E0,1.982453585E0,6.143572330E0,1.451246977E0
9.987025833E0,1.124626637E0,6.662814617E0,3.829712629E0
1.000657641E1,1.660618901E0,6.620940208E0,4.931607246E0
1.002612698E1,2.897708178E0,6.814758778E0,4.993820667E0
1.004567755E1,3.177668571E0,7.654639721E0,4.853840828E0
1.006522812E1,2.787638426E0,8.347361565E0,5.077569485E0
1.008477870E1,2.578266382E0,8.659625053E0,5.234299660E0
1.010432932E1,2.785245657E0,8.135597229E0,5.229514122E0
1.012387990E1,3.074777126E0,7.456035137E0,5.901896954E0
1.014343047E1,3.255435228E0,7.359126091E0,7.152146816E0
1.016298104E1,2.992224693E0,7.684549809E0,7.018148899E0
1.018253161E1,2.520838737E0,8.183453560E0,5.437689304E0
1.020208219E1,2.617748022E0,8.880961418E0,4.013959885E0
1.022163276E1,2.548356056E0,9.491130829E0,5.022534847E0
1.024118333E1,2.585444927E0,8.864211082E0,7.456035137E0
1.026073396E1,2.488535643E0,7.476374149E0,8.976674080E0
1.028028453E1,1.277767301E0,6.166304111E0,1.035613632E1
1.029983510E1,-3.661018610E-1,5.697310925E0,1.250130177E1
1.031938568E1,-1.116251707E0,5.800201893E0,1.323470211E1
1.033893625E1,-1.067198873E0,5.886343479E0,1.158245754E1
1.035848682E1,-9.092726111E-1,6.232106686E0,8.971888542E0
1.037803740E1,-5.790630579E-1,6.823133945E0,7.105486870E0
1.039758802E1,2.679961324E-1,6.780063152E0,6.218945980E0
1.041713859E1,1.384247899E0,6.254838467E0,5.631507874E0
1.043668917E1,1.707278967E0,5.607579708E0,5.562116146E0
1.045623974E1,1.483550072E0,5.436492920E0,6.137589931E0
1.047579031E1,1.171286702E0,5.406582832E0,6.524031162E0
1.049534089E1,6.436693072E-1,5.498706341E0,6.580262184E0
1.051489146E1,2.261217386E-1,5.675775528E0,6.455835342E0
1.053444203E1,1.363908947E-1,5.702096462E0,6.340980053E0
1.055399260E1,2.213360965E-1,5.625525951E0,6.204588890E0
1.057354323E1,3.469592929E-1,5.575276852E0,6.003592014E0
1.059309380E1,4.989035130E-1,5.423332691E0,5.759523869E0
1.061264438E1,5.694918036E-1,5.602794170E0,5.484349728E0
1.063219495E1,5.252245665E-1,6.101697922E0,4.912465096E0
1.065174552E1,5.994020700E-1,6.526423931E0,4.290330887E0
1.067129609E1,7.130611539E-1,6.585047722E0,3.749552965E0
1.069084667E1,5.718846321E-1,6.422336102E0,4.340580463E0
1.071039724E1,2.991028428E-1,6.620940208E0,5.385047436E0
1.072994781E1,8.135596663E-2,6.912864685E0,6.017949104E0
1.074949838E1,-6.101697683E-2,7.015756130E0,6.250052929E0
1.076904896E1,-1.148554832E-1,6.574280262E0,6.067001820E0
1.078859958E1,2.117647976E-1,5.673382282E0,5.691328526E0
1.080815016E1,1.049252748E0,4.748556614E0,5.693721294E0
1.082770073E1,1.221535921E0,4.010370731E0,5.693721294E0
1.084725130E1,7.872386575E-1,3.068794966E0,5.609972477E0
1.086680188E1,-5.431707501E-1,2.707478762E0,6.485745907E0
1.088635245E1,-1.762313843E0,2.971885681E0,8.026723862E0
1.090590302E1,-3.527020693E0,3.180061340E0,9.878767967E0
1.092545359E1,-4.871787071E0,3.468396425E0,1.163629627E1
1.094500417E1,-7.012166977E0,3.463610888E0,1.183849049E1
1.096455474E1,-5.810969830E0,2.864208698E0,1.221296692E1
1.098410531E1,-3.847658873E0,1.560120344E0,1.352184105E1
1.100365588E1,-1.993221283E0,5.898307562E-1,1.412004662E1
1.102320646E1,-8.255238086E-2,1.160518974E-1,1.417627811E1
1.104275703E1,9.499505758E-1,-7.764709592E-1,1.429831123E1
1.106230760E1,7.585247755E-1,-8.027920127E-1,1.280519009E1
1.108185818E1,8.243274093E-1,-7.357929349E-1,1.227996540E1
1.110140880E1,6.364908218E-1,-7.118647099E-1,1.189950657E1
1.112095938E1,1.627119333E-1,-7.824530005E-1,1.133839035E1
1.114050995E1,1.854437590E-1,-8.159525394E-1,1.049731255E1
1.116006052E1,6.568298340E-1,-7.633104324E-1,9.477970123E0
1.117961109E1,1.367498159E0,-6.699903607E-1,8.475378036E0
1.119916167E1,1.617548108E0,-1.257428288E0,7.715656757E0
1.121871224E1,2.226521492E0,-1.447657704E0,7.763513088E0
1.123826281E1,2.780459881E0,-1.546959877E0,8.140382767E0
1.125781338E1,3.280559778E0,-1.682154298E0,8.154739380E0
1.127736396E1,3.802195072E0,-1.673779488E0,8.110472679E0
1.129691453E1,4.003192425E0,-1.414158225E0,8.091329575E0
1.131646510E1,3.515056372E0,-1.123430252E0,8.079365730E0
1.133601568E1,2.890529871E0,-8.566305041E-1,8.220541954E0
1.135556625E1,2.005185366E0,-8.673982024E-1,8.683553696E0
1.137511682E1,1.637887120E0,-7.525427341E-1,9.382257462E0
1.139466740E1,2.261217356E0,-6.855437160E-1,9.796216011E0
1.141421797E1,3.355933666E0,-3.529413342E-1,9.605986595E0
1.143376854E1,2.828316450E0,-4.271188378E-1,8.610571861E0
1.145331911E1,1.232303619E0,-5.910272002E-1,8.036294937E0
1.147286969E1,4.175475538E-1,-5.814558864E-1,9.184849739E0
1.149242026E1,1.268195957E-1,-1.155733347E0,1.155972576E1
1.151197083E1,-6.412764788E-1,-2.001596212E0,1.365224934E1
1.153152141E1,-1.295713425E0,-3.460021496E0,1.507358646E1
1.155107198E1,-3.972085714E-1,-5.466403484E0,1.619223022E1
1.157062255E1,1.371087432E0,-6.564708710E0,1.609292793E1
1.159017313E1,2.863012314E0,-6.884150982E0,1.438086414E1
1.160972370E1,3.286541939E0,-6.563512325E0,1.216630650E1
1.162927427E1,2.677568436E0,-5.819344521E0,9.872786522E0
1.164882484E1,2.073380709E0,-4.660022259E0,8.287541389E0
1.166837542E1,1.661815286E0,-3.420539856E0,7.247859955E0
1.168792599E1,9.403793216E-1,-2.426322222E0,6.193821430E0
1.170747656E1,5.000999570E-1,-1.761117458E0,5.174479008E0
1.172702714E1,8.853443861E-1,-1.301695466E0,4.563112736E0
1.174657771E1,1.761117458E0,-7.764709592E-1,4.408775806E0
1.176612828E1,2.246860504E0,-3.469592929E-1,4.540380955E0
1.178567885E1,2.291127682E0,-2.153540403E-1,4.291527271E0
1.180522943E1,2.579462767E0,4.055834413E-1,4.338187218E0
1.182478000E1,2.593819857E0,1.146162033E0,4.886143684E0
1.184433057E1,1.878365755E0,1.825723648E0,6.053841114E0
1.186388115E1,9.320043921E-1,2.251646042E0,8.149953842E0
1.188343172E1,2.153540403E-1,2.569891453E0,9.859625816E0
1.190298229E1,3.182454109E-1,2.492124796E0,1.005823040E1
1.192253286E1,5.168496966E-1,2.213361025E0,9.480362892E0
1.194208344E1,7.621139884E-1,1.828116536E0,9.381061554E0
1.196163401E1,1.406979680E0,1.144965649E0,9.973284721E0
1.198118458E1,2.383251429E0,7.262216806E-1,1.064686394E1
1.200073516E1,3.110669374E0,1.052841991E-1,1.143649578E1
1.202028573E1,2.927618504E0,1.674975827E-2,1.311506081E1
1.203983625E1,2.066202402E0,-4.067798555E-1,1.403151226E1
1.205938682E1,1.819741607E0,-1.701296926E0,1.425404453E1
1.207893740E1,2.062613010E0,-2.989831924E0,1.557966805E1
1.209848797E1,2.260020971E0,-4.070191383E0,1.662174225E1
1.211803854E1,2.496910334E0,-4.820341110E0,1.573520184E1
1.213758911E1,2.846262455E0,-5.178068161E0,1.393340588E1
1.215713969E1,2.780459881E0,-4.942375183E0,1.244746304E1
1.217669026E1,2.327019930E0,-4.063013077E0,1.095075321E1
1.219624083E1,2.151147604E0,-3.399004459E0,9.381061554E0
1.221579141E1,2.498106956E0,-2.827120066E0,8.218149185E0
1.223534198E1,2.696711063E0,-2.408375978E0,7.293323517E0
1.225489255E1,2.640479803E0,-1.926222205E0,6.486942291E0
1.227444313E1,2.193022013E0,-1.393819213E0,5.577669621E0
1.229399370E1,2.005185366E0,-8.614161611E-1,4.868197441E0
1.231354422E1,2.050648928E0,-3.948157430E-1,5.059623718E0
1.233309479E1,1.117448211E0,3.541377485E-1,5.157729149E0
1.235264536E1,8.362914920E-1,9.379864931E-1,4.622933388E0
1.237219594E1,8.410771489E-1,1.251446247E0,4.179064751E0
1.239174651E1,1.197607756E0,1.512263894E0,4.461417675E0
1.241129708E1,1.341177106E0,1.757528186E0,5.373083115E0
1.243084766E1,6.269195080E-1,2.219342947E0,6.661618233E0
1.245039823E1,4.426721931E-1,2.602194548E0,7.703692436E0
1.246994880E1,1.099501967E0,2.392822742E0,7.777870178E0
1.248949938E1,1.623530149E0,1.810170293E0,7.591229916E0
1.250904995E1,1.946561217E0,1.123430252E0,7.817351341E0
1.252860047E1,2.280359983E0,3.948157430E-1,8.801998138E0
1.254815104E1,2.604587555E0,-6.939185411E-2,1.005823040E1
1.256770161E1,2.621337175E0,9.571290761E-2,1.138983536E1
1.258725219E1,2.285145521E0,6.209374666E-1,1.182772255E1
1.260680276E1,1.896311998E0,5.814558864E-1,1.194616699E1
1.262635333E1,1.601994753E0,3.230310678E-1,1.239242840E1
1.264590391E1,1.197607756E0,-4.725824594E-1,1.371565914E1
1.266545448E1,4.235295951E-1,-1.592423439E0,1.539542103E1
1.268500505E1,2.536391914E-1,-2.648854733E0,1.724387550E1
1.270455557E1,-1.710868180E-1,-3.670589924E0,1.743769455E1
1.272410615E1,-4.893322289E-1,-4.213760853E0,1.546959877E1
1.274365672E1,-7.046862841E-1,-4.326223373E0,1.323709488E1
1.276320729E1,-6.544370055E-1,-3.919443607E0,1.167817116E1
1.278275786E1,-2.476571500E-1,-3.102294445E0,1.004626560E1
1.280230844E1,1.579262912E-1,-2.220539331E0,8.081758499E0
1.282185901E1,3.050848842E-1,-1.552941918E0,6.206982136E0
1.284140958E1,2.344966233E-1,-8.817551732E-1,5.337191105E0
1.286096016E1,3.732803464E-1,-1.232303679E-1,5.443671703E0
1.288051068E1,5.599204898E-1,5.192425251E-1,5.651846886E0
1.290006125E1,5.850451589E-1,7.645068169E-1,5.736792088E0
1.291961182E1,5.850451589E-1,5.599204898E-1,5.933003902E0
1.293916240E1,6.125625968E-1,6.867401004E-1,6.497709751E0
1.295871297E1,5.874379873E-1,1.095912814E0,6.951149940E0
1.297826354E1,5.132604837E-1,1.195214868E0,7.089933395E0
1.299781406E1,4.438686073E-1,1.274178028E0,7.288537979E0
1.301736464E1,7.680960894E-1,1.525424480E0,7.328019142E0
1.303691521E1,1.630708575E0,2.029113531E0,7.389036179E0
1.305646578E1,1.586441398E0,2.600998163E0,7.390232563E0
1.307601635E1,1.998006850E-1,1.525424480E0,7.730013371E0
1.309556693E1,-5.144568533E-2,3.182454109E-1,9.619147301E0
1.311511750E1,7.022934556E-1,-3.960121572E-1,1.281595802E1
1.313466802E1,1.703689694E0,-7.154539824E-1,1.481157207E1
1.315421859E1,1.369890928E0,-8.063812256E-1,1.425404453E1
1.317376917E1,-3.086741269E-1,-3.960121572E-1,1.298824120E1
1.319331974E1,-6.879364848E-1,-2.105683982E-1,1.291884899E1
1.321287031E1,-4.019941986E-1,-1.146162033E0,1.382812214E1
1.323242089E1,-1.435693540E-2,-2.612962246E0,1.444546986E1
1.325197141E1,6.137589812E-1,-3.512663603E0,1.481875038E1
1.327152198E1,1.234696507E0,-3.842873096E0,1.385803223E1
1.329107255E1,1.671386600E0,-3.592823267E0,1.156570816E1
1.331062313E1,1.801795483E0,-3.162115097E0,9.403793335E0
1.333017370E1,1.745564103E0,-2.690729141E0,8.348558426E0
1.334972427E1,1.545763373E0,-2.413161755E0,8.195417404E0
1.336927479E1,1.768295884E0,-2.226521492E0,8.694320679E0
1.338882536E1,1.838884234E0,-1.885544300E0,9.107083321E0
1.340837594E1,1.549352646E0,-1.745564103E0,9.131011009E0
1.342792651E1,1.438086390E0,-1.856830359E0,8.998209953E0
1.344747708E1,1.651047587E0,-1.975275040E0,9.164510727E0
1.346702760E1,2.134397745E0,-1.688136339E0,9.312865257E0
1.348657818E1,2.111665964E0,-1.165304661E0,8.821140289E0
1.350612875E1,2.035095692E0,-6.855437160E-1,7.718049526E0
1.352567932E1,2.104487419E0,-2.380858511E-1,6.689135551E0
1.354522990E1,2.236092806E0,1.722832322E-1,5.973681927E0
1.356478042E1,2.155933142E0,4.151547253E-1,5.776273727E0
1.358433099E1,2.023131609E0,7.226324677E-1,6.496513367E0
1.360388156E1,1.725225091E0,9.894321561E-1,7.436892986E0
1.362343214E1,1.647458434E0,1.122233868E0,7.482356548E0
1.364298266E1,1.686939955E0,1.081555843E0,8.060222626E0
1.366253323E1,1.361516118E0,1.045663476E0,1.137667561E1
1.368208380E1,1.855633974E0,1.305284739E0,1.274417305E1
1.370163438E1,2.059023857E0,1.191625714E0,8.854640007E0
1.372118495E1,1.987239242E0,1.050449133E0,6.494120598E0
1.374073547E1,2.021935225E0,1.771885157E0,7.170093060E0
1.376028604E1,1.981257200E0,2.563909531E0,9.783055305E0
1.377983661E1,1.316052437E0,2.896511793E0,1.346201992E1
1.379938719E1,6.149554253E-1,2.153540373E0,1.431266880E1
1.381893771E1,6.101697683E-1,8.733802438E-1,1.469073486E1
1.383848828E1,7.106683254E-1,3.756731451E-1,1.542413521E1
1.385803885E1,1.020538807E0,5.335994363E-1,1.548754501E1
1.387758943E1,2.742174864E0,3.481557071E-1,1.350150204E1
1.389714000E1,3.464807272E0,-1.986042857E-1,1.141615677E1
1.391669052E1,2.645265341E0,1.040877849E-1,1.067198944E1
1.393624109E1,1.692921996E0,6.747759581E-1,1.033101177E1
1.395579167E1,1.245464206E0,9.020941257E-1,9.416953087E0
1.397534224E1,9.906286001E-1,5.168496966E-1,8.767302513E0
1.399489276E1,1.557727575E0,2.775674164E-1,7.264609337E0
1.401444333E1,2.057827473E0,1.435693651E-1,7.129415035E0
1.403399391E1,2.024327993E0,5.922235847E-1,8.581858635E0
1.405354448E1,1.411765337E0,1.262213945E0,9.762716293E0
1.407309500E1,9.284151793E-1,1.198804140E0,8.628518105E0
1.409264557E1,2.069791555E-1,1.685743570E0,6.758527756E0
1.411219615E1,-2.452643216E-1,2.751745939E0,5.709274769E0
1.413174672E1,-2.321037948E-1,3.323630571E0,5.893522263E0
1.415129724E1,7.417750359E-2,3.783052683E0,6.937989235E0
1.417084781E1,6.807580590E-1,3.787838221E0,7.703692436E0
1.419039839E1,4.486542344E-1,3.647858143E0,7.533802032E0
1.420994896E1,3.194418252E-1,3.672982693E0,7.085147858E0
1.422949948E1,-9.882357717E-1,4.280759811E0,7.623532772E0
1.424905005E1,-1.227517962E0,4.977071285E0,7.881958008E0
1.426860063E1,-1.064806059E-1,5.596812248E0,7.836493969E0
1.428815115E1,-1.890329868E-1,6.288337708E0,7.575676441E0
1.430770172E1,-1.262213945E0,6.868597507E0,8.334200859E0
1.432725229E1,-1.525424480E0,7.473981380E0,9.146564484E0
1.434680286E1,-1.464407444E0,6.699903488E0,1.079043388E1
1.436635338E1,-6.939185858E-1,5.840879917E0,1.104168034E1
1.438590396E1,-9.451649338E-2,5.355136871E0,1.048654556E1
1.440545453E1,-3.984049559E-1,4.859822750E0,1.036929703E1
1.442500510E1,-1.434497118E0,4.587040901E0,1.059661484E1
1.444455563E1,-1.507478237E0,4.645665169E0,1.069472122E1
1.446410620E1,-7.034898400E-1,4.208974838E0,9.560523033E0
1.448365677E1,-2.512463629E-1,3.409772158E0,8.946763992E0
1.450320729E1,1.100698411E-1,2.921636343E0,9.020941734E0
1.452275786E1,6.029912829E-1,2.560320139E0,8.513663292E0
1.454230844E1,9.990034699E-1,2.366501570E0,7.707281590E0
1.456185901E1,1.379462242E0,2.286342144E0,6.989434719E0
1.458140953E1,1.429711580E0,2.681157827E0,6.698707104E0
1.460096010E1,1.173679471E0,3.305684566E0,6.714260101E0
1.462051068E1,1.195214868E0,3.737588882E0,6.638886452E0
1.464006120E1,1.278963685E0,3.873979807E0,6.214160442E0
1.465961177E1,1.042074203E0,4.048655987E0,6.186643124E0
1.467916234E1,7.920243144E-1,4.389633179E0,7.002595425E0
1.469871292E1,6.508477330E-1,4.692325115E0,7.853243828E0
1.471826344E1,7.369893789E-1,4.784449100E0,7.671389580E0
1.473781401E1,1.060020447E0,4.709074974E0,7.086344242E0
1.475736453E1,1.143769264E0,4.805984497E0,7.088737011E0
1.477691510E1,8.662018180E-1,5.175675392E0,8.030312538E0
1.479646568E1,8.901300430E-1,5.337191105E0,8.445467949E0
1.481601625E1,1.075573802E0,5.132604599E0,8.309076309E0
1.483556677E1,1.271785259E0,5.379065514E0,8.471788406E0
1.485511734E1,1.417747378E0,5.972485542E0,8.852247238E0
1.487466792E1,1.420140266E0,6.445067883E0,9.233902931E0
1.489421844E1,1.373480201E0,6.625725746E0,9.613164902E0
1.491376901E1,1.135394335E0,6.303891182E0,9.996016502E0
1.493331958E1,9.595218897E-1,5.661418438E0,1.010369396E1
1.495287010E1,7.286145091E-1,4.716253281E0,1.087777138E1
1.497242068E1,-1.208375469E-1,3.885943890E0,1.175952721E1
1.499197125E1,-1.804188251E0,3.506681681E0,1.225125217E1
1.501152177E1,-3.396611691E0,3.035295486E0,1.261855030E1
1.503107234E1,-3.424129248E0,2.888136864E0,1.243789196E1
1.505062292E1,-2.821137905E0,2.410768747E0,1.109671497E1
1.507017344E1,-1.787438512E0,1.826920033E0,9.548559189E0
1.508972401E1,-1.075573802E0,1.525424480E0,8.577073097E0
1.510927458E1,-5.694918036E-1,1.986042738E0,8.151150703E0
1.512882510E1,-6.424728632E-1,2.677568436E0,8.292326927E0
1.514837568E1,-7.968099117E-1,3.358326674E0,8.031509399E0
1.516792625E1,-6.508477330E-1,4.021138668E0,7.275377274E0
1.518747677E1,-3.290131092E-1,4.329812527E0,6.820741177E0
1.520702734E1,0.000000000E0,4.243670940E0,7.034898758E0
1.522657792E1,-1.268195957E-1,4.217350006E0,7.631907940E0
1.524612844E1,-4.857429862E-1,4.011567116E0,8.237292290E0
1.526567901E1,-9.188438654E-1,4.156332970E0,8.409575462E0
1.528522958E1,-6.879364848E-1,4.321437836E0,7.684549809E0
1.530478016E1,-2.440679073E-1,4.187439442E0,7.061219692E0
1.532433068E1,2.273181528E-1,3.917050600E0,7.270591736E0
1.534388125E1,6.747759581E-1,3.774677753E0,8.081758499E0
1.536343177E1,7.226324677E-1,4.319045067E0,7.533802032E0
1.538298234E1,6.963114142E-1,4.755734921E0,7.081558704E0
1.540253292E1,3.385843933E-1,5.054837704E0,6.746563435E0
1.542208344E1,-1.070788145E0,5.605186939E0,7.424928665E0
1.544163401E1,-2.689532757E0,6.357729912E0,8.571090698E0
1.546118458E1,-3.421736479E0,6.801598549E0,9.059226990E0
1.548073510E1,-3.165704250E0,6.654439926E0,9.192028046E0
1.550028568E1,-2.969492912E0,6.275177479E0,1.021735287E1
1.551983620E1,-3.099901676E0,6.053841114E0,1.110748291E1
1.553938677E1,-2.468196630E0,5.663811207E0,1.076171970E1
1.555893734E1,-1.680957913E0,5.413761139E0,1.055713367E1
1.557848786E1,-1.284945726E0,5.205585480E0,1.092921734E1
1.559803844E1,-1.412961721E0,5.076373100E0,1.105603695E1
1.561758901E1,-1.773081541E0,4.509274483E0,1.057627583E1
1.563713953E1,-1.597209096E0,3.723232031E0,9.750752449E0
1.565669010E1,-7.956135273E-1,3.266202927E0,9.048459053E0
1.567624068E1,-2.512463741E-2,2.861815929E0,8.650053978E0
1.569579120E1,9.296116233E-1,2.304288149E0,8.191828728E0
1.571534177E1,1.385444283E0,2.023131609E0,7.923832417E0
1.573489229E1,1.201196909E0,2.123630047E0,8.134400368E0
1.575444286E1,6.532405615E-1,2.566302299E0,8.439485550E0
1.577399344E1,1.032503009E0,2.403590441E0,8.072187424E0
1.579354396E1,1.850848317E0,2.238485575E0,7.526623726E0
1.581309453E1,1.755135417E0,2.885744095E0,7.428517818E0
1.583264510E1,6.675975323E-1,3.762713671E0,7.606783390E0
1.585219562E1,-3.122633696E-1,4.284348965E0,7.301698208E0
1.587174620E1,-9.762716293E-1,4.064209461E0,7.293323517E0
1.589129672E1,-1.119840980E0,3.999603033E0,7.152146816E0
1.591084729E1,-8.865407705E-1,4.094119549E0,6.884150982E0
1.593039786E1,-7.178467698E-3,3.744767427E0,6.418746948E0
1.594994838E1,5.515456200E-1,3.548556089E0,6.668796539E0
1.596949896E1,7.800601721E-1,4.120440483E0,7.335197926E0
1.598904948E1,1.232303619E0,4.524827480E0,7.933403492E0
1.600860005E1,1.506281853E0,5.069194794E0,8.470592499E0
1.602815063E1,8.877372146E-1,5.557330608E0,8.898907661E0
1.604770115E1,4.199403822E-1,5.837290764E0,9.208778381E0
1.606725172E1,5.335994363E-1,5.846862316E0,9.705288887E0
1.608680224E1,6.891329288E-1,6.021538258E0,1.005224800E1
1.610635281E1,1.411765367E-1,6.539584160E0,1.046500969E1
1.612590338E1,-2.273181453E-2,6.399604321E0,1.002114105E1
1.614545391E1,8.446664214E-1,5.498706341E0,9.419346809E0
1.616500448E1,1.722832322E-1,4.610969067E0,8.793622971E0
1.618455500E1,-6.735795736E-1,4.219742775E0,1.018505001E1
1.620410557E1,-2.187039852E0,3.419343472E0,1.193779182E1
1.622365609E1,-3.195614576E0,2.909672260E0,1.321914864E1
1.624320667E1,-3.375076294E0,1.709671736E0,1.297627735E1
1.626275724E1,-2.505285263E0,1.298106313E0,1.159442234E1
1.628230776E1,-1.843669891E0,1.357926846E0,9.914660454E0
1.630185833E1,-1.670190215E0,1.858026743E0,8.800801277E0
1.632140885E1,-1.732403636E0,2.669193745E0,8.863015175E0
1.634095943E1,-1.923829436E0,3.050848961E0,9.102297783E0
1.636051000E1,-1.990828395E0,2.945564747E0,9.062815666E0
1.638006052E1,-1.892722726E0,2.910868645E0,8.956335068E0
1.639961109E1,-1.609173179E0,3.266202927E0,8.682356834E0
1.641916167E1,-1.507478237E0,3.718446493E0,7.724031448E0
1.643871219E1,-1.159322619E0,3.933800459E0,6.465406895E0
1.645826276E1,-4.630111754E-1,3.719642878E0,5.570491314E0
1.647781328E1,1.064806059E-1,3.265006542E0,5.458028316E0
1.649736385E1,1.351944804E-1,3.507878065E0,6.405586243E0
1.651691438E1,-2.404786795E-1,3.912265062E0,6.984649181E0
1.653646495E1,-8.147560954E-1,4.187439442E0,7.322037220E0
1.655601552E1,-7.920243144E-1,4.146761417E0,7.200003147E0
1.657556604E1,-1.411765367E-1,3.777070522E0,7.105486870E0
1.659511661E1,3.828516230E-2,3.443271875E0,7.718049526E0
1.661466714E1,-3.373879790E-1,3.437289715E0,8.837890625E0
1.663421771E1,-6.568298340E-1,3.815355778E0,9.903892517E0
1.665376823E1,-6.412764788E-1,4.304687977E0,1.016590691E1
1.667331880E1,-2.919243574E-1,3.623929977E0,1.002473068E1
1.669286938E1,4.175475538E-1,2.868994236E0,1.024128056E1
1.671241990E1,6.963114142E-1,2.689532757E0,1.082034397E1
1.673197047E1,-2.691925466E-1,2.781656265E0,1.128933716E1
1.675152099E1,-1.599601984E0,3.294916868E0,1.138744259E1
1.677107156E1,-2.468196630E0,3.320041418E0,1.130010509E1
1.679062208E1,-2.306680918E0,2.617748022E0,1.177029419E1
1.681017266E1,-7.932206988E-1,2.248056889E0,1.199880886E1
1.682972323E1,5.407779217E-1,1.607976794E0,1.141854954E1
1.684927375E1,1.220339537E0,1.389033556E0,1.072941685E1
1.686882432E1,1.256231904E0,1.853241086E0,1.035135078E1
1.688837484E1,7.429714203E-1,1.919043779E0,1.018146038E1
1.690792542E1,1.651047617E-1,1.841277003E0,1.039681435E1
1.692747594E1,-3.098705411E-1,1.647458434E0,1.058824062E1
1.694702651E1,-2.548356056E-1,1.194018483E0,1.035733318E1
1.696657703E1,1.160518974E-1,7.525427341E-1,9.793823242E0
1.698612760E1,3.661018610E-1,6.293123364E-1,9.304491043E0
1.700567818E1,3.361915946E-1,9.008977413E-1,8.849854469E0
1.702522870E1,3.337987661E-1,1.138983607E0,8.062616348E0
1.704477927E1,5.994020700E-1,1.396211982E0,7.116254330E0
1.706432979E1,8.374879360E-1,1.978864312E0,6.423532486E0
1.708388036E1,6.652047038E-1,2.767299414E0,6.448657036E0
1.710343088E1,-2.871387079E-2,3.415754318E0,6.579065800E0
1.712298146E1,-5.048855543E-1,3.741178274E0,6.498906136E0
1.714253198E1,-8.398807645E-1,3.891926050E0,7.673782349E0
1.716208255E1,-5.060819983E-1,4.019941807E0,9.111868858E0
1.718163312E1,3.050848842E-1,3.875176191E0,9.233902931E0
1.720118365E1,1.117448211E0,3.300898790E0,9.010173798E0
1.722073422E1,1.994417667E0,2.904886723E0,9.516255379E0
1.724028474E1,2.836691141E0,2.806781054E0,1.029272652E1
1.725983531E1,3.276970625E0,2.916850805E0,1.046979523E1
1.727938583E1,3.162115097E0,3.052045345E0,1.035852909E1
1.729893641E1,2.733799934E0,3.058027267E0,1.024008465E1
1.731848698E1,1.645065546E0,3.272184849E0,1.047099209E1
1.733803750E1,4.486542344E-1,3.583251953E0,1.120319557E1
1.735758807E1,-4.450650215E-1,3.050848961E0,1.216869926E1
1.737713859E1,-8.374879360E-1,2.400001049E0,1.350868034E1
1.739668917E1,-1.154536963E0,1.861616015E0,1.407697582E1
1.741623969E1,-1.485942841E0,1.115055323E0,1.339143181E1
1.743579026E1,-1.374676585E0,9.403793216E-1,1.222971630E1
1.745534078E1,-1.556531072E0,9.487541914E-1,1.138504982E1
1.747489135E1,-1.259821177E0,1.349551916E0,1.044467068E1
1.749444188E1,-6.496513486E-1,2.103291035E0,9.031708717E0
1.751399245E1,-5.324030519E-1,2.612962246E0,7.444071293E0
1.753354297E1,-7.369893789E-1,2.825923443E0,6.057430744E0
1.755309354E1,-1.069591761E0,2.819941521E0,5.748756409E0
1.757264406E1,-1.123430252E0,2.878565550E0,6.649653912E0
1.759219464E1,-9.212366939E-1,3.083152056E0,7.782655716E0
1.761174516E1,-8.350951076E-1,3.276970625E0,8.111668587E0
1.763129573E1,-8.482556343E-1,3.544966698E0,7.453642368E0
1.765084630E1,-7.202396393E-1,3.649054527E0,6.720242500E0
1.767039682E1,-3.996013701E-1,3.686143398E0,6.652047157E0
1.768994740E1,4.905286431E-2,3.872783422E0,7.115057945E0
1.770949792E1,1.962114573E-1,4.192225456E0,7.724031448E0
1.772904849E1,-7.178468257E-2,4.517649174E0,7.869993687E0
1.774859901E1,-1.363908947E-1,4.738985062E0,7.787441254E0
1.776814958E1,8.853443712E-2,4.899304390E0,8.059026718E0
1.778770010E1,1.196411345E-2,4.844269276E0,8.892925262E0
1.780725068E1,-7.298108935E-2,4.729413986E0,9.824930191E0
1.782680120E1,1.268195957E-1,5.036891460E0,1.060857964E1
1.784635177E1,-2.679961324E-1,5.369493961E0,1.030947590E1
1.786590229E1,-1.245464206E0,5.618347645E0,9.780662537E0
1.788545286E1,-1.756331801E0,5.879165173E0,9.839286804E0
1.790500338E1,-1.592423439E0,5.294120312E0,1.026042366E1
1.792455396E1,-8.231309652E-1,4.322634220E0,1.030708313E1
1.794410448E1,2.045863420E-1,3.829712629E0,1.009771156E1
1.796365505E1,3.409772217E-1,3.375076294E0,1.018624592E1
1.798320557E1,7.142575383E-1,3.637090445E0,1.026999474E1
1.800275615E1,8.650053740E-1,3.992424488E0,9.628718376E0
1.802230667E1,1.004985452E0,4.072584152E0,8.787641525E0
1.804185724E1,9.427721500E-1,4.451846600E0,8.656036377E0
1.806140776E1,6.604190469E-1,4.459024906E0,9.038887978E0
1.808095833E1,3.242274821E-1,4.486542225E0,9.486345291E0
1.810050885E1,3.445664644E-1,4.253242016E0,9.333204269E0
1.812005943E1,5.778666735E-1,3.793820381E0,8.880961418E0
1.813960995E1,5.599204898E-1,3.371487141E0,8.372486115E0
1.815916052E1,4.187439680E-1,3.248256683E0,8.026723862E0
1.817871109E1,1.435693651E-1,3.273381472E0,7.710870743E0
1.819826161E1,6.460621208E-2,3.263810158E0,6.988238335E0
1.821781214E1,3.086741269E-1,3.320041418E0,6.149554253E0
1.823736271E1,7.968099117E-1,3.601198196E0,5.536991596E0
1.825691323E1,9.320043921E-1,4.018745422E0,5.420939922E0
1.827646380E1,7.920243144E-1,4.460221291E0,5.743970871E0
1.829601432E1,8.997012973E-1,4.577469826E0,6.116054535E0
1.831556490E1,1.258624673E0,5.199603558E0,6.691528320E0
1.833511542E1,1.531406522E0,5.946164131E0,6.786045074E0
1.835466599E1,1.392622828E0,5.954539299E0,7.103094101E0
1.837421651E1,1.202393413E0,5.752345562E0,8.179863930E0
1.839376708E1,1.496710539E0,5.519045353E0,9.403793335E0
1.841331760E1,1.899901152E0,5.437689304E0,9.779465675E0
1.843286818E1,2.123630047E0,5.813362598E0,9.349954605E0
1.845241870E1,2.207378864E0,6.180660725E0,9.077172279E0
1.847196927E1,2.400001049E0,6.273981094E0,9.213563919E0
1.849151979E1,2.179861546E0,6.197410583E0,1.000199890E1
1.851107036E1,1.864008784E0,6.289534092E0,1.034895802E1
1.853062088E1,1.219143152E0,5.680561066E0,1.033579731E1
1.855017146E1,2.919243574E-1,4.500899315E0,1.109432220E1
1.856972198E1,-9.188438654E-1,3.268595695E0,1.230269718E1
1.858927255E1,-1.402194023E0,2.876172781E0,1.323589802E1
1.860882307E1,-1.272981644E0,3.373879910E0,1.238764286E1
1.862837359E1,-1.642672777E0,3.226721287E0,1.088136101E1
1.864792417E1,-1.543370605E0,3.036491871E0,9.595218658E0
1.866747469E1,-7.800601721E-1,3.013760090E0,8.781659126E0
1.868702526E1,-4.785645381E-2,2.963510752E0,8.073383331E0
1.870657578E1,2.213360965E-1,3.190829039E0,7.326822758E0
1.872612635E1,2.392822690E-2,3.841676712E0,6.691528320E0
1.874567688E1,-3.170489967E-1,4.472185612E0,6.447460651E0
1.876522745E1,-8.291130662E-1,4.896911621E0,6.809973240E0
1.878477797E1,-1.055234790E0,5.296513081E0,6.851847649E0
1.880432854E1,-1.037288666E0,5.310869694E0,6.266802311E0
1.882387906E1,-9.320043921E-1,4.904089928E0,5.801398277E0
1.884342964E1,-8.362914920E-1,4.529613495E0,6.021538258E0
1.886298016E1,-9.308080077E-1,4.462614059E0,6.533602238E0
1.888253068E1,-9.104689956E-1,4.510470867E0,6.707081795E0
1.890208125E1,-6.544370055E-1,4.509274483E0,6.471388817E0
1.892163177E1,-6.436693072E-1,4.817948341E0,6.309873104E0
1.894118234E1,-7.764709592E-1,5.440082073E0,6.616154671E0
1.896073286E1,-9.032905698E-1,5.606383324E0,7.019345284E0
1.898028344E1,-2.967100143E-1,5.552545071E0,7.812565804E0
1.899983396E1,9.690931439E-2,5.815755367E0,9.590433121E0
1.901938453E1,2.787638307E-1,6.385247231E0,1.074018478E1
1.903893505E1,-1.316052489E-2,6.644868374E0,1.039681435E1
1.905848557E1,-4.043870270E-1,6.666403770E0,9.594022751E0
1.907803615E1,-9.391828775E-1,6.671189308E0,9.562915802E0
1.909758667E1,-8.985049129E-1,6.253642082E0,1.026161957E1
1.911713724E1,2.344966233E-1,5.460421085E0,1.049252701E1
1.913668776E1,1.440479279E0,5.268995285E0,9.846465111E0
1.915623833E1,1.387837172E0,5.742774487E0,9.065208435E0
1.917578885E1,4.869394004E-1,5.937789440E0,9.243474007E0
1.919533938E1,-5.718846321E-1,5.434100151E0,9.629914284E0
1.921488995E1,-6.460621357E-1,4.721039295E0,9.622735977E0
1.923444047E1,1.471585929E-1,4.590630054E0,9.002995491E0
1.925399104E1,5.527420044E-1,4.112065792E0,8.561519623E0
1.927354156E1,1.531406492E-1,4.055834293E0,9.242277145E0
1.929309214E1,-3.720839322E-1,4.540380955E0,9.602396965E0
1.931264266E1,-7.022934556E-1,4.614558697E0,9.178867340E0
1.933219318E1,-6.460621357E-1,4.442275047E0,8.500502586E0
1.935174375E1,-5.359922647E-1,4.141975880E0,7.741977692E0
1.937129427E1,-3.493520916E-1,4.010370731E0,6.705885410E0
1.939084484E1,-1.076770201E-1,4.065405846E0,6.256034851E0
1.941039536E1,3.110669553E-1,4.445864677E0,6.252445698E0
1.942994589E1,1.280160099E-1,5.015356064E0,5.717649937E0
1.944949646E1,1.507478207E-1,5.000999451E0,5.659025669E0
1.946904698E1,3.672982752E-1,5.370690346E0,5.630311489E0
1.948859755E1,4.713860750E-1,5.666203976E0,5.758327484E0
1.950814807E1,7.381857634E-1,5.531009674E0,5.862415314E0
1.952769859E1,1.055234790E0,5.483152866E0,6.175875187E0
1.954724917E1,9.535398483E-1,5.623133183E0,7.178467751E0
1.956679969E1,4.701896608E-1,6.204588890E0,8.468199730E0
1.958635026E1,3.589234054E-1,6.026323795E0,8.538787842E0
1.960590078E1,7.585247755E-1,5.611168861E0,8.178668022E0
1.962545135E1,9.738788009E-1,5.657829285E0,8.547162056E0
1.964500188E1,1.069591761E0,5.862415314E0,9.049654961E0
1.966455240E1,1.307677627E0,6.223731518E0,9.576076508E0
1.968410297E1,1.292124271E0,6.391229153E0,9.128618240E0
1.970365349E1,1.519442320E0,5.912664890E0,8.622536659E0
1.972320401E1,1.814955950E0,5.347958565E0,9.078369141E0
1.974275458E1,1.987239242E0,5.081159115E0,1.027956581E1
1.976230510E1,1.696511269E0,4.749752998E0,1.091007519E1
1.978185568E1,5.826523304E-1,4.636094093E0,1.028435135E1
1.980140620E1,-1.331605792E0,4.671986103E0,9.973284721E0
1.982095672E1,-2.861815929E0,5.051248550E0,1.036211872E1
1.984050729E1,-4.759324074E0,6.169893265E0,1.134556866E1
1.986005781E1,-3.309273720E0,4.593023300E0,9.458827972E0
1.987960838E1,-1.647458434E0,3.527020693E0,8.742177963E0
1.989915891E1,-2.264806747E0,4.144368649E0,8.944371223E0
1.991870943E1,-3.595216036E0,5.259424210E0,8.670392990E0
1.993826000E1,-1.642672777E0,4.613361835E0,8.468199730E0
1.995781052E1,6.041877270E-1,3.956532240E0,8.044670105E0
1.997736104E1,7.381857634E-1,4.281956196E0,7.816154957E0
1.999691161E1,6.364908218E-1,4.648057938E0,7.866404533E0
2.001646214E1,3.936193287E-1,4.788038254E0,7.487142086E0
2.003601266E1,-1.854437590E-1,4.938786030E0,7.316055298E0
2.005556323E1,2.368894368E-1,4.677968502E0,6.439085960E0
2.007511375E1,8.015955687E-1,4.192225456E0,5.612365723E0
2.009466432E1,-1.507478207E-1,4.619344234E0,5.922235966E0
2.011421484E1,-1.366301775E0,5.127819061E0,6.623332977E0
2.013376536E1,-1.152144074E0,5.156532764E0,5.979663849E0
2.015331594E1,-5.359922647E-1,5.692524910E0,5.583651543E0
2.017286646E1,-1.986042857E-1,5.426921844E0,6.089733601E0
2.019241698E1,2.237289101E-1,4.898108006E0,7.127022266E0
2.021196755E1,3.601198196E-1,4.823930264E0,7.859225750E0
2.023151807E1,1.016949654E0,5.030909538E0,8.304290771E0
2.025106859E1,1.235892892E0,4.908875465E0,8.085348129E0
2.027061917E1,-1.179661512E0,6.991827965E0,7.406982422E0
2.029016969E1,-2.063809633E0,7.645068169E0,7.673782349E0
2.030972026E1,-1.299302697E0,7.009773731E0,8.695517540E0
2.032927078E1,-8.685946465E-1,5.985645771E0,1.082632637E1
2.034882130E1,-5.072783828E-1,5.302495003E0,1.088255692E1
2.036837188E1,-1.794617027E-1,5.215157032E0,1.026042366E1
2.038792240E1,7.082754970E-1,5.312066078E0,1.004985523E1
2.040747292E1,6.987041831E-1,4.929214478E0,9.421739578E0
2.042702349E1,-7.788637877E-1,5.401797295E0,9.615557671E0
2.044657401E1,-1.812563181E0,6.007181168E0,1.027119160E1
2.046612453E1,-1.523031592E0,5.063212872E0,1.008215809E1
2.048567510E1,-7.525427341E-1,3.792623997E0,9.218349457E0
2.050522562E1,-9.164510965E-1,2.858226538E0,9.342776299E0
2.052477615E1,-9.308080077E-1,2.581855536E0,9.808179855E0
2.054432672E1,-4.331009090E-1,2.892922640E0,9.894321442E0
2.056387724E1,-2.033899277E-1,3.340380430E0,9.183652878E0
2.058342776E1,-2.859423161E-1,3.750749588E0,8.027919769E0
2.060297828E1,-4.007977843E-1,3.951746702E0,6.892525673E0
2.062252885E1,-5.922235847E-1,3.945764542E0,6.441478729E0
2.064207938E1,-6.269195080E-1,4.007977962E0,6.923632145E0
2.066162990E1,-4.534398913E-1,4.068994999E0,7.257431030E0
2.068118047E1,-2.249253243E-1,4.033102512E0,6.985845566E0
2.070073099E1,-2.273181453E-2,4.112065792E0,6.620940208E0
2.072028151E1,1.447657645E-1,4.230510235E0,6.595815659E0
2.073983208E1,1.028913707E-1,4.338187218E0,6.973881721E0
2.075938260E1,1.435693651E-1,4.307080746E0,7.702496052E0
2.077893313E1,4.893322289E-1,4.449453831E0,8.216953278E0
2.079848370E1,1.089930773E0,4.837090969E0,8.142775536E0
2.081803422E1,1.246660590E0,4.919643402E0,7.990831375E0
2.083758474E1,1.479960799E0,4.808377266E0,7.928617954E0
2.085713531E1,2.015953064E0,4.704289436E0,8.181060791E0
2.087668583E1,2.231307030E0,4.784449100E0,8.760123253E0
2.089623635E1,2.384447813E0,5.213960648E0,9.180064201E0
2.091578693E1,2.388036966E0,5.501099110E0,8.242077827E0
2.093533745E1,1.974078655E0,5.331208706E0,6.691528320E0
2.095488797E1,1.092323542E0,4.706682205E0,6.805187702E0
2.097443854E1,4.163511395E-1,3.817748547E0,8.392825127E0
2.099398906E1,3.732803464E-1,2.782852650E0,1.007617569E1
2.101353958E1,2.333002090E-1,1.775474429E0,1.163868904E1
2.103309016E1,-1.124626622E-1,8.003991842E-1,1.325025558E1
2.105264068E1,-6.963114142E-1,2.871387303E-1,1.515374565E1
2.107219120E1,-1.710868239E0,-6.699903309E-2,1.654158211E1
2.109174172E1,-1.858026743E0,-1.902294010E-1,1.608575058E1
2.111129229E1,-1.612762451E0,-2.572284341E-1,1.418225956E1
2.113084281E1,-1.405783296E0,-4.905286431E-2,1.308395386E1
2.115039333E1,-7.860422134E-1,5.431707501E-1,1.229671574E1
2.116994391E1,-3.230310678E-1,8.841479421E-1,1.118285656E1
2.118949443E1,8.853443712E-2,1.198804140E0,9.929018021E0
2.120904495E1,5.982056633E-2,1.624726534E0,8.683553696E0
2.122859552E1,-1.028913707E-1,2.130808592E0,7.686942577E0
2.124814604E1,-1.950150430E-1,2.563909531E0,6.933203697E0
2.126769656E1,-1.854437590E-1,2.787638426E0,6.587440968E0
2.128724708E1,-4.307080805E-2,3.022135019E0,6.479763508E0
2.130679766E1,-1.064806059E-1,3.387040377E0,6.343372822E0
2.132634818E1,-2.679961324E-1,3.604787350E0,6.131608009E0
2.134589870E1,-3.278166950E-1,4.042674065E0,6.129215240E0
2.136544927E1,-7.070791125E-1,4.376472473E0,6.256034851E0
2.138499979E1,-7.034898400E-1,4.704289436E0,6.421139717E0
2.140455031E1,-3.613162339E-1,4.756931305E0,6.198606968E0
2.142410088E1,-1.220339537E-1,4.603790760E0,6.149554253E0
2.144365141E1,-2.033899166E-2,4.630111694E0,6.562315941E0
2.146320193E1,-5.742774159E-2,4.632504463E0,7.215556622E0
2.148275250E1,-2.775674164E-1,4.962714195E0,7.926225185E0
2.150230302E1,-3.768695593E-1,5.423332691E0,8.236095428E0
2.152185354E1,-4.247260094E-1,5.746363640E0,8.516056061E0
2.154140406E1,-1.002592683E0,5.840879917E0,9.148957253E0
2.156095464E1,-2.042274237E0,6.026323795E0,1.019462109E1
2.158050516E1,-2.487339020E0,6.112465382E0,1.152263737E1
2.160005568E1,-2.112862349E0,5.361119270E0,1.226560879E1
2.161960625E1,-2.267199516E0,5.160121918E0,1.230269718E1
2.163915677E1,-2.842673302E0,5.263013363E0,1.180977631E1
2.165870729E1,-3.601198196E0,5.444868088E0,1.089093208E1
2.167825786E1,-3.742374659E0,5.362315655E0,9.497113228E0
2.169780839E1,-2.849851847E0,5.133800983E0,8.421539307E0
2.171735891E1,-1.971685886E0,4.676771641E0,7.867600918E0
2.173690943E1,-1.433300734E0,4.147958279E0,7.820940971E0
2.175646000E1,-1.027717352E0,3.566502094E0,8.055437088E0
2.177601052E1,-6.101697683E-1,3.041277647E0,8.279166222E0
2.179556104E1,-3.182454109E-1,2.395215511E0,8.501698494E0
2.181511161E1,-1.387837082E-1,1.970489502E0,8.713463783E0
2.183466214E1,-4.426721856E-2,1.817348838E0,8.610571861E0
2.185421266E1,2.991028316E-2,1.831705689E0,8.027919769E0
2.187376323E1,2.309073806E-1,2.003988981E0,7.295716286E0
2.189331375E1,4.773681164E-1,2.270788670E0,6.568298340E0
2.191286427E1,5.335994363E-1,2.535195589E0,5.898307800E0
2.193241484E1,6.592226624E-1,2.961117983E0,5.491528034E0
2.195196536E1,7.190431952E-1,3.233899832E0,5.088337421E0
2.197151589E1,7.262216806E-1,3.389433384E0,4.801198483E0
2.199106646E1,9.284151793E-1,3.652643681E0,4.908875465E0
2.201061698E1,1.171286702E0,3.939782381E0,5.511867046E0
2.203016750E1,8.518448472E-1,3.779463291E0,6.302694798E0
2.204971802E1,3.469592929E-1,3.859622955E0,7.916653633E0
2.206926859E1,1.316052489E-2,4.012763500E0,9.909874916E0
2.208881911E1,3.768695593E-1,3.640679598E0,1.125344467E1
2.210836964E1,1.277767301E0,3.311666489E0,1.186959648E1
2.212792021E1,1.689332843E0,3.073580742E0,1.229312611E1
2.214747073E1,2.015953064E0,3.175275564E0,1.290568924E1
2.216702125E1,2.318645239E0,3.083152056E0,1.327657604E1
2.218657182E1,2.251646042E0,2.644068956E0,1.368096352E1
2.220612234E1,1.545763373E0,2.169093609E0,1.475773335E1
2.222567286E1,4.953143001E-1,1.648654819E0,1.583091450E1
2.224522344E1,-4.630111754E-1,6.496513486E-1,1.621974754E1
2.226477396E1,-1.134197950E0,-1.950150430E-1,1.608694649E1
2.228432448E1,-1.691725612E0,-7.597211599E-1,1.520040607E1
2.230387505E1,-1.996810555E0,-1.002592683E0,1.367378521E1
2.232342557E1,-1.823330879E0,-8.530412912E-1,1.190668583E1
2.234297609E1,-1.624726534E0,-6.831508875E-1,1.021137047E1
2.236252667E1,-1.276570916E0,-3.888336718E-1,8.946763992E0
2.238207719E1,-9.978070259E-1,3.337987661E-1,8.319844246E0
2.240162771E1,-1.362712502E0,8.255237937E-1,7.826922894E0
2.242117828E1,-1.497906923E0,1.228714466E0,7.117451191E0
2.244072880E1,-1.097109199E0,1.529013634E0,6.186643124E0
2.246027932E1,-5.647061467E-1,2.047059774E0,5.328815937E0
2.247982990E1,-3.110669553E-1,2.723032236E0,4.847858906E0
2.249938042E1,-3.792623878E-1,3.328416348E0,4.645665169E0
2.251893094E1,-7.992027402E-1,3.829712629E0,4.882554531E0
2.253848151E1,-1.048056364E0,4.382454872E0,5.442475319E0
2.255803203E1,-1.128215909E0,4.474578381E0,5.632704735E0
2.257758255E1,-1.100698471E0,4.393222332E0,5.794219971E0
2.259713307E1,-1.350748420E0,4.555934429E0,6.345765591E0
2.261668365E1,-1.570888042E0,4.920839787E0,7.061219692E0
2.263623417E1,-1.190429211E0,5.297709465E0,7.100701332E0
2.265578474E1,-8.841479421E-1,5.284548759E0,7.246663570E0
2.267533526E1,-5.946164131E-1,5.160121918E0,8.301898003E0
2.269488578E1,3.457628787E-1,5.166104317E0,9.521040916E0
2.271443635E1,1.049252748E0,5.127819061E0,1.011087227E1
2.273398688E1,9.379864931E-1,5.478367329E0,1.002114105E1
2.275353740E1,-1.519442350E-1,6.061019897E0,1.026879883E1
2.277308797E1,-1.034895778E0,6.297909260E0,1.105723381E1
2.279263849E1,-8.087740541E-1,5.834897995E0,1.129890823E1
2.281218901E1,3.146561682E-1,5.093122959E0,1.067677498E1
2.283173953E1,6.520441771E-1,4.906482697E0,1.090289593E1
2.285129010E1,-8.614161611E-2,4.699503899E0,1.184207916E1
2.287084063E1,-5.958128572E-1,4.419543266E0,1.205743313E1
2.289039120E1,-1.399801224E-1,3.805784464E0,1.114098263E1
2.290994172E1,8.578268886E-1,3.294916868E0,1.002233791E1
2.292949224E1,1.612762451E0,2.962314367E0,9.366703987E0
2.294904281E1,1.962114573E0,2.870190859E0,9.047262192E0
2.296859333E1,1.936989903E0,2.909672260E0,8.794819832E0
2.298814385E1,1.231107235E0,2.815155745E0,8.610571861E0
2.300769443E1,2.057827413E-1,2.803191662E0,8.478966713E0
2.302724495E1,-3.684946895E-1,2.959921598E0,8.019545555E0
2.304679547E1,-1.196411327E-1,3.055634499E0,7.361518860E0
2.306634604E1,3.146561682E-1,3.023331404E0,6.550352097E0
2.308589656E1,7.178468108E-1,3.031706333E0,5.834897995E0
2.310544708E1,8.159525394E-1,3.286541939E0,5.393422127E0
2.312499766E1,7.202396393E-1,3.791427374E0,5.397011280E0
2.314454818E1,4.031906128E-1,4.459024906E0,5.681757450E0
2.316409870E1,3.684946895E-1,5.016552448E0,5.697310925E0
2.318364927E1,4.450650215E-1,5.310869694E0,5.982056618E0
2.320319979E1,6.077769399E-1,5.178068161E0,6.470192432E0
2.322275031E1,6.520441771E-1,5.129015446E0,7.268198967E0
2.324230089E1,2.979064286E-1,5.588437080E0,8.429914474E0
2.326185141E1,-3.230310604E-2,5.684150219E0,9.298508644E0
2.328140193E1,5.587241054E-1,5.204389095E0,9.888339996E0
2.330095250E1,1.761117458E0,5.034498692E0,1.001037312E1
2.332050302E1,2.774477959E0,5.425725460E0,9.672985077E0
2.334005354E1,2.663211584E0,5.954539299E0,9.793823242E0
2.335960411E1,2.105684042E0,6.078966141E0,1.073898792E1
2.337915464E1,2.118844509E0,5.906682491E0,1.129053402E1
2.339870521E1,2.301895380E0,5.503491879E0,1.077966595E1
2.341825573E1,1.928615093E0,4.667200565E0,1.012642574E1
2.343780625E1,2.991028428E-1,3.605983734E0,1.155733299E1
2.345735677E1,-2.713460922E0,3.142972469E0,1.465603828E1
2.347690734E1,-4.825126648E0,3.012563705E0,1.628914070E1
2.349645786E1,-4.128815651E0,2.889333248E0,1.433779335E1
2.351600844E1,-3.016152859E0,2.304288149E0,1.159561825E1
2.353555896E1,-2.511267424E0,1.820937991E0,9.652647018E0
2.355510948E1,-2.031506538E0,1.740778446E0,8.618947029E0
2.357466005E1,-1.013360381E0,2.035095692E0,8.148757935E0
2.359421057E1,-5.383851007E-2,2.444268227E0,7.389036179E0
2.361376109E1,2.739782035E-1,3.013760090E0,6.336194515E0
2.363331167E1,3.529413342E-1,3.682554007E0,5.252245903E0
2.365286219E1,3.780659735E-1,4.352544308E0,4.396811485E0
2.367241271E1,6.580262631E-2,4.957928658E0,4.139583111E0
2.369196328E1,-2.931207716E-1,5.430510998E0,4.561916351E0
2.371151380E1,-8.183453679E-1,5.729613781E0,5.399404526E0
2.373106432E1,-1.227517962E0,5.821737289E0,6.163911343E0
2.375061490E1,-1.202393413E0,5.667400360E0,6.689135551E0
2.377016542E1,-6.939185858E-1,5.491528034E0,7.085147858E0
2.378971594E1,-9.212367237E-2,5.145765305E0,7.276573658E0
2.380926651E1,3.337987661E-1,4.908875465E0,7.442874908E0
2.382881703E1,4.713860750E-1,4.916054249E0,7.512266636E0
2.384836760E1,1.004985496E-1,5.071587563E0,7.594819069E0
2.386791813E1,-1.854437590E-1,5.169693470E0,7.702496052E0
2.388746865E1,-2.596212626E-1,5.255835056E0,8.207381248E0
2.390701922E1,-3.038884699E-1,5.475974560E0,9.513862610E0
2.392656974E1,-3.074777126E-1,5.880361557E0,9.972088814E0
2.394612026E1,-4.283152521E-1,6.034698486E0,9.363115311E0
2.396567083E1,-6.891329288E-1,6.026323795E0,9.081958771E0
2.398522135E1,-9.379864931E-1,5.879165173E0,9.897911072E0
2.400477188E1,-7.872386575E-1,5.651846886E0,1.109073257E1
2.402432245E1,-4.259224236E-1,5.487938881E0,1.124387360E1
2.404387297E1,-2.249253243E-1,5.397011280E0,1.079043388E1
2.406342349E1,-3.613162339E-1,4.837090969E0,1.060379314E1
2.408297406E1,-2.213360965E-1,4.230510235E0,1.060499001E1
2.410252458E1,3.672982752E-1,3.574877024E0,1.048056316E1
2.412207510E1,5.850451589E-1,3.142972469E0,1.034177971E1
2.414162568E1,5.204389095E-1,3.430111170E0,9.824930191E0
2.416117620E1,7.884350419E-1,3.565305710E0,8.550751686E0
2.418072672E1,9.104689956E-1,3.458825111E0,7.837690353E0
2.420027729E1,6.412764788E-1,3.214757204E0,8.011170387E0
2.421982781E1,4.247260094E-1,2.892922640E0,8.347361565E0
2.423937833E1,2.225325108E-1,2.971885681E0,8.597412109E0
2.425892891E1,1.710868180E-1,3.125026464E0,8.494520187E0
2.427847943E1,-3.349951655E-2,3.273381472E0,8.037490845E0
2.429802995E1,4.905286431E-2,3.481556892E0,7.337590694E0
2.431758052E1,3.014956415E-1,3.601198196E0,6.474977970E0
2.433713104E1,4.941178858E-1,3.798605919E0,5.772684574E0
2.435668156E1,3.828516304E-1,4.177868366E0,5.614758492E0
2.437623214E1,4.953143001E-1,4.533202648E0,5.790630817E0
2.439578266E1,7.082754970E-1,4.662415028E0,6.315855503E0
2.441533318E1,9.918249846E-1,4.662415028E0,6.803991318E0
2.443488375E1,1.152144074E0,4.578666210E0,7.179664135E0
2.445443427E1,6.017948985E-1,4.560719967E0,7.780262947E0
2.447398479E1,-1.555334777E-1,4.798805714E0,8.776873589E0
2.449353536E1,-5.455635786E-1,4.865804672E0,9.543772697E0
2.451308589E1,-2.464607358E-1,4.878965378E0,9.845269203E0
2.453263641E1,1.112662554E-1,4.996213913E0,9.899106979E0
2.455218698E1,1.651047617E-1,5.322834015E0,9.875179291E0
2.457173750E1,8.494520187E-2,5.466403484E0,9.980463028E0
2.459128802E1,5.982056726E-3,5.322834015E0,1.048774147E1
2.461083859E1,-2.057827413E-1,5.193621635E0,1.109073257E1
2.463038911E1,-4.259224236E-1,4.955535889E0,1.169851017E1
2.464993964E1,-8.769695163E-1,4.502095699E0,1.246660614E1
2.466949021E1,-2.451446772E0,4.112065792E0,1.279920864E1
2.468904073E1,-4.243670940E0,3.739981890E0,1.214716434E1
2.470859125E1,-4.377668858E0,3.633501291E0,1.083589745E1
2.472814177E1,-3.341576815E0,2.865405083E0,9.384650230E0
2.474769234E1,-1.841277003E0,1.798206210E0,8.620143890E0
2.476724286E1,-3.960121572E-1,1.353141189E0,8.755337715E0
2.478679339E1,2.177468538E-1,1.387837172E0,8.985049248E0
2.480634391E1,5.647061467E-1,2.026720762E0,9.248259544E0
2.482589448E1,6.460621357E-1,2.616551638E0,9.528220177E0
2.484544500E1,2.428714931E-1,2.749353170E0,9.784252167E0
2.486499552E1,-2.500499785E-1,2.915654421E0,9.986445427E0
2.488454609E1,-6.317051649E-1,3.218346357E0,9.455238342E0
2.490409661E1,-8.027920127E-1,3.401397467E0,8.248059273E0
2.492364714E1,-9.595218897E-1,3.426522017E0,7.231110096E0
2.494319766E1,-1.083948612E0,3.487539053E0,6.689135551E0
2.496274823E1,-6.939185858E-1,3.649054527E0,6.206982136E0
2.498229875E1,8.973085135E-2,3.777070522E0,5.748756409E0
2.500184927E1,8.542376757E-1,3.806980848E0,5.321637630E0
2.502139979E1,1.111466169E0,4.122833252E0,5.276174068E0
2.504095036E1,7.585247755E-1,4.942375183E0,5.639883041E0
2.506050089E1,2.165504545E-1,5.794219971E0,6.277570248E0
2.508005141E1,-2.691925466E-1,6.259624004E0,7.162914753E0
2.509960193E1,-4.534398913E-1,6.104090691E0,7.789834023E0
2.511915250E1,-6.819544435E-1,5.874379635E0,8.300702095E0
2.513870302E1,-1.194018483E0,6.029912949E0,8.585447311E0
2.515825354E1,-1.940579176E0,6.552744865E0,8.764909744E0
2.517780406E1,-2.088934183E0,6.326622963E0,9.546165466E0
2.519735464E1,-1.411765337E0,5.486742496E0,1.089691448E1
2.521690516E1,-9.571290612E-1,4.715056896E0,1.126301575E1
2.523645568E1,-5.491527915E-1,4.467400074E0,1.105962658E1
2.525600620E1,-5.132604837E-1,4.919643402E0,1.051167011E1
2.527555677E1,-7.142575383E-1,5.619544029E0,9.974481583E0
2.529510729E1,-1.733600020E0,6.067001820E0,1.029033375E1
2.531465781E1,-2.487339020E0,5.752345562E0,1.060020447E1
2.533420833E1,-2.236092806E0,4.533202648E0,1.014676476E1
2.535375885E1,-1.618744493E0,3.086741209E0,9.671789169E0
2.537330943E1,-1.316052437E0,2.002792597E0,9.970891953E0
2.539285995E1,-8.578268886E-1,1.584048629E0,1.036929703E1
2.541241047E1,-1.639083475E-1,1.667797327E0,1.000558758E1
2.543196099E1,2.632104978E-2,1.951346874E0,9.160921097E0
2.545151151E1,-2.261217386E-1,2.193022013E0,8.202595711E0
2.547106208E1,-4.929214716E-1,2.611765862E0,7.648657799E0
2.549061260E1,-6.017948985E-1,3.247060299E0,7.410571575E0
2.551016313E1,-6.317051649E-1,3.615555048E0,6.917650223E0
2.552971365E1,-7.824530005E-1,3.683750391E0,6.370890141E0
2.554926417E1,-9.571290612E-1,3.917050600E0,6.307480335E0
2.556881469E1,-1.021735311E0,4.132404804E0,6.478567123E0
2.558836526E1,-9.750752449E-1,4.054637909E0,6.711867332E0
2.560791578E1,-6.855437160E-1,3.884747505E0,7.325626373E0
2.562746630E1,-3.541377485E-1,3.759124279E0,7.780262947E0
2.564701682E1,-1.758724600E-1,3.958925009E0,7.959724426E0
2.566656734E1,-1.794617064E-2,4.223331928E0,7.651050568E0
2.568611786E1,2.967100143E-1,4.380061626E0,7.624729156E0
2.570566844E1,6.616154313E-1,4.484149456E0,7.984848976E0
2.572521896E1,6.233302951E-1,4.591826439E0,8.943174362E0
2.574476948E1,6.317051649E-1,4.631308079E0,9.108279228E0
2.576432000E1,1.051645517E0,4.716253281E0,8.360522270E0
2.578387052E1,1.313659668E0,5.000999451E0,7.202396393E0
2.580342104E1,9.535398483E-1,5.191228867E0,7.091129780E0
2.582297161E1,3.948157281E-2,5.040481091E0,9.184849739E0
2.584252214E1,-8.279166222E-1,4.417150497E0,1.219023514E1
2.586207266E1,-1.438086390E0,4.285545349E0,1.448016644E1
2.588162318E1,-1.645065546E0,4.503292084E0,1.461775398E1
2.590117370E1,-2.049452543E0,3.987638950E0,1.392742443E1
2.592072422E1,-2.573480844E0,3.229114056E0,1.377906895E1
2.594027474E1,-3.531806231E0,2.353341103E0,1.391306686E1
2.595982526E1,-3.649054527E0,1.923829436E0,1.349432373E1
2.597937578E1,-3.126222849E0,1.844866276E0,1.202393341E1
2.599892635E1,-2.328216314E0,1.710868239E0,9.915857315E0
2.601847688E1,-1.846062660E0,1.780260086E0,8.203792572E0
2.603802740E1,-1.454836130E0,2.126022816E0,7.355536938E0
2.605757792E1,-1.106680512E0,2.228914261E0,7.320840836E0
2.607712844E1,-9.667003751E-1,1.917847395E0,7.313662529E0
2.609667896E1,-9.284151793E-1,1.744367719E0,7.128218651E0
2.611622948E1,-8.051848412E-1,2.009970903E0,6.750152588E0
2.613578000E1,-6.759724021E-1,2.561516523E0,6.458228111E0
2.615533052E1,-5.706881881E-1,3.139383316E0,6.258427620E0
2.617488109E1,-5.084748268E-1,3.549752474E0,6.062216282E0
2.619443161E1,-3.684946895E-1,3.930211306E0,5.978467464E0
2.621398214E1,-1.902294010E-1,4.292723656E0,6.228517532E0
2.623353266E1,1.459621787E-1,4.316651821E0,6.538387775E0
2.625308318E1,5.324030519E-1,4.241278172E0,6.585047722E0
2.627263370E1,6.352944374E-1,4.118047714E0,6.923632145E0
2.629218422E1,2.943171859E-1,4.115654945E0,8.054241180E0
2.631173474E1,4.785645287E-3,4.103690624E0,9.248259544E0
2.633128526E1,-3.696911037E-1,4.066602230E0,1.010608673E1
2.635083578E1,-2.105683982E-1,4.266402721E0,1.027358437E1
2.637038630E1,3.493520916E-1,4.555934429E0,9.963713646E0
2.638993682E1,2.261217386E-1,4.851448059E0,9.876375198E0
2.640948734E1,-1.143769264E0,4.910071850E0,1.066481018E1
2.642903792E1,-2.346162558E0,5.082355499E0,1.193181038E1
2.644858844E1,-2.353341103E0,4.719842434E0,1.172602749E1
2.646813896E1,-1.478764415E0,4.359723091E0,1.078564835E1
2.648768948E1,-1.140179992E0,4.333401680E0,1.067198944E1
2.650724000E1,-1.657029629E0,4.396811485E0,1.134556866E1
2.652679052E1,-2.079362869E0,3.840480328E0,1.166261768E1
2.654634104E1,-1.649851203E0,2.916850805E0,1.110867882E1
2.656589156E1,-5.312066078E-1,2.336591244E0,1.024008465E1
2.658544208E1,4.785645381E-2,1.799402595E0,9.300901413E0
2.660499260E1,2.452643216E-1,1.338784218E0,8.770891190E0
2.662454313E1,3.924229145E-1,1.258624673E0,8.811569214E0
2.664409365E1,4.630111754E-1,1.208375454E0,9.005388260E0
2.666364417E1,4.953143001E-1,9.391828775E-1,8.715856552E0
2.668319469E1,7.477570772E-1,5.060819983E-1,7.981259823E0
2.670274521E1,1.021735311E0,3.230310678E-1,7.215556622E0
2.672229573E1,9.870393276E-1,7.022934556E-1,6.168696880E0
2.674184625E1,8.709874153E-1,1.158126116E0,5.781059742E0
2.676139677E1,8.123632669E-1,1.262213945E0,5.670989513E0
2.678094729E1,1.277767301E0,1.016949654E0,4.977071285E0
2.680049781E1,2.105684042E0,1.505085468E0,5.485546112E0
2.682004833E1,1.939382792E0,2.459821701E0,5.212764263E0
2.683959885E1,7.417750359E-2,2.574677229E0,5.663811207E0
2.685914943E1,-1.842473447E-1,2.122433662E0,7.091129780E0
2.687869995E1,-1.311266780E0,2.276770830E0,8.768498421E0
2.689825047E1,-3.360719442E0,3.223132133E0,1.064566803E1
2.691780099E1,-2.054238319E0,3.298506021E0,1.099382401E1
2.693735151E1,3.016152859E0,1.653440475E0,1.014915752E1
2.695690203E1,4.541577339E0,4.917250574E-1,1.023410225E1
2.697645255E1,3.343969584E0,-1.507478237E0,1.013479996E1
2.699600307E1,3.863212109E0,-1.958525300E0,1.150588799E1
2.701555359E1,2.974278450E0,-1.222732425E0,1.333759308E1
2.703510411E1,1.750349760E0,-1.600798368E0,1.517049599E1
2.705465464E1,2.830709219E0,-2.350948334E0,1.581775379E1
2.707420516E1,2.974278450E0,-3.693321705E0,1.604626846E1
2.709375568E1,2.524427891E0,-4.912465096E0,1.686461449E1
2.711330620E1,3.548556089E0,-5.009374142E0,1.797249031E1
2.713285672E1,3.678964853E0,-4.454239368E0,1.442991734E1
2.715240724E1,1.811366796E0,-3.425325632E0,7.095915318E0
2.717195776E1,-1.018146038E0,-3.716053486E0,1.013599682E1
2.719150828E1,-8.638089895E-1,-4.633700848E0,1.283749390E1
2.721105880E1,1.812563181E0,-4.394418716E0,1.237926769E1
2.723060932E1,3.128615618E0,-3.107080221E0,1.029990482E1
2.725015984E1,1.963310957E0,-3.262613773E0,8.096115112E0
2.726971036E1,-4.880161762E0,-8.126026154E0,4.435096741E0
2.728926083E1,2.400001049E0,-4.344169617E0,6.709474564E0
2.730881141E1,-2.177468538E-1,-3.028116941E0,8.049455643E0
2.732836188E1,8.003991842E-1,-1.713261008E0,8.836693764E0
2.734791240E1,1.950150490E0,-9.343972206E-1,7.685746193E0
2.736746292E1,1.780260086E0,-6.867401004E-1,6.318248272E0
2.738701344E1,2.038684845E0,6.951149702E-1,4.917250633E0
2.740656396E1,3.793820381E0,1.629512191E0,3.316452265E0
2.742611448E1,4.576273441E0,1.205982566E0,1.551745534E0
2.744566500E1,3.683750391E0,1.362712502E0,2.614158630E0
2.746521552E1,2.444268227E0,9.140582681E-1,3.572484255E0
2.748476604E1,1.563709617E0,1.129412293E0,6.247660160E0
2.750431656E1,3.828516304E-1,1.962114573E0,9.802198410E0
2.752386708E1,9.008977413E-1,2.032702923E0,9.934999466E0
2.754341760E1,2.017149448E0,2.392822742E0,8.769695282E0
2.756296812E1,2.586641312E0,2.181057930E0,7.628318787E0
2.758251865E1,2.415554523E0,2.222932339E0,8.250452042E0
2.760206917E1,3.330809116E0,3.226721287E0,9.677771568E0
2.762161969E1,4.521238327E0,2.992224693E0,1.344287777E1
2.764117021E1,4.299902439E0,1.231107235E0,1.651765442E1
2.766072073E1,3.894318819E0,5.060819983E-1,1.793899155E1
2.768027125E1,2.051845312E0,9.056833982E-1,2.156770706E1
2.769982177E1,-3.720839322E-1,5.024927258E-1,2.166940117E1
2.771937229E1,-2.189432681E-1,2.189432681E-1,1.779781532E1
2.773892281E1,1.611566067E0,3.086741269E-1,1.209930801E1
2.775847333E1,2.896511793E0,9.128618240E-1,8.451449394E0
2.777802385E1,3.474378586E0,1.543370605E0,7.063612461E0
2.779757432E1,3.725624800E0,1.734796405E0,6.380461693E0
2.781712484E1,3.675375462E0,1.775474429E0,7.113861561E0
2.783667536E1,2.924029350E0,1.596012712E0,7.191628456E0
2.785622588E1,2.483749866E0,1.601994753E0,7.335197926E0
2.787577641E1,2.433500528E0,1.715653777E0,6.989434719E0
2.789532693E1,2.171486616E0,1.506281853E0,6.295516491E0
2.791487745E1,1.977667928E0,1.021735311E0,5.523830891E0
2.793442797E1,1.324427366E0,9.391828775E-1,5.102694511E0
2.795397849E1,1.380658627E0,1.109073281E0,4.688735962E0
2.797352901E1,1.600798368E0,1.082752228E0,4.067798615E0
2.799307953E1,1.759921074E0,9.954141974E-1,3.633501291E0
2.801263005E1,2.374876499E0,8.231309652E-1,4.301098824E0
2.803218057E1,3.661018610E0,9.403793216E-1,4.831109047E0
2.805173109E1,4.048655987E0,1.296909928E0,5.132604599E0
2.807128161E1,3.090330362E0,1.387837172E0,5.120640278E0
2.809083208E1,2.642872572E0,1.484746456E0,4.995017052E0
2.811038260E1,3.029313564E0,1.433300734E0,5.647061348E0
2.812993312E1,2.799602509E0,1.488335729E0,7.654639721E0
2.814948365E1,1.186840057E0,1.568495274E0,9.544969559E0
2.816903417E1,-3.589234129E-2,1.987239242E0,1.095434189E1
2.818858469E1,4.175475538E-1,2.492124796E0,1.178106213E1
2.820813521E1,1.690529227E0,3.041277647E0,1.209452248E1
2.822768573E1,2.450250387E0,4.052245140E0,1.184447193E1
2.824723625E1,3.193221807E0,5.089533806E0,1.177627659E1
2.826678677E1,3.972085476E0,3.878765583E0,1.487737465E1
2.828633724E1,3.145365477E0,1.883151412E0,1.723550224E1
2.830588776E1,2.961117983E0,1.061216831E0,1.884347916E1
2.832543828E1,3.625126362E0,4.534398913E-1,1.935195351E1
2.834498880E1,4.681557655E0,-4.103690982E-1,1.891406631E1
2.836453932E1,4.728217602E0,-1.284945726E0,1.696750450E1
2.838408984E1,4.033102512E0,-1.752742529E0,1.434975719E1
2.840364036E1,3.375076294E0,-1.858026743E0,1.198445225E1
2.842319088E1,2.847458839E0,-1.855633974E0,1.028794098E1
2.844274135E1,2.166700840E0,-1.948953986E0,8.565108299E0
2.846229188E1,1.726421595E0,-1.791027784E0,6.541976929E0
2.848184240E1,1.869990945E0,-1.406979680E0,4.747360229E0
2.850139292E1,2.110469580E0,-8.578268886E-1,3.651447296E0
2.852094344E1,2.129612207E0,-4.486542344E-1,3.209971666E0
2.854049396E1,1.946561217E0,-1.651047617E-1,2.968296528E0
2.856004448E1,1.847259045E0,2.596212626E-1,2.427518606E0
2.857959500E1,1.761117458E0,9.020941257E-1,1.720439434E0
2.859914547E1,1.301695466E0,1.710868239E0,1.368694544E0
2.861869599E1,4.582255483E-1,2.489732027E0,1.233500123E0
2.863824651E1,-3.541377485E-1,2.712264538E0,1.538584948E0
2.865779703E1,-5.778666735E-1,2.197807550E0,2.400001049E0
2.867734755E1,-9.810572863E-2,1.198804140E0,4.298706055E0
2.869689807E1,4.426721931E-1,7.776673883E-2,7.357929707E0
2.871644854E1,9.511470199E-1,-5.527420044E-1,9.610772133E0
2.873599906E1,1.433300734E0,-6.616154313E-1,1.089930725E1
2.875554958E1,5.276173949E-1,-4.701896608E-1,1.210289669E1
2.877510010E1,1.154536963E0,1.028913707E-1,1.315693569E1
2.879465063E1,1.752742529E0,5.383850932E-1,1.408415413E1
2.881420115E1,1.841277003E0,-1.100698411E-1,1.603669739E1
2.883375161E1,2.891726255E0,-2.201396823E-1,1.828594971E1
2.885330214E1,2.254039049E0,-8.757730722E-1,2.091566277E1
2.887285266E1,9.954141974E-1,-2.322234392E0,2.224248314E1
2.889240318E1,1.052842021E0,-3.251846075E0,2.239083862E1
2.891195365E1,1.959721804E0,-3.610769272E0,2.193021965E1
2.893150417E1,2.346162558E0,-3.824927092E0,1.889492416E1
2.895105469E1,2.189432621E0,-3.637090445E0,1.521595955E1
2.897060521E1,1.764706731E0,-2.837887764E0,1.117089272E1
2.899015573E1,1.007378340E0,-1.720439434E0,8.620143890E0
2.900970625E1,3.242274821E-1,-1.197607756E0,7.404589653E0
2.902925672E1,8.733802289E-2,-1.283749342E0,6.751348972E0
2.904880724E1,3.828516230E-2,-1.484746456E0,6.324230194E0
2.906835776E1,-9.092725813E-2,-1.763510346E0,5.656632900E0
2.908790828E1,-1.375873089E-1,-1.931007862E0,5.012963295E0
2.910745875E1,3.385843933E-1,-1.568495274E0,4.837090969E0
2.912700927E1,8.338986635E-1,-1.033699393E0,4.198207378E0
2.914655979E1,1.301695466E0,2.033899166E-2,3.589233875E0
2.916611031E1,1.338784218E0,1.479960799E0,3.132204771E0
2.918566078E1,8.853443861E-1,3.326023579E0,3.247060299E0
2.920521130E1,7.824530005E-1,5.016552448E0,4.284348965E0
2.922476182E1,9.834501147E-1,5.565705299E0,5.897111416E0
2.924431234E1,1.144965649E0,5.283352375E0,7.188039303E0
2.926386281E1,1.640279889E0,5.263013363E0,8.328219414E0
2.928341333E1,2.006381750E0,5.206781864E0,9.796216011E0
2.930296385E1,2.804388046E0,5.218746185E0,1.124746323E1
2.932251438E1,3.276970625E0,5.558526993E0,1.111705399E1
2.934206484E1,2.556730986E0,6.281159401E0,1.031306553E1
2.936161536E1,1.624726534E0,6.978667259E0,1.014796066E1
2.938116588E1,1.393819213E0,7.000202656E0,9.501898766E0
2.940071635E1,1.003789067E0,7.042077065E0,8.606983185E0
2.942026688E1,2.249253243E-1,6.373282909E0,8.711071014E0
2.943981740E1,3.469592929E-1,4.149154663E0,9.842875481E0
2.945936792E1,1.958525300E0,3.512663603E0,1.148435211E1
2.947891839E1,1.533799291E0,4.152743816E0,1.210170078E1
2.949846891E1,-9.810572863E-2,3.498306751E0,1.134556866E1
2.951801943E1,-7.369893789E-1,4.006781578E0,9.896714211E0
2.953756990E1,-1.087537885E0,4.147958279E0,7.738388538E0
2.955712042E1,-5.970092416E-1,4.408775806E0,6.053841114E0
2.957667094E1,-3.792623878E-1,4.353740692E0,5.863611698E0
2.959622146E1,-1.280160099E-1,4.344169617E0,6.610172749E0
2.961577193E1,-7.274180651E-1,4.589433670E0,6.978667259E0
2.963532245E1,-1.093519926E0,5.103890896E0,6.055037498E0
2.965487292E1,-1.009771109E0,5.503491879E0,4.777270317E0
2.967442344E1,-6.388836503E-1,5.685346603E0,4.421936035E0
2.969397396E1,-8.733802289E-2,5.598008633E0,4.677968502E0
2.971352448E1,7.896314561E-2,5.430510998E0,5.179264545E0
2.973307495E1,-4.905286431E-2,5.368297577E0,5.895915031E0
2.975262547E1,-8.733802438E-1,5.564508915E0,6.283552170E0
2.977217599E1,-1.298106313E0,5.893522263E0,5.990431309E0
2.979172646E1,-9.894321561E-1,6.022734642E0,5.466403484E0
2.981127698E1,-3.194418252E-1,6.019145489E0,5.423332691E0
2.983082750E1,-1.794617064E-2,6.349354744E0,6.118447304E0
2.985037797E1,-5.228317380E-1,6.762116909E0,6.842276573E0
2.986992849E1,-9.810572863E-1,6.800402164E0,7.316055298E0
2.988947896E1,-1.034895778E0,6.946363926E0,8.063812256E0
2.990902948E1,-9.774680734E-1,7.265805721E0,8.571090698E0
2.992858000E1,-1.288534999E0,7.944170952E0,8.882157326E0
2.994813052E1,-1.318445325E0,8.139185905E0,8.383254051E0
2.996768099E1,-1.064806104E0,8.102097511E0,7.996813297E0
2.998723151E1,-8.602197170E-1,8.051848412E0,8.213363647E0
3.000678198E1,-2.751746178E-1,7.317251682E0,8.638090134E0
3.002633250E1,6.305087805E-1,6.971488953E0,9.104690552E0
3.004588302E1,1.241874933E0,6.832705021E0,9.530612946E0
3.006543349E1,1.459621787E0,6.429514408E0,1.008335495E1
3.008498401E1,8.159525394E-1,6.094519138E0,1.017428207E1
3.010453453E1,-3.050848842E-1,5.505885124E0,9.391828537E0
3.012408500E1,-1.491924882E0,5.303691387E0,9.129815102E0
3.014363552E1,-1.320838094E0,5.257031441E0,8.520841599E0
3.016318599E1,-4.342973232E-1,5.050052166E0,7.392625332E0
3.018273651E1,3.900300860E-1,4.936393261E0,6.647261143E0
3.020228703E1,7.010970116E-1,4.998606682E0,6.585047722E0
3.022183750E1,5.312066078E-1,4.729413986E0,6.896114826E0
3.024138802E1,1.651047617E-1,4.515256405E0,7.222734928E0
3.026093849E1,-1.938186288E-1,4.449453831E0,7.355536938E0
3.028048901E1,-1.040877849E-1,4.272384644E0,7.826922894E0
3.030003953E1,2.871387079E-2,3.981656790E0,7.873582840E0
3.031959000E1,2.644068897E-1,4.019941807E0,7.052844524E0
3.033914052E1,3.756731451E-1,4.467400074E0,6.184250355E0
3.035869104E1,3.816552162E-1,4.901697159E0,5.790630817E0
3.037824151E1,4.007977843E-1,5.271388054E0,5.989234924E0
3.039779203E1,2.512463629E-1,5.479563713E0,6.267998695E0
3.041734250E1,1.208375469E-1,5.526223660E0,6.416353703E0
3.043689302E1,2.416750938E-1,5.673382282E0,6.717849731E0
3.045644354E1,5.886343718E-1,5.670989513E0,6.990631580E0
3.047599401E1,7.668996453E-1,5.551348686E0,7.344769001E0
3.049554453E1,7.190431952E-1,5.345565796E0,7.939385414E0
3.051509500E1,4.414757788E-1,5.468796253E0,8.450253487E0
3.053464552E1,2.069791555E-1,5.831308842E0,8.927620888E0
3.055419604E1,2.691925466E-1,6.331408501E0,9.229117393E0
3.057374651E1,6.245267391E-1,6.922435760E0,9.120243073E0
3.059329703E1,6.077769399E-1,6.937989235E0,9.180064201E0
3.061284750E1,-3.816552162E-1,6.565905571E0,1.070070267E1
3.063239802E1,-1.893919110E0,6.518048763E0,1.254078388E1
3.065194849E1,-2.470589399E0,6.674778938E0,1.250848007E1
3.067149901E1,-2.175075769E0,6.178267956E0,1.251446247E1
3.069104948E1,-2.047059774E0,4.691128731E0,1.422772312E1
3.071060000E1,-1.208375454E0,3.462414265E0,1.514896011E1
3.073015052E1,4.977070987E-1,2.628515720E0,1.293200970E1
3.074970099E1,2.018345833E0,2.392822742E0,9.203991890E0
3.076925151E1,2.152343988E0,2.780459881E0,6.766902447E0
3.078880198E1,1.306481123E0,3.684946775E0,6.157928944E0
3.080835250E1,6.628118753E-1,4.743771076E0,5.933003902E0
3.082790302E1,9.451649338E-2,5.047659397E0,5.732006550E0
3.084745349E1,-8.255237937E-1,4.792823792E0,6.013163090E0
3.086700401E1,-1.423729420E0,5.161318302E0,6.250052929E0
3.088655448E1,-1.097109199E0,5.515456200E0,5.858826160E0
3.090610500E1,-3.302095234E-1,5.521438122E0,5.627918720E0
3.092565547E1,1.890329868E-1,5.225924492E0,5.730810165E0
3.094520599E1,5.539384484E-1,4.966303349E0,5.544169903E0
3.096475646E1,8.841479421E-1,4.975874901E0,5.094319344E0
3.098430698E1,8.398807645E-1,5.036891460E0,4.843072891E0
3.100385745E1,2.093719840E-1,5.161318302E0,5.178068161E0
3.102340797E1,-2.512463741E-2,5.374279499E0,5.967699528E0
3.104295844E1,4.462614357E-1,5.286941528E0,6.418746948E0
3.106250896E1,9.188438654E-1,5.143372059E0,6.391229153E0
3.108205943E1,1.188036442E0,5.194818020E0,6.490531445E0
3.110160995E1,7.968099117E-1,5.374279499E0,6.952346325E0
3.112116042E1,2.667997181E-1,5.715256691E0,7.755138397E0
3.114071094E1,1.878365725E-1,6.300302029E0,8.055437088E0
3.116026141E1,-1.208375469E-1,6.764509678E0,7.873582840E0
3.117981193E1,-8.243274093E-1,6.795616150E0,7.831708431E0
3.119936245E1,-1.317248821E0,6.661618233E0,8.002795219E0
3.121891292E1,-1.377069473E0,6.468996048E0,8.895318031E0
3.123846344E1,-1.104287624E0,6.175875187E0,9.872786522E0
3.125801391E1,-6.544370055E-1,5.752345562E0,1.032024384E1
3.127756443E1,-2.488535494E-1,5.402993679E0,1.070429230E1
3.129711490E1,1.794617064E-2,4.882554531E0,1.167338562E1
3.131666542E1,1.627119333E-1,3.929014683E0,1.291526031E1
3.133621588E1,1.495514214E-1,2.867797852E0,1.346560955E1
3.135576641E1,-1.507478207E-1,2.316252232E0,1.373121262E1
3.137531688E1,-2.201396823E-1,1.896311998E0,1.244746304E1
3.139486740E1,2.285145670E-1,1.544566989E0,1.027358437E1
3.141441786E1,8.518448472E-1,1.270588875E0,8.489734650E0
3.143396839E1,1.487139225E0,1.226321578E0,7.954938889E0
3.145351885E1,2.047059774E0,1.428515077E0,7.931010723E0
3.147306938E1,2.176272154E0,1.558923960E0,7.989634991E0
3.149261984E1,9.224331379E-1,1.518245935E0,9.172885895E0
3.151217036E1,-3.098705411E-1,1.507478237E0,9.578469276E0
3.153172083E1,-6.496513486E-1,1.478764415E0,8.797212601E0
3.155127135E1,9.092725813E-2,1.489532113E0,7.499105930E0
3.157082182E1,1.002592683E0,1.646261930E0,6.745367050E0
3.159037234E1,1.526620865E0,1.896311998E0,6.460621357E0
3.160992281E1,1.697707653E0,2.026720762E0,6.147161484E0
3.162947333E1,1.284945726E0,2.254039049E0,6.398407936E0
3.164902380E1,9.140582681E-1,2.867797852E0,6.976274490E0
3.166857432E1,4.941178858E-1,3.688536167E0,7.762316704E0
3.168812479E1,-7.178467698E-3,4.140779495E0,8.367700577E0
3.170767531E1,-1.579262912E-1,4.007977962E0,8.528019905E0
3.172722578E1,-1.806581169E-1,3.713660717E0,9.403793335E0
3.174677630E1,-3.589234054E-1,3.611965895E0,1.077009487E1
3.176632677E1,-2.021935135E-1,3.543770313E0,1.134317589E1
3.178587729E1,3.876372576E-1,3.517449379E0,1.094357395E1
3.180542776E1,9.116654396E-1,3.824927092E0,1.015035343E1
3.182497828E1,1.061216831E0,4.569094658E0,9.780662537E0
3.184452875E1,9.080761671E-1,5.379065514E0,1.011805058E1
3.186407922E1,6.364908218E-1,5.515456200E0,1.119123173E1
3.188362974E1,-1.447657645E-1,4.774877548E0,1.283151150E1
3.190318021E1,-1.116251707E0,3.790230989E0,1.445863056E1
3.192273073E1,-1.594816327E0,2.933600664E0,1.560359669E1
3.194228120E1,-1.277767301E0,2.068595171E0,1.684666824E1
3.196183172E1,-6.735795736E-1,1.040877819E0,1.666002846E1
3.198138219E1,1.794617064E-2,1.136590764E-1,1.495753479E1
3.200093271E1,6.185446382E-1,-5.874379873E-1,1.258265781E1
3.202048318E1,9.236295223E-1,-9.702895880E-1,1.049850941E1
3.204003370E1,6.640082598E-1,-1.081555843E0,8.851051331E0
3.205958417E1,2.512463741E-2,-9.559326172E-1,7.507481098E0
3.207913469E1,-5.958128572E-1,-3.337987661E-1,6.241677761E0
3.209868516E1,-6.005984545E-1,6.879364848E-1,4.535595417E0
3.211823563E1,-1.914258115E-2,2.072184324E0,2.872583628E0
3.213778615E1,5.324030519E-1,3.292523861E0,2.114058733E0
3.215733661E1,3.122633696E-1,3.993621111E0,1.782652855E0
3.217688714E1,-1.567298770E-1,4.321437836E0,1.904686809E0
3.219643760E1,-5.347958803E-1,4.347758770E0,3.024527788E0
3.221598812E1,-6.173482537E-1,4.063013077E0,4.334598064E0
3.223553859E1,-5.814558864E-1,3.783052683E0,5.772684574E0
3.225508911E1,-8.147560954E-1,3.724428415E0,7.342376232E0
3.227463958E1,-1.422533035E0,3.899104595E0,8.772088051E0
3.229419005E1,-1.726421595E0,4.010370731E0,9.678967476E0
3.231374057E1,-1.374676585E0,4.011567116E0,9.564111710E0
3.233329104E1,-8.937192559E-1,4.175475597E0,9.445667267E0
3.235284156E1,-7.190431952E-1,4.463810444E0,1.019342422E1
3.237239203E1,-7.106683254E-1,4.596612453E0,1.089212894E1
3.239194255E1,-4.785645306E-1,4.400400639E0,1.105125141E1
3.241149302E1,6.580262184E-1,4.737788677E0,1.022931671E1
3.243104349E1,2.200200319E0,5.605186939E0,9.248259544E0
3.245059401E1,2.671586514E0,5.553741455E0,9.055637360E0
3.247014448E1,1.786242127E0,4.539184570E0,1.024606609E1
3.248969500E1,-1.045663476E0,3.080759048E0,1.328255844E1
3.250924547E1,-3.127419233E0,2.336591244E0,1.727618027E1
3.252879594E1,-1.970489502E0,1.982453585E0,1.805504417E1
3.254834646E1,1.639083475E-1,1.907079697E0,1.663968849E1
3.256789693E1,1.063609719E0,1.747956991E0,1.451725483E1
3.258744745E1,8.590233326E-1,1.292124271E0,1.284945774E1
3.260699792E1,-1.292124242E-1,1.083948612E0,1.193181038E1
3.262654844E1,-9.379864931E-1,1.244267821E0,1.090528965E1
3.264609891E1,-9.320043921E-1,1.414158225E0,9.198010445E0
3.266564943E1,-2.644068897E-1,1.538584948E0,7.855636597E0
3.268519990E1,5.790630579E-1,1.686939955E0,7.325626373E0
3.270475036E1,1.064806104E0,1.779063582E0,6.865008354E0
3.272430089E1,9.547362328E-1,1.829312921E0,6.368497372E0
3.274385135E1,4.342973232E-1,1.933400750E0,6.010770321E0
3.276340188E1,-2.440679073E-1,2.204986095E0,5.959324837E0
3.278295234E1,-6.843472719E-1,2.708675146E0,5.967699528E0
3.280250281E1,-6.185446382E-1,3.424129248E0,5.626722336E0
3.282205333E1,-5.922235847E-1,4.161118507E0,5.637490273E0
3.284160380E1,-1.136590719E0,4.843072891E0,6.887740135E0
3.286115432E1,-1.416550994E0,5.190032482E0,7.657032490E0
3.288070479E1,-9.499505758E-1,5.188836098E0,7.550551891E0
3.290025526E1,7.178468257E-2,5.097908497E0,7.410571575E0
3.291980578E1,7.980063558E-1,4.987838745E0,7.392625332E0
3.293935625E1,1.104287624E0,4.948357105E0,7.130611420E0
3.295890677E1,1.367498159E0,5.051248550E0,7.008577347E0
3.297845724E1,1.402194023E0,5.076373100E0,7.581658363E0
3.299800771E1,1.024128079E0,5.374279499E0,9.136993408E0
3.301755823E1,5.120640397E-1,5.666203976E0,9.903892517E0
3.303710870E1,2.656033039E-1,5.855237007E0,9.594022751E0
3.305665917E1,2.883351147E-1,5.962913990E0,9.253045082E0
3.307620969E1,7.812566161E-1,6.324230194E0,9.038887978E0
3.309576016E1,1.119840980E0,6.838686943E0,9.090332985E0
3.311531062E1,6.508477330E-1,6.606583118E0,1.011087227E1
3.313486115E1,2.787638307E-1,5.680561066E0,1.115892887E1
3.315441161E1,2.368894368E-1,5.002195835E0,1.129771233E1
3.317396214E1,5.144568533E-2,4.249652863E0,1.038006496E1
3.319351260E1,-6.939185411E-2,3.367897987E0,9.085547447E0
3.321306307E1,1.292124242E-1,2.640479803E0,8.309076309E0
3.323261359E1,1.459621787E-1,2.041077614E0,8.736195564E0
3.325216406E1,-2.931207716E-1,1.777867198E0,1.012762165E1
3.327171458E1,-1.101894855E0,1.769492388E0,1.099980545E1
3.329126505E1,-1.957328916E0,2.104487419E0,1.150349522E1
3.331081552E1,-2.336591244E0,2.465803623E0,1.059422207E1
3.333036604E1,-1.616351724E0,2.693121910E0,8.463413239E0
3.334991651E1,-1.507478207E-1,3.334398270E0,6.123233318E0
3.336946698E1,1.240678549E0,4.179064751E0,4.735395908E0
3.338901750E1,8.422735929E-1,4.453042984E0,4.829912663E0
3.340856797E1,2.799602449E-1,4.679164886E0,5.557330608E0
3.342811844E1,2.584248483E-1,4.968696117E0,6.031109333E0
3.344766896E1,3.278166950E-1,4.704289436E0,6.681957245E0
3.346721943E1,3.780659735E-1,4.291527271E0,7.509873867E0
3.348676990E1,3.038884699E-1,4.365705013E0,8.069794655E0
3.350632042E1,4.271188378E-1,4.595416069E0,8.322237015E0
3.352587088E1,5.096712112E-1,4.573880672E0,8.548358917E0
3.354542141E1,1.124626622E-1,4.772484779E0,8.868997574E0
3.356497188E1,-8.745766878E-1,5.067998409E0,8.943174362E0
3.358452234E1,-1.362712502E0,5.377869129E0,8.630910873E0
3.360407286E1,-1.081555843E0,5.425725460E0,8.104490280E0
3.362362333E1,-2.189432681E-1,5.520241737E0,7.875975609E0
3.364317380E1,6.281159520E-1,5.643472195E0,7.843672752E0
3.366272432E1,9.655039310E-1,5.692524910E0,8.114061356E0
3.368227479E1,4.247260094E-1,5.601597786E0,8.668000221E0
3.370182526E1,2.644068897E-1,5.801398277E0,9.233902931E0
3.372137578E1,6.580262631E-2,5.846862316E0,9.359525681E0
3.374092625E1,3.110669367E-2,5.874379635E0,9.358329773E0
3.376047672E1,3.122633696E-1,6.269195557E0,9.815358162E0
3.378002724E1,-3.565305769E-1,6.186643124E0,1.015872860E1
3.379957771E1,-1.824527264E0,5.633901119E0,1.058225822E1
3.381912818E1,-3.065205812E0,5.286941528E0,1.168056393E1
3.383867870E1,-3.029313564E0,4.817948341E0,1.238046455E1
3.385822917E1,-1.848455548E0,3.644268990E0,1.197129154E1
3.387777964E1,-2.871387303E-1,2.624926329E0,1.098066330E1
3.389733016E1,1.416550994E0,2.593819857E0,9.397810936E0
3.391688063E1,2.701496840E0,3.461217880E0,7.226324558E0
3.393643115E1,2.824727058E0,4.408775806E0,5.977271080E0
3.395598161E1,2.324627161E0,4.736592293E0,5.917450428E0
3.397553208E1,1.293320656E0,4.363312244E0,6.662814617E0
3.399508255E1,3.780659735E-1,3.718446493E0,7.501499176E0
3.401463307E1,1.782652885E-1,3.120240688E0,7.788637638E0
3.403418354E1,9.152546525E-1,2.876172781E0,7.424928665E0
3.405373401E1,1.957328916E0,2.863012314E0,6.943971157E0
3.407328453E1,2.513660192E0,3.121437073E0,6.884150982E0
3.409283500E1,2.164308071E0,3.463610888E0,6.937989235E0
3.411238547E1,1.517049551E0,3.786641836E0,6.693921566E0
3.413193599E1,9.655039310E-1,4.219742775E0,6.500102520E0
3.415148646E1,6.520441771E-1,4.783252239E0,6.537191391E0
3.417103693E1,4.187439680E-1,5.428118229E0,6.747759819E0
3.419058745E1,4.175475538E-1,5.857629776E0,6.892525673E0
3.421013792E1,2.524427772E-1,5.935396671E0,7.232306480E0
3.422968838E1,5.264209956E-2,5.871986866E0,8.048258781E0
3.424923891E1,2.991028316E-2,6.069394588E0,9.128618240E0
3.426878938E1,1.818545163E-1,6.510870457E0,1.012642574E1
3.428833984E1,3.337987661E-1,6.967899323E0,1.010608673E1
3.430789036E1,9.092725813E-2,7.270591736E0,9.749555588E0
3.432744083E1,-1.232303679E-1,7.426125050E0,9.979267120E0
3.434699130E1,-1.782652885E-1,7.601997375E0,1.060140038E1
3.436654182E1,-2.225325108E-1,7.417750359E0,1.106321526E1
3.438609229E1,-1.435693651E-1,6.677171707E0,1.124507046E1
3.440564276E1,-2.045863420E-1,5.893522263E0,1.203948689E1
3.442519323E1,-1.259821177E0,5.341976643E0,1.338305664E1
3.444474375E1,-2.368894339E0,4.640879631E0,1.402433395E1
3.446429422E1,-2.543570518E0,3.684946775E0,1.311266804E1
3.448384469E1,-2.087737799E0,2.962314367E0,1.126660538E1
3.450339521E1,-1.264606714E0,2.562713146E0,9.268598557E0
3.452294568E1,-5.778666735E-1,1.977667928E0,7.579265594E0
3.454249615E1,-1.115055323E0,1.785045743E0,6.644868374E0
3.456204667E1,-1.941775560E0,2.495713949E0,5.869594097E0
3.458159714E1,-1.491924882E0,3.006581545E0,5.509474277E0
3.460114760E1,-1.064806059E-1,3.032902718E0,5.330012321E0
3.462069813E1,1.042074203E0,3.236292601E0,5.558526993E0
3.464024859E1,1.253839016E0,3.875176191E0,6.636493683E0
3.465979906E1,1.722832322E-1,4.376472473E0,7.414160728E0
3.467934953E1,-9.786644578E-1,4.809573650E0,7.118647575E0
3.469890005E1,-1.215553880E0,5.016552448E0,6.139982700E0
3.471845052E1,-8.721838593E-1,5.119443893E0,5.776273727E0
3.473800099E1,-5.264210105E-1,5.142175674E0,6.595815659E0
3.475755151E1,-5.276173949E-1,5.249852657E0,7.080362320E0
3.477710198E1,-3.349951804E-1,5.393422127E0,6.689135551E0
3.479665245E1,-2.273181528E-1,5.486742496E0,6.768098831E0
3.481620292E1,-3.014956415E-1,5.681757450E0,7.654639721E0
3.483575344E1,-8.494520187E-2,5.801398277E0,8.403593063E0
3.485530391E1,-1.124626622E-1,5.860022545E0,8.236095428E0
3.487485438E1,-2.213360965E-1,6.093322754E0,7.893921852E0
3.489440490E1,-2.679961324E-1,6.421139717E0,8.153543472E0
3.491395536E1,-3.290131092E-1,6.756134510E0,8.864211082E0
3.493350583E1,-8.063812256E-1,7.013363361E0,9.053244591E0
3.495305635E1,-1.022931695E0,6.821937561E0,9.303294182E0
3.497260682E1,-9.272187948E-1,6.526423931E0,9.850054741E0
3.499215729E1,-4.666004181E-1,6.177071571E0,9.450452805E0
3.501170776E1,5.503492355E-1,6.013163090E0,9.012566566E0
3.503125828E1,1.115055323E0,6.090929985E0,9.061619759E0
3.505080875E1,1.584048629E0,6.374479294E0,9.250652313E0
3.507035922E1,1.166501045E0,6.241677761E0,9.177671432E0
3.508990969E1,4.749752879E-1,5.781059742E0,8.782855988E0
3.510946021E1,1.615155339E-1,5.426921844E0,8.706285477E0
3.512901068E1,-5.862415582E-2,4.948357105E0,8.707481384E0
3.514856115E1,3.984049559E-1,4.333401680E0,8.829515457E0
3.516811167E1,7.968099117E-1,3.710071564E0,8.852247238E0
3.518766214E1,9.008977413E-1,3.585644722E0,8.913264275E0
3.520721260E1,5.898307562E-1,3.546163082E0,8.641678810E0
3.522676307E1,2.787638307E-1,3.729214191E0,8.184649467E0
3.524631359E1,4.271188378E-1,4.040280819E0,7.741977692E0
3.526586406E1,6.448656917E-1,3.999603033E0,7.058826923E0
3.528541453E1,1.146162033E0,3.789034605E0,6.534798622E0
3.530496505E1,1.464407444E0,3.781856298E0,6.221338749E0
3.532451552E1,1.724028707E0,4.048655987E0,6.293123722E0
3.534406599E1,1.685743570E0,4.528416634E0,6.751348972E0
3.536361646E1,1.533799291E0,5.000999451E0,7.111468792E0
3.538316698E1,1.514656782E0,5.541777134E0,6.957131863E0
3.540271745E1,1.308874011E0,5.912664890E0,6.678368092E0
3.542226792E1,1.068395257E0,6.166304111E0,6.787241459E0
3.544181839E1,8.937192559E-1,6.227321148E0,7.129415035E0
3.546136891E1,6.807580590E-1,6.297909260E0,7.502695560E0
3.548091938E1,7.034898400E-1,6.196214199E0,7.892725468E0
3.550046984E1,1.162911773E0,5.964110374E0,8.061419487E0
3.552002031E1,1.685743570E0,5.825326920E0,8.097311974E0
3.553957083E1,1.941775560E0,6.069394588E0,8.750552177E0
3.555912130E1,1.963310957E0,6.141179085E0,9.221938133E0
3.557867177E1,1.739582062E0,5.943771362E0,8.807980537E0
3.559822224E1,8.386843204E-1,6.369693756E0,8.697910309E0
3.561777276E1,1.244267747E-1,7.284948349E0,9.493523598E0
3.563732323E1,1.878365725E-1,7.008577347E0,1.043509960E1
3.565687370E1,7.956135273E-1,5.760720730E0,1.055474091E1
3.567642422E1,5.479564071E-1,4.929214478E0,1.007139015E1
3.569597469E1,-9.308080077E-1,4.599005222E0,1.009412193E1
3.571552516E1,-2.280359983E0,4.339384079E0,1.076171970E1
3.573507562E1,-2.919243574E0,4.072584152E0,1.099741268E1
3.575462615E1,-2.641676188E0,3.967299938E0,1.090768242E1
3.577417661E1,-2.181057930E0,3.851248026E0,1.091964626E1
3.579372708E1,-1.666600943E0,3.860819340E0,1.066720295E1
3.581327755E1,-1.159322619E0,4.009174347E0,9.363115311E0
3.583282802E1,-3.230310678E-1,3.862015724E0,7.532605648E0
3.585237854E1,4.977070987E-1,3.632304668E0,6.445067883E0
3.587192901E1,7.621139884E-1,3.482753277E0,6.180660725E0
3.589147948E1,5.359922647E-1,3.708875179E0,6.125626087E0
3.591102995E1,7.058826834E-2,4.248456478E0,6.230910301E0
3.593058047E1,-4.785645306E-1,4.599005222E0,6.065805435E0
3.595013094E1,-6.352944374E-1,4.796412945E0,5.813362598E0
3.596968141E1,-6.400800347E-1,5.121836662E0,5.300102234E0
3.598923188E1,-7.561319470E-1,5.318048477E0,5.235496044E0
3.600878240E1,-7.884350419E-1,5.115854740E0,5.955735683E0
3.602833286E1,-2.021935135E-1,4.656432629E0,6.605386734E0
3.604788333E1,4.977070987E-1,4.498506546E0,6.776473522E0
3.606743380E1,4.055834413E-1,4.815555573E0,6.899703979E0
3.608698432E1,-7.657032460E-2,5.316852093E0,7.302894592E0
3.610653479E1,-4.881358147E-1,5.599205017E0,7.732406139E0
3.612608526E1,-5.754738450E-1,5.965306759E0,8.139185905E0
3.614563573E1,-5.359922647E-1,6.512066841E0,8.639286041E0
3.616518625E1,-4.163511395E-1,7.192824841E0,8.682356834E0
3.618473672E1,-3.098705411E-1,7.178467751E0,8.553144455E0
3.620428719E1,-1.232303679E-1,6.758527756E0,9.290133476E0
3.622383766E1,-1.674975902E-1,6.561119556E0,1.054038334E1
3.624338812E1,-5.407779217E-1,6.330212116E0,1.123669529E1
3.626293865E1,-1.830509305E-1,6.114858150E0,1.087298584E1
3.628248911E1,5.778666735E-1,6.090929985E0,1.067198944E1
3.630203958E1,8.745766878E-1,5.851647854E0,1.136112213E1
3.632159005E1,8.470591903E-1,5.143372059E0,1.187198925E1
3.634114057E1,8.219345808E-1,4.244867325E0,1.112423229E1
3.636069104E1,1.269392371E0,3.875176191E0,9.602396965E0
3.638024151E1,1.400997639E0,3.914657831E0,7.927421570E0
3.639979198E1,1.192822099E0,3.940979004E0,6.606583118E0
3.641934245E1,6.699903607E-1,4.327419758E0,5.863611698E0
3.643889297E1,-7.070791125E-1,5.168497086E0,5.960521221E0
3.645844344E1,-1.484746456E0,5.400600910E0,6.364908218E0
3.647799391E1,-1.083948612E0,4.581058979E0,6.583851337E0
3.649754438E1,4.785645287E-3,3.716053486E0,7.301698208E0
3.651709490E1,7.908278704E-1,2.999403238E0,8.420342445E0
3.653664536E1,1.228714466E0,2.609373093E0,9.038887978E0
3.655619583E1,1.221535921E0,2.577069998E0,8.767302513E0
3.657574630E1,1.134197950E0,3.079562664E0,7.761120319E0
3.659529677E1,1.313659668E0,3.846462488E0,6.738188744E0
3.661484729E1,1.028913736E0,4.401597023E0,6.485745907E0
3.663439776E1,7.202396393E-1,4.834698200E0,7.204789162E0
3.665394823E1,4.953143001E-1,5.292923450E0,7.607979774E0
3.667349870E1,2.608176768E-1,5.765506268E0,7.418946743E0
3.669304917E1,3.828516230E-2,6.120840549E0,7.371089935E0
3.671259969E1,1.639083475E-1,6.189035892E0,7.709674358E0
3.673215016E1,6.305087805E-1,5.934200287E0,8.279166222E0
3.675170063E1,1.068395257E0,5.667400360E0,8.782855988E0
3.677125109E1,1.400997639E0,5.483152866E0,9.001798630E0
3.679080156E1,1.719243050E0,5.479563713E0,9.116654396E0
3.681035208E1,1.630708575E0,5.726024628E0,9.282955170E0
3.682990255E1,1.253839016E0,6.135197163E0,9.207581520E0
3.684945302E1,1.064806104E0,6.581458569E0,8.730213165E0
3.686900349E1,1.128215909E0,6.643671989E0,8.700303078E0
3.688855396E1,1.056431174E0,6.253642082E0,9.262616158E0
3.690810448E1,8.207381964E-1,5.791827202E0,1.024247742E1
3.692765495E1,5.084748268E-1,5.568098068E0,1.159801102E1
3.694720542E1,-3.984049559E-1,5.046463013E0,1.251206970E1
3.696675589E1,-1.207179070E0,4.560719967E0,1.273579884E1
3.698630635E1,-1.678565025E0,4.065405846E0,1.183370399E1
3.700585688E1,-1.779063582E0,3.320041418E0,1.015155029E1
3.702540734E1,-1.049252748E0,1.996810555E0,9.376275063E0
3.704495781E1,-2.763710022E-1,5.730810165E-1,9.196813583E0
3.706450828E1,-3.062812984E-1,3.086741269E-1,9.480362892E0
3.708405875E1,-6.675975323E-1,1.179661512E0,9.564111710E0
3.710360927E1,-9.607182741E-1,2.592623234E0,8.279166222E0
3.712315974E1,-6.305087805E-1,4.624129772E0,6.102894306E0
3.714271021E1,-9.810572863E-2,5.929414749E0,4.907679081E0
3.716226068E1,2.871387079E-2,5.992824078E0,5.181657314E0
3.718181115E1,-5.180460811E-1,5.653043270E0,5.569294930E0
3.720136161E1,-8.243274093E-1,5.643472195E0,6.001199245E0
3.722091214E1,-7.489534616E-1,5.452046394E0,6.614958286E0
3.724046260E1,-3.337987661E-1,5.057230473E0,7.249056339E0
3.726001307E1,4.869394004E-1,4.902893543E0,7.401000500E0
3.727956354E1,1.086341500E0,4.937589645E0,7.062416077E0
3.729911401E1,1.164108157E0,5.138586521E0,6.896114826E0
3.731866453E1,5.635097623E-1,5.504688263E0,7.213163853E0
3.733821500E1,-1.663011760E-1,5.961717606E0,7.472784996E0
3.735776547E1,-5.491527915E-1,6.186643124E0,7.275377274E0
3.737731594E1,-7.082754970E-1,6.157928944E0,6.928418159E0
3.739686641E1,-1.079162955E0,6.090929985E0,7.103094101E0
3.741641693E1,-1.265803218E0,6.236892223E0,7.843672752E0
3.743596740E1,-7.944171429E-1,6.781259537E0,8.400003433E0
3.745551786E1,-2.440679073E-1,6.870990276E0,8.295916557E0
3.747506833E1,1.040877849E-1,6.500102520E0,8.273183823E0
3.749461880E1,-1.639083475E-1,6.319444656E0,8.370093346E0
3.751416927E1,-4.510470629E-1,6.558726788E0,8.958727837E0
3.753371974E1,-4.773681164E-1,6.673582554E0,1.030947590E1
3.755327026E1,2.955136001E-1,6.539584160E0,1.151067352E1
3.757282073E1,1.278963685E0,6.410371780E0,1.167577839E1
3.759237120E1,1.636690736E0,6.205785751E0,1.096510983E1
3.761192167E1,7.118647099E-1,5.412564754E0,1.001037312E1
3.763147214E1,-5.659025311E-1,4.693521500E0,9.722038269E0
3.765102266E1,-1.238285661E0,4.645665169E0,1.026640511E1
3.767057313E1,-1.378265858E0,4.382454872E0,9.949356079E0
3.769012359E1,-6.089733839E-1,3.859622955E0,8.818747520E0
3.770967406E1,3.134597540E-1,3.584448338E0,7.775477409E0
3.772922453E1,5.635097623E-1,3.711267948E0,6.819544315E0
3.774877500E1,3.996013701E-1,4.055834293E0,6.279963017E0
3.776832552E1,2.632104978E-2,4.202992916E0,6.250052929E0
3.778787599E1,-1.351944804E-1,4.124029636E0,6.398407936E0
3.780742646E1,-1.519442350E-1,4.060619831E0,6.375676155E0
3.782697693E1,-1.076770201E-2,4.253242016E0,6.004788399E0
3.784652740E1,3.122633696E-1,4.500899315E0,5.675775528E0
3.786607786E1,6.592226624E-1,4.566701889E0,5.826523304E0
3.788562839E1,7.070791125E-1,4.570291042E0,6.416353703E0
3.790517885E1,6.400800347E-1,4.846662045E0,6.896114826E0
3.792472932E1,7.716853023E-1,5.203192711E0,6.936792850E0
3.794427979E1,1.107876897E0,5.428118229E0,6.829115868E0
3.796383026E1,1.296909928E0,5.619544029E0,7.208378315E0
3.798338073E1,1.235892892E0,6.008377552E0,7.836493969E0
3.800293120E1,7.501499057E-1,6.351747513E0,8.281558990E0
3.802248172E1,2.488535494E-1,6.276373863E0,8.742177963E0
3.804203219E1,9.810572863E-2,6.033502102E0,9.290133476E0
3.806158266E1,4.283152521E-1,5.913861275E0,9.415757179E0
3.808113312E1,9.726824164E-1,6.183053493E0,9.110671997E0
3.810068359E1,1.306481123E0,6.458228111E0,8.595019341E0
3.812023406E1,1.642672777E0,6.771687984E0,8.423932076E0
3.813978458E1,1.703689694E0,6.870990276E0,8.312665939E0
3.815933505E1,1.466800332E0,6.793223381E0,8.535198212E0
3.817888552E1,1.056431174E0,6.508477688E0,9.233902931E0
3.819843599E1,5.371887088E-1,5.903093338E0,1.032861900E1
3.821798646E1,5.383851007E-2,5.355136871E0,1.109192944E1
3.823753693E1,-7.573283911E-1,4.801198483E0,1.156929779E1
3.825708740E1,-1.841277003E0,4.070191383E0,1.190548897E1
3.827663792E1,-2.471785784E0,3.196810961E0,1.180020523E1
3.829618838E1,-2.100898266E0,2.579462767E0,1.105364418E1
3.831573885E1,-1.141376376E0,2.423929453E0,9.859625816E0
3.833528932E1,-4.797609448E-1,2.718246460E0,8.356932640E0
3.835483979E1,-2.285145670E-1,3.393022537E0,6.726224422E0
3.837439026E1,-6.281159520E-1,3.906282902E0,5.503491879E0
3.839394073E1,-1.149751306E0,4.482953072E0,5.564508915E0
3.841349120E1,-9.667003751E-1,5.120640278E0,6.275177479E0
3.843304172E1,-6.771687865E-1,5.319244862E0,7.275377274E0
3.845259219E1,-7.393822074E-1,5.073980331E0,7.842476368E0
3.847214266E1,-1.018146038E0,4.996213913E0,7.506284714E0
3.849169313E1,-8.051848412E-1,5.095515728E0,6.786045074E0
3.851124359E1,-1.878365725E-1,5.022534847E0,6.562315941E0
3.853079406E1,2.321037948E-1,5.028516769E0,6.313462734E0
3.855034453E1,3.672982752E-1,5.246263504E0,6.234499454E0
3.856989505E1,2.105683982E-1,5.391029358E0,6.727420807E0
3.858944552E1,-1.292124242E-1,5.508277893E0,7.576872826E0
3.860899599E1,-4.917250574E-1,5.746363640E0,7.910671711E0
3.862854646E1,-5.718846321E-1,6.242874146E0,7.588837147E0
3.864809693E1,-6.305087805E-1,6.300302029E0,7.239484787E0
3.866764740E1,-5.694918036E-1,5.833701611E0,7.645068169E0
3.868719786E1,-2.476571500E-1,5.517848969E0,8.176275253E0
3.870674833E1,2.572284341E-1,5.860022545E0,8.528019905E0
3.872629885E1,2.380858511E-1,6.323033810E0,8.537590981E0
3.874584932E1,1.100698411E-1,6.629314899E0,8.764909744E0
3.876539979E1,-2.703889608E-1,6.535995007E0,9.205188751E0
3.878495026E1,-7.130611539E-1,6.431907177E0,9.884750366E0
3.880450073E1,-1.272981644E0,6.338587284E0,1.043749237E1
3.882405120E1,-9.487541914E-1,6.482156754E0,1.048056316E1
3.884360167E1,-1.471585929E-1,6.291927338E0,9.951749802E0
3.886315214E1,8.374879509E-2,5.120640278E0,8.528019905E0
3.888270266E1,5.623133183E-1,4.077369690E0,8.239685059E0
3.890225312E1,7.860422134E-1,3.690928936E0,9.225527763E0
3.892180359E1,8.207381964E-1,3.424129248E0,9.890732765E0
3.894135406E1,9.152546525E-1,3.163311481E0,9.950552940E0
3.896090453E1,1.043270707E0,3.157329559E0,9.346364975E0
3.898045500E1,9.655039310E-1,3.652643681E0,8.487341881E0
3.900000547E1,6.975077987E-1,4.200600147E0,8.055437088E0
3.901955594E1,4.211367965E-1,4.423132420E0,8.143971443E0
3.903910646E1,4.390829504E-1,4.001996040E0,8.281558990E0
3.905865693E1,4.989035130E-1,3.303291559E0,8.378468513E0
3.907820740E1,4.127618968E-1,2.967100143E0,8.333004951E0
3.909775786E1,5.036891699E-1,2.909672260E0,7.560122967E0
3.911730833E1,7.692924738E-1,3.120240688E0,6.455835342E0
3.913685880E1,7.513462901E-1,3.516252756E0,5.547759533E0
3.915640927E1,3.984049559E-1,4.250849247E0,5.691328526E0
3.917595974E1,-2.141576260E-1,4.778466702E0,6.143572330E0
3.919551026E1,-3.038884699E-1,5.216353416E0,5.925825119E0
3.921506073E1,5.264209956E-2,5.540580750E0,5.023731232E0
3.923461120E1,3.732803464E-1,5.888736725E0,4.871787071E0
3.925416167E1,4.989035130E-1,6.002395630E0,5.727221012E0
3.927371214E1,3.337987661E-1,5.696114540E0,6.555137634E0
3.929326260E1,3.948157281E-2,5.377869129E0,7.385447025E0
3.931281307E1,-1.878365725E-1,5.002195835E0,8.349754333E0
3.933236354E1,3.349951655E-2,4.456632137E0,8.879764557E0
3.935191401E1,1.109073281E0,4.305884361E0,9.101100922E0
3.937146453E1,1.395015597E0,4.680361271E0,1.040040398E1
3.939101500E1,-4.079762697E-1,4.491328239E0,1.306720448E1
3.941056547E1,-1.703689694E0,3.827319860E0,1.413799286E1
3.943011594E1,-1.722832322E0,3.037688255E0,1.373958778E1
3.944966641E1,-1.798206210E0,2.207378864E0,1.415713501E1
3.946921688E1,-2.293520451E0,2.073380709E0,1.538824272E1
3.948876734E1,-2.889333248E0,2.300698996E0,1.627358627E1
3.950831781E1,-3.527020693E0,1.849651933E0,1.601994705E1
3.952786833E1,-3.440878868E0,1.281356573E0,1.498505211E1
3.954741880E1,-2.786442041E0,9.595218897E-1,1.336152172E1
3.956696927E1,-2.270788670E0,7.860422134E-1,1.156570816E1
3.958651974E1,-2.055434704E0,8.315058947E-1,1.004028416E1
3.960607021E1,-1.975275040E0,1.003789067E0,8.934800148E0
3.962562068E1,-1.630708575E0,1.164108157E0,7.731209755E0
3.964517115E1,-9.738788009E-1,1.353141189E0,6.387639999E0
3.966472161E1,-8.733802289E-2,1.780260086E0,5.313262463E0
3.968427208E1,4.929214716E-1,2.604587555E0,4.639683247E0
3.970382255E1,1.459621787E-1,3.591626883E0,4.472185612E0
3.972337307E1,-7.118647099E-1,4.278367043E0,4.444668293E0
3.974292354E1,-1.255035520E0,4.481756687E0,4.610969067E0
3.976247401E1,-1.434497118E0,4.413561344E0,5.057230473E0
3.978202448E1,-1.427318692E0,4.504488468E0,5.812166214E0
3.980157495E1,-1.293320656E0,4.699503899E0,6.421139717E0
3.982112542E1,-1.107876897E0,4.808377266E0,6.558726788E0
3.984067588E1,-9.427721500E-1,4.985445976E0,6.488138676E0
3.986022635E1,-7.728816867E-1,5.186442852E0,6.471388817E0
3.987977682E1,-4.677968323E-1,5.234299660E0,6.526423931E0
3.989932734E1,8.255238086E-2,5.066802025E0,6.558726788E0
3.991887781E1,5.862415433E-1,4.734199524E0,6.714260101E0
3.993842828E1,5.024927258E-1,4.267599106E0,7.004988194E0
3.995797875E1,-7.298108935E-2,3.762713671E0,7.295716286E0
3.997752922E1,-5.910272002E-1,3.828516245E0,7.903493404E0
3.999707969E1,-5.288137794E-1,4.561916351E0,8.359326363E0
4.001663016E1,-2.440679073E-1,5.340780258E0,8.986245155E0
4.003618062E1,-2.069791555E-1,5.767899036E0,1.062652493E1
4.005573109E1,-1.088734269E0,5.923432350E0,1.252283764E1
4.007528156E1,-2.475374937E0,6.021538258E0,1.363191032E1
4.009483208E1,-2.687139750E0,5.625525951E0,1.482473278E1
4.011438255E1,-1.959721804E0,4.711467743E0,1.614557076E1
4.013393302E1,-8.590233326E-1,3.494717360E0,1.667079544E1
4.015348349E1,-4.199403822E-1,2.297109842E0,1.549591923E1
4.017303396E1,3.074777126E-1,1.666600943E0,1.367258835E1
4.019258443E1,1.107876897E0,1.222732425E0,1.214716434E1
4.021213490E1,1.430907965E0,9.475577474E-1,1.082752228E1
4.023168536E1,1.010967612E0,1.129412293E0,9.443274498E0
4.025123583E1,5.491527915E-1,1.637887120E0,8.072187424E0
4.027078635E1,2.404786795E-1,2.358126640E0,7.030112743E0
4.029033682E1,-7.477570772E-1,2.963510752E0,6.368497372E0
4.030988729E1,-1.712064624E0,3.395415306E0,5.605186939E0
4.032943776E1,-1.441675663E0,3.706482172E0,5.057230473E0
4.034898823E1,-6.029912829E-1,3.573680639E0,4.886143684E0
4.036853870E1,2.967100143E-1,3.602394581E0,5.088337421E0
4.038808917E1,1.055234790E0,4.016352654E0,5.380261898E0
4.040763964E1,5.024927258E-1,3.795016766E0,5.710471153E0
4.042719010E1,3.445664644E-1,4.031906128E0,6.350551128E0
4.044674057E1,2.632105052E-1,4.654039860E0,6.851847649E0
4.046629109E1,1.148554832E-1,5.424529076E0,6.843472958E0
4.048584156E1,8.195417523E-1,6.059823513E0,6.397211552E0
4.050539203E1,1.010967612E0,5.880361557E0,6.594619274E0
4.052494250E1,9.451649338E-2,5.474778175E0,7.825726509E0
4.054449297E1,-6.735795736E-1,5.446064472E0,8.792427063E0
4.056404344E1,-8.039883971E-1,5.557330608E0,9.221938133E0
4.058359391E1,-7.657032460E-2,5.813362598E0,9.450452805E0
4.060314438E1,5.994020700E-1,5.867201328E0,9.690931320E0
4.062269484E1,6.855437160E-1,5.702096462E0,9.604789734E0
4.064224531E1,8.877372146E-1,5.702096462E0,9.724431038E0
4.066179578E1,1.091127157E0,5.684150219E0,1.031306553E1
4.068134630E1,1.001396298E0,5.383851051E0,1.038604641E1
4.070089677E1,5.000999570E-1,4.737788677E0,1.010967541E1
4.072044724E1,1.447657645E-1,4.004388809E0,1.108833981E1
4.073999771E1,1.483550072E-1,3.211168051E0,1.194138145E1
4.075954818E1,3.684946895E-1,2.896511793E0,1.122951698E1
4.077909865E1,4.654040039E-1,3.408575773E0,1.017547798E1
4.079864911E1,-1.232303679E-1,3.726821184E0,9.501898766E0
4.081819958E1,-1.354337573E0,3.160918713E0,9.970891953E0
4.083775005E1,-2.264806747E0,2.763710260E0,1.013838959E1
4.085730052E1,-2.005185366E0,2.897708178E0,9.475577354E0
4.087685104E1,-1.022931695E0,3.310470104E0,8.677571297E0
4.089640151E1,-4.402793646E-1,3.572484255E0,7.805387497E0
4.091595198E1,-2.033899166E-2,4.004388809E0,6.764509678E0
4.093550245E1,-1.543370634E-1,4.366901398E0,6.309873104E0
4.095505292E1,-9.008977413E-1,4.624129772E0,7.136593342E0
