"Time (s)","Acceleration x (m/s^2)","Acceleration y (m/s^2)","Acceleration z (m/s^2)"
1.288843200E-2,-3.610950232E0,4.780050278E0,7.137000561E0
3.278843200E-2,-3.757050276E0,4.873950005E0,7.678050518E0
5.268820700E-2,-3.532050133E0,5.022000313E0,7.977000237E0
7.258811100E-2,-3.429000139E0,5.230050087E0,7.741950512E0
9.248813000E-2,-3.394950151E0,5.307000160E0,7.210950375E0
1.123879330E-1,-3.472050190E0,5.446050167E0,6.789000511E0
1.322878750E-1,-3.676050186E0,5.542050362E0,7.041000366E0
1.521876400E-1,-3.667950153E0,5.443950176E0,7.584000587E0
1.720875580E-1,-3.538950205E0,5.332950115E0,7.837950230E0
1.919875530E-1,-3.361950159E0,5.245050430E0,7.809000492E0
2.118873130E-1,-3.520050049E0,5.412000179E0,7.684950352E0
2.317872360E-1,-3.649050236E0,5.617950439E0,7.558050156E0
2.516869950E-1,-3.679950237E0,5.803050041E0,7.287000179E0
2.715869800E-1,-3.331050158E0,5.704050064E0,7.635000229E0
2.914868900E-1,-2.971950054E0,5.476950169E0,7.909950256E0
3.113866640E-1,-3.016950130E0,5.757000446E0,7.687050343E0
3.312865920E-1,-3.292050123E0,6.103950500E0,7.594050407E0
3.511863610E-1,-3.427050114E0,6.238050461E0,7.845000267E0
3.710863410E-1,-2.851950169E0,5.482050419E0,7.720950603E0
3.909862690E-1,-2.635950089E0,5.314050198E0,7.275000572E0
4.108860630E-1,-2.943000078E0,5.460000038E0,7.005000114E0
4.307859670E-1,-2.659950018E0,5.338050365E0,7.333050251E0
4.506859520E-1,-1.651950121E0,4.728000164E0,7.402050495E0
4.705857160E-1,-1.602000117E0,5.191950321E0,6.696000099E0
4.904856590E-1,-1.861050129E0,5.544000149E0,6.550050259E0
5.103854250E-1,-2.650950193E0,5.965050220E0,6.997950554E0
5.302854290E-1,-3.087000132E0,6.046950340E0,6.708000183E0
5.501853570E-1,-3.082050085E0,6.139950275E0,7.000050545E0
5.700851550E-1,-2.778000116E0,5.245050430E0,7.813950539E0
5.899851020E-1,-2.730000019E0,4.948050022E0,8.410050392E0
6.098851160E-1,-2.134050131E0,5.551050186E0,8.455950737E0
6.297848520E-1,-2.548050165E0,6.873000145E0,8.452950478E0
6.496847850E-1,-3.781050205E0,6.394050121E0,8.259000778E0
6.695845540E-1,-3.625050068E0,5.917950153E0,9.330000877E0
6.894845250E-1,-3.862050295E0,5.329050064E0,1.038300037E1
7.093844380E-1,-4.123050213E0,4.048050404E0,1.007700062E1
7.292842070E-1,-2.823000193E0,3.922950268E0,8.962950706E0
7.491841980E-1,-2.115000010E0,3.909000158E0,8.449049950E0
7.690841260E-1,-2.008949995E0,4.621950150E0,8.212050438E0
7.889838960E-1,-1.468050122E0,5.830950260E0,8.604000092E0
8.088838430E-1,9.000000358E-2,6.250050068E0,8.520000458E0
8.287836260E-1,2.809500098E-1,5.098950386E0,9.688950539E0
8.486836210E-1,-3.070500195E-1,4.084050179E0,9.279000282E0
8.685835250E-1,-5.490000248E-1,3.207000256E0,8.367000580E0
8.884832610E-1,-1.200000048E-1,3.214050055E0,8.149050713E0
9.083832560E-1,2.569500208E-1,3.612000227E0,8.188050270E0
9.282832030E-1,4.890000224E-1,3.391950130E0,8.197050095E0
9.481829820E-1,4.530000091E-1,3.267000198E0,7.654050350E0
9.680829140E-1,4.969500303E-1,3.396000147E0,7.801950455E0
9.879829050E-1,6.640500426E-1,3.376950264E0,8.479949951E0
1.007882704E0,9.919500351E-1,3.195000172E0,9.469050407E0
1.027782713E0,1.440000057E0,3.150000095E0,9.508950233E0
1.047682636E0,2.019000053E0,3.540000200E0,8.937000275E0
1.067582410E0,2.316000223E0,3.862950087E0,8.572950363E0
1.087482318E0,2.263050079E0,4.087950230E0,8.580000877E0
1.107382333E0,2.436000109E0,4.291950226E0,8.476950645E0
1.127282102E0,3.115950108E0,3.652950287E0,8.559000015E0
1.147182077E0,3.180000067E0,4.074000359E0,9.415950775E0
1.167082021E0,2.706000090E0,4.427999973E0,9.946950912E0
1.186981780E0,2.139000177E0,4.627050400E0,9.700950623E0
1.206881790E0,2.092950106E0,6.009000301E0,9.358050346E0
1.226781708E0,1.797000051E0,6.432000160E0,9.106950760E0
1.246681472E0,1.606950045E0,5.961000443E0,9.097050667E0
1.266581380E0,1.710000038E0,5.800050259E0,8.829000473E0
1.286481372E0,1.686000109E0,5.929950237E0,8.362050056E0
1.306381169E0,1.615050077E0,6.118950367E0,8.072999954E0
1.326281150E0,1.603050113E0,6.162000179E0,8.121000290E0
1.346181073E0,1.512000084E0,6.127950191E0,8.203949928E0
1.366081073E0,1.129050016E0,6.234000206E0,7.978950500E0
1.385980837E0,8.719500303E-1,6.796050549E0,8.233050346E0
1.405880765E0,5.920500159E-1,7.207950115E0,8.788949966E0
1.425780740E0,-7.695000619E-2,6.661950111E0,9.042000771E0
1.445680500E0,-7.500000596E-1,5.182950020E0,9.133049965E0
1.465580496E0,-8.310000300E-1,3.894000292E0,9.883050919E0
1.485480409E0,-3.720000088E-1,3.226050138E0,1.043805027E1
1.505380183E0,-1.150500029E-1,3.097050190E0,1.019895077E1
1.525280183E0,-8.895000070E-2,3.598050117E0,9.495000839E0
1.545180101E0,-1.005000062E-2,4.402050018E0,8.992050171E0
1.565080101E0,-2.350500077E-1,4.869000435E0,8.674050331E0
1.584979875E0,-3.190500140E-1,5.035950184E0,8.190000534E0
1.604879875E0,-6.495000422E-2,5.038950443E0,7.996050358E0
1.624779770E0,2.329500169E-1,4.756050110E0,8.190000534E0
1.644679530E0,5.610000491E-1,4.297049999E0,8.236050606E0
1.664579543E0,1.002000093E0,3.952050209E0,7.723050594E0
1.684479458E0,1.447050095E0,3.874950171E0,6.892050266E0
1.704379448E0,1.689000130E0,3.904050112E0,6.190950394E0
1.724279232E0,1.809000134E0,3.925950289E0,6.229050159E0
1.744179226E0,1.746000051E0,3.628950119E0,6.757950306E0
1.764079149E0,1.816050053E0,3.243000269E0,7.101000309E0
1.783978914E0,2.065050125E0,3.163950205E0,7.371000290E0
1.803878909E0,2.009999990E0,2.953950167E0,7.836000443E0
1.823778851E0,1.674000025E0,2.695050240E0,8.281050682E0
1.843678640E0,1.066050053E0,2.584950209E0,8.748000145E0
1.863578630E0,3.430500031E-1,2.731050014E0,9.447000504E0
1.883478553E0,-4.840500355E-1,3.169050217E0,1.010805035E1
1.903378563E0,-1.192950010E0,3.657000065E0,1.049100018E1
1.923278337E0,-1.356000066E0,4.291950226E0,1.064205074E1
1.943178346E0,-1.353000045E0,4.536000252E0,1.047195053E1
1.963078274E0,-1.348050117E0,4.522050381E0,1.049295044E1
1.982978029E0,-1.273950100E0,4.294050217E0,1.064400005E1
2.002878044E0,-1.047000051E0,4.210050106E0,1.085505009E1
2.022778044E0,-6.780000329E-1,4.749000072E0,1.047900009E1
2.042677953E0,-7.470000386E-1,4.736999989E0,9.484950066E0
2.062577963E0,-1.449000120E0,4.002000332E0,9.576000214E0
2.082477722E0,-1.413000107E0,4.063950062E0,1.066095066E1
2.102377737E0,-6.109500527E-1,4.615050316E0,1.082595062E1
2.122277756E0,3.430500031E-1,5.032050133E0,9.531000137E0
2.142177660E0,1.062000036E0,5.410050392E0,7.575000286E0
2.162077420E0,1.155000091E0,5.683050156E0,6.093000412E0
2.181977425E0,9.180000424E-1,5.733000278E0,5.635050297E0
2.201877357E0,7.810500264E-1,5.757000446E0,6.102000237E0
2.221777146E0,7.480500340E-1,5.898000240E0,6.888000488E0
2.241677145E0,8.050500154E-1,5.944050312E0,7.387950420E0
2.261577140E0,9.850500226E-1,5.661000252E0,7.500000477E0
2.281477150E0,9.919500351E-1,5.044050217E0,7.885950565E0
2.301377086E0,7.690500617E-1,4.210050106E0,8.578050613E0
2.321276866E0,5.520000458E-1,3.361050129E0,9.390000343E0
2.341176866E0,3.270000219E-1,2.869950056E0,1.021800041E1
2.361076798E0,-1.660500020E-1,2.760000229E0,1.088100052E1
2.380976789E0,-5.509500504E-1,2.875050068E0,1.101000023E1
2.400876553E0,-7.620000243E-1,2.974950075E0,1.087200069E1
2.420776543E0,-7.549500465E-1,2.869950056E0,1.039695072E1
2.440676433E0,-4.099500179E-1,2.949000120E0,9.640950203E0
2.460576447E0,-1.995000057E-2,3.223950148E0,8.832000732E0
2.480476212E0,1.590000093E-1,3.388950109E0,8.310000420E0
2.500376227E0,1.450500041E-1,3.576000214E0,8.323950768E0
2.520276226E0,-1.750500053E-1,3.865950108E0,8.446050644E0
2.540176140E0,-6.610500216E-1,4.147950172E0,8.427000046E0
2.560076121E0,-1.063050032E0,4.321050167E0,8.479949951E0
2.579976130E0,-1.210050106E0,4.498050213E0,8.722050667E0
2.599875894E0,-1.396050096E0,4.468950272E0,8.968050003E0
2.619775890E0,-1.774950027E0,4.218000412E0,9.279000282E0
2.639675798E0,-2.188950062E0,4.069050312E0,9.811050415E0
2.659575808E0,-2.647950172E0,3.784050226E0,1.035000038E1
2.679475578E0,-2.770950079E0,3.298050165E0,1.045695019E1
2.699375607E0,-2.103000164E0,3.279000044E0,1.034205055E1
2.719275545E0,-1.126049995E0,3.523050070E0,1.049595070E1
2.739175574E0,-5.509500504E-1,3.880050182E0,1.012695026E1
2.759075612E0,-7.069500089E-1,4.024050236E0,9.756000519E0
2.778975362E0,-1.303050041E0,3.889950275E0,1.049805069E1
2.798875342E0,-1.585050106E0,3.502050161E0,1.168605042E1
2.818775251E0,-1.506000042E0,3.028050184E0,1.207605076E1
2.838675241E0,-1.023000002E0,2.709000111E0,1.182405090E1
2.858575002E0,-4.050000310E-1,2.769000053E0,1.135800076E1
2.878475026E0,-6.495000422E-2,2.938950062E0,1.089300060E1
2.898374939E0,3.705000132E-2,3.298050165E0,9.828000069E0
2.918274929E0,-1.680000126E-1,3.303000212E0,8.487000465E0
2.938174694E0,7.500000298E-2,3.211950064E0,7.659000397E0
2.958074693E0,5.059500337E-1,3.186000109E0,7.294950485E0
2.977974693E0,6.859500408E-1,2.937000036E0,7.033950329E0
2.997874684E0,6.070500016E-1,2.520000219E0,6.780000210E0
3.017774562E0,3.150000274E-1,2.226000071E0,6.739050388E0
3.037674562E0,1.710000038E-1,2.137050152E0,6.853950500E0
3.057574313E0,-7.695000619E-2,1.984050035E0,7.189050198E0
3.077474294E0,-2.950500250E-1,1.696950078E0,7.681950569E0
3.097374217E0,-3.739500046E-1,1.579050064E0,8.109000206E0
3.117274260E0,-3.400500119E-1,1.869000077E0,8.295000076E0
3.137174255E0,-2.020500153E-1,2.245050192E0,8.194950104E0
3.157074034E0,-1.560000032E-1,2.532000065E0,8.158950806E0
3.176974033E0,-1.729500145E-1,2.956050158E0,8.002950668E0
3.196874014E0,-1.060500070E-1,3.598050117E0,7.659000397E0
3.216773932E0,-4.069500268E-1,3.780000210E0,7.800000191E0
3.236673933E0,-9.580500722E-1,3.480000257E0,8.370000839E0
3.256573702E0,-1.392000079E0,3.351000071E0,9.162000656E0
3.276473707E0,-1.546950102E0,3.301050186E0,1.004805088E1
3.296373697E0,-1.447050095E0,3.255000114E0,1.106100082E1
3.316273620E0,-1.018050075E0,3.028050184E0,1.150605011E1
3.336173650E0,-4.530000091E-1,2.796000242E0,1.128300095E1
3.356073419E0,-6.795000285E-2,2.851050138E0,1.080405045E1
3.375973419E0,-1.129500046E-1,2.956050158E0,1.096005058E1
3.395873414E0,-7.039500475E-1,2.896050215E0,1.145805073E1
3.415773367E0,-1.485000014E0,2.455950022E0,1.221195030E1
3.435673348E0,-2.019000053E0,2.179949999E0,1.337295055E1
3.455573353E0,-2.184000015E0,1.986000061E0,1.376100063E1
3.475473112E0,-2.104950190E0,1.510050058E0,1.364400101E1
3.495373122E0,-1.705050111E0,1.467000127E0,1.337100029E1
3.515273054E0,-1.020000100E0,1.902000070E0,1.215705013E1
3.535173141E0,-2.539499998E-1,2.167950153E0,1.023000050E1
3.555073064E0,2.479500175E-1,2.213999987E0,8.282999992E0
3.574973049E0,6.930000186E-1,2.398050070E0,7.158000469E0
3.594872805E0,9.300000668E-1,2.452950001E0,6.933000565E0
3.614772795E0,9.390000701E-1,2.167950153E0,7.249050140E0
3.634672713E0,7.069500089E-1,1.732050061E0,7.728000164E0
3.654572684E0,4.650000334E-1,1.444950104E0,8.236050606E0
3.674472703E0,3.000000119E-2,1.165050030E0,8.800950050E0
3.694372472E0,-6.919500232E-1,8.200500607E-1,9.145050049E0
3.714272452E0,-1.449000120E0,6.460500360E-1,9.519000053E0
3.734172423E0,-2.055000067E0,7.050000429E-1,1.007895088E1
3.754072351E0,-2.292000055E0,1.117050052E0,1.050795078E1
3.773972380E0,-2.185950041E0,1.588950038E0,1.023900032E1
3.793872399E0,-1.807950139E0,1.906950116E0,9.469050407E0
3.813772155E0,-1.341000080E0,2.163000107E0,8.973000526E0
3.833672174E0,-9.030000567E-1,2.464950085E0,8.889000893E0
3.853572174E0,-3.520500064E-1,2.860050201E0,8.905950546E0
3.873472097E0,9.405000508E-2,3.234000206E0,8.700000763E0
3.893372092E0,1.110000089E-1,3.471000195E0,8.464950562E0
3.913271861E0,-7.260000110E-1,3.643050194E0,8.341050148E0
3.933171856E0,-2.042999983E0,3.993000269E0,8.358000755E0
3.953071870E0,-3.265950203E0,4.392000198E0,8.611050606E0
3.972971828E0,-3.907950163E0,4.825950146E0,8.877000809E0
3.992871784E0,-4.030050278E0,4.972050190E0,8.644950867E0
4.012771771E0,-3.963000298E0,4.894950390E0,8.355000496E0
4.032671790E0,-4.011000156E0,4.747050285E0,8.506050110E0
4.052571554E0,-3.847950220E0,4.866000175E0,8.776950836E0
4.072471554E0,-4.123050213E0,4.597949982E0,8.559000015E0
4.092371444E0,-4.626000404E0,4.190999985E0,8.479949951E0
4.112271434E0,-4.966050148E0,3.918000221E0,8.659049988E0
4.132171429E0,-5.635950089E0,3.064050198E0,8.841000557E0
4.152071419E0,-6.070050240E0,2.098950148E0,9.603000641E0
4.171971183E0,-5.919000149E0,1.756050110E0,1.066995049E1
4.191871175E0,-5.493000031E0,1.711050034E0,1.087605095E1
4.211771189E0,-4.956000328E0,1.843050122E0,9.910950661E0
4.231671136E0,-4.501950264E0,1.962000132E0,8.419950485E0
4.251571146E0,-4.144950390E0,2.247000217E0,7.074000359E0
4.271471131E0,-4.027950287E0,2.518050194E0,6.073950291E0
4.291370910E0,-4.027950287E0,2.616000175E0,5.470050335E0
4.311270958E0,-3.847950220E0,2.563050032E0,5.461050034E0
4.331170963E0,-3.525000095E0,2.185050011E0,5.989950180E0
4.351070972E0,-2.956950188E0,1.789950132E0,6.583950520E0
4.370970895E0,-2.409000158E0,1.476000071E0,7.077000141E0
4.390870890E0,-1.885050058E0,1.309050083E0,7.555950165E0
4.410770675E0,-1.413000107E0,1.393050075E0,7.965000153E0
4.430670665E0,-1.051950097E0,1.615050077E0,8.215950012E0
4.450570670E0,-7.759500146E-1,1.914000034E0,8.307000160E0
4.470470665E0,-7.639500499E-1,2.287950039E0,8.215950012E0
4.490370684E0,-1.150050044E0,2.581950188E0,8.254950523E0
4.510270598E0,-1.597050071E0,2.716950178E0,8.868000031E0
4.530170602E0,-1.971000075E0,2.269050121E0,1.037595081E1
4.550070617E0,-2.422950029E0,3.030000210E0,1.183605099E1
4.569970400E0,-2.470950127E0,4.479000092E0,1.307895088E1
4.589870381E0,-5.083050251E0,3.130950212E0,1.256895065E1
4.609770266E0,-5.869050503E0,3.693000078E0,1.278495026E1
4.629670323E0,-4.084949970E0,4.597949982E0,1.206405067E1
4.649570242E0,-3.658950090E0,4.230000019E0,1.107495022E1
4.669470228E0,-2.773050070E0,4.345050335E0,1.019205093E1
4.689369997E0,-1.669050097E0,4.207950115E0,9.931050301E0
4.709270011E0,-1.885050058E0,3.316950083E0,1.021605015E1
4.729170016E0,-2.476050138E0,2.539050102E0,1.157100010E1
4.749069948E0,-3.249000072E0,1.302000046E0,1.280100060E1
4.768969972E0,-3.225000143E0,1.084050059E0,1.405095100E1
4.788869972E0,-2.011950016E0,1.123950005E0,1.441500092E1
4.808770000E0,-7.240500450E-1,1.804050088E0,1.247595024E1
4.828669752E0,-9.649500251E-1,1.066950083E0,9.184050560E0
4.848569737E0,-1.090050101E0,1.321050048E0,8.046000481E0
4.868469713E0,-9.510000348E-1,1.429500133E-1,8.334000587E0
4.888369727E0,-5.179499984E-1,-7.230000496E-1,9.028050423E0
4.908269655E0,-3.090000153E-1,-7.450500131E-1,1.033800030E1
4.928169703E0,-6.495000422E-2,-1.233000040E0,1.080900097E1
4.948069487E0,5.010000467E-1,-1.513050079E0,1.010100079E1
4.967969472E0,9.510000348E-1,-1.978050113E0,8.728950500E0
4.987869487E0,1.144950032E0,-1.410000086E0,7.338000298E0
5.007769410E0,1.429950118E0,-7.609500289E-1,6.046950340E0
5.027669405E0,1.480950117E0,-2.179500163E-1,5.382000446E0
5.047569400E0,9.469500184E-1,1.120500043E-1,4.467000008E0
5.067469367E0,6.349500418E-1,5.260500312E-1,4.321050167E0
5.087369112E0,5.659500360E-1,9.229500294E-1,4.033950329E0
5.107269102E0,1.129500046E-1,9.229500294E-1,4.114950180E0
5.127169073E0,-5.179499984E-1,1.062000036E0,5.037000179E0
5.147069049E0,-1.047000051E0,1.303950071E0,6.367950439E0
5.166968972E0,-1.480050087E0,1.383000016E0,7.639050484E0
5.186868987E0,-1.854000092E0,1.234050035E0,8.962950706E0
5.206768962E0,-2.413950205E0,8.490000367E-1,1.010505009E1
5.226668745E0,-3.400050163E0,3.990000188E-1,1.124295044E1
5.246568716E0,-4.516050339E0,7.129500508E-1,1.227195072E1
5.266468703E0,-5.329950333E0,1.414050102E0,1.347600079E1
5.286368736E0,-5.337000370E0,1.720950127E0,1.443405056E1
5.306268655E0,-4.651950359E0,1.776000142E0,1.460400105E1
5.326168645E0,-3.730950117E0,1.074000001E0,1.461600113E1
5.346068640E0,-3.609000206E0,4.489500225E-1,1.552800083E1
5.365968409E0,-4.156949997E0,2.070000172E-1,1.699800110E1
5.385868447E0,-3.972000122E0,-7.560000420E-1,1.729995155E1
5.405768447E0,-2.646000147E0,-2.037000179E0,1.663905144E1
5.425668481E0,-1.200000048E0,-3.096000195E0,1.537695026E1
5.445568496E0,-6.900000572E-1,-3.607950211E0,1.367805099E1
5.465468510E0,-1.273950100E0,-3.490950108E0,1.214505100E1
5.485368447E0,-2.167050123E0,-2.599950075E0,1.045995045E1
5.505268466E0,-2.634000063E0,-1.480050087E0,8.590050697E0
5.525168241E0,-2.719950199E0,-8.089500666E-1,7.254000187E0
5.545068251E0,-2.814000130E0,-8.470500112E-1,6.490050316E0
5.564968260E0,-3.454950094E0,-7.540500164E-1,6.148050308E0
5.584868270E0,-3.892950296E0,-4.500000179E-1,5.580000401E0
5.604768178E0,-3.891000271E0,-3.850500286E-1,5.449050426E0
5.624668188E0,-3.348000050E0,-8.119500279E-1,5.676000118E0
5.644568207E0,-2.361000061E0,-1.338000059E0,5.536950111E0
5.664468207E0,-1.417950034E0,-1.936950088E0,5.419950485E0
5.684368193E0,-5.610000491E-1,-2.301000118E0,5.305050373E0
5.704267957E0,2.070000172E-1,-2.454000235E0,5.122950077E0
5.724167967E0,6.690000296E-1,-2.346000195E0,4.963050365E0
5.744067943E0,8.920500278E-1,-1.936950088E0,5.140050411E0
5.763967909E0,1.114050031E0,-1.626000047E0,5.929950237E0
5.783867842E0,1.392000079E0,-1.362000108E0,7.570050240E0
5.803767842E0,9.660000205E-1,-8.239500523E-1,9.492000580E0
5.823667832E0,-1.129500046E-1,-2.400000021E-2,1.109895039E1
5.843567601E0,-4.819500148E-1,7.960500121E-1,1.149195099E1
5.863467572E0,-1.695000008E-2,1.120050073E0,1.152000046E1
5.883367592E0,-4.099500179E-1,5.089499950E-1,1.141500092E1
5.903267572E0,-1.606950045E0,1.020000055E-1,1.180800056E1
5.923167505E0,-2.397000074E0,7.200000286E-1,1.324200058E1
5.943067582E0,-2.383050203E0,1.411950111E0,1.423305035E1
5.962967563E0,-1.782000065E0,8.659500480E-1,1.489605045E1
5.982867467E0,-7.860000134E-1,-1.560000032E-1,1.630905151E1
6.002767482E0,-4.360500276E-1,-5.940000415E-1,1.682100105E1
6.022667255E0,-3.790500164E-1,-2.490000129E-1,1.582995033E1
6.042567232E0,-5.149500370E-1,-8.400000632E-2,1.486695099E1
6.062467223E0,-5.440500379E-1,-4.260000288E-1,1.457295036E1
6.082367241E0,2.700000070E-2,-6.919500232E-1,1.423095036E1
6.102267260E0,8.250000477E-1,-1.180050015E0,1.363905048E1
6.122167155E0,1.150050044E0,-1.912950039E0,1.313400078E1
6.142067159E0,1.069050074E0,-2.455950022E0,1.286805058E1
6.161966935E0,7.459500432E-1,-2.521050215E0,1.219800091E1
6.181866939E0,4.969500303E-1,-2.397000074E0,1.116795063E1
6.201766910E0,2.520000041E-1,-2.257950068E0,1.000200081E1
6.221666934E0,-6.000000238E-2,-2.061000109E0,8.941950798E0
6.241566905E0,-3.810000122E-1,-1.875000119E0,8.365050316E0
6.261466901E0,-5.440500379E-1,-1.663950086E0,8.005949974E0
6.281366819E0,-5.509500504E-1,-1.482000113E0,7.555950165E0
6.301266833E0,-5.629500151E-1,-1.237950087E0,7.057950497E0
6.321166828E0,-7.879500389E-1,-1.003050089E0,6.840000153E0
6.341066823E0,-1.123050094E0,-1.044000030E0,6.418050289E0
6.360966607E0,-1.152000070E0,-1.186950088E0,5.980050087E0
6.380866616E0,-1.027950048E0,-1.609050035E0,5.710050106E0
6.400766626E0,-1.123050094E0,-1.602000117E0,5.916000366E0
6.420666597E0,-1.570950031E0,-1.156050086E0,6.727050304E0
6.440566569E0,-2.239050150E0,-6.250500083E-1,7.812000275E0
6.460466632E0,-2.845050097E0,2.050500065E-1,8.149050713E0
6.480366534E0,-2.686950207E0,1.135950089E0,7.522050381E0
6.500266544E0,-2.521950006E0,1.357050061E0,7.225050449E0
6.520166568E0,-2.929050207E0,1.004999995E0,7.210950375E0
6.540066568E0,-3.208950043E0,8.800500631E-1,7.543950558E0
6.559966356E0,-3.427050114E0,6.859500408E-1,8.439000130E0
6.579866582E0,-3.642000198E0,4.990500212E-1,9.876000404E0
6.599766366E0,-3.979950190E0,1.950000077E-1,1.151805019E1
6.619666395E0,-4.174050331E0,-2.370000184E-1,1.347195053E1
6.639566404E0,-4.351050377E0,-6.220500469E-1,1.435995102E1
6.659466380E0,-4.846050262E0,-1.183050036E0,1.468095112E1
6.679366375E0,-5.614950180E0,-1.827000141E0,1.570500088E1
6.699266303E0,-5.944950104E0,-1.899000049E0,1.728795052E1
6.719166385E0,-4.738950253E0,-1.434000015E0,1.843695068E1
6.739066318E0,-2.938050032E0,-1.684950113E0,1.710405159E1
6.758966304E0,-2.416050196E0,-2.278950214E0,1.399095058E1
6.778866318E0,-2.991000175E0,-2.071050167E0,1.118505096E1
6.798766096E0,-3.048000097E0,-1.048950076E0,9.799050331E0
6.818666087E0,-2.422950029E0,-6.030000448E-1,8.947050095E0
6.838566068E0,-1.530000091E0,-9.190500379E-1,8.046000481E0
6.858466053E0,-6.330000162E-1,-1.269000053E0,7.053000450E0
6.878366058E0,4.905000329E-2,-1.405050039E0,6.373050213E0
6.898266063E0,3.430500031E-1,-1.345050097E0,6.093000412E0
6.918166058E0,2.710500062E-1,-1.171050072E0,5.935050488E0
6.938066029E0,1.969500035E-1,-8.140500188E-1,5.776950359E0
6.957965933E0,2.020500153E-1,-4.999500215E-1,5.487000465E0
6.977865923E0,2.280000150E-1,-2.629500031E-1,5.407950401E0
6.997765934E0,3.220500052E-1,-6.705000252E-2,5.106000423E0
7.017665929E0,4.729500115E-1,-2.389500141E-1,4.933950424E0
7.037565929E0,6.780000329E-1,-3.300000131E-1,5.281050205E0
7.057465929E0,8.700000644E-1,-3.730500042E-1,5.833950043E0
7.077365698E0,9.589500427E-1,-4.909500182E-1,6.694050312E0
7.097265698E0,9.559500217E-1,-2.580000162E-1,7.495950222E0
7.117165708E0,9.799500704E-1,-1.200000048E-1,7.860000610E0
7.137065703E0,9.060000181E-1,-2.130000144E-1,9.001950264E0
7.156965631E0,7.260000110E-1,-1.150500029E-1,9.730050087E0
7.176865631E0,6.019500494E-1,9.705000371E-2,1.016805077E1
7.196765621E0,2.670000196E-1,-1.819500029E-1,1.077600098E1
7.216665616E0,-3.450000286E-1,-1.093950033E0,1.234605026E1
7.236565621E0,-3.690000176E-1,-1.530000091E0,1.492305088E1
7.256465631E0,-7.005000114E-2,-1.161000013E0,1.628505135E1
7.276365415E0,-1.630500108E-1,-1.257000089E0,1.631595039E1
7.296265458E0,-4.960500300E-1,-1.525050044E0,1.584405041E1
7.316165449E0,-5.250000358E-1,-1.555950046E0,1.510395050E1
7.336065434E0,-3.810000122E-1,-1.338000059E0,1.453695107E1
7.355965434E0,-2.569500208E-1,-1.225950003E0,1.383795071E1
7.375865429E0,-2.700000070E-2,-1.009950042E0,1.299300098E1
7.395765444E0,-4.095000029E-2,-1.000950098E0,1.165905094E1
7.415665439E0,-1.609500051E-1,-1.278000116E0,1.076100063E1
7.435565351E0,-3.930000067E-1,-1.531950116E0,1.074000072E1
7.455465356E0,-8.119500279E-1,-1.884000063E0,1.098600006E1
7.475365351E0,-1.248000026E0,-2.217000008E0,1.161900043E1
7.495265380E0,-1.557000041E0,-2.382000208E0,1.179795074E1
7.515165395E0,-1.618950129E0,-2.521050215E0,1.116600037E1
7.535065189E0,-1.510950089E0,-2.502000093E0,1.001895046E1
7.554965184E0,-1.468050122E0,-2.308050156E0,9.061950684E0
7.574865193E0,-1.501950026E0,-2.035050154E0,8.346000671E0
7.594765174E0,-1.638000131E0,-1.723950028E0,7.819050312E0
7.614665169E0,-1.849050045E0,-1.405050039E0,7.237050533E0
7.634565174E0,-2.212949991E0,-1.135050058E0,6.829950333E0
7.654465193E0,-2.565000057E0,-8.740500212E-1,6.799050331E0
7.674365097E0,-2.613000154E0,-3.970500231E-1,7.078950405E0
7.694265111E0,-2.518950224E0,-8.400000632E-2,7.309050560E0
7.714165092E0,-2.407050133E0,-1.699500084E-1,7.512000561E0
7.734065092E0,-2.494950056E0,-3.850500286E-1,7.668000221E0
7.753965058E0,-2.638950109E0,-3.349500299E-1,7.771050453E0
7.773865058E0,-2.734950066E0,-5.700000376E-2,7.848000526E0
7.793764833E0,-2.835000038E0,1.999500096E-1,7.957950592E0
7.813664813E0,-3.076950073E0,2.939999998E-1,8.121000290E0
7.833564813E0,-3.312000275E0,3.030000031E-1,8.295000076E0
7.853464813E0,-3.312000275E0,4.110000134E-1,8.647050858E0
7.873364818E0,-3.436050177E0,3.319500089E-1,8.920050621E0
7.893264808E0,-4.284000397E0,-1.120500043E-1,9.427950859E0
7.913164823E0,-5.514000416E0,-2.080500126E-1,1.087605095E1
7.933064799E0,-6.108000278E0,-1.200000010E-2,1.250205040E1
7.952964726E0,-5.731950283E0,-3.090000153E-1,1.388595104E1
7.972864722E0,-4.944000244E0,-1.254000068E0,1.515705109E1
7.992764722E0,-4.047000408E0,-2.373000145E0,1.599300098E1
8.012664707E0,-3.048000097E0,-3.679950237E0,1.601700020E1
8.032564697E0,-2.191050053E0,-4.470000267E0,1.502295113E1
8.052464697E0,-1.911000133E0,-4.005000114E0,1.336605072E1
8.072364736E0,-2.968950033E0,-2.574000120E0,1.152495098E1
8.092264491E0,-4.223999977E0,-7.230000496E-1,9.937950134E0
8.112164501E0,-4.648050308E0,8.419500589E-1,8.896050453E0
8.132064491E0,-4.309950352E0,1.378050089E0,8.237999916E0
8.151964482E0,-3.280950069E0,1.255950093E0,7.969950199E0
8.171864462E0,-2.023950100E0,9.520500302E-1,7.756950378E0
8.191764377E0,-1.018050075E0,9.420000315E-1,7.072050571E0
8.211664377E0,-1.699500084E-1,1.504950047E0,6.607050419E0
8.231564395E0,6.599999964E-2,1.359000087E0,6.294000149E0
8.251464409E0,1.090500057E-1,1.099950075E0,5.683050156E0
8.271364404E0,1.399500072E-1,5.740500093E-1,5.236050129E0
8.291264173E0,6.670500040E-1,1.093050003E0,5.872050285E0
8.311164202E0,9.540000558E-1,1.081050038E0,6.415950298E0
8.331064197E0,1.042050004E0,9.420000315E-1,6.481050491E0
8.350964202E0,1.272000074E0,1.002000093E0,6.556950092E0
8.370864189E0,1.369950056E0,1.065000057E0,7.789950371E0
8.390764194E0,1.560000062E0,1.752000093E0,1.007700062E1
8.410664237E0,7.069500089E-1,2.034000158E0,1.109400082E1
8.430564155E0,3.739500046E-1,2.821950197E0,1.114395046E1
8.450464151E0,8.010000587E-1,3.667050123E0,1.115895081E1
8.470364155E0,7.140000463E-1,4.087950230E0,1.101495075E1
8.490264164E0,1.009500027E-1,4.242000103E0,1.054605007E1
8.510164174E0,-1.870500147E-1,4.516950130E0,1.021305084E1
8.530063910E0,-1.129500046E-1,4.708050251E0,1.000500011E1
8.549963924E0,4.030500054E-1,4.834950447E0,1.003395081E1
8.569863928E0,7.740000486E-1,5.022000313E0,9.799050331E0
8.589763928E0,4.890000224E-1,4.897950172E0,9.331950188E0
8.609663905E0,2.449500114E-1,4.807050228E0,9.325050354E0
8.629563852E0,1.570500135E-1,4.633950233E0,9.571050644E0
8.649463862E0,9.195000678E-2,4.183950424E0,9.828000069E0
8.669363852E0,1.570500135E-1,3.652950287E0,9.994950294E0
8.689263823E0,2.830500007E-1,3.139950037E0,1.011495018E1
8.709163823E0,5.440500379E-1,2.788050175E0,9.925950050E0
8.729063833E0,8.599500656E-1,2.503050089E0,8.962950706E0
8.748963597E0,1.141050100E0,2.455950022E0,8.041950226E0
8.768863597E0,1.224000096E0,2.592000008E0,7.765950203E0
8.788763587E0,8.100000620E-1,2.676000118E0,8.056050301E0
8.808663582E0,1.995000057E-2,2.779050112E0,8.473050117E0
8.828563611E0,-7.909500599E-1,3.016050100E0,8.776950836E0
8.848463611E0,-1.402950048E0,3.364950180E0,9.105000496E0
8.868363534E0,-1.666950107E0,3.724050283E0,9.400950432E0
8.888263524E0,-1.602000117E0,3.910950184E0,9.313050270E0
8.908163525E0,-1.312050104E0,3.835050106E0,8.845950127E0
8.928063535E0,-9.630000591E-1,3.669000149E0,8.353050232E0
8.947963539E0,-6.829500198E-1,3.460950136E0,8.020050049E0
8.967863530E0,-6.180000305E-1,3.355950117E0,7.717950344E0
8.987763314E0,-6.559500098E-1,3.351000071E0,7.477050304E0
9.007663324E0,-6.829500198E-1,3.559050083E0,7.471950531E0
9.027563319E0,-5.130000114E-1,3.849000216E0,7.539000511E0
9.047463328E0,-1.750500053E-1,4.146000385E0,7.414050579E0
9.067363348E0,1.210500076E-1,4.435950279E0,6.985950470E0
9.087263256E0,3.769500256E-1,4.705950260E0,6.514050484E0
9.107163261E0,4.990500212E-1,5.101050377E0,6.507000446E0
9.127063247E0,5.040000081E-1,5.395950317E0,6.847050190E0
9.146962988E0,5.730000138E-1,5.266050339E0,6.897000313E0
9.166862988E0,6.330000162E-1,4.615050316E0,7.330950260E0
9.186763002E0,2.209500074E-1,3.744000196E0,8.535000801E0
9.206663011E0,-9.889500737E-1,2.980050087E0,9.540000916E0
9.226563021E0,-3.039000034E0,3.399000168E0,1.151805019E1
9.246463007E0,-4.698000431E0,4.861950397E0,1.359900093E1
9.266362910E0,-5.380050182E0,5.616000175E0,1.445595074E1
9.286262901E0,-5.905050278E0,4.090950012E0,1.484595108E1
9.306162861E0,-5.962050438E0,2.785950184E0,1.423800087E1
9.326062871E0,-5.814000130E0,1.926000118E0,1.318905067E1
9.345962871E0,-5.730000496E0,3.250500262E-1,1.232205105E1
9.365862630E0,-5.478000164E0,1.039500013E-1,1.208805084E1
9.385762650E0,-4.930050373E0,1.111950040E0,1.127100086E1
9.405662660E0,-4.710000038E0,1.696950078E0,9.421050072E0
9.425562640E0,-4.711950302E0,1.761000037E0,7.702050209E0
9.445462544E0,-4.743000031E0,1.761000037E0,6.567000389E0
9.465362621E0,-4.522950172E0,1.941000104E0,5.880000114E0
9.485262525E0,-4.236000061E0,2.110949993E0,5.548950195E0
9.505162520E0,-3.970050097E0,2.062950134E0,5.382000446E0
9.525062520E0,-3.430950165E0,2.014950037E0,5.094000340E0
9.544962544E0,-2.754000187E0,2.068050146E0,4.723050117E0
9.564862294E0,-2.188950062E0,2.140050173E0,4.114950180E0
9.584762313E0,-1.642950058E0,2.305050135E0,3.583950281E0
9.604662342E0,-1.183050036E0,2.515050173E0,3.174000263E0
9.624562391E0,-8.719500303E-1,2.664000034E0,2.965950251E0
9.644462376E0,-8.670000434E-1,2.446050167E0,3.004050255E0
9.664362381E0,-1.477950096E0,1.948050141E0,3.496950150E0
9.684262382E0,-2.799000025E0,1.573950052E0,4.801950455E0
9.704162276E0,-4.003950119E0,1.954950094E0,6.574050426E0
9.724062290E0,-4.690950394E0,2.215950012E0,8.583000183E0
9.743962314E0,-4.803000450E0,1.914000034E0,1.002900028E1
9.763862333E0,-4.521000385E0,1.551000118E0,1.066605091E1
9.783762107E0,-4.072950363E0,1.596000075E0,1.087605095E1
9.803662102E0,-3.652050257E0,1.897950053E0,1.081395054E1
9.823562097E0,-3.769050121E0,2.092050076E0,1.108695030E1
9.843462088E0,-4.494000435E0,1.993050098E0,1.215705013E1
9.863362054E0,-5.478000164E0,1.419000030E0,1.361805058E1
9.883262063E0,-5.680050373E0,1.560000062E0,1.528200054E1
9.903161991E0,-5.050050259E0,2.116050005E0,1.551900101E1
9.923062001E0,-4.532999992E0,2.140050173E0,1.450800037E1
9.942961987E0,-4.356000423E0,1.548000097E0,1.354800034E1
9.962861751E0,-4.630950451E0,1.054949999E0,1.340505028E1
9.982761987E0,-5.043000221E0,9.880500436E-1,1.348800087E1
1.000266175E1,-4.909050465E0,1.153050065E0,1.336395073E1
1.002256177E1,-4.176000118E0,1.531050086E0,1.267905045E1
1.004246176E1,-3.442950249E0,1.419000030E0,1.133100033E1
1.006236175E1,-2.899950027E0,9.709500670E-1,1.006500053E1
1.008226167E1,-2.425950050E0,6.910500526E-1,9.205050468E0
1.010216168E1,-2.280000210E0,6.190500259E-1,8.755050659E0
1.012206168E1,-2.482950211E0,6.529500484E-1,8.740950584E0
1.014196165E1,-2.766000032E0,4.609500170E-1,8.968050003E0
1.016186166E1,-2.941050053E0,1.789500117E-1,9.411000252E0
1.018176144E1,-2.983950138E0,-6.195000187E-2,9.883050919E0
1.020166145E1,-2.953050137E0,-2.179500163E-1,9.756000519E0
1.022156146E1,-2.683950186E0,-2.939999998E-1,8.949000359E0
1.024146146E1,-2.241000175E0,-2.869500220E-1,7.800000191E0
1.026136147E1,-1.696050048E0,-2.749500275E-1,6.847050190E0
1.028126140E1,-1.180950046E0,-2.509500086E-1,6.490050316E0
1.030116138E1,-1.102050066E0,-5.479500294E-1,6.253050327E0
1.032106139E1,-1.243050098E0,-9.840000272E-1,6.061950207E0
1.034096139E1,-1.528050065E0,-9.340500236E-1,6.090000153E0
1.036086137E1,-2.014050007E0,-3.709500134E-1,6.295950413E0
1.038076137E1,-2.629050016E0,2.190000117E-1,5.947050095E0
1.040066114E1,-3.252000093E0,1.099950075E0,5.509050369E0
1.042056114E1,-3.745050192E0,1.948050141E0,5.893950462E0
1.044046116E1,-4.291050434E0,2.335950136E0,6.945000172E0
1.046036118E1,-5.032950401E0,2.347950220E0,8.365050316E0
1.048026119E1,-5.809050083E0,2.275950193E0,9.472949982E0
1.050016121E1,-5.944950104E0,2.896050215E0,1.033800030E1
1.052006113E1,-5.662950039E0,4.063950062E0,1.136505032E1
1.053996113E1,-6.349950314E0,4.347000122E0,1.228695011E1
1.055986110E1,-7.609050274E0,3.892050266E0,1.327500057E1
1.057976111E1,-8.167050362E0,3.466050148E0,1.397895050E1
1.059966111E1,-7.992000580E0,2.575050116E0,1.489395046E1
1.061956111E1,-7.686000347E0,1.225050092E0,1.528200054E1
1.063946108E1,-7.054050446E0,-2.400000021E-2,1.536795044E1
1.065936084E1,-6.445950508E0,-6.300000548E-1,1.467600060E1
1.067926086E1,-5.839950085E0,-8.929500580E-1,1.307700062E1
1.069916086E1,-5.292000294E0,-9.310500622E-1,1.123500061E1
1.071906087E1,-4.726950169E0,-4.240500331E-1,8.929950714E0
1.073896086E1,-3.949050188E0,3.559500277E-1,6.760950089E0
1.075886083E1,-3.538950205E0,6.460500360E-1,5.317050457E0
1.077876082E1,-3.132000208E0,6.930000186E-1,4.728000164E0
1.079866081E1,-2.602950096E0,7.750500441E-1,4.546050072E0
1.081856072E1,-2.155050039E0,9.760500193E-1,4.708950043E0
1.083846071E1,-1.798950076E0,1.159950018E0,5.022000313E0
1.085836069E1,-1.624050021E0,1.194000006E0,5.311950207E0
1.087826070E1,-1.540050030E0,1.132050037E0,5.656950474E0
1.089816067E1,-1.509000063E0,9.949500561E-1,6.021000385E0
1.091806067E1,-1.485000014E0,6.460500360E-1,6.469050407E0
1.093796067E1,-1.414950013E0,3.340500295E-1,7.161000252E0
1.095786046E1,-1.207050085E0,2.790000141E-1,7.768950462E0
1.097776049E1,-8.550000191E-1,3.079500198E-1,7.951050282E0
1.099766047E1,-5.770500302E-1,5.640000105E-1,7.941000462E0
1.101756048E1,-2.449500114E-1,1.053000093E0,7.969950199E0
1.103746048E1,-3.900000080E-2,1.701000094E0,8.058000565E0
1.105736048E1,-1.969500035E-1,2.499000072E0,8.049000740E0
1.107726051E1,-5.340000391E-1,3.373050213E0,8.269050598E0
1.109716044E1,-9.529500604E-1,4.045050144E0,9.187950134E0
1.111706050E1,-1.558950067E0,3.751050234E0,1.061295033E1
1.113696041E1,-2.581050158E0,2.866950035E0,1.198005104E1
1.115686049E1,-2.698950052E0,2.721000195E0,1.414005089E1
1.117676041E1,-1.734000087E0,2.539050102E0,1.555005074E1
1.119666040E1,-1.119000077E0,1.768050075E0,1.608405113E1
1.121656042E1,-1.450950027E0,6.859500408E-1,1.637594986E1
1.123646043E1,-1.855950117E0,2.505000122E-2,1.651200104E1
1.125636043E1,-1.842000127E0,-3.709500134E-1,1.627500153E1
1.127626043E1,-1.459050059E0,-5.029500127E-1,1.528605080E1
1.129616040E1,-9.840000272E-1,-3.640500307E-1,1.401300049E1
1.131606040E1,-5.440500379E-1,9.195000678E-2,1.174500084E1
1.133596040E1,-4.459500313E-1,5.760000348E-1,9.892050743E0
1.135586016E1,-5.580000281E-1,8.440500498E-1,8.760000229E0
1.137576041E1,-5.580000281E-1,9.229500294E-1,8.443950653E0
1.139566018E1,-4.819500148E-1,6.739500165E-1,8.485050201E0
1.141556042E1,-3.790500164E-1,2.220000178E-1,8.755050659E0
1.143546019E1,-3.090000153E-1,-2.110500038E-1,9.046950340E0
1.145536021E1,-3.000000119E-1,-5.269500017E-1,9.346050262E0
1.147526021E1,-3.930000067E-1,-7.330500484E-1,9.591000557E0
1.149516023E1,-4.099500179E-1,-7.470000386E-1,9.399000168E0
1.151506024E1,-2.539499998E-1,-7.009500265E-1,9.021000862E0
1.153496022E1,-1.609500051E-1,-6.919500232E-1,8.925000191E0
1.155486019E1,-3.810000122E-1,-7.039500475E-1,8.788949966E0
1.157476019E1,-6.520500183E-1,-5.940000415E-1,8.580000877E0
1.159466023E1,-8.530500531E-1,-3.090000153E-1,8.072999954E0
1.161456025E1,-6.679500341E-1,1.909500062E-1,8.038949966E0
1.163446025E1,-3.450000286E-1,3.889500201E-1,8.245050430E0
1.165436025E1,-1.420500129E-1,4.800000191E-1,8.269050598E0
1.167426025E1,-2.040000111E-1,7.030500174E-1,8.020050049E0
1.169416023E1,-7.240500450E-1,1.135950089E0,7.374000549E0
1.171406021E1,-2.304000139E0,1.909950137E0,7.110000134E0
1.173396018E1,-3.381000042E0,4.033050060E0,6.865950108E0
1.175386019E1,-2.431050062E0,6.082950115E0,6.121050358E0
1.177376019E1,-1.273950100E0,4.759050369E0,6.556950092E0
1.179366018E1,-9.679500461E-1,2.508000135E0,7.764000416E0
1.181356019E1,-6.850500107E-1,1.222950101E0,8.800950050E0
1.183346017E1,-9.049500227E-1,7.870500088E-1,9.943050385E0
1.185336017E1,-1.624050021E0,8.269500136E-1,1.160895061E1
1.187326021E1,-2.470950127E0,3.630000055E-1,1.368495083E1
1.189316021E1,-3.204000235E0,-6.079500318E-1,1.575600052E1
1.191306019E1,-3.175050259E0,-1.374000072E0,1.711800003E1
1.193296018E1,-2.376000166E0,-1.614000082E0,1.664400101E1
1.195286021E1,-1.660050035E0,-1.719000101E0,1.466595078E1
1.197276021E1,-1.243050098E0,-1.486950040E0,1.252800083E1
1.199266022E1,-1.140000105E0,-9.670500755E-1,1.086195087E1
1.201256024E1,-1.312050104E0,-3.709500134E-1,9.741000175E0
1.203246026E1,-1.617000103E0,0.000000000E0,8.977950096E0
1.205236026E1,-1.810050130E0,1.090500057E-1,8.167950630E0
1.207226026E1,-1.839000106E0,2.650500238E-1,7.455000401E0
1.209216026E1,-1.578000069E0,5.689499974E-1,6.712950230E0
1.211206028E1,-1.164000034E0,8.869500160E-1,6.066000462E0
1.213196025E1,-8.239500523E-1,1.207950115E0,5.524950027E0
1.215186052E1,-5.989500284E-1,1.467000127E0,5.194950104E0
1.217176030E1,-4.579500258E-1,1.534050107E0,4.989000320E0
1.219166054E1,-3.840000033E-1,1.383000016E0,5.044050217E0
1.221156031E1,-4.750500321E-1,1.114950061E0,5.461050034E0
1.223146030E1,-7.519500256E-1,9.520500302E-1,6.634050369E0
1.225136052E1,-1.198050022E0,8.779500127E-1,8.146950722E0
1.227126050E1,-1.477950096E0,9.259500504E-1,9.622050285E0
1.229116050E1,-1.405950069E0,1.114950061E0,1.034700012E1
1.231106046E1,-1.119000077E0,1.488000035E0,1.079700089E1
1.233096045E1,-8.980500698E-1,1.720950127E0,1.076400089E1
1.235086044E1,-9.769500494E-1,1.834950089E0,1.058400059E1
1.237076044E1,-1.315050006E0,1.810950041E0,1.110405064E1
1.239066044E1,-1.651950121E0,1.728000045E0,1.270095062E1
1.241056042E1,-2.083050013E0,1.536000013E0,1.434795094E1
1.243046041E1,-2.455050230E0,1.459950089E0,1.499205112E1
1.245036041E1,-2.148000002E0,1.933950067E0,1.430505085E1
1.247026041E1,-1.980000138E0,1.941000104E0,1.414395046E1
1.249016039E1,-2.016000032E0,1.483050108E0,1.512105083E1
1.251006046E1,-2.317950010E0,9.690000415E-1,1.551600075E1
1.252996048E1,-2.911950111E0,1.860000044E-1,1.547805119E1
1.254986040E1,-3.349950075E0,-3.690000176E-1,1.486995029E1
1.256976047E1,-3.388050079E0,-5.700000525E-1,1.379205036E1
1.258966047E1,-2.962050200E0,-1.840500087E-1,1.275795078E1
1.260956050E1,-2.524050236E0,6.570000052E-1,1.150395012E1
1.262946049E1,-2.548050165E0,1.054949999E0,1.023705006E1
1.264936051E1,-2.896950245E0,9.690000415E-1,9.679050446E0
1.266926052E1,-3.004950047E0,9.780000448E-1,9.351000786E0
1.268916076E1,-2.863950253E0,1.069050074E0,9.460950851E0
1.270906077E1,-2.734950066E0,1.054949999E0,9.682050705E0
1.272896077E1,-2.443050146E0,9.810000658E-1,9.466050148E0
1.274886076E1,-2.116950035E0,8.779500127E-1,8.224050522E0
1.276876074E1,-1.369950056E0,9.640500546E-1,6.627000332E0
1.278866072E1,-7.240500450E-1,9.259500504E-1,5.512950420E0
1.280856079E1,-5.200500488E-1,7.990500331E-1,4.873950005E0
1.282846072E1,-2.449500114E-1,1.004999995E0,4.747050285E0
1.284836082E1,-7.500000298E-2,1.318050027E0,4.975050449E0
1.286826082E1,3.405000269E-2,1.608000040E0,5.130000114E0
1.288816084E1,5.440500379E-1,2.274000168E0,5.575950146E0
1.290806083E1,3.580500185E-1,2.400000095E0,5.856000423E0
1.292796085E1,2.430000156E-1,2.341050148E0,6.118950367E0
1.294786082E1,4.080000222E-1,2.848050117E0,7.171950340E0
1.296776082E1,5.370000005E-1,3.435000181E0,8.463000298E0
1.298766105E1,3.390000165E-1,3.531000137E0,8.631000519E0
1.300756105E1,5.350500345E-1,3.709950209E0,8.539950371E0
1.302746104E1,7.840500474E-1,3.933000088E0,8.607000351E0
1.304736104E1,5.610000491E-1,4.123950005E0,9.415950775E0
1.306726106E1,2.239500135E-1,4.294050217E0,1.024200058E1
1.308716108E1,1.660500020E-1,4.537950039E0,1.080000019E1
1.310706117E1,-2.370000184E-1,4.074000359E0,1.133400059E1
1.312696118E1,-7.740000486E-1,3.459000111E0,1.251900101E1
1.314686116E1,-1.162050009E0,2.905950069E0,1.369695091E1
1.316676116E1,-1.693050027E0,2.332950115E0,1.474305058E1
1.318666118E1,-1.801050067E0,1.642050028E0,1.528605080E1
1.320656115E1,-1.351050019E0,8.230500221E-1,1.484400082E1
1.322646114E1,-1.341000080E0,1.860000044E-1,1.348605061E1
1.324636134E1,-1.516050100E0,4.500000179E-2,1.165005016E1
1.326626137E1,-1.360050082E0,5.089499950E-1,9.811050415E0
1.328616135E1,-1.015950084E0,1.321050048E0,8.500950813E0
1.330606134E1,-1.128000021E0,2.008050203E0,8.013000488E0
1.332596133E1,-1.522950053E0,2.233050108E0,7.326000214E0
1.334586133E1,-1.522950053E0,2.341050148E0,6.612000465E0
1.336576140E1,-1.195050001E0,2.233050108E0,6.238950253E0
1.338566140E1,-7.759500146E-1,2.095950127E0,5.956050396E0
1.340556138E1,-4.429500103E-1,2.056050062E0,5.941950321E0
1.342546141E1,-2.110500038E-1,2.082000017E0,5.896050453E0
1.344536139E1,6.300000101E-2,2.235000134E0,5.748000145E0
1.346526139E1,4.750500321E-1,2.439000130E0,5.655000210E0
1.348516158E1,7.770000100E-1,2.584950209E0,6.174000263E0
1.350506157E1,1.243950009E0,2.463000059E0,6.751050472E0
1.352496155E1,1.804050088E0,2.134950161E0,6.639000416E0
1.354486158E1,2.023950100E0,1.876050115E0,6.889950275E0
1.356476156E1,1.459050059E0,1.771050096E0,8.022000313E0
1.358466158E1,1.119000077E0,2.037000179E0,9.001950264E0
1.360456167E1,1.323000073E0,2.137050152E0,1.047405052E1
1.362446168E1,1.296000004E0,1.900050044E0,1.149600029E1
1.364436168E1,1.741950035E0,2.263950109E0,1.223595047E1
1.366426168E1,2.328000069E0,2.818950176E0,1.202295017E1
1.368416191E1,2.857050180E0,3.049050093E0,1.233195019E1
1.370406190E1,2.481000185E0,2.440950155E0,1.306005096E1
1.372396193E1,2.146050215E0,2.118000031E0,1.398195076E1
1.374386190E1,1.950000048E0,2.131950140E0,1.467405033E1
1.376376198E1,1.567050099E0,2.095950127E0,1.502805042E1
1.378366196E1,1.219950080E0,1.930950046E0,1.506105042E1
1.380356195E1,1.543050051E0,1.524000049E0,1.470195103E1
1.382346196E1,2.223000050E0,9.040500522E-1,1.411605072E1
1.384336199E1,2.929050207E0,1.620000005E-1,1.335405064E1
1.386326200E1,3.460950136E0,-5.749500394E-1,1.207605076E1
1.388316203E1,3.946950197E0,-9.649500251E-1,1.094805050E1
1.390306223E1,3.892050266E0,-1.225950003E0,1.021605015E1
1.392296223E1,3.097050190E0,-1.579950094E0,9.946950912E0
1.394286224E1,2.164950132E0,-1.836000085E0,9.990000725E0
1.396276224E1,1.324950099E0,-1.810050130E0,9.997950554E0
1.398266232E1,5.539500117E-1,-1.515000105E0,9.708000183E0
1.400256233E1,6.300000101E-2,-1.137000084E0,8.998950005E0
1.402246234E1,-1.489500105E-1,-5.959500074E-1,8.286000252E0
1.404236233E1,-5.580000281E-1,-1.579500139E-1,7.588950157E0
1.406226233E1,-8.719500303E-1,3.199500144E-1,7.194000244E0
1.408216256E1,-1.030050039E0,7.410000563E-1,7.101000309E0
1.410206258E1,-9.439500570E-1,8.710500598E-1,6.913950443E0
1.412196257E1,-5.700000525E-1,8.470500112E-1,6.532950401E0
1.414186263E1,1.830000132E-1,8.830500245E-1,6.141000271E0
1.416176263E1,1.585950017E0,1.017000079E0,6.033000469E0
1.418166261E1,3.844050169E0,1.153050065E0,6.069000244E0
1.420156260E1,5.263050079E0,5.520000458E-1,6.615000248E0
1.422146261E1,4.489950180E0,7.960500121E-1,8.110950470E0
1.424136283E1,2.179949999E0,2.083950043E0,9.559950829E0
1.426126281E1,-5.130000114E-1,3.214050055E0,1.135800076E1
1.428116257E1,-1.612050056E0,4.392000198E0,1.311000061E1
1.430106278E1,-1.080000043E0,5.673000336E0,1.341195107E1
1.432096276E1,5.230500102E-1,5.992050171E0,1.205895042E1
1.434086273E1,6.379500031E-1,4.669950008E0,1.162800026E1
1.436076272E1,2.500500083E-1,4.237050056E0,1.138095093E1
1.438066273E1,3.840000033E-1,3.727050066E0,1.142505074E1
1.440056279E1,1.018050075E0,2.400000095E0,1.208100033E1
1.442046281E1,1.746000051E0,9.450000525E-1,1.248300076E1
1.444036282E1,1.878000140E0,-4.170000255E-1,1.284195042E1
1.446026285E1,1.662000060E0,-1.501050115E0,1.324395084E1
1.448016284E1,1.594950080E0,-1.666050076E0,1.319400024E1
1.450006285E1,1.192950010E0,-1.362000108E0,1.179105091E1
1.451996309E1,8.149500489E-1,-5.170500278E-1,9.793950081E0
1.453986309E1,5.760000348E-1,3.850500286E-1,8.209050179E0
1.455976310E1,1.110000089E-1,9.780000448E-1,7.429050446E0
1.457966319E1,-2.490000129E-1,1.279950023E0,7.222950459E0
1.459956318E1,-3.619500101E-1,1.440000057E0,7.222950459E0
1.461946320E1,-5.805000290E-2,1.621950030E0,7.299000263E0
1.463936324E1,4.729500115E-1,1.740000129E0,7.005000114E0
1.465926325E1,9.319500327E-1,1.663050056E0,6.375000477E0
1.467916346E1,1.375050068E0,1.419000030E0,5.473050117E0
1.469906345E1,2.122050047E0,1.399950027E0,4.588950157E0
1.471896347E1,2.911950111E0,1.540950060E0,3.861000299E0
1.473886346E1,3.580050230E0,1.740000129E0,3.651000261E0
1.475876354E1,3.709950209E0,1.948050141E0,4.122000217E0
1.477866354E1,3.214050055E0,2.335950136E0,5.181000233E0
1.479856346E1,2.295000076E0,2.877000093E0,7.024050236E0
1.481846352E1,1.897050142E0,3.271950245E0,9.187950134E0
1.483836351E1,2.170050144E0,3.207000256E0,1.120200062E1
1.485826353E1,2.467050076E0,2.508000135E0,1.240905094E1
1.487816353E1,3.030000210E0,1.660950065E0,1.255905056E1
1.489806376E1,3.949050188E0,1.102950096E0,1.230105019E1
1.491796354E1,4.926000118E0,6.259500384E-1,1.218105030E1
1.493786378E1,5.842950344E0,7.770000100E-1,1.222905064E1
1.495776377E1,6.276000500E0,1.426050067E0,1.265805054E1
1.497766374E1,6.319050312E0,1.972050071E0,1.341195107E1
1.499756378E1,6.316950321E0,2.403000116E0,1.334700108E1
1.501746379E1,6.441000462E0,2.320950031E0,1.305300045E1
1.503736385E1,6.475050449E0,1.909950137E0,1.338495064E1
1.505726384E1,5.998050213E0,1.206000090E0,1.400295067E1
1.507716384E1,5.455050468E0,6.310500503E-1,1.438905048E1
1.509706386E1,4.701000214E0,2.295000106E-2,1.403400040E1
1.511696387E1,4.231050014E0,-1.770000011E-1,1.307895088E1
1.513686387E1,4.039950371E0,2.805000171E-2,1.174095058E1
1.515676408E1,3.919950247E0,2.770500183E-1,1.007700062E1
1.517666382E1,3.847950220E0,4.800000191E-1,8.722050667E0
1.519656406E1,3.757050276E0,5.929500461E-1,8.044050217E0
1.521646406E1,3.504000187E0,4.990500212E-1,7.576950550E0
1.523636407E1,3.343050241E0,4.279500246E-1,7.057950497E0
1.525626406E1,3.279000044E0,4.060500264E-1,6.423000336E0
1.527616404E1,3.310050249E0,4.399500191E-1,5.758050442E0
1.529606406E1,3.480000257E0,5.640000105E-1,5.377050400E0
1.531596405E1,3.580050230E0,6.360000372E-1,5.164050102E0
1.533586404E1,3.456000090E0,6.600000262E-1,5.085000038E0
1.535576405E1,3.171000242E0,7.219500542E-1,4.942950249E0
1.537566405E1,3.010050058E0,9.949500561E-1,4.825950146E0
1.539556413E1,2.649000168E0,1.294050097E0,5.278950214E0
1.541546410E1,2.365950108E0,1.503000021E0,5.959050179E0
1.543536410E1,2.282999992E0,1.588950038E0,6.763050556E0
1.545526411E1,2.172000170E0,1.435950041E0,7.432950497E0
1.547516414E1,2.137050152E0,1.165050030E0,7.771050453E0
1.549506415E1,2.335050106E0,1.072050095E0,8.026950836E0
1.551496415E1,2.436000109E0,1.270050049E0,8.740950584E0
1.553486415E1,2.445000172E0,1.407000065E0,8.998950005E0
1.555476440E1,2.766000032E0,1.540950060E0,8.575050354E0
1.557466417E1,3.094050169E0,1.768050075E0,8.518050194E0
1.559456440E1,3.034050226E0,1.906950116E0,9.028050423E0
1.561446441E1,2.556000233E0,1.998000145E0,1.000500011E1
1.563436442E1,2.359050035E0,2.347950220E0,1.131900024E1
1.565426442E1,1.722000122E0,2.470050097E0,1.247595024E1
1.567416442E1,1.078050017E0,2.491050005E0,1.351005077E1
1.569406444E1,1.224000096E0,2.335950136E0,1.500600052E1
1.571396446E1,1.572000027E0,1.548000097E0,1.609095001E1
1.573386448E1,1.665000081E0,5.550000072E-1,1.614405060E1
1.575376449E1,1.416000009E0,-2.899500132E-1,1.544700050E1
1.577366456E1,1.524000049E0,-7.110000253E-1,1.449600029E1
1.579356455E1,2.083950043E0,-7.710000277E-1,1.422600079E1
1.581346456E1,2.419050217E0,-1.096050024E0,1.358895111E1
1.583336446E1,2.445000172E0,-1.341000080E0,1.204500103E1
1.585326453E1,2.259000063E0,-1.177950025E0,1.030395031E1
1.587316451E1,1.900050044E0,-7.009500265E-1,9.184050560E0
1.589306447E1,1.404000044E0,-1.650000066E-1,8.677950859E0
1.591296454E1,1.108950019E0,4.590000212E-1,8.355000496E0
1.593286446E1,1.002000093E0,9.450000525E-1,8.068050385E0
1.595276454E1,1.062000036E0,1.215000033E0,7.885950565E0
1.597266454E1,1.168950081E0,1.110000014E0,7.912050247E0
1.599256455E1,1.296000004E0,7.480500340E-1,7.546050549E0
1.601246454E1,1.552050114E0,5.670000315E-1,7.230000496E0
1.603236451E1,1.750950098E0,5.449500084E-1,6.720000267E0
1.605226453E1,2.007000208E0,6.120000482E-1,6.034950256E0
1.607216450E1,2.184000015E0,6.739500165E-1,5.554050446E0
1.609206450E1,2.368950129E0,8.230500221E-1,5.178000450E0
1.611196451E1,2.485950232E0,1.045050025E0,5.058000088E0
1.613186451E1,2.533950090E0,1.261050105E0,5.202000141E0
1.615176451E1,2.766000032E0,1.486050129E0,5.479950428E0
1.617166453E1,3.015000105E0,1.735050082E0,5.664000034E0
1.619156455E1,3.135000229E0,2.128050089E0,6.004050255E0
1.621146453E1,3.054000139E0,2.523000002E0,6.712950230E0
1.623136454E1,2.902950048E0,3.021000147E0,7.563000202E0
1.625126454E1,2.785050154E0,3.496950150E0,8.560950279E0
1.627116452E1,2.521950006E0,3.789000273E0,1.009305000E1
1.629106453E1,2.155950069E0,3.483000278E0,1.142700100E1
1.631096454E1,2.472000122E0,3.484950066E0,1.315305042E1
1.633086456E1,2.797050238E0,3.703050137E0,1.459200096E1
1.635076457E1,2.589000225E0,3.918000221E0,1.527705097E1
1.637066455E1,1.975950122E0,3.826950073E0,1.531500053E1
1.639056457E1,1.654950023E0,3.291000128E0,1.551600075E1
1.641046459E1,1.843950033E0,2.460000038E0,1.575795078E1
1.643036458E1,2.275050163E0,1.752000093E0,1.516395092E1
1.645026461E1,2.730000019E0,1.524000049E0,1.362000084E1
1.647016462E1,2.818950176E0,1.680000067E0,1.201800060E1
1.649006456E1,2.455050230E0,1.929000139E0,1.124700069E1
1.650996455E1,1.864050031E0,1.858950138E0,1.080000019E1
1.652986455E1,1.402050018E0,1.737000108E0,1.038300037E1
1.654976455E1,1.143000007E0,1.644000053E0,9.883050919E0
1.656966455E1,1.093050003E0,1.584000111E0,9.232050896E0
1.658956455E1,1.087950110E0,1.548000097E0,8.563950539E0
1.660946454E1,1.131000042E0,1.512000084E0,7.963050365E0
1.662936444E1,1.119000077E0,1.444950104E0,7.315950394E0
1.664926453E1,8.050500154E-1,1.315950036E0,6.837000370E0
1.666916453E1,6.979500055E-1,1.311000109E0,6.555000305E0
1.668906451E1,8.250000477E-1,1.251000047E0,6.552000523E0
1.670896444E1,1.026000023E0,1.009050012E0,6.706050396E0
1.672886451E1,1.156949997E0,8.950500488E-1,6.835050106E0
1.674876449E1,1.294050097E0,1.066950083E0,6.840000153E0
1.676866448E1,1.440000057E0,1.543050051E0,6.628950119E0
1.678856445E1,1.408950090E0,2.155950069E0,6.627000332E0
1.680846445E1,1.210050106E0,2.581950188E0,6.801000118E0
1.682836444E1,1.200000048E0,3.076050043E0,7.438050270E0
1.684826443E1,1.449000120E0,3.408000231E0,7.864050388E0
1.686816444E1,1.734000087E0,3.532950163E0,8.158950806E0
1.688806443E1,1.710000038E0,3.712050200E0,8.683050156E0
1.690796451E1,1.501950026E0,3.982950211E0,9.622050285E0
1.692786445E1,1.192950010E0,4.018949986E0,1.109895039E1
1.694776447E1,1.063950062E0,3.949950218E0,1.267905045E1
1.696766445E1,1.045050025E0,3.793950081E0,1.335195065E1
1.698756452E1,9.660000205E-1,3.564000130E0,1.313595104E1
1.700746445E1,8.599500656E-1,3.166950226E0,1.323495102E1
1.702736443E1,4.699500203E-1,2.512950182E0,1.330395031E1
1.704726445E1,-3.400500119E-1,1.443000078E0,1.364205074E1
1.706716451E1,-9.030000567E-1,3.700500131E-1,1.448700047E1
1.708706444E1,-8.140500188E-1,-4.600500166E-1,1.456605053E1
1.710696441E1,-4.579500258E-1,-1.104000092E0,1.305495071E1
1.712686441E1,-1.390500069E-1,-1.144050002E0,1.056000042E1
1.714676444E1,7.800000161E-2,-5.670000315E-1,8.331000328E0
1.716666445E1,7.950000465E-3,3.750000298E-1,7.168050289E0
1.718656446E1,-3.210000098E-1,1.278000116E0,6.820950508E0
1.720646445E1,-3.859500289E-1,2.026950121E0,6.739050388E0
1.722636446E1,-3.280500174E-1,2.688000202E0,6.718050480E0
1.724626444E1,-2.260500044E-1,3.097050190E0,6.933000565E0
1.726616442E1,-1.500000060E-2,3.103950262E0,7.038000107E0
1.728606441E1,4.219500124E-1,2.877000093E0,7.171950340E0
1.730596439E1,9.420000315E-1,2.731050014E0,7.102950573E0
1.732586440E1,1.291050076E0,2.764050245E0,6.952050209E0
1.734576440E1,1.576050043E0,3.028050184E0,6.958950520E0
1.736566438E1,1.630950093E0,3.271950245E0,6.985950470E0
1.738556442E1,1.405950069E0,3.399000168E0,7.981950283E0
1.740546440E1,1.159950018E0,3.186000109E0,8.836050034E0
1.742536441E1,1.135950089E0,3.106950045E0,9.394050598E0
1.744526442E1,1.288950086E0,3.310050249E0,9.631050110E0
1.746516440E1,1.435050011E0,3.787050247E0,9.709950447E0
1.748506439E1,6.619500518E-1,4.335000038E0,1.016805077E1
1.750496441E1,5.595000088E-2,5.311950207E0,1.032105064E1
1.752486441E1,1.106999993E0,6.049050331E0,9.840000153E0
1.754476416E1,2.608050108E0,5.335950375E0,9.390000343E0
1.756466440E1,3.637950182E0,4.218000412E0,9.871050835E0
1.758456418E1,4.164000034E0,3.589950085E0,1.120695019E1
1.760446444E1,4.567049980E0,3.339000225E0,1.230795097E1
1.762436422E1,5.047950268E0,3.564000130E0,1.236300087E1
1.764426446E1,4.993050098E0,3.703050137E0,1.161105061E1
1.766416425E1,4.294050217E0,3.892050266E0,1.167105103E1
1.768406448E1,3.030000210E0,3.775050163E0,1.293495083E1
1.770396423E1,1.720050097E0,3.246000051E0,1.365795040E1
1.772386424E1,1.063950062E0,2.536950111E0,1.315995026E1
1.774376446E1,1.629000068E0,2.122950077E0,1.183905029E1
1.776366422E1,2.389950037E0,1.888050079E0,1.040895081E1
1.778356446E1,2.713950157E0,1.831050038E0,9.495000839E0
1.780346424E1,2.802000046E0,1.795050144E0,8.848050117E0
1.782336445E1,2.919000149E0,1.716000080E0,8.659049988E0
1.784326423E1,2.710950136E0,1.363950014E0,8.500950813E0
1.786316445E1,2.187000036E0,1.158000112E0,8.329050064E0
1.788306422E1,1.777050138E0,1.327950120E0,8.440950394E0
1.790296444E1,1.471050024E0,1.552950025E0,8.773950577E0
1.792286420E1,1.057050109E0,1.620000124E0,9.025950432E0
1.794276443E1,9.270000458E-1,1.558050036E0,8.698050499E0
1.796266419E1,6.670500040E-1,1.333050013E0,8.146950722E0
1.798256440E1,1.369500011E-1,1.360950112E0,8.305050850E0
1.800246417E1,-6.559500098E-1,1.984050035E0,8.781000137E0
1.802236441E1,-1.198050022E0,2.796000242E0,8.607000351E0
1.804226442E1,-1.150050044E0,3.598050117E0,7.753950596E0
1.806216442E1,-5.800500512E-1,4.345050335E0,7.036050320E0
1.808206419E1,-2.370000184E-1,5.178000450E0,6.712950230E0
1.810196442E1,-1.630500108E-1,6.174000263E0,6.291000366E0
1.812186417E1,-8.205000311E-2,6.451050282E0,6.153000355E0
1.814176440E1,-3.480000198E-1,6.262050152E0,6.411000252E0
1.816166419E1,-3.240000010E-1,6.304950237E0,6.567000389E0
1.818156419E1,-4.189500213E-1,6.214050293E0,6.861000538E0
1.820146418E1,-1.537950039E0,6.408000469E0,7.918950558E0
1.822136418E1,-2.682000160E0,7.234050274E0,8.632950783E0
1.824126416E1,-3.127050161E0,8.127000809E0,9.190950394E0
1.826116418E1,-2.550000191E0,8.451000214E0,9.556950569E0
1.828106417E1,-1.008000016E0,8.320950508E0,9.415950775E0
1.830096418E1,1.300500035E-1,6.700050354E0,8.476950645E0
1.832086420E1,1.630950093E0,5.704050064E0,8.844000816E0
1.834076418E1,2.251049995E0,4.050000191E0,1.015800095E1
1.836066416E1,2.311050177E0,2.740050077E0,1.139295101E1
1.838056416E1,2.172000170E0,1.954950094E0,1.199700069E1
1.840046416E1,2.134050131E0,1.741950035E0,1.233900070E1
1.842036417E1,2.244000196E0,1.974000096E0,1.201095104E1
1.844026417E1,2.282999992E0,2.080049992E0,1.057695007E1
1.846016417E1,2.194050074E0,2.086950064E0,9.105000496E0
1.848006418E1,2.092950106E0,2.122950077E0,8.305050850E0
1.849996416E1,1.933050036E0,2.128050089E0,7.977000237E0
1.851986419E1,1.722000122E0,2.134950161E0,7.692000389E0
1.853976420E1,1.521000028E0,2.247000217E0,7.335000515E0
1.855966421E1,1.308000088E0,2.668950081E0,7.017000198E0
1.857956419E1,1.378050089E0,3.316950083E0,6.685950279E0
1.859946419E1,1.717950106E0,3.949950218E0,6.382050514E0
1.861936420E1,2.007000208E0,4.488000393E0,5.889000416E0
1.863926412E1,2.356950045E0,5.094000340E0,5.632950306E0
1.865916412E1,2.569950104E0,5.544000149E0,5.836950302E0
1.867906412E1,2.754000187E0,5.605950356E0,6.351000309E0
1.869896413E1,2.881050110E0,5.359950066E0,6.921000481E0
1.871886414E1,2.814000130E0,5.257050037E0,7.768950462E0
1.873876413E1,2.589000225E0,5.398050308E0,8.580000877E0
1.875866413E1,2.295000076E0,5.659050465E0,9.615000725E0
1.877856411E1,1.909050107E0,5.676000118E0,1.038600063E1
1.879846408E1,1.633950114E0,5.592000484E0,1.089300060E1
1.881836410E1,1.380000114E0,5.463000298E0,1.078305054E1
1.883826406E1,1.375050068E0,5.476950169E0,1.035000038E1
1.885816405E1,1.521000028E0,5.368950367E0,9.564000130E0
1.887806405E1,1.677000046E0,5.182950020E0,8.773950577E0
1.889796406E1,1.645950079E0,5.089050293E0,8.566050529E0
1.891786407E1,1.524000049E0,5.167950153E0,8.962950706E0
1.893776405E1,1.753050089E0,5.611050129E0,9.301050186E0
1.895766407E1,1.713000059E0,6.052050114E0,8.652000427E0
1.897756407E1,1.461000085E0,6.499050140E0,8.245050430E0
1.899746386E1,1.129050016E0,6.552000523E0,8.458050728E0
1.901736409E1,1.050000072E0,5.949000359E0,9.025950432E0
1.903726387E1,1.106999993E0,5.095950127E0,9.586050034E0
1.905716411E1,1.306050062E0,4.519050121E0,9.976050377E0
1.907706390E1,1.471050024E0,4.129050255E0,9.354000092E0
1.909696390E1,1.737000108E0,3.918000221E0,8.485050201E0
1.911686390E1,2.125050068E0,3.577950239E0,7.579950333E0
1.913676390E1,2.239950180E0,2.998950243E0,7.045950413E0
1.915666392E1,2.320950031E0,2.712000132E0,7.876050472E0
1.917656393E1,2.254050016E0,2.536950111E0,9.016050339E0
1.919646392E1,1.998000145E0,2.305050135E0,9.531000137E0
1.921636393E1,1.798950076E0,2.068050146E0,9.844050407E0
1.923626386E1,1.642950058E0,1.849950075E0,9.543000221E0
1.925616393E1,1.782000065E0,1.986000061E0,9.094950676E0
1.927606383E1,1.957050085E0,2.383949995E0,9.052050591E0
1.929596382E1,1.987950087E0,2.668950081E0,9.235950470E0
1.931586380E1,1.975950122E0,2.863050222E0,9.061950684E0
1.933576380E1,1.915950060E0,3.198000193E0,8.523000717E0
1.935566378E1,1.737000108E0,3.580950260E0,8.262000084E0
1.937556378E1,1.516050100E0,4.014000416E0,8.632950783E0
1.939546354E1,1.330050111E0,4.371000290E0,9.057000160E0
1.941536356E1,1.288950086E0,4.512000084E0,9.138000488E0
1.943526356E1,1.039950013E0,4.258049965E0,9.157050133E0
1.945516355E1,7.360500097E-1,4.143000126E0,8.745000839E0
1.947506353E1,1.609500051E-1,4.243950367E0,7.945950508E0
1.949496353E1,-1.440000087E-1,4.555050373E0,7.290000439E0
1.951486352E1,-4.395000264E-2,5.025000095E0,6.949950218E0
1.953476344E1,7.800000161E-2,5.323950291E0,6.832950115E0
1.955466350E1,-1.500000060E-2,5.512950420E0,7.126950264E0
1.957456342E1,6.599999964E-2,5.608950138E0,8.142000198E0
1.959446343E1,1.969500035E-1,5.218050480E0,9.166950226E0
1.961436344E1,3.150000274E-1,4.837950230E0,9.318000793E0
1.963426322E1,2.590500116E-1,4.608000278E0,9.816000938E0
1.965416346E1,-1.200000048E-1,3.976050138E0,1.114905071E1
1.967406325E1,-1.156949997E0,2.857950211E0,1.251600075E1
1.969396325E1,-1.882050037E0,1.768050075E0,1.411095047E1
1.971386325E1,-1.945050120E0,1.189050078E0,1.470705032E1
1.973376323E1,-1.674000025E0,7.890000343E-1,1.323495102E1
1.975366324E1,-9.289500713E-1,1.078950047E0,1.069905090E1
1.977356324E1,-2.970000207E-1,2.106000185E0,8.473050117E0
1.979346320E1,-4.270500243E-1,3.030000210E0,7.042950153E0
1.981336322E1,-9.630000591E-1,3.672000170E0,6.303000450E0
1.983326321E1,-1.165950060E0,4.075950146E0,6.454050541E0
1.985316320E1,-1.309950113E0,3.835050106E0,7.012050152E0
1.987306320E1,-1.195050001E0,3.442050219E0,7.480950356E0
1.989296321E1,-8.700000644E-1,3.169050217E0,7.672950268E0
1.991286298E1,-6.780000329E-1,3.064050198E0,7.507950306E0
1.993276324E1,-4.120500088E-1,3.169050217E0,7.117050171E0
1.995266300E1,-7.905000448E-2,3.484950066E0,6.901950359E0
1.997256301E1,2.040000111E-1,3.717000246E0,7.054950237E0
1.999246300E1,2.929500043E-1,3.910950184E0,7.570050240E0
2.001236291E1,1.900500059E-1,4.017000198E0,8.125050545E0
2.003226290E1,6.105000153E-2,4.114950180E0,8.440950394E0
2.005216292E1,1.230000034E-1,4.394999981E0,8.863050461E0
2.007206292E1,1.129500046E-1,4.651050091E0,9.342000008E0
2.009196294E1,1.609500051E-1,4.890000343E0,9.631050110E0
2.011186292E1,4.270500243E-1,5.127000332E0,9.733950615E0
2.013176267E1,8.959500194E-1,5.305050373E0,1.006695080E1
2.015166270E1,1.255050063E0,5.314050198E0,1.056000042E1
2.017156272E1,1.416000009E0,5.173050404E0,1.085505009E1
2.019146264E1,1.354050040E0,4.986000061E0,1.114005089E1
2.021136271E1,1.195950031E0,5.080050468E0,1.191105080E1
2.023126264E1,9.850500226E-1,5.227950096E0,1.264095020E1
2.025116262E1,6.349500418E-1,5.190000057E0,1.348395061E1
2.027106262E1,1.095000096E-2,4.615050316E0,1.429800034E1
2.029096262E1,-5.560500026E-1,3.645000219E0,1.431000042E1
2.031086238E1,-7.909500599E-1,2.773950100E0,1.350795078E1
2.033076240E1,-4.699500203E-1,2.350050211E0,1.219305038E1
2.035066240E1,2.400000095E-1,2.251950026E0,1.058205032E1
2.037056239E1,7.360500097E-1,2.245050192E0,9.411000252E0
2.039046232E1,9.060000181E-1,2.163000107E0,8.935050011E0
2.041036238E1,6.930000186E-1,1.965000153E0,8.905950546E0
2.043026231E1,2.980500162E-1,1.831050038E0,9.030000687E0
2.045016231E1,-5.100000277E-2,1.780050039E0,9.040050507E0
2.047006228E1,-2.160000056E-1,1.705950022E0,8.800950050E0
2.048996230E1,-1.230000034E-1,1.591050029E0,8.245050430E0
2.050986206E1,1.300500035E-1,1.524000049E0,7.608000278E0
2.052976205E1,1.999500096E-1,1.516950130E0,7.009950161E0
2.054966204E1,1.129500046E-1,1.821000099E0,6.828000546E0
2.056956206E1,-1.699500084E-1,2.332950115E0,7.041000366E0
2.058946198E1,-7.350000143E-1,2.977050066E0,7.366050243E0
2.060936199E1,-1.210050106E0,3.552000284E0,7.684950352E0
2.062926174E1,-1.393950105E0,4.051949978E0,7.807050228E0
2.064916172E1,-1.324050069E0,4.387950420E0,7.651050568E0
2.066906172E1,-1.055999994E0,4.633950233E0,7.504950523E0
2.068896169E1,-7.570500374E-1,4.749000072E0,7.522050381E0
2.070886162E1,-6.210000515E-1,4.906949997E0,7.588950157E0
2.072876159E1,-4.219500124E-1,4.912050247E0,7.189050198E0
2.074866159E1,-7.240500450E-1,5.022000313E0,6.697950363E0
2.076856137E1,-1.032000065E0,5.721000195E0,7.149000168E0
2.078846137E1,-1.291050076E0,6.145050526E0,8.362050056E0
2.080836139E1,-1.662000060E0,5.824050426E0,9.550050735E0
2.082826140E1,-1.738950133E0,5.424000263E0,1.008105087E1
2.084816141E1,-1.368000031E0,4.969050407E0,1.018005085E1
2.086806133E1,-1.228950024E0,4.392000198E0,1.020600033E1
2.088796130E1,-1.084950089E0,4.318050385E0,1.033800030E1
2.090786128E1,-1.116000056E0,4.275000095E0,1.087395096E1
2.092776106E1,-1.402950048E0,3.928050280E0,1.182000065E1
2.094766107E1,-1.782000065E0,3.154950142E0,1.266195107E1
2.096756106E1,-1.708050132E0,2.314050198E0,1.279395103E1
2.098746109E1,-1.201950073E0,1.840050101E0,1.168995094E1
2.100736102E1,-6.970500350E-1,1.882950068E0,9.916050911E0
2.102726102E1,-3.330000043E-1,2.281050205E0,8.638050079E0
2.104716104E1,-3.499500155E-1,2.685000181E0,8.046000481E0
2.106706082E1,-6.540000439E-1,2.857950211E0,7.917000294E0
2.108696081E1,-8.820000291E-1,2.845950127E0,7.836000443E0
2.110686082E1,-9.030000567E-1,2.796000242E0,7.800000191E0
2.112676079E1,-6.610500216E-1,2.815050125E0,7.812000275E0
2.114666073E1,-2.110500038E-1,2.781000137E0,7.825950146E0
2.116656072E1,1.570500135E-1,2.745000124E0,7.668000221E0
2.118646073E1,3.720000088E-1,2.854950190E0,7.141050339E0
2.120636072E1,5.490000248E-1,3.151950121E0,6.523950100E0
2.122626052E1,6.930000186E-1,3.577950239E0,6.343950272E0
2.124616054E1,6.210000515E-1,3.841950178E0,6.708000183E0
2.126606053E1,4.200000167E-1,3.817950249E0,7.335000515E0
2.128596056E1,1.420500129E-1,3.661950111E0,7.879050255E0
2.130586044E1,-1.249500066E-1,3.592950106E0,8.452950478E0
2.132576045E1,-4.530000091E-1,3.669000149E0,9.355950356E0
2.134566022E1,-6.420000196E-1,3.789000273E0,1.014405060E1
2.136556024E1,-6.370500326E-1,3.964050293E0,1.030200005E1
2.138546021E1,-5.419500470E-1,4.234050274E0,9.813000679E0
2.140536021E1,-3.019500077E-1,4.644000053E0,9.460950851E0
2.142526013E1,-2.020500153E-1,4.876049995E0,9.676950455E0
2.144516014E1,-3.400500119E-1,4.822950363E0,1.029000092E1
2.146506012E1,-6.010500193E-1,4.795050144E0,1.096695042E1
2.148496013E1,-8.359500170E-1,4.720050335E0,1.162095070E1
2.150485992E1,-1.030050039E0,4.423950195E0,1.207095051E1
2.152475993E1,-8.770500422E-1,4.323000431E0,1.239195061E1
2.154465992E1,-6.370500326E-1,4.339950085E0,1.202805042E1
2.156455981E1,-6.730500460E-1,4.594050407E0,1.173300076E1
2.158445984E1,-7.090500593E-1,4.918950081E0,1.202595043E1
2.160435961E1,-4.909500182E-1,4.620000362E0,1.219095039E1
2.162425961E1,1.305000018E-2,3.861000299E0,1.218405056E1
2.164415961E1,6.499500275E-1,2.922000170E0,1.179600048E1
2.166405953E1,1.224000096E0,2.119950056E0,1.089300060E1
2.168395950E1,1.770000100E0,1.840050101E0,1.001400089E1
2.170385951E1,2.236950159E0,2.062950134E0,9.744000435E0
2.172375929E1,2.314050198E0,2.086950064E0,9.829950333E0
2.174365928E1,2.208000183E0,1.753950119E0,9.724950790E0
2.176355928E1,2.206050158E0,1.416000009E0,9.184050560E0
2.178345929E1,2.350050211E0,1.177050114E0,8.560950279E0
2.180335928E1,2.512050152E0,1.213050008E0,8.133000374E0
2.182325918E1,2.508000135E0,1.500000119E0,7.761000156E0
2.184315895E1,2.341950178E0,1.807050109E0,7.414050579E0
2.186305894E1,2.005050182E0,2.251950026E0,6.949950218E0
2.188295895E1,1.240950108E0,2.908050060E0,6.451950073E0
2.190285892E1,-1.319999993E-1,3.490050077E0,6.126000404E0
2.192275884E1,-7.159500122E-1,3.499050140E0,6.648000240E0
2.194265886E1,4.290000200E-1,3.139950037E0,7.848000526E0
2.196255886E1,2.194050074E0,3.214050055E0,8.535000801E0
2.198245863E1,2.790000200E0,3.619050264E0,7.704000473E0
2.200235864E1,2.146050215E0,3.631050110E0,6.655050278E0
2.202225856E1,1.849050045E0,3.882000208E0,6.433050156E0
2.204215856E1,1.485000014E0,4.005000114E0,7.183950424E0
2.206205855E1,1.027950048E0,4.693950176E0,8.643000603E0
2.208195854E1,5.640000105E-1,5.475000381E0,8.764950752E0
2.210185830E1,3.859500289E-1,5.902950287E0,8.237999916E0
2.212175830E1,-9.405000508E-2,5.788050175E0,7.855050564E0
2.214165820E1,-7.759500146E-1,5.307000160E0,8.467950821E0
2.216155820E1,-1.762950063E0,4.833000183E0,9.865950584E0
2.218145820E1,-3.075000048E0,5.701950073E0,1.076595020E1
2.220135796E1,-2.361000061E0,5.302050114E0,1.072305012E1
2.222125797E1,-2.842050076E0,3.813000202E0,9.799050331E0
2.224115797E1,-3.300000191E0,1.873950124E0,9.892050743E0
2.226105789E1,-3.202050209E0,9.589500427E-1,1.199205017E1
2.228095789E1,-3.625050068E0,1.387950063E0,1.262895107E1
2.230085768E1,-4.900950432E0,1.123950005E0,1.268400097E1
2.232075768E1,-4.819950104E0,4.830000103E-1,1.166895008E1
2.234065768E1,-4.825050354E0,6.600000262E-1,9.907050133E0
2.236055766E1,-5.329950333E0,1.045050025E0,8.889000893E0
2.238045756E1,-5.893050194E0,1.789950132E0,7.788000584E0
2.240035759E1,-5.560050488E0,2.299950123E0,6.639000416E0
2.242025737E1,-5.155050278E0,2.652000189E0,5.571000099E0
2.244015737E1,-4.545000076E0,3.055950165E0,5.511000156E0
2.246005740E1,-3.622950077E0,3.211950064E0,6.118950367E0
2.247995733E1,-3.679950237E0,2.815050125E0,4.999050140E0
2.249985734E1,-3.442950249E0,2.503050089E0,3.811050177E0
2.251975714E1,-2.683950186E0,2.319000006E0,3.610050201E0
2.253965715E1,-1.473000050E0,2.110949993E0,3.459000111E0
2.255955715E1,-2.533950090E0,3.315000057E0,4.216050148E0
2.257945709E1,-4.581000328E0,3.934950113E0,6.406050205E0
2.259935708E1,-5.701050282E0,1.609950066E0,9.921000481E0
2.261925684E1,-2.548050165E0,1.162950039E0,1.135305023E1
2.263915685E1,-2.395050049E0,2.950950146E0,1.126695061E1
2.265905678E1,-2.350500077E-1,2.274000168E0,1.114695072E1
2.267895678E1,-1.108950019E0,2.896050215E0,1.334205055E1
2.269885681E1,-1.813050032E0,2.692950010E0,1.289700031E1
2.271875656E1,-1.795950055E0,2.247000217E0,1.223100090E1
2.273865654E1,-2.031000137E0,1.990950108E0,1.050795078E1
2.275855656E1,-2.332050085E0,2.211000204E0,1.011300087E1
2.277845648E1,-2.107050180E0,1.954950094E0,1.154400063E1
2.279835647E1,-1.720050097E0,1.024049997E0,1.323195076E1
2.281825648E1,-1.927950144E0,3.270000219E-1,1.416600037E1
2.283815622E1,-2.311050177E0,-2.869500220E-1,1.383795071E1
2.285805623E1,-2.332050085E0,-4.309500158E-1,1.341405106E1
2.287795614E1,-2.078999996E0,-3.349500299E-1,1.352205086E1
2.289785614E1,-1.369950056E0,-7.489500642E-1,1.411095047E1
2.291775591E1,-6.250500083E-1,-1.333050013E0,1.468995094E1
2.293765591E1,3.580500185E-1,-1.675950050E0,1.488405037E1
2.295755590E1,6.709500551E-1,-1.350000024E0,1.406805038E1
2.297745581E1,3.619500101E-1,-4.020000100E-1,1.264095020E1
2.299735582E1,3.120000064E-1,1.999500096E-1,1.079505062E1
2.301725559E1,4.609500170E-1,3.679500222E-1,8.764950752E0
2.303715559E1,4.489500225E-1,4.080000222E-1,7.033950329E0
2.305705551E1,1.129500046E-1,9.040500522E-1,5.860050201E0
2.307695551E1,-2.179500163E-1,1.645950079E0,5.314950466E0
2.309685552E1,-3.430500031E-1,2.329050064E0,5.170950413E0
2.311675529E1,1.050000079E-3,2.688000202E0,5.365050316E0
2.313665530E1,2.929500043E-1,3.021000147E0,5.692950249E0
2.315655530E1,4.680000246E-1,3.471000195E0,6.021000385E0
2.317645521E1,4.510500133E-1,3.757950068E0,6.094950199E0
2.319635498E1,2.380500138E-1,3.952050209E0,6.081000328E0
2.321625497E1,1.879500151E-1,4.122000217E0,6.451950073E0
2.323615491E1,5.040000081E-1,4.294050217E0,7.074000359E0
2.325605491E1,1.018050075E0,4.486050129E0,7.821000576E0
2.327595490E1,1.357950091E0,4.744050026E0,8.458050728E0
2.329585471E1,9.900000691E-1,5.269050121E0,9.042000771E0
2.331575471E1,2.140500098E-1,5.659050465E0,9.624000549E0
2.333565471E1,-6.130500436E-1,5.824050426E0,1.010295010E1
2.335555465E1,-1.075049996E0,5.692050457E0,1.039695072E1
2.337545465E1,-1.175999999E0,5.472000122E0,1.037595081E1
2.339535440E1,-1.216950059E0,5.590050220E0,1.020600033E1
2.341525440E1,-1.060950041E0,5.817000389E0,1.012905025E1
2.343515431E1,-1.012950063E0,5.932050228E0,9.909000397E0
2.345505430E1,-1.030050039E0,5.724000454E0,9.640950203E0
2.347495407E1,-9.799500704E-1,5.395950317E0,9.358050346E0
2.349485406E1,-8.310000300E-1,5.080050468E0,9.355950356E0
2.351475405E1,-5.509500504E-1,4.657950401E0,9.736950874E0
2.353465397E1,-1.969500035E-1,4.336950302E0,1.055805016E1
2.355455395E1,-1.729500145E-1,4.033050060E0,1.102200031E1
2.357445374E1,-6.130500436E-1,3.721950293E0,1.072995090E1
2.359435374E1,-9.769500494E-1,3.214050055E0,9.640950203E0
2.361425372E1,-1.273950100E0,3.076050043E0,8.614050865E0
2.363415364E1,-1.228950024E0,3.052050114E0,8.346000671E0
2.365405342E1,-1.116000056E0,3.049050093E0,8.503950119E0
2.367395341E1,-1.224000096E0,3.163950205E0,8.556000710E0
2.369385342E1,-1.080000043E0,3.078000069E0,8.371950150E0
2.371375335E1,-8.740500212E-1,3.159000158E0,8.005949974E0
2.373365334E1,-6.709500551E-1,3.253050089E0,7.656000137E0
2.375355310E1,-6.180000305E-1,3.415950060E0,7.447950363E0
2.377345310E1,-7.039500475E-1,3.684000254E0,7.149000168E0
2.379335303E1,-7.450500131E-1,4.255949974E0,7.084050179E0
2.381325303E1,-8.890500665E-1,5.095950127E0,7.213050365E0
2.383315282E1,-1.377000093E0,6.126000404E0,7.129050255E0
2.385305281E1,-2.068950176E0,6.789000511E0,7.267950535E0
2.387295282E1,-2.605050087E0,6.697950363E0,7.690050602E0
2.389285273E1,-2.932950258E0,6.412950516E0,8.259000778E0
2.391275274E1,-2.874000072E0,6.223950386E0,8.686050415E0
2.393265251E1,-2.670000076E0,6.253050327E0,8.881950378E0
2.395255252E1,-2.232000113E0,6.229050159E0,8.926950455E0
2.397245245E1,-1.528050065E0,6.111000061E0,8.985000610E0
2.399235242E1,-8.770500422E-1,6.031950474E0,9.037950516E0
2.401225221E1,-4.270500243E-1,5.989050388E0,8.745000839E0
2.403215221E1,1.050000079E-3,5.893950462E0,8.104050636E0
2.405205221E1,1.609500051E-1,5.785950184E0,7.132050514E0
2.407195221E1,-5.805000290E-2,5.941050053E0,6.042000294E0
2.409185212E1,-8.895000070E-2,6.187950134E0,5.226000309E0
2.411175189E1,3.480000198E-1,6.540000439E0,4.756950378E0
2.413165189E1,1.111950040E0,6.568950176E0,5.298000336E0
2.415155179E1,1.999950051E0,6.078000069E0,6.837000370E0
2.417145179E1,2.589000225E0,5.536950111E0,8.202000618E0
2.419135179E1,2.625000238E0,5.299950123E0,8.779050827E0
2.421125156E1,2.421000004E0,5.026950359E0,9.052050591E0
2.423115155E1,2.058000088E0,4.735050201E0,9.387000084E0
2.425105153E1,1.540050030E0,4.680000305E0,9.703050613E0
2.427095144E1,1.207950115E0,4.773000240E0,9.967050552E0
2.429085144E1,1.227000117E0,4.594050407E0,9.679050446E0
2.431075119E1,1.234050035E0,4.495050430E0,8.671050072E0
2.433065115E1,1.023000002E0,4.432950020E0,7.351950169E0
2.435055109E1,6.640500426E-1,4.432950020E0,6.223950386E0
2.437045109E1,2.400000095E-1,4.560000420E0,5.512950420E0
2.439035111E1,-6.495000422E-2,4.798950195E0,5.319000244E0
2.441025087E1,-2.539499998E-1,5.155950069E0,5.491950035E0
2.443015088E1,-2.419500053E-1,5.323950291E0,5.563950062E0
2.445005092E1,-2.040000111E-1,5.436000347E0,5.499000072E0
2.446995083E1,-6.795000285E-2,5.653950214E0,5.688000202E0
2.448985061E1,6.795000285E-2,5.818950176E0,6.291000366E0
2.450975060E1,-7.695000619E-2,5.908050060E0,7.006950378E0
2.452965060E1,-2.449500114E-1,5.845950127E0,7.729950428E0
2.454955055E1,-3.570000231E-1,5.728050232E0,8.038949966E0
2.456945053E1,-6.760500073E-1,5.970000267E0,8.590050697E0
2.458935055E1,-8.650500178E-1,6.270000458E0,9.649950027E0
2.460925033E1,-9.319500327E-1,6.448950291E0,1.044795036E1
2.462915036E1,-9.559500217E-1,6.577950478E0,1.069005013E1
2.464905028E1,-1.090050101E0,6.688050270E0,1.084500027E1
2.466895028E1,-1.255050063E0,6.640950203E0,1.144605064E1
2.468885004E1,-1.248000026E0,6.741000175E0,1.241295052E1
2.470875004E1,-9.960000515E-1,6.825000286E0,1.264095020E1
2.472865003E1,-8.100000620E-1,6.894000530E0,1.257405090E1
2.474854995E1,-6.679500341E-1,6.580950260E0,1.281300068E1
2.476844992E1,-3.720000088E-1,5.794950485E0,1.318005085E1
2.478834969E1,-2.610000074E-1,4.888050079E0,1.294695091E1
2.480824970E1,-4.789500237E-1,4.278000355E0,1.183905029E1
2.482814966E1,-9.049500227E-1,4.225049973E0,1.032600021E1
2.484804966E1,-1.213950038E0,4.438050270E0,9.064050674E0
2.486794964E1,-1.198050022E0,4.516950130E0,8.386050224E0
2.488784943E1,-7.810500264E-1,4.246050358E0,8.299950600E0
2.490774942E1,-3.930000067E-1,3.805950165E0,8.491950035E0
2.492764935E1,-2.419500053E-1,3.511050224E0,8.587050438E0
2.494754934E1,-2.710500062E-1,3.328950167E0,8.473050117E0
2.496744911E1,-2.659500241E-1,3.223950148E0,8.077950478E0
2.498734914E1,-4.530000091E-1,3.064050198E0,7.776000500E0
2.500724914E1,-7.330500484E-1,3.102000237E0,8.050950050E0
2.502714907E1,-8.190000653E-1,3.265050173E0,8.728950500E0
2.504704907E1,-6.210000515E-1,3.367950201E0,8.908050537E0
2.506694882E1,-3.379500210E-1,3.648000240E0,8.491950035E0
2.508684885E1,-6.495000422E-2,3.957000256E0,7.861950397E0
2.510674878E1,2.430000156E-1,4.234050274E0,7.186950207E0
2.512664878E1,9.000000358E-2,4.584000111E0,6.430050373E0
2.514654852E1,-6.349500418E-1,4.972050190E0,5.805000305E0
2.516644853E1,-1.368000031E0,5.257050037E0,5.311950207E0
2.518634854E1,-1.708050132E0,5.446050167E0,5.152050018E0
2.520624855E1,-1.456050038E0,5.673000336E0,5.092050076E0
2.522614847E1,-1.159050107E0,5.898000240E0,5.298000336E0
2.524604847E1,-4.270500243E-1,6.466050148E0,6.010950089E0
2.526594825E1,1.710000038E-1,7.315950394E0,6.955050468E0
2.528584825E1,7.480500340E-1,7.014000416E0,7.684950352E0
2.530574815E1,7.260000110E-1,6.853950500E0,9.081000328E0
2.532564817E1,-1.144950032E0,6.688050270E0,9.162000656E0
2.534554817E1,-2.047950029E0,6.640950203E0,8.049000740E0
2.536544793E1,-2.220000029E0,7.464000225E0,6.415950298E0
2.538534797E1,-1.066050053E0,7.801950455E0,6.279000282E0
2.540524796E1,2.910000086E-1,7.402050495E0,7.347000122E0
2.542514788E1,1.054050088E0,6.571050167E0,9.001950264E0
2.544504764E1,8.269500136E-1,5.824050426E0,1.009800053E1
2.546494763E1,-1.200000048E-1,5.551050186E0,1.045995045E1
2.548484755E1,-7.879500389E-1,5.436000347E0,1.063200092E1
2.550474755E1,-9.030000567E-1,5.368950367E0,1.047900009E1
2.552464752E1,-6.900000572E-1,5.187000275E0,9.957000732E0
2.554454730E1,-5.320500135E-1,5.173050404E0,9.508950233E0
2.556444730E1,-6.280500293E-1,5.281050205E0,9.342000008E0
2.558434730E1,-5.299500227E-1,5.283000469E0,8.596950531E0
2.560424722E1,-2.880000174E-1,5.287950039E0,6.772950172E0
2.562414698E1,-2.760000229E-1,5.503050327E0,5.283000469E0
2.564404699E1,-4.960500300E-1,5.812050343E0,4.720950127E0
2.566394690E1,-8.500500321E-1,6.061050415E0,4.357050419E0
2.568384692E1,-1.413000107E0,6.066000462E0,3.736950159E0
2.570374690E1,-1.863000035E0,6.801000118E0,3.936000109E0
2.572364666E1,-1.825050116E0,6.637950420E0,4.491000175E0
2.574354663E1,-2.164950132E0,6.693000317E0,4.632000446E0
2.576344656E1,-2.149950027E0,6.541950226E0,4.884000301E0
2.578334657E1,-1.866000056E0,6.657000542E0,5.319000244E0
2.580324633E1,-2.047950029E0,7.174950123E0,5.944050312E0
2.582314633E1,-1.945050120E0,7.324950218E0,6.483000278E0
2.584304637E1,-1.696050048E0,7.198050499E0,7.141050339E0
2.586294627E1,-1.492050052E0,7.356000423E0,7.948050499E0
2.588284601E1,-1.471050024E0,7.668000221E0,8.164050102E0
2.590274603E1,-1.609050035E0,8.014950752E0,8.587050438E0
2.592264603E1,-1.521000028E0,7.825950146E0,9.526050568E0
2.594254596E1,-1.660050035E0,7.474050522E0,9.985950470E0
2.596244594E1,-2.052000046E0,7.380000114E0,9.694050789E0
2.598234571E1,-2.328000069E0,7.561950207E0,9.057000160E0
2.600224570E1,-2.086050034E0,7.516950130E0,9.157050133E0
2.602214563E1,-1.600050092E0,7.012050152E0,1.006005001E1
2.604204563E1,-1.123050094E0,6.030000210E0,1.073505020E1
2.606194541E1,-1.156949997E0,5.202000141E0,1.052895069E1
2.608184539E1,-1.746000051E0,4.938000202E0,9.349050522E0
2.610174538E1,-2.229000092E0,5.250000477E0,8.185050011E0
2.612164531E1,-1.978050113E0,5.617950439E0,7.669950485E0
2.614154506E1,-1.255050063E0,5.641950130E0,7.869000435E0
2.616144506E1,-8.890500665E-1,5.506050110E0,8.166000366E0
2.618134508E1,-8.910000324E-1,5.440950394E0,8.455950737E0
2.620124501E1,-6.060000062E-1,5.368950367E0,8.656949997E0
2.622114501E1,-2.179500163E-1,5.149050236E0,8.305050850E0
2.624104476E1,-1.230000034E-1,4.921950340E0,8.026950836E0
2.626094476E1,-1.009500027E-1,4.735050201E0,8.092050552E0
2.628084469E1,-7.200000435E-2,4.785000324E0,8.121000290E0
2.630074471E1,4.395000264E-2,5.035950184E0,8.314949989E0
2.632064469E1,3.739500046E-1,4.969050407E0,8.122950554E0
2.634054446E1,3.619500101E-1,5.101050377E0,7.267950535E0
2.636044439E1,-1.369500011E-1,5.533950329E0,6.358050346E0
2.638034440E1,-5.610000491E-1,5.926950455E0,5.712000370E0
2.640024419E1,-8.959500194E-1,6.082950115E0,5.482050419E0
2.642014419E1,-1.177950025E0,6.147000313E0,5.511000156E0
2.644004419E1,-1.320000052E0,6.222000122E0,5.713950157E0
2.645994412E1,-1.387050033E0,6.265050411E0,5.701950073E0
2.647984412E1,-1.441950083E0,6.598050117E0,5.590050220E0
2.649974390E1,-1.498950124E0,6.861000538E0,5.583000183E0
2.651964392E1,-1.564050078E0,7.000050545E0,5.916000366E0
2.653954384E1,-1.281000018E0,6.969000340E0,6.949950218E0
2.655944385E1,-1.156949997E0,7.015950203E0,8.170949936E0
2.657934363E1,-1.281000018E0,7.134000301E0,9.093000412E0
2.659924363E1,-1.633050084E0,6.916050434E0,9.318000793E0
2.661914353E1,-1.654950023E0,6.736050129E0,9.154950142E0
2.663904354E1,-1.225950003E0,6.303000450E0,9.090000153E0
2.665894329E1,-5.460000038E-1,5.760000229E0,9.366000175E0
2.667884330E1,3.000000119E-1,5.269050121E0,9.820050240E0
2.669874330E1,8.770500422E-1,4.957050323E0,9.733950615E0
2.671864323E1,7.530000210E-1,4.776000023E0,9.250950813E0
2.673854325E1,2.809500098E-1,4.771050453E0,8.488950729E0
2.675844302E1,-2.895000204E-2,4.890000343E0,8.158950806E0
2.677834304E1,-6.000000238E-2,4.878000259E0,8.221050262E0
2.679824295E1,3.705000132E-2,4.645950317E0,7.903050423E0
2.681814295E1,-2.179500163E-1,4.500000000E0,7.453050137E0
2.683804270E1,-6.010500193E-1,4.576950073E0,7.315950394E0
2.685794268E1,-7.020000219E-1,4.740000248E0,7.572000504E0
2.687784260E1,-8.140500188E-1,4.732050419E0,7.777950287E0
2.689774258E1,-9.960000515E-1,4.759050369E0,7.849950314E0
2.691764235E1,-1.269000053E0,4.864050388E0,7.599000454E0
2.693754237E1,-1.542000055E0,5.187000275E0,7.018950462E0
2.695744231E1,-1.687950134E0,5.506050110E0,6.414000511E0
2.697734233E1,-1.686000109E0,5.793000221E0,6.118950367E0
2.699724207E1,-1.624050021E0,5.994000435E0,6.199950218E0
2.701714207E1,-1.537950039E0,6.046950340E0,6.411000252E0
2.703704197E1,-1.552050114E0,6.202050209E0,6.484950542E0
2.705694195E1,-1.444050074E0,6.396000385E0,6.640950203E0
2.707684195E1,-1.216950059E0,6.538050175E0,7.126950264E0
2.709674170E1,-1.095000029E0,6.511050224E0,7.656000137E0
2.711664160E1,-1.207050085E0,6.403950214E0,7.897950172E0
2.713654161E1,-1.518000126E0,6.541950226E0,7.855050564E0
2.715644137E1,-1.843950033E0,6.766950130E0,8.149050713E0
2.717634138E1,-2.149950027E0,6.870000362E0,8.736000061E0
2.719624141E1,-2.557050228E0,6.966000557E0,9.001950264E0
2.721614133E1,-2.683950186E0,6.697950363E0,8.994000435E0
2.723604133E1,-2.629050016E0,6.352950096E0,8.992050171E0
2.725594106E1,-2.353950024E0,5.980050087E0,9.499950409E0
2.727584097E1,-1.621050119E0,5.391000271E0,1.051005077E1
2.729574097E1,-9.409500360E-1,4.693950176E0,1.129500008E1
2.731564075E1,-6.469500065E-1,4.174950123E0,1.121595097E1
2.733554074E1,-8.959500194E-1,3.928050280E0,1.031100082E1
2.735544068E1,-1.257000089E0,4.057050228E0,9.303000450E0
2.737534066E1,-1.510950089E0,4.291950226E0,8.731050491E0
2.739524043E1,-1.477950096E0,4.279950142E0,8.604000092E0
2.741514045E1,-1.257000089E0,4.045050144E0,8.677950859E0
2.743504046E1,-1.018050075E0,3.882000208E0,8.827050209E0
2.745494041E1,-1.003950000E0,3.897000074E0,8.914950371E0
2.747484041E1,-1.261950016E0,4.036050320E0,8.884050369E0
2.749474018E1,-1.459050059E0,4.189050198E0,8.674050331E0
2.751464015E1,-1.435050011E0,4.210050106E0,8.146950722E0
2.753454006E1,-1.183050036E0,4.300950050E0,7.390050411E0
2.755444007E1,-8.170500398E-1,4.653000355E0,6.730050087E0
2.757433986E1,-5.610000491E-1,4.993050098E0,6.349050522E0
2.759423988E1,-3.640500307E-1,5.319000244E0,6.370050430E0
2.761413981E1,-1.920000017E-1,5.587050438E0,6.516000271E0
2.763403980E1,-2.140500098E-1,5.736000061E0,6.550050259E0
2.765393958E1,-3.859500289E-1,5.716050148E0,6.385050297E0
2.767383957E1,-6.640500426E-1,5.656950474E0,6.078000069E0
2.769373950E1,-1.054050088E0,5.818950176E0,5.779050350E0
2.771363952E1,-1.411050081E0,6.151950359E0,5.796000481E0
2.773353927E1,-1.447050095E0,6.355950356E0,6.018000126E0
2.775343927E1,-1.309950113E0,6.504000187E0,6.315000534E0
2.777333916E1,-9.919500351E-1,6.511050224E0,6.808950424E0
2.779323915E1,-7.570500374E-1,6.415950298E0,7.489050388E0
2.781313892E1,-6.010500193E-1,6.415950298E0,8.394000053E0
2.783303884E1,-7.210500240E-1,6.676950455E0,8.935050011E0
2.785293884E1,-5.220000148E-1,6.621000290E0,9.375000000E0
2.787283861E1,-1.129500046E-1,6.576000214E0,9.733950615E0
2.789273862E1,4.920000136E-1,6.340950489E0,1.103700066E1
2.791263853E1,1.188000083E0,5.380950451E0,1.319400024E1
2.793253853E1,1.258050084E0,4.357050419E0,1.468995094E1
2.795243831E1,8.650500178E-1,3.475050211E0,1.451295090E1
2.797233824E1,3.030000031E-1,2.709000111E0,1.323705101E1
2.799223824E1,-3.690000176E-1,2.458050013E0,1.150095081E1
2.801213826E1,-1.059000015E0,2.791050196E0,1.019895077E1
2.803203803E1,-1.032000065E0,3.265050173E0,9.898950577E0
2.805193802E1,1.159500033E-1,2.944050074E0,9.136050224E0
2.807183794E1,8.749500513E-1,2.707050085E0,7.540950298E0
2.809173794E1,8.820000291E-1,3.009000063E0,6.076050282E0
2.811163771E1,5.059500337E-1,3.595050097E0,5.221050262E0
2.813153763E1,3.405000269E-2,4.131000042E0,4.917000294E0
2.815143764E1,-3.619500101E-1,4.555050373E0,4.984050274E0
2.817133741E1,-5.580000281E-1,4.828050137E0,5.278950214E0
2.819123738E1,-5.700000525E-1,4.846950054E0,5.473050117E0
2.821113738E1,-7.140000463E-1,4.996050358E0,5.662050247E0
2.823103730E1,-8.599500656E-1,5.191950321E0,6.010950089E0
2.825093705E1,-8.839500546E-1,5.197050095E0,6.445050240E0
2.827083704E1,-8.670000434E-1,5.185050011E0,7.000050545E0
2.829073696E1,-6.919500232E-1,5.059950352E0,7.860000610E0
2.831063696E1,-6.520500183E-1,4.869000435E0,8.583000183E0
2.833053673E1,-8.340000510E-1,4.837950230E0,9.094950676E0
2.835043675E1,-1.288950086E0,5.062950134E0,9.526050568E0
2.837033668E1,-1.639950037E0,5.329050064E0,9.868050575E0
2.839023646E1,-1.777050138E0,5.578050137E0,9.727050781E0
2.841013645E1,-1.684050083E0,5.653950214E0,9.496950150E0
2.843003638E1,-1.666950107E0,5.635050297E0,9.682050705E0
2.844993637E1,-1.734000087E0,5.590050220E0,1.045005035E1
2.846983616E1,-1.972950101E0,5.752050400E0,1.096005058E1
2.848973616E1,-1.972950101E0,5.781000137E0,1.092195034E1
2.850963609E1,-1.690950036E0,5.748000145E0,1.077300072E1
2.852953586E1,-1.216950059E0,5.410050392E0,1.105095005E1
2.854943586E1,-8.070000410E-1,4.833000183E0,1.156800079E1
2.856933580E1,-6.540000439E-1,4.057050228E0,1.166895008E1
2.858923581E1,-1.030050039E0,3.595050097E0,1.127100086E1
2.860913557E1,-1.471050024E0,3.349050045E0,1.062000084E1
2.862903557E1,-1.801050067E0,3.279000044E0,9.612000465E0
2.864893556E1,-2.092950106E0,3.373050213E0,8.839050293E0
2.866883548E1,-2.289000034E0,3.412950277E0,8.901000023E0
2.868873525E1,-2.104950190E0,3.198000193E0,9.382050514E0
2.870863518E1,-1.726950049E0,2.922000170E0,9.511950493E0
2.872853518E1,-1.482000113E0,2.829000235E0,9.205050468E0
2.874843495E1,-1.273950100E0,2.752050161E0,8.764950752E0
2.876833496E1,-1.035000086E0,2.848050117E0,8.299950600E0
2.878823488E1,-8.239500523E-1,3.078000069E0,7.905000210E0
2.880813488E1,-6.210000515E-1,3.340950251E0,7.558050156E0
2.882803465E1,-3.810000122E-1,3.556950092E0,7.192050457E0
2.884793463E1,-1.695000008E-2,3.763050079E0,6.937950134E0
2.886783456E1,3.769500256E-1,4.126950264E0,6.781950474E0
2.888773431E1,4.369500279E-1,4.786950111E0,6.535950184E0
2.890763421E1,2.400000095E-1,5.367000103E0,6.835050106E0
2.892753421E1,-3.090000153E-1,5.776050091E0,7.756950378E0
2.894743397E1,-1.159050107E0,5.761950493E0,8.254950523E0
2.896733397E1,-2.019000053E0,5.482050419E0,7.644000530E0
2.898723389E1,-2.553000212E0,5.226000309E0,6.532950401E0
2.900713368E1,-2.929050207E0,5.572950363E0,5.710050106E0
2.902703368E1,-3.040950060E0,6.115950108E0,5.350950241E0
2.904693361E1,-2.839950085E0,6.529950142E0,5.214000225E0
2.906683362E1,-2.385000229E0,6.621000290E0,5.251950264E0
2.908673340E1,-1.963950038E0,6.472950459E0,6.105000496E0
2.910663341E1,-1.629000068E0,6.171000481E0,7.387950420E0
2.912653332E1,-1.636050105E0,6.157050133E0,8.710050583E0
2.914643309E1,-1.482000113E0,5.986950397E0,1.024695015E1
2.916633310E1,-1.092000008E0,5.865000248E0,1.141695023E1
2.918623300E1,-2.329500169E-1,5.431950092E0,1.202595043E1
2.920613278E1,6.499500275E-1,4.960050106E0,1.257600021E1
2.922603280E1,1.411050081E0,4.387950420E0,1.335000038E1
2.924593272E1,1.630950093E0,3.780000210E0,1.384305096E1
2.926583272E1,1.252950072E0,3.175950050E0,1.354305077E1
2.928573250E1,4.650000334E-1,2.913000107E0,1.233000088E1
2.930563249E1,-2.539499998E-1,2.842950106E0,1.059600067E1
2.932553239E1,-6.349500418E-1,2.925000191E0,8.961000443E0
2.934543215E1,-7.260000110E-1,3.130950212E0,7.552950382E0
2.936533215E1,-8.530500531E-1,3.454050064E0,6.373050213E0
2.938523206E1,-8.980500698E-1,3.748050213E0,5.479950428E0
2.940513204E1,-8.580000401E-1,3.957000256E0,5.104050159E0
2.942503181E1,-8.700000644E-1,3.997050285E0,4.960050106E0
2.944493180E1,-1.012950063E0,4.207950115E0,4.855050087E0
2.946483170E1,-1.204950094E0,4.555050373E0,4.504950047E0
2.948473146E1,-1.746000051E0,4.981050014E0,4.126950264E0
2.950463147E1,-2.304000139E0,5.296950340E0,4.005000114E0
2.952453140E1,-2.737050056E0,5.503050327E0,4.264050007E0
2.954443118E1,-2.830050230E0,5.524950027E0,5.058000088E0
2.956433120E1,-2.763000250E0,5.487000465E0,6.097050190E0
2.958423112E1,-2.674950123E0,5.511000156E0,7.024050236E0
2.960413087E1,-2.351999998E0,5.470050335E0,7.563000202E0
2.962403088E1,-2.146050215E0,5.671050072E0,7.723050594E0
2.964393080E1,-2.148000002E0,5.881950378E0,7.960050583E0
2.966383079E1,-2.349000216E0,5.946000099E0,8.587050438E0
2.968373056E1,-2.482950211E0,5.884050369E0,9.543000221E0
2.970363048E1,-2.392050028E0,5.752050400E0,1.076595020E1
2.972353049E1,-2.179050207E0,5.613000393E0,1.166400051E1
2.974343026E1,-2.244000196E0,5.913000107E0,1.177395058E1
2.976333018E1,-2.078999996E0,5.785950184E0,1.154895020E1
2.978323021E1,-1.813050032E0,5.557950497E0,1.147995090E1
2.980312998E1,-1.533000112E0,5.338050365E0,1.198200035E1
2.982303000E1,-1.308000088E0,4.736999989E0,1.260300064E1
2.984292988E1,-1.303050041E0,3.901950121E0,1.286100101E1
2.986282964E1,-1.639950037E0,3.327000141E0,1.242495060E1
2.988272961E1,-2.155050039E0,3.235950232E0,1.135995007E1
2.990262954E1,-2.335050106E0,3.279000044E0,9.988050461E0
2.992252934E1,-2.184000015E0,3.375000238E0,8.769000053E0
2.994242927E1,-1.825050116E0,3.399000168E0,8.094000816E0
2.996232904E1,-1.402950048E0,3.262050152E0,7.933950424E0
2.998222905E1,-1.003950000E0,3.186000109E0,8.560950279E0
3.000212899E1,-7.429500222E-1,2.985000134E0,9.136050224E0
3.002202877E1,-6.919500232E-1,2.700000048E0,9.073050499E0
3.004192876E1,-8.500500321E-1,2.548950195E0,8.587050438E0
3.006182869E1,-9.769500494E-1,2.575050116E0,8.077950478E0
3.008172869E1,-1.000950098E0,2.761950016E0,7.684950352E0
3.010162845E1,-9.439500570E-1,3.054000139E0,7.402050495E0
3.012152835E1,-9.490500689E-1,3.526050091E0,7.045950413E0
3.014142834E1,-9.370500445E-1,3.892050266E0,6.724950314E0
3.016132812E1,-8.770500422E-1,4.254000187E0,6.523950100E0
3.018122806E1,-9.220500588E-1,4.584000111E0,6.481050491E0
3.020112807E1,-1.123050094E0,4.894950390E0,6.423000336E0
3.022102784E1,-1.417950034E0,5.130000114E0,6.318000317E0
3.024092773E1,-1.825050116E0,5.317050457E0,6.199950218E0
3.026082750E1,-2.128950119E0,5.479050159E0,6.205050468E0
3.028072750E1,-2.176950216E0,5.659050465E0,6.331950188E0
3.030062743E1,-2.078999996E0,5.575050354E0,6.721950531E0
3.032052720E1,-1.978050113E0,5.391000271E0,7.429050446E0
3.034042719E1,-2.031000137E0,5.238000393E0,8.179950714E0
3.036032712E1,-2.158050060E0,5.082000256E0,8.929950714E0
3.038022712E1,-2.351999998E0,4.969050407E0,9.543000221E0
3.040012689E1,-2.530950069E0,5.056050301E0,1.004295063E1
3.042002682E1,-2.529000044E0,5.295000076E0,1.025100040E1
3.043992660E1,-1.855950117E0,5.199000359E0,1.060095024E1
3.045982653E1,-6.610500216E-1,4.809000015E0,1.138095093E1
3.047972655E1,4.890000224E-1,4.063950062E0,1.229400063E1
3.049962628E1,1.095000029E0,3.235950232E0,1.261005020E1
3.051952628E1,1.009050012E0,2.518050194E0,1.232505035E1
3.053942619E1,5.970000029E-1,2.146950006E0,1.172400093E1
3.055932598E1,1.830000132E-1,2.125050068E0,1.069200039E1
3.057922599E1,1.450500041E-1,2.235000134E0,9.540000916E0
3.059912569E1,5.470499992E-1,2.290050030E0,8.668950081E0
3.061902568E1,8.580000401E-1,2.580000162E0,8.298000336E0
3.063892558E1,9.180000424E-1,2.677950144E0,8.278950691E0
3.065882558E1,5.320500135E-1,2.685000181E0,8.247000694E0
3.067872535E1,-7.200000435E-2,2.680950165E0,8.086950302E0
3.069862537E1,-6.520500183E-1,2.692950010E0,7.696950436E0
3.071852529E1,-1.119000077E0,2.968050241E0,7.237050533E0
3.073842506E1,-1.315050006E0,3.322050095E0,7.174950123E0
3.075832499E1,-1.150050044E0,3.466050148E0,7.402050495E0
3.077822500E1,-1.032000065E0,3.424950123E0,7.632000446E0
3.079812477E1,-1.051950097E0,3.472950220E0,7.735050201E0
3.081802472E1,-1.252950072E0,3.691050291E0,7.579950333E0
3.083792449E1,-1.380000114E0,3.862950087E0,7.378050327E0
3.085782450E1,-1.384050012E0,3.937950134E0,7.218000412E0
3.087772441E1,-1.375050068E0,4.085999966E0,7.512000561E0
3.089762416E1,-1.333950043E0,4.183950424E0,8.236050606E0
3.091752415E1,-1.312050104E0,4.150950432E0,9.117000580E0
3.093742408E1,-1.308000088E0,4.051949978E0,9.993000031E0
3.095732385E1,-1.317000031E0,4.085999966E0,1.092405033E1
3.097722378E1,-1.293000102E0,4.179000378E0,1.167105103E1
3.099712355E1,-1.356000066E0,4.278000355E0,1.186995029E1
3.101702354E1,-1.570950031E0,4.311000347E0,1.167795086E1
3.103692347E1,-1.777050138E0,4.249050140E0,1.135800076E1
3.105682325E1,-1.947000146E0,4.282050133E0,1.119195080E1
3.107672317E1,-2.078999996E0,4.407000065E0,1.125900078E1
3.109662317E1,-1.918050051E0,4.190999985E0,1.180005074E1
3.111652294E1,-1.492050052E0,3.861000299E0,1.264800072E1
3.113642289E1,-1.336050034E0,3.367950201E0,1.331400108E1
3.115632288E1,-1.486950040E0,2.841000080E0,1.346895027E1
3.117622266E1,-1.629000068E0,2.029050112E0,1.278000069E1
3.119612260E1,-1.866000056E0,1.744050026E0,1.163295078E1
3.121602236E1,-1.849050045E0,1.681950092E0,1.036905003E1
3.123592237E1,-1.672050118E0,1.753950119E0,9.267000198E0
3.125582231E1,-1.333950043E0,1.831050038E0,8.464950562E0
3.127572207E1,-9.409500360E-1,1.957950115E0,8.068050385E0
3.129562198E1,-5.629500151E-1,2.094000101E0,7.984050274E0
3.131552198E1,-3.960000277E-1,2.211000204E0,8.085000038E0
3.133542174E1,-4.800000042E-2,2.118000031E0,8.350049973E0
3.135532166E1,3.409500122E-1,1.986000061E0,8.698050499E0
3.137522142E1,5.730000138E-1,1.861950040E0,8.935050011E0
3.139512134E1,5.760000348E-1,1.716000080E0,8.821949959E0
3.141502133E1,3.600000143E-1,1.765950084E0,8.335950851E0
3.143492112E1,-1.995000057E-2,2.143949986E0,7.432950497E0
3.145482104E1,-9.900000691E-2,2.515050173E0,6.616950512E0
3.147472082E1,1.780500114E-1,2.709000111E0,6.009000301E0
3.149462081E1,4.650000334E-1,3.202950239E0,5.632950306E0
3.151452073E1,5.899500251E-1,3.784050226E0,5.584950447E0
3.153442050E1,2.910000086E-1,4.420950413E0,5.604000092E0
3.155432042E1,-3.169500232E-1,5.065050125E0,5.499000072E0
3.157422020E1,-8.380500674E-1,5.434050083E0,5.683050156E0
3.159412020E1,-1.537950039E0,5.713950157E0,6.349050522E0
3.161402012E1,-2.050050020E0,5.446050167E0,7.539000511E0
3.163391989E1,-2.364000082E0,4.468950272E0,8.937000275E0
3.165381982E1,-2.446950197E0,2.920050144E0,9.820050240E0
3.167371981E1,-2.304000139E0,2.380950212E0,1.035705090E1
3.169361958E1,-3.235050201E0,3.844050169E0,1.074900055E1
3.171351950E1,-3.100950241E0,3.271950245E0,1.181700039E1
3.173341927E1,-2.502000093E0,2.013000011E0,1.269600105E1
3.175331923E1,-2.329950094E0,1.359000087E0,1.284900093E1
3.177321912E1,-2.257950068E0,1.443000078E0,1.304295063E1
3.179311889E1,-2.137950182E0,1.546050072E0,1.368195057E1
3.181301884E1,-1.492050052E0,1.522050023E0,1.375395107E1
3.183291861E1,-3.880500197E-1,1.311000109E0,1.384005070E1
3.185281861E1,1.800000072E-1,1.215000033E0,1.352205086E1
3.187271855E1,4.770000279E-1,8.110500574E-1,1.300005054E1
3.189261830E1,3.720000088E-1,7.480500340E-1,1.215195084E1
3.191251831E1,3.100500107E-1,1.041000009E0,1.108695030E1
3.193241802E1,6.040500402E-1,1.117050052E0,9.973950386E0
3.195231801E1,1.099950075E0,1.126950026E0,8.805000305E0
3.197221794E1,1.159950018E0,1.360950112E0,7.552950382E0
3.199211773E1,8.010000587E-1,1.828050137E0,6.514050484E0
3.201201765E1,2.500500083E-1,2.302050114E0,5.800950050E0
3.203191742E1,-2.929500043E-1,2.685000181E0,5.394000053E0
3.205181743E1,-7.260000110E-1,2.908050060E0,5.227950096E0
3.207171737E1,-1.090050101E0,3.139950037E0,5.326950073E0
3.209161716E1,-1.393950105E0,3.331950188E0,5.758050442E0
3.211151707E1,-1.542000055E0,3.430050135E0,6.258000374E0
3.213141682E1,-1.573050022E0,3.432000160E0,6.796950340E0
3.215131682E1,-1.750950098E0,3.423000097E0,7.405050278E0
3.217121675E1,-1.996950150E0,3.459000111E0,8.158950806E0
3.219111650E1,-2.100000143E0,3.523050070E0,8.851050377E0
3.221101640E1,-2.011950016E0,3.553950071E0,9.640950203E0
3.223091641E1,-2.011950016E0,3.624000072E0,1.024695015E1
3.225081616E1,-2.119050026E0,3.741000175E0,1.067295074E1
3.227071607E1,-2.248950005E0,3.712050200E0,1.086000061E1
3.229061583E1,-2.521950006E0,3.592950106E0,1.103205013E1
3.231051583E1,-2.692050219E0,3.463050127E0,1.144095039E1
3.233041574E1,-2.521950006E0,3.186000109E0,1.207800102E1
3.235031550E1,-2.586000204E0,3.073050261E0,1.255005074E1
3.237021543E1,-2.715000153E0,2.830950022E0,1.262595081E1
3.239011520E1,-2.818050146E0,2.472000122E0,1.200900078E1
3.241001513E1,-2.883000135E0,2.353049994E0,1.126695061E1
3.242991490E1,-2.881050110E0,2.254050016E0,1.095300007E1
3.244981489E1,-2.839950085E0,2.014950037E0,1.097895050E1
3.246971482E1,-2.839950085E0,1.620000124E0,1.080405045E1
3.248961460E1,-2.980950117E0,1.456950068E0,1.026600075E1
3.250951454E1,-3.067050219E0,1.539000034E0,9.727050781E0
3.252941454E1,-2.908950090E0,1.618050098E0,9.361050606E0
3.254931431E1,-2.445000172E0,1.539000034E0,9.042000771E0
3.256921424E1,-1.906050086E0,1.444950104E0,8.868000031E0
3.258911401E1,-1.581000090E0,1.474050045E0,8.853000641E0
3.260901395E1,-1.305000067E0,1.552950025E0,9.070950508E0
3.262891393E1,-1.008000016E0,1.585950017E0,9.247950554E0
3.264881371E1,-9.130500555E-1,1.653000116E0,9.291000366E0
3.266871363E1,-8.700000644E-1,1.665000081E0,9.138000488E0
3.268861340E1,-8.479500413E-1,1.744050026E0,8.808000565E0
3.270851339E1,-8.290500641E-1,1.953000069E0,8.271000862E0
3.272841308E1,-7.980000377E-1,2.226000071E0,7.675050259E0
3.274831308E1,-6.679500341E-1,2.544000149E0,7.450050354E0
3.276821303E1,-4.510500133E-1,2.908050060E0,7.594050407E0
3.278811281E1,-5.509500504E-1,3.301050186E0,7.483950138E0
3.280801273E1,-9.889500737E-1,3.808050156E0,7.006950378E0
3.282791248E1,-1.245000005E0,3.990000248E0,6.327000141E0
3.284781239E1,-1.317000031E0,4.096050262E0,5.865000248E0
3.286771240E1,-1.521000028E0,4.651050091E0,5.881950378E0
3.288761217E1,-1.767000079E0,5.287950039E0,6.399000168E0
3.290751209E1,-2.028000116E0,5.665950298E0,7.033950329E0
3.292741187E1,-2.188950062E0,5.764050484E0,7.644000530E0
3.294731181E1,-1.849050045E0,5.475000381E0,8.145000458E0
3.296721180E1,-1.675950050E0,5.400000095E0,8.935050011E0
3.298711156E1,-1.980000138E0,5.416950226E0,1.061805058E1
3.300701147E1,-2.269950151E0,4.716000080E0,1.333305073E1
3.302691124E1,-1.855950117E0,3.018000126E0,1.529805088E1
3.304681116E1,-1.293000102E0,1.849950075E0,1.531500053E1
3.306671093E1,-6.090000272E-1,1.383000016E0,1.410600090E1
3.308661085E1,-3.000000026E-3,1.797000051E0,1.240605068E1
3.310651062E1,1.030050039E0,1.651050091E0,1.094595051E1
3.312641063E1,1.612050056E0,1.938000083E0,1.032795048E1
3.314631054E1,1.873050094E0,2.140050173E0,1.001700020E1
3.316621034E1,2.059950113E0,1.810950041E0,9.981000900E0
3.318611026E1,2.007000208E0,1.551000118E0,9.607050896E0
3.320601000E1,1.906950116E0,1.732050061E0,8.769000053E0
3.322590993E1,1.537950039E0,2.173050165E0,8.022000313E0
3.324580991E1,1.027950048E0,2.587050200E0,7.744950294E0
3.326570968E1,3.670500219E-1,2.806950092E0,7.687050343E0
3.328560961E1,-2.895000204E-2,3.339000225E0,6.967050552E0
3.330550938E1,-4.980000257E-1,3.765000105E0,6.916050434E0
3.332540938E1,-1.051950097E0,3.600000143E0,7.444950581E0
3.334530908E1,-1.638000131E0,3.709950209E0,8.233050346E0
3.336520906E1,-2.122050047E0,3.684000254E0,8.728950500E0
3.338510896E1,-2.320050001E0,3.424950123E0,8.737950325E0
3.340500872E1,-2.083050013E0,3.112050056E0,8.595000267E0
3.342490866E1,-1.831950068E0,3.157050133E0,8.281050682E0
3.344480843E1,-1.762950063E0,3.444000244E0,8.133000374E0
3.346470835E1,-1.815000057E0,3.693000078E0,8.274000168E0
3.348460814E1,-1.951950073E0,3.820050240E0,8.719050407E0
3.350450808E1,-2.208000183E0,3.966000080E0,9.289050102E0
3.352440788E1,-2.320050001E0,3.966000080E0,9.694050789E0
3.354430780E1,-2.404050112E0,4.000050068E0,9.958950043E0
3.356420782E1,-2.433000088E0,4.021049976E0,1.007205009E1
3.358410758E1,-2.035950184E0,3.945000172E0,1.007895088E1
3.360400751E1,-1.114050031E0,3.913950205E0,1.007400036E1
3.362390728E1,-3.210000098E-1,3.720000267E0,1.012005043E1
3.364380722E1,-6.520500183E-1,3.640950203E0,1.081605053E1
3.366370701E1,-1.399050117E0,3.543000221E0,1.107495022E1
3.368360701E1,-1.947000146E0,3.121050119E0,1.099800014E1
3.370350694E1,-2.589000225E0,3.235950232E0,1.076595020E1
3.372340671E1,-3.010050058E0,3.283950090E0,1.104195023E1
3.374330659E1,-2.787000179E0,2.749950171E0,1.128795052E1
3.376320636E1,-2.452050209E0,2.046000004E0,1.144905090E1
3.378310629E1,-2.068950176E0,1.536000013E0,1.190100098E1
3.380300627E1,-2.203050137E0,1.404000044E0,1.160205078E1
3.382290596E1,-2.610000134E0,1.539000034E0,1.009305000E1
3.384280596E1,-2.530950069E0,1.548000097E0,8.554050446E0
3.386270570E1,-2.292000055E0,1.941000104E0,7.795050144E0
3.388260560E1,-1.561050057E0,1.876050115E0,8.230950356E0
3.390250537E1,-6.229500175E-1,1.251000047E0,9.049950600E0
3.392240531E1,-3.550500274E-1,1.777950048E0,8.560950279E0
3.394230508E1,-3.210000098E-1,1.144050002E0,6.837000370E0
3.396220503E1,1.305000018E-2,2.034000158E0,6.639000416E0
3.398210501E1,-1.126049995E0,3.247950077E0,6.355950356E0
3.400200479E1,-2.059050083E0,4.108050346E0,6.841950417E0
3.402190471E1,-2.035950184E0,4.267950058E0,7.680000305E0
3.404180447E1,-1.423050046E0,3.628950119E0,8.038949966E0
3.406170442E1,-1.051950097E0,3.076050043E0,7.908000469E0
3.408160417E1,-1.240950108E0,2.875050068E0,7.735050201E0
3.410150418E1,-1.606950045E0,2.944050074E0,7.735050201E0
3.412140411E1,-2.212949991E0,3.171000242E0,8.122950554E0
3.414130385E1,-2.680050135E0,3.664950132E0,8.464950562E0
3.416120356E1,-2.883000135E0,4.135950089E0,8.683050156E0
3.418110358E1,-2.871000051E0,4.447950363E0,9.028050423E0
3.420100351E1,-2.536050081E0,4.537950039E0,9.339000702E0
3.422090328E1,-1.842000127E0,4.263000011E0,9.423000336E0
3.424080318E1,-1.233000040E0,3.823050261E0,9.423000336E0
3.426070293E1,-1.240950108E0,3.733950138E0,9.361050606E0
3.428060282E1,-1.636050105E0,3.661950111E0,9.270000458E0
3.430050258E1,-1.722000122E0,3.451950073E0,9.612000465E0
3.432040250E1,-2.209950209E0,3.921000242E0,9.733950615E0
3.434030250E1,-2.269950151E0,3.916050196E0,9.424950600E0
3.436020226E1,-1.945050120E0,3.528000116E0,1.009095001E1
3.438010219E1,-1.614000082E0,3.055950165E0,1.073505020E1
3.440000198E1,-8.220000267E-1,2.827050209E0,1.036200047E1
3.441990191E1,-4.270500243E-1,3.187950134E0,9.768000603E0
3.443980166E1,-1.468050122E0,3.607050180E0,9.394050598E0
3.445970162E1,-2.821050167E0,3.700950146E0,1.028505039E1
3.447960163E1,-3.790050268E0,3.535050154E0,1.142700100E1
3.449950132E1,-4.128000259E0,3.703050137E0,1.143405056E1
3.451940109E1,-3.381000042E0,3.432000160E0,1.035900021E1
3.453930109E1,-2.323050022E0,3.235950232E0,9.258000374E0
3.455920080E1,-1.437000036E0,3.838950157E0,8.805000305E0
3.457910083E1,-3.310500085E-1,3.994950294E0,8.925000191E0
3.459900076E1,9.195000678E-2,4.069050312E0,8.961000443E0
3.461890052E1,-2.950500250E-1,3.990000248E0,8.965950012E0
3.463880045E1,-8.670000434E-1,4.006950378E0,8.546999931E0
3.465870023E1,-1.047000051E0,3.916050196E0,7.861950397E0
3.467860017E1,-1.285950065E0,3.801000118E0,7.498050213E0
3.469850018E1,-1.432050109E0,3.792000294E0,7.234950542E0
3.471839985E1,-1.510950089E0,3.712050200E0,6.754050255E0
3.473829986E1,-1.861050129E0,3.922950268E0,6.253050327E0
3.475819964E1,-1.899000049E0,3.703050137E0,5.737950325E0
3.477809931E1,-2.638950109E0,4.354050159E0,6.466050148E0
3.479799930E1,-2.923950195E0,4.285050392E0,6.873000145E0
3.481789923E1,-2.719950199E0,4.251000404E0,8.053950310E0
3.483779900E1,-2.332050085E0,4.108050346E0,8.446050644E0
3.485769892E1,-2.446950197E0,4.603050232E0,8.428950310E0
3.487759867E1,-2.677050114E0,5.002950191E0,8.559000015E0
3.489749859E1,-2.725050211E0,4.825950146E0,8.932050705E0
3.491739836E1,-3.010050058E0,4.644000053E0,9.330000877E0
3.493729829E1,-3.430950165E0,4.416000366E0,9.789000511E0
3.495719805E1,-3.664050102E0,4.231950283E0,1.031400013E1
3.497709806E1,-3.618000269E0,4.066950321E0,1.051500034E1
3.499699777E1,-3.640050173E0,4.110000134E0,1.014795017E1
3.501689776E1,-3.577050209E0,4.099950314E0,9.483000755E0
3.503679746E1,-3.474000216E0,4.190999985E0,8.821949959E0
3.505669737E1,-3.268950224E0,4.440000057E0,8.250000000E0
3.507659737E1,-2.823000193E0,4.621950150E0,8.413050652E0
3.509649714E1,-2.323050022E0,4.459050179E0,9.588000298E0
3.511639705E1,-2.056950092E0,4.432950020E0,1.113300037E1
3.513629680E1,-1.714950085E0,3.954000235E0,1.244505024E1
3.515619673E1,-1.791000128E0,3.088050127E0,1.260705090E1
3.517609651E1,-1.866000056E0,2.584950209E0,1.189905071E1
3.519599643E1,-1.825050116E0,2.575050116E0,1.107300091E1
3.521589620E1,-1.660050035E0,3.102000237E0,1.045005035E1
3.523579610E1,-8.310000300E-1,3.763050079E0,1.071795082E1
3.525569585E1,5.320500135E-1,3.552000284E0,1.068195057E1
3.527559580E1,1.042050004E0,3.358050108E0,1.096995068E1
3.529549577E1,7.980000377E-1,3.010950089E0,1.066095066E1
3.531539545E1,-1.080000028E-1,2.839050055E0,9.652950287E0
3.533529521E1,-8.029500246E-1,2.833950043E0,8.061000824E0
3.535519518E1,-1.095000029E0,2.869950056E0,6.672000408E0
3.537509509E1,-1.324050069E0,3.214050055E0,5.788950443E0
3.539499485E1,-1.498950124E0,3.564000130E0,5.643000126E0
3.541489478E1,-1.786950111E0,3.780000210E0,5.917950153E0
3.543479458E1,-2.320050001E0,4.170000076E0,6.049950123E0
3.545469450E1,-2.340000153E0,4.084050179E0,5.632950306E0
3.547459425E1,-2.208000183E0,3.684000254E0,5.202000141E0
3.549449420E1,-2.119050026E0,3.889950275E0,5.068050385E0
3.551439398E1,-2.016000032E0,4.155000210E0,5.607000351E0
3.553429400E1,-2.014050007E0,4.447950363E0,6.157050133E0
3.555419370E1,-1.909050107E0,4.821000099E0,6.520950317E0
3.557409374E1,-1.626000047E0,5.029050350E0,6.748950481E0
3.559399366E1,-1.447050095E0,5.257050037E0,7.171950340E0
3.561389342E1,-1.420050025E0,5.391000271E0,8.101050377E0
3.563379336E1,-1.561050057E0,5.395950317E0,9.303000450E0
3.565369314E1,-1.858050108E0,5.101050377E0,1.027305031E1
3.567359308E1,-2.059050083E0,4.633950233E0,1.078500080E1
3.569349286E1,-1.783950090E0,3.847050190E0,1.080705070E1
3.571339278E1,-2.131050110E0,3.976050138E0,1.047900009E1
3.573329279E1,-2.052000046E0,3.459000111E0,1.038300037E1
3.575319254E1,-2.365950108E0,2.659050226E0,1.056495094E1
3.577309225E1,-3.525000095E0,2.640000105E0,1.067505074E1
3.579299226E1,-4.102050304E0,2.479050159E0,1.064205074E1
3.581289216E1,-3.670950174E0,2.250000000E0,1.055505085E1
3.583279193E1,-2.614950180E0,2.323950052E0,1.024200058E1
3.585269184E1,-1.549950123E0,2.779050112E0,1.009605026E1
3.587259160E1,-1.066050053E0,3.289050102E0,1.007205009E1
3.589249150E1,-1.480050087E0,3.813000202E0,9.921000481E0
3.591239129E1,-2.281949997E0,4.078950405E0,9.387000084E0
3.593229122E1,-2.598000050E0,3.849000216E0,8.635050774E0
3.595219098E1,-2.653050184E0,3.583050251E0,8.029950142E0
3.597209097E1,-2.988000154E0,3.595050097E0,7.977000237E0
3.599199068E1,-3.553050280E0,3.814950228E0,8.194950104E0
3.601189061E1,-3.795000076E0,3.753000259E0,8.190000534E0
3.603179062E1,-3.747000217E0,3.633000135E0,7.869000435E0
3.605169028E1,-3.810000181E0,3.832050085E0,7.696950436E0
3.607159030E1,-3.751950264E0,3.865950108E0,7.740000248E0
3.609149008E1,-3.762000084E0,4.072050095E0,7.807050228E0
3.611138999E1,-3.667950153E0,4.186950207E0,7.860000610E0
3.613128976E1,-3.570000172E0,3.958950281E0,7.872000217E0
3.615118969E1,-3.771000147E0,3.865950108E0,7.795050144E0
3.617108946E1,-4.135050297E0,3.508950233E0,7.435950279E0
3.619098937E1,-4.581000328E0,3.283950090E0,6.979050159E0
3.621088913E1,-4.813050270E0,2.623050213E0,6.415950298E0
3.623078903E1,-5.565000057E0,2.062950134E0,5.635050297E0
3.625068880E1,-7.020000458E0,2.203950167E0,5.212050438E0
3.627058873E1,-8.385000229E0,2.392950058E0,5.347950459E0
3.629048869E1,-8.926050186E0,2.329050064E0,6.318000317E0
3.631038837E1,-8.204999924E0,1.741950035E0,7.647000313E0
3.633028812E1,-6.810000420E0,1.419000030E0,9.721950531E0
3.635018815E1,-5.325000286E0,1.597950101E0,1.247295094E1
3.637008805E1,-4.276950359E0,1.873950124E0,1.468095112E1
3.638998782E1,-3.654000282E0,1.861950040E0,1.516005039E1
3.640988777E1,-3.613050222E0,1.858950138E0,1.395000076E1
3.642978754E1,-3.424050093E0,2.166000128E0,1.325595093E1
3.644968746E1,-2.601000071E0,2.293050051E0,1.375695038E1
3.646958725E1,-1.542000055E0,2.185050011E0,1.426200104E1
3.648948719E1,-5.700000525E-1,1.609950066E0,1.314795017E1
3.650938697E1,5.805000290E-2,1.069050074E0,1.085700035E1
3.652928692E1,3.195000067E-2,8.110500574E-1,8.365050316E0
3.654918670E1,-3.139500022E-1,1.278000116E0,7.246950150E0
3.656908662E1,-7.330500484E-1,1.825950146E0,6.085950375E0
3.658898641E1,-6.730500460E-1,2.206950188E0,6.435000420E0
3.660888635E1,-1.990500093E-1,2.319000006E0,7.339950562E0
3.662878637E1,4.990500212E-1,2.305050135E0,8.058000565E0
3.664868605E1,1.282050014E0,2.556000233E0,8.326050758E0
3.666858606E1,2.263050079E0,2.547000170E0,8.875050545E0
3.668848580E1,2.125050068E0,2.590050220E0,9.282000542E0
3.670838571E1,1.120950103E0,3.102000237E0,9.274950027E0
3.672828551E1,2.790000141E-1,2.890950203E0,8.901000023E0
3.674818544E1,-1.150500029E-1,2.107950211E0,8.202000618E0
3.676808522E1,-7.039500475E-1,1.921950102E0,7.278000355E0
3.678798514E1,-1.401000023E0,2.239950180E0,6.663000107E0
3.680788490E1,-1.827000141E0,2.725950241E0,6.631050110E0
3.682778490E1,-2.218050003E0,3.223950148E0,6.985950470E0
3.684768457E1,-2.647950172E0,3.789000273E0,7.297050476E0
3.686758447E1,-2.692050219E0,4.195950031E0,7.600950241E0
3.688748447E1,-2.433000088E0,4.420950413E0,7.963050365E0
3.690738417E1,-2.110050201E0,4.810950279E0,8.584950447E0
3.692728416E1,-1.861050129E0,5.178000450E0,9.634050369E0
3.694718394E1,-1.765050054E0,5.400000095E0,1.076100063E1
3.696708364E1,-1.770000100E0,5.122950077E0,1.130700016E1
3.698698364E1,-1.815000057E0,4.789950371E0,1.131195068E1
3.700688357E1,-1.794000030E0,4.668000221E0,1.100100040E1
3.702678334E1,-1.674000025E0,4.677000046E0,1.071600056E1
3.704668324E1,-1.594950080E0,4.450050354E0,1.038600063E1
3.706658301E1,-1.723950028E0,4.165050030E0,9.880050659E0
3.708648292E1,-1.743000031E0,3.796050072E0,9.483000755E0
3.710638293E1,-1.867950082E0,3.496950150E0,9.901950836E0
3.712628263E1,-1.935000062E0,3.219000101E0,1.131900024E1
3.714618237E1,-1.782000065E0,2.596950054E0,1.276305103E1
3.716608237E1,-1.393950105E0,1.813950062E0,1.331805038E1
3.718598205E1,-8.719500303E-1,1.251000047E0,1.264995098E1
3.720588202E1,-5.700000525E-1,1.342050076E0,1.167600060E1
3.722578196E1,-5.659500360E-1,1.825950146E0,1.086195087E1
3.724568174E1,-7.500000596E-1,2.247000217E0,1.004100037E1
3.726558165E1,-7.810500264E-1,2.175000191E0,8.959050179E0
3.728548142E1,-1.027950048E0,2.218950033E0,7.735050201E0
3.730538133E1,-1.557000041E0,2.685000181E0,6.847050190E0
3.732528110E1,-1.936950088E0,3.229050159E0,6.595050335E0
3.734518100E1,-2.184000015E0,3.636000156E0,6.769950390E0
3.736508074E1,-2.323050022E0,3.885000229E0,6.828000546E0
3.738498074E1,-2.541000128E0,3.970950127E0,6.516000271E0
3.740488067E1,-2.974050045E0,4.167000294E0,6.016050339E0
3.742478036E1,-3.621000290E0,4.416000366E0,5.764950275E0
3.744468036E1,-4.303050041E0,4.797000408E0,6.054000378E0
3.746458015E1,-4.588050365E0,4.984050274E0,6.733950138E0
3.748448007E1,-4.303050041E0,4.668000221E0,7.560000420E0
3.750437985E1,-3.960000277E0,4.254000187E0,7.993950367E0
3.752427980E1,-4.000950336E0,4.291950226E0,8.134950638E0
3.754417957E1,-4.207050323E0,4.564949989E0,8.239950180E0
3.756407943E1,-4.150050163E0,4.684950352E0,8.346000671E0
3.758397921E1,-3.949050188E0,4.627050400E0,8.347949982E0
3.760387914E1,-3.829050064E0,4.540950298E0,8.046000481E0
3.762377914E1,-4.156949997E0,4.483050346E0,7.632000446E0
3.764367891E1,-4.687950134E0,4.438050270E0,7.263000488E0
3.766357885E1,-5.239050388E0,4.369050026E0,6.888000488E0
3.768347865E1,-5.838000298E0,4.515000343E0,6.709950447E0
3.770337856E1,-6.430950165E0,4.744050026E0,7.021950245E0
3.772327832E1,-6.546000481E0,4.620000362E0,7.813950539E0
3.774317824E1,-5.758950233E0,3.862950087E0,9.310950279E0
3.776307797E1,-4.771950245E0,3.223950148E0,1.153995037E1
3.778297797E1,-4.308000088E0,2.986950159E0,1.334205055E1
3.780287790E1,-3.759000063E0,2.452950001E0,1.377795029E1
3.782277760E1,-2.908950090E0,1.974000096E0,1.285605049E1
3.784267759E1,-1.714950085E0,1.567050099E0,1.137195015E1
3.786257734E1,-9.390000701E-1,1.701000094E0,1.035405064E1
3.788247728E1,-8.479500413E-1,2.116050005E0,9.825000763E0
3.790237703E1,-1.008000016E0,2.299950123E0,9.238950729E0
3.792227698E1,-1.047000051E0,2.343000174E0,8.347949982E0
3.794217676E1,-1.055999994E0,2.554050207E0,7.570050240E0
3.796207676E1,-1.174050093E0,2.869950056E0,7.093050480E0
3.798197668E1,-1.308000088E0,3.339000225E0,6.880050182E0
3.800187643E1,-1.477950096E0,3.715050220E0,7.048050404E0
3.802177635E1,-1.521000028E0,3.862950087E0,7.273050308E0
3.804167611E1,-1.537950039E0,3.799050093E0,7.359000206E0
3.806157604E1,-1.899000049E0,3.724050283E0,7.366050243E0
3.808147583E1,-2.469000101E0,3.745950222E0,7.411950588E0
3.810137577E1,-2.919000149E0,3.712050200E0,7.606050491E0
3.812127554E1,-3.058050156E0,3.715050220E0,7.840050220E0
3.814117545E1,-2.919000149E0,3.745950222E0,8.116050720E0
3.816107523E1,-2.713050127E0,3.930000305E0,8.298000336E0
3.818097517E1,-2.719950199E0,4.111950397E0,8.358000755E0
3.820087518E1,-2.787000179E0,4.369050026E0,8.676000595E0
3.822077496E1,-2.668050051E0,4.261050224E0,9.298950195E0
3.824067487E1,-2.670000076E0,4.201050282E0,9.871050835E0
3.826057462E1,-2.601000071E0,4.062000275E0,1.014600086E1
3.828047455E1,-2.440050125E0,3.954000235E0,1.011300087E1
3.830037432E1,-2.170050144E0,4.050000191E0,1.004295063E1
3.832027426E1,-2.042999983E0,4.261050224E0,9.736950874E0
3.834017427E1,-1.863000035E0,4.165050030E0,9.010950089E0
3.836007397E1,-1.960950136E0,4.174950123E0,8.034000397E0
3.837997374E1,-2.257950068E0,4.138950348E0,7.627050400E0
3.839987373E1,-2.845050097E0,4.266000271E0,8.013000488E0
3.841977365E1,-3.142050266E0,4.045050144E0,8.745000839E0
3.843967344E1,-3.331050158E0,3.592950106E0,8.961000443E0
3.845957336E1,-3.546000242E0,3.219000101E0,8.688000679E0
3.847947311E1,-3.793050289E0,3.163950205E0,8.449049950E0
3.849937311E1,-3.714000225E0,3.307950258E0,8.824049950E0
3.851927280E1,-3.216000080E0,3.118950129E0,9.483000755E0
3.853917280E1,-2.497950077E0,2.937000036E0,9.933000565E0
3.855907271E1,-1.687950134E0,2.950950146E0,1.008405018E1
3.857897249E1,-9.199500680E-1,3.109050035E0,1.016295052E1
3.859887244E1,-5.610000491E-1,3.370050192E0,1.013205051E1
3.861877220E1,-6.109500527E-1,3.720000267E0,9.990000725E0
3.863867219E1,-7.120500207E-1,3.859050274E0,9.552000046E0
3.865857187E1,-7.549500465E-1,3.811050177E0,8.785950661E0
3.867847187E1,-8.980500698E-1,3.772050142E0,8.061000824E0
3.869837179E1,-1.240950108E0,3.925950289E0,7.480950356E0
3.871827156E1,-1.578000069E0,4.231950283E0,7.162950516E0
3.873817148E1,-1.927950144E0,4.444950104E0,7.327950478E0
3.875807123E1,-2.413950205E0,4.549950123E0,7.672950268E0
3.877797115E1,-2.842050076E0,4.540950298E0,7.704000473E0
3.879787115E1,-3.199050188E0,4.443000317E0,7.519950390E0
3.881777092E1,-3.778950214E0,4.468950272E0,7.462050438E0
3.883767086E1,-3.798000097E0,4.576950073E0,8.105999947E0
3.885757063E1,-3.376050234E0,5.020050049E0,9.199950218E0
3.887747054E1,-2.923950195E0,5.266050339E0,1.034505081E1
3.889737030E1,-2.775000095E0,4.897950172E0,1.088400078E1
3.891727021E1,-2.881050110E0,4.552950382E0,1.043295002E1
3.893717013E1,-2.658000231E0,4.239000320E0,9.753000259E0
3.895706989E1,-2.524050236E0,4.324950218E0,9.406050682E0
3.897696983E1,-2.541000128E0,4.431000233E0,9.258000374E0
3.899686961E1,-2.550000191E0,4.488000393E0,8.578050613E0
3.901676955E1,-2.662950039E0,4.669950008E0,7.843050480E0
3.903666934E1,-2.680050135E0,4.905000210E0,7.639050484E0
3.905656926E1,-2.775000095E0,5.239950180E0,7.567950249E0
3.907646926E1,-3.067050219E0,5.359950066E0,7.819050312E0
3.909636896E1,-3.319050074E0,5.428950310E0,8.134950638E0
3.911626896E1,-3.321000099E0,4.942950249E0,8.512949944E0
3.913616874E1,-3.123000145E0,3.892050266E0,8.290950775E0
3.915606867E1,-3.328050137E0,3.550050259E0,7.335000515E0
3.917596844E1,-3.774000168E0,3.169050217E0,6.718050480E0
3.919586845E1,-4.293000221E0,2.335950136E0,7.017000198E0
3.921576815E1,-4.710000038E0,1.603050113E0,8.082000732E0
3.923566806E1,-4.972950459E0,1.099950075E0,9.532950401E0
3.925556816E1,-4.365000248E0,1.249050021E0,1.032105064E1
3.927546795E1,-2.839950085E0,1.500000119E0,9.709950447E0
3.929536788E1,-1.389000058E0,1.606050134E0,9.382050514E0
3.931526762E1,-1.735950112E0,3.114000082E0,9.181050301E0
3.933516752E1,-2.100000143E0,3.705000162E0,8.914950371E0
3.935506728E1,-2.194050074E0,3.622050285E0,8.038949966E0
3.937496719E1,-2.395050049E0,3.789000273E0,7.371000290E0
3.939486718E1,-2.814000130E0,3.940050125E0,6.837000370E0
3.941476688E1,-3.295050144E0,3.901950121E0,6.571950436E0
3.943466688E1,-3.745050192E0,3.897000074E0,6.555000305E0
3.945456665E1,-4.129950047E0,4.066950321E0,6.739050388E0
3.947446656E1,-4.390950203E0,4.243950367E0,7.186950207E0
3.949436632E1,-4.420050144E0,4.291950226E0,7.636950493E0
3.951426624E1,-4.236000061E0,4.416000366E0,7.900050163E0
3.953416601E1,-3.895950079E0,4.584000111E0,8.190000534E0
3.955406596E1,-3.745050192E0,4.777950287E0,8.776950836E0
3.957396596E1,-3.586950064E0,4.813950062E0,9.267000198E0
3.959386572E1,-3.136950254E0,4.492950439E0,9.390000343E0
3.961376562E1,-3.132000208E0,4.548000336E0,9.652950287E0
3.963366540E1,-2.710950136E0,4.354050159E0,9.610050201E0
3.965356533E1,-2.598000050E0,4.380000114E0,8.857950211E0
3.967346510E1,-2.818050146E0,4.632000446E0,8.371950150E0
3.969336512E1,-2.761050224E0,4.749000072E0,8.455950737E0
3.971326506E1,-2.449950218E0,4.669950008E0,9.112050056E0
3.973316482E1,-1.861050129E0,4.129050255E0,9.946950912E0
3.975306474E1,-1.540050030E0,3.841950178E0,1.029195023E1
3.977296448E1,-1.255050063E0,3.756000280E0,1.017000008E1
3.979286441E1,-7.810500264E-1,3.613950253E0,9.799050331E0
3.981276418E1,-6.850500107E-1,3.777000189E0,9.448950768E0
3.983266417E1,-7.980000377E-1,3.805950165E0,9.229050636E0
3.985256410E1,-1.116000056E0,3.732000113E0,9.013950348E0
3.987246385E1,-1.534950018E0,3.684000254E0,8.808000565E0
3.989236376E1,-1.734000087E0,3.688950062E0,8.662050247E0
3.991226352E1,-1.450950027E0,3.708000183E0,8.250000000E0
3.993216346E1,-1.351050019E0,3.847050190E0,7.735050201E0
3.995206324E1,-1.444050074E0,4.033050060E0,7.207950115E0
3.997196325E1,-1.722000122E0,4.206000328E0,6.811050415E0
3.999186316E1,-2.179050207E0,4.455000401E0,6.765000343E0
4.001176285E1,-2.452050209E0,4.600950241E0,7.141050339E0
4.003166286E1,-2.311050177E0,4.624950409E0,7.519950390E0
4.005156265E1,-2.088000059E0,4.443000317E0,7.732950211E0
4.007146258E1,-2.124000072E0,4.318050385E0,7.819050312E0
4.009136237E1,-2.215050220E0,4.431000233E0,7.905000210E0
4.011126239E1,-2.137950182E0,4.537950039E0,7.921950340E0
4.013116231E1,-2.167050123E0,4.621950150E0,7.849950314E0
4.015106209E1,-2.253000021E0,4.684950352E0,7.711050510E0
4.017096201E1,-2.380050182E0,4.491000175E0,7.675050259E0
4.019086177E1,-2.659950018E0,4.594050407E0,8.263950348E0
4.021076170E1,-2.239050150E0,4.519050121E0,9.412950516E0
4.023066147E1,-1.614000082E0,4.443000317E0,9.700950623E0
4.025056144E1,-1.738950133E0,4.369050026E0,9.828000069E0
4.027046136E1,-2.008949995E0,4.138950348E0,1.026600075E1
4.029036114E1,-2.353950024E0,4.230000019E0,1.053600025E1
4.031026106E1,-2.409000158E0,4.435950279E0,1.032105064E1
4.033016081E1,-2.191050053E0,4.294050217E0,1.034205055E1
4.035006075E1,-2.376000166E0,4.687050343E0,1.064400005E1
4.036996074E1,-2.011950016E0,3.961050272E0,1.156095028E1
4.038986051E1,-1.942050099E0,3.406050205E0,1.189605045E1
4.040976042E1,-2.035950184E0,2.793000221E0,1.142505074E1
4.042966018E1,-2.239050150E0,2.347950220E0,1.046700096E1
4.044956013E1,-2.626950026E0,2.419950008E0,9.709950447E0
4.046945990E1,-2.557050228E0,2.821950197E0,9.339000702E0
4.048935982E1,-1.995000124E0,2.977050066E0,9.526050568E0
4.050925959E1,-1.552050114E0,2.818950176E0,9.853950500E0
4.052915953E1,-1.513950109E0,2.685000181E0,9.913950920E0
4.054905954E1,-1.569000125E0,2.494050026E0,9.718050003E0
4.056895931E1,-1.438950062E0,2.344950199E0,9.427950859E0
4.058885923E1,-1.164000034E0,2.343000174E0,9.097050667E0
4.060875902E1,-9.840000272E-1,2.542050123E0,8.595000267E0
4.062865893E1,-9.460500479E-1,2.671050072E0,8.089050293E0
4.064855868E1,-1.150050044E0,2.854950190E0,7.375950336E0
4.066845868E1,-1.405950069E0,2.965950251E0,7.017000198E0
4.068835859E1,-1.569000125E0,3.171000242E0,7.029000282E0
4.070825834E1,-1.654950023E0,3.183000088E0,7.303950310E0
4.072815829E1,-1.734000087E0,3.100050211E0,7.246950150E0
4.074805805E1,-2.124000072E0,3.286050081E0,6.871050358E0
4.076795795E1,-2.550000191E0,3.619050264E0,6.619050503E0
4.078785793E1,-2.755950212E0,3.918000221E0,6.849000454E0
4.080775772E1,-2.701050043E0,4.230000019E0,7.576950550E0
4.082765767E1,-2.136000156E0,4.294050217E0,8.413050652E0
4.084755746E1,-1.513950109E0,4.234050274E0,8.512949944E0
4.086745736E1,-1.276950002E0,4.170000076E0,8.680950165E0
4.088735711E1,-1.308000088E0,4.005000114E0,9.406050682E0
4.090725703E1,-1.506000042E0,3.741000175E0,1.060800076E1
4.092715702E1,-1.978050113E0,3.562050104E0,1.105605030E1
4.094705680E1,-1.936950088E0,2.937000036E0,1.101300049E1
4.096695672E1,-1.996950150E0,2.491050005E0,1.097400093E1
4.098685649E1,-2.248950005E0,2.641950130E0,1.141500092E1
4.100675646E1,-1.995000124E0,2.307000160E0,1.214505100E1
4.102665646E1,-1.735950112E0,2.254050016E0,1.219095039E1
4.104655615E1,-1.540050030E0,2.326050043E0,1.161600018E1
4.106645613E1,-1.363050103E0,2.395950079E0,1.090305042E1
4.108635590E1,-1.260000110E0,2.652000189E0,1.027305031E1
4.110625584E1,-9.370500445E-1,2.818950176E0,9.789000511E0
4.112615559E1,-7.159500122E-1,2.833950043E0,9.310950279E0
4.114605549E1,-8.290500641E-1,2.886000156E0,8.844000816E0
4.116595547E1,-1.143000007E0,3.018000126E0,8.343000412E0
4.118585528E1,-1.414950013E0,3.231000185E0,7.972050190E0
4.120575521E1,-1.612050056E0,3.432000160E0,7.753950596E0
4.122565496E1,-1.696050048E0,3.526050091E0,7.504950523E0
4.124555486E1,-1.702950120E0,3.484950066E0,7.192050457E0
4.126545465E1,-1.963950038E0,3.604950190E0,6.928050518E0
4.128535466E1,-2.445000172E0,3.825000286E0,6.733950138E0
4.130525459E1,-2.761050224E0,3.823050261E0,6.685950279E0
4.132515433E1,-3.060000181E0,3.792000294E0,6.804000378E0
4.134505426E1,-3.357000113E0,3.784050226E0,6.969000340E0
4.136495424E1,-3.361950159E0,3.435000181E0,7.282950401E0
4.138485394E1,-3.288000107E0,3.076050043E0,7.291950226E0
4.140475371E1,-3.505950212E0,2.989050150E0,7.297050476E0
4.142465370E1,-3.532050133E0,2.949000120E0,7.543950558E0
4.144455362E1,-3.076950073E0,3.082950115E0,7.768950462E0
4.146445339E1,-2.692050219E0,3.375000238E0,7.912050247E0
4.148435331E1,-2.356050014E0,3.652950287E0,8.355000496E0
4.150425306E1,-2.011950016E0,3.859050274E0,8.974950790E0
4.152415300E1,-1.698000073E0,3.808050156E0,9.421050072E0
4.154405303E1,-1.696050048E0,3.447000265E0,9.957000732E0
4.156395281E1,-2.275050163E0,3.328950167E0,1.053195095E1
4.158385271E1,-2.995950222E0,3.223950148E0,1.075695038E1
4.160375248E1,-3.328050137E0,2.920050144E0,1.062300014E1
4.162365241E1,-3.802050114E0,2.937000036E0,1.082100010E1
4.164355218E1,-4.552050114E0,3.118950129E0,1.235805035E1
