"Time (s)","Acceleration x (m/s^2)","Acceleration y (m/s^2)","Acceleration z (m/s^2)"
1.307854400E-2,-5.454439163E0,5.576473236E0,5.811567783E0
3.318948200E-2,-4.877768993E0,5.260620594E0,6.038886070E0
5.330041900E-2,-4.696512699E0,5.239085197E0,6.279963017E0
7.341130500E-2,-4.811966419E0,5.368297577E0,6.144170284E0
9.352224200E-2,-4.772484779E0,5.499902725E0,5.833701611E0
1.136331800E-1,-4.264608383E0,5.558526993E0,5.478367329E0
1.337441170E-1,-3.296711445E0,5.420939922E0,6.072385788E0
1.538550020E-1,-2.433500528E0,5.130211830E0,7.591229916E0
1.739659400E-1,-1.786242127E0,5.045266628E0,8.512466431E0
1.940768770E-1,-1.849651933E0,5.191228867E0,8.523832321E0
2.141878150E-1,-1.933400750E0,5.467599869E0,8.213363647E0
2.342987000E-1,-1.131805062E0,5.295914650E0,8.190631866E0
2.544096380E-1,-6.388836503E-1,5.011766911E0,8.697312355E0
2.745205750E-1,-1.149751306E0,4.362115860E0,8.075776100E0
2.946315130E-1,-7.992027402E-1,3.906282902E0,7.619345665E0
3.147424500E-1,-3.870390654E-1,4.149154663E0,8.133204460E0
3.348533360E-1,-2.027917206E-1,3.981656790E0,9.924830437E0
3.549642730E-1,-5.599204898E-1,3.391227961E0,1.090170002E1
3.750752110E-1,-1.555932879E0,2.276172638E0,1.103031445E1
3.951861480E-1,-7.298108935E-1,2.166700840E0,1.111884880E1
4.152970860E-1,9.451649338E-2,1.534995675E0,1.036391354E1
4.354079710E-1,4.923232496E-1,1.679163337E0,1.008694363E1
4.555189090E-1,2.506481707E-1,2.216351986E0,1.072463131E1
4.756298460E-1,8.099704385E-1,2.158924341E0,1.119422245E1
4.957407840E-1,2.271386862E0,1.423131227E0,1.073898792E1
5.158517210E-1,2.906681299E0,5.545366406E-1,1.044885826E1
5.359626590E-1,2.924627542E0,1.728814393E-1,1.038664532E1
5.560735440E-1,2.637488842E0,3.463610709E-1,1.060977554E1
5.761844820E-1,2.017747641E0,6.047859192E-1,1.039023399E1
5.962954190E-1,1.450050473E0,5.162515044E-1,9.860821724E0
6.164063570E-1,9.254241586E-1,2.931207791E-2,9.511469841E0
6.365172940E-1,4.067798555E-1,-2.273181528E-1,9.521639824E0
6.566282320E-1,-8.249256015E-1,2.333002090E-1,9.625128746E0
6.767391690E-1,-1.907677889E0,7.477570772E-1,1.069412231E1
6.968501070E-1,-1.200598717E0,1.084546804E0,9.782457352E0
7.169610440E-1,-7.645068169E-1,1.374676585E0,9.754940033E0
7.370719820E-1,3.056831062E-1,1.977069736E0,1.006062317E1
7.571829190E-1,5.742774159E-2,2.754737139E0,9.996016502E0
7.772938570E-1,-8.362914920E-1,3.249453068E0,9.485149384E0
7.974047940E-1,-1.135992527E0,3.611965895E0,8.220541954E0
8.175156800E-1,-1.037886858E0,3.162713289E0,7.268198967E0
8.376266690E-1,-2.261217356E0,2.687737942E0,6.184848309E0
8.577375550E-1,-2.943171740E0,2.460419893E0,5.714060307E0
8.778485440E-1,-2.799004316E0,1.853839397E0,5.791827202E0
8.979594300E-1,-3.260818958E0,1.640878081E0,5.788836002E0
9.180703670E-1,-4.070191383E0,1.710868239E0,6.077769279E0
9.381813570E-1,-3.297907829E0,9.493523836E-1,9.350552559E0
9.582922940E-1,-1.675574064E0,-5.371887088E-1,1.119661522E1
9.784031800E-1,-1.459621787E0,-6.454638839E-1,1.366899967E1
9.985141690E-1,-2.502294302E0,-8.195417374E-2,1.561376572E1
1.018625107E0,-2.537588358E0,3.649054468E-2,1.642373657E1
1.038736044E0,-1.797608018E0,-2.177468538E-1,1.415175152E1
1.058846982E0,-1.484148264E0,-4.187439755E-2,1.216331577E1
1.078957919E0,-1.426720500E0,-1.165902853E0,1.202333546E1
1.099068857E0,-1.598405480E0,-2.202593327E0,1.012403297E1
1.119179794E0,-2.200200319E0,-1.171286702E0,8.669196129E0
1.139290732E0,-3.460021496E0,2.267199457E-1,9.262018204E0
1.159401669E0,-3.704089403E0,1.015154958E0,9.266205788E0
1.179512607E0,-1.875374794E0,1.080957651E0,9.057432175E0
1.199623544E0,4.049852192E-1,1.214357495E0,9.156135559E0
1.219734534E0,1.521237016E0,1.850848317E0,1.007557774E1
1.239845471E0,1.642672777E0,2.556132793E0,1.080957603E1
1.259956409E0,1.217946768E0,3.057429075E0,1.039501953E1
1.280067346E0,9.367900491E-1,3.648456335E0,9.571888924E0
1.300178284E0,-6.879365444E-2,3.751945972E0,9.696913719E0
1.320289221E0,-8.141579032E-1,3.757927895E0,8.453842163E0
1.340400159E0,-1.202991605E0,3.535993576E0,7.548159122E0
1.360511148E0,-1.307079315E0,3.854238987E0,6.993622303E0
1.380622086E0,-1.457827210E0,4.292125702E0,7.085147858E0
1.400733023E0,-2.271985054E0,5.075176716E0,7.176673412E0
1.420843961E0,-2.053640127E0,5.142175674E0,6.287141323E0
1.440954898E0,-1.891526341E0,4.631308079E0,5.087141037E0
1.461065888E0,-1.618744493E0,3.970889091E0,5.441876888E0
1.481176825E0,-8.644071817E-1,3.827319860E0,6.907480717E0
1.501287763E0,-5.347958803E-1,4.189832687E0,7.893323898E0
1.521398700E0,-7.429714203E-1,4.583451748E0,8.623134613E0
1.541509690E0,-3.152543902E-1,5.196014404E0,9.063413620E0
1.561620627E0,1.250249892E-1,5.522036552E0,9.940383911E0
1.581731565E0,1.196411345E-2,5.195415974E0,1.004387283E1
1.601842502E0,-5.162515044E-1,4.755734921E0,1.038305569E1
1.621953492E0,-1.170688510E0,4.929214478E0,9.756135941E0
1.642064430E0,-1.423729420E0,5.236692429E0,8.985647202E0
1.662175367E0,-1.159322619E0,5.313860893E0,7.881359577E0
1.682286305E0,-6.251249313E-1,4.863411903E0,7.721040249E0
1.702397294E0,-1.112662554E-1,3.766302824E0,8.185846329E0
1.722508232E0,-5.090730190E-1,3.918845177E0,8.690732002E0
1.742619169E0,-1.310070395E0,4.578067780E0,8.333602905E0
1.762730159E0,-1.777867198E0,5.122435093E0,8.268398285E0
1.782841096E0,-1.279561877E0,5.182255745E0,8.636295319E0
1.802952034E0,-4.534398913E-1,4.461417675E0,9.166903496E0
1.823063023E0,-2.560320199E-1,3.831507206E0,9.374481201E0
1.843173961E0,-7.190431952E-1,3.485744476E0,9.121439934E0
1.863284950E0,-1.703091502E0,3.311068296E0,9.132805824E0
1.883395888E0,-1.829312921E0,3.265006542E0,8.732605934E0
1.903506825E0,-6.580262184E-1,4.214358807E0,7.792226791E0
1.923617815E0,-4.797609448E-1,5.543571949E0,7.058826923E0
1.943728752E0,-7.950153351E-1,5.830710411E0,6.732804775E0
1.963839690E0,-8.560323119E-1,4.584050179E0,7.042077065E0
1.983950680E0,-1.342373490E0,2.836092949E0,7.944769382E0
2.004061617E0,-1.289731383E0,6.735795736E-1,9.229715347E0
2.024172607E0,-4.677968323E-1,3.930211067E-1,1.019581699E1
2.044283544E0,-7.531409264E-1,2.458625317E0,1.021376324E1
2.064394534E0,-9.529415965E-1,3.964308977E0,1.048534870E1
2.084505471E0,-1.377069473E0,5.587240696E0,1.208614731E1
2.104616409E0,-1.342373490E0,6.093322754E0,1.343031502E1
2.124727398E0,-6.550351977E-1,5.327619553E0,1.238285732E1
2.144838336E0,8.255238086E-2,4.155136585E0,1.044407272E1
2.164949325E0,1.031904817E0,3.461217880E0,9.481559753E0
2.185060263E0,1.122832060E0,3.843471289E0,8.413164139E0
2.205171252E0,9.786644578E-1,4.704887390E0,6.923632145E0
2.225282190E0,-6.652047038E-1,5.607579708E0,6.206982136E0
2.245393180E0,-2.473580360E0,6.068796635E0,4.881956577E0
2.265504117E0,-3.437887907E0,6.068198204E0,4.677370071E0
2.285615107E0,-3.387638569E0,5.508277893E0,4.744967461E0
2.305726044E0,-3.740580082E0,4.932804108E0,6.041877270E0
2.325837034E0,-3.160320520E0,3.762713671E0,9.124430656E0
2.345948023E0,-1.899302959E0,2.609971285E0,1.174816132E1
2.366058961E0,-3.541377485E-1,2.321038008E0,1.062772179E1
2.386169950E0,4.570291340E-1,2.313261271E0,1.116491032E1
2.406280888E0,2.911466837E0,8.087740541E-1,1.177926731E1
2.426391877E0,5.125426292E0,-8.985049129E-1,1.152144146E1
2.446502815E0,3.672384501E0,-6.275177598E-1,1.116670513E1
2.466613805E0,5.413761139E-1,1.244866014E0,1.112901783E1
2.486724794E0,-3.720839322E-1,2.419143677E0,1.099681473E1
2.506835732E0,6.580262445E-3,2.895315409E0,1.030887794E1
2.526946721E0,-5.718846321E-1,3.103491068E0,8.998807907E0
2.547057659E0,-8.518448472E-1,2.650649309E0,7.951349735E0
2.567168648E0,-6.801598072E-1,2.026122570E0,7.994420528E0
2.587279638E0,-8.524430394E-1,1.837089539E0,8.419146538E0
2.607390575E0,-8.733802438E-1,2.067996979E0,8.555537224E0
2.627501565E0,-7.082754970E-1,2.451446772E0,9.031708717E0
2.647612555E0,-6.598208547E-1,2.815753937E0,9.542576790E0
2.667723492E0,-7.782655358E-1,3.048455954E0,9.949356079E0
2.687834482E0,-9.702895880E-1,3.077768087E0,1.022512913E1
2.707945471E0,-8.177471161E-1,2.858824968E0,1.007019424E1
2.728056409E0,-5.748756528E-1,2.547159672E0,9.825528145E0
2.748167398E0,-4.450650215E-1,2.322234392E0,9.736993790E0
2.768278388E0,-4.833501875E-1,2.277967215E0,9.641280174E0
2.788389325E0,-6.664010882E-1,2.793620348E0,9.460622787E0
2.808500315E0,-1.103091240E0,3.363710403E0,9.261420250E0
2.828611305E0,-1.819741607E0,4.122235298E0,9.171689034E0
2.848722294E0,-2.512463808E0,4.716851711E0,9.075976372E0
2.868833232E0,-2.070389748E0,4.518845558E0,8.294121742E0
2.888944221E0,-1.325623751E0,3.878765583E0,7.928019524E0
2.909055211E0,-9.284151793E-1,3.440878868E0,7.695317745E0
2.929166200E0,-8.721838593E-1,3.302693367E0,7.818548203E0
2.949277138E0,-6.329016089E-1,3.412763357E0,8.319844246E0
2.969388127E0,-5.724828243E-1,3.507878065E0,8.964710236E0
2.989499117E0,-6.484549642E-1,3.452244759E0,9.424132347E0
3.009610107E0,-6.442674994E-1,3.193820000E0,9.867402077E0
3.029721044E0,-6.053841114E-1,2.955136061E0,1.035434151E1
3.049832034E0,-6.699903607E-1,2.796013355E0,1.062652493E1
3.069943023E0,-6.490531564E-1,2.629113913E0,1.045663452E1
3.090054013E0,-7.202396393E-1,2.539382935E0,1.026161957E1
3.110165002E0,-9.571290612E-1,2.611167669E0,9.994820595E0
3.130275992E0,-1.280758262E0,2.739781857E0,9.679565430E0
3.150386930E0,-1.386042476E0,2.883949518E0,9.293723106E0
3.170497919E0,-1.427916884E0,3.016751051E0,9.008976936E0
3.190608909E0,-1.507478237E0,3.136392355E0,8.958727837E0
3.210719898E0,-1.519442320E0,3.186641455E0,8.801400185E0
3.230830888E0,-1.351346612E0,3.251846075E0,8.856434822E0
3.250941877E0,-1.095314622E0,3.312862873E0,8.901898384E0
3.271052867E0,-1.006181955E0,3.381058455E0,9.035298347E0
3.291163805E0,-8.901300430E-1,3.439084291E0,9.199805260E0
3.311274794E0,-8.237292171E-1,3.430111170E0,9.320642471E0
3.331385784E0,-7.902296782E-1,3.426522017E0,9.500701904E0
3.351496773E0,-7.244270444E-1,3.393620729E0,9.504889488E0
3.371607763E0,-7.902296782E-1,3.415156126E0,9.519247055E0
3.391718752E0,-9.421738982E-1,3.471387386E0,9.679565430E0
3.411829742E0,-9.457631707E-1,3.397209883E0,9.597013474E0
3.431940732E0,-8.566305041E-1,3.272783279E0,9.383454323E0
3.452051721E0,-9.714859724E-1,3.131606579E0,8.791828156E0
3.472162711E0,-1.113858938E0,2.985644341E0,8.312067986E0
3.492273700E0,-1.186840057E0,2.456830740E0,8.121838570E0
3.512384690E0,-1.338186026E0,2.224726915E0,7.562515736E0
3.532495627E0,-2.019542217E0,2.641077995E0,7.612166882E0
3.552606669E0,-2.543570518E0,3.415754318E0,8.798408508E0
3.572717607E0,-2.614158630E0,3.820141315E0,9.608379364E0
3.592828596E0,-1.887338877E0,3.693321705E0,1.051167011E1
3.612939638E0,-1.051645517E0,3.370888948E0,1.147059345E1
3.633050627E0,-4.845465720E-1,2.917448997E0,1.139402294E1
3.653161617E0,-3.613162339E-1,2.794218540E0,1.115653515E1
3.673272607E0,-4.845465720E-1,2.896511793E0,1.087178993E1
3.693383596E0,-5.300102234E-1,2.994019270E0,1.023589706E1
3.713494586E0,-4.289134443E-1,3.104089260E0,9.431310654E0
3.733605575E0,-5.222335458E-1,3.312862873E0,8.538188934E0
3.753716565E0,-8.805587292E-1,3.562912941E0,7.948358536E0
3.773827555E0,-1.157527924E0,3.727419376E0,7.825128078E0
3.793938544E0,-1.187438250E0,3.671188116E0,8.084151268E0
3.814049534E0,-1.023529887E0,3.489931822E0,8.461619377E0
3.834160523E0,-8.512466550E-1,3.386442184E0,8.900702477E0
3.854271513E0,-7.417750359E-1,3.404388428E0,9.433703423E0
3.874382502E0,-6.765705943E-1,3.411566973E0,9.813564301E0
3.894493492E0,-5.168496966E-1,3.303889751E0,9.872187614E0
3.914604482E0,-4.504488707E-1,3.259622574E0,9.884750366E0
3.934715471E0,-5.802595019E-1,3.254837036E0,9.668798447E0
3.954826461E0,-7.334001660E-1,3.253640652E0,9.399605751E0
3.974937502E0,-7.794619799E-1,3.255435228E0,9.342177391E0
3.995048492E0,-7.866404653E-1,3.257827997E0,9.122636795E0
4.015159482E0,-8.075776696E-1,3.276970625E0,8.935996056E0
4.035270471E0,-7.489534616E-1,3.232105255E0,8.746364594E0
4.055381461E0,-6.352944374E-1,3.174079180E0,8.711668968E0
4.075492450E0,-5.844469070E-1,3.178864956E0,8.861818314E0
4.095603440E0,-5.581258535E-1,3.156731367E0,9.057432175E0
4.115714430E0,-4.157529473E-1,3.089133978E0,9.390632629E0
4.135825471E0,-1.860419661E-1,2.944966555E0,9.699306488E0
4.155936461E0,2.153540403E-2,2.848057270E0,9.882357597E0
4.176047450E0,2.476571500E-1,2.755335331E0,1.001635551E1
4.196158440E0,4.211367965E-1,2.626721144E0,1.013779163E1
4.216269430E0,4.289134443E-1,2.495115757E0,9.969097137E0
4.236380471E0,1.579262912E-1,2.458027124E0,9.706484795E0
4.256491461E0,-9.870393574E-2,2.494517565E0,9.402596474E0
4.276602450E0,-4.181457460E-1,2.639283419E0,9.239286423E0
4.296713440E0,-6.155536175E-1,2.712862730E0,9.518648148E0
4.316824430E0,-7.339983582E-1,2.551347256E0,9.412167549E0
4.336935471E0,-5.659025311E-1,2.199003935E0,9.219545364E0
4.357046461E0,-6.323033571E-1,1.992024899E0,9.449854851E0
4.377157450E0,-8.446664214E-1,1.920240164E0,9.687342644E0
4.397268440E0,-6.801598072E-1,1.860419631E0,9.850054741E0
4.417379482E0,-4.127618968E-1,1.820339799E0,9.875179291E0
4.437490471E0,-3.248256743E-1,1.838884234E0,1.016650486E1
4.457601461E0,-3.858426511E-1,1.842473388E0,1.027836990E1
4.477712450E0,-3.607180119E-1,1.746760488E0,1.026879883E1
4.497823492E0,-3.906283081E-1,1.608574986E0,9.971489906E0
4.517934482E0,-5.210371017E-1,1.532004714E0,9.793823242E0
4.538045471E0,-5.569294691E-1,1.544566989E0,9.588040352E0
4.558156513E0,-4.749752879E-1,1.634297848E0,9.332606316E0
4.578267502E0,-2.482553422E-1,1.846660852E0,9.312865257E0
4.598378492E0,-1.806581169E-1,2.075773716E0,9.586245537E0
4.618489482E0,-2.560320199E-1,2.110469580E0,9.686145782E0
4.638600523E0,-1.824527234E-1,1.975275040E0,9.764511108E0
4.658711513E0,-2.578266263E-1,1.931007862E0,9.926026344E0
4.678822502E0,-4.612165689E-1,1.928016901E0,1.021795082E1
4.698933544E0,-5.174478889E-1,1.841875196E0,1.029511929E1
4.719044534E0,-5.880361795E-1,1.707877159E0,1.014975548E1
4.739155523E0,-7.477570772E-1,1.716850281E0,1.002652550E1
4.759266565E0,-8.955138922E-1,1.785045743E0,9.920044899E0
4.779377555E0,-1.073180914E0,1.736590981E0,9.707083702E0
4.799488544E0,-1.113260746E0,1.672582984E0,9.516854286E0
4.819599586E0,-1.105484009E0,1.741376638E0,9.503693581E0
4.839710575E0,-9.948160052E-1,1.851446509E0,9.424132347E0
4.859821565E0,-8.679963946E-1,1.974078655E0,9.370891571E0
4.879932607E0,-8.009973764E-1,2.091326952E0,9.412766457E0
4.900043596E0,-7.387840152E-1,2.179861546E0,9.440881729E0
4.920154638E0,-6.699903607E-1,2.273181438E0,9.528220177E0
4.940265627E0,-5.832505226E-1,2.271985054E0,9.598808289E0
4.960376669E0,-4.528416991E-1,2.281556368E0,9.697511673E0
4.980487659E0,-3.936193287E-1,2.337189436E0,9.830313683E0
5.000598648E0,-3.272185028E-1,2.370688915E0,9.854242325E0
5.020709690E0,-3.020938635E-1,2.330011129E0,9.763314247E0
5.040820680E0,-2.979064286E-1,2.297708035E0,9.707681656E0
5.060931721E0,-4.031906128E-1,2.306082726E0,9.736993790E0
5.081042711E0,-5.234299302E-1,2.327019930E0,9.594620705E0
5.101153700E0,-5.670989752E-1,2.322234392E0,9.480362892E0
5.121264742E0,-6.125625968E-1,2.319243431E0,9.454042435E0
5.141375732E0,-7.202396393E-1,2.341975212E0,9.416355133E0
5.161486773E0,-7.710871100E-1,2.338984251E0,9.427123070E0
5.181597763E0,-8.243274093E-1,2.318047047E0,9.598209381E0
5.201708805E0,-8.865407705E-1,2.291127682E0,9.725028992E0
5.221819794E0,-8.392825127E-1,2.240280151E0,9.756733894E0
5.241930836E0,-8.380861282E-1,2.210968018E0,9.787242889E0
5.262041825E0,-9.684949517E-1,2.241476536E0,9.885348320E0
5.282152867E0,-8.566305041E-1,2.317448616E0,9.960722923E0
5.302263857E0,-8.476574421E-1,2.373680115E0,1.011326504E1
5.322374898E0,-1.001396298E0,2.391626120E0,1.017308521E1
5.342485888E0,-9.427721500E-1,2.426322222E0,1.015513897E1
5.362596930E0,-1.114457130E0,2.548954248E0,1.013061333E1
5.382707919E0,-1.654636860E0,2.612364054E0,1.016112137E1
5.402818961E0,-2.180459738E0,2.478366137E0,1.029631615E1
5.422929950E0,-2.477767944E0,2.442473650E0,1.047817039E1
5.443040992E0,-2.326421738E0,2.477767944E0,1.024068260E1
5.463151982E0,-2.240878344E0,2.775076151E0,9.948758125E0
5.483263023E0,-2.192423820E0,3.191427231E0,9.587442398E0
5.503374065E0,-2.236092806E0,3.670589924E0,9.074779510E0
5.523485055E0,-2.191825628E0,4.015754700E0,8.349754333E0
5.543596044E0,-2.089532375E0,4.344169617E0,7.706683636E0
5.563707086E0,-2.169093609E0,4.681557655E0,6.808776855E0
5.583818127E0,-2.609373093E0,4.889134884E0,6.155536175E0
5.603929117E0,-2.972483873E0,4.981258392E0,6.112465382E0
5.624040159E0,-3.404986620E0,4.812564373E0,6.354738712E0
5.644151148E0,-4.066602230E0,4.231706619E0,6.831508636E0
5.664262190E0,-4.092923164E0,4.146163464E0,7.610372543E0
5.684373232E0,-4.024727821E0,4.762315273E0,8.316853523E0
5.704484221E0,-3.935595036E0,4.988437176E0,8.338388443E0
5.724595263E0,-3.388236761E0,4.769493580E0,7.867600918E0
5.744706252E0,-2.654836655E0,4.753342152E0,7.942376614E0
5.764817294E0,-1.864607096E0,4.969294548E0,8.285746574E0
5.784928336E0,-9.326026440E-1,5.477170944E0,8.396414757E0
5.805039325E0,-2.237289101E-1,5.532804012E0,7.635497093E0
5.825150367E0,-9.750752151E-2,4.900500774E0,6.464210510E0
5.845261357E0,-2.039881349E-1,4.974080086E0,6.253642082E0
5.865372398E0,-2.165504545E-1,4.579264164E0,6.304489613E0
5.885483440E0,6.424728632E-1,3.695116282E0,6.270989895E0
5.905594482E0,1.321436286E0,3.424129248E0,6.979265213E0
5.925705471E0,1.673181176E0,3.642474174E0,8.538188934E0
5.945816513E0,1.615155339E0,3.865604877E0,9.725627899E0
5.965927502E0,1.354337573E0,3.717249870E0,9.848259926E0
5.986038544E0,1.416550994E0,3.415156126E0,9.383454323E0
6.006149586E0,1.880758643E0,2.931207657E0,8.758927345E0
6.026260575E0,2.177468538E0,2.230110645E0,8.519046783E0
6.046371617E0,2.319243431E0,1.900499344E0,8.729615211E0
6.066482659E0,2.834896564E0,2.011167526E0,9.189037323E0
6.086593700E0,3.853042603E0,1.972284079E0,9.133403778E0
6.106704690E0,4.940580368E0,1.142572761E0,9.792028427E0
6.126815732E0,5.390431404E0,1.191027522E0,1.119362450E1
6.146926773E0,5.116453171E0,1.674377680E0,1.309531975E1
6.167037763E0,4.764708042E0,1.180858016E0,1.417268848E1
6.187148805E0,4.741377831E0,6.293123364E-1,1.387896919E1
6.207259846E0,4.083950043E0,2.967100143E-1,1.235474110E1
6.227370888E0,3.611965895E0,5.383851007E-2,1.126540947E1
6.247481877E0,2.109273195E0,2.919243574E-1,9.213563919E0
6.267592919E0,4.767699242E-1,2.566302419E-1,7.013363361E0
6.287703961E0,1.220339537E-1,-3.912265003E-1,6.419943333E0
6.307815002E0,-5.688936114E-1,-8.524430394E-1,5.749354839E0
6.327925992E0,-7.363911867E-1,-5.401797295E-1,7.234699249E0
6.348037034E0,2.554338276E-1,-5.682953596E-1,8.379665375E0
6.368148075E0,2.167897224E0,-6.490531564E-1,8.452646255E0
6.388259117E0,2.394019127E0,-2.572284266E-2,7.086344242E0
6.408370107E0,8.603992462E0,5.180460811E-1,1.256530952E1
6.428481148E0,1.528774357E1,-1.400399446E0,1.898405647E1
6.448592190E0,5.212165833E0,2.108675003E0,6.937391281E0
6.468703232E0,1.103689432E0,2.397608280E0,4.864010334E0
6.488814273E0,3.588037491E0,1.002592683E0,7.561917782E0
6.508925263E0,8.323433876E0,9.696913958E-1,9.798608780E0
6.529036305E0,7.342974663E0,5.126622319E-1,8.057829857E0
6.549147346E0,3.980460405E0,2.751746178E-1,3.113660574E0
6.569258388E0,1.176072359E0,1.219741344E0,-1.591825247E0
6.589369377E0,3.774677813E-1,5.102694035E-1,-9.212367237E-2
6.609480419E0,-1.680957973E-1,1.369292736E0,1.493300819E1
6.629591461E0,-5.349753380E0,1.219143152E0,3.640799332E1
6.649702502E0,1.024726272E0,2.415554523E0,1.099681473E1
6.669813544E0,1.346560955E0,3.714857101E-1,4.733601570E0
6.689924586E0,-4.719842672E-1,1.064806059E-1,3.870988846E0
6.710035627E0,2.721835673E-1,3.128615618E-1,1.041894817E1
6.730146669E0,1.220937729E0,1.980060786E-1,1.348654652E1
6.750257659E0,-2.530409992E-1,1.359123230E0,1.067258739E1
6.770368700E0,-2.925225794E-1,6.789634228E-1,9.510871887E0
6.790479742E0,7.226324677E-1,4.169493318E-1,8.673981667E0
6.810590784E0,5.521438122E-1,4.995017350E-1,9.540184021E0
6.830701825E0,-1.196411327E-1,7.603194118E-1,1.053260708E1
6.850812867E0,2.518445849E-1,7.609176040E-1,1.048594666E1
6.870923909E0,3.314059377E-1,5.641079545E-1,9.797411919E0
6.891034950E0,2.350948304E-1,6.406782866E-1,8.986245155E0
6.911145940E0,2.333002090E-1,6.891329288E-1,1.027896786E1
6.931256982E0,2.338984162E-1,6.305087805E-1,1.060379314E1
6.951368023E0,2.440679073E-1,6.424728632E-1,9.467203140E0
6.971479065E0,2.422732860E-1,6.418746710E-1,9.455837250E0
6.991590107E0,2.219343036E-1,6.305087805E-1,1.017787075E1
7.011701148E0,2.446661144E-1,6.424728632E-1,1.017966557E1
7.031812190E0,2.829512656E-1,6.705885530E-1,9.650253296E0
7.051923232E0,2.781656384E-1,6.604190469E-1,9.747760773E0
7.072034273E0,2.973082066E-1,7.334001660E-1,9.752547264E0
7.092145315E0,6.041877270E-1,8.333004713E-1,9.524630547E0
7.112256357E0,7.477571070E-2,5.072783828E-1,8.986844063E0
7.132367398E0,-5.449653864E-1,4.671986103E-1,1.210469151E1
7.152478388E0,1.740778536E-1,8.518448472E-1,1.057208824E1
7.172589430E0,1.794617027E-1,7.004988194E-1,9.372686386E0
7.192700471E0,3.002992272E-1,5.694918036E-1,9.229117393E0
7.212811513E0,3.858426511E-1,6.269195080E-1,9.393623352E0
7.232922555E0,1.184447184E-1,6.640082598E-1,1.028435135E1
7.253033596E0,1.902294010E-1,6.915257573E-1,1.015214825E1
7.273144638E0,8.793623000E-2,6.855437160E-1,9.604191780E0
7.293255680E0,4.666004330E-2,6.364908218E-1,9.853643417E0
7.313366721E0,1.908276081E-1,6.544370055E-1,1.011505985E1
7.333477763E0,1.944168359E-1,6.951149702E-1,9.795618057E0
7.353588805E0,6.281159073E-2,6.891329288E-1,9.616754532E0
7.373699846E0,-1.489532143E-1,7.040880919E-1,9.991828918E0
7.393810888E0,-1.244267747E-1,7.034898400E-1,1.011386299E1
7.413921930E0,-3.110669367E-2,8.027920127E-1,1.036451149E1
7.434032971E0,-8.973085135E-2,1.417747378E0,1.055234814E1
7.454144013E0,5.676971674E-1,3.583251834E-1,1.047936630E1
7.474255055E0,6.340979934E-1,-1.088734269E-1,9.566504478E0
7.494366096E0,-5.383850932E-1,1.706082582E0,8.354539871E0
7.514477138E0,7.238288224E-2,7.369893789E-1,9.340981483E0
7.534588180E0,5.012963414E-1,2.871387303E-1,1.064207840E1
7.554699221E0,3.134597540E-1,4.594219327E-1,1.050090218E1
7.574810263E0,4.432703853E-1,-2.817548811E-1,9.215357780E0
7.594921305E0,9.571290761E-2,6.287141442E-1,8.555537224E0
7.615032346E0,1.447657645E-1,1.530210137E0,1.001575756E1
7.635143388E0,3.960121572E-1,1.170688510E0,1.253958702E1
7.655254430E0,2.542374134E-1,1.001994491E0,1.040339470E1
7.675365471E0,4.654040039E-1,1.345962733E-1,7.761120319E0
7.695476513E0,1.345962733E-1,3.720839322E-1,8.858229637E0
7.715587607E0,-1.345962733E-1,7.501499057E-1,1.108355427E1
7.735698648E0,2.075773627E-1,9.822536707E-1,1.066780186E1
7.755809690E0,4.594219327E-1,8.386843204E-1,9.786046028E0
7.775920732E0,2.063809484E-1,7.028916478E-1,9.547362328E0
7.796031773E0,1.507478207E-1,6.382854581E-1,9.741779327E0
7.816142815E0,5.982056633E-2,6.005984545E-1,1.013479996E1
7.836253857E0,1.196411345E-2,6.179464459E-1,9.831509590E0
7.856364898E0,1.836491376E-1,6.735795736E-1,9.597013474E0
7.876475940E0,2.667997181E-1,7.250252366E-1,1.006780148E1
7.896586982E0,1.579262912E-1,7.579265833E-1,1.016590691E1
7.916698023E0,1.627119333E-1,7.052844763E-1,9.737591743E0
7.936809065E0,1.704886109E-1,6.514459848E-1,9.782457352E0
7.956920107E0,1.393819153E-1,6.664010882E-1,1.000498962E1
7.977031200E0,1.980060786E-1,7.112665176E-1,9.929615974E0
7.997142242E0,2.554338276E-1,7.256234884E-1,9.909874916E0
8.017253284E0,2.327020019E-1,7.304090858E-1,9.925428391E0
8.037364325E0,2.093719840E-1,7.064808607E-1,9.917053223E0
8.057475367E0,2.099701911E-1,6.741777658E-1,9.914062500E0
8.077586409E0,1.998006850E-1,6.855437160E-1,9.866206169E0
8.097697450E0,2.111666054E-1,6.837490797E-1,9.869794846E0
8.117808492E0,2.434697002E-1,6.819544435E-1,9.900303841E0
8.137919586E0,2.291127741E-1,6.789634228E-1,9.898509026E0
8.158030627E0,1.974078715E-1,6.801598072E-1,9.896116257E0
8.178141669E0,1.914258152E-1,6.837490797E-1,9.876375198E0
8.198252711E0,2.039881349E-1,7.016952634E-1,9.880562782E0
8.218363752E0,2.129612118E-1,6.999006271E-1,9.942177773E0
8.238474794E0,2.135594189E-1,6.843472719E-1,9.958928108E0
8.258585836E0,1.914258152E-1,6.795616150E-1,9.878170013E0
8.278696930E0,1.842473447E-1,7.058826685E-1,9.878767967E0
8.298807971E0,1.950150430E-1,7.070791125E-1,9.954740524E0
8.318919013E0,2.027917206E-1,6.963114142E-1,9.896714211E0
8.339030055E0,2.039881349E-1,6.903293133E-1,9.860821724E0
8.359141096E0,2.087737769E-1,6.957131624E-1,9.894321442E0
8.379252138E0,2.063809484E-1,6.987041831E-1,9.921240807E0
8.399363232E0,2.063809484E-1,6.945167780E-1,9.886545181E0
8.419474273E0,2.141576260E-1,6.963114142E-1,9.859625816E0
8.439585315E0,2.207378894E-1,7.004988194E-1,9.915857315E0
8.459696357E0,2.111666054E-1,7.040880919E-1,9.957731247E0
8.479807398E0,2.069791555E-1,6.927221417E-1,9.862616539E0
8.499918492E0,1.920240223E-1,6.873382926E-1,9.872786522E0
8.520029534E0,1.980060786E-1,6.921239495E-1,9.945169449E0
8.540140575E0,2.021935135E-1,6.945167780E-1,9.885947227E0
8.560251617E0,2.093719840E-1,6.951149702E-1,9.864411354E0
8.580362659E0,2.099701911E-1,6.993024349E-1,9.915258408E0
8.600473752E0,2.009970993E-1,7.022934556E-1,9.917053223E0
8.620584794E0,1.992024779E-1,6.975077987E-1,9.888339996E0
8.640695836E0,2.093719840E-1,6.981059909E-1,9.889535904E0
8.660806877E0,2.099701911E-1,6.927221417E-1,9.921240807E0
8.680917971E0,2.111666054E-1,6.927221417E-1,9.894919395E0
8.701029013E0,2.063809484E-1,6.987041831E-1,9.891928673E0
8.721140055E0,1.974078715E-1,6.969096065E-1,9.926026344E0
8.741251096E0,1.992024779E-1,6.981059909E-1,9.894919395E0
8.761362138E0,2.033899277E-1,6.963114142E-1,9.885348320E0
8.781473232E0,1.938186288E-1,6.981059909E-1,9.918848038E0
8.801584273E0,2.003988922E-1,6.999006271E-1,9.895518303E0
8.821695315E0,2.069791555E-1,7.004988194E-1,9.884152412E0
8.841806357E0,2.105683982E-1,6.963114142E-1,9.937990189E0
8.861917450E0,2.081755698E-1,6.951149702E-1,9.902098656E0
8.882028492E0,2.039881349E-1,7.004988194E-1,9.855438232E0
8.902139534E0,1.944168359E-1,7.052844763E-1,9.926026344E0
8.922250575E0,2.171486616E-1,6.915257573E-1,1.004925728E1
8.942361669E0,2.470589429E-1,6.837490797E-1,1.000319481E1
8.962472711E0,9.690931439E-2,7.788637877E-1,9.672387123E0
8.982583752E0,6.520441920E-2,8.081758618E-1,1.005942631E1
9.002694846E0,8.853443712E-2,8.051848412E-1,9.990633011E0
9.022805888E0,5.982056633E-2,8.321040869E-1,9.731609344E0
9.042916930E0,7.836493850E-2,8.632107973E-1,9.814760208E0
9.063027971E0,4.845465720E-2,8.763712645E-1,9.997811317E0
9.083139065E0,4.785645287E-3,9.272187948E-1,9.814760208E0
9.103250107E0,1.016949583E-2,9.134600163E-1,9.813564301E0
9.123361148E0,3.409772366E-2,9.104689956E-1,9.844072342E0
9.143472242E0,5.383851007E-3,8.979067206E-1,9.973882675E0
9.163583284E0,3.110669367E-2,9.158528447E-1,9.803992271E0
9.183694325E0,2.871387079E-2,9.266205430E-1,9.831509590E0
9.203805419E0,5.503492057E-2,8.799605370E-1,1.000080204E1
9.223916461E0,2.931207791E-2,9.236295223E-1,9.814760208E0
9.244027502E0,4.845465720E-2,9.343972206E-1,9.710074425E0
9.264138596E0,-6.101697683E-2,9.481559992E-1,9.969097137E0
9.284249638E0,1.555334684E-2,9.355936646E-1,1.001037312E1
9.304360680E0,5.682953820E-2,1.192822099E0,9.793823242E0
9.324471721E0,-1.615155302E-2,1.398604870E0,9.695118904E0
9.344582815E0,-1.555334684E-2,1.776072621E0,1.006002426E1
9.364693857E0,-2.518445849E-1,2.100898266E0,9.957133293E0
9.384804898E0,-5.335994363E-1,2.226521492E0,9.778867722E0
9.404915992E0,-4.965106845E-1,1.908276081E0,9.802796364E0
9.425027034E0,-2.769692242E-1,1.208973646E0,9.813564301E0
9.445138075E0,-1.226321608E-1,4.426721856E-2,9.870393753E0
9.465249169E0,1.210170031E0,-3.104089260E0,9.787242889E0
9.485360211E0,1.192223907E0,-5.419743061E-1,1.055414295E1
9.505471305E0,3.260220885E-1,7.710871100E-1,9.516854286E0
9.525582346E0,3.529413417E-2,8.590233326E-1,9.595218658E0
9.545693388E0,2.925225794E-1,6.861419082E-1,1.048176003E1
9.587483493E0,-3.489333630E0,6.654439926E0,3.751945972E0
9.607594587E0,-3.530609846E0,6.305685997E0,5.056632519E0
9.627705681E0,-3.236292601E0,5.719444275E0,6.837490559E0
9.647816775E0,-2.854637384E0,5.256433010E0,8.361120224E0
9.667927920E0,-2.667997360E0,5.393422127E0,9.031708717E0
9.688039014E0,-2.611765862E0,5.734997749E0,8.344370842E0
9.708150108E0,-2.745165825E0,6.101099491E0,7.034898758E0
9.728261202E0,-2.657229662E0,6.374479294E0,6.512664795E0
9.748372347E0,-2.337189436E0,6.198009014E0,7.307082176E0
9.768483441E0,-2.211566210E0,5.968297958E0,8.086544037E0
9.788594535E0,-2.083550215E0,5.990431309E0,8.259425163E0
9.808705629E0,-2.233700037E0,6.042475224E0,7.618149281E0
9.828816775E0,-2.225325108E0,5.900700569E0,6.781259537E0
9.848927868E0,-1.796411633E0,5.761917114E0,6.692724705E0
9.869038962E0,-1.629512191E0,5.696114540E0,7.147959232E0
9.889150056E0,-1.423131227E0,5.379663467E0,7.378866673E0
9.909261202E0,-1.460818172E0,5.257031441E0,7.164709091E0
9.929372295E0,-1.222732425E0,5.090730190E0,6.890132904E0
9.949483389E0,-1.718046665E0,4.548157692E0,7.926225185E0
9.969594535E0,-2.137987137E0,4.071985722E0,9.294919968E0
9.989705629E0,-2.988635540E0,3.516252756E0,1.063011456E1
1.000981672E1,-2.855833769E0,3.480958700E0,1.246122169E1
1.002992787E1,-2.713460922E0,3.030509949E0,1.246840096E1
1.005003896E1,-2.408375978E0,2.860619545E0,1.026700401E1
1.007015006E1,-1.772483349E0,3.192623615E0,9.361918449E0
1.009026120E1,-1.885544300E0,3.203391314E0,9.739386559E0
1.011037230E1,-1.488933921E0,3.004188776E0,9.413962364E0
1.013048339E1,-6.496513486E-1,2.285145521E0,8.791828156E0
1.015059454E1,1.182054400E0,1.358525038E0,9.935597420E0
1.017070563E1,1.597807288E0,6.879364848E-1,1.118704414E1
1.019081678E1,8.201399446E-1,6.987041831E-1,1.190548897E1
1.021092787E1,-1.897508383E0,1.551745534E0,1.113021469E1
1.023103901E1,-3.654438496E0,2.413759947E0,9.903294563E0
1.025115011E1,-3.314059258E0,2.799004316E0,8.294121742E0
1.027126125E1,-2.389831543E0,3.384049416E0,6.945765972E0
1.029137235E1,-2.744567633E0,4.389034748E0,6.077769279E0
1.031148344E1,-3.548556089E0,5.118247509E0,6.381658077E0
1.033159459E1,-2.993421078E0,4.989035130E0,7.006184578E0
1.035170568E1,-2.133799553E0,4.229313850E0,7.358527660E0
1.037181683E1,-2.213959217E0,3.796811342E0,7.582854748E0
1.039192792E1,-2.608176708E0,3.700500250E0,8.140382767E0
1.041203907E1,-2.646461725E0,3.819543123E0,8.817551613E0
1.043215016E1,-2.557927370E0,4.013959885E0,9.399007797E0
1.045226131E1,-2.333600283E0,4.258028030E0,9.797411919E0
1.047237245E1,-2.308475733E0,4.326223373E0,9.699904442E0
1.049248354E1,-2.239083767E0,4.345366001E0,9.468997002E0
1.051259469E1,-2.149353027E0,4.414757729E0,9.157930374E0
1.053270579E1,-2.133799553E0,4.457230568E0,9.061619759E0
1.055281693E1,-2.102692842E0,4.587639332E0,8.692526817E0
1.057292802E1,-2.656631231E0,4.462016106E0,7.646264553E0
1.059303917E1,-3.369692564E0,4.636094093E0,7.550551891E0
1.061315032E1,-2.017149448E0,4.435695171E0,7.623532772E0
1.063326141E1,-1.650449395E0,4.427918434E0,7.851449490E0
1.065337256E1,-1.654636860E0,4.490729809E0,7.880163193E0
1.067348370E1,-2.027318954E0,4.447659016E0,7.927421570E0
1.069359480E1,-2.482553482E0,4.456034184E0,8.486145973E0
1.071370594E1,-2.596810818E0,4.471587181E0,9.367900848E0
1.073381704E1,-2.524427891E0,4.656432629E0,9.544371605E0
1.075392818E1,-2.570489645E0,4.674977303E0,9.071788788E0
1.077403933E1,-2.900100946E0,4.677370071E0,8.537590981E0
1.079415047E1,-2.854039192E0,4.664209366E0,8.132007599E0
1.081426157E1,-2.732603550E0,4.681557655E0,8.027919769E0
1.083437271E1,-2.721835852E0,4.624129772E0,8.137392044E0
1.085448386E1,-2.834298372E0,4.649254322E0,8.239086151E0
1.087459495E1,-2.749951363E0,4.527818680E0,8.058428764E0
1.089470610E1,-2.734996319E0,4.569094658E0,7.770093441E0
1.091481724E1,-2.843271494E0,4.700700283E0,7.658827305E0
1.093492839E1,-2.848655462E0,4.687539577E0,7.913662910E0
1.095503948E1,-2.775076151E0,4.668995380E0,8.178668022E0
1.097515063E1,-2.728415966E0,4.818546772E0,8.194221497E0
1.099526178E1,-2.738585472E0,4.839483738E0,8.091927528E0
1.101537292E1,-2.817548752E0,4.816154003E0,8.111070633E0
1.103548401E1,-2.791825771E0,4.816154003E0,8.301300049E0
1.105559516E1,-2.603390932E0,4.847858906E0,8.366504669E0
1.107570631E1,-2.610569477E0,4.886742115E0,8.373682976E0
1.109581745E1,-2.825325251E0,4.828117847E0,8.354539871E0
1.111592860E1,-2.901297569E0,4.659423828E0,8.258229256E0
1.113603974E1,-2.833700180E0,4.616353035E0,8.178069115E0
1.115615084E1,-2.682952404E0,4.680361271E0,8.142177582E0
1.117626198E1,-2.472383976E0,4.784449100E0,8.164310455E0
1.119637313E1,-2.460419893E0,4.870590687E0,8.200801849E0
1.121648428E1,-2.610569477E0,4.907679081E0,8.170292854E0
1.123659542E1,-2.712264538E0,4.893920422E0,8.193622589E0
1.125670657E1,-2.767897606E0,4.839483738E0,8.216354370E0
1.127681771E1,-2.767299414E0,4.823930264E0,8.186444283E0
1.129692886E1,-2.700300455E0,4.869394302E0,8.141578674E0
1.131704000E1,-2.528017044E0,4.880760193E0,8.224131584E0
1.133715110E1,-2.489133835E0,4.834099770E0,8.179863930E0
1.135726224E1,-2.614158630E0,4.819743156E0,8.008777618E0
1.137737339E1,-2.875574589E0,4.917250633E0,8.010572433E0
1.139748454E1,-2.752344131E0,4.919044971E0,8.317451477E0
1.141759568E1,-2.654836655E0,4.893920422E0,8.473583221E0
1.143770683E1,-2.666202545E0,4.841278553E0,8.299505234E0
1.145781797E1,-2.647658348E0,4.937589645E0,7.845467091E0
1.147792912E1,-2.783450842E0,5.151148796E0,7.789236069E0
1.149804026E1,-2.559721947E0,5.054239750E0,8.002795219E0
1.151815141E1,-2.450250387E0,5.031507969E0,8.154739380E0
1.153826256E1,-2.511267424E0,5.033302307E0,8.150551796E0
1.155837370E1,-2.690729141E0,5.000401020E0,8.236095428E0
1.157848485E1,-2.943770170E0,5.188836098E0,7.670193195E0
1.162536496E1,-6.175875187E0,4.922634602E0,4.342374802E0
1.164547626E1,-5.993422508E0,4.724628448E0,4.931009293E0
1.166558751E1,-5.645267010E0,4.403391838E0,5.740381718E0
1.168569876E1,-5.623731613E0,4.299902439E0,6.442076683E0
1.170581001E1,-5.854040623E0,4.479962349E0,6.687939167E0
1.172592126E1,-5.842674732E0,4.651647091E0,6.483353138E0
1.174603251E1,-5.531009674E0,4.618745804E0,6.381658077E0
1.176614381E1,-5.185844898E0,4.421936035E0,6.479763508E0
1.178625506E1,-4.984249592E0,4.112663746E0,6.741179466E0
1.180636631E1,-4.822135925E0,4.019941807E0,6.970890522E0
1.182647756E1,-4.540979385E0,4.003790379E0,7.280761242E0
1.184658881E1,-4.383052826E0,3.996013880E0,7.411767960E0
1.186670011E1,-4.877170563E0,3.504886866E0,7.808378696E0
1.188681136E1,-5.100301266E0,4.086941242E0,7.989634991E0
1.190692261E1,-4.603192329E0,3.948755503E0,8.361120224E0
1.192703386E1,-5.065007210E0,3.258426189E0,7.873582840E0
1.194714511E1,-3.714258909E0,3.003590584E0,8.030911446E0
1.196725641E1,-1.276570916E0,2.289333105E0,8.490931511E0
1.198736766E1,3.349951804E-1,2.577668190E0,9.589835167E0
1.200747891E1,2.360519648E0,1.416550994E0,1.055832958E1
1.202759016E1,3.266202927E0,1.404586911E0,1.084307575E1
1.204770147E1,2.836092949E0,1.192822099E0,1.066481018E1
1.206781272E1,3.799802303E0,1.274178028E-1,1.053320503E1
1.208792397E1,4.341776848E0,-6.520441771E-1,1.087657547E1
1.210803522E1,3.419941664E0,-5.641079545E-1,1.133779144E1
1.212814647E1,2.708675146E0,-3.840480447E-1,1.136471081E1
1.214825777E1,2.557927370E0,-6.071787477E-1,1.125942707E1
1.216836902E1,2.075175524E0,-1.095314622E0,1.092084217E1
1.218848027E1,1.432702541E0,-1.295115232E0,1.040339470E1
1.220859152E1,7.878368497E-1,-1.374676585E0,1.001815033E1
1.222870282E1,6.107679605E-1,-6.227321029E-1,9.623334885E0
1.224881407E1,8.255238086E-2,-2.273181453E-2,9.515059471E0
1.226892532E1,4.785645381E-2,4.851447940E-1,9.632308006E0
1.228903657E1,7.100701332E-1,1.096511006E0,9.393623352E0
1.230914782E1,3.098705411E-1,1.512862086E0,9.487542152E0
1.232925912E1,-8.404789567E-1,1.780858278E0,9.337990761E0
1.234937042E1,-3.080759048E-1,1.871187329E0,9.308678627E0
1.236948162E1,5.114658475E-1,2.260020971E0,9.439684868E0
1.238959287E1,-7.118647546E-2,2.705684185E0,9.184251785E0
1.240970412E1,-9.589236975E-1,2.828316450E0,8.408976555E0
1.242981542E1,-1.277169108E0,2.729612350E0,7.990831375E0
1.244992667E1,-9.810572863E-1,2.478366137E0,8.464012146E0
1.247003792E1,-7.758727670E-1,2.368894339E0,9.008378983E0
1.249014923E1,-8.572286963E-1,2.424527645E0,9.389435768E0
1.251026048E1,-1.019940615E0,2.334198475E0,9.812367439E0
1.253037173E1,-9.661021233E-1,2.302493572E0,1.015274620E1
1.255048298E1,-1.211964726E0,2.178066730E0,1.008215809E1
1.257059428E1,-1.149153113E0,1.800000787E0,1.022393322E1
1.259070553E1,-1.288534999E0,1.896910191E0,1.060319519E1
1.261081678E1,-1.147358418E0,2.179263115E0,1.065643597E1
1.263092803E1,-4.917250574E-1,2.105085611E0,1.110688496E1
1.265103933E1,1.435693540E-2,2.222932339E0,1.126540947E1
1.267115063E1,1.495514214E-1,2.762513638E0,9.308678627E0
1.269126183E1,5.264210105E-1,3.817150354E0,7.649255753E0
1.271137308E1,-3.302095234E-1,3.881756544E0,8.278568268E0
1.273148438E1,-5.204389095E-1,3.204587698E0,9.047262192E0
1.275159563E1,-2.769692242E-1,2.589034081E0,9.119047165E0
1.277170688E1,-2.057827413E-1,2.711068153E0,9.123234749E0
1.279181813E1,-2.919243574E-1,2.915056229E0,9.323035240E0
1.281192944E1,-3.391826153E-1,2.926422119E0,9.464211464E0
1.283204074E1,-2.727817893E-1,2.947359324E0,8.918049812E0
1.285215194E1,-4.755735099E-1,3.219542980E0,8.899505615E0
1.287226324E1,-6.221339107E-1,3.476771355E0,8.824729919E0
1.289237449E1,-5.790630579E-1,3.677768469E0,9.366703987E0
1.291248574E1,-1.186241865E0,3.294318676E0,1.008215809E1
1.293259699E1,-9.732806087E-1,2.775076151E0,1.031067276E1
1.295270834E1,-2.374876440E-1,2.988037348E0,1.026700401E1
1.297281954E1,-2.219343036E-1,2.982055187E0,9.455837250E0
1.299293079E1,-6.855437160E-1,3.160918713E0,8.676374435E0
1.301304209E1,-9.960124493E-1,3.358326674E0,8.350951195E0
1.303315334E1,-1.116251707E0,3.488137245E0,8.133204460E0
1.305326459E1,-1.099501967E0,3.525225878E0,8.295317650E0
1.307337589E1,-1.018146038E0,3.402593851E0,8.797212601E0
1.309348720E1,-1.016351461E0,3.326621771E0,9.513862610E0
1.311359839E1,-1.365105271E0,3.367897987E0,9.982855797E0
1.313370970E1,-1.411167145E0,3.144767046E0,1.033579731E1
1.315382095E1,-1.032503009E0,2.715255499E0,1.070429230E1
1.317393220E1,-4.025924206E-1,2.694318295E0,1.063011456E1
1.319404350E1,1.369891018E-1,3.198605776E0,9.602995872E0
1.321415475E1,-5.084748268E-1,3.661018610E0,8.248658180E0
1.323426600E1,-1.337587833E0,3.825525284E0,7.743174076E0
1.325437725E1,-1.494915962E0,3.565305710E0,8.012366295E0
1.327448855E1,-1.021137118E0,3.227917671E0,8.671588898E0
1.329459980E1,-8.356932998E-1,3.226123095E0,9.306883812E0
1.331471105E1,-8.656035662E-1,3.314059258E0,9.579665184E0
1.333482235E1,-8.949156404E-1,3.448057413E0,9.692726135E0
1.335493360E1,-8.380861282E-1,3.540779352E0,9.723235130E0
1.337504485E1,-7.369893789E-1,3.553939819E0,9.671191216E0
1.339515615E1,-7.244270444E-1,3.526422262E0,9.482755661E0
1.341526740E1,-7.621139884E-1,3.482753277E0,9.099306107E0
1.343537865E1,-7.148557901E-1,3.448057413E0,8.773283958E0
1.345548996E1,-5.838487148E-1,3.386442184E0,8.647661209E0
1.347560121E1,-3.493520916E-1,3.281756163E0,8.715258598E0
1.349571251E1,-9.439685345E-1,3.406183004E0,8.870791435E0
1.351582381E1,-1.071984529E0,3.494717360E0,9.041280746E0
1.353593501E1,-7.028916478E-1,3.455235958E0,9.285946846E0
1.355604631E1,-5.108676553E-1,3.441477060E0,9.458230019E0
1.357615761E1,-4.289134443E-1,3.458825111E0,9.529416084E0
1.359626881E1,-1.304088384E-1,3.399004459E0,9.597611427E0
1.361638011E1,-5.204389244E-2,3.329014540E0,9.841081619E0
1.363649141E1,-3.583251834E-1,3.163909674E0,1.000678444E1
1.365660261E1,-5.688936114E-1,2.857030153E0,1.023888779E1
1.367671391E1,-3.643072546E-1,2.494517565E0,1.065643597E1
1.369682516E1,-4.241278172E-1,2.736790895E0,1.162792206E1
1.371693641E1,-1.447657704E0,3.571287870E0,1.166501045E1
1.373704772E1,-2.763710260E0,3.927220106E0,1.066899776E1
1.375715897E1,-3.555136204E0,3.588037491E0,9.080163956E0
1.377727027E1,-3.479164124E0,2.989233732E0,7.691130161E0
1.379738152E1,-3.560520172E0,2.832503796E0,6.903891563E0
1.381749282E1,-3.861417532E0,2.718246460E0,6.536593437E0
1.383760407E1,-4.121038914E0,2.697907448E0,6.167500496E0
1.385771532E1,-4.171288013E0,2.943770170E0,6.206982136E0
1.387782662E1,-4.008575916E0,3.187838078E0,6.689733982E0
1.389793787E1,-3.902095556E0,3.278765202E0,7.527820110E0
1.391804912E1,-3.609572887E0,3.148954630E0,8.527421951E0
1.393816042E1,-3.242872953E0,3.165704250E0,9.496515274E0
1.395827167E1,-2.803789854E0,3.369094372E0,1.020658493E1
1.397838298E1,-2.225325108E0,3.544368505E0,1.045125103E1
1.399849423E1,-1.860419631E0,3.654438496E0,1.026341438E1
1.401860548E1,-1.917847395E0,3.575475216E0,1.010309505E1
1.403871678E1,-1.862214208E0,3.358326674E0,1.017846966E1
1.405882803E1,-2.307279348E0,3.191427231E0,1.029870892E1
1.407893933E1,-2.305484533E0,3.412165165E0,9.775279045E0
1.409905058E1,-2.364706993E0,3.804588079E0,8.644669533E0
1.411916188E1,-2.344966173E0,3.903890133E0,7.706683636E0
1.413927318E1,-2.307279348E0,3.785445452E0,7.356733322E0
1.415938438E1,-2.349153519E0,3.710071564E0,7.412964344E0
1.417949569E1,-2.391626120E0,3.634697676E0,7.491329670E0
1.419960694E1,-2.291127682E0,3.662214994E0,7.627720356E0
1.421971824E1,-2.217548370E0,3.710071564E0,8.055437088E0
1.423982949E1,-2.092523336E0,3.727419376E0,8.761320114E0
1.425994074E1,-2.005185366E0,3.626920938E0,9.530612946E0
1.428005209E1,-1.999203324E0,3.512065411E0,1.001276588E1
1.430016329E1,-2.062014818E0,3.442075491E0,1.024008465E1
1.432027464E1,-2.086541414E0,3.404986620E0,1.016411209E1
1.434038584E1,-2.177468538E0,3.336193085E0,9.750154495E0
1.436049714E1,-2.355135679E0,3.339184046E0,9.296115875E0
1.438060839E1,-2.456830740E0,3.378067255E0,8.928817749E0
1.440071970E1,-2.536391973E0,3.335594654E0,8.624331474E0
1.442083094E1,-2.623729944E0,3.173480988E0,8.420941353E0
1.444094225E1,-2.645863533E0,3.084348440E0,8.292924881E0
1.446105350E1,-2.580659151E0,3.159124136E0,8.345566750E0
1.448116480E1,-2.517847538E0,3.263810158E0,8.558527946E0
1.450127610E1,-2.387438774E0,3.290131092E0,8.970093727E0
1.452138735E1,-2.221735716E0,3.260818958E0,9.480961800E0
1.454149865E1,-2.169692039E0,3.279363394E0,9.798608780E0
1.456160990E1,-2.039283037E0,3.232703447E0,9.906884193E0
1.458172121E1,-1.804786444E0,3.233899832E0,1.036151981E1
1.460183240E1,-1.411167145E0,3.270390272E0,1.062532902E1
1.462194371E1,-1.814955950E0,3.452244759E0,9.926624298E0
1.464205496E1,-2.559123755E0,3.592823267E0,8.773283958E0
1.466216626E1,-2.882154942E0,3.332005501E0,7.989634991E0
1.468227751E1,-2.912065268E0,3.199203968E0,7.889136314E0
1.470238881E1,-2.747558594E0,3.246462107E0,8.224131584E0
1.472250006E1,-2.526820660E0,3.390031576E0,8.563912392E0
1.474261136E1,-2.307279348E0,3.537189960E0,9.041878700E0
1.476272261E1,-2.036890268E0,3.620340586E0,9.434899330E0
1.478283391E1,-1.956730723E0,3.720241070E0,9.442676544E0
1.480294516E1,-1.962114573E0,3.857828379E0,9.538389206E0
1.482305652E1,-1.802991867E0,3.844667673E0,9.704092026E0
1.484316772E1,-1.735992789E0,3.839882135E0,9.440881729E0
1.486327902E1,-1.759921074E0,3.946362734E0,8.818149567E0
1.488339027E1,-1.781456470E0,4.043272018E0,8.322237015E0
1.490350162E1,-1.674377680E0,4.049253941E0,8.173882484E0
1.492361287E1,-1.497906923E0,4.079762459E0,8.121838570E0
1.494372417E1,-1.457827210E0,4.128815651E0,8.123034477E0
1.496383542E1,-1.416550994E0,4.174877167E0,8.117650986E0
1.498394673E1,-1.269990563E0,4.189832687E0,8.236095428E0
1.500405798E1,-8.853443861E-1,4.277768612E0,8.699705124E0
1.502416923E1,-4.582255483E-1,4.356133461E0,9.059824944E0
1.504428053E1,-4.408775866E-1,4.383052826E0,9.162117958E0
1.506439178E1,-4.295116663E-1,4.357329845E0,9.323035240E0
1.508450308E1,-2.865405083E-1,4.391427994E0,9.340981483E0
1.510461433E1,-6.879365444E-2,4.399204254E0,9.289535522E0
1.512472563E1,1.016949639E-1,4.342374802E0,8.924630165E0
1.514483694E1,-1.872383654E-1,4.239483356E0,8.614759445E0
1.516494824E1,-1.944168359E-1,4.248456478E0,8.653044701E0
1.518505944E1,2.931207791E-2,4.378865242E0,8.986245155E0
1.520517079E1,7.477571070E-2,4.299304008E0,8.893523216E0
1.522528204E1,-4.785645287E-3,4.269393921E0,8.364709854E0
1.524539329E1,-3.230310604E-2,4.382454872E0,8.097909927E0
1.526550459E1,1.166501045E-1,4.447061062E0,8.084151268E0
1.528561584E1,1.944168359E-1,4.342973232E0,8.076972961E0
1.530572714E1,1.148554832E-1,4.171288013E0,7.972885132E0
1.532583839E1,4.366901144E-2,3.905684710E0,7.858029366E0
1.534594975E1,1.292124242E-1,3.615555048E0,7.685746193E0
1.536606100E1,3.050848842E-2,3.620938778E0,7.881359577E0
1.538617225E1,-9.332008660E-2,3.685544968E0,8.566903114E0
1.540628355E1,1.609173268E-1,3.180659533E0,9.443872452E0
1.542639480E1,4.917250574E-1,2.908475876E0,1.041894817E1
1.544650615E1,1.004985452E0,3.169891834E0,1.168714428E1
1.546661740E1,1.280758262E0,3.306282759E0,1.243549919E1
1.548672865E1,1.438684583E0,3.380460262E0,1.205862999E1
1.550683996E1,1.612762451E0,3.353540897E0,1.096092224E1
1.552695121E1,1.482353687E0,3.420539856E0,9.818349838E0
1.554706251E1,1.249651670E0,3.620340586E0,8.880363464E0
1.556717381E1,1.107876897E0,3.663411379E0,8.249256134E0
1.558728506E1,1.018744230E0,3.669393539E0,7.985447407E0
1.560739636E1,8.817551732E-1,3.607778311E0,7.917850018E0
1.562750761E1,7.818548083E-1,3.498306751E0,8.068597794E0
1.564761891E1,7.495517135E-1,3.356531858E0,8.447261810E0
1.566773022E1,7.016952634E-1,3.258426189E0,8.945567131E0
1.568784147E1,6.191428304E-1,3.166302681E0,9.505488396E0
1.570795277E1,4.354937077E-1,2.952743053E0,1.006780148E1
1.572806407E1,2.542374134E-1,2.900100946E0,1.051645565E1
1.574817532E1,2.297109663E-1,3.050848961E0,1.060199928E1
1.576828662E1,2.333002090E-1,3.142374277E0,1.023111153E1
1.578839787E1,2.632105052E-1,3.117249727E0,9.649655342E0
1.580850923E1,4.707878530E-1,3.091526747E0,9.223134995E0
1.582862048E1,7.088736892E-1,3.105285645E0,9.022137642E0
1.584873173E1,7.968099117E-1,3.165704250E0,9.011968613E0
1.586884308E1,8.392825127E-1,3.204587698E0,9.253045082E0
1.588895433E1,8.943174481E-1,3.296113253E0,9.505488396E0
1.590906558E1,9.553344250E-1,3.301496983E0,9.550353050E0
1.592917688E1,9.038887620E-1,3.235096216E0,9.434899330E0
1.594928818E1,7.908278704E-1,3.213560820E0,9.282357216E0
1.596939944E1,5.952146053E-1,3.221935749E0,9.243474007E0
1.598951074E1,5.090730190E-1,3.193820000E0,9.311071396E0
1.600962204E1,5.324030519E-1,3.164507866E0,9.370293617E0
1.602973329E1,5.437689424E-1,3.168097258E0,9.390632629E0
1.604984459E1,5.617151260E-1,3.192623615E0,9.360722542E0
1.606995589E1,6.125625968E-1,3.241078377E0,9.300303459E0
1.609006714E1,6.598208547E-1,3.228515863E0,9.240483284E0
1.611017845E1,7.310073376E-1,3.197409153E0,9.194420815E0
1.613028975E1,6.969096065E-1,3.195614576E0,9.341579437E0
1.615040100E1,6.807580590E-1,3.203391314E0,9.437292099E0
1.617051230E1,6.628118753E-1,3.189034462E0,9.530612946E0
1.619062360E1,6.005984545E-1,3.117249727E0,9.518050194E0
1.621073485E1,5.467599630E-1,3.102294445E0,9.446265221E0
1.623084621E1,5.090730190E-1,3.142374277E0,9.442676544E0
1.625095746E1,5.419743061E-1,3.202793121E0,9.412766457E0
1.627106871E1,5.521438122E-1,3.250649452E0,9.404989243E0
1.629118001E1,6.161518097E-1,3.236890793E0,9.336793900E0
1.631129131E1,6.640082598E-1,3.209971666E0,9.337990761E0
1.633140256E1,6.711867452E-1,3.223132133E0,9.355937004E0
1.635151391E1,6.897311211E-1,3.263810158E0,9.429515839E0
1.637162516E1,7.052844763E-1,3.242274761E0,9.522237778E0
1.639173647E1,7.142575383E-1,3.216551781E0,9.489934921E0
1.641184772E1,6.669993401E-1,3.221935749E0,9.539586067E0
1.643195907E1,5.892325640E-1,3.298506021E0,9.449256897E0
1.645207032E1,5.353940725E-1,3.319443226E0,9.463613510E0
1.647218157E1,5.778666735E-1,3.287738323E0,9.384650230E0
1.649229287E1,4.229314029E-1,3.235694408E0,8.792427063E0
1.651240417E1,7.477571070E-2,3.256631613E0,8.237292290E0
1.653251548E1,-8.195417374E-2,3.233301640E0,8.279764175E0
1.655262673E1,-1.998006850E-1,3.128017426E0,8.848059654E0
1.657273808E1,-4.438686073E-1,3.007179976E0,9.543174744E0
1.659284933E1,-6.526423693E-1,2.879761934E0,9.932008743E0
1.661296063E1,-7.489534616E-1,2.837887764E0,1.002652550E1
1.663307188E1,-7.028916478E-1,2.893520832E0,1.017009449E1
1.665318319E1,-3.810569942E-1,2.964108944E0,1.038485050E1
1.667329449E1,-8.853443712E-2,3.029313564E0,1.028734303E1
1.669340579E1,8.973085135E-2,3.105883837E0,9.662218094E0
1.671351704E1,1.776670814E-1,3.201596737E0,9.020342827E0
1.673362839E1,3.433700502E-1,3.268595695E0,8.784051895E0
1.675373964E1,4.546363056E-1,3.309871912E0,8.886344910E0
1.677385089E1,3.744767308E-1,3.244667530E0,8.803194046E0
1.679396220E1,2.494517565E-1,3.216551781E0,8.584251404E0
1.681407350E1,2.614158690E-1,3.313461065E0,8.729017258E0
1.683418480E1,4.779663086E-1,3.343371391E0,9.318847656E0
1.685429605E1,5.964110494E-1,3.276970625E0,1.010070229E1
1.687440735E1,4.671986103E-1,3.096910715E0,1.049312592E1
1.689451871E1,8.733802289E-2,2.971885681E0,1.007916737E1
1.691462996E1,-2.333002090E-1,2.954537868E0,9.476176262E0
1.693474126E1,-2.799602449E-1,2.973082066E0,9.233304024E0
1.695485251E1,-1.375873089E-1,3.015554667E0,9.257232666E0
1.697496386E1,-3.649054468E-2,3.062214851E0,9.279366493E0
1.699507511E1,8.733802289E-2,3.091526747E0,9.253045082E0
1.701518641E1,2.584248483E-1,3.150151014E0,9.379864693E0
1.703529766E1,3.750749528E-1,3.202793121E0,9.644869804E0
1.705540897E1,3.284149170E-1,3.149552822E0,9.687940598E0
1.707552027E1,1.471585929E-1,3.102892876E0,9.485747337E0
1.709563157E1,8.793623000E-2,3.122035265E0,9.286544800E0
1.711574287E1,1.268195957E-1,3.120838881E0,9.211769104E0
1.713585412E1,1.298106313E-1,3.078964472E0,9.207581520E0
1.715596548E1,1.064806059E-1,3.077768087E0,9.184849739E0
1.717607673E1,1.286142170E-1,3.176471949E0,9.246464729E0
1.719618803E1,2.147558331E-1,3.194418192E0,9.520442963E0
1.721629928E1,2.799602449E-1,3.121437073E0,9.876974106E0
1.723641058E1,2.189432681E-1,3.078366280E0,9.965508461E0
1.725652194E1,7.357929647E-2,3.105285645E0,9.662816048E0
1.727663318E1,4.366901144E-2,3.142972469E0,9.371489525E0
1.729674449E1,1.130608693E-1,3.111865759E0,9.343972206E0
1.731685579E1,4.785645381E-2,2.900100946E0,9.424730301E0
1.733696704E1,-1.459621787E-1,2.613560438E0,9.689735413E0
1.735707834E1,-3.445664644E-1,2.973680258E0,1.023410225E1
1.737718970E1,-5.012963414E-1,3.371487141E0,1.050329494E1
1.739730094E1,-3.960121572E-1,3.395415306E0,1.017308521E1
1.741741225E1,-2.518445849E-1,3.357728481E0,9.476774216E0
1.743752350E1,-2.416750938E-1,3.451646566E0,8.812766075E0
1.745763480E1,-2.811566591E-1,3.496512175E0,8.412566185E0
1.747774615E1,-3.499503136E-1,3.457030535E0,8.405387878E0
1.749785740E1,-3.080759048E-1,3.579662561E0,8.676374435E0
1.751796871E1,-1.453639716E-1,3.826123476E0,8.803792953E0
1.753808001E1,1.304088384E-1,3.892524242E0,8.785248756E0
1.755819126E1,4.217349887E-1,3.861417532E0,8.943773270E0
1.757830256E1,5.892325640E-1,3.879961967E0,9.190832138E0
1.759841391E1,5.222335458E-1,3.942175388E0,9.159127235E0
1.761852516E1,5.114658475E-1,3.958925009E0,8.970691681E0
1.763863647E1,5.539384484E-1,3.939782381E0,8.803194046E0
1.765874777E1,6.029912829E-1,3.973282099E0,8.752944946E0
1.767885902E1,8.476574421E-1,4.060619831E0,8.789435387E0
1.769897037E1,9.523434043E-1,4.068994999E0,8.639286041E0
1.771908167E1,8.273184299E-1,3.990031719E0,8.539385796E0
1.773919292E1,8.626125455E-1,3.897309780E0,8.630910873E0
1.775930423E1,8.081758618E-1,3.674179077E0,8.818747520E0
1.777941553E1,7.220342159E-1,3.428316593E0,8.850452423E0
1.779952683E1,2.949153781E-1,3.465405464E0,9.127422333E0
1.781963808E1,1.106680483E-1,3.495315790E0,9.809974670E0
1.783974944E1,-1.208375469E-1,3.217149973E0,1.021735287E1
1.785986074E1,-3.439682424E-1,3.095116138E0,9.838688850E0
1.787997199E1,-6.059823632E-1,3.142374277E0,9.370293617E0
1.790008329E1,-6.891329288E-1,3.064607620E0,9.264410973E0
1.792019459E1,-7.381857634E-1,2.974278450E0,9.495916367E0
1.794030589E1,-9.828519225E-1,2.981456995E0,9.847661972E0
1.796041714E1,-1.158724308E0,2.994617462E0,9.896714211E0
1.798052844E1,-1.189232826E0,3.075973511E0,9.544371605E0
1.800063980E1,-1.320838094E0,3.202194929E0,9.335597992E0
1.802075110E1,-9.044869542E-1,3.177668571E0,9.119047165E0
1.804086235E1,-2.404786795E-1,2.756531715E0,8.525627136E0
1.806097365E1,7.537391037E-2,2.440679073E0,8.210970879E0
1.808108496E1,-2.691925466E-1,2.458625317E0,8.569893837E0
1.810119621E1,3.649054468E-1,2.644667149E0,9.344570160E0
1.812130751E1,1.583450437E0,2.362314224E0,1.000678444E1
1.814141881E1,1.850848317E0,2.387438774E0,1.180080318E1
1.816153016E1,8.895317912E-1,2.545365095E0,1.239362526E1
1.818164147E1,1.615155339E-1,2.297708035E0,1.122652531E1
1.820175272E1,-6.215356588E-1,1.831107497E0,1.033220863E1
1.822186402E1,-1.312463164E0,1.546959877E0,1.034058285E1
1.824197532E1,-1.404586911E0,1.704886079E0,1.009711361E1
1.826208662E1,-1.655235052E0,2.493321180E0,9.358927727E0
1.828219792E1,-1.885544300E0,2.544168711E0,9.501300812E0
1.830230917E1,-3.643072546E-1,1.736590981E0,9.372686386E0
1.832242048E1,-1.183848977E0,1.883151412E0,9.402596474E0
1.834253183E1,-1.815554142E0,2.158924341E0,9.891330719E0
1.836264313E1,-1.664208174E0,2.434098721E0,1.010429192E1
1.838275444E1,-7.268198729E-1,2.848057270E0,8.882157326E0
1.840286569E1,3.170489892E-2,2.905484915E0,8.065009117E0
1.842297699E1,-3.110669553E-1,3.263211966E0,8.877969742E0
1.844308829E1,-5.330012441E-1,3.606581926E0,1.005523872E1
1.846319959E1,-1.980060786E-1,3.988237143E0,1.041655540E1
1.848331089E1,-5.419743061E-1,4.162913322E0,9.381061554E0
1.850342214E1,-1.057029366E0,3.645465374E0,8.775676727E0
1.852353344E1,-4.007977843E-1,3.300898790E0,8.472386360E0
1.854364475E1,-7.399803996E-1,3.767499208E0,8.318648338E0
1.856375605E1,-9.714859724E-1,3.653840065E0,7.408178806E0
1.858386735E1,7.238288224E-2,2.632703066E0,7.144968510E0
1.860397871E1,1.615155339E-1,2.367099762E0,7.705487251E0
1.862409001E1,-2.937189937E-1,2.282752752E0,8.512466431E0
1.864420126E1,-2.015953064E-1,1.713859200E0,1.055115128E1
1.866431256E1,2.931207716E-1,1.639681697E0,1.173978615E1
1.868442386E1,1.020538807E0,2.300698996E0,1.194975662E1
1.870453516E1,9.050851464E-1,2.971287489E0,1.072104168E1
1.872464647E1,-4.121637046E-1,4.975874901E0,7.674978733E0
1.874475777E1,-8.446664214E-1,5.098506927E0,7.506882668E0
1.876486907E1,6.855437160E-1,3.171088219E0,9.032307625E0
1.878498037E1,8.021938205E-1,2.837887764E0,1.015214825E1
1.880509162E1,-6.161518097E-1,3.158525944E0,9.984650612E0
1.882520292E1,-1.259821177E0,3.536591768E0,9.439086914E0
1.884531428E1,-1.164706469E0,3.857230186E0,8.677571297E0
1.886542558E1,-6.275177598E-1,3.628715515E0,7.432705402E0
1.888553688E1,-1.896311939E-1,2.949752092E0,6.322435856E0
1.890564818E1,-5.904290080E-1,2.733201742E0,6.414559364E0
1.892575949E1,-1.147956610E0,3.215953588E0,9.725028992E0
1.894587079E1,-1.305882931E0,3.163311481E0,1.237747288E1
1.896598209E1,-1.382453322E0,2.677568436E0,1.279202938E1
1.898609334E1,-1.803590059E0,2.307877541E0,1.191685486E1
1.900620464E1,-1.981855392E0,1.901097536E0,1.077428246E1
1.902631594E1,-1.113260746E0,1.830509305E0,1.021675491E1
1.904642725E1,-1.846062660E0,1.959721804E0,9.620942116E0
1.906653855E1,-3.962514400E0,3.226123095E0,8.740383148E0
1.908664985E1,-3.736392498E0,2.798406124E0,7.939983845E0
1.910676115E1,-3.685544968E0,2.337189436E0,7.553543091E0
1.912687246E1,-3.834498405E0,1.774278045E0,7.859824181E0
1.914698376E1,-5.268995285E0,1.633699656E0,8.121838570E0
1.916709506E1,-6.796812534E0,1.597209096E0,8.191828728E0
1.918720631E1,-7.582854748E0,1.472184181E0,9.753743172E0
1.920731761E1,-5.712265968E0,1.556531072E0,1.050090218E1
1.922742891E1,-2.642274380E0,1.823330879E0,1.023290634E1
1.924754022E1,-1.216152072E0,2.438286304E0,1.019162941E1
1.926765152E1,-1.442872047E0,3.339184046E0,9.809974670E0
1.928776282E1,-1.726421595E0,3.688536167E0,8.937192917E0
1.930787412E1,-2.097309113E0,3.704687595E0,8.038089752E0
1.932798542E1,-1.834098577E0,3.567100286E0,7.808976650E0
1.934809673E1,-1.369292736E0,3.560520172E0,7.772486210E0
1.936820803E1,-1.202991605E0,3.738785267E0,7.864609718E0
1.938831933E1,-1.135394335E0,3.971487284E0,8.121838570E0
1.940843069E1,-1.034297585E0,4.051048756E0,8.687741280E0
1.942854199E1,-8.440681696E-1,4.112065792E0,9.467203140E0
1.944865329E1,-8.488538265E-1,4.191627026E0,1.020060253E1
1.946876459E1,-7.537391186E-1,4.171886444E0,1.061456108E1
1.948887589E1,-7.118647099E-1,4.159324169E0,9.988838196E0
1.950898720E1,-8.416753411E-1,4.296911240E0,8.807381630E0
1.952909850E1,-1.119242787E0,4.360321045E0,7.942974567E0
1.954920980E1,-1.275972724E0,4.208974838E0,7.659425259E0
1.956932110E1,-1.618744493E0,4.068994999E0,7.623532772E0
1.958943240E1,-2.173281193E0,4.141975880E0,7.712067604E0
1.960954371E1,-2.334796667E0,4.108476639E0,8.114061356E0
1.962965501E1,-2.124826431E0,4.040879250E0,8.748757362E0
1.964976631E1,-1.853839397E0,4.156332970E0,9.172286987E0
1.966987761E1,-1.652842283E0,4.299304008E0,9.494122505E0
1.968998891E1,-1.453639746E0,4.161716938E0,9.772886276E0
1.971010022E1,-1.257428288E0,4.049253941E0,9.716055870E0
1.973021152E1,-1.079162955E0,4.287938118E0,9.151350021E0
1.975032282E1,-6.275177598E-1,4.456034184E0,8.528019905E0
1.977043412E1,-1.240080357E0,4.673780918E0,8.181658745E0
1.979054542E1,-1.336391449E0,4.546362877E0,7.806583881E0
1.981065673E1,-1.405783296E0,4.420739651E0,8.052446365E0
1.983076803E1,-1.533799291E0,4.342374802E0,8.794819832E0
1.985087933E1,-1.594218135E0,4.295714855E0,9.150154114E0
1.987099063E1,-1.512263894E0,4.487739086E0,8.912666321E0
1.989110194E1,-1.284945726E0,4.630710125E0,8.669795036E0
1.991121324E1,-1.202991605E0,4.646263599E0,8.598608017E0
1.993132454E1,-1.156929731E0,4.581058979E0,8.423932076E0
1.995143584E1,-1.127617717E0,4.521836758E0,8.224131584E0
1.997154714E1,-1.040877819E0,4.338785648E0,8.312665939E0
1.999165845E1,-1.238285661E0,4.243670940E0,8.438887596E0
2.001176970E1,-1.461416483E0,4.339982033E0,8.803792953E0
2.003188100E1,-1.515853167E0,4.533800602E0,9.290133476E0
2.005199230E1,-1.354337573E0,4.516452789E0,9.486943245E0
2.007210360E1,-1.205384374E0,4.354339123E0,9.189635277E0
2.009221490E1,-1.361516118E0,4.299304008E0,8.615956306E0
2.011232621E1,-1.535593987E0,4.334598064E0,8.155337334E0
2.013243751E1,-1.526620865E0,4.324428558E0,8.197212219E0
2.015254886E1,-1.380658627E0,4.205385685E0,8.627920151E0
2.017266016E1,-1.268195987E0,4.188037872E0,8.923434258E0
2.019277147E1,-1.238285661E0,4.256831646E0,8.947361946E0
2.021288277E1,-1.306481123E0,4.319045067E0,9.038289070E0
2.023299407E1,-1.235892892E0,4.149154663E0,9.386445045E0
2.025310537E1,-1.342373490E0,4.049253941E0,9.507881165E0
2.027321667E1,-1.618146300E0,4.092324734E0,9.159127235E0
2.029332798E1,-1.635494232E0,4.077968121E0,8.797212601E0
2.031343928E1,-1.517647743E0,4.085744858E0,8.778668404E0
2.033355058E1,-1.423729420E0,4.120440483E0,8.857032776E0
2.035366188E1,-1.321436286E0,4.164707661E0,8.816953659E0
2.037377318E1,-1.268195987E0,4.191627026E0,8.763712883E0
2.039388449E1,-1.197009563E0,4.150351048E0,8.848658562E0
2.041399579E1,-1.147956610E0,4.192823410E0,8.876175880E0
2.043410709E1,-1.059422255E0,4.255635262E0,8.824131966E0
2.045421845E1,-1.030708313E0,4.161716938E0,8.702097893E0
2.047432975E1,-1.134796143E0,4.177868366E0,8.712865829E0
2.049444105E1,-1.120439172E0,4.253840446E0,8.793025017E0
2.051455235E1,-9.972088337E-1,4.253840446E0,8.931808472E0
2.053466365E1,-7.603194118E-1,4.178466320E0,9.034700394E0
2.055477496E1,-6.418746710E-1,4.181457520E0,8.899505615E0
2.057488626E1,-5.910272002E-1,4.217947960E0,9.024530411E0
2.059499751E1,-5.748756528E-1,4.197010994E0,9.120841980E0
2.061510881E1,-6.616154313E-1,4.285545349E0,9.108877182E0
2.063522016E1,-7.399803996E-1,4.261018753E0,9.000003815E0
2.065533141E1,-7.938188910E-1,4.143770695E0,8.882157326E0
2.067544277E1,-8.638089895E-1,4.091726780E0,8.810971260E0
2.069555407E1,-9.355936646E-1,4.106083870E0,8.732007980E0
2.071566537E1,-9.625129104E-1,4.075575352E0,8.776275635E0
2.073577667E1,-8.572286963E-1,4.049852371E0,8.959924698E0
2.075588798E1,-5.964110494E-1,4.031308174E0,9.105886459E0
2.077599928E1,-2.506481707E-1,4.146163464E0,9.128020287E0
2.079611058E1,-3.834498227E-1,4.281956196E0,9.029315948E0
2.081622188E1,-7.758727670E-1,4.137190342E0,8.783453941E0
2.083633318E1,-1.185643673E0,3.827918053E0,8.650053978E0
2.085644454E1,-1.554736495E0,3.641875982E0,8.675178528E0
2.087655584E1,-1.785045743E0,3.671786308E0,8.831310272E0
2.089666714E1,-1.789233088E0,3.657429457E0,9.091529846E0
2.091677845E1,-1.735992789E0,3.622135162E0,9.429515839E0
2.093688970E1,-1.645663738E0,3.640081406E0,9.656235695E0
2.095700100E1,-1.591825247E0,3.661018610E0,9.658030510E0
2.097711235E1,-1.636690736E0,3.611367464E0,9.445069313E0
2.099722365E1,-1.790429592E0,3.514458179E0,9.162117958E0
2.101733496E1,-1.890928149E0,3.452843189E0,9.004191399E0
2.103744626E1,-1.874178290E0,3.556332588E0,8.926424980E0
2.105755756E1,-1.715055585E0,3.667000771E0,8.962915421E0
2.107766886E1,-1.439880967E0,3.717848301E0,9.137591362E0
2.109778016E1,-1.268195987E0,3.717848301E0,9.162117958E0
2.111789147E1,-1.272981644E0,3.683750391E0,9.033503532E0
2.113800282E1,-1.335195065E0,3.690928936E0,8.937790871E0
2.115811412E1,-1.368096352E0,3.719642878E0,8.891729355E0
2.117822542E1,-1.409970760E0,3.689732552E0,8.870791435E0
2.119833673E1,-1.370489120E0,3.653840065E0,8.935996056E0
2.121844798E1,-1.336391449E0,3.654438496E0,9.032905579E0
2.123855928E1,-1.316052437E0,3.645465374E0,9.192028046E0
2.125867058E1,-1.252044439E0,3.533002615E0,9.520442963E0
2.127878194E1,-1.225723386E0,3.468396425E0,9.629316330E0
2.129889324E1,-1.402194023E0,3.543172121E0,9.384052277E0
2.131900454E1,-1.478764415E0,3.594617844E0,9.140582085E0
2.133911584E1,-1.450648785E0,3.541377544E0,9.059824944E0
2.135922714E1,-1.420140266E0,3.495315790E0,9.170493126E0
2.137933845E1,-1.407577872E0,3.510869026E0,9.141180992E0
2.139944980E1,-1.397408366E0,3.618546009E0,8.947361946E0
2.141956110E1,-1.341177106E0,3.617947817E0,8.976674080E0
2.143967240E1,-1.292124271E0,3.577269793E0,9.163313866E0
2.145978371E1,-1.253839016E0,3.544368505E0,9.269196510E0
2.147989501E1,-1.228116274E0,3.550948858E0,9.271589279E0
2.150000626E1,-1.217946768E0,3.571886063E0,9.197412491E0
2.152011761E1,-1.228116274E0,3.603590965E0,9.132805824E0
2.154022891E1,-1.220937729E0,3.606581926E0,9.072985649E0
2.156034022E1,-1.246062398E0,3.569493294E0,9.095717430E0
2.158045152E1,-1.326820135E0,3.536591768E0,9.243474007E0
2.160056282E1,-1.442872047E0,3.541377544E0,9.301499367E0
2.162067412E1,-1.439282775E0,3.543770313E0,9.254241943E0
2.164078542E1,-1.375274777E0,3.522833109E0,9.211171150E0
2.166089678E1,-1.320239902E0,3.559323788E0,9.095118523E0
2.168100808E1,-1.277169108E0,3.603590965E0,9.101100922E0
2.170111938E1,-1.212562919E0,3.603590965E0,9.415757179E0
2.172123063E1,-1.244866014E0,3.611965895E0,9.433105469E0
2.174134199E1,-1.336391449E0,3.630510092E0,9.038887978E0
2.176145329E1,-1.400399446E0,3.653241873E0,8.799605370E0
2.178156459E1,-1.383649707E0,3.642474174E0,8.867800713E0
2.180167589E1,-1.339382529E0,3.592823267E0,8.921639442E0
2.182178720E1,-1.386042476E0,3.586841106E0,8.911469460E0
2.184189850E1,-1.460818172E0,3.639483213E0,8.951549530E0
2.186200985E1,-1.528415442E0,3.628715515E0,9.177073479E0
2.188212115E1,-1.725225091E0,3.535395384E0,9.499505997E0
2.190223246E1,-1.747956991E0,3.493520975E0,9.547960281E0
2.192234371E1,-1.514656782E0,3.446262836E0,9.436694145E0
2.194245501E1,-1.461416483E0,3.479164124E0,9.358329773E0
2.196256636E1,-1.311266780E0,3.588037491E0,9.148957253E0
2.198267766E1,-1.044467092E0,3.736392498E0,9.070592880E0
2.200278897E1,-8.356932998E-1,3.817150354E0,9.112466812E0
2.202290027E1,-7.423732281E-1,3.875774384E0,9.269794464E0
2.204301157E1,-6.574280262E-1,3.903890133E0,9.379864693E0
2.206312287E1,-7.459624410E-1,3.891926050E0,9.046066284E0
2.208323423E1,-8.554341197E-1,3.951746702E0,8.651848793E0
2.210334553E1,-8.177471161E-1,3.958925009E0,8.636893272E0
2.212345683E1,-7.645068169E-1,3.949353695E0,8.840881348E0
2.214356808E1,-8.895317912E-1,3.948157310E0,8.772088051E0
2.216367944E1,-1.083350420E0,3.926023722E0,8.614161491E0
2.218379074E1,-1.193420291E0,3.882354736E0,8.745766640E0
2.220390204E1,-1.217348576E0,3.818944931E0,9.069396019E0
2.222401334E1,-1.272383451E0,3.779463291E0,9.242277145E0
2.224412464E1,-1.464407444E0,3.804588079E0,9.435498238E0
2.226423595E1,-1.925025821E0,3.785445452E0,9.755537987E0
2.228434730E1,-1.941775560E0,3.612564087E0,9.861420631E0
2.230445855E1,-1.616351724E0,3.503092289E0,9.582656860E0
2.232456985E1,-1.534995675E0,3.671188116E0,9.145966530E0
2.234468115E1,-1.356730461E0,3.855435371E0,8.898907661E0
2.236479251E1,-9.834501147E-1,3.939782381E0,8.882756233E0
2.238490381E1,-6.346961856E-1,4.069592953E0,8.846863747E0
2.240501511E1,-4.516452849E-1,4.199403763E0,8.819346428E0
2.242512641E1,-3.260220885E-1,4.281357765E0,8.772686005E0
2.244523772E1,-2.147558331E-1,4.318446636E0,8.749954224E0
2.246534907E1,-1.256231815E-1,4.393222332E0,8.801400185E0
2.248546037E1,-2.452643216E-2,4.465605259E0,8.777471542E0
2.250557162E1,4.725824669E-2,4.491926193E0,8.688339233E0
2.252568292E1,1.190429255E-1,4.469194412E0,8.640482903E0
2.254579428E1,2.362912297E-1,4.539782524E0,8.676973343E0
2.256590558E1,3.637090325E-1,4.618147850E0,8.720044136E0
2.258601688E1,4.450650215E-1,4.636094093E0,8.720642090E0
2.260612819E1,5.054838061E-1,4.625924587E0,8.693722725E0
2.262623954E1,5.324030519E-1,4.663611412E0,8.701499939E0
2.264635084E1,5.802595019E-1,4.705485821E0,8.746364594E0
2.266646214E1,6.161518097E-1,4.738387108E0,8.644071579E0
2.268657339E1,6.305087805E-1,4.737190723E0,8.545368195E0
2.270668475E1,7.094719410E-1,4.715655327E0,8.534600258E0
2.272679605E1,7.710871100E-1,4.743771076E0,8.535198212E0
2.274690735E1,8.201399446E-1,4.790431023E0,8.538787842E0
2.276701865E1,9.206385016E-1,4.813760757E0,8.601598740E0
2.278712996E1,1.027119160E0,4.802993298E0,8.635697365E0
2.280724126E1,1.075573802E0,4.827519894E0,8.522636414E0
2.282735261E1,1.098903775E0,4.866403103E0,8.475975990E0
2.284746386E1,1.276570916E0,4.865206718E0,8.542975426E0
2.286757516E1,1.505085468E0,4.869394302E0,8.633902550E0
2.288768652E1,1.541576028E0,4.909473896E0,8.562715530E0
2.290779782E1,1.467996716E0,4.995615482E0,8.379066467E0
2.292790912E1,1.501496196E0,4.975874901E0,8.289934158E0
2.294802042E1,1.564307809E0,4.929812908E0,8.331210136E0
2.296813173E1,1.616351724E0,4.925027370E0,8.324629784E0
2.298824308E1,1.649851203E0,4.941776752E0,8.190631866E0
2.300835438E1,1.677368641E0,4.968696117E0,8.051848412E0
2.302846563E1,1.745564103E0,4.960321426E0,8.111668587E0
2.304857694E1,1.838286042E0,4.931607246E0,8.358129501E0
2.306868829E1,1.660618901E0,4.849653244E0,8.288139343E0
2.308879959E1,1.549950838E0,4.808377266E0,8.410173416E0
2.310891089E1,1.462014675E0,4.777270317E0,8.782257080E0
2.312902220E1,1.499701619E0,4.757529736E0,9.104690552E0
2.314913350E1,1.562513232E0,4.734797955E0,9.061619759E0
2.316924485E1,1.462014675E0,4.719842434E0,8.754141808E0
2.318935610E1,1.264606714E0,4.710869789E0,8.495118141E0
2.320946746E1,1.251446247E0,4.734199524E0,8.499305725E0
2.322957876E1,1.423729420E0,4.778466702E0,8.616554260E0
2.324969006E1,1.396810174E0,4.828716278E0,8.489136696E0
2.326980136E1,1.435095429E0,4.558327198E0,8.312665939E0
2.328991266E1,1.670190215E0,4.573282242E0,8.815158844E0
2.331002402E1,1.612164259E0,4.621737003E0,9.037691116E0
2.333013532E1,1.685145378E0,4.719244480E0,8.685347557E0
2.335024662E1,1.813161373E0,4.749154568E0,8.367700577E0
2.337035792E1,1.835294962E0,4.750949383E0,8.429914474E0
2.339046923E1,1.728814363E0,4.640879631E0,8.537590981E0
2.341058053E1,1.526022673E0,4.570291042E0,8.304888725E0
2.343069183E1,1.444666624E0,4.643870354E0,8.106285095E0
2.345080313E1,1.532004714E0,4.667200565E0,8.161917686E0
2.347091444E1,1.604387641E0,4.584050179E0,8.432307243E0
2.349102579E1,1.624726534E0,4.493122578E0,8.702695847E0
2.351113709E1,1.601994753E0,4.475774765E0,8.884550095E0
2.353124834E1,1.521237016E0,4.476971149E0,9.028120041E0
2.355135970E1,1.781456470E0,4.601995945E0,9.117252350E0
2.357147100E1,2.389233351E0,4.814359188E0,8.715258598E0
2.359158230E1,1.399801254E0,4.064807415E0,7.447660446E0
2.361169360E1,1.813161373E0,4.179663181E0,5.655436516E0
2.363180490E1,2.551945448E0,4.170690060E0,5.679962635E0
2.365191626E1,2.342573404E0,4.133601189E0,6.210571289E0
2.367202756E1,2.119442701E0,4.128217220E0,6.311667919E0
2.369213881E1,2.300698996E0,3.349951744E0,5.871388435E0
2.371225016E1,2.333600283E0,2.325225353E0,6.484549522E0
2.373236147E1,2.349751949E0,1.797009826E0,8.471190453E0
2.375247277E1,2.021337032E0,1.776072621E0,1.089811039E1
2.377258407E1,1.818545222E0,1.161117196E0,1.228176022E1
2.379269542E1,2.593221426E0,-1.204786181E0,1.173619652E1
2.381280673E1,4.815555513E-1,-1.494317770E0,1.186002541E1
2.383291803E1,-2.669791937E0,-5.006981492E-1,1.314856052E1
2.385302933E1,-2.580060959E0,-1.050449133E0,1.401356602E1
2.387314063E1,-1.318445325E0,-2.584248543E0,1.366361523E1
2.389325194E1,-1.136590727E-2,-2.708076954E0,1.306062412E1
2.391336324E1,-1.369891018E-1,-1.106082320E0,1.218365479E1
2.393347454E1,8.829515576E-1,-1.974078640E-2,1.181635666E1
2.395358589E1,2.049452543E0,3.702892959E-1,1.055892849E1
2.397369720E1,1.936391711E0,8.668000102E-1,6.942774773E0
2.399380844E1,1.737787485E0,1.363908887E0,4.783850670E0
2.401391980E1,1.782652855E0,1.259222865E0,6.042475224E0
2.403403110E1,1.491326690E0,1.007976532E0,8.047660828E0
2.405414240E1,1.103091240E0,7.441678643E-1,9.903892517E0
2.407425371E1,5.551348329E-1,4.821537733E-1,1.106022453E1
2.409436506E1,5.395814776E-1,2.213360965E-1,1.123789120E1
2.411447636E1,1.313659668E0,1.806581169E-1,1.107458115E1
2.413458761E1,1.660618901E0,2.033899277E-1,1.122114182E1
2.415469897E1,9.260223508E-1,3.505485058E-1,1.079641533E1
2.417481027E1,3.840480447E-1,4.151547253E-1,9.525228500E0
2.419492157E1,3.978067636E-1,4.384847581E-1,8.833105087E0
2.421503287E1,8.333004713E-1,4.271188378E-1,9.107083321E0
2.423514423E1,1.048056364E0,3.960121572E-1,9.801001549E0
2.425525553E1,7.854440212E-1,4.241278172E-1,1.035673428E1
2.427536678E1,8.087740541E-1,3.218346536E-1,1.045723343E1
2.429547813E1,1.147956610E0,2.829512656E-1,1.043988514E1
2.431558944E1,1.222732425E0,3.547359705E-1,1.040578747E1
2.433570074E1,7.824530005E-1,5.724828243E-1,1.008156013E1
2.435581204E1,3.804588020E-1,7.447660565E-1,9.660423279E0
2.437592339E1,3.056831062E-1,7.537391186E-1,9.227920532E0
2.439603470E1,5.850451589E-1,6.640082598E-1,9.065806389E0
2.441614595E1,9.290133715E-1,5.910272002E-1,9.376873970E0
2.443625725E1,1.019342422E0,5.216353536E-1,9.659825325E0
2.445636860E1,1.012163997E0,4.707878530E-1,9.812965393E0
2.447647990E1,9.978070259E-1,3.026920557E-1,1.006959629E1
2.449659121E1,8.117650747E-1,2.081755698E-1,1.007139015E1
2.451670256E1,5.581258535E-1,2.183450609E-1,1.011326504E1
2.453681386E1,4.701896608E-1,2.901297510E-1,1.010010433E1
2.455692511E1,4.869394004E-1,3.158525825E-1,9.982855797E0
2.457703647E1,5.455635786E-1,1.363908947E-1,9.866804123E0
2.459714777E1,3.248256743E-1,2.392822644E-3,9.985847473E0
2.461725907E1,2.452643216E-1,-2.333002165E-2,1.026700401E1
2.463737037E1,3.248256743E-1,2.201396823E-1,1.026042366E1
2.465748173E1,4.917250574E-1,5.569294691E-1,1.011984539E1
2.467759303E1,9.655039310E-1,7.154539824E-1,9.876974106E0
2.469770428E1,1.507478237E0,6.658028960E-1,9.618548393E0
2.471781563E1,1.780858278E0,5.910272002E-1,9.531808853E0
2.473792694E1,1.475773335E0,5.605186820E-1,9.562317848E0
2.475803824E1,7.878368497E-1,4.354937077E-1,9.610174179E0
2.477814954E1,4.319044948E-1,2.159522474E-1,9.669994354E0
2.479826089E1,3.373879790E-1,1.668993831E-1,9.804591179E0
2.481837220E1,5.353940725E-1,2.015953064E-1,1.011864853E1
2.483848344E1,7.363911867E-1,2.709871531E-1,1.039741230E1
2.485859480E1,7.387840152E-1,3.690928817E-1,1.025683403E1
2.487870610E1,6.981059909E-1,3.852444589E-1,9.890133858E0
2.489881740E1,7.256234884E-1,3.541377485E-1,9.783055305E0
2.491892876E1,5.988038778E-1,3.744767308E-1,9.839286804E0
2.493904001E1,4.079762697E-1,3.445664644E-1,9.787840843E0
2.495915131E1,4.390829504E-1,2.548356056E-1,9.701699257E0
2.497926261E1,5.940182209E-1,1.938186288E-1,9.865009308E0
2.499937397E1,5.449653864E-1,2.141576260E-1,1.008574772E1
2.501948527E1,2.793620527E-1,3.008974493E-1,1.004447079E1
2.503959657E1,2.033899277E-1,3.284149170E-1,9.833903313E0
2.505970787E1,4.648058116E-1,2.392822653E-1,9.876375198E0
2.507981923E1,4.486542344E-1,2.973082066E-1,1.010429192E1
2.509993053E1,3.954139352E-1,3.571287692E-1,1.002054310E1
2.512004178E1,4.187439680E-1,3.314059377E-1,9.836296082E0
2.514015313E1,3.786641955E-1,3.044866920E-1,9.766903877E0
2.516026444E1,4.049852192E-1,2.871387303E-1,9.862616539E0
2.518037574E1,4.480560422E-1,3.002992272E-1,1.001097202E1
2.520048709E1,4.660021961E-1,2.656033039E-1,1.010130119E1
2.522059839E1,4.713860750E-1,2.691925466E-1,9.967901230E0
2.524070964E1,3.762713671E-1,2.871387303E-1,9.789037704E0
2.526082100E1,3.146561682E-1,3.014956415E-1,9.763913155E0
2.528093230E1,3.924229145E-1,2.751746178E-1,9.813564301E0
2.530104360E1,4.402793646E-1,2.566302419E-1,9.973284721E0
2.532115490E1,3.864408433E-1,2.715853751E-1,1.001515961E1
2.534126626E1,3.732803464E-1,2.566302419E-1,9.979267120E0
2.536137756E1,3.840480447E-1,2.799602449E-1,9.856036186E0
2.538148886E1,4.055834413E-1,2.817548811E-1,9.819545746E0
2.540160016E1,4.773681164E-1,2.751746178E-1,9.906884193E0
2.542171147E1,4.354937077E-1,3.092723191E-1,9.941579819E0
2.544182277E1,4.121637046E-1,2.937189937E-1,9.877572060E0
2.546193407E1,4.869394004E-1,2.458625287E-1,9.953543663E0
2.548204542E1,4.205385745E-1,2.560320199E-1,1.003908730E1
2.550215667E1,3.924229145E-1,2.685943544E-1,9.924830437E0
2.552226803E1,4.223332107E-1,2.787638307E-1,9.824331284E0
2.554237933E1,4.109672904E-1,2.883351147E-1,9.917053223E0
2.556249063E1,4.073780477E-1,2.572284341E-1,9.948758125E0
2.558260194E1,3.720839322E-1,2.673979402E-1,9.908679008E0
2.560271329E1,4.217349887E-1,2.715853751E-1,9.932606697E0
2.562282459E1,4.498506486E-1,2.709871531E-1,9.965508461E0
2.564293584E1,4.049852192E-1,2.805584669E-1,9.923633575E0
2.566304720E1,4.097708762E-1,2.715853751E-1,9.820143700E0
2.568315850E1,4.468596280E-1,2.650051117E-1,9.926026344E0
2.570326980E1,4.091726840E-1,2.578266263E-1,1.005165005E1
2.572338115E1,3.840480447E-1,2.662015259E-1,9.971489906E0
2.574349246E1,4.259224236E-1,2.769692242E-1,9.818349838E0
2.576360376E1,4.438686073E-1,3.176472187E-1,9.822537422E0
2.578371506E1,4.438686073E-1,2.961117923E-1,9.905687332E0
2.580382636E1,3.930211067E-1,2.751746178E-1,9.987043381E0
2.582393766E1,4.336991012E-1,2.650051117E-1,9.948160172E0
2.584404897E1,4.271188378E-1,2.596212626E-1,9.920642853E0
2.586416027E1,4.372883439E-1,2.805584669E-1,9.875179291E0
2.588427162E1,4.540380836E-1,3.110669553E-1,9.903892517E0
2.590438287E1,4.313062727E-1,2.853440940E-1,9.918250084E0
2.592449423E1,4.043870270E-1,2.542374134E-1,9.917651176E0
2.594460553E1,4.163511395E-1,2.554338276E-1,9.904491425E0
2.596471683E1,4.169493318E-1,2.775674164E-1,9.936794281E0
2.598482818E1,4.061816335E-1,3.032902777E-1,9.920044899E0
2.600493949E1,4.660021961E-1,2.865405083E-1,9.883553505E0
2.602505079E1,4.055834413E-1,2.829512656E-1,9.931410789E0
2.604516209E1,4.001995921E-1,2.644068897E-1,9.884152412E0
2.606527339E1,4.115654826E-1,2.727817893E-1,9.896116257E0
2.608538470E1,4.277170599E-1,2.727817893E-1,9.958928108E0
2.610549600E1,3.984049559E-1,2.650051117E-1,9.936196327E0
2.612560735E1,4.103690982E-1,2.596212626E-1,9.915258408E0
2.614571865E1,5.012963414E-1,2.967100143E-1,9.955936432E0
2.616582990E1,4.091726840E-1,3.080759048E-1,9.962516785E0
2.618594126E1,4.259224236E-1,2.524427772E-1,9.807581902E0
2.620605256E1,4.229314029E-1,2.853440940E-1,9.882955551E0
2.622616386E1,4.043870270E-1,2.889333367E-1,1.001456070E1
2.624627516E1,4.085744619E-1,2.500499785E-1,9.984650612E0
2.626638647E1,3.948157430E-1,2.560320199E-1,9.921240807E0
2.628649777E1,4.079762697E-1,2.775674164E-1,9.865608215E0
2.630660907E1,4.671986103E-1,2.919243574E-1,9.851848602E0
2.632672042E1,4.133601189E-1,2.955136001E-1,9.963115692E0
2.634683173E1,4.390829504E-1,2.554338276E-1,9.982855797E0
2.636694303E1,4.277170599E-1,2.380858511E-1,9.929018021E0
2.638705433E1,4.085744619E-1,2.644068897E-1,9.879964828E0
2.640716569E1,4.348955154E-1,2.769692242E-1,9.892526627E0
2.642727699E1,3.978067636E-1,2.644068897E-1,9.937392235E0
2.644738829E1,3.984049559E-1,2.255235314E-1,9.948160172E0
2.646749959E1,4.121637046E-1,2.452643216E-1,9.936196327E0
2.648761089E1,4.755735099E-1,2.285145670E-1,9.908080101E0
2.650772220E1,4.713860750E-1,2.548356056E-1,9.919445992E0
2.652783355E1,4.564309120E-1,3.140579760E-1,9.906884193E0
2.654794485E1,4.229314029E-1,4.654040039E-1,9.735796928E0
2.656805615E1,5.533402562E-1,3.876372576E-1,9.653244972E0
2.658816746E1,5.647061467E-1,2.015953064E-1,9.999007225E0
2.660827876E1,3.343969584E-1,1.896311939E-1,1.024367332E1
2.662839006E1,4.019941986E-1,2.279163599E-1,1.009830952E1
2.664850136E1,5.174478889E-1,2.883351147E-1,9.827322960E0
2.666861272E1,4.887340367E-1,2.937189937E-1,9.742377281E0
2.668872397E1,4.408775866E-1,2.285145670E-1,9.866206169E0
2.670883532E1,4.372883439E-1,1.992024779E-1,1.000678444E1
2.672894662E1,4.528416991E-1,2.093719840E-1,1.004566765E1
2.674905792E1,4.414757788E-1,2.656033039E-1,9.969695091E0
2.676916923E1,4.438686073E-1,2.913261652E-1,9.859027863E0
2.678928058E1,4.689932466E-1,2.967100143E-1,9.795019150E0
2.680939188E1,4.642075896E-1,3.415754437E-1,9.796813965E0
2.682950313E1,4.773681164E-1,2.955136001E-1,9.902098656E0
2.684961449E1,4.636093974E-1,2.386840582E-1,9.969695091E0
2.686972579E1,4.564309120E-1,2.410768867E-1,9.955338478E0
2.688983709E1,4.564309120E-1,2.620140910E-1,9.939187050E0
2.690994844E1,4.570291340E-1,2.757728100E-1,9.929615974E0
2.693005975E1,4.959124923E-1,2.685943544E-1,9.878170013E0
2.695017100E1,4.755735099E-1,2.614158690E-1,9.879964828E0
2.697028230E1,4.516452849E-1,2.321037948E-1,9.919445992E0
2.699039365E1,4.474578202E-1,2.315055877E-1,9.970891953E0
2.701050496E1,4.737788737E-1,2.470589429E-1,9.971489906E0
2.703061626E1,4.707878530E-1,2.757728100E-1,9.903294563E0
2.705072761E1,4.761717021E-1,2.781656384E-1,9.855438232E0
2.707083891E1,4.642075896E-1,2.548356056E-1,9.885348320E0
2.709095022E1,4.474578202E-1,2.644068897E-1,9.921838760E0
2.711106152E1,4.827519655E-1,2.656033039E-1,9.920642853E0
2.713117282E1,4.971089065E-1,2.488535494E-1,9.945169449E0
2.715128412E1,4.815555513E-1,2.494517565E-1,9.954142570E0
2.717139548E1,4.582255483E-1,2.644068897E-1,9.911669731E0
2.719150678E1,4.689932466E-1,2.811566591E-1,9.850652695E0
2.721161803E1,5.174478889E-1,2.548356056E-1,9.877572060E0
2.723172938E1,4.833501875E-1,2.321037948E-1,9.927223206E0
2.725184068E1,4.121637046E-1,2.961117923E-1,9.941579819E0
2.727195199E1,5.102694035E-1,2.662015259E-1,9.900901794E0
2.729206329E1,4.707878530E-1,2.255235314E-1,9.898509026E0
2.731217459E1,4.295116663E-1,2.350948304E-1,9.927821159E0
2.733228595E1,4.731806815E-1,2.638086975E-1,9.927223206E0
2.735239725E1,4.911268353E-1,2.596212626E-1,9.981659889E0
2.737250855E1,5.461617708E-1,2.697907388E-1,1.006062317E1
2.739261985E1,4.654040039E-1,2.644068897E-1,9.949356079E0
2.741273115E1,4.253242314E-1,2.219343036E-1,9.823135376E0
2.743284246E1,4.175475538E-1,2.644068897E-1,9.795618057E0
2.745295381E1,4.713860750E-1,2.955136001E-1,9.839286804E0
2.747306506E1,5.024927258E-1,2.817548811E-1,9.873982430E0
2.749317641E1,4.552344978E-1,2.877369225E-1,9.921240807E0
2.751328772E1,4.504488707E-1,2.554338276E-1,9.951150894E0
2.753339902E1,4.534398913E-1,2.303091735E-1,1.000080204E1
2.755351032E1,4.683950245E-1,2.518445849E-1,1.000199890E1
2.757362162E1,4.761717021E-1,2.626122832E-1,9.909874916E0
2.759373298E1,4.354937077E-1,2.662015259E-1,9.817152977E0
2.761384423E1,4.360919297E-1,2.650051117E-1,9.844670296E0
2.763395553E1,4.528416991E-1,2.572284341E-1,9.898509026E0
2.765406688E1,4.761717021E-1,2.524427772E-1,9.966704369E0
2.767417819E1,4.444667995E-1,2.727817893E-1,9.973882675E0
2.769428949E1,4.474578202E-1,2.733799815E-1,9.934401512E0
2.771440079E1,4.558327198E-1,2.626122832E-1,9.882955551E0
2.773451214E1,4.402793646E-1,2.602194548E-1,9.878170013E0
2.775462339E1,4.576273263E-1,2.578266263E-1,9.903892517E0
2.777473475E1,4.420739710E-1,2.775674164E-1,9.935597420E0
2.779484605E1,4.719842672E-1,2.709871531E-1,9.967901230E0
2.781495735E1,4.773681164E-1,2.865405083E-1,1.003071213E1
2.783506865E1,4.295116663E-1,2.805584669E-1,9.911669731E0
2.785518001E1,4.636093974E-1,2.685943544E-1,9.824331284E0
2.787529131E1,4.863412082E-1,2.614158690E-1,9.833304405E0
2.789540261E1,4.384847581E-1,2.739782035E-1,9.906285286E0
2.791551391E1,3.978067636E-1,2.793620527E-1,9.934401512E0
2.793562522E1,4.289134443E-1,2.386840582E-1,9.930811882E0
2.795573652E1,4.402793646E-1,2.249253243E-1,9.919445992E0
2.797584782E1,4.498506486E-1,2.715853751E-1,9.921240807E0
2.799595917E1,4.785645306E-1,3.008974493E-1,9.933803558E0
2.801607048E1,4.534398913E-1,2.865405083E-1,9.932606697E0
2.803618173E1,4.522434771E-1,2.542374134E-1,9.874580383E0
2.805629308E1,4.731806815E-1,2.578266263E-1,9.896714211E0
2.807640438E1,4.438686073E-1,2.709871531E-1,9.966106415E0
2.809651569E1,4.259224236E-1,2.733799815E-1,9.988240242E0
2.811662699E1,4.707878530E-1,2.697907388E-1,9.945767403E0
2.813673834E1,4.624129832E-1,2.602194548E-1,9.910472870E0
2.815684964E1,4.319044948E-1,2.973082066E-1,9.847063065E0
2.817696094E1,4.462614357E-1,3.487538993E-1,9.781859398E0
2.819707225E1,5.282155871E-1,2.967100143E-1,9.838089943E0
2.821718355E1,4.432703853E-1,2.273181528E-1,9.989436150E0
2.823729485E1,4.151547253E-1,2.141576260E-1,1.006002426E1
2.825740615E1,4.677968323E-1,2.524427772E-1,9.972088814E0
2.827751751E1,5.096712112E-1,2.967100143E-1,9.858428955E0
2.829762881E1,4.911268353E-1,2.853440940E-1,9.821938515E0
2.831774011E1,4.510470629E-1,2.602194548E-1,9.882357597E0
2.833785141E1,4.815555513E-1,2.446661144E-1,9.955338478E0
2.835796272E1,4.827519655E-1,2.733799815E-1,9.981060982E0
2.837807402E1,4.977070987E-1,2.721835673E-1,9.972686768E0
2.839818532E1,5.060819983E-1,2.829512656E-1,9.919445992E0
2.841829667E1,4.683950245E-1,3.062812984E-1,9.853643417E0
2.843840798E1,4.857429862E-1,3.224328458E-1,9.772886276E0
2.845851923E1,5.108676553E-1,2.853440940E-1,9.826724052E0
2.847863058E1,4.737788737E-1,2.829512656E-1,9.982257843E0
2.849874188E1,4.989035130E-1,2.524427772E-1,1.003968525E1
2.851885318E1,5.006981492E-1,2.560320199E-1,9.966106415E0
2.853896449E1,4.875376225E-1,2.817548811E-1,9.865608215E0
2.855907584E1,5.186443329E-1,2.727817893E-1,9.812367439E0
2.857918714E1,4.713860750E-1,2.662015259E-1,9.941579819E0
2.859929839E1,4.701896608E-1,2.733799815E-1,9.984650612E0
2.861940975E1,5.054838061E-1,2.967100143E-1,9.917053223E0
2.863952105E1,4.863412082E-1,2.614158690E-1,9.868598938E0
2.865963235E1,4.953143001E-1,2.721835673E-1,9.880562782E0
2.867974365E1,4.965106845E-1,3.044866920E-1,9.938589096E0
2.869985501E1,4.947160780E-1,2.805584669E-1,9.952945709E0
2.871996631E1,4.606183469E-1,2.506481707E-1,9.926624298E0
2.874007761E1,4.510470629E-1,2.518445849E-1,9.888937950E0
2.876018891E1,4.725824594E-1,2.835494876E-1,9.910472870E0
2.878030022E1,4.785645306E-1,2.925225794E-1,9.923633575E0
2.880041152E1,4.707878530E-1,2.739782035E-1,9.946963310E0
2.882052282E1,4.719842672E-1,2.817548811E-1,9.908080101E0
2.884063417E1,4.953143001E-1,2.841476798E-1,9.851848602E0
2.886074548E1,4.929214716E-1,2.811566591E-1,9.870991707E0
2.888085678E1,4.594219327E-1,2.703889608E-1,9.963115692E0
2.890096808E1,4.534398913E-1,2.512463629E-1,1.000977516E1
2.892107938E1,4.671986103E-1,2.799602449E-1,9.934999466E0
2.894119069E1,4.791627228E-1,2.715853751E-1,9.872786522E0
2.896130199E1,4.498506486E-1,2.584248483E-1,9.905687332E0
2.898141334E1,4.725824594E-1,2.703889608E-1,9.945169449E0
2.900152464E1,4.624129832E-1,2.793620527E-1,9.972088814E0
2.902163589E1,4.552344978E-1,2.685943544E-1,9.882357597E0
2.904174725E1,4.779663086E-1,2.769692242E-1,9.824930191E0
2.906185855E1,4.486542344E-1,2.799602449E-1,9.932008743E0
2.908196985E1,4.121637046E-1,2.638086975E-1,1.003250694E1
2.910208115E1,4.163511395E-1,2.524427772E-1,9.956535339E0
2.912219251E1,4.737788737E-1,2.656033039E-1,9.834501266E0
2.914230381E1,5.054838061E-1,3.212364316E-1,9.844072342E0
2.916241506E1,5.617151260E-1,3.451646566E-1,9.910472870E0
2.918252641E1,5.730810165E-1,2.931207716E-1,9.949356079E0
2.920263772E1,4.474578202E-1,2.500499785E-1,9.963115692E0
2.922274902E1,4.791627228E-1,2.410768867E-1,9.946365356E0
2.924286032E1,5.042873621E-1,2.817548811E-1,9.920044899E0
2.926297162E1,5.066801906E-1,2.679961324E-1,9.930811882E0
2.928308298E1,4.666004181E-1,2.727817893E-1,9.908080101E0
2.930319428E1,4.749752879E-1,2.901297510E-1,9.861420631E0
2.932330558E1,5.377869010E-1,2.626122832E-1,9.902098656E0
2.934341688E1,5.449653864E-1,2.470589429E-1,9.970891953E0
2.936352819E1,5.282155871E-1,3.098705411E-1,9.912865639E0
2.938363949E1,5.509474277E-1,3.272185028E-1,9.874580383E0
2.940375079E1,5.503492355E-1,3.044866920E-1,9.873384476E0
2.942386214E1,5.186443329E-1,2.650051117E-1,9.889535904E0
2.944397344E1,4.995017350E-1,2.602194548E-1,9.912267685E0
2.946408475E1,5.054838061E-1,2.805584669E-1,9.900901794E0
2.948419605E1,5.341976285E-1,2.931207716E-1,9.939187050E0
2.950430735E1,5.485545993E-1,2.829512656E-1,9.942776680E0
2.952441865E1,5.533402562E-1,2.865405083E-1,9.866206169E0
2.954452996E1,5.527420044E-1,2.955136001E-1,9.868598938E0
2.956464131E1,5.449653864E-1,2.907279432E-1,9.931410789E0
2.958475261E1,5.557330847E-1,2.793620527E-1,9.943374634E0
2.960486386E1,5.623133183E-1,2.644068897E-1,9.936794281E0
2.962497522E1,5.443671346E-1,2.997010350E-1,9.939785004E0
2.964508652E1,5.515456200E-1,3.176472187E-1,9.916455269E0
2.966519782E1,5.730810165E-1,2.841476798E-1,9.909276962E0
2.968530912E1,5.306084156E-1,2.638086975E-1,9.913464546E0
2.970542042E1,5.503492355E-1,2.841476798E-1,9.874580383E0
2.972553178E1,5.754738450E-1,2.913261652E-1,9.851848602E0
2.974564308E1,5.389832854E-1,2.823530734E-1,9.946365356E0
2.976575438E1,5.635097623E-1,2.739782035E-1,9.954740524E0
2.978586568E1,5.533402562E-1,2.997010350E-1,9.903892517E0
2.980597699E1,5.647061467E-1,2.979064286E-1,9.869794846E0
2.982608829E1,5.724828243E-1,2.847459018E-1,9.913464546E0
2.984619959E1,5.533402562E-1,2.757728100E-1,9.981060982E0
2.986631095E1,5.676971674E-1,2.691925466E-1,9.948758125E0
2.988642225E1,5.670989752E-1,2.841476798E-1,9.896116257E0
2.990653350E1,5.808576941E-1,2.937189937E-1,9.862018585E0
2.992664485E1,5.886343718E-1,2.775674164E-1,9.896116257E0
2.994675615E1,5.742774606E-1,2.650051117E-1,9.943972588E0
2.996686746E1,5.419743061E-1,2.955136001E-1,9.909276962E0
2.998697876E1,6.143572330E-1,2.901297510E-1,9.893125534E0
3.000709006E1,6.215356588E-1,2.494517565E-1,9.948758125E0
3.002720141E1,5.982056856E-1,2.697907388E-1,9.932606697E0
3.004731266E1,5.748756528E-1,3.571287692E-1,9.881759644E0
3.006742397E1,6.203392744E-1,3.152543902E-1,9.838688850E0
3.008753532E1,5.916253924E-1,2.656033039E-1,9.835099220E0
3.010764662E1,5.748756528E-1,2.662015259E-1,9.916455269E0
3.012775792E1,6.071787477E-1,2.817548811E-1,1.000199890E1
3.014786923E1,6.215356588E-1,3.020938635E-1,9.984650612E0
3.016798053E1,5.970092416E-1,3.164508045E-1,9.847063065E0
3.018809188E1,6.317051649E-1,2.937189937E-1,9.801001549E0
3.020820313E1,5.886343718E-1,3.032902777E-1,9.907482147E0
3.022831449E1,5.934200287E-1,2.823530734E-1,9.967302322E0
3.024842579E1,6.000002623E-1,2.673979402E-1,9.945767403E0
3.026853709E1,6.203392744E-1,2.799602449E-1,9.884750366E0
3.028864839E1,6.119644046E-1,3.002992272E-1,9.872786522E0
3.030875970E1,6.143572330E-1,3.086741269E-1,9.907482147E0
3.032887105E1,5.928218365E-1,2.955136001E-1,9.917651176E0
3.034898235E1,6.107679605E-1,2.835494876E-1,9.894919395E0
3.036909365E1,6.089733839E-1,2.769692242E-1,9.921838760E0
3.038920496E1,6.203392744E-1,2.847459018E-1,9.960124016E0
3.040931626E1,6.305087805E-1,2.907279432E-1,9.956535339E0
3.042942756E1,6.143572330E-1,2.853440940E-1,9.903294563E0
3.044953886E1,6.209374666E-1,2.703889608E-1,9.862616539E0
3.046965016E1,6.089733839E-1,2.877369225E-1,9.895518303E0
3.048976152E1,6.095715761E-1,3.068794906E-1,9.924231529E0
3.050987282E1,6.382854581E-1,2.877369225E-1,9.939187050E0
3.052998407E1,6.394818425E-1,2.757728100E-1,9.897313118E0
3.055009542E1,6.227321029E-1,2.913261652E-1,9.891330719E0
3.057020673E1,6.412764788E-1,2.973082066E-1,9.900303841E0
3.059031803E1,6.340979934E-1,2.751746178E-1,9.902098656E0
3.061042933E1,6.125625968E-1,3.002992272E-1,9.856635094E0
3.063054063E1,6.382854581E-1,3.272185028E-1,9.866804123E0
3.065065194E1,6.705885530E-1,2.757728100E-1,9.931410789E0
3.067076324E1,6.179464459E-1,2.769692242E-1,9.993025780E0
3.069087459E1,6.484549642E-1,3.164508045E-1,9.949954987E0
3.071098589E1,6.723831892E-1,3.098705411E-1,9.836296082E0
3.073109720E1,6.203392744E-1,2.847459018E-1,9.829116821E0
3.075120850E1,6.388836503E-1,2.620140910E-1,9.914062500E0
3.077131980E1,6.370890141E-1,2.955136001E-1,9.990633011E0
3.079143115E1,6.424728632E-1,2.991028428E-1,9.971489906E0
3.081154246E1,6.550351977E-1,3.134597540E-1,9.862616539E0
3.083165376E1,6.466603279E-1,3.038884699E-1,9.814162254E0
3.085176506E1,6.119644046E-1,2.817548811E-1,9.859625816E0
3.087187636E1,6.149554253E-1,2.769692242E-1,9.942776680E0
3.089198766E1,6.580262184E-1,2.991028428E-1,9.988240242E0
3.091209897E1,6.538388133E-1,2.835494876E-1,9.967302322E0
3.093221032E1,6.394818425E-1,2.877369225E-1,9.872187614E0
3.095232162E1,6.418746710E-1,2.997010350E-1,9.850652695E0
3.097243292E1,6.412764788E-1,3.152543902E-1,9.885348320E0
3.099254423E1,6.550351977E-1,3.020938635E-1,9.923633575E0
3.101265553E1,6.364908218E-1,2.793620527E-1,9.929615974E0
3.103276683E1,6.532405615E-1,2.823530734E-1,9.918250084E0
3.105287813E1,6.544370055E-1,3.116651475E-1,9.880562782E0
3.107298944E1,6.574280262E-1,3.080759048E-1,9.898509026E0
3.109310079E1,6.376872063E-1,2.817548811E-1,9.914660454E0
3.111321209E1,6.334998012E-1,2.817548811E-1,9.927821159E0
3.113332334E1,6.681957245E-1,2.781656384E-1,9.937990189E0
3.115343470E1,6.520441771E-1,2.751746178E-1,9.912865639E0
3.117354600E1,6.484549642E-1,2.919243574E-1,9.884750366E0
3.119365730E1,6.705885530E-1,3.044866920E-1,9.904491425E0
3.121376860E1,6.717849374E-1,2.973082066E-1,9.923035622E0
3.123387990E1,6.550351977E-1,2.985046208E-1,9.914660454E0
3.125399126E1,6.681957245E-1,2.997010350E-1,9.898509026E0
3.127410251E1,6.879364848E-1,2.644068897E-1,9.890133858E0
3.129421386E1,6.412764788E-1,2.973082066E-1,9.877572060E0
3.131432516E1,6.658028960E-1,3.517449200E-1,9.863214493E0
3.133443647E1,7.220342159E-1,2.931207716E-1,9.887741089E0
3.135454777E1,6.711867452E-1,2.781656384E-1,9.960722923E0
3.137465907E1,6.987041831E-1,3.056831062E-1,9.967901230E0
3.139477042E1,7.148557901E-1,3.110669553E-1,9.921240807E0
3.141488173E1,6.765705943E-1,2.823530734E-1,9.876974106E0
3.143499298E1,6.819544435E-1,2.536391914E-1,9.863813400E0
3.145510433E1,6.849454641E-1,2.745763958E-1,9.899106979E0
3.147521563E1,6.759724021E-1,2.955136001E-1,9.946365356E0
3.149532694E1,6.945167780E-1,2.895315289E-1,9.975079536E0
3.151543824E1,7.130611539E-1,3.565305769E-1,9.863214493E0
3.153554959E1,7.381857634E-1,3.894318938E-1,9.742975235E0
3.155566089E1,7.154539824E-1,3.320041299E-1,9.796216011E0
3.157577220E1,6.466603279E-1,2.476571500E-1,9.934401512E0
3.159588345E1,6.454638839E-1,2.362912297E-1,9.968499184E0
3.161599480E1,7.034898400E-1,2.895315289E-1,9.949356079E0
3.163610610E1,7.280163169E-1,3.242274821E-1,9.897911072E0
3.165621740E1,6.933203340E-1,3.026920557E-1,9.904491425E0
3.167632871E1,6.562315822E-1,2.662015259E-1,9.958928108E0
3.169644001E1,6.544370055E-1,2.715853751E-1,9.902098656E0
3.171655136E1,6.783652306E-1,2.949153781E-1,9.920642853E0
3.173666266E1,6.795616150E-1,2.907279432E-1,9.952347755E0
3.175677391E1,6.765705943E-1,2.751746178E-1,9.912865639E0
3.177688527E1,6.825526357E-1,2.871387303E-1,9.839286804E0
3.179699657E1,6.687939167E-1,3.032902777E-1,9.868598938E0
3.181710787E1,6.669993401E-1,2.973082066E-1,9.908080101E0
3.183721917E1,6.574280262E-1,2.865405083E-1,9.934999466E0
3.185733053E1,6.640082598E-1,2.859423161E-1,9.905687332E0
3.187744183E1,6.658028960E-1,2.877369225E-1,9.878170013E0
3.189755308E1,6.508477330E-1,2.931207716E-1,9.881759644E0
3.191766438E1,6.544370055E-1,2.853440940E-1,9.927821159E0
3.193777574E1,6.604190469E-1,2.823530734E-1,9.950552940E0
3.195788704E1,6.532405615E-1,2.769692242E-1,9.920044899E0
3.197799834E1,6.586244106E-1,2.805584669E-1,9.888937950E0
3.199810964E1,6.490531564E-1,2.727817893E-1,9.903892517E0
3.201822094E1,6.299105883E-1,2.847459018E-1,9.917651176E0
3.203833230E1,6.460621357E-1,3.248256743E-1,9.879366875E0
3.205844360E1,6.795616150E-1,2.847459018E-1,9.876974106E0
3.207855490E1,6.472585201E-1,2.482553422E-1,9.977472305E0
3.209866621E1,6.592226624E-1,2.943171859E-1,9.990034103E0
3.211877751E1,6.903293133E-1,3.176472187E-1,9.888339996E0
3.213888881E1,6.586244106E-1,2.757728100E-1,9.857233047E0
3.215900011E1,6.448656917E-1,2.536391914E-1,9.877572060E0
3.217911141E1,6.281159520E-1,2.841476798E-1,9.878767967E0
3.219922277E1,6.460621357E-1,3.158525825E-1,9.869794846E0
3.221933407E1,6.915257573E-1,3.146561682E-1,9.894919395E0
3.223944532E1,6.496513486E-1,2.955136001E-1,9.922437668E0
3.225955667E1,6.610172391E-1,2.715853751E-1,9.899705887E0
3.227966798E1,6.406782866E-1,2.883351147E-1,9.900303841E0
3.229977928E1,6.544370055E-1,3.032902777E-1,9.891928673E0
3.231989058E1,6.550351977E-1,2.829512656E-1,9.884152412E0
3.234000194E1,6.460621357E-1,2.709871531E-1,9.921838760E0
3.236011324E1,6.424728632E-1,2.979064286E-1,9.952945709E0
3.238022454E1,6.430711150E-1,3.014956415E-1,9.909276962E0
3.240033584E1,6.287141442E-1,2.817548811E-1,9.853045464E0
3.242044714E1,6.382854581E-1,2.769692242E-1,9.859625816E0
3.244055844E1,6.329016089E-1,2.715853751E-1,9.912267685E0
3.246066975E1,6.197410822E-1,2.769692242E-1,9.957133293E0
3.248078105E1,6.143572330E-1,2.656033039E-1,9.979267120E0
3.250089235E1,6.071787477E-1,2.715853751E-1,9.932606697E0
3.252100371E1,6.239284873E-1,2.709871531E-1,9.847661972E0
3.254111501E1,6.137589812E-1,2.883351147E-1,9.853045464E0
3.256122626E1,6.053841114E-1,2.799602449E-1,9.896714211E0
3.258133761E1,6.077769399E-1,2.685943544E-1,9.957133293E0
3.260144891E1,5.994020700E-1,2.685943544E-1,9.959526062E0
3.262156022E1,6.083751321E-1,2.763710022E-1,9.936794281E0
3.264167152E1,6.143572330E-1,2.877369225E-1,9.906285286E0
3.266178282E1,5.994020700E-1,2.751746178E-1,9.912267685E0
3.268189417E1,6.017948985E-1,2.650051117E-1,9.928419113E0
3.270200548E1,6.053841114E-1,2.751746178E-1,9.932008743E0
3.272211673E1,6.197410822E-1,2.781656384E-1,9.887143135E0
3.274222808E1,6.107679605E-1,2.578266263E-1,9.871589661E0
3.276233938E1,5.766702294E-1,2.763710022E-1,9.912267685E0
3.278245068E1,5.922235847E-1,3.098705411E-1,9.902098656E0
3.280256199E1,6.287141442E-1,2.703889608E-1,9.889535904E0
3.282267329E1,5.946164131E-1,2.554338276E-1,9.938589096E0
3.284278464E1,6.388836503E-1,2.925225794E-1,9.933204651E0
3.286289595E1,6.095715761E-1,2.907279432E-1,9.921838760E0
3.288300720E1,5.760720372E-1,2.452643216E-1,9.884750366E0
3.290311850E1,5.796613097E-1,2.452643216E-1,9.887741089E0
3.292322985E1,5.952146053E-1,2.769692242E-1,9.935597420E0
3.294334115E1,6.029912829E-1,2.781656384E-1,9.955338478E0
3.296345246E1,6.035895348E-1,2.889333367E-1,9.919445992E0
3.298356376E1,6.239284873E-1,2.769692242E-1,9.867402077E0
3.300367506E1,5.892325640E-1,2.727817893E-1,9.852447510E0
3.302378641E1,6.011967063E-1,2.835494876E-1,9.888339996E0
3.304389772E1,6.191428304E-1,2.781656384E-1,9.938589096E0
3.306400902E1,6.077769399E-1,2.650051117E-1,9.957731247E0
3.308412032E1,6.161518097E-1,2.757728100E-1,9.917651176E0
3.310423162E1,6.299105883E-1,2.955136001E-1,9.872786522E0
3.312434292E1,6.209374666E-1,2.979064286E-1,9.882955551E0
3.314445423E1,6.119644046E-1,2.662015259E-1,9.911071777E0
3.316456553E1,6.029912829E-1,2.470589429E-1,9.964311600E0
3.318467688E1,6.185446382E-1,2.691925466E-1,9.977472305E0
3.320478818E1,6.323033571E-1,2.793620527E-1,9.909276962E0
3.322489949E1,6.263213158E-1,2.919243574E-1,9.839884758E0
3.324501074E1,6.370890141E-1,2.871387303E-1,9.849455833E0
3.326512209E1,6.143572330E-1,2.775674164E-1,9.903892517E0
3.328523339E1,6.245267391E-1,2.811566591E-1,9.929615974E0
3.330534470E1,6.227321029E-1,2.871387303E-1,9.930213928E0
3.332545600E1,6.370890141E-1,2.835494876E-1,9.897911072E0
3.334556735E1,6.245267391E-1,2.889333367E-1,9.878767967E0
3.336567865E1,6.197410822E-1,2.961117923E-1,9.899106979E0
3.338578996E1,6.460621357E-1,2.871387303E-1,9.914660454E0
3.340590121E1,6.251249313E-1,2.739782035E-1,9.936794281E0
3.342601256E1,6.215356588E-1,2.745763958E-1,9.921838760E0
3.344612386E1,6.323033571E-1,2.739782035E-1,9.885947227E0
3.346623516E1,6.287141442E-1,2.644068897E-1,9.905089378E0
3.348634647E1,6.095715761E-1,2.901297510E-1,9.903892517E0
3.350645777E1,6.275177598E-1,2.973082066E-1,9.866804123E0
3.352656912E1,6.424728632E-1,2.799602449E-1,9.887741089E0
3.354668042E1,6.622136831E-1,2.721835673E-1,9.941579819E0
3.356679167E1,6.550351977E-1,3.098705411E-1,9.973284721E0
3.358690303E1,6.460621357E-1,2.835494876E-1,9.918250084E0
3.360701433E1,6.137589812E-1,2.602194548E-1,9.834501266E0
3.362712563E1,6.227321029E-1,2.644068897E-1,9.846465111E0
3.364723694E1,6.317051649E-1,2.685943544E-1,9.928419113E0
3.366734824E1,6.221339107E-1,2.871387303E-1,9.988838196E0
3.368745954E1,6.448656917E-1,2.823530734E-1,9.923633575E0
3.370757084E1,6.466603279E-1,2.877369225E-1,9.851848602E0
3.372768220E1,6.538388133E-1,2.757728100E-1,9.863214493E0
3.374779350E1,6.185446382E-1,2.715853751E-1,9.953543663E0
3.376790480E1,6.329016089E-1,2.739782035E-1,9.960722923E0
3.378801605E1,6.352944374E-1,2.727817893E-1,9.899705887E0
3.380812740E1,6.305087805E-1,2.805584669E-1,9.877572060E0
3.382823871E1,6.532405615E-1,2.847459018E-1,9.898509026E0
3.384835001E1,6.610172391E-1,2.859423161E-1,9.933803558E0
3.386846131E1,6.496513486E-1,2.721835673E-1,9.946963310E0
3.388857261E1,6.340979934E-1,2.644068897E-1,9.903294563E0
3.390868397E1,6.508477330E-1,2.703889608E-1,9.889535904E0
3.392879527E1,6.544370055E-1,2.817548811E-1,9.913464546E0
3.394890657E1,6.406782866E-1,2.817548811E-1,9.936196327E0
3.396901782E1,6.705885530E-1,2.656033039E-1,9.923035622E0
3.398912912E1,6.598208547E-1,2.871387303E-1,9.914062500E0
3.400924048E1,6.735795736E-1,3.074777126E-1,9.887143135E0
3.402935178E1,6.909275651E-1,2.967100143E-1,9.873384476E0
3.404946308E1,6.771687865E-1,2.877369225E-1,9.885348320E0
3.406957438E1,6.771687865E-1,3.068794906E-1,9.881160736E0
3.408968569E1,6.993024349E-1,2.955136001E-1,9.887741089E0
3.410979704E1,6.819544435E-1,2.799602449E-1,9.970293999E0
3.412990834E1,6.915257573E-1,2.691925466E-1,9.947562218E0
3.415001964E1,6.891329288E-1,2.775674164E-1,9.872786522E0
3.417013089E1,6.999006271E-1,2.979064286E-1,9.877572060E0
3.419024225E1,7.076773047E-1,2.709871531E-1,9.924231529E0
3.421035355E1,6.885347366E-1,2.811566591E-1,9.928419113E0
3.423046485E1,6.933203340E-1,3.332005441E-1,9.878170013E0
3.425057615E1,7.441678643E-1,3.002992272E-1,9.873982430E0
3.427068746E1,7.124629617E-1,2.715853751E-1,9.917053223E0
3.429079876E1,6.939185858E-1,2.931207716E-1,9.942177773E0
3.431091006E1,7.369893789E-1,3.278166950E-1,9.909874916E0
3.433102141E1,7.363911867E-1,3.002992272E-1,9.872786522E0
3.435113272E1,7.034898400E-1,2.679961324E-1,9.885348320E0
3.437124402E1,7.214360237E-1,2.733799815E-1,9.898509026E0
3.439135527E1,7.040880919E-1,3.164508045E-1,9.911669731E0
3.441146662E1,7.405785918E-1,3.290131092E-1,9.902098656E0
3.443157792E1,7.280163169E-1,3.140579760E-1,9.888937950E0
3.445168923E1,6.969096065E-1,2.602194548E-1,9.899106979E0
3.447180053E1,7.166503668E-1,2.751746178E-1,9.930811882E0
3.449191183E1,7.334001660E-1,3.218346536E-1,9.915857315E0
3.451202313E1,7.423732281E-1,2.913261652E-1,9.893125534E0
3.453213444E1,7.142575383E-1,2.775674164E-1,9.906884193E0
3.455224579E1,7.399803996E-1,2.949153781E-1,9.896116257E0
3.457235709E1,7.387840152E-1,3.254238665E-1,9.878170013E0
3.459246834E1,7.310073376E-1,3.104687333E-1,9.870393753E0
3.461257964E1,7.190431952E-1,2.745763958E-1,9.869794846E0
3.463269100E1,7.280163169E-1,2.865405083E-1,9.908080101E0
3.465280230E1,7.405785918E-1,3.056831062E-1,9.952945709E0
3.467291360E1,7.387840152E-1,2.991028428E-1,9.930811882E0
3.469302490E1,7.286145091E-1,2.943171859E-1,9.887143135E0
3.471313621E1,7.292127013E-1,3.020938635E-1,9.866206169E0
3.473324751E1,7.369893789E-1,2.973082066E-1,9.880562782E0
3.475335881E1,7.292127013E-1,2.931207716E-1,9.906285286E0
3.477347016E1,7.423732281E-1,2.895315289E-1,9.921240807E0
3.479358147E1,7.369893789E-1,2.991028428E-1,9.909874916E0
3.481369272E1,7.244270444E-1,2.973082066E-1,9.890133858E0
3.483380402E1,7.339983582E-1,3.152543902E-1,9.872786522E0
3.485391537E1,7.453642488E-1,2.973082066E-1,9.888339996E0
3.487402667E1,7.136593461E-1,2.721835673E-1,9.925428391E0
3.489413798E1,7.172485590E-1,2.955136001E-1,9.928419113E0
3.491424928E1,7.375875711E-1,2.955136001E-1,9.875777245E0
3.493436058E1,7.202396393E-1,2.841476798E-1,9.865009308E0
3.495447188E1,7.046862841E-1,3.080759048E-1,9.870991707E0
3.497458318E1,7.393822074E-1,3.164508045E-1,9.888339996E0
3.499469449E1,7.387840152E-1,2.656033039E-1,9.960722923E0
3.501480584E1,7.118647099E-1,2.715853751E-1,9.970293999E0
3.503491714E1,7.633104324E-1,3.314059377E-1,9.892526627E0
3.505502845E1,7.399803996E-1,3.062812984E-1,9.859625816E0
3.507513970E1,6.783652306E-1,2.512463629E-1,9.875179291E0
3.509525105E1,7.100701332E-1,2.554338276E-1,9.914660454E0
3.511536235E1,7.310073376E-1,3.026920557E-1,9.948160172E0
3.513547365E1,7.334001660E-1,3.134597540E-1,9.920044899E0
3.515558496E1,7.136593461E-1,2.997010350E-1,9.868000984E0
3.517569626E1,7.280163169E-1,2.919243574E-1,9.839884758E0
3.519580756E1,7.166503668E-1,2.877369225E-1,9.913464546E0
3.521591886E1,6.999006271E-1,2.931207716E-1,9.959526062E0
3.523603022E1,7.226324677E-1,2.817548811E-1,9.952347755E0
3.525614152E1,7.040880919E-1,2.697907388E-1,9.896714211E0
3.527625282E1,7.082754970E-1,2.955136001E-1,9.851848602E0
3.529636412E1,7.196413875E-1,3.248256743E-1,9.821340561E0
3.531647537E1,7.232306600E-1,2.991028428E-1,9.928419113E0
3.533658667E1,6.903293133E-1,2.614158690E-1,1.000678444E1
3.535669803E1,7.040880919E-1,2.673979402E-1,9.963115692E0
3.537680928E1,7.070791125E-1,2.847459018E-1,9.894919395E0
3.539692063E1,7.076773047E-1,2.955136001E-1,9.853643417E0
3.541703194E1,7.130611539E-1,2.913261652E-1,9.883553505E0
3.543714324E1,7.004988194E-1,2.931207716E-1,9.917651176E0
3.545725454E1,7.238288522E-1,3.002992272E-1,9.912267685E0
3.547736584E1,7.004988194E-1,3.044866920E-1,9.890133858E0
3.549747714E1,6.981059909E-1,2.733799815E-1,9.873384476E0
3.551758844E1,7.118647099E-1,2.721835673E-1,9.913464546E0
3.553769980E1,7.010970116E-1,2.901297510E-1,9.945767403E0
3.555781110E1,7.226324677E-1,2.967100143E-1,9.894919395E0
3.557792240E1,7.112665176E-1,3.020938635E-1,9.882955551E0
3.559803371E1,7.088736892E-1,2.877369225E-1,9.888937950E0
3.561814501E1,7.160521746E-1,2.841476798E-1,9.908679008E0
3.563825631E1,7.100701332E-1,2.805584669E-1,9.925428391E0
3.565836761E1,7.040880919E-1,2.590230405E-1,9.924231529E0
3.567847891E1,6.885347366E-1,3.050848842E-1,9.885947227E0
3.569859022E1,7.166503668E-1,3.176472187E-1,9.870991707E0
3.571870152E1,7.322037220E-1,2.638086975E-1,9.911071777E0
3.573881282E1,7.130611539E-1,2.841476798E-1,9.953543663E0
3.575892412E1,7.411768436E-1,3.206382394E-1,9.923035622E0
3.577903542E1,7.214360237E-1,2.817548811E-1,9.885947227E0
3.579914673E1,6.807580590E-1,2.476571500E-1,9.888937950E0
3.581925803E1,7.034898400E-1,2.889333367E-1,9.908080101E0
3.583936938E1,7.178468108E-1,3.026920557E-1,9.912865639E0
3.585948068E1,7.112665176E-1,3.062812984E-1,9.899705887E0
3.587959199E1,7.328019142E-1,2.949153781E-1,9.879366875E0
3.589970329E1,7.393822074E-1,2.925225794E-1,9.905687332E0
3.591981459E1,7.124629617E-1,2.805584669E-1,9.903294563E0
3.593992584E1,7.094719410E-1,2.973082066E-1,9.896116257E0
3.596003714E1,7.339983582E-1,2.925225794E-1,9.878767967E0
3.598014844E1,7.501499057E-1,2.829512656E-1,9.902696609E0
3.600025975E1,7.160521746E-1,2.973082066E-1,9.949954987E0
3.602037110E1,7.477570772E-1,3.032902777E-1,9.912865639E0
3.604048240E1,7.214360237E-1,3.068794906E-1,9.865009308E0
3.606059371E1,7.262216806E-1,2.853440940E-1,9.847661972E0
3.608070501E1,7.334001660E-1,2.841476798E-1,9.887741089E0
3.610081631E1,7.387840152E-1,2.883351147E-1,9.977472305E0
3.612092761E1,7.387840152E-1,2.997010350E-1,9.971489906E0
3.614103891E1,7.369893789E-1,3.050848842E-1,9.880562782E0
3.616115022E1,7.459624410E-1,2.961117923E-1,9.798608780E0
3.618126152E1,7.322037220E-1,2.901297510E-1,9.856036186E0
3.620137287E1,7.268198729E-1,2.901297510E-1,9.946963310E0
3.622148417E1,7.334001660E-1,2.865405083E-1,9.958928108E0
3.624159548E1,7.328019142E-1,2.985046208E-1,9.917651176E0
3.626170678E1,7.387840152E-1,2.985046208E-1,9.864411354E0
3.628181808E1,7.328019142E-1,2.925225794E-1,9.863214493E0
3.630192938E1,7.334001660E-1,2.961117923E-1,9.914062500E0
3.632204069E1,7.405785918E-1,2.715853751E-1,9.948758125E0
3.634215199E1,7.166503668E-1,2.751746178E-1,9.921838760E0
3.636226324E1,7.058826685E-1,3.086741269E-1,9.844670296E0
3.638237454E1,7.100701332E-1,3.110669553E-1,9.821938515E0
3.640248584E1,7.657032609E-1,2.614158690E-1,9.929615974E0
3.642259720E1,7.573283911E-1,2.650051117E-1,1.003310490E1
3.644270844E1,7.399803996E-1,3.020938635E-1,9.987641335E0
3.646281980E1,7.704889178E-1,2.961117923E-1,9.858428955E0
3.648293110E1,7.316055298E-1,2.907279432E-1,9.802198410E0
3.650304240E1,7.334001660E-1,2.859423161E-1,9.861420631E0
3.652315371E1,7.399803996E-1,2.859423161E-1,9.973882675E0
3.654326501E1,7.292127013E-1,2.859423161E-1,9.983454704E0
3.656337631E1,7.405785918E-1,3.038884699E-1,9.885947227E0
3.658348761E1,7.698906660E-1,3.044866920E-1,9.802796364E0
3.660359891E1,7.525427341E-1,2.859423161E-1,9.861420631E0
3.662371022E1,7.441678643E-1,3.008974493E-1,9.917651176E0
3.664382152E1,7.453642488E-1,2.973082066E-1,9.944570541E0
3.666393282E1,7.489534616E-1,2.823530734E-1,9.923633575E0
3.668404412E1,7.549355626E-1,2.745763958E-1,9.890133858E0
3.670415542E1,7.704889178E-1,3.080759048E-1,9.886545181E0
3.672426673E1,7.818548083E-1,3.056831062E-1,9.902696609E0
3.674437803E1,7.489534616E-1,2.883351147E-1,9.889535904E0
3.676448938E1,7.465606928E-1,2.691925466E-1,9.913464546E0
3.678460068E1,7.585247755E-1,2.769692242E-1,9.942776680E0
3.680471199E1,7.615157962E-1,2.961117923E-1,9.920044899E0
3.682482329E1,7.561319470E-1,2.949153781E-1,9.880562782E0
3.684493459E1,7.657032609E-1,2.967100143E-1,9.888937950E0
3.686504589E1,7.507480979E-1,3.080759048E-1,9.891330719E0
3.688515720E1,7.692924738E-1,2.931207716E-1,9.861420631E0
3.690526850E1,7.674978375E-1,2.931207716E-1,9.877572060E0
3.692537980E1,7.639086246E-1,3.050848842E-1,9.916455269E0
3.694549110E1,7.716853023E-1,2.907279432E-1,9.919445992E0
3.696560240E1,7.668996453E-1,2.895315289E-1,9.909276962E0
3.698571365E1,7.621139884E-1,2.937189937E-1,9.913464546E0
3.700582496E1,7.668996453E-1,2.913261652E-1,9.901499748E0
3.702593626E1,7.657032609E-1,3.032902777E-1,9.870393753E0
3.704604756E1,7.776673436E-1,2.937189937E-1,9.891330719E0
3.706615886E1,7.513462901E-1,2.775674164E-1,9.937392235E0
3.708627016E1,7.489534616E-1,2.991028428E-1,9.878767967E0
3.710638147E1,7.615157962E-1,3.206382394E-1,9.877572060E0
3.712649277E1,7.980063558E-1,2.703889608E-1,9.899705887E0
3.714660407E1,7.776673436E-1,3.032902777E-1,9.961918831E0
3.716671537E1,7.824530005E-1,3.146561682E-1,9.937990189E0
3.718682667E1,7.710871100E-1,2.829512656E-1,9.887143135E0
3.720693798E1,7.429714203E-1,2.667997181E-1,9.857831001E0
3.722704928E1,7.788637877E-1,2.823530734E-1,9.874580383E0
3.724716058E1,7.704889178E-1,3.056831062E-1,9.914062500E0
3.726727194E1,7.698906660E-1,3.248256743E-1,9.929615974E0
3.728738318E1,7.992027402E-1,3.068794906E-1,9.872786522E0
3.730749449E1,7.585247755E-1,2.847459018E-1,9.874580383E0
3.732760579E1,7.477570772E-1,2.763710022E-1,9.905089378E0
3.734771709E1,7.764709592E-1,3.098705411E-1,9.909276962E0
3.736782839E1,7.962117195E-1,2.991028428E-1,9.897911072E0
3.738793970E1,7.651050687E-1,2.781656384E-1,9.905089378E0
3.740805105E1,7.860422134E-1,2.997010350E-1,9.921240807E0
3.742816235E1,7.830511928E-1,3.230310678E-1,9.911071777E0
3.744827360E1,7.812566161E-1,2.919243574E-1,9.870393753E0
3.746838496E1,7.537391186E-1,2.853440940E-1,9.876375198E0
3.748849621E1,7.734799385E-1,2.811566591E-1,9.922437668E0
3.750860751E1,7.830511928E-1,3.026920557E-1,9.939785004E0
3.752871886E1,7.800601721E-1,2.997010350E-1,9.917053223E0
3.754883016E1,7.908278704E-1,2.955136001E-1,9.878170013E0
3.756894141E1,7.758727670E-1,2.991028428E-1,9.878170013E0
3.758905272E1,7.800601721E-1,3.026920557E-1,9.897313118E0
3.760916402E1,7.716853023E-1,2.937189937E-1,9.898509026E0
3.762927532E1,7.674978375E-1,2.811566591E-1,9.908679008E0
3.764938662E1,7.842476368E-1,2.997010350E-1,9.926026344E0
3.766949792E1,7.758727670E-1,3.032902777E-1,9.899705887E0
3.768960923E1,7.776673436E-1,2.997010350E-1,9.885348320E0
3.770972053E1,7.633104324E-1,2.931207716E-1,9.874580383E0
3.772983183E1,7.920243144E-1,3.032902777E-1,9.899106979E0
3.774994313E1,7.896314859E-1,2.871387303E-1,9.936794281E0
3.777005449E1,7.686942816E-1,2.895315289E-1,9.913464546E0
3.779016574E1,7.908278704E-1,3.044866920E-1,9.862616539E0
3.781027709E1,7.962117195E-1,3.008974493E-1,9.849455833E0
3.783038839E1,7.830511928E-1,3.152543902E-1,9.872786522E0
3.785049970E1,7.830511928E-1,3.188436031E-1,9.930811882E0
3.787061100E1,7.818548083E-1,2.602194548E-1,9.966106415E0
3.789072230E1,7.890332937E-1,2.841476798E-1,9.944570541E0
3.791083360E1,8.021938205E-1,3.451646566E-1,9.876974106E0
3.793094490E1,8.231309652E-1,3.038884699E-1,9.791430473E0
3.795105621E1,7.716853023E-1,2.721835673E-1,9.921240807E0
3.797116751E1,7.585247755E-1,2.608176768E-1,9.972088814E0
3.799127881E1,7.944171429E-1,2.763710022E-1,9.963115692E0
3.801139006E1,7.944171429E-1,2.979064286E-1,9.903294563E0
3.803150136E1,8.033902049E-1,3.260220885E-1,9.856635094E0
3.805161272E1,8.249256015E-1,3.092723191E-1,9.862616539E0
3.807172397E1,7.866404653E-1,2.985046208E-1,9.893125534E0
3.809183527E1,7.986045480E-1,3.038884699E-1,9.889535904E0
3.811194657E1,8.081758618E-1,2.985046208E-1,9.926624298E0
3.813205787E1,8.033902049E-1,2.775674164E-1,9.934999466E0
3.815216917E1,8.057830334E-1,2.853440940E-1,9.887741089E0
3.817228048E1,8.099704385E-1,3.397808075E-1,9.856036186E0
3.819239178E1,8.392825127E-1,3.415754437E-1,9.856635094E0
3.821250308E1,8.183453679E-1,3.050848842E-1,9.866804123E0
3.823261438E1,7.806583643E-1,2.769692242E-1,9.908080101E0
3.825272568E1,8.225327730E-1,2.949153781E-1,9.926624298E0
3.827283699E1,8.129615188E-1,3.110669553E-1,9.930213928E0
3.829294829E1,8.428717852E-1,3.086741269E-1,9.936196327E0
3.831305959E1,8.488538265E-1,3.176472187E-1,1.010728264E1
3.833317089E1,8.632107973E-1,3.427718580E-1,1.027956581E1
3.835328214E1,8.518448472E-1,3.230310678E-1,1.020179939E1
3.837339350E1,8.350951076E-1,3.008974493E-1,1.006421185E1
3.839350480E1,8.386843204E-1,3.631108403E-1,1.014317513E1
3.841361605E1,7.956135273E-1,4.283152521E-1,1.025922680E1
3.843372735E1,9.924231768E-1,5.108676553E-1,1.042014408E1
3.845383865E1,1.015154958E0,5.527420044E-1,1.029930687E1
3.847395001E1,1.046261668E0,6.604190469E-1,1.008754253E1
3.849406131E1,1.333998680E0,9.439685345E-1,9.861420631E0
3.851417261E1,1.523031592E0,1.177268744E0,9.814162254E0
3.853428391E1,1.415354609E0,1.201196909E0,9.538389206E0
3.855439522E1,1.089930773E0,1.111466169E0,9.499505997E0
3.857450647E1,9.541380405E-1,1.221535921E0,9.865009308E0
3.859461777E1,9.960124493E-1,1.451845169E0,1.029272652E1
3.861472907E1,1.063609719E0,1.573879123E0,1.045663452E1
3.863484037E1,1.154536963E0,1.510469317E0,1.051346493E1
3.865495167E1,1.305882931E0,1.560120344E0,1.043330479E1
3.867506298E1,1.081555843E0,1.606182218E0,1.039860916E1
3.869517428E1,1.245464206E0,1.556531072E0,1.054337502E1
3.871528558E1,1.691725612E0,1.853839397E0,1.019043350E1
3.873539688E1,1.650449395E0,2.149353027E0,9.880562782E0
3.875550819E1,1.980658889E0,2.509472847E0,8.984451294E0
3.877561949E1,2.120639086E0,2.530410051E0,7.323233604E0
3.879573079E1,1.962114573E0,2.492722988E0,7.655836105E0
3.881584204E1,2.107478619E0,3.635894060E0,9.005986214E0
3.883595334E1,4.522434771E-1,4.378267288E0,9.415159225E0
3.885606470E1,6.071787477E-1,4.048655987E0,9.144171715E0
3.887617600E1,1.905883193E0,3.229114056E0,8.266005516E0
3.889628730E1,2.910270452E0,3.306880951E0,8.548358917E0
3.891639855E1,3.461217880E0,2.578864574E0,8.430512428E0
3.893650985E1,2.973680258E0,1.376471281E0,7.782655716E0
3.895662115E1,1.936989903E0,-2.901297510E-1,8.647661209E0
3.897673246E1,4.542175770E0,-1.063011408E0,4.877170563E0
3.899684376E1,-7.010970116E-1,2.434697151E0,8.210372925E0
3.901695506E1,-7.328019142E-1,2.267199516E0,9.096315384E0
3.903706636E1,-2.961117923E-1,5.461617708E-1,9.952347755E0
3.905717766E1,-4.313062727E-1,1.968096644E-1,1.040698433E1
3.907728891E1,-1.020538807E0,-4.468596280E-1,1.066959572E1
3.909740022E1,-1.483550072E0,-9.230313301E-1,1.032203865E1
3.911751152E1,-8.572286963E-1,-9.493523836E-1,1.223151112E1
3.913762287E1,-7.106683254E-1,3.475574851E-1,1.239900875E1
3.915773412E1,8.614161611E-2,1.223330617E0,1.305524063E1
3.917784548E1,2.327020019E-1,9.176474810E-1,1.240678501E1
3.919795673E1,-1.519442350E-1,4.432703853E-1,1.095194912E1
3.921806803E1,6.957131624E-1,1.028913736E0,9.787242889E0
3.923817933E1,1.611566067E0,3.391826153E-1,9.845867157E0
3.925829063E1,1.587637782E0,1.854437590E-2,1.016112137E1
3.927840194E1,7.118647099E-1,1.034895778E-1,1.028315544E1
3.929851324E1,-2.889333367E-1,6.759724021E-2,9.911669731E0
3.931862454E1,-1.867598057E0,6.933203340E-1,9.144769669E0
3.933873579E1,-2.194218397E0,1.766501307E0,8.706883430E0
3.935884709E1,-8.189435601E-1,1.981257200E0,8.905488014E0
3.937895844E1,3.649054468E-1,1.859223247E0,9.899106979E0
3.939906975E1,2.596212626E-1,2.140379906E0,1.029392338E1
3.941918105E1,8.632107973E-1,1.907677889E0,9.686744690E0
3.943929230E1,8.733802438E-1,1.576271892E0,8.834898949E0
3.945940360E1,4.336991012E-1,1.776072621E0,7.889734268E0
3.947951490E1,3.014956415E-1,1.871187329E0,7.657032490E0
3.949962621E1,4.396811724E-1,1.943570137E0,8.602795601E0
3.951973751E1,2.051845491E-1,1.998006940E0,9.936196327E0
3.953984876E1,-5.742774159E-2,1.825125456E0,1.039980507E1
3.955996011E1,-1.316052526E-1,1.494317770E0,1.040339470E1
3.958007136E1,-4.462614357E-1,1.340578914E0,1.031725311E1
3.960018272E1,-5.617151260E-1,1.281356573E0,1.082692432E1
3.962029402E1,-2.554338276E-1,1.270588875E0,1.096929741E1
3.964040532E1,-2.991028316E-2,1.332203984E0,1.044586754E1
3.966051657E1,8.554340899E-2,1.495514154E0,9.833903313E0
3.968062787E1,3.607180119E-1,1.563709617E0,9.407382011E0
3.970073917E1,6.436693072E-1,1.613360643E0,9.315258980E0
3.972085048E1,8.470591903E-1,1.750349760E0,9.631111145E0
3.974096178E1,1.061815023E0,1.827518344E0,9.861420631E0
3.976107303E1,1.313061476E0,1.859223247E0,9.763913155E0
3.978118433E1,1.514656782E0,1.959123492E0,9.519845009E0
3.980129568E1,1.766501307E0,2.006979942E0,9.543174744E0
3.982140699E1,1.971087694E0,2.005783558E0,9.759127617E0
3.984151824E1,1.962712765E0,1.963310957E0,9.857831001E0
3.986162954E1,1.862214208E0,1.895115495E0,9.759725571E0
3.988174084E1,1.694118381E0,1.864008784E0,9.618548393E0
3.990185214E1,1.446461320E0,1.878963947E0,9.497113228E0
3.992196339E1,1.336391449E0,1.883151412E0,9.626325607E0
3.994207470E1,1.322632670E0,1.798206210E0,9.862018585E0
3.996218600E1,1.335195065E0,1.747956991E0,1.029033375E1
3.998229735E1,1.319043517E0,1.754537225E0,1.056909752E1
4.000240860E1,1.270588875E0,1.770090580E0,1.034656525E1
4.002251990E1,1.241874933E0,1.859223247E0,1.010967541E1
4.004263121E1,1.274776220E0,1.935793519E0,1.026580715E1
4.006274251E1,1.318445325E0,1.961516380E0,1.019521904E1
4.008285381E1,1.291526079E0,2.048854351E0,9.806385040E0
4.010296506E1,1.214357495E0,2.213361025E0,9.569496155E0
4.012307636E1,1.338784218E0,2.356930256E0,9.681958199E0
4.014318772E1,1.393819213E0,2.415554523E0,9.410373688E0
4.016329902E1,1.344766378E0,2.561516523E0,9.348757744E0
4.018341027E1,1.426122308E0,2.757129908E0,9.540184021E0
4.020352157E1,1.473978758E0,2.816352367E0,9.800403595E0
4.022363287E1,1.460818172E0,2.873780012E0,9.954142570E0
4.024374417E1,1.691725612E0,3.005385160E0,1.015334511E1
4.026385542E1,2.057229280E0,3.307479143E0,1.000080204E1
4.028396678E1,2.084148407E0,3.608974695E0,9.107681274E0
4.030407808E1,1.873580098E0,3.885943890E0,8.703293800E0
4.032418933E1,1.993819475E0,4.147958279E0,9.073583603E0
4.034430063E1,2.202593327E0,3.920639992E0,9.084949493E0
4.036441194E1,2.676372051E0,3.990031719E0,8.864809990E0
4.038452324E1,3.525824070E0,4.311268330E0,8.410173416E0
4.040463449E1,3.204587698E0,4.533800602E0,8.014161110E0
4.042474579E1,1.792224169E0,4.663012981E0,7.926225185E0
4.044485714E1,8.237292171E-1,4.454239368E0,8.163114548E0
4.046496839E1,9.409775138E-1,4.117449760E0,7.886743546E0
4.048507970E1,1.463211060E0,4.018147469E0,7.299903870E0
4.050519100E1,1.703689694E0,4.323232174E0,6.671787739E0
4.052530225E1,1.419542074E0,4.844269276E0,6.120242119E0
4.054541355E1,1.274776220E0,5.130211830E0,6.689733982E0
4.056552490E1,2.258226395E0,5.023731232E0,7.409973621E0
4.058563621E1,2.448455811E0,4.173680782E0,8.039285660E0
4.060574746E1,2.090130568E0,4.092324734E0,9.921838760E0
4.062585876E1,8.769695163E-1,4.721637249E0,1.226142120E1
4.064597006E1,-3.050848842E-1,5.072185993E0,1.199282742E1
4.066608131E1,4.043870270E-1,4.643870354E0,1.129352474E1
4.068619266E1,9.661021233E-1,4.258028030E0,9.473184586E0
4.070630397E1,1.316052489E-2,4.572684288E0,7.427321434E0
4.072641527E1,-7.830511928E-1,4.706682205E0,6.397211552E0
4.074652652E1,-5.066801906E-1,4.545166492E0,6.664609432E0
4.076663782E1,-1.136590764E-1,4.345963955E0,7.247261524E0
4.078674912E1,-3.888336718E-1,4.552943230E0,8.736793518E0
4.080686037E1,-2.673979402E-1,5.398806095E0,9.434899330E0
4.082697173E1,2.733799815E-1,5.870790482E0,9.625727654E0
4.084708298E1,1.950150430E-1,5.629115105E0,9.011968613E0
4.086719428E1,-3.373879790E-1,5.332405090E0,8.188239098E0
4.088730558E1,-5.198407173E-1,5.259424210E0,7.616354465E0
4.090741683E1,-2.811566554E-2,5.173282623E0,7.759325504E0
4.092752813E1,7.447660565E-1,5.139782906E0,8.759525299E0
4.094763949E1,-5.210371017E-1,5.411966801E0,8.495118141E0
4.096775074E1,-1.567298889E0,5.510670662E0,7.268198967E0
4.098786204E1,-1.800599098E0,5.557330608E0,6.728617191E0
4.100797334E1,-1.518245935E0,5.317450047E0,7.003193855E0
4.102808459E1,-9.212366939E-1,5.084748268E0,7.533204079E0
4.104819589E1,-5.599204898E-1,5.170889854E0,8.115258217E0
4.106830725E1,-6.867401004E-1,5.487340450E0,8.791828156E0
4.108841850E1,-4.612165689E-1,5.432305813E0,9.318847656E0
4.110852980E1,-2.201396823E-1,5.261219025E0,9.145966530E0
4.112864110E1,-8.973085135E-2,5.452644825E0,8.651249886E0
4.114875235E1,-2.620140910E-1,5.726024628E0,8.531010628E0
4.116886371E1,-3.852444589E-1,5.761917114E0,8.639286041E0
4.118897496E1,-4.600201547E-1,5.539982796E0,8.475975990E0
4.120908626E1,-5.910272002E-1,5.372485161E0,8.002795219E0
4.122919756E1,-7.100701332E-1,5.400002480E0,7.546962738E0
4.124930881E1,-7.178468108E-1,5.517848969E0,7.372884750E0
4.126942016E1,-6.873382926E-1,5.607579708E0,7.497909546E0
4.128953141E1,-5.294120312E-1,5.644668579E0,7.736593723E0
4.130964272E1,-4.336991012E-1,5.576473236E0,7.945367813E0
4.132975402E1,-4.761717021E-1,5.567500114E0,8.079365730E0
4.134986527E1,-5.024927258E-1,5.544169903E0,8.219944000E0
4.136997657E1,-3.625126183E-1,5.498108387E0,8.571090698E0
4.139008792E1,-2.015953064E-1,5.518447399E0,8.693722725E0
4.141019917E1,-9.870393574E-2,5.587240696E0,8.474181175E0
4.143031048E1,-9.272187948E-2,5.614758492E0,8.253443718E0
4.145042178E1,-1.046859920E-1,5.595615864E0,8.164909363E0
4.147053303E1,-1.794617027E-1,5.534000397E0,8.166703224E0
4.149064438E1,-4.803591371E-1,5.531009674E0,8.051848412E0
4.151075563E1,-6.580262184E-1,5.542973518E0,7.935796261E0
4.153086694E1,-6.275177598E-1,5.501697540E0,8.065009117E0
4.155097824E1,-7.501499057E-1,5.429314613E0,8.103293419E0
4.157108954E1,-6.580262184E-1,5.471786976E0,8.100302696E0
4.159120079E1,-5.048855543E-1,5.519643784E0,8.137392044E0
4.161131209E1,-4.307080805E-1,5.557928562E0,8.391031265E0
4.163142339E1,-3.122633696E-1,5.585446358E0,8.472386360E0
4.165153464E1,-3.337987661E-1,5.606981754E0,8.190033913E0
4.167164540E1,-3.571287692E-1,5.596812248E0,8.058428764E0
4.169175670E1,-2.249253243E-1,5.542375565E0,8.156534195E0
4.171186795E1,-2.350948304E-1,5.623731613E0,8.157132149E0
4.173197926E1,-2.847459018E-1,5.708676815E0,7.958528042E0
4.175209051E1,-1.854437590E-1,5.670989513E0,7.971688747E0
4.177220181E1,-2.781656384E-1,5.627320766E0,8.050053596E0
4.179231311E1,-4.043870270E-1,5.571687698E0,8.051250458E0
4.181242441E1,-4.486542344E-1,5.570491314E0,7.985447407E0
4.183253571E1,-6.221339107E-1,5.632106304E0,7.755138397E0
4.185264696E1,-6.329016089E-1,5.571687698E0,7.706683636E0
4.187275832E1,-4.444667995E-1,5.465207100E0,8.036294937E0
4.189286957E1,-3.511467278E-1,5.527420521E0,8.395217896E0
4.191298087E1,-3.559323549E-1,5.613562107E0,8.522636414E0
