"Time (s)","Acceleration x (m/s^2)","Acceleration y (m/s^2)","Acceleration z (m/s^2)"
1.548959400E-2,-6.013163090E0,6.372684956E0,3.913461447E0
3.560094800E-2,-5.699703693E0,6.430112839E0,4.707280159E0
5.571225000E-2,-5.761917114E0,6.503093719E0,5.070989609E0
7.582360400E-2,-5.511867046E0,6.351149559E0,5.307878971E0
9.593495800E-2,-5.099104881E0,6.417550564E0,5.533402443E0
1.160463120E-1,-4.758726120E0,6.565905571E0,5.432903767E0
1.361576140E-1,-4.429712772E0,6.699903488E0,5.403591633E0
1.562689690E-1,-4.320241451E0,6.755536556E0,5.626722336E0
1.763803230E-1,-4.362115860E0,6.751947403E0,5.675177097E0
1.964916770E-1,-4.400999069E0,6.699305058E0,5.371886730E0
2.166029790E-1,-4.453640938E0,6.684350014E0,5.043471813E0
2.367143330E-1,-4.427918434E0,6.556932449E0,5.544169903E0
2.568256870E-1,-4.430311203E0,6.568298340E0,5.860022545E0
2.769369890E-1,-4.490131855E0,6.629314899E0,5.834897995E0
2.970483440E-1,-4.431507587E0,6.552146435E0,5.640480995E0
3.171596980E-1,-4.336392879E0,6.416353703E0,5.608178139E0
3.372710520E-1,-4.271188259E0,6.403193474E0,5.843272686E0
3.573823540E-1,-4.049253941E0,6.476174355E0,5.863611698E0
3.774937080E-1,-3.900300980E0,6.471987247E0,6.045466423E0
3.976050620E-1,-3.829712629E0,6.358926296E0,6.219544411E0
4.177164170E-1,-3.900300980E0,6.208776474E0,6.053841114E0
4.378277190E-1,-3.851248026E0,6.005386829E0,6.218348026E0
4.579390730E-1,-3.813561201E0,5.816353798E0,6.498906136E0
4.780504270E-1,-3.784249067E0,5.814558983E0,6.910471916E0
4.981617810E-1,-3.759124279E0,5.794219971E0,7.431509018E0
5.182730830E-1,-3.757329702E0,5.684150219E0,7.593622684E0
5.383844370E-1,-3.885943890E0,5.625525951E0,7.156932354E0
5.584957920E-1,-3.845266104E0,5.404190063E0,7.359126091E0
5.786071460E-1,-3.817150354E0,5.294120312E0,7.439285755E0
5.987184480E-1,-3.799204111E0,5.150550842E0,7.404589653E0
6.188298020E-1,-3.826721668E0,5.070391178E0,7.645666599E0
6.389411560E-1,-3.349951744E0,4.728815556E0,7.552346706E0
6.590525100E-1,-3.415754318E0,4.637290478E0,7.403991699E0
6.791638640E-1,-6.838088989E0,4.864010334E0,7.174280643E0
6.992751670E-1,-5.255236626E0,5.839085579E0,6.687939167E0
7.193865210E-1,-1.634896040E0,3.604787350E0,7.328019142E0
7.394978750E-1,-1.527817249E0,4.066003799E0,8.178668022E0
7.596092290E-1,-2.578266382E0,4.919643402E0,8.099704742E0
7.797205830E-1,-1.991426587E0,4.368695736E0,8.292326927E0
7.998318850E-1,-1.674377680E0,4.182055950E0,8.286344528E0
8.199432390E-1,-1.969292998E0,3.884747505E0,8.743373871E0
8.400545940E-1,-2.270190477E0,3.391227961E0,9.531808853E0
8.601659480E-1,-2.163709879E0,3.226721287E0,9.901499748E0
8.802772500E-1,-1.722832322E0,3.114856958E0,9.993623734E0
9.003886040E-1,-1.525424480E0,3.087339401E0,1.000857925E1
9.204999580E-1,-1.607976794E0,2.824727058E0,1.043210888E1
9.406113120E-1,-1.722832322E0,2.568096876E0,1.050688457E1
9.607226670E-1,-1.784447432E0,2.474178553E0,1.038126087E1
9.808340210E-1,-1.624128342E0,2.690130949E0,9.853643417E0
1.000945323E0,-1.601994753E0,2.934198856E0,9.026325226E0
1.021056677E0,-1.909472466E0,3.038884640E0,8.441280365E0
1.041168031E0,-2.039881229E0,2.882753134E0,8.331808090E0
1.061279385E0,-1.904686809E0,1.898704767E0,8.629117012E0
1.081390739E0,-2.496910334E0,2.230110645E0,8.886942863E0
1.101502094E0,-2.033899307E0,2.790031195E0,9.905089378E0
1.121613396E0,-5.479564071E-1,2.420938253E0,1.135274696E1
1.141724750E0,1.328016520E-1,2.145165443E0,1.121097183E1
1.161836104E0,4.366901144E-2,2.230708838E0,1.103509998E1
1.181947458E0,-2.931207791E-2,2.777468920E0,1.115474129E1
1.202058812E0,8.560323119E-1,2.909074068E0,1.069412231E1
1.222170167E0,1.456032634E0,2.277369022E0,1.091725349E1
1.242281469E0,1.426122308E0,1.491326690E0,1.033819008E1
1.262392823E0,2.081755698E-1,1.264008522E0,8.983254433E0
1.282504177E0,-1.280758262E0,1.244267821E0,7.766504288E0
1.302615531E0,-1.994417667E0,1.036092162E0,7.466803074E0
1.322726885E0,-2.687737942E0,1.329811215E0,7.601399422E0
1.342838239E0,-2.998206854E0,1.639681697E0,8.609973907E0
1.362949594E0,-3.083750248E0,2.120639086E0,9.055637360E0
1.383060896E0,-2.294118643E0,1.686939955E0,9.684351921E0
1.403172250E0,-2.309073925E0,9.726824164E-1,9.903294563E0
1.423283604E0,-2.136192322E0,7.668996453E-1,9.975079536E0
1.443394958E0,-2.030309916E0,7.698906660E-1,1.029392338E1
1.463506312E0,-2.883949518E0,1.229910851E0,1.089033413E1
1.483617667E0,-4.233501434E0,1.833500385E0,1.160519028E1
1.503729021E0,-4.373481750E0,1.623530149E0,1.115593719E1
1.523840375E0,-4.203591347E0,1.185045362E0,1.028853893E1
1.543951729E0,-4.023531437E0,1.017547846E0,8.465806961E0
1.564063031E0,-4.037290096E0,2.108675003E0,5.532804012E0
1.584174385E0,-4.249054909E0,3.165106058E0,6.634100914E0
1.604285739E0,-3.059223652E0,2.769093990E0,9.423533440E0
1.624397094E0,-2.252244234E0,2.626721144E0,1.096032429E1
1.644508448E0,-2.017149448E0,3.360719442E0,1.166860008E1
1.664619802E0,-1.293320656E0,3.397209883E0,1.109372425E1
1.684731156E0,-8.919246197E-1,3.436093330E0,9.519247055E0
1.704842510E0,-6.346961856E-1,3.251247883E0,8.048856735E0
1.724953864E0,-1.448255897E0,3.199203968E0,7.503293514E0
1.745065219E0,-5.688936114E-1,2.993421078E0,7.122834682E0
1.765176521E0,-6.370890141E-1,3.583850145E0,6.466004848E0
1.785287875E0,-7.657032609E-1,4.429712772E0,6.584449768E0
1.805399229E0,-9.457631707E-1,4.514657974E0,7.872984886E0
1.825510583E0,-1.314856052E0,3.777668715E0,8.915657043E0
1.845621937E0,-1.742573142E0,2.996412039E0,8.864809990E0
1.865733292E0,-1.972882271E0,2.729612350E0,7.889734268E0
1.885844646E0,-2.124826431E0,2.625524759E0,9.298508644E0
1.905956000E0,-2.001596212E0,2.937788010E0,1.063609695E1
1.926067354E0,-2.292324066E0,3.357728481E0,1.163330555E1
1.946178708E0,-1.932802439E0,3.196810961E0,1.170867920E1
1.966290062E0,-1.466800332E0,2.906681299E0,1.064447117E1
1.986401417E0,-1.310668588E0,2.672184706E0,9.337391853E0
2.006512719E0,-8.745766878E-1,2.060818434E0,7.418348312E0
2.026624125E0,-1.911267042E0,3.312862873E0,7.258029461E0
2.046735427E0,-1.346560955E0,3.137588739E0,7.137789726E0
2.066846781E0,-5.383851007E-3,3.343371391E0,8.424530029E0
2.086958135E0,4.833501875E-1,3.059223652E0,1.058943653E1
2.107069489E0,2.544168711E0,2.236690998E0,1.229731369E1
2.127180844E0,-7.286145091E-1,2.041675806E0,1.268973637E1
2.147292198E0,3.864408433E-1,2.298904419E0,1.041835022E1
2.167403552E0,-2.123630047E-1,2.254637241E0,8.856434822E0
2.187514906E0,-7.908278704E-1,2.492124796E0,7.172485828E0
2.207626260E0,-1.057029366E0,2.511865616E0,6.433701992E0
2.227737614E0,-1.087537885E0,2.289333105E0,6.939784050E0
2.247848969E0,-1.004985452E0,2.102692842E0,8.520243645E0
2.267960323E0,-1.205982566E0,1.925624013E0,1.028435135E1
2.288071677E0,-1.389631748E0,1.563709617E0,1.166381359E1
2.308183031E0,-1.728814363E0,1.122233868E0,1.216451168E1
2.328294385E0,-2.356930256E0,8.273184299E-1,1.202513027E1
2.348405739E0,-2.709273338E0,6.299105883E-1,1.139641571E1
2.368517094E0,-2.882753134E0,6.400800347E-1,1.035194874E1
2.388628448E0,-2.785245657E0,8.632107973E-1,9.454042435E0
2.408739802E0,-2.323430777E0,1.133599758E0,9.153742790E0
2.428851156E0,-1.706082582E0,1.329213023E0,9.254839897E0
2.448962510E0,-1.362114310E0,1.435095429E0,9.458230019E0
2.469073864E0,-1.098305583E0,1.518245935E0,9.658030510E0
2.489185219E0,-1.088734269E0,1.460818172E0,9.742975235E0
2.509296573E0,-1.185045362E0,1.373480201E0,9.763913155E0
2.529407927E0,-1.361516118E0,1.316650629E0,9.790832520E0
2.549519281E0,-1.514656782E0,1.295713425E0,9.820742607E0
2.569630635E0,-1.570289850E0,1.307079315E0,9.803394318E0
2.589741989E0,-1.615753531E0,1.289133191E0,9.835697174E0
2.609853344E0,-1.579861164E0,1.286740422E0,9.926026344E0
2.629964698E0,-1.600200176E0,1.313061476E0,9.848857880E0
2.650076052E0,-1.600200176E0,1.302293777E0,9.613762856E0
2.670187406E0,-1.593021631E0,1.320838094E0,9.403793335E0
2.690298812E0,-1.584048629E0,1.348953724E0,9.403793335E0
2.710410114E0,-1.629512191E0,1.173081279E0,9.865608215E0
2.730521521E0,-1.853241086E0,1.042672515E0,1.051705360E1
2.750632875E0,-1.963310957E0,1.191625714E0,1.062233829E1
2.770744229E0,-1.905285001E0,1.352542996E0,1.026042366E1
2.790855583E0,-1.686341763E0,1.521237016E0,9.736394882E0
2.810966937E0,-1.484148264E0,1.683350682E0,9.192625999E0
2.831078292E0,-1.348355532E0,1.814357758E0,8.905488014E0
2.851189646E0,-1.206580877E0,1.900499344E0,8.857631683E0
2.871301000E0,-1.250848055E0,1.871187329E0,9.067601204E0
2.891412354E0,-1.313659668E0,1.826321840E0,9.395418167E0
2.911523708E0,-1.431506157E0,1.740778446E0,9.670592308E0
2.931635062E0,-1.584048629E0,1.591825247E0,9.910472870E0
2.951746417E0,-1.635494232E0,1.558325768E0,9.932606697E0
2.971857771E0,-1.645065546E0,1.589432478E0,9.803394318E0
2.991969177E0,-1.582852125E0,1.597209096E0,9.726823807E0
3.012080531E0,-1.537986755E0,1.667199135E0,9.626325607E0
3.032191885E0,-1.391426325E0,1.715055585E0,9.550951958E0
3.052303239E0,-1.295115232E0,1.718644857E0,9.516854286E0
3.072414594E0,-1.389631748E0,1.738385677E0,9.594620705E0
3.092525948E0,-1.490728498E0,1.624726534E0,9.717252731E0
3.112637302E0,-1.597209096E0,1.604387641E0,9.784252167E0
3.132748656E0,-1.597807288E0,1.590030670E0,9.790233612E0
3.152860010E0,-1.582253933E0,1.618146300E0,9.768099785E0
3.172971417E0,-1.547558069E0,1.662413478E0,9.713663101E0
3.193082771E0,-1.495514154E0,1.663011789E0,9.654440880E0
3.213194125E0,-1.409372568E0,1.706680775E0,9.658628464E0
3.233305479E0,-1.374078393E0,1.652842283E0,9.686145782E0
3.253416833E0,-1.502094388E0,1.570289850E0,9.806983948E0
3.273528187E0,-1.579262972E0,1.618146300E0,9.937392235E0
3.293639542E0,-1.566700578E0,1.671984792E0,9.850054741E0
3.313750896E0,-1.507478237E0,1.761715651E0,9.620942116E0
3.333862302E0,-1.383649707E0,1.817348838E0,9.437891006E0
3.353973656E0,-1.385444283E0,1.843669891E0,9.396016121E0
3.374085010E0,-1.426122308E0,1.816152334E0,9.364311218E0
3.394196364E0,-1.335195065E0,1.786242127E0,9.539586067E0
3.414307719E0,-1.328614831E0,1.840080619E0,9.628718376E0
3.434419073E0,-1.280758262E0,1.823929071E0,9.623932838E0
3.454530479E0,-1.288534999E0,1.803590059E0,9.583852768E0
3.474641833E0,-1.362114310E0,1.771885157E0,9.607182503E0
3.494753187E0,-1.398604870E0,1.728814363E0,9.700503349E0
3.514864542E0,-1.456032634E0,1.700100541E0,9.756733894E0
3.534975896E0,-1.508674622E0,1.666600943E0,9.803992271E0
3.555087250E0,-1.572084427E0,1.659422517E0,9.813564301E0
3.575198656E0,-1.651645780E0,1.679761529E0,9.818349838E0
3.595310010E0,-1.656431437E0,1.687538147E0,9.763913155E0
3.615421364E0,-1.557129383E0,1.687538147E0,9.690333366E0
3.635532719E0,-1.420140266E0,1.748555183E0,9.589237213E0
3.655644073E0,-1.344168067E0,1.777269006E0,9.541379929E0
3.675755479E0,-1.309472203E0,1.788036704E0,9.528818130E0
3.695866833E0,-1.265205026E0,1.771286964E0,9.629914284E0
3.715978187E0,-1.288534999E0,1.759322882E0,9.721440315E0
3.736089542E0,-1.384247899E0,1.749153376E0,9.725627899E0
3.756200896E0,-1.457229018E0,1.724028707E0,9.643074989E0
3.776312302E0,-1.469791293E0,1.745564103E0,9.573084831E0
3.796423656E0,-1.418345571E0,1.732403636E0,9.535996437E0
3.816535010E0,-1.406381488E0,1.740778446E0,9.619147301E0
3.836646364E0,-1.334596872E0,1.752144337E0,9.780064583E0
3.856757771E0,-1.305882931E0,1.771286964E0,9.780064583E0
3.876869125E0,-1.372283816E0,1.745564103E0,9.699306488E0
3.896980479E0,-1.395015597E0,1.718644857E0,9.634700775E0
3.917091833E0,-1.399203062E0,1.701296926E0,9.637093544E0
3.937203239E0,-1.436291814E0,1.682752490E0,9.668798447E0
3.957314594E0,-1.461416483E0,1.709671736E0,9.741181374E0
3.977425948E0,-1.412961721E0,1.695913076E0,9.769296646E0
3.997537302E0,-1.395015597E0,1.688734531E0,9.755537987E0
4.017648708E0,-1.364507079E0,1.695913076E0,9.686145782E0
4.037760062E0,-1.328016520E0,1.707877159E0,9.610772133E0
4.057871417E0,-1.332203984E0,1.727617979E0,9.554540634E0
4.077982771E0,-1.372882009E0,1.735394597E0,9.559925079E0
4.098094177E0,-1.399203062E0,1.703689694E0,9.637093544E0
4.118205531E0,-1.366301775E0,1.671386600E0,9.736394882E0
4.138316885E0,-1.327418327E0,1.651047587E0,9.764511108E0
4.158428292E0,-1.395613790E0,1.674377680E0,9.783653259E0
4.178539646E0,-1.451246977E0,1.670788407E0,9.768099785E0
4.198651000E0,-1.431506157E0,1.676172256E0,9.683753014E0
4.218762406E0,-1.392024517E0,1.656431437E0,9.628718376E0
4.238873760E0,-1.342971683E0,1.645065546E0,9.659226418E0
4.258985114E0,-1.340578914E0,1.659422517E0,9.719047546E0
4.279096469E0,-1.342971683E0,1.666600943E0,9.791430473E0
4.299207875E0,-1.339382529E0,1.664208174E0,9.738189697E0
4.319319229E0,-1.369890928E0,1.675574064E0,9.636494637E0
4.339430583E0,-1.395015597E0,1.661217093E0,9.619147301E0
4.359541989E0,-1.440479279E0,1.657627940E0,9.686744690E0
4.379653344E0,-1.390828133E0,1.640279889E0,9.747760773E0
4.399764698E0,-1.374078393E0,1.657627940E0,9.744770050E0
4.419876104E0,-1.362114310E0,1.661217093E0,9.701699257E0
4.439987458E0,-1.353141189E0,1.673181176E0,9.666405678E0
4.460098812E0,-1.374078393E0,1.681556106E0,9.634101868E0
4.480210219E0,-1.385444283E0,1.664806366E0,9.639486313E0
4.500321573E0,-1.351346612E0,1.665404558E0,9.664012909E0
4.520432927E0,-1.363908887E0,1.668395638E0,9.695118904E0
4.540544333E0,-1.344766378E0,1.650449395E0,9.773484230E0
4.560655687E0,-1.336391449E0,1.654636860E0,9.800403595E0
4.580767094E0,-1.394417405E0,1.662413478E0,9.751948357E0
4.600878448E0,-1.392622828E0,1.674377680E0,9.657432556E0
4.620989802E0,-1.365703583E0,1.686939955E0,9.564710617E0
4.641101208E0,-1.347757339E0,1.697109461E0,9.606584549E0
4.661212562E0,-1.321436286E0,1.692323804E0,9.746564865E0
4.681323917E0,-1.344168067E0,1.691725612E0,9.760921478E0
4.701435323E0,-1.352542996E0,1.674975872E0,9.714859962E0
4.721546677E0,-1.396211982E0,1.667797327E0,9.650253296E0
4.741658083E0,-1.442872047E0,1.666002750E0,9.675378799E0
4.761769437E0,-1.326221943E0,1.671386600E0,9.753145218E0
4.781880792E0,-1.326221943E0,1.676172256E0,9.718449593E0
4.801992198E0,-1.345962763E0,1.707877159E0,9.664012909E0
4.822103552E0,-1.313659668E0,1.719841242E0,9.632905960E0
4.842214958E0,-1.274776220E0,1.712064624E0,9.635896683E0
4.862326312E0,-1.278963685E0,1.730608940E0,9.687342644E0
4.882437719E0,-1.295115232E0,1.704287887E0,9.734601021E0
4.902549073E0,-1.347757339E0,1.695314884E0,9.775279045E0
4.922660427E0,-1.381256819E0,1.700100541E0,9.735796928E0
4.942771833E0,-1.377667665E0,1.688734531E0,9.683753014E0
4.962883187E0,-1.379462242E0,1.676172256E0,9.718449593E0
4.982994594E0,-1.443470240E0,1.521835208E0,1.001515961E1
5.003105948E0,-1.444666624E0,1.529013634E0,1.041236782E1
5.023217354E0,-1.471585870E0,1.736590981E0,1.029272652E1
5.043328708E0,-1.442273855E0,1.927418590E0,9.748957634E0
5.063440114E0,-1.294517040E0,2.029113531E0,9.323633194E0
5.083551469E0,-1.205384374E0,2.035693884E0,9.186046600E0
5.103662875E0,-1.123430252E0,2.052443504E0,9.282955170E0
5.123774229E0,-1.086939692E0,2.075175524E0,9.489336014E0
5.143885635E0,-1.169492126E0,2.056631088E0,9.633503914E0
5.163996989E0,-1.217348576E0,2.053041935E0,9.655039787E0
5.184108396E0,-1.250249863E0,2.053041935E0,9.694520950E0
5.204219750E0,-1.217348576E0,2.079961061E0,9.795618057E0
5.224331156E0,-1.194616675E0,2.130210400E0,9.836296082E0
5.244442510E0,-1.182652593E0,2.182254314E0,9.802796364E0
5.264553917E0,-1.151545882E0,2.176870346E0,9.855438232E0
5.284665271E0,-1.106082320E0,2.197209358E0,9.940383911E0
5.304776677E0,-1.120439172E0,2.251646042E0,1.003789139E1
5.324888031E0,-1.139581800E0,2.285743713E0,1.011924744E1
5.344999437E0,-1.036092162E0,2.356332064E0,1.008754253E1
5.365110792E0,-8.757730722E-1,2.440679073E0,9.903892517E0
5.385222198E0,-6.640082598E-1,2.551945448E0,9.835099220E0
5.405333552E0,-5.126622319E-1,2.700300455E0,9.824331284E0
5.425444958E0,-5.042873621E-1,2.967100143E0,9.687940598E0
5.445556312E0,-4.671986103E-1,3.127419233E0,9.462417603E0
5.465667719E0,-2.931207716E-1,3.235096216E0,9.383454323E0
5.485779125E0,-2.991028316E-2,3.373281717E0,9.762716293E0
5.505890479E0,-1.004985496E-1,3.460619688E0,9.829116821E0
5.526001885E0,-8.853443712E-2,3.516851187E0,9.606584549E0
5.546113239E0,-1.220339537E-1,3.786043644E0,9.413962364E0
5.566224646E0,1.770688742E-1,3.981656790E0,9.381659508E0
5.586336000E0,3.565305769E-1,4.148556232E0,9.323035240E0
5.606447406E0,4.426721931E-1,4.334000111E0,9.061020851E0
5.626558812E0,3.882354796E-1,4.575077057E0,8.528019905E0
5.646670167E0,5.192425251E-1,4.860421181E0,8.426922798E0
5.666781573E0,7.399803996E-1,5.127819061E0,8.557332039E0
5.686892927E0,7.836494446E-1,5.114060402E0,8.297112465E0
5.707004333E0,8.261220455E-1,5.360520840E0,7.897511005E0
5.727115739E0,1.092323542E0,5.640480995E0,7.995616913E0
5.747227094E0,1.518245935E0,5.852844238E0,8.529216766E0
5.767338500E0,1.323829174E0,5.829514027E0,8.285148621E0
5.787449854E0,8.847461939E-1,5.867201328E0,7.383054256E0
5.807561260E0,5.982056856E-1,6.143572330E0,6.751947403E0
5.827672667E0,1.001396298E0,6.380461693E0,6.290132523E0
5.847784021E0,1.019342422E0,6.514459610E0,5.899504185E0
5.867895427E0,9.284151793E-1,6.822535515E0,5.593821049E0
5.888006781E0,1.123430252E0,7.004988194E0,5.675177097E0
5.908118187E0,1.230509043E0,6.900900364E0,5.767300606E0
5.928229594E0,1.603191137E0,7.008577347E0,6.425326824E0
5.948340948E0,2.000399828E0,7.222734928E0,7.127022266E0
5.968452354E0,1.788036704E0,7.324429989E0,7.278966427E0
5.988563760E0,1.253240824E0,7.139584541E0,7.213163853E0
6.008675114E0,7.310073376E-1,7.065407276E0,6.810571671E0
6.028786521E0,4.426721931E-1,7.058228493E0,6.574280262E0
6.048897927E0,1.322034448E-1,7.067800045E0,6.443273067E0
6.069009281E0,-1.304088384E-1,7.074379921E0,6.259026051E0
6.089120687E0,-4.307080805E-1,7.117451191E0,5.996413708E0
6.109232094E0,-7.316055298E-1,7.121638298E0,5.613562107E0
6.129343448E0,-1.033699393E0,7.049255371E0,5.374877930E0
6.149454854E0,-1.246660590E0,7.020541668E0,5.268397331E0
6.169566260E0,-1.030110121E0,6.917650223E0,5.682953835E0
6.189677614E0,-3.511467278E-1,6.902695179E0,6.714858532E0
6.209789021E0,-3.930211067E-1,6.969096184E0,7.220342159E0
6.229900427E0,-5.108676553E-1,6.913462639E0,7.655237675E0
6.250011781E0,-6.933203340E-1,6.738786697E0,7.806583881E0
6.270123187E0,-1.137188911E0,6.608976364E0,7.532007694E0
6.290234594E0,-1.493719578E0,6.498906136E0,7.049853802E0
6.310346000E0,-1.581057549E0,6.418148518E0,6.994220734E0
6.330457354E0,-1.726421595E0,6.320042610E0,7.137789726E0
6.350568760E0,-2.091326952E0,6.180660725E0,7.156932354E0
6.370680167E0,-2.386242390E0,6.029912949E0,7.030112743E0
6.390791573E0,-2.392822742E0,5.963512421E0,7.060023308E0
6.410902927E0,-2.457428932E0,5.995815277E0,7.263412952E0
6.431014333E0,-2.488535643E0,6.003592014E0,7.569096088E0
6.451125739E0,-2.202593327E0,5.943771362E0,7.837092400E0
6.471237094E0,-1.650449395E0,6.056233883E0,7.987840176E0
6.491348500E0,-1.296909928E0,5.964110374E0,8.191828728E0
6.511459906E0,-1.128814101E0,5.653641701E0,8.620143890E0
6.531571312E0,-9.984052777E-1,5.669195175E0,9.229117393E0
6.551682719E0,-8.321040869E-1,6.057430744E0,9.825528145E0
6.571794073E0,-5.748756528E-1,6.273981094E0,9.729216576E0
6.591905479E0,-3.828516304E-1,6.317649841E0,9.225527763E0
6.612016885E0,-1.902294010E-1,6.311667919E0,8.988637924E0
6.632128292E0,1.337587833E0,6.110072613E0,7.923233986E0
6.652239646E0,5.371887088E-1,5.970092297E0,8.852247238E0
6.672351052E0,1.076770201E-1,5.970092297E0,9.260822296E0
6.692462458E0,-4.600201547E-1,5.830112457E0,9.994221687E0
6.712573864E0,-6.646065116E-1,5.860620975E0,1.044347477E1
6.732685219E0,-8.955138922E-1,5.725426197E0,9.686744690E0
6.752796625E0,-8.081758618E-1,5.703292847E0,8.922835350E0
6.772908031E0,-4.899304509E-1,5.717649937E0,8.624331474E0
6.793019437E0,-1.507478207E-1,5.871388435E0,8.255238533E0
6.813130844E0,8.853443712E-2,6.135795593E0,7.779664516E0
6.833242198E0,1.142572835E-1,6.348158360E0,7.205387115E0
6.853353604E0,-4.426721856E-2,6.429514408E0,6.475576401E0
6.873465010E0,-5.324030295E-2,6.557530403E0,6.041278839E0
6.893576417E0,-1.435693540E-2,6.693323135E0,6.133402824E0
6.913687823E0,2.578266263E-1,6.351149559E0,6.413960934E0
6.933799229E0,6.604190469E-1,6.165107727E0,6.277570248E0
6.953910583E0,7.968099117E-1,6.464210510E0,6.113063812E0
6.974021989E0,5.072783828E-1,6.852446079E0,5.775675774E0
6.994133396E0,2.069791555E-1,7.053442955E0,6.121438503E0
7.014244802E0,-1.405783296E-1,6.573083878E0,6.976872444E0
7.034356208E0,-8.721838593E-1,6.528816700E0,7.274778843E0
7.054467614E0,-1.769492388E0,7.119245529E0,7.474579811E0
7.074578969E0,-1.554138303E0,7.383652687E0,7.673183918E0
7.094690375E0,-3.888336718E-1,6.921239376E0,6.798008919E0
7.114801781E0,2.656033039E-1,6.604190350E0,6.092724800E0
7.134913187E0,1.088734269E-1,6.196812630E0,6.498308182E0
7.155024594E0,9.810572863E-2,5.927619934E0,6.808178425E0
7.175136000E0,3.882354796E-1,5.982056618E0,6.416353703E0
7.195247406E0,-4.013960063E-1,7.923233986E0,4.964509010E0
7.215358760E0,-1.516451359E0,9.607781410E0,3.399004459E0
7.235470167E0,-7.752745152E-1,6.881757736E0,3.703491211E0
7.255581573E0,3.332005441E-1,5.836692810E0,5.405386448E0
7.275692979E0,1.412363529E0,6.748956203E0,6.413960934E0
7.295804385E0,1.314257860E0,7.266404152E0,6.471987247E0
7.315915792E0,1.734796464E-1,7.823333740E0,5.872584820E0
7.336027198E0,-8.967102766E-1,8.062017441E0,5.898906231E0
7.356138604E0,-5.599204898E-1,7.864011765E0,6.988238335E0
7.376250010E0,3.828516230E-2,7.625925541E0,7.267002583E0
7.396361364E0,-3.445664644E-1,7.647460938E0,6.559923172E0
7.416472771E0,5.407779217E-1,7.820940971E0,4.642076015E0
7.436584177E0,1.348953724E0,7.977072716E0,2.395215511E0
7.456695583E0,1.731207132E0,8.025527000E0,2.586641312E0
7.476806989E0,1.539183140E0,7.884350777E0,4.890331268E0
7.496918396E0,5.982056633E-2,7.954340458E0,7.380661488E0
7.517029802E0,-9.649057388E-1,8.021339417E0,8.800801277E0
7.537141208E0,-1.250249863E0,8.043473244E0,8.468199730E0
7.557252614E0,-1.018744230E0,7.973483086E0,7.302894592E0
7.577364021E0,2.392822644E-3,7.891529083E0,6.080760479E0
7.597475427E0,9.475577474E-1,7.545167923E0,5.114658356E0
7.617586833E0,8.685946465E-1,7.174280643E0,4.838885784E0
7.637698239E0,5.383851007E-2,7.165307522E0,4.797609329E0
7.657809646E0,-1.513460279E-1,7.229913712E0,5.218147755E0
7.677921052E0,6.705885530E-1,7.203592777E0,5.294718266E0
7.698032458E0,9.702895880E-1,7.290332317E0,5.254638672E0
7.718143812E0,2.261217386E-1,7.184450150E0,6.073582172E0
7.738255219E0,-4.498506486E-1,7.394420147E0,6.538387775E0
7.758366677E0,2.333002090E-1,7.578069210E0,6.512664795E0
7.778478031E0,1.622333765E0,7.690532207E0,6.020939827E0
7.798589437E0,2.437688112E0,7.883154392E0,5.898906231E0
7.818700844E0,2.508276224E0,7.763513088E0,6.515058041E0
7.838812250E0,1.878963947E0,7.909475327E0,7.190432072E0
7.858923656E0,1.492523074E0,8.075178146E0,7.642675400E0
7.879035062E0,1.366899967E0,8.072785378E0,8.101499557E0
7.899146469E0,1.241874933E0,8.097909927E0,8.339585304E0
7.919257875E0,1.344168067E0,8.127222061E0,7.859225750E0
7.939369281E0,1.657029629E0,8.151748657E0,6.999604225E0
7.959480687E0,1.867598057E0,7.979465485E0,6.381059647E0
7.979592094E0,1.666600943E0,7.790432453E0,5.659623623E0
7.999703500E0,1.098903775E0,7.611568928E0,5.254638672E0
8.019814906E0,3.702892959E-1,7.601399422E0,5.302495003E0
8.039926312E0,9.750752151E-2,7.622336388E0,5.422136307E0
8.060037719E0,1.800599098E-1,7.635497093E0,4.913063049E0
8.080149125E0,2.362912297E-1,7.703692436E0,4.385445595E0
8.100260531E0,3.852444589E-1,7.773682594E0,4.703093052E0
8.120371937E0,2.901297510E-1,7.758129120E0,5.583053589E0
8.140483344E0,-3.828516230E-2,7.651050568E0,6.081358910E0
8.160594802E0,-4.594219327E-1,7.617550850E0,6.072385788E0
8.180706208E0,-6.795616150E-1,7.650452137E0,5.906682491E0
8.200817614E0,-8.051848412E-1,7.700701237E0,5.759523869E0
8.220929021E0,-8.225327730E-1,7.786244869E0,5.721239090E0
8.241040427E0,-5.910272002E-1,7.867002487E0,5.807978630E0
8.261151833E0,-2.201396823E-1,7.911269665E0,5.895915031E0
8.281263239E0,-2.093719877E-2,7.872984886E0,5.821737289E0
8.301374646E0,-4.307080805E-2,7.862216949E0,5.553143024E0
8.321486052E0,-2.069791555E-1,7.925028801E0,5.253442287E0
8.341597458E0,-1.698904037E-1,7.905287743E0,5.267798901E0
8.361708864E0,-1.824527234E-1,7.898109436E0,5.267200947E0
8.381820271E0,-3.230310678E-1,7.990232944E0,5.110470772E0
8.401931677E0,-1.579262912E-1,8.082955360E0,5.264209747E0
8.422043083E0,1.890329868E-1,8.170292854E0,5.303691387E0
8.442154489E0,3.702892959E-1,8.155936241E0,5.148756027E0
8.462265896E0,2.877369225E-1,8.092526436E0,5.203791142E0
8.482377302E0,-2.991028363E-3,8.037490845E0,5.382654667E0
8.502488760E0,-2.303091735E-1,7.971688747E0,5.513063431E0
8.522600167E0,-3.230310678E-1,8.001000404E0,5.534000397E0
8.542711573E0,-2.099701911E-1,8.016553879E0,5.529813290E0
8.562822979E0,-7.657032460E-2,7.996813297E0,5.575874805E0
8.582934385E0,1.316052489E-2,8.012366295E0,5.545366287E0
8.603045792E0,5.383851007E-3,8.017750740E0,5.459224701E0
8.623157198E0,-7.776673883E-2,8.008777618E0,5.425725460E0
8.643268604E0,-9.332008660E-2,8.023134232E0,5.442475319E0
8.663380010E0,7.238288224E-2,8.064410210E0,5.420341492E0
8.683491469E0,2.548356056E-1,8.041678429E0,5.494519234E0
8.703602875E0,1.890329868E-1,8.068597794E0,5.499304771E0
8.723714281E0,2.434697002E-1,8.098507881E0,5.385047436E0
8.743825687E0,4.929214716E-1,8.134998322E0,5.038686275E0
8.763937094E0,5.300102234E-1,8.134400368E0,5.000999451E0
8.784048500E0,2.033899277E-1,8.124231339E0,5.380859852E0
8.804159906E0,1.435693540E-2,8.142775536E0,5.596213818E0
8.824271312E0,-1.010967568E-1,8.073982239E0,5.784050465E0
8.844382771E0,-1.543370634E-1,7.928019524E0,5.942574978E0
8.864494177E0,-2.769692242E-1,7.948358536E0,6.040082455E0
8.884605583E0,-8.853443712E-2,8.000402451E0,5.852844238E0
8.904716989E0,1.830509305E-1,8.016553879E0,5.496912003E0
8.924828396E0,1.938186288E-1,7.990831375E0,5.383851051E0
8.944939802E0,8.973085135E-2,8.051250458E0,5.506483078E0
8.965051208E0,-9.571290575E-3,8.076972961E0,5.651248932E0
8.985162667E0,-3.649054468E-2,8.005187988E0,5.702694416E0
9.005274073E0,-4.127619043E-2,7.951349735E0,5.740979671E0
9.025385479E0,-5.503492057E-2,8.003393173E0,5.785845280E0
9.045496885E0,4.426721856E-2,8.018946648E0,5.919843197E0
9.065608292E0,-6.460621208E-2,8.042277336E0,5.714060307E0
9.085719698E0,-3.529413342E-1,8.078767776E0,5.449653625E0
9.105831156E0,-3.272185028E-1,8.103293419E0,5.417350292E0
9.125942562E0,-9.571290761E-2,8.142177582E0,5.590231895E0
9.146053969E0,1.854437590E-2,8.151150703E0,5.630311489E0
9.166165375E0,-1.794616925E-3,8.174480438E0,5.478965759E0
9.186276781E0,-3.230310604E-2,8.182855606E0,5.209773064E0
9.206388187E0,-3.649054468E-2,8.197212219E0,4.986044407E0
9.226499646E0,-4.067798331E-2,8.160123825E0,4.852046013E0
9.246611052E0,-2.087737769E-1,8.157731056E0,4.837090969E0
9.266722458E0,-2.799602449E-1,8.197810173E0,4.908277512E0
9.286833864E0,-2.021935135E-1,8.165507317E0,5.120640278E0
9.306945323E0,-8.315058798E-2,8.174480438E0,5.288137913E0
9.327056729E0,-5.862415582E-2,8.239685059E0,5.291129112E0
9.347168135E0,-1.274178028E-1,8.236095428E0,5.304887772E0
9.367279542E0,-2.093719840E-1,8.284550667E0,5.237888813E0
9.387390948E0,-1.286142170E-1,8.341978073E0,5.193023205E0
9.407502406E0,2.572284341E-1,8.400003433E0,5.133800983E0
9.427613812E0,7.824530005E-1,8.381459236E0,5.061418056E0
9.447725219E0,7.651050687E-1,8.376075745E0,4.849653244E0
9.467836625E0,3.672982752E-1,8.349156380E0,4.734797955E0
9.487948083E0,4.426721856E-2,8.396414757E0,4.868795872E0
9.508059489E0,4.845465720E-2,8.340781212E0,5.122435093E0
9.528170896E0,1.435693651E-1,8.232506752E0,5.247459888E0
9.548282302E0,4.426721856E-2,8.233702660E0,5.221737385E0
9.568393708E0,-4.725824669E-2,8.210970879E0,5.215157032E0
9.588505167E0,-5.563312769E-2,8.221738815E0,5.258825779E0
9.608616573E0,-4.127619043E-2,8.204988480E0,5.360520840E0
9.628727979E0,-1.064806059E-1,8.225926399E0,5.367101192E0
9.648839437E0,-2.261217386E-1,8.240880966E0,5.265406132E0
9.668950844E0,-1.190429255E-1,8.239086151E0,5.251049519E0
9.689062250E0,6.580262445E-3,8.270791054E0,5.175675392E0
9.709173656E0,4.785645381E-2,8.259425163E0,5.036891460E0
9.729285114E0,1.734796353E-2,8.261219978E0,5.047060966E0
9.749396521E0,4.666004330E-2,8.312067986E0,5.106283665E0
9.769507927E0,1.818545163E-1,8.343173981E0,5.137988567E0
9.789619333E0,2.422732860E-1,8.338987350E0,5.105685234E0
9.809730792E0,1.405783296E-1,8.383852005E0,5.007579803E0
9.829842198E0,9.272187948E-2,8.385646820E0,4.991427898E0
9.849953604E0,1.268195957E-1,8.356932640E0,5.023132801E0
9.870065010E0,6.520441920E-2,8.353343964E0,5.014159679E0
9.890176469E0,2.572284266E-2,8.359326363E0,4.956133842E0
9.910287875E0,1.034895778E-1,8.390432358E0,4.878965378E0
9.930399281E0,1.268195957E-1,8.303692818E0,4.905286312E0
9.950510739E0,5.084748194E-2,8.312665939E0,4.974080086E0
9.970622146E0,-7.776673883E-2,8.252246857E0,5.076373100E0
9.990733552E0,-1.435693651E-1,8.269595146E0,5.159523964E0
1.001084501E1,-3.948157281E-2,8.281558990E0,5.186442852E0
1.003095642E1,-1.316052489E-2,8.308478355E0,5.109274387E0
1.005106782E1,-9.391828626E-2,8.329415321E0,5.018945694E0
1.007117928E1,-1.375873089E-1,8.273183823E0,4.998008251E0
1.009129069E1,-2.159522474E-1,8.251648903E0,5.025525570E0
1.011140209E1,-3.361915946E-1,8.279764175E0,5.166104317E0
1.013151350E1,-2.967100143E-1,8.316853523E0,5.251647472E0
1.015162496E1,-1.417747438E-1,8.257631302E0,5.155336380E0
1.017173636E1,-3.170489892E-2,8.251050949E0,4.986044407E0
1.019184777E1,-4.247260094E-2,8.320442200E0,4.800002098E0
1.021195923E1,-9.990034252E-2,8.305487633E0,4.770092010E0
1.023207064E1,-1.082752272E-1,8.338987350E0,4.865206718E0
1.025218204E1,5.383851007E-3,8.354539871E0,5.015356064E0
1.027229350E1,8.733802289E-2,8.343173981E0,5.152943611E0
1.029240491E1,-1.794616925E-3,8.358727455E0,5.297111034E0
1.031251631E1,-5.324030295E-2,8.391629219E0,5.297709465E0
1.033262777E1,1.076770201E-2,8.386244774E0,5.124229908E0
1.035273918E1,-8.973085321E-3,8.383254051E0,4.904688358E0
1.037285058E1,-1.495514158E-2,8.371290207E0,4.854438782E0
1.039296204E1,-4.785645287E-3,8.346763611E0,4.969892502E0
1.041307345E1,-8.434699476E-2,8.313263893E0,5.092525005E0
1.043318485E1,-1.399801224E-1,8.324031830E0,5.233701229E0
1.045329631E1,-7.657032460E-2,8.333004951E0,5.164309502E0
1.047340772E1,7.776673418E-3,8.354539871E0,4.973481655E0
1.049351918E1,-3.409772366E-2,8.331210136E0,4.873581409E0
1.051363058E1,-1.573280841E-1,8.283353806E0,4.874179840E0
1.053374199E1,-2.033899277E-1,8.302495956E0,5.020740032E0
1.055385345E1,-1.758724600E-1,8.283353806E0,5.164907455E0
1.057396485E1,-1.710868180E-1,8.285746574E0,5.162514687E0
1.059407626E1,-1.495514214E-1,8.328219414E0,5.072783947E0
1.061418772E1,-1.184447184E-1,8.318049431E0,4.969294548E0
1.063429912E1,-1.280160099E-1,8.327022552E0,4.863411903E0
1.065441053E1,-1.561316848E-1,8.277371407E0,4.916054249E0
1.067452199E1,-1.854437590E-1,8.325826645E0,5.066203594E0
1.069463340E1,-8.853443712E-2,8.339585304E0,5.153541565E0
1.071474485E1,-4.247260094E-2,8.341978073E0,5.076971531E0
1.073485626E1,-4.725824669E-2,8.364709854E0,4.947160721E0
1.075496767E1,-3.948157281E-2,8.325826645E0,4.901099205E0
1.077507913E1,-7.357929647E-2,8.368897438E0,4.914857864E0
1.079519053E1,-1.094716340E-1,8.337790489E0,4.963312149E0
1.081530199E1,-1.286142170E-1,8.366504669E0,5.019543648E0
1.083541340E1,-5.443671346E-2,8.300702095E0,5.033900738E0
1.085552480E1,8.973085321E-3,8.304290771E0,5.040481091E0
1.087563626E1,-3.589233849E-3,8.318648338E0,5.070989609E0
1.089574767E1,-1.316052489E-2,8.352147102E0,5.129015446E0
1.091585912E1,1.016949583E-2,8.367102623E0,5.144568920E0
1.093597053E1,-3.170489892E-2,8.383852005E0,5.093122959E0
1.095608194E1,-2.392822690E-2,8.333602905E0,5.053641319E0
1.097619340E1,1.794616925E-3,8.352147102E0,5.040481091E0
1.099630480E1,-1.794616925E-3,8.328817368E0,5.076373100E0
1.101641626E1,-6.101697683E-2,8.279166222E0,5.133202553E0
1.103652767E1,-1.184447184E-1,8.277970314E0,5.160720348E0
1.105663907E1,-9.092725813E-2,8.309675217E0,5.178666592E0
1.107675053E1,-2.153540403E-2,8.334200859E0,5.184050083E0
1.109686194E1,7.776673418E-3,8.369495392E0,5.132604599E0
1.111697340E1,-1.016949583E-2,8.388039589E0,5.130809784E0
1.113708480E1,-5.742774159E-2,8.341978073E0,5.124827862E0
1.115719626E1,-1.393819153E-1,8.313861847E0,4.995615482E0
1.117730767E1,-1.615155339E-1,8.263014793E0,4.853840828E0
1.119741907E1,-1.728814393E-1,8.249854088E0,4.832305431E0
1.121753053E1,-1.621137410E-1,8.243872643E0,4.925027370E0
1.123764194E1,-1.962114573E-1,8.266604424E0,5.115256786E0
1.125775340E1,-2.099701911E-1,8.297710419E0,5.215754986E0
1.127786480E1,-1.920240223E-1,8.294719696E0,5.184648514E0
1.129797626E1,-1.280160099E-1,8.317451477E0,5.114658356E0
1.131808767E1,-4.127619043E-2,8.294121742E0,5.085346222E0
1.133819913E1,-5.204389244E-2,8.314460754E0,5.050650597E0
1.135831053E1,-1.172483116E-1,8.326424599E0,4.962115765E0
1.137842199E1,-1.238285750E-1,8.309675217E0,5.018347263E0
1.139853340E1,-8.673982322E-2,8.326424599E0,5.117051125E0
1.141864480E1,-2.632104978E-2,8.346763611E0,5.094319344E0
1.143875626E1,6.520441920E-2,8.382656097E0,5.008776188E0
1.145886767E1,1.208375469E-1,8.404191017E0,4.936393261E0
1.147897912E1,6.999006122E-2,8.394021988E0,4.926821709E0
1.149909053E1,-3.948157281E-2,8.353343964E0,4.966303349E0
1.151920199E1,-1.298106313E-1,8.327621460E0,5.041079044E0
1.153931340E1,-9.990034252E-2,8.350951195E0,5.074578762E0
1.155942485E1,-1.674975827E-2,8.317451477E0,5.069194794E0
1.157953626E1,-2.153540403E-2,8.301300049E0,4.987838745E0
1.159964772E1,-8.853443712E-2,8.315058708E0,4.916652203E0
1.161975912E1,-9.092725813E-2,8.333602905E0,4.983053207E0
1.163987058E1,-1.040877849E-1,8.327022552E0,5.104488850E0
1.165998199E1,-1.357926875E-1,8.322237015E0,5.128417015E0
1.168009345E1,-1.316052526E-1,8.298309326E0,5.146961689E0
1.170020485E1,-4.307080805E-2,8.318049431E0,5.036891460E0
1.172031631E1,-1.854437590E-2,8.314460754E0,4.998606682E0
1.174042772E1,-4.845465720E-2,8.310871124E0,4.994419098E0
1.176053918E1,-1.172483116E-1,8.315656662E0,5.065605640E0
1.178065058E1,-6.340979785E-2,8.343772888E0,5.128417015E0
1.180076204E1,-1.076770201E-2,8.358129501E0,5.072783947E0
1.182087345E1,-7.477571070E-2,8.371290207E0,5.041677475E0
1.184098491E1,-1.100698411E-1,8.360522270E0,5.042873859E0
1.186109631E1,-1.734796353E-2,8.332406998E0,5.021338463E0
1.188120777E1,6.520441920E-2,8.291728973E0,4.974678040E0
1.190131918E1,-3.050848842E-2,8.296514511E0,4.954339504E0
1.192143064E1,-1.722832322E-1,8.271987915E0,4.999204636E0
1.194154204E1,-1.752742529E-1,8.283353806E0,5.133202553E0
1.196165350E1,-8.315058798E-2,8.311469078E0,5.182255745E0
1.198176491E1,-3.888336942E-2,8.322237015E0,5.076373100E0
1.200187636E1,-2.273181453E-2,8.354539871E0,4.960919380E0
1.202198777E1,-2.811566554E-2,8.331210136E0,5.026721954E0
1.204209923E1,-6.520441920E-2,8.326424599E0,5.127220631E0
1.206221064E1,-3.349951655E-2,8.340183258E0,5.112265587E0
1.208232209E1,2.991028363E-3,8.344370842E0,5.021936417E0
1.210243350E1,2.093719877E-2,8.352746010E0,4.981856823E0
1.212254496E1,5.563312769E-2,8.392825127E0,5.010570526E0
1.214265636E1,7.776673883E-2,8.397012711E0,5.060221672E0
1.216276782E1,3.708875179E-2,8.353941917E0,5.062614441E0
1.218287923E1,-1.196411345E-2,8.310871124E0,5.044070244E0
1.220299069E1,-3.409772366E-2,8.309076309E0,5.011168957E0
1.222310209E1,-2.991028316E-2,8.266604424E0,5.054239750E0
1.224321355E1,-1.148554832E-1,8.265407562E0,5.110470772E0
1.226332501E1,-1.824527234E-1,8.266005516E0,5.214558601E0
1.228343642E1,-1.842473447E-1,8.261219978E0,5.243870735E0
1.230354788E1,-1.722832322E-1,8.300103188E0,5.117051125E0
1.232365928E1,-1.106680483E-1,8.316255569E0,4.962714195E0
1.234377074E1,-4.845465720E-2,8.303094864E0,4.868197441E0
1.236388215E1,-8.015955985E-2,8.249256134E0,4.843671322E0
1.238399360E1,-1.878365725E-1,8.259425163E0,5.016552448E0
1.240410501E1,-1.585244983E-1,8.297112465E0,5.278566837E0
1.242421647E1,3.170489892E-2,8.326424599E0,5.374279499E0
1.244432793E1,1.507478207E-1,8.363512993E0,5.196014404E0
1.246443933E1,1.058823988E-1,8.357531548E0,5.015954494E0
1.248455079E1,1.854437590E-2,8.367102623E0,5.003392220E0
1.250466220E1,1.256231871E-2,8.327022552E0,5.159523964E0
1.252477366E1,-1.674975827E-2,8.303692818E0,5.230710506E0
1.254488506E1,-2.333002165E-2,8.312665939E0,5.133800983E0
1.256499652E1,1.938186288E-1,8.331210136E0,5.018347263E0
1.258510793E1,2.757728100E-1,8.368298531E0,4.957330227E0
1.260521939E1,2.165504545E-1,8.443673134E0,4.978865623E0
1.262533079E1,-9.631111473E-2,8.327022552E0,5.027918816E0
1.264544225E1,-3.678964674E-1,8.383254051E0,5.019543648E0
1.266555371E1,-3.499503136E-1,8.281558990E0,5.018945694E0
1.268566511E1,-2.021935135E-1,8.279166222E0,5.074578762E0
1.270577657E1,-1.034895778E-1,8.282755852E0,5.064409256E0
1.272588798E1,-1.339980662E-1,8.277371407E0,5.082953453E0
1.274599944E1,-2.578266263E-1,8.286943436E0,5.132604599E0
1.276611090E1,-2.458625287E-1,8.292924881E0,5.133800983E0
1.278622230E1,-1.806581169E-1,8.293522835E0,5.104488850E0
1.280633376E1,-1.872383654E-1,8.266604424E0,5.101497650E0
1.282644517E1,-1.824527234E-1,8.287541389E0,5.061418056E0
1.284655663E1,-1.579262912E-1,8.312665939E0,5.020740032E0
1.286666803E1,-8.793623000E-2,8.281558990E0,5.031507969E0
1.288677949E1,-1.238285750E-1,8.294121742E0,5.110470772E0
1.290689095E1,-1.657029688E-1,8.329415321E0,5.100899696E0
1.292700235E1,-6.221338734E-2,8.357531548E0,5.076373100E0
1.294711381E1,-2.392822644E-3,8.410771370E0,5.025525570E0
1.296722522E1,1.375873014E-2,8.364709854E0,5.018347263E0
1.298733668E1,-7.896314561E-2,8.357531548E0,5.015954494E0
1.300744808E1,-1.453639716E-1,8.375477791E0,4.975276470E0
1.302755954E1,-1.369891018E-1,8.349156380E0,4.923232555E0
1.304767100E1,-1.148554832E-1,8.354539871E0,4.876572609E0
1.306778241E1,-1.052841991E-1,8.334200859E0,4.921437740E0
1.308789386E1,-1.615155339E-1,8.344370842E0,5.038686275E0
1.310800527E1,-1.866401732E-1,8.355138779E0,5.038686275E0
1.312811673E1,-1.645065546E-1,8.330014229E0,5.044668198E0
1.314822819E1,-1.591227055E-1,8.334799767E0,5.088337421E0
1.316833959E1,-1.884347796E-1,8.310273170E0,5.066203594E0
1.318845105E1,-2.566302419E-1,8.308478355E0,5.029713154E0
1.320856251E1,-2.943171859E-1,8.287541389E0,4.975874901E0
1.322867392E1,-2.913261652E-1,8.284550667E0,4.904688358E0
1.324878538E1,-3.092723191E-1,8.276773453E0,4.917848587E0
1.326889678E1,-3.726821244E-1,8.243273735E0,4.887938499E0
1.328900824E1,-2.811566591E-1,8.247461319E0,4.835296154E0
1.330911970E1,-1.830509305E-1,8.235497475E0,4.724030018E0
1.332923110E1,-2.135594189E-1,8.238488197E0,4.619344234E0
1.334934256E1,-3.625126183E-1,8.250452042E0,4.532006264E0
1.336945397E1,-4.402793646E-1,8.222934723E0,4.551148891E0
1.338956543E1,-5.102694035E-1,8.053643227E0,4.428516388E0
1.340967689E1,-5.605186820E-1,7.893921852E0,4.084548473E0
1.342978829E1,-4.606183469E-1,7.830512047E0,3.789632797E0
1.344989975E1,-1.262213886E-1,7.871190071E0,4.534399033E0
1.347001121E1,-8.913264424E-2,7.679165840E0,5.947360516E0
1.349012261E1,-3.511467278E-1,7.585845947E0,6.949355125E0
1.351023407E1,-8.476574421E-1,7.516454220E0,6.747161865E0
1.353034548E1,-1.099501967E0,7.368099213E0,5.906682491E0
1.355045694E1,-1.168295622E0,7.222734928E0,5.366502762E0
1.357056840E1,-9.158528447E-1,7.048058987E0,5.423930645E0
1.359067980E1,-7.178468108E-1,6.748358250E0,5.616552830E0
1.361079126E1,-7.393822074E-1,6.506084919E0,6.098108292E0
1.363090272E1,-1.093519926E0,6.193821430E0,6.361917019E0
1.365101413E1,-1.645663738E0,5.924030781E0,6.634100914E0
1.367112558E1,-1.995015860E0,5.576473236E0,6.881757736E0
1.369123699E1,-2.097309113E0,5.408975601E0,7.039085865E0
1.371134845E1,-1.791625977E0,5.101497650E0,7.153941631E0
1.373145991E1,-1.801197290E0,4.810770035E0,7.343572617E0
1.375157131E1,-2.065006018E0,4.442275047E0,7.703692436E0
1.377168277E1,-2.200200319E0,4.096512318E0,8.186444283E0
1.379179423E1,-1.956730723E0,4.013361931E0,8.426922798E0
1.381190564E1,-1.485942841E0,3.901497364E0,8.368298531E0
1.383201709E1,-1.113260746E0,3.684946775E0,8.027321815E0
1.385212855E1,-1.086341500E0,3.672384501E0,7.942376614E0
1.387223996E1,-5.341976285E-1,3.719044685E0,7.884948730E0
1.389235142E1,4.953143001E-1,3.830310822E0,7.618149281E0
1.391246288E1,1.055832982E0,4.049852371E0,7.679165840E0
1.393257428E1,5.563312769E-1,4.341178417E0,8.221738815E0
1.395268574E1,4.785645287E-3,3.610171080E0,9.123234749E0
1.397279720E1,-9.367900491E-1,2.779861689E0,9.406784058E0
1.399290860E1,-1.680957913E0,2.921038151E0,9.540781975E0
1.401302006E1,-8.548358679E-1,3.108874798E0,1.027777100E1
1.403313147E1,4.061816335E-1,3.103491068E0,1.054158020E1
1.405324293E1,5.557330847E-1,3.235694408E0,1.026161957E1
1.407335438E1,-2.009970993E-1,3.453441381E0,1.080419254E1
1.409346584E1,-2.787638307E-1,3.391227961E0,1.071087265E1
1.411357725E1,-3.218346536E-1,3.412763357E0,1.041954613E1
1.413368871E1,-2.333002090E-1,3.144168854E0,9.833903313E0
1.415380011E1,-5.988038778E-1,3.096312523E0,9.498908043E0
1.417391157E1,-1.699502230E0,3.081955671E0,9.499505997E0
1.419402303E1,-2.417947292E0,3.100499868E0,1.002891827E1
1.421413449E1,-1.680359721E0,3.026920557E0,1.049970531E1
1.423424590E1,-7.764709592E-1,2.968296528E0,1.082991505E1
1.425435735E1,-6.622136831E-1,2.560320139E0,1.097647572E1
1.427446876E1,-1.651047587E0,2.000399828E0,1.111765194E1
1.429458022E1,-2.592623234E0,1.258026481E0,1.092263699E1
1.431469168E1,-3.242274761E0,9.493523836E-1,1.056610680E1
1.433480314E1,-2.677568436E0,9.906286001E-1,1.042074299E1
1.435491454E1,-8.321040869E-1,1.234696507E0,1.013479996E1
1.437502600E1,1.944168359E-1,1.715055585E0,9.835697174E0
1.439513746E1,1.752742529E-1,2.352144718E0,9.599406242E0
1.441524886E1,6.903293133E-1,2.672184706E0,9.221938133E0
1.443536032E1,1.332203984E0,2.617149830E0,8.808578491E0
1.445547173E1,1.476371527E0,2.438884497E0,8.866603851E0
1.447558319E1,1.005583763E0,1.937588096E0,9.330213547E0
1.449569465E1,1.329811215E0,-7.896314561E-2,8.113463402E0
1.451580610E1,-1.830509305E0,2.759522676E0,9.736993790E0
1.453591751E1,-1.055832982E0,2.104487419E0,1.133480072E1
1.455602897E1,9.732806087E-1,-1.166501045E-1,1.186361504E1
1.457614043E1,1.708475351E0,-7.722834945E-1,1.242413330E1
1.459625183E1,1.770688772E0,-2.189432681E-1,1.316889954E1
1.461636329E1,1.410568953E0,5.563312769E-2,1.326521015E1
1.463647475E1,8.775677085E-1,-1.704886109E-1,1.277767277E1
1.465658616E1,6.831508875E-1,-1.974078715E-1,1.177986622E1
1.467669761E1,7.058826685E-1,1.615155302E-2,1.066720295E1
1.469680907E1,8.458628058E-1,2.297109663E-1,9.738788605E0
1.471692053E1,8.458628058E-1,4.336991012E-1,8.986844063E0
1.473703194E1,2.901297510E-1,6.323033571E-1,8.483752251E0
1.475714340E1,-4.247260094E-1,9.397810698E-1,8.402397156E0
1.477725485E1,-6.622136831E-1,1.207777262E0,8.706883430E0
1.479736626E1,-4.378865361E-1,1.334596872E0,9.086744308E0
1.481747772E1,5.383851007E-2,1.213161111E0,9.301499367E0
1.483758918E1,4.271188378E-1,1.120439172E0,9.451051712E0
1.485770058E1,1.615155339E-1,1.212562919E0,9.439086914E0
1.487781204E1,-2.267199457E-1,1.331007600E0,9.446265221E0
1.489792350E1,-5.258227587E-1,1.451246977E0,9.553344727E0
1.491803496E1,2.093719877E-2,1.414756417E0,9.236893654E0
1.493814636E1,9.224331379E-1,1.367498159E0,9.114261627E0
1.495825782E1,1.285543919E0,1.223330617E0,9.485149384E0
1.497836928E1,8.787640929E-1,1.046261668E0,1.001336479E1
1.499848069E1,-7.956135273E-2,9.613165259E-1,1.034058285E1
1.501859215E1,-9.481559992E-1,8.703892231E-1,1.047936630E1
1.503870360E1,-8.255237937E-1,7.322037220E-1,1.060020447E1
1.505881501E1,-9.810572863E-2,6.382854581E-1,1.052782154E1
1.507892647E1,8.913264424E-2,6.999006271E-1,1.026520920E1
1.509903793E1,-2.572284341E-1,8.015955687E-1,1.014197922E1
1.511914939E1,-3.966103494E-1,9.158528447E-1,1.018744278E1
1.513926079E1,-1.076770201E-1,9.678967595E-1,1.018265629E1
1.515937225E1,4.307080805E-2,9.894321561E-1,9.960722923E0
1.517948371E1,1.106680483E-1,1.077368379E0,9.723833084E0
1.519959511E1,1.208375469E-1,1.122233868E0,9.579665184E0
1.521970657E1,-8.973085321E-3,1.132403374E0,9.604191780E0
1.523981803E1,-4.725824669E-2,1.123430252E0,9.644271851E0
1.525992949E1,-1.136590727E-2,1.115653515E0,9.684949875E0
1.528004090E1,6.699903309E-2,1.095314622E0,9.777072906E0
1.530015235E1,1.393819153E-1,1.069591761E0,9.798010826E0
1.532026381E1,1.627119333E-1,1.040877819E0,9.748957634E0
1.534037522E1,4.725824669E-2,9.954141974E-1,9.835697174E0
1.536048668E1,-2.572284266E-2,9.643075466E-1,1.003011417E1
1.538059814E1,-1.674975902E-1,9.720842242E-1,1.008156013E1
1.540070959E1,-2.368894368E-1,9.702895880E-1,1.003609657E1
1.542082100E1,-9.272187948E-2,9.134600163E-1,9.991828918E0
1.544093246E1,-7.836493850E-2,8.584251404E-1,9.973284721E0
1.546104392E1,-2.291127741E-1,8.141579032E-1,9.966106415E0
1.548115538E1,-3.349951804E-1,7.788637877E-1,9.992427826E0
1.550126678E1,-3.882354796E-1,8.255237937E-1,9.986445427E0
1.552137824E1,-3.200400174E-1,8.344969153E-1,9.923633575E0
1.554148970E1,-3.044866920E-1,7.818548083E-1,9.894321442E0
1.556160116E1,-3.062812984E-1,6.921239495E-1,9.872187614E0
1.558171256E1,-3.379862010E-1,6.999006271E-1,9.853643417E0
1.560182402E1,-4.043870270E-1,7.657032609E-1,9.808179855E0
1.562193548E1,-4.079762697E-1,7.932206988E-1,9.857233047E0
1.564204689E1,-2.626122832E-1,7.710871100E-1,9.891330719E0
1.566215834E1,-1.674975902E-1,7.992027402E-1,9.828518867E0
1.568226980E1,-2.997010350E-1,8.500502706E-1,9.771689415E0
1.570238126E1,-4.097708762E-1,8.578268886E-1,9.832108498E0
1.572249267E1,-3.708875179E-1,8.452646136E-1,9.864411354E0
1.574260413E1,-3.553341627E-1,8.673982024E-1,9.819545746E0
1.576271558E1,-3.481557071E-1,8.500502706E-1,9.876375198E0
1.578282704E1,-2.207378894E-1,8.135597110E-1,9.995418549E0
1.580293845E1,-1.932204217E-1,8.500502706E-1,9.975677490E0
1.582304991E1,-2.967100143E-1,8.476574421E-1,9.975677490E0
1.584316136E1,-2.494517565E-1,8.075776696E-1,9.920044899E0
1.586327282E1,-3.517449200E-1,8.213363886E-1,9.865009308E0
1.588338423E1,-4.498506486E-1,7.854440212E-1,9.853643417E0
1.590349569E1,-3.762713671E-1,7.788637877E-1,9.850652695E0
1.592360715E1,-2.847459018E-1,7.854440212E-1,9.825528145E0
1.594371855E1,-2.596212626E-1,7.824530005E-1,9.869196892E0
1.596383001E1,-3.218346536E-1,7.926225066E-1,9.899106979E0
1.598394147E1,-3.966103494E-1,8.243274093E-1,9.854840279E0
1.600405293E1,-3.421736360E-1,8.368897438E-1,9.805787086E0
1.602416439E1,-2.602194548E-1,8.530412912E-1,9.771091461E0
1.604427579E1,-2.524427772E-1,8.476574421E-1,9.787840843E0
1.606438725E1,-2.404786795E-1,8.273184299E-1,9.906884193E0
1.608449871E1,-1.716850251E-1,8.039883971E-1,9.919445992E0
1.610461017E1,-2.500499785E-1,8.285148144E-1,9.854242325E0
1.612472157E1,-3.158525825E-1,8.087740541E-1,9.894919395E0
1.614483303E1,-2.309073806E-1,7.722834945E-1,9.938589096E0
1.616494449E1,-2.536391914E-1,7.423732281E-1,9.965508461E0
1.618505595E1,-2.039881349E-1,7.345965505E-1,9.896116257E0
1.620516735E1,-2.937189937E-1,7.752745152E-1,9.920642853E0
1.622527881E1,-4.115654826E-1,7.914260626E-1,9.924830437E0
1.624539027E1,-3.571287692E-1,7.513462901E-1,9.933204651E0
1.626550173E1,-2.243271172E-1,7.477570772E-1,9.899705887E0
1.628561314E1,-1.752742529E-1,7.776673436E-1,9.926624298E0
1.630572459E1,-1.238285750E-1,7.692924738E-1,9.984650612E0
1.632583605E1,-1.896311939E-1,7.663014531E-1,1.003190899E1
1.634594751E1,-2.745763958E-1,7.609176040E-1,9.969695091E0
1.636605892E1,-2.602194548E-1,7.525427341E-1,9.799206734E0
1.638617038E1,-2.273181528E-1,7.184450030E-1,9.749555588E0
1.640628183E1,-3.110669553E-1,6.945167780E-1,9.836296082E0
1.642639329E1,-3.607180119E-1,6.711867452E-1,9.917651176E0
1.644650475E1,-3.750749528E-1,6.813562512E-1,1.001156998E1
1.646661616E1,-2.656033039E-1,6.777670383E-1,1.003190899E1
1.648672761E1,-1.860419661E-1,6.765705943E-1,9.981060982E0
1.650683907E1,-2.159522474E-1,6.693921089E-1,9.905687332E0
1.652695053E1,-3.349951804E-1,6.646065116E-1,9.866804123E0
1.654706194E1,-4.594219327E-1,6.789634228E-1,9.905089378E0
1.656717340E1,-4.378865361E-1,6.741777658E-1,9.957133293E0
1.658728485E1,-2.003988922E-1,6.544370055E-1,9.927223206E0
1.660739631E1,-1.716850251E-1,6.975077987E-1,9.854242325E0
1.662750772E1,-2.644068897E-1,6.939185858E-1,9.853045464E0
1.664761918E1,-3.092723191E-1,6.807580590E-1,9.903892517E0
1.666773064E1,-3.649054468E-1,7.034898400E-1,9.919445992E0
1.668784209E1,-3.493520916E-1,6.891329288E-1,9.856635094E0
1.670795355E1,-3.990031779E-1,6.669993401E-1,9.878170013E0
1.672806496E1,-4.019941986E-1,6.412764788E-1,9.915258408E0
1.674817642E1,-2.955136001E-1,6.209374666E-1,9.867402077E0
1.676828788E1,-2.937189937E-1,6.155536175E-1,9.789635658E0
1.678839933E1,-4.055834413E-1,6.412764788E-1,9.824930191E0
1.680851074E1,-4.145565331E-1,6.406782866E-1,9.857233047E0
1.682862220E1,-3.708875179E-1,6.406782866E-1,9.845269203E0
1.684873366E1,-4.420739710E-1,6.406782866E-1,9.816555023E0
1.686884511E1,-4.384847581E-1,6.412764788E-1,9.844072342E0
1.688895657E1,-2.991028428E-1,6.065805554E-1,9.917651176E0
1.690906798E1,-1.621137410E-1,5.886343718E-1,9.903892517E0
1.692917944E1,-2.452643216E-1,5.910272002E-1,9.904491425E0
1.694929090E1,-3.661018610E-1,5.760720372E-1,9.948160172E0
1.696940235E1,-3.343969584E-1,6.005984545E-1,9.955936432E0
1.698951381E1,-2.566302419E-1,5.718846321E-1,9.929615974E0
1.700962522E1,-2.632105052E-1,5.611169338E-1,9.929615974E0
1.702973668E1,-3.810569942E-1,5.611169338E-1,9.942776680E0
1.704984814E1,-3.936193287E-1,5.276173949E-1,9.926026344E0
1.706995959E1,-2.476571500E-1,5.072783828E-1,9.927223206E0
1.709007100E1,-2.243271172E-1,5.222335458E-1,9.965508461E0
1.711018246E1,-4.181457460E-1,5.276173949E-1,1.003250694E1
1.713029392E1,-4.719842672E-1,4.893322289E-1,1.005165005E1
1.715040538E1,-3.804588020E-1,4.797609448E-1,9.930213928E0
1.717051683E1,-2.973082066E-1,4.624129832E-1,9.873982430E0
1.719062824E1,-2.763710022E-1,4.438686073E-1,9.931410789E0
1.721073970E1,-2.817548811E-1,4.666004181E-1,1.001635551E1
1.723085116E1,-3.014956415E-1,5.030909777E-1,1.002413273E1
1.725096261E1,-4.163511395E-1,5.192425251E-1,9.908679008E0
1.727107407E1,-4.582255483E-1,5.030909777E-1,9.842277527E0
1.729118548E1,-4.336991012E-1,4.540380836E-1,9.863214493E0
1.731129694E1,-4.534398913E-1,4.384847581E-1,9.865009308E0
1.733140840E1,-3.978067636E-1,4.450650215E-1,9.869196892E0
1.735151985E1,-3.194418252E-1,4.707878530E-1,9.920642853E0
1.737163126E1,-2.919243574E-1,4.797609448E-1,9.926026344E0
1.739174272E1,-3.756731451E-1,4.863412082E-1,9.921838760E0
1.741185418E1,-3.391826153E-1,4.821537733E-1,9.938589096E0
1.743196564E1,-4.157529473E-1,5.264210105E-1,9.893125534E0
1.745207709E1,-3.565305769E-1,5.174478889E-1,9.833304405E0
1.747218855E1,-3.164508045E-1,5.012963414E-1,9.848259926E0
1.749229996E1,-4.755735099E-1,4.785645306E-1,9.903294563E0
1.751241142E1,-3.978067636E-1,4.283152521E-1,9.945767403E0
1.753252288E1,-2.404786795E-1,4.450650215E-1,9.960124016E0
1.755263433E1,-2.979064286E-1,4.713860750E-1,1.005105114E1
1.757274579E1,-4.378865361E-1,4.773681164E-1,9.997811317E0
1.759285720E1,-4.444667995E-1,4.426721931E-1,9.918250084E0
1.761296866E1,-3.828516304E-1,3.924229145E-1,9.891928673E0
1.763308011E1,-4.133601189E-1,4.139583111E-1,9.891330719E0
1.765319157E1,-3.774677813E-1,4.283152521E-1,9.921838760E0
1.767330303E1,-3.320041299E-1,4.492524564E-1,9.978668213E0
1.769341444E1,-3.134597540E-1,4.546363056E-1,9.917053223E0
1.771352590E1,-3.493520916E-1,4.504488707E-1,9.869196892E0
1.773363735E1,-4.049852192E-1,4.516452849E-1,9.897313118E0
1.775374881E1,-4.175475538E-1,4.331009090E-1,1.000498962E1
1.777386027E1,-4.348955154E-1,4.331009090E-1,1.004387283E1
1.779397168E1,-4.319044948E-1,4.396811724E-1,9.984650612E0
1.781408314E1,-3.954139352E-1,4.761717021E-1,9.903892517E0
1.783419459E1,-3.678964674E-1,4.713860750E-1,9.842277527E0
1.785430605E1,-3.942175210E-1,4.713860750E-1,9.821938515E0
1.787441751E1,-4.019941986E-1,4.480560422E-1,9.854242325E0
1.789452892E1,-4.019941986E-1,4.725824594E-1,9.896714211E0
1.791464038E1,-4.289134443E-1,4.666004181E-1,9.919445992E0
1.793475183E1,-4.331009090E-1,4.307080805E-1,9.952347755E0
1.795486329E1,-4.642075896E-1,4.354937077E-1,9.945169449E0
1.797497475E1,-4.803591371E-1,4.570291340E-1,9.932008743E0
1.799508621E1,-5.048855543E-1,4.689932466E-1,9.886545181E0
1.801519761E1,-4.606183469E-1,4.755735099E-1,9.816555023E0
1.803530907E1,-3.678964674E-1,4.719842672E-1,9.797411919E0
1.805542053E1,-3.397808075E-1,4.767699242E-1,9.849455833E0
1.807553199E1,-3.810569942E-1,4.893322289E-1,9.828518867E0
1.809564345E1,-3.661018610E-1,4.881358147E-1,9.887741089E0
1.811575485E1,-3.762713671E-1,4.809573591E-1,1.001037312E1
1.813586631E1,-5.072783828E-1,4.809573591E-1,9.981060982E0
1.815597777E1,-5.006981492E-1,4.731806815E-1,1.000917721E1
1.817608923E1,-2.566302419E-1,4.642075896E-1,1.001874828E1
1.819620069E1,-1.495514214E-1,4.414757788E-1,9.943972588E0
1.821631209E1,-4.384847581E-1,4.660021961E-1,9.905089378E0
1.823642355E1,-6.442674994E-1,4.510470629E-1,9.902696609E0
1.825653501E1,-5.623133183E-1,4.378865361E-1,9.865608215E0
1.827664647E1,-4.127618968E-1,4.133601189E-1,9.870393753E0
1.829675793E1,-3.954139352E-1,3.810569942E-1,9.962516785E0
1.831686938E1,-4.713860750E-1,3.912265003E-1,9.982257843E0
1.833698079E1,-5.090730190E-1,4.450650215E-1,9.888339996E0
1.835709225E1,-4.540380836E-1,4.815555513E-1,9.792028427E0
1.837720371E1,-4.097708762E-1,4.707878530E-1,9.811170578E0
1.839731517E1,-3.906283081E-1,4.528416991E-1,9.933803558E0
1.841742662E1,-4.701896608E-1,4.875376225E-1,1.001097202E1
1.843753808E1,-4.851447940E-1,5.258227587E-1,9.993623734E0
1.845764949E1,-3.397808075E-1,4.492524564E-1,9.911071777E0
1.847776095E1,-4.169493318E-1,4.019941986E-1,9.882955551E0
1.849787241E1,-5.491527915E-1,4.331009090E-1,1.001515961E1
1.851798386E1,-5.144568682E-1,4.773681164E-1,1.000259686E1
1.853809532E1,-4.121637046E-1,5.090730190E-1,9.872786522E0
1.855820678E1,-3.206382394E-1,5.324030519E-1,9.822537422E0
1.857831819E1,-3.266202807E-1,4.983053207E-1,9.877572060E0
1.859842965E1,-4.097708762E-1,4.695914388E-1,9.871589661E0
1.861854110E1,-5.042873621E-1,4.977070987E-1,9.894321442E0
1.863865256E1,-3.960121572E-1,4.797609448E-1,9.888937950E0
1.865876402E1,-3.188436031E-1,4.923232496E-1,9.842277527E0
1.867887543E1,-5.264210105E-1,4.935196638E-1,9.885348320E0
1.869898688E1,-6.089733839E-1,4.582255483E-1,9.947562218E0
1.871909834E1,-4.588237405E-1,4.474578202E-1,9.928419113E0
1.873920980E1,-4.570291340E-1,4.606183469E-1,9.887741089E0
1.875932126E1,-5.479564071E-1,4.534398913E-1,9.911071777E0
1.877943272E1,-5.264210105E-1,4.378865361E-1,9.870393753E0
1.879954412E1,-5.371887088E-1,4.540380836E-1,9.794421196E0
1.881965558E1,-4.642075896E-1,4.630111754E-1,9.851250648E0
1.883976704E1,-3.290131092E-1,4.588237405E-1,9.986445427E0
1.885987850E1,-4.163511395E-1,4.863412082E-1,1.002233791E1
1.887998996E1,-5.294120312E-1,5.024927258E-1,1.007258701E1
1.890010142E1,-4.983053207E-1,5.282155871E-1,1.002293587E1
1.892021288E1,-3.355933726E-1,5.102694035E-1,9.833304405E0
1.894032428E1,-3.780659735E-1,4.803591371E-1,9.735796928E0
1.896043574E1,-4.941178858E-1,4.558327198E-1,9.799804688E0
1.898054720E1,-4.821537733E-1,4.313062727E-1,9.825528145E0
1.900065866E1,-4.396811724E-1,4.259224236E-1,9.795019150E0
1.902077011E1,-5.006981492E-1,4.049852192E-1,9.873982430E0
1.904088157E1,-6.448656917E-1,4.019941986E-1,9.978070259E0
1.906099303E1,-6.436693072E-1,4.163511395E-1,9.965508461E0
1.908110444E1,-4.983053207E-1,4.169493318E-1,9.940981865E0
1.910121590E1,-4.857429862E-1,4.073780477E-1,9.967901230E0
1.912132735E1,-5.748756528E-1,4.127618968E-1,9.994221687E0
1.914143881E1,-5.000999570E-1,4.354937077E-1,9.948758125E0
1.916155027E1,-3.762713671E-1,4.833501875E-1,9.854840279E0
1.918166173E1,-4.025924206E-1,5.150550604E-1,9.821938515E0
1.920177314E1,-4.839483798E-1,5.096712112E-1,9.852447510E0
1.922188459E1,-4.857429862E-1,5.078766346E-1,9.838089943E0
1.924199605E1,-4.085744619E-1,5.216353536E-1,9.821340561E0
1.926210751E1,-3.571287692E-1,4.683950245E-1,9.851250648E0
1.928221897E1,-3.188436031E-1,3.780659735E-1,9.956535339E0
1.930233043E1,-4.564309120E-1,3.601198196E-1,1.000618649E1
1.932244188E1,-5.940182209E-1,3.750749528E-1,9.975677490E0
1.934255329E1,-4.953143001E-1,3.792623878E-1,9.883553505E0
1.936266475E1,-4.031906128E-1,3.714857101E-1,9.847063065E0
1.938277621E1,-5.264210105E-1,3.786641955E-1,9.980463028E0
1.940288767E1,-6.023930907E-1,3.774677813E-1,1.013240719E1
1.942299912E1,-5.940182209E-1,3.762713671E-1,1.000199890E1
1.944311058E1,-4.755735099E-1,3.846462369E-1,9.905089378E0
1.946322199E1,-3.571287692E-1,4.342973232E-1,9.884750366E0
1.948333345E1,-4.157529473E-1,4.803591371E-1,9.812367439E0
1.950344491E1,-5.264210105E-1,4.677968323E-1,9.796813965E0
1.952355636E1,-4.761717021E-1,4.725824594E-1,9.823135376E0
1.954366782E1,-4.055834413E-1,4.845465720E-1,9.792626381E0
1.956377928E1,-3.804588020E-1,4.612165689E-1,9.798010826E0
1.958389074E1,-3.158525825E-1,4.348955154E-1,9.835697174E0
1.960400215E1,-3.403790295E-1,4.199403822E-1,9.868598938E0
1.962411360E1,-4.043870270E-1,4.055834413E-1,9.908080101E0
1.964422506E1,-3.924229145E-1,4.013960063E-1,9.960124016E0
1.966433652E1,-4.594219327E-1,3.978067636E-1,1.004028416E1
1.968444798E1,-4.570291340E-1,3.457628787E-1,1.012881851E1
1.970455944E1,-4.420739710E-1,3.415754437E-1,1.011147022E1
1.972467090E1,-4.145565331E-1,3.469592929E-1,1.005823040E1
1.974478230E1,-4.133601189E-1,3.690928817E-1,1.002652550E1
1.976489376E1,-3.762713671E-1,3.529413342E-1,9.998409271E0
1.978500522E1,-3.613162339E-1,3.523431420E-1,9.908679008E0
1.980511668E1,-4.588237405E-1,3.565305769E-1,9.869794846E0
1.982522814E1,-4.803591371E-1,3.678964674E-1,9.865009308E0
1.984533959E1,-3.696911037E-1,3.547359705E-1,9.889535904E0
1.986545105E1,-4.109672904E-1,3.984049559E-1,9.900303841E0
1.988556246E1,-5.377869010E-1,4.175475538E-1,9.927223206E0
1.990567392E1,-5.096712112E-1,3.876372576E-1,9.942177773E0
1.992578538E1,-4.707878530E-1,3.834498227E-1,9.888339996E0
1.994589683E1,-4.713860750E-1,4.001995921E-1,9.880562782E0
1.996600829E1,-3.601198196E-1,3.966103494E-1,9.908080101E0
1.998611975E1,-3.224328458E-1,3.942175210E-1,9.875777245E0
2.000623121E1,-4.265206456E-1,4.205385745E-1,9.891928673E0
2.002634267E1,-5.006981492E-1,4.510470629E-1,9.894321442E0
2.004645407E1,-4.749752879E-1,4.570291340E-1,9.824930191E0
2.006656553E1,-4.695914388E-1,4.259224236E-1,9.809376717E0
2.008667699E1,-4.193421602E-1,3.619144261E-1,9.860821724E0
2.010678845E1,-3.918247223E-1,3.176472187E-1,9.921838760E0
2.012689991E1,-5.174478889E-1,3.439682424E-1,9.963115692E0
2.014701136E1,-5.006981492E-1,3.690928817E-1,1.000857925E1
2.016712282E1,-3.625126183E-1,3.864408433E-1,9.957731247E0
2.018723423E1,-3.852444589E-1,3.972085714E-1,9.923035622E0
2.020734569E1,-5.204389095E-1,4.223332107E-1,9.999606133E0
2.022745715E1,-5.084748268E-1,4.642075896E-1,9.984650612E0
2.024756860E1,-3.619144261E-1,4.905286431E-1,9.873384476E0
2.026768006E1,-2.662015259E-1,4.654040039E-1,9.795019150E0
2.028779152E1,-3.649054468E-1,4.331009090E-1,9.815358162E0
2.030790298E1,-4.618147612E-1,4.091726840E-1,9.844670296E0
2.032801444E1,-4.899304509E-1,4.061816335E-1,9.845867157E0
2.034812584E1,-4.905286431E-1,3.906283081E-1,9.850054741E0
2.036823730E1,-4.504488707E-1,3.481557071E-1,9.954740524E0
2.038834876E1,-4.803591371E-1,3.367897868E-1,1.002831936E1
2.040846022E1,-5.359922647E-1,3.104687333E-1,9.970891953E0
2.042857168E1,-5.006981492E-1,3.200400174E-1,9.936794281E0
2.044868314E1,-4.959124923E-1,3.625126183E-1,9.914062500E0
2.046879459E1,-4.648058116E-1,3.948157430E-1,9.943374634E0
2.048890605E1,-3.876372576E-1,4.049852192E-1,9.950552940E0
2.050901751E1,-4.223332107E-1,4.295116663E-1,9.903892517E0
2.052912892E1,-4.115654826E-1,4.235295951E-1,9.835099220E0
2.054924038E1,-3.702892959E-1,4.247260094E-1,9.871589661E0
2.056935183E1,-3.876372576E-1,4.187439680E-1,9.929615974E0
2.058946329E1,-3.678964674E-1,3.954139352E-1,9.920642853E0
2.060957475E1,-4.025924206E-1,3.924229145E-1,9.924830437E0
2.062968621E1,-4.259224236E-1,3.984049559E-1,9.921240807E0
2.064979767E1,-4.785645306E-1,3.960121572E-1,9.935597420E0
2.066990912E1,-4.456632137E-1,3.631108403E-1,9.975079536E0
2.069002053E1,-3.864408433E-1,3.864408433E-1,9.930811882E0
2.071013199E1,-4.205385745E-1,3.942175210E-1,9.884750366E0
2.073024345E1,-4.725824594E-1,3.720839322E-1,9.897313118E0
2.075035491E1,-4.875376225E-1,3.738785386E-1,9.924231529E0
2.077046636E1,-4.731806815E-1,3.930211067E-1,9.914062500E0
2.079057782E1,-4.007977843E-1,3.876372576E-1,9.918250084E0
2.081068928E1,-3.690928817E-1,3.744767308E-1,9.932606697E0
2.083080074E1,-4.456632137E-1,3.583251834E-1,9.895518303E0
2.085091220E1,-5.054838061E-1,3.672982752E-1,9.933803558E0
2.087102360E1,-3.565305769E-1,3.750749528E-1,9.944570541E0
2.089113506E1,-3.254238665E-1,4.163511395E-1,9.967302322E0
2.091124652E1,-4.133601189E-1,4.390829504E-1,1.003789139E1
2.093135798E1,-4.582255483E-1,4.480560422E-1,9.993623734E0
2.095146944E1,-4.426721931E-1,4.289134443E-1,9.891928673E0
2.097158090E1,-4.570291340E-1,3.858426511E-1,9.848259926E0
2.099169235E1,-4.396811724E-1,3.571287692E-1,9.902696609E0
2.101180381E1,-4.396811724E-1,3.834498227E-1,9.900303841E0
2.103191527E1,-4.534398913E-1,4.265206456E-1,9.829116821E0
2.105202668E1,-4.839483798E-1,4.438686073E-1,9.743574142E0
2.107213814E1,-4.767699242E-1,4.247260094E-1,9.764511108E0
2.109224959E1,-4.995017350E-1,3.810569942E-1,9.771689415E0
2.111236105E1,-5.611169338E-1,3.493520916E-1,9.789635658E0
2.113247251E1,-5.449653864E-1,3.774677813E-1,9.893723488E0
2.115258397E1,-4.301098585E-1,3.738785386E-1,1.003011417E1
2.117269543E1,-4.169493318E-1,3.403790295E-1,1.018744278E1
2.119280689E1,-5.132604837E-1,3.535395563E-1,1.014078236E1
2.121291834E1,-4.456632137E-1,3.960121572E-1,9.969695091E0
2.123302975E1,-4.055834413E-1,4.456632137E-1,9.842277527E0
2.125314121E1,-4.289134443E-1,4.600201547E-1,9.880562782E0
2.127325267E1,-3.858426511E-1,4.360919297E-1,9.953543663E0
2.129336412E1,-2.667997181E-1,4.247260094E-1,9.979865074E0
2.131347558E1,-2.225325108E-1,4.372883439E-1,9.908080101E0
2.133358704E1,-3.008974493E-1,4.462614357E-1,9.891928673E0
2.135369850E1,-3.804588020E-1,4.456632137E-1,9.898509026E0
2.137380996E1,-5.072783828E-1,4.462614357E-1,9.905089378E0
2.139392142E1,-4.845465720E-1,4.325026870E-1,9.912267685E0
2.141403288E1,-4.630111754E-1,4.325026870E-1,9.897911072E0
2.143414428E1,-4.181457460E-1,4.133601189E-1,9.922437668E0
2.145425574E1,-4.725824594E-1,3.996013701E-1,9.926026344E0
2.147436720E1,-5.497509837E-1,4.187439680E-1,9.837491989E0
2.149447866E1,-4.821537733E-1,4.354937077E-1,9.777671814E0
2.151459011E1,-3.906283081E-1,4.408775866E-1,9.801001549E0
2.153470157E1,-4.516452849E-1,4.336991012E-1,9.854840279E0
2.155481303E1,-4.073780477E-1,4.247260094E-1,9.903294563E0
2.157492449E1,-4.031906128E-1,4.390829504E-1,9.940383911E0
2.159503595E1,-4.636093974E-1,4.372883439E-1,9.994221687E0
2.161514735E1,-4.163511395E-1,4.313062727E-1,1.000259686E1
2.163525881E1,-3.667000830E-1,4.073780477E-1,9.974481583E0
2.165537027E1,-4.474578202E-1,4.157529473E-1,9.943972588E0
2.167548173E1,-4.821537733E-1,4.169493318E-1,9.894919395E0
2.169559319E1,-4.073780477E-1,3.960121572E-1,9.862616539E0
2.171570465E1,-4.121637046E-1,4.085744619E-1,9.832108498E0
2.173581610E1,-4.612165689E-1,4.145565331E-1,9.875777245E0
2.175592756E1,-4.719842672E-1,4.552344978E-1,9.939785004E0
2.177603902E1,-4.366901219E-1,5.210371017E-1,9.921240807E0
2.179615048E1,-4.522434771E-1,5.216353536E-1,9.790832520E0
2.181626194E1,-4.863412082E-1,4.426721931E-1,9.788438797E0
2.183637334E1,-5.174478889E-1,3.840480447E-1,9.872786522E0
2.185648485E1,-3.726821244E-1,3.284149170E-1,9.865608215E0
2.187659626E1,-2.338984162E-1,2.662015259E-1,9.866206169E0
2.189670772E1,-3.595215976E-1,2.518445849E-1,9.978070259E0
2.191681918E1,-5.407779217E-1,2.608176768E-1,1.007617569E1
2.193693064E1,-5.916253924E-1,3.122633696E-1,1.016650486E1
2.195704209E1,-5.318048596E-1,2.907279432E-1,1.030349445E1
2.197715355E1,-4.971089065E-1,2.889333367E-1,1.027597713E1
2.199726501E1,-4.743770957E-1,3.074777126E-1,1.006780148E1
2.201737647E1,-4.426721931E-1,3.523431420E-1,9.884750366E0
2.203748793E1,-4.935196638E-1,4.378865361E-1,9.774680138E0
2.205759938E1,-4.510470629E-1,5.036891699E-1,9.736394882E0
2.207771079E1,-3.762713671E-1,5.527420044E-1,9.774082184E0
2.209782225E1,-3.385843933E-1,5.928218365E-1,9.838089943E0
2.211793371E1,-2.991028428E-1,6.191428304E-1,9.875777245E0
2.213804517E1,-3.128615618E-1,5.898307562E-1,9.869196892E0
2.215815662E1,-3.349951804E-1,5.455635786E-1,9.821340561E0
2.217826808E1,-3.792623878E-1,5.054838061E-1,9.810572624E0
2.219837954E1,-4.223332107E-1,4.863412082E-1,9.851848602E0
2.221849100E1,-4.911268353E-1,4.881358147E-1,9.897313118E0
2.223860246E1,-4.492524564E-1,4.875376225E-1,9.963115692E0
2.225871392E1,-3.690928817E-1,4.390829504E-1,1.012642574E1
2.227882538E1,-3.607180119E-1,3.912265003E-1,1.026221848E1
2.229893683E1,-4.097708762E-1,3.924229145E-1,1.024008465E1
2.231904824E1,-4.941178858E-1,4.289134443E-1,1.010907745E1
2.233915970E1,-5.306084156E-1,4.558327198E-1,9.974481583E0
2.235927116E1,-5.389832854E-1,5.114658475E-1,9.818947792E0
2.237938261E1,-5.006981492E-1,5.742774606E-1,9.772886276E0
2.239949407E1,-4.211367965E-1,5.563312769E-1,9.796813965E0
2.241960553E1,-4.013960063E-1,5.048855543E-1,9.717850685E0
2.243971699E1,-5.300102234E-1,4.725824594E-1,9.647262573E0
2.245982845E1,-5.916253924E-1,4.935196638E-1,9.609575272E0
2.247993991E1,-6.203392744E-1,5.162515044E-1,9.622138023E0
2.250005136E1,-6.747759581E-1,4.965106845E-1,9.772287369E0
2.252016282E1,-6.957131624E-1,5.054838061E-1,9.844670296E0
2.254027428E1,-6.275177598E-1,4.731806815E-1,9.884750366E0
2.256038574E1,-6.652047038E-1,4.977070987E-1,9.968499184E0
2.258049715E1,-7.130611539E-1,5.395814776E-1,1.003250694E1
2.260060860E1,-6.311069727E-1,4.157529473E-1,1.006780148E1
2.262072006E1,-6.143572330E-1,5.042873621E-1,1.012702370E1
2.264083152E1,-5.557330847E-1,5.210371017E-1,1.002831936E1
2.266094298E1,-4.336991012E-1,5.850451589E-1,9.958329201E0
2.268105444E1,-3.894318938E-1,6.005984545E-1,1.002951622E1
2.270116590E1,-3.894318938E-1,6.915257573E-1,1.012821960E1
2.272127735E1,-5.096712112E-1,6.634100676E-1,1.005165005E1
2.274138881E1,-1.710868180E-1,7.633104324E-1,9.908679008E0
2.276150027E1,6.879365444E-2,7.896314859E-1,9.854242325E0
2.278161173E1,1.477568001E-1,8.093722463E-1,1.015334511E1
2.280172319E1,1.740778536E-1,7.549355626E-1,1.031426239E1
2.282183465E1,-6.400800496E-2,6.472585201E-1,1.017667484E1
2.284194605E1,-5.084748194E-2,6.029912829E-1,1.009232807E1
2.286205751E1,1.663011760E-1,6.885347366E-1,1.016829967E1
2.288216897E1,1.328016520E-1,1.094716311E0,9.934401512E0
2.290228043E1,9.320043921E-1,6.849454641E-1,9.798010826E0
2.292239188E1,1.225125194E0,6.813562512E-1,1.005763149E1
2.294250334E1,7.268198729E-1,7.980063558E-1,1.038245773E1
2.296261480E1,6.161518097E-1,6.388836503E-1,1.055055332E1
2.298272626E1,1.509272933E0,2.434697002E-1,1.071924686E1
2.300283772E1,3.559323788E0,-5.772684813E-1,1.014556789E1
2.302294918E1,3.495913982E0,1.098305583E0,9.504291534E0
2.304306064E1,2.989233732E0,1.516451359E0,9.890133858E0
2.306317209E1,2.947957516E0,1.155135155E0,9.640084267E0
2.308328355E1,2.523231506E0,1.290927768E0,9.776474953E0
2.310339501E1,2.483151674E0,1.826321840E0,9.550951958E0
2.312350647E1,2.979662418E0,2.362314224E0,8.723632812E0
2.314361793E1,3.764508247E0,2.577069998E0,8.489734650E0
2.316372938E1,4.121636868E0,2.281556368E0,8.536993027E0
2.318384079E1,2.587837696E0,1.643869162E0,9.229117393E0
2.320395225E1,3.254238844E0,2.719442844E0,9.249456406E0
2.322406371E1,4.504488468E0,2.449054003E0,8.327022552E0
2.324417517E1,4.470390797E0,3.217149973E0,7.929215908E0
2.326428662E1,4.043870449E0,3.577269793E0,8.106285095E0
2.328439808E1,4.130012035E0,3.166302681E0,7.990232944E0
2.330450954E1,4.627718925E0,2.693720102E0,7.768298626E0
2.332462100E1,4.360919476E0,2.636292458E0,7.935198307E0
2.334473246E1,3.902693748E0,2.506481647E0,7.948956966E0
2.336484392E1,5.316852093E0,2.315055847E0,6.247660160E0
2.338495538E1,5.885147095E0,2.557329178E0,5.596213818E0
2.340506683E1,5.931807518E0,2.556132793E0,4.735395908E0
2.342517829E1,5.974279881E0,2.855833769E0,5.280959606E0
2.344528975E1,5.949155331E0,2.553141832E0,6.766304016E0
2.346540121E1,5.818746567E0,1.416550994E0,7.721638680E0
2.348551267E1,5.135595798E0,1.328614831E0,7.945965767E0
2.350562412E1,5.220541000E0,1.071386337E0,7.899305820E0
2.352573553E1,5.215157032E0,8.506484628E-1,8.435297966E0
2.354584699E1,5.006981373E0,9.236295223E-1,8.502895355E0
2.356595845E1,4.940580368E0,7.166503668E-1,7.794021606E0
2.358606991E1,4.689932346E0,1.151545882E0,7.141977310E0
2.360618136E1,4.848456860E0,1.540379524E0,6.985845566E0
2.362629282E1,5.310271740E0,1.645065546E0,6.909275532E0
2.364640428E1,5.634499073E0,1.728216171E0,7.195217609E0
2.366651574E1,5.721837044E0,1.770688772E0,7.945367813E0
2.368662720E1,5.617151260E0,1.624128342E0,9.233902931E0
2.370673866E1,5.726024628E0,1.636690736E0,9.990633011E0
2.372685011E1,4.965705395E0,1.256830096E0,9.535996437E0
2.374696157E1,3.888336897E0,1.017547846E0,9.752547264E0
2.376707303E1,4.960321426E0,1.797009826E0,9.826126099E0
2.378718449E1,4.905884743E0,2.108675003E0,7.814360619E0
2.380729595E1,4.242474556E0,1.274776220E0,6.921239376E0
2.382740741E1,4.221537113E0,4.390829504E-1,8.062017441E0
2.384751886E1,6.440880299E0,5.682953596E-1,8.438887596E0
2.386763032E1,9.631111145E0,8.171489239E-1,8.237890244E0
2.388774178E1,4.467998028E0,1.143171072E0,8.191229820E0
2.390785324E1,2.754737139E0,6.263213158E-1,7.807182312E0
2.392796465E1,1.482353687E0,-4.438686073E-1,7.824530125E0
2.394807610E1,2.057827473E0,-8.303094506E-1,7.509275436E0
2.396818756E1,4.074976921E0,-6.759724021E-1,8.837292671E0
2.398829902E1,6.132804394E0,-1.612762451E0,9.336793900E0
2.400841048E1,7.079165936E0,-2.383251429E0,9.729815483E0
2.402852194E1,6.836892605E0,-2.725425005E0,1.032383347E1
2.404863340E1,6.549155712E0,-2.668595552E0,1.128754234E1
2.406874485E1,6.364310265E0,-2.747558594E0,1.192403316E1
2.408885631E1,5.914459229E0,-2.720639229E0,1.209870911E1
2.410896777E1,5.561518192E0,-2.489133835E0,1.219621658E1
2.412907923E1,4.925027370E0,-2.574677229E0,1.146221828E1
2.414919069E1,4.367499352E0,-2.472982168E0,1.020060253E1
2.416930215E1,3.962514400E0,-2.087737799E0,9.142974854E0
2.418941360E1,4.085744858E0,-1.862214208E0,8.438887596E0
2.420952506E1,4.396213531E0,-1.663011789E0,7.997411251E0
2.422963652E1,4.692325115E0,-1.384846091E0,7.757531166E0
2.424974798E1,5.080560684E0,-1.088136077E0,7.694719315E0
2.426985944E1,5.279164791E0,-8.506484628E-1,7.653443336E0
2.428997090E1,5.351547718E0,-5.647061467E-1,7.689335346E0
2.431008235E1,5.379663467E0,-2.590230405E-1,7.552944660E0
2.433019381E1,5.352744102E0,-2.811566554E-2,7.185646534E0
2.435030527E1,5.334199905E0,2.153540403E-1,6.853044033E0
2.437041673E1,5.566901684E0,4.444667995E-1,6.736393929E0
2.439052819E1,6.115456581E0,6.412764788E-1,6.710072994E0
2.441063965E1,6.939185619E0,8.751748800E-1,6.521039963E0
2.443075105E1,7.174878597E0,1.015753269E0,6.138786316E0
2.445086251E1,6.801000118E0,1.089930773E0,5.905486107E0
2.447097397E1,6.521039963E0,1.073779106E0,5.828916073E0
2.449108543E1,6.571289062E0,9.637092948E-1,5.898906231E0
2.451119688E1,6.939784050E0,8.697910309E-1,5.879165173E0
2.453130834E1,7.119843960E0,7.722834945E-1,6.247061729E0
2.455141980E1,7.105486870E0,5.766702294E-1,6.734599113E0
2.457153126E1,6.994220734E0,3.906283081E-1,7.302894592E0
2.459164272E1,6.934400082E0,2.350948304E-1,7.794021606E0
2.461175418E1,6.985845566E0,1.345962733E-1,8.050053596E0
2.463186564E1,7.055237770E0,6.999006122E-2,8.033902168E0
2.465197709E1,6.985845566E0,5.982056633E-2,7.766504288E0
2.467208855E1,6.811768055E0,4.247260094E-2,7.568498135E0
2.469220001E1,6.690331936E0,-1.196411345E-2,7.579864025E0
2.471231147E1,6.647261143E0,-8.494520187E-2,7.760521889E0
2.473242293E1,6.661019802E0,-1.746760458E-1,7.688737392E0
2.475253438E1,6.623332977E0,-1.298106313E-1,7.552944660E0
2.477264584E1,6.507879257E0,-1.286142170E-1,7.649854183E0
2.479275730E1,6.418148518E0,-1.740778536E-1,7.683951855E0
2.481286876E1,6.410371780E0,-1.375873089E-1,7.694719315E0
2.483298022E1,6.455835342E0,-3.708875179E-2,7.709674358E0
2.485309168E1,6.613761902E0,-6.520441920E-2,7.635497093E0
2.487320314E1,6.693921566E0,-4.187439755E-2,7.528418064E0
2.489331459E1,6.781259537E0,-4.127619043E-2,7.423133850E0
2.491342605E1,6.871588230E0,-1.148554832E-1,7.338188648E0
2.493353751E1,6.765107632E0,-2.171486616E-1,7.346563816E0
2.495364897E1,6.587440968E0,-2.440679073E-1,7.534400463E0
2.497376043E1,6.514459610E0,-1.968096644E-1,7.823931694E0
2.499387188E1,6.517450809E0,-1.746760458E-1,7.864011765E0
2.501398334E1,6.552146435E0,-1.830509305E-1,7.606184959E0
2.503409480E1,6.568298340E0,-2.356930375E-1,7.379465103E0
2.505420626E1,6.576673031E0,-2.566302419E-1,7.290332317E0
2.507431772E1,6.564708710E0,-2.153540403E-1,7.307082176E0
2.509442918E1,6.465406895E0,-1.663011760E-1,7.371089935E0
2.511454064E1,6.320641041E0,-7.417750359E-2,7.469794273E0
2.513465209E1,6.348158360E0,-3.170489892E-2,7.551149845E0
2.515476350E1,6.424130440E0,-3.589234129E-2,7.527221680E0
2.517487501E1,6.435496330E0,-5.144568533E-2,7.527820110E0
2.519498642E1,6.490531445E0,-1.250249892E-1,7.616952896E0
2.521509788E1,6.503093719E0,-1.914258152E-1,7.759923935E0
2.523520933E1,6.446862221E0,-2.691925466E-1,7.763513088E0
2.525532079E1,6.337390900E0,-2.871387303E-1,7.737790108E0
2.527543225E1,6.345167637E0,-2.745763958E-1,7.713263988E0
2.529554376E1,6.353542328E0,-2.673979402E-1,7.588837147E0
2.531565517E1,6.317051888E0,-2.171486616E-1,7.468597889E0
2.533576662E1,6.365506649E0,-2.386840582E-1,7.445267677E0
2.535587808E1,6.399604321E0,-2.338984162E-1,7.491329670E0
2.537598954E1,6.434898376E0,-1.986042857E-1,7.619943619E0
2.539610100E1,6.494120598E0,-2.015953064E-1,7.637889862E0
2.541621246E1,6.455237389E0,-2.159522474E-1,7.587042332E0
2.543632392E1,6.399604321E0,-2.201396823E-1,7.507481098E0
2.545643538E1,6.357729912E0,-1.824527234E-1,7.358527660E0
2.547654683E1,6.247660160E0,-1.908276081E-1,7.371089935E0
2.549665829E1,6.200401783E0,-2.201396823E-1,7.462017536E0
2.551676975E1,6.289534092E0,-2.715853751E-1,7.602595806E0
2.553688121E1,6.428916454E0,-3.517449200E-1,7.733004570E0
2.555699267E1,6.552146435E0,-3.846462369E-1,7.816154957E0
2.557710412E1,6.531209469E0,-3.960121572E-1,7.800003529E0
2.559721558E1,6.362515450E0,-4.630111754E-1,7.804191113E0
2.561732704E1,6.238088608E0,-5.162515044E-1,7.861618996E0
2.563743850E1,6.188437462E0,-5.407779217E-1,7.832904816E0
2.565754996E1,6.095715523E0,-5.443671346E-1,7.707880020E0
2.567766142E1,6.139384747E0,-5.204389095E-1,7.578667641E0
2.569777288E1,6.190830231E0,-5.036891699E-1,7.545167923E0
2.571788433E1,6.178866386E0,-5.096712112E-1,7.641479015E0
2.573799579E1,6.198009014E0,-5.234299302E-1,7.747959614E0
2.575810725E1,6.264409542E0,-5.324030519E-1,7.789236069E0
2.577821871E1,6.405586243E0,-5.186443329E-1,7.710870743E0
2.579833017E1,6.481558323E0,-5.084748268E-1,7.674978733E0
2.581844163E1,6.430710793E0,-5.198407173E-1,7.724629879E0
2.583855308E1,6.377470493E0,-5.335994363E-1,7.762914658E0
2.585866454E1,6.383452415E0,-5.335994363E-1,7.789236069E0
2.587877600E1,6.389434814E0,-5.551348329E-1,7.733603001E0
2.589888746E1,6.366703033E0,-5.623133183E-1,7.648059368E0
2.591899892E1,6.444469452E0,-5.587241054E-1,7.579265594E0
2.593911038E1,6.494719028E0,-5.479564071E-1,7.567899704E0
2.595922183E1,6.462415695E0,-5.760720372E-1,7.622336388E0
2.597933329E1,6.477370739E0,-5.862415433E-1,7.692924976E0
2.599944475E1,6.515058041E0,-5.653043389E-1,7.707880020E0
2.601955621E1,6.511468410E0,-5.892325640E-1,7.690532207E0
2.603966767E1,6.412764549E0,-6.041877270E-1,7.637291908E0
2.605977913E1,6.349953175E0,-6.017948985E-1,7.645068169E0
2.607989058E1,6.382256031E0,-5.808576941E-1,7.635497093E0
2.610000204E1,6.396613121E0,-5.581258535E-1,7.575676441E0
2.612011350E1,6.387042046E0,-5.425725579E-1,7.452445984E0
2.614022496E1,6.380461693E0,-5.084748268E-1,7.453642368E0
2.616033642E1,6.233303070E0,-5.545366406E-1,7.683951855E0
2.618044788E1,6.223731518E0,-6.167500615E-1,7.955537319E0
2.620055933E1,6.273981094E0,-6.125625968E-1,8.087141991E0
2.622067079E1,6.336194515E0,-5.760720372E-1,8.020143509E0
2.624078225E1,6.352943897E0,-5.760720372E-1,7.784450054E0
2.626089371E1,6.332006931E0,-5.653043389E-1,7.574480057E0
2.628100517E1,6.333203316E0,-5.581258535E-1,7.522436142E0
2.630111663E1,6.319444656E0,-5.551348329E-1,7.612166882E0
2.632122808E1,6.327819347E0,-5.575276613E-1,7.706085205E0
2.634133954E1,6.282954216E0,-5.413761139E-1,7.812565804E0
2.636145100E1,6.281757832E0,-5.479564071E-1,7.821538925E0
2.638156246E1,6.276373863E0,-5.204389095E-1,7.752745152E0
2.640167392E1,6.257231236E0,-4.761717021E-1,7.648059368E0
2.642178538E1,6.212964058E0,-4.851447940E-1,7.531409264E0
2.644189683E1,6.178866386E0,-4.887340367E-1,7.516454220E0
2.646200829E1,6.232106686E0,-4.689932466E-1,7.579265594E0
2.648211975E1,6.293721676E0,-4.474578202E-1,7.604390144E0
2.650223121E1,6.319444656E0,-4.277170599E-1,7.663014412E0
2.652234267E1,6.402595043E0,-4.307080805E-1,7.740182877E0
2.654245413E1,6.408577442E0,-4.301098585E-1,7.851449490E0
2.656256558E1,6.332605362E0,-4.402793646E-1,7.912466049E0
2.658267704E1,6.241677761E0,-4.336991012E-1,7.877770424E0
2.660278850E1,6.216553211E0,-4.109672904E-1,7.777271748E0
2.662290001E1,6.238088608E0,-4.079762697E-1,7.644470215E0
2.664301147E1,6.236892223E0,-4.121637046E-1,7.561319351E0
2.666312293E1,6.224927902E0,-4.133601189E-1,7.567301750E0
2.668323439E1,6.205187321E0,-4.354937077E-1,7.655237675E0
2.670334584E1,6.215955257E0,-4.366901219E-1,7.703094482E0
2.672345730E1,6.233901024E0,-4.193421602E-1,7.667799950E0
2.674356876E1,6.223133564E0,-4.121637046E-1,7.681559086E0
2.676368022E1,6.212964058E0,-3.870390654E-1,7.726424217E0
2.678379168E1,6.206982136E0,-3.708875179E-1,7.749754429E0
2.680390314E1,6.229115486E0,-3.708875179E-1,7.744968891E0
2.682401459E1,6.236293793E0,-3.607180119E-1,7.730611801E0
2.684412605E1,6.256632805E0,-3.559323549E-1,7.698906898E0
2.686423751E1,6.275177479E0,-3.457628787E-1,7.656434059E0
2.688434897E1,6.245865345E0,-3.332005441E-1,7.635497093E0
2.690446043E1,6.273382664E0,-3.469592929E-1,7.630711555E0
2.692457189E1,6.253642082E0,-3.684946895E-1,7.628318787E0
2.694468334E1,6.224927902E0,-3.960121572E-1,7.663612843E0
2.696479480E1,6.251249313E0,-4.229314029E-1,7.758129120E0
2.698490626E1,6.344569206E0,-4.241278172E-1,7.793423176E0
2.700501772E1,6.388836384E0,-4.217349887E-1,7.794619560E0
2.702512918E1,6.397211552E0,-3.996013701E-1,7.795217991E0
2.704524064E1,6.434299946E0,-3.738785386E-1,7.759923935E0
2.706535209E1,6.466004848E0,-3.631108403E-1,7.694719315E0
2.708546355E1,6.436094761E0,-3.505485058E-1,7.700701237E0
2.710557501E1,6.429514408E0,-3.343969584E-1,7.748558044E0
2.712568647E1,6.450451851E0,-3.439682424E-1,7.704290867E0
2.714579793E1,6.408577442E0,-3.284149170E-1,7.582854748E0
2.716590939E1,6.266204357E0,-2.859423161E-1,7.564310551E0
2.718602084E1,6.173482418E0,-2.763710022E-1,7.587042332E0
2.720613230E1,6.107679844E0,-3.062812984E-1,7.610372543E0
2.722624376E1,6.117250919E0,-3.475574851E-1,7.659425259E0
2.724635522E1,6.183053493E0,-3.798605800E-1,7.753942013E0
2.726646668E1,6.220740795E0,-3.786641955E-1,7.828119278E0
2.728657814E1,6.235097408E0,-3.529413342E-1,7.855038643E0
2.730668959E1,6.231508255E0,-3.439682424E-1,7.852047443E0
2.732680105E1,6.241677761E0,-3.607180119E-1,7.779664516E0
2.734691256E1,6.267400742E0,-3.780659735E-1,7.705487251E0
2.736702402E1,6.319444656E0,-3.326023519E-1,7.692924976E0
2.738713548E1,6.345765591E0,-2.662015259E-1,7.685148239E0
2.740724694E1,6.383452415E0,-2.267199457E-1,7.630113125E0
2.742735840E1,6.364310265E0,-2.147558331E-1,7.575676441E0
2.744746985E1,6.350551128E0,-2.279163599E-1,7.525427341E0
2.746758131E1,6.291927338E0,-2.464607358E-1,7.518846989E0
2.748769277E1,6.254838467E0,-2.805584669E-1,7.558926582E0
2.750780423E1,6.253642082E0,-3.062812984E-1,7.671389580E0
2.752791569E1,6.300302029E0,-3.236292601E-1,7.785646915E0
2.754802715E1,6.327221394E0,-3.379862010E-1,7.855038643E0
2.756813860E1,6.362515450E0,-3.296113312E-1,7.874779224E0
2.758825006E1,6.391827583E0,-2.961117923E-1,7.834101200E0
2.760836152E1,6.371488571E0,-2.763710022E-1,7.740182877E0
2.762847298E1,6.286543369E0,-2.518445849E-1,7.619345665E0
2.764858444E1,6.235097408E0,-2.440679073E-1,7.576872826E0
2.766869590E1,6.241079807E0,-2.506481707E-1,7.561319351E0
2.768880735E1,6.252445698E0,-2.638086975E-1,7.588238716E0
2.770891881E1,6.305087566E0,-2.811566591E-1,7.643871784E0
2.772903027E1,6.320641041E0,-2.961117923E-1,7.695915699E0
2.774914173E1,6.247061729E0,-3.110669553E-1,7.753343582E0
2.776925319E1,6.249454498E0,-3.230310678E-1,7.780262947E0
2.778936465E1,6.284150600E0,-3.176472187E-1,7.744370461E0
2.780947610E1,6.318248272E0,-3.140579760E-1,7.695317745E0
2.782958756E1,6.330212116E0,-2.955136001E-1,7.740781307E0
2.784969902E1,6.361917019E0,-2.895315289E-1,7.813762188E0
2.786981053E1,6.423532486E0,-2.703889608E-1,7.811369419E0
2.788992194E1,6.407381058E0,-2.452643216E-1,7.695317745E0
2.791003345E1,6.373881340E0,-2.578266263E-1,7.681559086E0
2.793014491E1,6.361319065E0,-2.560320199E-1,7.650452137E0
2.795025636E1,6.335596085E0,-2.195414752E-1,7.599604607E0
2.797036782E1,6.325426579E0,-1.962114573E-1,7.560122967E0
2.799047928E1,6.258427620E0,-1.734796464E-1,7.514659405E0
2.801059074E1,6.163312912E0,-1.902294010E-1,7.533802032E0
2.803070220E1,6.125626087E0,-2.458625287E-1,7.575676441E0
2.805081366E1,6.149554253E0,-2.871387303E-1,7.616354465E0
2.807092511E1,6.143572330E0,-2.883351147E-1,7.685148239E0
2.809103657E1,6.198009014E0,-3.128615618E-1,7.734799385E0
2.811114803E1,6.232106686E0,-3.092723191E-1,7.779066563E0
2.813125949E1,6.274579048E0,-3.343969584E-1,7.801199913E0
2.815137095E1,6.319444656E0,-3.038884699E-1,7.837690353E0
2.817148241E1,6.393621922E0,-2.847459018E-1,7.860422611E0
2.819159386E1,6.454041004E0,-3.182454109E-1,7.819146156E0
2.821170532E1,6.501897335E0,-3.535395563E-1,7.773084164E0
2.823181678E1,6.512664795E0,-3.284149170E-1,7.765307903E0
2.825192824E1,6.483951092E0,-2.961117923E-1,7.773682594E0
2.827203975E1,6.428916454E0,-2.697907388E-1,7.706683636E0
2.829215121E1,6.427121639E0,-2.446661144E-1,7.616952896E0
2.831226267E1,6.448657036E0,-2.141576260E-1,7.542775154E0
2.833237412E1,6.426523209E0,-1.878365725E-1,7.454240799E0
2.835248558E1,6.387042046E0,-1.633101404E-1,7.401598454E0
2.837259704E1,6.293123722E0,-1.812563092E-1,7.447660446E0
2.839270850E1,6.270391941E0,-2.368894368E-1,7.567301750E0
2.841281996E1,6.265605927E0,-2.656033039E-1,7.703094482E0
2.843293142E1,6.273981094E0,-2.727817893E-1,7.849654675E0
2.845304288E1,6.256034851E0,-2.853440940E-1,7.933403492E0
2.847315433E1,6.221937180E0,-3.164508045E-1,7.950751305E0
2.849326579E1,6.212964058E0,-3.487538993E-1,7.918448448E0
2.851337725E1,6.210571289E0,-3.367897868E-1,7.827520847E0
2.853348871E1,6.158527374E0,-3.032902777E-1,7.703094482E0
2.855360017E1,6.166304111E0,-2.482553422E-1,7.568498135E0
2.857371162E1,6.255436420E0,-2.003988922E-1,7.496713161E0
2.859382308E1,6.367899418E0,-1.740778536E-1,7.445267677E0
2.861393459E1,6.412764549E0,-1.788634956E-1,7.480561733E0
2.863404605E1,6.453442574E0,-2.021935135E-1,7.575676441E0
2.865415751E1,6.501298904E0,-2.213360965E-1,7.667799950E0
2.867426897E1,6.455237389E0,-2.225325108E-1,7.736593723E0
2.869438043E1,6.355935097E0,-2.392822653E-1,7.819744587E0
2.871449188E1,6.278168201E0,-2.841476798E-1,7.861020565E0
2.873460334E1,6.257231236E0,-3.122633696E-1,7.849654675E0
2.875471480E1,6.239883423E0,-3.409772217E-1,7.825726509E0
2.877482626E1,6.201598167E0,-3.373879790E-1,7.806583881E0
2.879493772E1,6.162714481E0,-3.044866920E-1,7.779664516E0
2.881504918E1,6.138786316E0,-2.811566591E-1,7.721638680E0
2.883516064E1,6.146563053E0,-2.488535494E-1,7.636095047E0
2.885527209E1,6.186643124E0,-2.291127741E-1,7.554141045E0
2.887538355E1,6.253043652E0,-2.165504545E-1,7.538587570E0
2.889549506E1,6.281159401E0,-2.333002090E-1,7.610970497E0
2.891560647E1,6.279364586E0,-2.554338276E-1,7.749754429E0
2.893571798E1,6.302694798E0,-2.835494876E-1,7.944769382E0
2.895582944E1,6.303891182E0,-3.092723191E-1,8.036892891E0
2.897594090E1,6.263213158E0,-3.314059377E-1,7.934001446E0
2.899605235E1,6.250650883E0,-3.056831062E-1,7.762316704E0
2.901616381E1,6.279364586E0,-2.925225794E-1,7.644470215E0
2.903627527E1,6.253043652E0,-2.596212626E-1,7.594819069E0
2.905638673E1,6.240481377E0,-2.171486616E-1,7.575078487E0
2.907649819E1,6.232106686E0,-1.884347796E-1,7.500900745E0
2.909660965E1,6.232704639E0,-2.189432681E-1,7.432106972E0
2.911672110E1,6.229713917E0,-2.482553422E-1,7.493722439E0
2.913683256E1,6.256632805E0,-2.985046208E-1,7.621140003E0
2.915694402E1,6.305685997E0,-3.505485058E-1,7.719245911E0
2.917705553E1,6.331408501E0,-3.720839322E-1,7.859225750E0
2.919716699E1,6.396014690E0,-3.391826153E-1,8.047660828E0
2.921727845E1,6.416952133E0,-2.919243574E-1,8.099704742E0
2.923738991E1,6.385845661E0,-2.853440940E-1,7.968697548E0
2.925750136E1,6.359524250E0,-2.656033039E-1,7.784450054E0
2.927761282E1,6.326025009E0,-2.255235314E-1,7.640282631E0
2.929772428E1,6.337390900E0,-2.273181528E-1,7.661220074E0
2.931783574E1,6.324230194E0,-2.662015259E-1,7.753942013E0
2.933794720E1,6.374479294E0,-2.991028428E-1,8.013563156E0
2.935805866E1,6.303891182E0,-3.649054468E-1,8.047062874E0
2.937817011E1,6.169294834E0,-3.451646566E-1,7.963313580E0
2.939828157E1,6.195017815E0,-3.296113312E-1,7.786843300E0
2.941839303E1,6.229115486E0,-2.667997181E-1,7.596613884E0
2.943850454E1,6.230910301E0,-2.063809484E-1,7.403393269E0
2.945861600E1,6.142973900E0,-1.411765367E-1,7.279564857E0
2.947872746E1,6.118447304E0,-1.106680483E-1,7.334001541E0
2.949883892E1,6.169893265E0,-1.375873089E-1,7.432705402E0
2.951895038E1,6.177670002E0,-1.692921966E-1,7.570292473E0
2.953906183E1,6.243472576E0,-2.063809484E-1,7.746763229E0
2.955917329E1,6.327221394E0,-2.338984162E-1,7.938787460E0
2.957928475E1,6.343372822E0,-2.548356056E-1,8.057231903E0
2.959939621E1,6.256632805E0,-2.584248483E-1,8.087141991E0
2.961950767E1,6.244668961E0,-2.147558331E-1,8.081160545E0
2.963961913E1,6.211169243E0,-1.998006850E-1,7.965108395E0
2.965973058E1,6.171089649E0,-1.770688742E-1,7.723433495E0
2.967984209E1,6.136393547E0,-1.573280841E-1,7.526623726E0
2.969995355E1,6.189633846E0,-1.944168359E-1,7.463811874E0
2.972006501E1,6.285944939E0,-2.129612118E-1,7.604988575E0
2.974017647E1,6.326025009E0,-1.872383654E-1,7.716853142E0
2.976028793E1,6.419344902E0,-1.704886109E-1,7.917850018E0
2.978039939E1,6.475576401E0,-1.363908947E-1,8.141578674E0
2.980051084E1,6.367300987E0,-1.052841991E-1,8.134400368E0
2.982062230E1,6.282355785E0,-1.160518974E-1,8.033304214E0
2.984073376E1,6.273981094E0,-8.195417374E-2,7.974679470E0
2.986084522E1,6.208776474E0,-1.022931710E-1,7.917850018E0
2.988095668E1,6.161518097E0,-1.453639716E-1,7.875377655E0
2.990106819E1,6.034698486E0,-1.573280841E-1,7.788039684E0
2.992117965E1,5.892325878E0,-1.890329868E-1,7.712067604E0
2.994129110E1,5.814558983E0,-1.902294010E-1,7.755736351E0
2.996140256E1,5.897709846E0,-1.387837082E-1,7.917252064E0
2.998151402E1,5.983253002E0,-5.443671346E-2,8.003393173E0
3.000162548E1,6.091528416E0,1.974078640E-2,8.107481003E0
3.002173694E1,6.198606968E0,5.204389244E-2,8.191828728E0
3.004184840E1,6.315257072E0,1.034895778E-1,8.101499557E0
3.006195985E1,6.258427620E0,1.585244983E-1,8.136793137E0
3.008207131E1,5.980261803E0,1.668993831E-1,8.352746010E0
3.010218277E1,5.543571949E0,1.040877849E-1,8.659625053E0
3.012229428E1,5.103292465E0,1.010967568E-1,8.788837433E0
3.014240574E1,5.038686275E0,6.640082598E-2,8.722436905E0
3.016251720E1,5.036891460E0,2.991028363E-3,8.566903114E0
3.018262866E1,4.939982414E0,4.486542568E-2,8.462815285E0
3.020274011E1,4.883750916E0,2.512463741E-2,8.355138779E0
3.022285157E1,4.817350388E0,4.127619043E-2,8.376075745E0
3.024296303E1,4.644468784E0,5.623133108E-2,8.362915039E0
3.026307449E1,4.353142738E0,1.160518974E-1,8.569295883E0
3.028318600E1,4.226323128E0,1.764706671E-1,8.761918068E0
3.030329746E1,4.098307133E0,1.692921966E-1,8.920442581E0
3.032340892E1,3.899702787E0,1.082752272E-1,9.253045082E0
3.034352038E1,3.552743435E0,1.543370634E-1,9.427123070E0
3.036363183E1,3.360719442E0,1.716850251E-1,9.461220741E0
3.038374329E1,3.345165968E0,-7.896314561E-2,9.540184021E0
3.040385475E1,3.598805189E0,-3.421736360E-1,9.681958199E0
3.042396621E1,3.208176851E0,-3.212364316E-1,9.254241943E0
3.044407767E1,1.980658889E0,3.577269912E-1,9.589237213E0
3.046418912E1,1.317248821E0,5.042873621E-1,9.882357597E0
3.048430058E1,1.423729420E0,1.866401732E-1,9.583254814E0
3.050441209E1,2.059622049E0,-9.308080077E-1,8.539983749E0
3.052452355E1,1.157527924E0,-1.178465128E0,6.544968128E0
3.054463501E1,2.415554523E0,7.250252366E-1,7.404589653E0
3.056474647E1,3.316452265E0,2.679961324E-1,1.007916737E1
3.058485793E1,2.635694027E0,-3.248256743E-1,1.267597771E1
3.060496938E1,1.094716311E0,-5.928218365E-1,1.167637634E1
3.062508084E1,7.710871100E-1,-5.276173949E-1,1.038126087E1
3.064519230E1,1.223928809E0,2.392822690E-2,1.066959572E1
3.066530376E1,1.797608018E0,5.084748194E-2,1.090947628E1
3.068541527E1,2.045265198E0,-1.118644550E-1,1.076530933E1
3.070552673E1,2.307877541E0,-1.411765367E-1,1.067856884E1
3.072563819E1,2.232503414E0,-5.742774159E-2,1.076052380E1
3.074574965E1,1.846660852E0,7.477571070E-2,1.050748253E1
3.076586110E1,1.758126378E0,6.640082598E-2,1.003011417E1
3.078597256E1,2.582453728E0,9.990034252E-2,9.704092026E0
3.080608402E1,3.285943747E0,7.357929349E-1,9.486345291E0
3.082619548E1,3.083750248E0,1.147358418E0,9.230911255E0
3.084630699E1,2.559721947E0,1.330409408E0,9.125029564E0
3.086641845E1,2.440679073E0,1.466800332E0,9.025128365E0
3.088652991E1,2.687737942E0,1.719243050E0,8.536993027E0
3.090664136E1,2.816352367E0,1.965105653E0,7.923233986E0
3.092675282E1,2.738585472E0,1.886740685E0,7.958528042E0
3.094686428E1,2.410170555E0,1.915454507E0,8.420941353E0
3.096697574E1,2.558525562E0,1.928615093E0,8.773283958E0
3.098708720E1,2.873780012E0,1.992623091E0,8.863015175E0
3.100719871E1,3.301496983E0,2.098505497E0,8.757132530E0
3.102731017E1,3.674179077E0,2.160120726E0,8.673383713E0
3.104742163E1,3.835694790E0,2.014158487E0,8.997013092E0
3.106753308E1,3.780061483E0,2.066202402E0,9.360123634E0
3.108764454E1,3.850649834E0,2.193620205E0,9.066405296E0
3.110775600E1,3.759722471E0,2.404188633E0,8.359326363E0
3.112786746E1,3.723232031E0,2.295913219E0,8.167900085E0
3.114797892E1,2.221735716E0,2.118844509E0,8.455636978E0
3.116809038E1,2.565105915E0,1.344766378E0,1.037348461E1
3.118820188E1,2.359323025E0,1.264008522E0,1.121276665E1
3.120831348E1,1.695913076E0,1.674975872E0,1.034417248E1
3.122842494E1,2.036890268E0,1.554138303E0,9.388837814E0
3.124853639E1,2.880360365E0,1.474576950E0,9.435498238E0
3.126864785E1,2.371287346E0,1.680957913E0,9.295517921E0
3.128875931E1,2.050648928E0,1.655833244E0,9.340981483E0
3.130887077E1,2.032104731E0,1.607976794E0,9.235098839E0
3.132898228E1,2.291127682E0,1.643869162E0,9.012566566E0
3.134909374E1,2.892922640E0,1.662413478E0,9.137591362E0
3.136920520E1,3.174079180E0,1.658824325E0,9.463613510E0
3.138931665E1,3.328416348E0,1.579861164E0,9.719645500E0
3.140942811E1,3.048455954E0,1.757528186E0,9.671191216E0
3.142953957E1,3.099303484E0,1.744367719E0,9.360722542E0
3.144965103E1,3.226123095E0,1.721037745E0,9.074779510E0
3.146976249E1,3.143570662E0,1.754537225E0,9.297910690E0
3.148987395E1,3.031706333E0,1.786242127E0,9.511469841E0
3.150998546E1,2.980858803E0,1.741974831E0,9.381061554E0
3.153009691E1,2.932404041E0,1.703689694E0,9.600603104E0
3.155020837E1,3.722035646E0,1.082752228E0,9.884750366E0
3.157031983E1,3.241676569E0,1.392622828E0,1.084068298E1
3.159043129E1,2.017747641E0,2.200798512E0,1.023649502E1
3.161054275E1,1.658824325E0,2.657827854E0,8.718847275E0
3.163065426E1,2.166102648E0,2.807379246E0,8.155337334E0
3.165076572E1,1.984846354E0,3.288934708E0,9.016754150E0
3.167087718E1,1.885544300E0,3.576671600E0,8.315656662E0
3.169098863E1,2.564507723E0,3.519243956E0,8.262416840E0
3.171110009E1,2.536391973E0,3.443271875E0,8.099106789E0
3.173121155E1,1.801795483E0,3.546163082E0,8.542975426E0
3.175132301E1,1.621735573E0,3.357130051E0,8.900103569E0
3.177143447E1,1.807777524E0,3.216551781E0,9.004191399E0
3.179154598E1,1.992024899E0,3.215355396E0,9.002995491E0
3.181165744E1,1.689931035E0,3.269792080E0,9.024530411E0
3.183176889E1,1.376471281E0,3.136392355E0,8.876175880E0
3.185188035E1,9.732806087E-1,2.953939438E0,9.151947975E0
3.187199181E1,4.875376225E-1,2.922832966E0,9.340981483E0
3.189210327E1,5.527420044E-1,2.635694027E0,9.087342262E0
3.191221473E1,1.010967612E0,2.721835852E0,9.253045082E0
3.193232624E1,1.456032634E0,2.464607239E0,9.217751503E0
3.195243770E1,1.867598057E0,2.303091764E0,9.348159790E0
3.197254915E1,1.370489120E0,2.328216314E0,9.684351921E0
3.199266061E1,7.220342159E-1,2.200200319E0,9.878170013E0
3.201277207E1,6.544370055E-1,1.934597135E0,1.005523872E1
3.203288353E1,9.409775138E-1,1.731805444E0,1.023290634E1
3.205299499E1,1.238883972E0,1.573280931E0,1.044407272E1
3.207310650E1,1.506281853E0,1.530808330E0,1.060140038E1
3.209321796E1,1.636690736E0,1.561316729E0,1.055952644E1
3.211332941E1,1.255035520E0,1.646261930E0,1.036331463E1
3.213344087E1,7.776673436E-1,1.749751568E0,1.018086243E1
3.215355233E1,4.624129832E-1,1.761117458E0,1.016590691E1
3.217366379E1,4.624129832E-1,1.698305845E0,9.865608215E0
3.219377530E1,4.701896608E-1,1.858026743E0,9.530612946E0
3.221388676E1,3.822534084E-1,1.999203324E0,9.472586632E0
3.223399822E1,1.052841991E-1,1.850848317E0,9.349356651E0
3.225410968E1,-2.237289101E-1,1.643869162E0,9.297910690E0
3.227422113E1,-3.296113312E-1,1.620539188E0,9.460023880E0
3.229433259E1,-3.242274821E-1,1.614557028E0,9.794421196E0
3.231444405E1,-3.056831062E-1,1.503889084E0,1.006002426E1
3.233455556E1,-2.051845491E-1,1.426122308E0,1.015274620E1
3.235466702E1,-4.426721856E-2,1.334596872E0,1.009172916E1
3.237477848E1,-3.409772366E-2,1.318445325E0,9.957133293E0
3.239488994E1,-3.379862010E-1,1.418943882E0,9.769296646E0
3.241500139E1,-5.910272002E-1,1.533201098E0,9.735198975E0
3.243511285E1,-6.873382926E-1,1.561316729E0,9.703494072E0
3.245522431E1,-7.393822074E-1,1.506880045E0,9.717252731E0
3.247533582E1,-7.615157962E-1,1.463809252E0,9.699306488E0
3.249544728E1,-6.496513486E-1,1.381256819E0,9.591629982E0
3.251555874E1,-6.867401004E-1,1.309472203E0,9.466604233E0
3.253567020E1,-8.111668825E-1,1.278365493E0,9.326624870E0
3.255578165E1,-9.756734371E-1,1.237687469E0,9.368498802E0
3.257589311E1,-1.272383451E0,1.161715388E0,9.536594391E0
3.259600462E1,-1.386042476E0,9.481559992E-1,9.806983948E0
3.261611608E1,-1.431506157E0,7.453642488E-1,1.004327488E1
3.263622754E1,-1.517049551E0,6.095715761E-1,1.022333431E1
3.265633900E1,-1.477568030E0,5.312066078E-1,1.027418232E1
3.267645046E1,-1.423131227E0,5.341976285E-1,1.025922680E1
3.269656191E1,-1.511665702E0,6.239284873E-1,1.026700401E1
3.271667342E1,-1.540379524E0,6.891329288E-1,1.025683403E1
3.273678488E1,-1.460818172E0,7.136593461E-1,1.026341438E1
3.275689634E1,-1.345364571E0,8.057830334E-1,1.010907745E1
3.277700780E1,-1.166501045E0,8.380861282E-1,9.923035622E0
3.279711926E1,-1.062413216E0,8.315058947E-1,9.738189697E0
3.281723072E1,-1.103091240E0,8.721838593E-1,9.468399048E0
3.283734223E1,-1.300499082E0,9.320043921E-1,9.362516403E0
3.285745368E1,-1.426720500E0,8.919246197E-1,9.368498802E0
3.287756514E1,-1.471585870E0,7.806583643E-1,9.434899330E0
3.289767660E1,-1.579262972E0,6.765705943E-1,9.525228500E0
3.291778806E1,-1.712064624E0,5.647061467E-1,9.620343208E0
3.293789952E1,-1.837089539E0,4.971089065E-1,9.680762291E0
3.295801103E1,-1.850250125E0,4.618147612E-1,9.686145782E0
3.297812249E1,-2.010569334E0,4.085744619E-1,9.540781975E0
3.299823394E1,-2.321038008E0,4.289134443E-1,9.584450722E0
3.301834540E1,-2.262413740E0,2.171486616E-1,9.917053223E0
3.303845686E1,-1.996810555E0,-3.589234129E-2,1.001755238E1
3.305856832E1,-1.901097536E0,-4.187439755E-2,1.000498962E1
3.307867983E1,-1.859223247E0,3.170489892E-2,1.019222832E1
3.309879129E1,-1.699502230E0,1.974078640E-2,1.021675491E1
3.311890275E1,-1.619342685E0,-2.273181453E-2,1.008514881E1
3.313901421E1,-1.561915040E0,-4.307080805E-2,9.809376717E0
3.315912566E1,-1.658824325E0,1.794616925E-3,9.699306488E0
3.317923712E1,-1.765304923E0,6.460621208E-2,9.695717812E0
3.319934863E1,-1.672582984E0,6.939185411E-2,9.684351921E0
3.321946009E1,-1.578066587E0,9.391828626E-2,9.776474953E0
3.323957155E1,-1.589432478E0,1.435693651E-1,9.826126099E0
3.325968301E1,-1.628315806E0,1.423729509E-1,9.815358162E0
3.327979447E1,-1.680957913E0,1.094716340E-1,9.763314247E0
3.329990593E1,-1.696511269E0,8.614161611E-2,9.666405678E0
3.332001744E1,-1.855633974E0,8.973085135E-2,9.638887405E0
3.334012889E1,-1.925025821E0,4.426721856E-2,9.687940598E0
3.336024035E1,-1.774876237E0,-2.632104978E-2,9.785448074E0
3.338035181E1,-1.674377680E0,-4.785645287E-3,9.845867157E0
3.340046327E1,-1.700698733E0,2.691925503E-2,9.888937950E0
3.342057478E1,-1.702493310E0,2.392822644E-3,9.917651176E0
3.344068624E1,-1.659422517E0,1.256231871E-2,9.934401512E0
3.346079770E1,-1.656431437E0,8.853443712E-2,9.835099220E0
3.348090915E1,-1.738983870E0,1.686939895E-1,9.767501831E0
3.350102061E1,-1.711466432E0,2.177468538E-1,9.727422714E0
3.352113207E1,-1.615753531E0,2.512463629E-1,9.714262009E0
3.354124358E1,-1.531406522E0,2.398804724E-1,9.717252731E0
3.356135504E1,-1.511067510E0,2.344966233E-1,9.741181374E0
3.358146650E1,-1.539781332E0,2.781656384E-1,9.746564865E0
3.360157796E1,-1.530210137E0,3.278166950E-1,9.794421196E0
3.362168941E1,-1.508076429E0,3.457628787E-1,9.870991707E0
3.364180093E1,-1.554736495E0,3.667000830E-1,1.009890842E1
3.366191238E1,-1.472782373E0,2.991028428E-1,1.006899738E1
3.368202384E1,-1.459621787E0,2.991028428E-1,9.970293999E0
3.370213530E1,-1.512862086E0,3.714857101E-1,9.941579819E0
3.372224676E1,-1.220339537E0,3.194418252E-1,9.820143700E0
3.374235822E1,-8.057830334E-1,2.817548811E-1,9.588040352E0
3.376246973E1,-3.571287692E-1,3.296113312E-1,9.638289452E0
3.378258119E1,-3.409772366E-2,3.314059377E-1,9.792028427E0
3.380269264E1,-1.196411322E-3,4.773681164E-1,1.006361389E1
3.382280410E1,-3.110669367E-2,5.916253924E-1,9.992427826E0
3.384291556E1,1.794617064E-2,5.904290080E-1,9.920642853E0
3.386302707E1,1.256231871E-2,5.700899959E-1,9.918250084E0
3.388313853E1,1.345962733E-1,5.449653864E-1,9.926624298E0
3.390324999E1,3.649054468E-1,5.090730190E-1,9.939785004E0
3.392336145E1,6.119644046E-1,4.833501875E-1,9.882955551E0
3.394347290E1,7.100701332E-1,4.893322289E-1,9.872187614E0
3.396358441E1,7.064808607E-1,5.335994363E-1,9.894321442E0
3.398369587E1,7.698906660E-1,5.700899959E-1,1.002054310E1
3.400380733E1,8.297112584E-1,6.155536175E-1,1.018684387E1
3.402391879E1,8.961120844E-1,6.843472719E-1,1.003908730E1
3.404403025E1,1.045065284E0,7.639086246E-1,9.925428391E0
3.406414176E1,1.226321578E0,8.590233326E-1,9.817152977E0
3.408425322E1,1.401595831E0,9.296116233E-1,9.686145782E0
3.410436468E1,1.469193101E0,1.057627559E0,9.711270332E0
3.412447613E1,1.276570916E0,1.258624673E0,1.015454102E1
3.414458759E1,1.025324464E0,1.451246977E0,9.636494637E0
3.416469910E1,1.476969719E0,1.341177106E0,9.232706070E0
3.418481056E1,2.431107759E0,1.147956610E0,8.864211082E0
3.420492202E1,2.755335331E0,1.128814101E0,9.171689034E0
3.422503348E1,2.449054003E0,1.228116274E0,9.550951958E0
3.424514499E1,2.451446772E0,1.160519004E0,9.611968994E0
3.426525645E1,2.722434044E0,1.091725349E0,9.530014038E0
3.428536790E1,2.716451883E0,1.211964726E0,9.716654778E0
3.430547936E1,2.764308453E0,1.293320656E0,9.838089943E0
3.432559082E1,3.067000389E0,1.261017561E0,9.598808289E0
3.434570233E1,3.223730326E0,1.251446247E0,9.378069878E0
3.436581379E1,2.889333248E0,1.300499082E0,9.397212982E0
3.438592525E1,2.659622431E0,1.246660590E0,9.439086914E0
3.440603671E1,2.613560438E0,1.235892892E0,9.449854851E0
3.442614816E1,2.740978241E0,1.310070395E0,9.450452805E0
3.444625968E1,2.880958557E0,1.462014675E0,9.441479683E0
3.446637113E1,2.926422119E0,1.609173179E0,9.552147865E0
3.448648259E1,3.101098061E0,1.773679733E0,9.558728218E0
3.450659405E1,3.463610888E0,1.899901152E0,9.206384659E0
3.452670556E1,3.567100286E0,1.947159410E0,8.932407379E0
3.454681702E1,3.353540897E0,1.905285001E0,9.114261627E0
3.456692848E1,3.198605776E0,1.813161373E0,9.334401131E0
3.458703994E1,3.131606579E0,1.713261008E0,9.323035240E0
3.460715139E1,3.176471949E0,1.626521230E0,9.173483849E0
3.462726290E1,3.268595695E0,1.547558069E0,9.021539688E0
3.464737436E1,3.181855917E0,1.466800332E0,9.076574326E0
3.466748582E1,3.101098061E0,1.396211982E0,9.268000603E0
3.468759728E1,3.186641455E0,1.320838094E0,9.324830055E0
3.470770874E1,3.430111170E0,1.278963685E0,9.252447128E0
3.472782025E1,3.562314749E0,1.304686546E0,9.382257462E0
3.474793171E1,3.499503136E0,1.342971683E0,9.460023880E0
3.476804316E1,3.604189157E0,1.291526079E0,9.321240425E0
3.478815462E1,3.602992773E0,1.305284739E0,9.019744873E0
3.480826613E1,3.711866140E0,1.345962763E0,8.925228119E0
3.482837759E1,3.838087559E0,1.412363529E0,8.910273552E0
3.484848905E1,3.961916208E0,1.473380566E0,8.730213165E0
3.486860051E1,3.932604074E0,1.584646821E0,8.665607452E0
3.488871197E1,3.922434568E0,1.661815286E0,8.892327309E0
3.490882348E1,3.899104595E0,1.680359721E0,8.858827591E0
3.492893494E1,3.914059639E0,1.663011789E0,8.740383148E0
3.494904639E1,3.992424488E0,1.574477315E0,8.810971260E0
3.496915785E1,4.011567116E0,1.422533035E0,8.937790871E0
3.498926936E1,4.043272018E0,1.195214868E0,8.839685440E0
3.500938082E1,3.957130432E0,1.050449133E0,8.845666885E0
3.502949228E1,4.200001717E0,1.060618639E0,8.914461136E0
3.504960374E1,4.548755646E0,1.180858016E0,8.927620888E0
3.506971525E1,4.716851711E0,1.245464206E0,8.823533058E0
3.508982671E1,4.627120972E0,1.214955688E0,8.771489143E0
3.510993816E1,4.462614059E0,1.202991605E0,8.737391472E0
3.513004962E1,4.322035789E0,1.273579836E0,8.698508263E0
3.515016113E1,4.245465755E0,1.358525038E0,8.632705688E0
3.517027259E1,4.271786690E0,1.384247899E0,8.828917503E0
3.519038405E1,4.341776848E0,1.336989641E0,8.952147484E0
3.521049551E1,4.312464714E0,1.306481123E0,8.888139725E0
3.523060697E1,4.201198578E0,1.319043517E0,8.834898949E0
3.525071848E1,4.076173306E0,1.272383451E0,8.855836868E0
3.527082994E1,3.966103554E0,1.240678549E0,8.870193481E0
3.529094139E1,3.803989887E0,1.302891970E0,8.805587769E0
3.531105285E1,3.716651678E0,1.318445325E0,8.886942863E0
3.533116436E1,3.631706476E0,1.266401410E0,9.169894218E0
3.535127582E1,3.793820381E0,1.098903775E0,9.437891006E0
3.537138728E1,4.021138668E0,9.720842242E-1,9.562915802E0
3.539149874E1,4.065405846E0,9.236295223E-1,9.681360245E0
3.541161025E1,4.040879250E0,8.422735929E-1,9.708279610E0
3.543172171E1,3.996013880E0,8.111668825E-1,9.693324089E0
3.545183316E1,3.949951887E0,8.362914920E-1,9.643673897E0
3.547194462E1,3.867997885E0,8.189435601E-1,9.665806770E0
3.549205613E1,3.656831264E0,8.937192559E-1,9.590433121E0
3.551216759E1,3.446861029E0,9.822536707E-1,9.443274498E0
3.553227905E1,3.209373474E0,1.138385415E0,9.397810936E0
3.555239051E1,2.930609465E0,1.304686546E0,9.260822296E0
3.557250197E1,2.729612350E0,1.462612867E0,9.113064766E0
3.559261348E1,2.522035122E0,1.634297848E0,9.038289070E0
3.561272494E1,2.409572363E0,1.783849239E0,8.867202759E0
3.563283639E1,2.331805706E0,1.862214208E0,8.740383148E0
3.565294785E1,2.240878344E0,1.948953986E0,8.537590981E0
3.567305936E1,2.053640127E0,2.014158487E0,8.420342445E0
3.569317082E1,1.755733609E0,2.118844509E0,8.351549149E0
3.571328228E1,1.664208174E0,2.117049932E0,8.475378036E0
3.573339374E1,2.094916344E0,1.889731646E0,8.635098457E0
3.575350525E1,2.639283419E0,1.618744493E0,9.087342262E0
3.577361671E1,2.824128866E0,1.476969719E0,9.376873970E0
3.579372816E1,2.806781054E0,1.194616675E0,8.992227554E0
3.581383962E1,2.913859844E0,7.435696125E-1,8.784051895E0
3.583395113E1,2.907279491E0,2.153540403E-1,8.590232849E0
3.585406259E1,2.503490686E0,-7.896314561E-2,8.876175880E0
3.587417405E1,2.633301258E0,-4.588237405E-1,9.297312737E0
3.589428556E1,2.768495798E0,-9.678967595E-1,9.113663673E0
3.591439702E1,3.014358282E0,-1.476969719E0,9.784252167E0
3.593450848E1,3.162713289E0,-1.764108539E0,1.034596729E1
3.595461994E1,3.004786968E0,-2.067398787E0,1.015155029E1
3.597473139E1,3.340978622E0,-2.489133835E0,1.005404282E1
3.599484290E1,3.215355396E0,-2.653042078E0,1.056550884E1
3.601495436E1,2.498705149E0,-2.592025042E0,1.081914711E1
3.603506582E1,1.858026743E0,-2.728415966E0,1.087956619E1
3.605517733E1,1.389033556E0,-2.804986238E0,1.089093208E1
3.607528879E1,1.072582722E0,-2.760120869E0,1.075214863E1
3.609540025E1,1.932802439E0,-2.822932482E0,9.680762291E0
3.611551171E1,1.465603828E0,-1.676172256E0,8.642276764E0
3.613562322E1,5.778666735E-1,-1.537388563E0,9.470791817E0
3.615573468E1,1.433898926E0,-2.722434044E0,1.010967541E1
3.617584613E1,1.209571838E0,-2.643470764E0,1.012403297E1
3.619595759E1,1.149751306E0,-2.330011129E0,1.029093170E1
3.621606910E1,1.613360643E0,-2.422732830E0,1.147777176E1
3.623618056E1,2.060220242E0,-2.773879766E0,1.162074280E1
3.625629202E1,6.311069727E-1,-1.730010748E0,8.211568832E0
3.627640353E1,1.495514158E-2,-6.891329288E-1,7.037889481E0
3.629651499E1,1.668993831E0,-1.459023595E0,8.345566750E0
3.631662645E1,1.433898926E0,-1.391426325E0,8.885746956E0
3.633673790E1,1.703689694E0,-1.662413478E0,7.472784996E0
3.635684936E1,2.239083767E0,-1.805982947E0,5.364708424E0
3.637696087E1,1.002592683E0,-1.853839397E0,7.557132244E0
3.639707233E1,-2.069791555E-1,-2.019542217E0,1.048953629E1
3.641718379E1,-1.444068432E0,-2.306680918E0,1.179841042E1
3.643729530E1,-1.621137381E0,-2.814557552E0,1.201316643E1
3.645740676E1,-9.032905698E-1,-2.973082066E0,1.205264759E1
3.647751822E1,1.848455518E-1,-2.803789854E0,1.144786167E1
3.649762968E1,7.776673436E-1,-2.708076954E0,1.064566803E1
3.651774119E1,7.429714203E-1,-2.643470764E0,1.022512913E1
3.653785264E1,-6.640082598E-2,-2.707478762E0,1.008993530E1
3.655796410E1,-8.338986635E-1,-2.595016241E0,1.051346493E1
3.657807561E1,-1.135992527E0,-2.641676188E0,1.054636574E1
3.659818707E1,-1.264606714E0,-3.247658491E0,9.854242325E0
3.661829853E1,-9.678967595E-1,-2.487339020E0,9.746564865E0
3.663840999E1,-7.226324677E-1,-1.898106575E0,9.336793900E0
3.665852150E1,-1.302891970E0,-2.201396942E0,8.574680328E0
3.667863296E1,-6.867401004E-1,-2.539382935E0,9.018548965E0
3.669874441E1,-1.476371527E0,-1.992623091E0,8.793025017E0
3.671885587E1,-1.631905079E0,-1.925624013E0,8.571688652E0
3.673896738E1,-1.390828133E0,-1.935793519E0,8.371888161E0
3.675907884E1,-1.533799291E0,-1.831107497E0,8.501698494E0
3.677919030E1,-1.438684583E0,-1.958525300E0,9.025128365E0
3.679930181E1,-1.463211060E0,-1.924427629E0,9.069993973E0
3.681941327E1,-1.777269006E0,-1.999801517E0,8.922835350E0
3.683952473E1,-1.980060697E0,-2.252842426E0,9.430712700E0
3.685963618E1,-2.204387903E0,-2.688336134E0,1.053978539E1
3.687974770E1,-1.573879123E0,-3.131606579E0,1.141615677E1
3.689985915E1,-9.936196208E-1,-2.769692183E0,1.183549881E1
3.691997061E1,-5.814558864E-1,-2.409572363E0,1.058644581E1
3.694008212E1,7.537391037E-2,-2.061416626E0,9.936196327E0
3.696019358E1,2.333002090E-1,-1.747956991E0,9.662218094E0
3.698030504E1,1.459621787E-1,-1.511067510E0,9.453444481E0
3.700041650E1,1.034895778E-1,-1.392024517E0,9.587442398E0
3.702052801E1,3.170489967E-1,-1.289133191E0,9.980463028E0
3.704063947E1,4.504488707E-1,-1.294517040E0,1.012582684E1
3.706075092E1,8.482556343E-1,-1.228116274E0,9.649057388E0
3.708086244E1,8.656035662E-1,-6.658028960E-1,8.995218277E0
3.710097389E1,5.216353536E-1,-9.696913958E-1,9.589835167E0
3.712108535E1,8.584251404E-1,-1.056431174E0,9.458827972E0
3.714119686E1,4.683950245E-1,-8.135597110E-1,9.477372169E0
3.716130832E1,6.263213158E-1,-8.937192559E-1,9.729216576E0
3.718141978E1,6.017948985E-1,-9.128618240E-1,1.000199890E1
3.720153124E1,4.660021961E-1,-8.087740541E-1,1.019521904E1
3.722164275E1,5.012963414E-1,-8.081758618E-1,9.911669731E0
3.724175421E1,6.508477330E-1,-7.154539824E-1,9.976874352E0
3.726186566E1,7.806583643E-1,-5.898307562E-1,9.964909554E0
3.728197718E1,1.003190875E0,-4.468596280E-1,9.962516785E0
3.730208863E1,1.162313581E0,-3.397808075E-1,9.585647583E0
3.732220009E1,1.271785259E0,-3.332005441E-1,9.480961800E0
3.734231155E1,1.342971683E0,-3.427718580E-1,9.789037704E0
3.736242306E1,1.211964726E0,-3.786641955E-1,9.601201057E0
3.738253452E1,1.130010486E0,-3.625126183E-1,9.122037888E0
3.740264598E1,1.098305583E0,-2.883351147E-1,8.854042053E0
3.742275749E1,1.143769264E0,-2.895315289E-1,9.130413055E0
3.744286894E1,1.190429211E0,-3.302095234E-1,9.710074425E0
3.746298040E1,1.203589797E0,-3.756731451E-1,1.027896786E1
3.748309191E1,1.269392371E0,-4.277170599E-1,1.044407272E1
3.750320337E1,1.254437327E0,-4.103690982E-1,1.018863869E1
3.752331483E1,1.203589797E0,-3.894318938E-1,9.995418549E0
3.754342634E1,1.255035520E0,-3.744767308E-1,1.036869907E1
3.756353780E1,1.371087432E0,-3.577269912E-1,1.152503014E1
3.758364926E1,1.520638824E0,-3.158525825E-1,1.209153080E1
3.760376072E1,1.558923960E0,-2.207378894E-1,1.086879826E1
3.762387223E1,1.358525038E0,1.405783296E-1,9.553344727E0
3.764398368E1,1.396211982E0,4.331009090E-1,9.321838379E0
3.766409520E1,1.722234130E0,3.026920557E-1,9.587442398E0
3.768420665E1,1.756929994E0,2.536391914E-1,9.230911255E0
3.770431811E1,1.872383714E0,3.649054468E-1,9.202795982E0
3.772442957E1,2.082952023E0,5.072783828E-1,9.103493690E0
3.774454108E1,2.090130568E0,7.381857634E-1,9.072386742E0
3.776465254E1,1.945364833E0,8.949156404E-1,8.980861664E0
3.778476400E1,1.704886079E0,9.272187948E-1,8.801998138E0
3.780487551E1,1.588834286E0,9.553344250E-1,8.959924698E0
3.782498697E1,1.710269928E0,9.738788009E-1,9.379266739E0
3.784509842E1,1.733001828E0,1.009771109E0,9.348159790E0
3.786520994E1,1.759921074E0,9.684949517E-1,9.163313866E0
3.788532139E1,1.786242127E0,8.632107973E-1,9.081958771E0
3.790543285E1,1.735394597E0,7.591229677E-1,9.343374252E0
3.792554436E1,1.680359721E0,6.562315822E-1,9.617950439E0
3.794565582E1,1.695913076E0,5.796613097E-1,9.662218094E0
3.796576728E1,1.657029629E0,5.551348329E-1,9.787840843E0
3.798587879E1,1.807777524E0,4.923232496E-1,1.026461124E1
3.800599025E1,1.869392633E0,4.283152521E-1,1.040578747E1
3.802610171E1,1.710868239E0,4.079762697E-1,9.981659889E0
3.804621322E1,1.604985833E0,3.744767308E-1,9.609575272E0
3.806632468E1,1.677966833E0,2.817548811E-1,9.756135941E0
3.808643613E1,1.560120344E0,2.063809484E-1,9.768698692E0
3.810654764E1,1.302891970E0,1.734796464E-1,9.553344727E0
3.812665910E1,1.248455167E0,6.340979785E-2,9.674779892E0
3.814677056E1,1.316052437E0,-1.244267747E-1,1.056072235E1
3.816688207E1,1.558325768E0,-1.585244983E-1,1.200538921E1
3.818699353E1,1.508076429E0,-3.349951655E-2,1.129591751E1
3.820710499E1,1.255035520E0,9.750752151E-2,9.993623734E0
3.822721650E1,1.310668588E0,1.507478207E-1,9.354740143E0
3.824732796E1,1.392024517E0,2.494517565E-1,9.399605751E0
3.826743941E1,1.404586911E0,2.883351147E-1,9.741779327E0
3.828755093E1,1.489532113E0,2.404786795E-1,1.010907745E1
3.830766238E1,1.520040631E0,2.470589429E-1,1.039561844E1
3.832777384E1,1.668993831E0,2.626122832E-1,1.058704376E1
3.834788535E1,1.708475351E0,3.050848842E-1,9.949356079E0
3.836799681E1,1.685743570E0,4.636093974E-1,9.425328255E0
3.838810832E1,1.710868239E0,6.053841114E-1,9.421739578E0
3.840821978E1,1.809572101E0,7.010970116E-1,9.511469841E0
3.842833124E1,1.893919110E0,7.651050687E-1,9.402596474E0
3.844844275E1,2.044068813E0,8.075776696E-1,9.270393372E0
3.846855421E1,2.276770830E0,8.608179688E-1,9.339186668E0
3.848866566E1,2.459223509E0,8.979067206E-1,9.668199539E0
3.850877718E1,2.712862730E0,9.451649189E-1,1.006660461E1
3.852888863E1,2.765504837E0,1.024726272E0,9.944570541E0
3.854900009E1,2.818745136E0,1.117448211E0,9.570692062E0
3.856911160E1,3.013760090E0,1.189831018E0,9.288937569E0
3.858922306E1,3.283550978E0,1.296311617E0,9.379266739E0
3.860933452E1,3.468396425E0,1.414158225E0,9.768698692E0
3.862944603E1,3.456432343E0,1.506880045E0,9.629914284E0
3.864955749E1,3.468994617E0,1.575075507E0,9.049057007E0
3.866966895E1,3.634697676E0,1.674377680E0,8.670990944E0
3.868978046E1,3.813561201E0,1.798206210E0,8.352147102E0
3.870989191E1,3.973282099E0,1.866999865E0,8.062616348E0
3.873000342E1,4.068396568E0,1.956132531E0,7.988438606E0
3.875011488E1,4.115654945E0,2.056631088E0,8.168498039E0
3.877022634E1,4.221537113E0,2.068595171E0,8.467600822E0
3.879033785E1,4.409373760E0,2.052443504E0,8.546564102E0
3.881044931E1,4.660022259E0,2.054836512E0,8.404191017E0
3.883056077E1,4.822135925E0,2.059622049E0,8.184649467E0
3.885067228E1,4.915455818E0,2.064407825E0,8.043473244E0
3.887078374E1,4.963312149E0,2.076970100E0,8.532805443E0
3.889089525E1,4.743172646E0,2.075773716E0,9.281160355E0
3.891100671E1,4.530211449E0,1.991426587E0,9.603593826E0
3.893111816E1,4.429712772E0,1.919641972E0,9.134002686E0
3.895122968E1,4.493122578E0,1.935195327E0,8.404789925E0
3.897134113E1,4.645665169E0,2.000399828E0,8.142775536E0
3.899145264E1,4.774279594E0,2.024327993E0,8.292326927E0
3.901156410E1,4.642673969E0,2.011167526E0,8.510671616E0
3.903167556E1,4.428516388E0,1.987239242E0,8.720044136E0
3.905178707E1,4.357329845E0,1.958525300E0,8.777471542E0
3.907189853E1,4.567898273E0,1.957328916E0,8.843274117E0
3.909200999E1,4.593023300E0,1.987239242E0,8.795417786E0
3.911212150E1,4.538586140E0,1.976471543E0,8.684151649E0
3.913223296E1,4.433900356E0,1.928016901E0,8.559126854E0
3.915234447E1,4.313661098E0,1.894517303E0,8.496912956E0
3.917245592E1,4.195814610E0,1.891526341E0,8.612964630E0
3.919256738E1,4.153341770E0,1.889133453E0,8.773882866E0
3.921267889E1,4.323232174E0,1.862812400E0,8.874381065E0
3.923279035E1,4.540380955E0,1.908874273E0,8.809774399E0
3.925290186E1,4.655834675E0,1.957927108E0,8.743971825E0
3.927301332E1,4.607978344E0,1.999801517E0,8.759525299E0
3.929312478E1,4.412963390E0,2.002792597E0,8.789435387E0
3.931323629E1,4.269393921E0,1.957927108E0,8.742775917E0
3.933334775E1,4.249054909E0,1.910070658E0,8.650053978E0
3.935345926E1,4.312464714E0,1.901097536E0,8.650053978E0
3.937357072E1,4.437489510E0,1.873580098E0,8.737391472E0
3.939368218E1,4.479962349E0,1.883151412E0,8.775676727E0
3.941379368E1,4.361517429E0,1.894517303E0,8.730213165E0
3.943390514E1,4.223331928E0,1.886142492E0,8.763712883E0
3.945401665E1,4.187439442E0,1.866401672E0,8.754739761E0
3.947412811E1,4.280759811E0,1.865205288E0,8.711071014E0
3.949423957E1,4.298107624E0,1.919641972E0,8.739186287E0
3.951435108E1,4.291527271E0,1.918445587E0,8.810373306E0
3.953446254E1,4.333401680E0,1.890329838E0,8.831310272E0
3.955457405E1,4.228715897E0,1.874776483E0,8.747561455E0
3.957468551E1,4.126422882E0,1.856232166E0,8.651848793E0
3.959479697E1,4.074378967E0,1.786242127E0,8.624331474E0
3.961490848E1,4.076173306E0,1.589432478E0,8.706883430E0
3.963501994E1,4.277170658E0,1.445264935E0,8.886344910E0
3.965513144E1,4.363910198E0,1.678565025E0,9.057432175E0
3.967524290E1,4.216153622E0,2.072782516E0,9.117252350E0
3.969535441E1,4.101297855E0,2.091925144E0,9.039485931E0
3.971546587E1,4.089931965E0,1.869990945E0,8.982057571E0
3.973557733E1,4.121038914E0,1.745564103E0,8.964112282E0
3.975568884E1,4.016951084E0,1.739582062E0,9.023334503E0
3.977580030E1,3.911068678E0,1.670788407E0,9.079565048E0
3.979591181E1,3.841078520E0,1.610369682E0,9.037691116E0
3.981602327E1,3.705285788E0,1.601396561E0,9.025128365E0
3.983613478E1,3.641875982E0,1.590628862E0,9.040083885E0
3.985624624E1,3.720839262E0,1.609173179E0,9.069993973E0
3.987635770E1,3.735196114E0,1.676770449E0,9.064012527E0
3.989646921E1,3.742972851E0,1.692921996E0,9.087342262E0
3.991658066E1,3.778865099E0,1.680359721E0,9.085547447E0
3.993669218E1,3.804588079E0,1.708475351E0,9.043074608E0
3.995680363E1,3.864408493E0,1.748555183E0,8.996415138E0
3.997691509E1,3.920639992E0,1.745564103E0,8.959924698E0
3.999702660E1,3.914657831E0,1.721037745E0,8.945567131E0
4.001713806E1,3.816552162E0,1.694716692E0,8.980263710E0
4.003724957E1,3.890131474E0,1.649851203E0,9.020342827E0
4.005736103E1,3.945764542E0,1.685743570E0,8.997611046E0
4.007747254E1,3.858426571E0,1.714457393E0,8.975478172E0
4.009758400E1,3.873979807E0,1.680957913E0,9.009575844E0
4.011769551E1,3.879363775E0,1.684547186E0,9.017352104E0
4.013780697E1,3.809971809E0,1.712064624E0,8.997611046E0
4.015791843E1,3.786043644E0,1.698904037E0,9.052646637E0
4.017802994E1,3.793222189E0,1.691127419E0,9.091529846E0
4.019814139E1,3.769293785E0,1.664806366E0,9.089735031E0
4.021825290E1,3.742972851E0,1.654636860E0,9.088538170E0
4.023836436E1,3.835694790E0,1.656431437E0,9.090931892E0
4.025847587E1,3.784847260E0,1.673779488E0,9.039485931E0
4.027858733E1,3.721437454E0,1.643270969E0,9.020342827E0
4.029869884E1,3.722035646E0,1.646261930E0,9.008976936E0
4.031881030E1,3.751347780E0,1.671386600E0,9.014959335E0
4.033892181E1,3.783052683E0,1.684547186E0,9.049057007E0
4.035903327E1,3.825525284E0,1.704287887E0,9.096315384E0
4.037914473E1,3.911068678E0,1.719841242E0,9.094520569E0
4.039925624E1,3.863810301E0,1.738983870E0,8.991030693E0
4.041936770E1,3.844069481E0,1.705484390E0,8.994022369E0
4.043947921E1,3.866203070E0,1.709671736E0,9.011369705E0
4.045959066E1,3.852444410E0,1.694716692E0,8.962915421E0
4.047970218E1,3.821337700E0,1.649253011E0,8.894122124E0
4.049981363E1,3.814757586E0,1.656431437E0,8.933603287E0
4.051992514E1,3.811766386E0,1.691127419E0,9.061020851E0
4.054003660E1,3.805784464E0,1.697109461E0,9.083154678E0
4.056014806E1,3.809971809E0,1.681556106E0,9.101100922E0
4.058025957E1,3.719642878E0,1.651645780E0,9.186644554E0
4.060037103E1,3.672982693E0,1.630708575E0,9.250652313E0
4.062048254E1,3.753740549E0,1.619342685E0,9.146564484E0
4.064059400E1,3.870390654E0,1.633101463E0,9.052646637E0
4.066070551E1,3.851846218E0,1.667199135E0,8.965906143E0
4.068081697E1,3.757927895E0,1.689931035E0,8.921639442E0
4.070092848E1,3.756731510E0,1.727617979E0,8.921639442E0
4.072103994E1,3.847658873E0,1.753340840E0,8.931808472E0
4.074115144E1,3.962514400E0,1.747358680E0,8.942576408E0
4.076126290E1,4.017549038E0,1.721635938E0,8.956933022E0
4.078137441E1,3.946362734E0,1.719841242E0,8.992825508E0
4.080148587E1,3.823730469E0,1.695314884E0,9.056833267E0
4.082159738E1,3.748954773E0,1.668395638E0,9.143573761E0
4.084170884E1,3.774677753E0,1.671386600E0,9.156734467E0
4.086182035E1,3.842274904E0,1.654636860E0,9.087342262E0
4.088193181E1,3.818944931E0,1.667199135E0,9.026325226E0
4.090204332E1,3.758526087E0,1.654038668E0,9.019744873E0
4.092215478E1,3.753142357E0,1.643270969E0,9.014361382E0
4.094226629E1,3.767499208E0,1.679761529E0,9.009575844E0
4.096237775E1,3.753740549E0,1.701296926E0,8.992825508E0
4.098248926E1,3.757329702E0,1.692323804E0,8.998209953E0
4.100260072E1,3.827918053E0,1.683948994E0,9.032905579E0
4.102271223E1,3.842873096E0,1.711466432E0,9.062217712E0
4.104282368E1,3.782454491E0,1.686939955E0,9.101698875E0
4.106293514E1,3.843471289E0,1.639083505E0,9.098110199E0
4.108304665E1,3.866203070E0,1.678565025E0,9.073583603E0
4.110315811E1,3.838087559E0,1.694118381E0,9.028717995E0
4.112326962E1,3.812364578E0,1.685743570E0,8.983254433E0
4.114338108E1,3.818944931E0,1.698904037E0,9.018548965E0
4.116349259E1,3.829114437E0,1.712662816E0,9.046664238E0
4.118360405E1,3.824927092E0,1.697109461E0,9.039485931E0
4.120371556E1,3.807579041E0,1.689931035E0,9.015557289E0
4.122382702E1,3.769293785E0,1.682154298E0,9.048459053E0
4.124393853E1,3.708276987E0,1.671386600E0,9.057432175E0
4.126404999E1,3.728017569E0,1.654636860E0,9.068798065E0
4.128416150E1,3.760320902E0,1.686341763E0,9.080163956E0
4.130427296E1,3.781856298E0,1.694118381E0,9.065208435E0
4.132438447E1,3.796213150E0,1.675574064E0,9.064610481E0
4.134449598E1,3.744767427E0,1.716252089E0,9.068199158E0
4.136460744E1,3.747758389E0,1.716850281E0,9.053244591E0
4.138471889E1,3.862613916E0,1.671386600E0,8.997611046E0
4.140483040E1,3.826123476E0,1.682154298E0,8.940183640E0
4.142494191E1,3.747160196E0,1.677368641E0,8.962317467E0
4.144505337E1,3.809971809E0,1.698904037E0,9.078967094E0
4.146516488E1,3.806382656E0,1.761117458E0,9.110671997E0
4.148527634E1,3.741178274E0,1.708475351E0,9.075378418E0
4.150538785E1,3.725026608E0,1.657627940E0,9.100502968E0
4.152549931E1,3.745963812E0,1.677368641E0,9.181260109E0
4.154561082E1,3.712464333E0,1.688136339E0,9.136993408E0
4.156572228E1,3.753740549E0,1.663011789E0,8.984451294E0
4.158583379E1,3.805186272E0,1.681556106E0,8.913862228E0
4.160594525E1,3.772284985E0,1.697109461E0,9.016156197E0
4.162605676E1,3.774079561E0,1.706680775E0,9.103493690E0
4.164616822E1,3.879961967E0,1.744367719E0,9.080163956E0
4.166627973E1,3.894318819E0,1.770688772E0,9.011968613E0
4.168639119E1,3.817150354E0,1.737787485E0,9.038289070E0
4.170650270E1,3.756133318E0,1.707877159E0,9.031110764E0
4.172661415E1,3.774079561E0,1.701895118E0,8.992227554E0
4.174672566E1,3.774079561E0,1.733001828E0,8.993423462E0
4.176683712E1,3.763311863E0,1.722832322E0,9.041878700E0
4.178694863E1,3.785445452E0,1.700100541E0,9.096913338E0
4.180706009E1,3.744767427E0,1.704287887E0,9.093922615E0
4.182717160E1,3.741178274E0,1.689931035E0,9.034700394E0
4.184728311E1,3.756731510E0,1.692323804E0,8.985049248E0
4.186739457E1,3.743571043E0,1.712662816E0,9.011369705E0
