"Time (s)","Acceleration x (m/s^2)","Acceleration y (m/s^2)","Acceleration z (m/s^2)"
4.904908900E-2,-3.450000286E-1,2.436000109E0,9.973950386E0
6.904909000E-2,-3.970500231E-1,2.338050127E0,9.703950882E0
8.993769400E-2,-7.129500508E-1,2.311950207E0,9.667950630E0
1.108254750E-1,-6.850500107E-1,2.329050064E0,9.622050285E0
1.317145500E-1,-9.480000734E-1,2.263950109E0,9.547950745E0
1.526038790E-1,-8.569500446E-1,2.167950153E0,9.751049995E0
1.734923510E-1,-1.108050108E0,2.197050095E0,9.782999992E0
1.943808540E-1,-1.209000111E0,2.026950121E0,9.718050003E0
2.152712820E-1,-1.290000081E0,2.053050041E0,9.901950836E0
2.361617430E-1,-1.249950051E0,2.110949993E0,9.646050453E0
2.570477060E-1,-1.198950052E0,2.083950043E0,9.447000504E0
2.779336710E-1,-1.126950026E0,2.158950090E0,9.631950378E0
2.988183380E-1,-1.096050024E0,2.158950090E0,9.426000595E0
3.197029930E-1,-1.092000008E0,2.161050081E0,9.571950912E0
3.405881900E-1,-9.529500604E-1,2.146950006E0,9.790050507E0
3.614733830E-1,-8.980500698E-1,2.163000107E0,9.660000801E0
3.823534400E-1,-8.830500245E-1,2.190000057E0,9.522000313E0
4.032334830E-1,-1.036050081E0,2.263950109E0,9.586050034E0
4.241122150E-1,-8.430000544E-1,2.269050121E0,9.607950211E0
4.449909440E-1,-7.750500441E-1,2.262000084E0,9.319950104E0
4.658725070E-1,-8.809500337E-1,2.238000154E0,9.196050644E0
4.867540840E-1,-6.889500618E-1,2.407950163E0,9.169950485E0
5.076374890E-1,-6.220500469E-1,2.401050091E0,9.238950729E0
5.285208740E-1,-5.790000558E-1,2.331000090E0,9.249000549E0
5.494058140E-1,-6.799500585E-1,2.044049978E0,9.237000465E0
5.702907390E-1,-7.830000520E-1,1.833000064E0,9.232050896E0
5.911662290E-1,-7.849500179E-1,1.740000129E0,9.423000336E0
6.120417340E-1,-7.920000553E-1,1.503000021E0,9.639000893E0
6.329195710E-1,-8.779500127E-1,1.230000019E0,9.679950714E0
6.537974160E-1,-8.260500431E-1,1.102950096E0,9.121950150E0
6.746813030E-1,-8.160000443E-1,9.829500318E-1,9.148050308E0
6.955651860E-1,-1.234950066E0,8.899500370E-1,1.006800079E1
7.164474850E-1,-1.338000059E0,4.800000191E-1,1.036695004E1
7.373297960E-1,-1.546050072E0,5.620500445E-1,1.017000008E1
7.582144580E-1,-1.422000051E0,5.110500455E-1,9.583950043E0
7.790990750E-1,-1.602000117E0,4.230000079E-1,9.811050415E0
7.999820920E-1,-1.525050044E0,5.520000458E-1,9.775050163E0
8.208651330E-1,-1.981950045E0,7.009500265E-1,1.077600098E1
8.417446880E-1,-2.383949995E0,1.360500008E-1,9.473999977E0
8.626242290E-1,-2.221950054E0,-1.960500032E-1,8.794050217E0
8.835031830E-1,-1.816950083E0,2.260500044E-1,9.258000374E0
9.043821420E-1,-1.582050085E0,6.379500031E-1,1.001505089E1
9.252621360E-1,-1.434000015E0,5.860500336E-1,1.017000008E1
9.461421370E-1,-6.960000396E-1,-1.410000026E-1,9.603000641E0
9.670173790E-1,7.095000148E-2,-3.660000265E-1,8.788949966E0
9.878926140E-1,5.760000348E-1,3.220500052E-1,8.700000763E0
1.008774126E0,3.199500144E-1,8.590500355E-1,9.250950813E0
1.029655623E0,-4.005000368E-2,6.049500108E-1,9.297000885E0
1.050538300E0,-1.150500029E-1,3.060000241E-1,8.422950745E0
1.071420955E0,-1.905000024E-2,-2.560500205E-1,8.110950470E0
1.092293152E0,-1.909500062E-1,-5.869500041E-1,8.820000648E0
1.113165429E0,-1.173000097E0,-2.350500077E-1,9.469050407E0
1.134047122E0,-8.620500565E-1,-2.850000262E-1,9.342000008E0
1.154928809E0,-1.410000026E-1,-5.100000501E-1,9.031050682E0
1.175813438E0,-1.909500062E-1,-4.095000029E-2,8.482049942E0
1.196698055E0,-4.069500268E-1,3.919500113E-1,8.569050789E0
1.217583308E0,-1.210950017E0,3.150000274E-1,9.727950096E0
1.238468579E0,-1.767000079E0,3.130500019E-1,1.052505016E1
1.259350818E0,-1.968000054E0,7.170000076E-1,9.595950127E0
1.280233127E0,-1.894050121E0,9.739500284E-1,9.037950516E0
1.301116665E0,-8.740500212E-1,-7.395000011E-2,1.042200089E1
1.322000204E0,-1.048050046E0,-1.422000051E0,1.280895042E1
1.342882193E0,-1.918050051E0,-1.936950088E0,1.460895061E1
1.363764194E0,-1.549050093E0,-2.143050194E0,1.374795055E1
1.384649299E0,-6.390000582E-1,-1.615950108E0,1.280205059E1
1.405534338E0,-7.990500331E-1,-1.582950115E0,1.348695087E1
1.426421430E0,-9.910500646E-1,-7.519500256E-1,1.383900070E1
1.447308545E0,-1.884000063E0,-3.109500110E-1,1.165500069E1
1.468198406E0,-1.672950029E0,-2.400000021E-2,8.272050858E0
1.489088251E0,-9.450000525E-1,1.761000037E0,5.848950386E0
1.509969184E0,-2.083050013E0,2.532000065E0,6.486000538E0
1.530850113E0,-2.241000175E0,1.998000145E0,9.004050255E0
1.551738496E0,-1.129950047E0,8.989500403E-1,9.961950302E0
1.572626915E0,-1.057950020E0,9.930000305E-1,8.956950188E0
1.593509222E0,-4.999500215E-1,1.158000112E0,7.647000313E0
1.614391535E0,-1.650000066E-1,1.207950115E0,6.976050377E0
1.635281244E0,-4.909500182E-1,1.086000085E0,7.462950230E0
1.656170935E0,-4.429500103E-1,9.210000634E-1,7.882050514E0
1.677051876E0,-1.120500043E-1,1.024049997E0,6.667950153E0
1.697932805E0,-3.299999982E-2,1.563000083E0,5.344050407E0
1.718814053E0,-3.010500073E-1,2.061000109E0,5.302950382E0
1.739695282E0,-7.560000420E-1,1.950000048E0,5.617050171E0
1.760579876E0,-9.600000381E-1,1.867050052E0,5.664000034E0
1.781464493E0,-1.126950026E0,1.929000139E0,6.415950298E0
1.802347448E0,-1.221000075E0,2.499000072E0,9.081000328E0
1.823230411E0,-1.165950060E0,2.760000229E0,1.161705017E1
1.844112747E0,-4.690500200E-1,2.676000118E0,1.239000034E1
1.864995056E0,1.999500096E-1,2.901000023E0,1.310595036E1
1.885877337E0,3.820500076E-1,3.471000195E0,1.460895061E1
1.906759608E0,6.720000505E-1,3.631050110E0,1.466895103E1
1.927641435E0,2.779050112E0,2.266050100E0,1.264605045E1
1.948523282E0,1.342050076E0,9.109500647E-1,1.475100040E1
1.969408658E0,-8.100000024E-2,-4.669500291E-1,1.632105064E1
1.990294041E0,-1.219500080E-1,2.295000106E-2,1.477200031E1
2.011180653E0,-1.092000008E0,1.036050081E0,1.093905067E1
2.032067272E0,-2.805000171E-2,2.415000200E0,9.435000420E0
2.052955715E0,1.315950036E0,3.391950130E0,8.638050079E0
2.073844176E0,1.132050037E0,3.217050076E0,8.217000008E0
2.094734222E0,4.849500358E-1,2.314050198E0,8.443950653E0
2.115624263E0,-1.170000061E-1,1.699050069E0,9.037950516E0
2.136511304E0,-3.640500307E-1,1.060050011E0,8.605050087E0
2.157398383E0,-6.199500561E-1,7.219500542E-1,7.519950390E0
2.178286377E0,-6.250500083E-1,7.290000319E-1,6.493050098E0
2.199174378E0,-5.770500302E-1,9.379500151E-1,5.728950500E0
2.220065234E0,-4.519500136E-1,1.170000076E0,5.116050243E0
2.240956117E0,-6.409500241E-1,1.597950101E0,5.145000458E0
2.261841232E0,-6.405000389E-2,2.106000185E0,5.542050362E0
2.282726353E0,1.189500093E-1,2.629950047E0,6.493050098E0
2.303605082E0,7.249500155E-1,3.037050247E0,7.117950439E0
2.324483815E0,8.560500145E-1,3.198000193E0,8.707950592E0
2.345366605E0,3.850500286E-1,3.724950075E0,1.090995026E1
2.366249372E0,2.479500175E-1,4.768050194E0,1.118805027E1
2.387138797E0,3.270000219E-1,5.428950310E0,1.059405041E1
2.408028180E0,-7.870500088E-1,5.274000168E0,1.105605030E1
2.428910482E0,-1.360500008E-1,3.624000072E0,1.332105064E1
2.449792795E0,9.000000358E-1,2.203950167E0,1.735800171E1
2.470682641E0,1.519950032E0,1.315950036E0,1.823400116E1
2.491572522E0,7.969500422E-1,1.564950109E0,1.521495056E1
2.512458621E0,3.559500277E-1,2.680950165E0,1.112295055E1
2.533344742E0,4.350000322E-1,3.588000059E0,8.956950188E0
2.554233965E0,3.319500089E-1,3.904050112E0,9.139050484E0
2.575123194E0,1.620000005E-1,3.526050091E0,9.495000839E0
2.596015249E0,-3.280500174E-1,3.085050106E0,8.434950829E0
2.616907290E0,-1.489050031E0,2.797950029E0,6.787050247E0
2.637795702E0,-2.191050053E0,2.797950029E0,5.973000050E0
2.658684127E0,-3.021000147E0,2.556000233E0,6.595950127E0
2.679558941E0,-2.748000145E0,2.058000088E0,6.778050423E0
2.700433718E0,-1.864950061E0,1.972050071E0,6.808950424E0
2.721315142E0,-8.400000334E-1,2.416950226E0,6.766050339E0
2.742196521E0,-2.749500275E-1,2.829000235E0,6.790050507E0
2.763068844E0,-3.250500262E-1,2.623050213E0,6.901950359E0
2.783941199E0,-6.649500132E-1,2.131950140E0,7.089000225E0
2.804819477E0,-8.590500355E-1,2.137050152E0,6.664950371E0
2.825697742E0,-7.950000167E-1,2.623050213E0,6.318000317E0
2.846568625E0,-7.440000176E-1,3.130950212E0,6.270000458E0
2.867439554E0,-1.222950101E0,3.760050297E0,7.534050465E0
2.888313726E0,-1.462950110E0,4.290000439E0,9.277050018E0
2.909187877E0,-9.600000381E-1,4.138950348E0,1.017300034E1
2.930076194E0,-1.354950070E0,4.546050072E0,1.159695053E1
2.950964497E0,-1.057950020E0,5.104050159E0,1.263900089E1
2.971845412E0,1.165050030E0,4.311000347E0,1.107105064E1
2.992726343E0,1.620000124E0,3.222000122E0,1.328100109E1
3.013617622E0,3.150000274E-1,1.279950023E0,1.624995041E1
3.034508887E0,-8.899500370E-1,-1.339500099E-1,1.728900146E1
3.055396888E0,-5.500500202E-1,6.810000539E-1,1.475100040E1
3.076284853E0,-5.205000192E-2,1.926000118E0,1.125300026E1
3.097167955E0,1.137000084E0,3.391950130E0,1.035495090E1
3.118051036E0,1.845000029E0,4.159950256E0,1.037595081E1
3.138936096E0,8.250000477E-1,2.877000093E0,9.473999977E0
3.159821171E0,7.099500299E-1,3.420000076E0,7.836000443E0
3.180703205E0,4.900500178E-1,2.905950069E0,6.445050240E0
3.201585248E0,-3.919500113E-1,2.314050198E0,5.533050060E0
3.222473824E0,-1.125000000E0,1.585950017E0,5.676000118E0
3.243362397E0,-1.338000059E0,1.653000116E0,6.430950165E0
3.264244126E0,-1.020000100E0,1.390050054E0,6.073950291E0
3.285125863E0,-9.070500135E-1,1.716000080E0,5.449050426E0
3.306005801E0,-6.870000362E-1,2.368950129E0,5.662050247E0
3.326885762E0,-5.220000148E-1,2.709000111E0,6.426000118E0
3.347769912E0,-4.930500090E-1,3.076050043E0,7.434000492E0
3.368654065E0,5.620500445E-1,3.504000187E0,8.253000259E0
3.389529895E0,1.159950018E0,4.230000019E0,9.253050804E0
3.410405748E0,1.606050134E0,5.554050446E0,1.003905010E1
3.431291032E0,1.108050108E0,5.311950207E0,1.053195095E1
3.452176257E0,6.739500165E-1,3.586050272E0,1.302405071E1
3.473059984E0,8.160000443E-1,8.419500589E-1,1.615605164E1
3.493943719E0,5.260500312E-1,-6.270000339E-1,1.767405128E1
3.514832192E0,-1.036050081E0,-7.159500122E-1,1.634805107E1
3.535720651E0,-1.081950068E0,2.340000123E-1,1.389105034E1
3.556605830E0,-4.470000267E-1,1.153050065E0,1.225605011E1
3.577491027E0,-1.630500108E-1,1.869000077E0,1.208100033E1
3.598373218E0,-3.709500134E-1,1.486050129E0,1.119795036E1
3.619255411E0,-6.169500351E-1,2.544000149E0,9.286950111E0
3.640144121E0,-6.919500232E-1,2.934000254E0,6.916950226E0
3.661032848E0,-1.657050133E0,2.737950087E0,5.326950073E0
3.681915299E0,-2.337000132E0,2.884050131E0,5.395950317E0
3.702797766E0,-2.218950033E0,2.755050182E0,5.391000271E0
3.723682320E0,-1.930050135E0,2.415000200E0,5.965950489E0
3.744566819E0,-2.212050200E0,3.250050068E0,6.937950134E0
3.765448610E0,-2.382000208E0,2.676000118E0,8.266950607E0
3.786330421E0,-2.619000196E0,1.852050066E0,8.028000832E0
3.807212276E0,-3.217950106E0,1.914000034E0,7.297050476E0
3.828094161E0,-3.379950047E0,1.539000034E0,6.937950134E0
3.848972887E0,-3.048000097E0,2.116050005E0,7.306950569E0
3.869851622E0,-2.977950096E0,2.530050039E0,7.903050423E0
3.890730266E0,-3.043050051E0,3.274050236E0,8.286000252E0
3.911608921E0,-2.667000055E0,3.703050137E0,8.539950371E0
3.932487207E0,-2.269950151E0,3.148050070E0,9.318000793E0
3.953365478E0,-2.338950157E0,2.154000044E0,1.199295044E1
3.974243691E0,-2.395950079E0,1.684950113E0,1.466205025E1
3.995121844E0,-2.089950085E0,1.039500013E-1,1.694205093E1
4.016001392E0,-2.490000010E0,-1.771950126E0,1.815495110E1
4.036880969E0,-2.710050106E0,-1.972950101E0,1.900800133E1
4.057760930E0,-1.384050012E0,-1.033950090E0,1.668105125E1
4.078640931E0,-1.150500029E-1,8.040000200E-1,1.334505081E1
4.099518457E0,1.303950071E0,2.386050224E0,1.142295074E1
4.120395960E0,2.212050200E0,3.085050106E0,1.017000008E1
4.141277960E0,1.749000072E0,2.992050171E0,9.190950394E0
4.162159959E0,7.099500299E-1,2.575050116E0,7.855050564E0
4.183042178E0,1.450500041E-1,2.230950117E0,5.956950188E0
4.203924373E0,-8.595000207E-2,2.278050184E0,4.498050213E0
4.224805243E0,2.805000171E-2,2.614050150E0,3.984000206E0
4.245686128E0,7.800000161E-2,2.677950144E0,4.312050343E0
4.266558896E0,-5.505000427E-2,2.641950130E0,4.690050125E0
4.287431671E0,-3.520500064E-1,2.590050220E0,4.467000008E0
4.308312258E0,-5.910000205E-1,2.605950117E0,4.407000065E0
4.329192869E0,-2.920500040E-1,2.704950094E0,5.101950169E0
4.350070864E0,3.495000303E-2,2.815050125E0,6.342000484E0
4.370948907E0,4.230000079E-1,2.755050182E0,7.786050320E0
4.391835507E0,7.920000553E-1,2.542050123E0,9.748950005E0
4.412722080E0,7.579500079E-1,2.841000080E0,1.059195042E1
4.433609957E0,6.979500055E-1,4.026000023E0,9.294000626E0
4.454497806E0,4.609500170E-1,5.559000492E0,8.233050346E0
4.475382913E0,-7.050000131E-3,6.439950466E0,9.127050400E0
4.496268032E0,2.595000155E-2,5.089050293E0,1.258200073E1
4.517156269E0,2.100000083E-1,2.001000166E0,1.560795116E1
4.538044536E0,-1.063050032E0,3.150000274E-1,1.642395020E1
4.558919605E0,-2.241000175E0,9.379500151E-1,1.561695099E1
4.579794728E0,-2.358000040E0,2.094000101E0,1.302000046E1
4.600677209E0,-1.816950083E0,2.857950211E0,1.146105099E1
4.621559666E0,-1.096050024E0,2.905950069E0,1.230105019E1
4.642452899E0,-7.800000310E-1,2.524950027E0,1.360395050E1
4.663346088E0,-1.281000018E0,2.464950085E0,1.202100086E1
4.684230848E0,-1.546050072E0,2.692950010E0,8.803050041E0
4.705115661E0,-1.330950022E0,3.078000069E0,5.791050434E0
4.726005476E0,-7.800000310E-1,3.777000189E0,4.684950352E0
4.746895319E0,-2.320500165E-1,3.339000225E0,5.652000427E0
4.767771305E0,-3.109500110E-1,2.287950039E0,6.814050198E0
4.788647314E0,-6.960000396E-1,2.191950083E0,7.546050549E0
4.809532051E0,-1.093950033E0,2.323950052E0,7.246950150E0
4.830416776E0,-1.573050022E0,2.472000122E0,6.214950085E0
4.851300805E0,-2.310000181E0,3.088050127E0,5.262000084E0
4.872184848E0,-3.133950233E0,3.358050108E0,4.494000435E0
4.893066895E0,-1.795050144E0,2.179949999E0,4.939050198E0
4.913949012E0,-2.028000116E0,2.056050062E0,6.850050449E0
4.934833200E0,-2.253000021E0,2.548950195E0,8.383950233E0
4.955717391E0,-1.489050031E0,3.073050261E0,8.971050262E0
4.976597389E0,-1.846050143E0,3.709950209E0,9.916950226E0
4.997477392E0,-1.633050084E0,3.531000137E0,1.138905048E1
5.018357041E0,-1.390950084E0,4.105050087E0,1.259295082E1
5.039236694E0,-4.549500346E-1,3.631050110E0,1.553400040E1
5.060117462E0,-2.890500128E-1,2.106000185E0,1.780095100E1
5.080998233E0,-1.387950063E0,1.873950124E0,1.624500084E1
5.101884460E0,-2.923050165E0,3.054000139E0,1.350600052E1
5.122770651E0,-3.517050266E0,3.918000221E0,1.107105064E1
5.143656958E0,-1.434000015E0,3.079950094E0,1.048200035E1
5.164543267E0,-1.900950074E0,3.442050219E0,1.022595024E1
5.185424618E0,-9.240000248E-1,3.664950132E0,9.130949974E0
5.206306007E0,-4.950000346E-1,3.739050150E0,8.197950363E0
5.227188801E0,-5.205000192E-2,3.739050150E0,7.573050499E0
5.248071570E0,1.410000026E-1,3.520950079E0,7.852950573E0
5.268960149E0,-1.000500023E-1,3.042000055E0,6.928950310E0
5.289848724E0,-6.889500618E-1,3.163950205E0,6.430950165E0
5.310733234E0,-9.960000515E-1,2.559000015E0,6.742050171E0
5.331617739E0,-1.972950101E0,2.326050043E0,8.011050224E0
5.352504827E0,-1.783050060E0,2.419950008E0,8.787000656E0
5.373391902E0,-7.969500422E-1,3.307950258E0,2.596950054E0
5.394278487E0,-3.622050285E0,3.294000149E0,8.863050461E0
5.415165066E0,5.310000181E-1,3.418050051E0,1.163100052E1
5.436052475E0,-2.571000099E0,3.514050245E0,1.075200081E1
5.456939858E0,-1.165950060E0,3.198000193E0,6.969000340E0
5.477822897E0,-1.867050052E0,3.246000051E0,7.405050278E0
5.498705826E0,-2.455950022E0,4.372950077E0,9.876000404E0
5.519592909E0,-2.545050144E0,4.411950111E0,1.096800041E1
5.540479984E0,-3.165000200E0,3.684000254E0,1.045995045E1
5.561367388E0,-2.224050045E0,3.114000082E0,1.126200008E1
5.582254773E0,-1.635000110E0,2.512950182E0,1.195200062E1
5.603132477E0,-2.523000002E0,1.950000048E0,1.098900032E1
5.624010214E0,-3.364050150E0,2.083950043E0,1.008705044E1
5.644892930E0,-2.799000025E0,2.415000200E0,1.079805088E1
5.665775657E0,-2.272050142E0,2.713950157E0,1.189905071E1
5.686659246E0,-2.194950104E0,1.705950022E0,1.129305077E1
5.707542825E0,-1.582050085E0,1.372950077E0,1.034295082E1
5.728424173E0,-1.683000088E0,2.077050209E0,9.541050911E0
5.749305522E0,-2.017950058E0,2.211000204E0,8.269050598E0
5.770187723E0,-3.127050161E0,2.884050131E0,8.131050110E0
5.791069916E0,-2.523000002E0,2.314050198E0,7.141950130E0
5.811950023E0,-2.985000134E0,1.563000083E0,7.387950420E0
5.832830142E0,-2.953950167E0,1.203000069E0,7.495950222E0
5.853710758E0,-2.944950104E0,1.270050049E0,8.020050049E0
5.874591373E0,-2.206950188E0,8.830500245E-1,7.965000153E0
5.895479404E0,-1.792950034E0,8.419500589E-1,8.182950020E0
5.916367441E0,-1.525050044E0,1.297050118E0,8.392050743E0
5.937246775E0,-1.125000000E0,1.203000069E0,7.993950367E0
5.958126128E0,-8.689500690E-1,4.780500233E-1,7.546050549E0
5.979008015E0,-1.309050083E0,-1.939500123E-1,8.403000832E0
5.999889898E0,-1.060050011E0,-3.589500189E-1,9.937950134E0
6.020771530E0,-2.970000207E-1,-3.760500252E-1,1.078800011E1
6.041653185E0,2.989500165E-1,-3.450000286E-1,1.212900066E1
6.062538292E0,1.089000106E0,-2.205000073E-2,1.344795036E1
6.083423407E0,1.783050060E0,-9.120000601E-1,1.202805042E1
6.104302479E0,1.017000079E0,-1.279050112E0,1.375695038E1
6.125181560E0,1.077000022E0,-2.242950201E0,1.431300068E1
6.146069059E0,2.446050167E0,-2.430000067E0,1.430100060E1
6.166956556E0,2.245050192E0,-1.884000063E0,1.263195038E1
6.187837022E0,8.490000367E-1,-9.739500284E-1,1.229400063E1
6.208717489E0,4.180500209E-1,-8.595000207E-2,1.201605034E1
6.229595936E0,8.470500112E-1,5.760000348E-1,1.069995022E1
6.250474397E0,1.303950071E0,1.203000069E0,8.995050430E0
6.271351490E0,1.599000096E0,2.068050146E0,7.048050404E0
6.292228609E0,1.500000119E0,2.427000046E0,5.752950191E0
6.313107392E0,4.500000179E-2,2.086950064E0,5.371950150E0
6.333986161E0,-8.260500431E-1,1.243950009E0,5.128050327E0
6.354860931E0,-6.750000119E-1,7.030500174E-1,5.116050243E0
6.375735704E0,3.795000166E-2,1.012050033E0,5.889000416E0
6.396616155E0,-2.595000155E-2,1.186950088E0,7.501050472E0
6.417496614E0,-7.830000520E-1,6.220500469E-1,7.704000473E0
6.438382405E0,-1.659000039E0,-1.395000052E-2,8.056050301E0
6.459268210E0,-2.806050062E0,2.500500083E-1,9.270000458E0
6.480153615E0,-2.344050169E0,-3.795000166E-2,9.433050156E0
6.501039042E0,-6.490500569E-1,-3.330000043E-1,9.553050041E0
6.521925653E0,1.242000103E0,-5.509500504E-1,1.003200054E1
6.542812268E0,1.134000063E0,-2.310000181E0,9.747000694E0
6.563702732E0,-3.310950041E0,-4.587000370E0,1.162095070E1
6.584593191E0,-5.157000065E0,-5.904000282E0,1.648200035E1
6.605483029E0,-2.065950155E0,-7.860000610E0,1.603200150E1
6.626372878E0,-2.128050089E0,-8.614950180E0,1.441800022E1
6.647264099E0,-4.672950268E0,-6.105000496E0,1.359405041E1
6.668155292E0,-3.274950266E0,-3.454950094E0,1.347900105E1
6.689038725E0,-2.712000132E0,-1.468050122E0,1.464105034E1
6.709922152E0,-2.361000061E0,-2.629500031E-1,1.456395054E1
6.730814143E0,-1.732950091E0,-4.759500325E-1,1.158105087E1
6.751706138E0,-1.977000117E0,4.849500358E-1,9.700950623E0
6.772591050E0,-1.744950056E0,1.692000031E0,7.021950245E0
6.793475979E0,-1.659000039E0,1.857000113E0,5.686050415E0
6.814357786E0,-1.720950127E0,1.621950030E0,4.984050274E0
6.835239595E0,-7.320000529E-1,7.990500331E-1,4.738050461E0
6.856130117E0,2.939999998E-1,1.860000044E-1,5.904000282E0
6.877020614E0,2.080500126E-1,6.649500132E-1,6.076050282E0
6.897915849E0,-3.130500019E-1,1.327950120E0,6.343950272E0
6.918811080E0,-7.639500499E-1,1.452000022E0,7.458000183E0
6.939698993E0,-1.647000074E0,1.261050105E0,8.157000542E0
6.960586960E0,-2.656950235E0,2.104050159E0,7.999050617E0
6.981481617E0,-4.113000393E0,3.781950235E0,8.128050804E0
7.002376268E0,-3.450000048E0,4.881000042E0,8.392050743E0
7.023271155E0,-2.064000130E0,5.511000156E0,8.407950401E0
7.044166042E0,-1.354950070E0,5.233050346E0,8.787000656E0
7.065060886E0,4.639500082E-1,3.277050257E0,1.317300034E1
7.085955695E0,-1.233000040E0,1.333050013E0,1.883805084E1
7.106847048E0,-2.398950100E0,-6.370500326E-1,1.840005112E1
7.127738397E0,-2.010000050E-1,1.549500078E-1,1.401795101E1
7.148620600E0,-3.900000155E-1,3.613950253E0,1.042200089E1
7.169502797E0,-1.494000077E0,5.392950058E0,7.579950333E0
7.190376140E0,9.709500670E-1,4.177050114E0,6.487950325E0
7.211249527E0,1.906950116E0,3.952050209E0,8.410950661E0
7.232125648E0,1.057950020E0,3.166950226E0,1.007700062E1
7.253001763E0,1.101000071E0,1.864050031E0,9.631950378E0
7.273874231E0,-4.930500090E-1,2.062950134E0,7.254000187E0
7.294746734E0,-2.449050188E0,2.560950041E0,5.533050060E0
7.315623593E0,-2.971050024E0,3.102000237E0,5.061000347E0
7.336500474E0,-1.132050037E0,2.815050125E0,5.254950047E0
7.357380164E0,-4.740000367E-1,3.139950037E0,6.217950344E0
7.378259859E0,2.269500047E-1,2.974950075E0,6.864000320E0
7.399147101E0,-2.460000068E-1,3.708000183E0,7.945950508E0
7.420034368E0,-1.510950089E0,4.468950272E0,8.092050552E0
7.440914203E0,-2.133000135E0,5.155950069E0,6.868950367E0
7.461794056E0,-1.293000102E0,4.852050304E0,6.904950142E0
7.482680154E0,-1.321050048E0,4.609950066E0,9.571950912E0
7.503566267E0,-1.807050109E0,4.588950157E0,1.090800095E1
7.524448917E0,-2.238000154E0,5.173050404E0,1.050300026E1
7.545331536E0,-2.266950130E0,5.044050217E0,1.247100067E1
7.566216495E0,-2.248050213E0,3.219000101E0,1.454505062E1
7.587101454E0,-2.935050249E0,2.275950193E0,1.400595093E1
7.607983295E0,-3.091050148E0,3.001050234E0,1.202100086E1
7.628865146E0,-3.025950193E0,3.850950241E0,1.079295063E1
7.649744022E0,-3.688950062E0,3.769950151E0,1.051800060E1
7.670622907E0,-3.991050243E0,3.315000057E0,9.877950668E0
7.691507861E0,-4.507950306E0,3.046950102E0,8.269050598E0
7.712392820E0,-4.681050301E0,3.487950087E0,7.005000114E0
7.733277398E0,-4.578000069E0,3.709950209E0,5.815050125E0
7.754161979E0,-3.832950115E0,4.087950230E0,5.904000282E0
7.775048165E0,-3.565050125E0,3.568950176E0,6.409050465E0
7.795934358E0,-3.724950075E0,3.115950108E0,6.201000214E0
7.816817418E0,-3.739950180E0,3.082950115E0,5.676000118E0
7.837700497E0,-3.634050131E0,3.046950102E0,6.091050148E0
7.858586801E0,-3.547950268E0,2.905950069E0,6.796950340E0
7.879473070E0,-3.510000229E0,3.046950102E0,6.514050484E0
7.900363725E0,-3.763950109E0,3.115950108E0,6.718050480E0
7.921254378E0,-4.189949989E0,2.908050060E0,8.169000626E0
7.942143774E0,-4.639950275E0,2.652000189E0,9.838050842E0
7.963033161E0,-4.501049995E0,2.890950203E0,9.856950760E0
7.983921434E0,-3.760950089E0,3.913950205E0,9.048000336E0
8.004809705E0,-2.779950142E0,4.642050266E0,1.034805012E1
8.025702208E0,-2.491950035E0,4.267950058E0,1.414500046E1
8.046594705E0,-2.419950008E0,2.761950016E0,1.541205120E1
8.067482220E0,-2.257950068E0,1.357050061E0,1.510500050E1
8.088369725E0,-2.539950132E0,1.069050074E0,1.377900028E1
8.109255579E0,-2.823000193E0,1.488000035E0,1.244295025E1
8.130141426E0,-2.983050108E0,1.861950040E0,1.139595032E1
8.151023959E0,-2.868000031E0,2.547000170E0,1.097295094E1
8.171906460E0,-1.872000098E0,2.986950159E0,9.510000229E0
8.192796877E0,-1.573050022E0,3.265050173E0,8.298000336E0
8.213687296E0,-1.824000120E0,3.046950102E0,9.495000839E0
8.234572195E0,-2.191050053E0,2.671050072E0,1.026600075E1
8.255457124E0,-2.692950010E0,2.968050241E0,3.759000063E0
8.276344083E0,-1.561050057E0,3.472950220E0,1.009605026E1
8.297231042E0,-2.344050169E0,3.052050114E0,1.106805038E1
8.344358961E0,-1.486950040E0,3.195000172E0,9.070950508E0
8.364358962E0,-8.329500556E-1,3.282000065E0,1.090800095E1
8.385246858E0,-8.640000224E-1,3.472950220E0,9.988950729E0
8.406133947E0,-1.206000090E0,3.625950098E0,8.296050072E0
8.427016740E0,-1.435950041E0,3.325050116E0,7.762050152E0
8.447899803E0,-1.501050115E0,3.151950121E0,9.045000076E0
8.468777973E0,-1.293000102E0,3.088050127E0,1.089405060E1
8.489656130E0,-1.458000064E0,3.022950172E0,1.155000019E1
8.510535687E0,-1.494000077E0,3.106950045E0,1.049100018E1
8.531415226E0,-1.281000018E0,3.283950090E0,9.121950150E0
8.552302218E0,-1.417050123E0,3.379950047E0,8.869950294E0
8.573189177E0,-1.579950094E0,3.337050200E0,8.905950546E0
8.594067647E0,-1.798050046E0,3.343950272E0,9.258000374E0
8.614946076E0,-1.956000090E0,3.186000109E0,9.447000504E0
8.635831786E0,-2.230950117E0,3.061050177E0,9.164999962E0
8.656717475E0,-2.242950201E0,3.073050261E0,8.587950706E0
8.677599833E0,-2.180999994E0,3.079950094E0,8.431950569E0
8.698482144E0,-2.241000175E0,2.962950230E0,8.740950584E0
8.719373633E0,-2.523000002E0,2.961000204E0,9.237000465E0
8.740265168E0,-2.502000093E0,2.950950146E0,8.703000069E0
8.761154275E0,-2.748000145E0,2.974950075E0,8.425050735E0
8.782043394E0,-2.559000015E0,2.925000191E0,8.551950455E0
8.802925724E0,-2.566050053E0,2.938950062E0,8.752950668E0
8.823808033E0,-2.662050009E0,2.887050152E0,8.964000702E0
8.844699855E0,-2.736000061E0,2.841000080E0,9.376049995E0
8.865591658E0,-2.623950243E0,2.934000254E0,9.559950829E0
8.886475983E0,-2.277000189E0,2.908050060E0,9.490050316E0
8.907360336E0,-2.131050110E0,2.896050215E0,9.366000175E0
8.928246799E0,-2.071050167E0,2.866950035E0,8.872950554E0
8.949133258E0,-1.989000082E0,2.968050241E0,8.611950874E0
8.970021733E0,-1.987050056E0,2.965950251E0,8.695950508E0
8.990910196E0,-2.065950155E0,2.932050228E0,8.427000046E0
9.011800641E0,-2.254950047E0,3.082950115E0,7.756950378E0
9.032691104E0,-1.884000063E0,3.255000114E0,7.903050423E0
9.053584270E0,-1.728000045E0,3.033000231E0,8.437050819E0
9.074477465E0,-1.740000129E0,3.028050184E0,8.169000626E0
9.095370854E0,-1.756950140E0,2.997000217E0,8.353050232E0
9.116264239E0,-1.726050138E0,2.544000149E0,9.040050507E0
9.137156524E0,-1.807050109E0,1.950000048E0,1.011300087E1
9.158048835E0,-2.122950077E0,1.306050062E0,1.001700020E1
9.178943023E0,-2.610000134E0,9.760500193E-1,9.819000244E0
9.199837216E0,-2.346000195E0,8.830500245E-1,8.806050301E0
9.220733365E0,-1.566000104E0,1.366050124E0,8.821949959E0
9.241629518E0,-2.146950006E0,2.239950180E0,9.639000893E0
9.262519306E0,-2.025000095E0,1.411950111E0,9.052050591E0
9.283409119E0,-1.534050107E0,4.110000134E-1,8.322000504E0
9.304292264E0,-1.333050013E0,-3.180000186E-1,8.430000305E0
9.325175383E0,-6.679500341E-1,-7.249500155E-1,8.770050049E0
9.346053345E0,-1.699500084E-1,-1.068000078E0,9.634050369E0
9.366931306E0,3.220500052E-1,-1.279050112E0,1.009095001E1
9.387811303E0,8.779500127E-1,-1.422000051E0,9.473999977E0
9.408691302E0,1.543950081E0,-1.413000107E0,8.314949989E0
9.429571974E0,1.831050038E0,-1.197000027E0,7.846050262E0
9.450452629E0,2.009999990E0,-1.309950113E0,7.588950157E0
9.471335045E0,1.198950052E0,-4.999500215E-1,6.355950356E0
9.492217470E0,-6.100500226E-1,1.689000130E0,7.075050354E0
9.513099520E0,4.500000179E-2,1.962000132E0,8.047050476E0
9.533981561E0,1.369050026E0,1.194000006E0,9.667950630E0
9.554864871E0,4.900500178E-1,4.369500279E-1,1.113495064E1
9.575748216E0,-9.930000305E-1,-6.490500569E-1,1.177500057E1
9.596637486E0,-1.618050098E0,-1.372050047E0,1.329000092E1
9.617526753E0,-1.774050117E0,-1.041000009E0,1.370400047E1
9.638407488E0,-1.245000005E0,-4.549500346E-1,1.244295025E1
9.659288225E0,7.200000286E-1,3.730500042E-1,1.119495010E1
9.680169297E0,1.084050059E0,-9.600000083E-2,1.125300026E1
9.701050374E0,-9.000000544E-3,-2.875050068E0,1.531605053E1
9.721930991E0,-2.851050138E0,-4.507950306E0,1.891200066E1
9.742811610E0,-4.276050091E0,-4.252050400E0,1.764105034E1
9.763693676E0,-2.904000044E0,-2.698050022E0,1.424100113E1
9.784575715E0,-7.920000553E-1,-4.500000179E-1,1.061100006E1
9.805469412E0,7.080000043E-1,1.162950039E0,9.174000740E0
9.826363099E0,1.290000081E0,1.495050073E0,8.887050629E0
9.847255419E0,9.979500771E-1,1.395000100E0,8.605050087E0
9.868147730E0,2.839500010E-1,1.045050025E0,7.858050346E0
9.889035827E0,6.900000572E-2,7.579500079E-1,6.835050106E0
9.909923946E0,1.800000109E-2,8.299500346E-1,6.514050484E0
9.930816300E0,-4.399500191E-1,9.880500436E-1,6.127050400E0
9.951708643E0,-8.140500188E-1,9.040500522E-1,5.401050091E0
9.972597682E0,-1.150950074E0,9.619500637E-1,5.032050133E0
9.993486725E0,-9.379500151E-1,1.348950028E0,5.437050343E0
1.001438045E1,-9.100500345E-1,1.459950089E0,5.691000462E0
1.003527418E1,-7.590000629E-1,1.777950048E0,6.129000187E0
1.005616444E1,-7.200000286E-1,2.656950235E0,6.817950249E0
1.007705471E1,-1.660950065E0,3.358050108E0,6.013950348E0
1.009794048E1,-2.917950153E0,3.913950205E0,6.912000179E0
1.011882621E1,-1.150950074E0,2.362050056E0,7.728000164E0
1.013971162E1,4.710000157E-1,2.034000158E0,7.518000126E0
1.016059701E1,1.149000049E0,3.628950119E0,8.463000298E0
1.018148006E1,4.710000157E-1,4.681950092E0,1.189695072E1
1.020236310E1,-1.012950063E0,2.664000034E0,1.361295033E1
1.022324819E1,-1.092000008E0,1.114950061E0,1.495695114E1
1.024413327E1,7.530000210E-1,-1.120500043E-1,1.512195110E1
1.026502126E1,1.941000104E0,-1.132050037E0,1.469805050E1
1.028590926E1,2.892000198E0,-1.575000048E0,1.524405098E1
1.030679485E1,2.737950087E0,-1.771950126E0,1.570800114E1
1.032768043E1,1.939050078E0,-1.623000026E0,1.506195068E1
1.034856796E1,1.225050092E0,-8.329500556E-1,1.294500065E1
1.036945550E1,8.800500631E-1,3.820500076E-1,1.081200027E1
1.039033884E1,1.740000099E-1,1.408950090E0,9.550050735E0
1.041122219E1,-4.279500246E-1,2.025000095E0,7.981950283E0
1.043211424E1,-6.750000119E-1,2.797950029E0,5.764950275E0
1.045300627E1,-3.610500097E-1,3.643050194E0,5.548950195E0
1.047389658E1,-1.530000091E0,3.660000086E0,4.477050304E0
1.049478689E1,-2.254950047E0,2.938950062E0,4.161000252E0
1.051568147E1,-2.395950079E0,1.957950115E0,4.114950180E0
1.053657609E1,-2.134950161E0,1.788000107E0,4.252050400E0
1.055746501E1,-1.764000058E0,1.833000064E0,4.759050369E0
1.057835394E1,-1.017000079E0,2.728950024E0,5.394000053E0
1.059923559E1,1.789500117E-1,2.997000217E0,6.190950394E0
1.062011725E1,6.769500375E-1,2.494050026E0,7.360050201E0
1.064100355E1,-1.200000010E-2,2.092050076E0,8.394000053E0
1.066188985E1,-2.509500086E-1,2.095950127E0,9.328050613E0
1.068277170E1,-5.190000534E-1,1.891050100E0,1.076895046E1
1.070365355E1,-5.479500294E-1,1.488000035E0,1.275600052E1
1.072453829E1,-2.200500071E-1,2.670000196E-1,1.426695061E1
1.074542306E1,-9.499500394E-1,-7.830000520E-1,1.539495087E1
1.076630595E1,-1.093950033E0,-5.359500051E-1,1.598100090E1
1.078718887E1,3.109500110E-1,-9.000000358E-1,1.576395035E1
1.080807102E1,1.279950023E0,-2.229000092E0,1.493700027E1
1.082895317E1,8.230500221E-1,-3.591000080E0,1.531305027E1
1.084983623E1,-7.639500499E-1,-5.188050270E0,1.854104996E1
1.087071931E1,-2.650050163E0,-4.587000370E0,1.945305061E1
1.089160333E1,-2.659950018E0,-2.890050173E0,1.621605110E1
1.091248737E1,-8.470500112E-1,-1.147050023E0,1.137000084E1
1.093337029E1,1.419000030E0,4.660500288E-1,7.555950165E0
1.095425322E1,1.948050141E0,1.926000118E0,5.473050117E0
1.097513922E1,1.455000043E0,2.314050198E0,4.819050312E0
1.099602522E1,1.041000009E0,2.614050150E0,5.365050316E0
1.101691317E1,2.290500104E-1,1.555050015E0,3.924000263E0
1.103780113E1,-2.460000068E-1,1.294050097E0,3.823050261E0
1.105869465E1,-1.450950027E0,1.275000095E0,4.240050316E0
1.107958819E1,-2.088000059E0,1.455000043E0,4.756950378E0
1.110047129E1,-2.362950087E0,1.282050014E0,5.025000095E0
1.112135437E1,-2.644950151E0,1.227000117E0,5.290950298E0
1.114224421E1,-2.454000235E0,1.656000137E0,5.679000378E0
1.116313408E1,-1.666050076E0,1.704000115E0,5.704950333E0
1.118402341E1,-1.258950114E0,2.182950020E0,7.390950203E0
1.120491276E1,-6.870000362E-1,1.321050048E0,9.019050598E0
1.122579707E1,-4.789500237E-1,1.672950029E0,1.088205051E1
1.124668142E1,8.299500346E-1,2.158950090E0,1.238295078E1
1.126756820E1,4.639500082E-1,1.788000107E0,1.372800064E1
1.128845497E1,1.759500057E-1,-8.895000070E-2,1.443900108E1
1.130934016E1,-7.110000253E-1,-2.385000229E0,1.603200150E1
1.133022536E1,-3.277950048E0,-3.903000116E0,1.848105049E1
1.135111860E1,-5.407950401E0,-4.188000202E0,1.925205040E1
1.137201183E1,-5.226000309E0,-3.678000212E0,1.632405090E1
1.139290365E1,-3.723000288E0,-2.157000065E0,1.313895035E1
1.141379550E1,-2.667000055E0,-9.340500236E-1,1.131000042E1
1.143467923E1,-2.487000227E0,-1.390500069E-1,9.672000885E0
1.145556296E1,-2.202000141E0,4.590000212E-1,8.098950386E0
1.147645495E1,-1.534050107E0,8.869500160E-1,6.427950382E0
1.149734691E1,-1.144050002E0,1.432950020E0,5.011050224E0
1.151823693E1,-1.386000037E0,1.756050110E0,3.796950102E0
1.153912693E1,-1.747950077E0,2.383949995E0,3.885000229E0
1.156001199E1,-2.044049978E0,2.017050028E0,4.153950214E0
1.158089707E1,-1.810050130E0,1.711050034E0,5.016000271E0
1.160178754E1,-1.159050107E0,1.735050082E0,5.599950314E0
1.162267800E1,-1.173000097E0,2.335950136E0,5.878050327E0
1.164356866E1,-9.769500494E-1,3.033000231E0,6.118950367E0
1.166445932E1,-1.819500029E-1,3.861000299E0,6.471000195E0
1.168534530E1,6.169500351E-1,4.668000221E0,6.670050144E0
1.170623130E1,2.269050121E0,5.683050156E0,7.453050137E0
1.172711978E1,5.712000370E0,5.992050171E0,9.214950562E0
1.174800824E1,6.223950386E0,4.261050224E0,1.167405033E1
1.176890135E1,3.327000141E0,4.470000267E-1,1.131495094E1
1.178979439E1,1.387950063E0,-3.153000116E0,1.232100105E1
1.181068580E1,-3.330000162E0,-6.907050133E0,1.831305122E1
1.183157719E1,-7.252050400E0,-9.004950523E0,2.631795120E1
1.185246490E1,-7.920000553E0,-6.799950123E0,2.593395042E1
1.187335260E1,-4.057950020E0,-4.165950298E0,2.070795059E1
1.189423059E1,1.168050051E0,-7.969500422E-1,1.349100018E1
1.191510859E1,2.070000172E0,2.697000027E0,8.539950371E0
1.193599029E1,1.419000030E0,3.229050159E0,5.650050163E0
1.195687198E1,-1.395000052E-2,2.925000191E0,4.306950092E0
1.197775262E1,-4.399500191E-1,2.671050072E0,3.226950169E0
1.199863324E1,-9.810000658E-1,2.680950165E0,2.700000048E0
1.201951741E1,-1.639950037E0,2.269050121E0,2.848950148E0
1.204040156E1,-2.217000008E0,1.914000034E0,3.759000063E0
1.206127746E1,-2.521050215E0,1.633950114E0,4.927050114E0
1.208215335E1,-2.557050228E0,1.251000047E0,5.449050426E0
1.210303203E1,-3.028950214E0,1.297050118E0,5.478000164E0
1.212391076E1,-2.887050152E0,1.843050122E0,5.607000351E0
1.214479876E1,-2.101950169E0,2.143949986E0,6.262950420E0
1.216568676E1,-1.029000044E0,2.392950058E0,7.660950184E0
1.218657076E1,-8.595000207E-2,2.347950220E0,9.186000824E0
1.220745477E1,5.860500336E-1,2.359950066E0,1.038105011E1
1.222834384E1,-6.319500208E-1,2.083950043E0,1.030200005E1
1.224923292E1,-1.531950116E0,1.845000029E0,1.039605045E1
1.227012294E1,-2.133000135E0,-1.333950043E0,1.165500069E1
1.229101294E1,-2.001000166E0,-5.107050419E0,1.543305111E1
1.231189739E1,-3.952950239E0,-6.333000183E0,2.010705185E1
1.233278186E1,-5.868000507E0,-6.361950397E0,2.055405045E1
1.235367169E1,-5.883000374E0,-6.072000504E0,1.644404984E1
1.237456153E1,-5.020950317E0,-4.279050350E0,1.335000038E1
1.239545078E1,-4.225950241E0,-1.947000146E0,1.169805050E1
1.241634006E1,-3.001950026E0,-3.660000265E-1,9.535950661E0
1.243722568E1,-1.398000121E0,6.100500226E-1,6.643950462E0
1.245811134E1,-3.640500307E-1,1.828050137E0,4.048050404E0
1.247899523E1,-2.299500108E-1,3.231000185E0,2.664000034E0
1.249987911E1,-6.799500585E-1,3.934950113E0,2.503950119E0
1.252075989E1,-6.100500226E-1,4.048050404E0,3.679950237E0
1.254164066E1,-1.663950086E0,3.286050081E0,5.181000233E0
1.256253678E1,-1.336050034E0,2.431950092E0,6.862050533E0
1.258343289E1,-1.896000147E0,2.251950026E0,7.846050262E0
1.260432241E1,-2.985000134E0,3.547050238E0,7.624950409E0
1.262521196E1,-1.338000059E0,4.831050396E0,6.058950424E0
1.264610138E1,8.899500370E-1,5.772000313E0,5.937000275E0
1.266699080E1,3.576000214E0,5.563050270E0,7.668000221E0
1.268787925E1,3.864000082E0,3.490050077E0,1.381905079E1
1.270876768E1,1.089000106E0,-1.804950118E0,1.897200012E1
1.272965816E1,-3.474000216E0,-7.051050186E0,1.812195015E1
1.275054866E1,-7.156050205E0,-8.107049942E0,1.735605049E1
1.277143989E1,-9.060000420E0,-6.192000389E0,1.631895065E1
1.279233112E1,-6.391950130E0,-4.710000038E0,1.681695175E1
1.281322260E1,-5.430000305E0,-3.105000257E0,1.502805042E1
1.283411410E1,-3.619950056E0,-1.717050076E0,1.330500031E1
1.285500440E1,-1.585050106E0,-5.550000072E-1,1.041900063E1
1.287589471E1,3.900000155E-1,9.379500151E-1,6.619950294E0
1.289677870E1,9.570000172E-1,2.235000134E0,4.075050354E0
1.291766271E1,2.869500220E-1,2.872050047E0,2.619000196E0
1.293854290E1,1.417050123E0,2.788050175E0,3.268050194E0
1.295942309E1,8.539500237E-1,2.395950079E0,3.808950186E0
1.298030186E1,2.805000171E-2,2.419950008E0,4.861950397E0
1.300118063E1,-9.550500512E-1,2.302050114E0,5.755050182E0
1.302206831E1,-1.633050084E0,2.077050209E0,6.349050522E0
1.304295596E1,-2.116050005E0,1.813950062E0,7.465050220E0
1.306384457E1,-1.387950063E0,1.905000091E0,9.061950684E0
1.308473319E1,-5.910000205E-1,2.287950039E0,9.936000824E0
1.310562072E1,4.279500246E-1,2.700000048E0,9.640950203E0
1.312650826E1,8.419500589E-1,2.743050098E0,9.613050461E0
1.314739918E1,1.020000055E-1,3.363000154E0,1.003200054E1
1.316829010E1,-1.650000066E-1,2.725950241E0,1.063005066E1
1.318918160E1,6.030000448E-1,-1.219500080E-1,1.281900024E1
1.321007314E1,2.790000141E-1,-2.914050102E0,1.622294998E1
1.323096486E1,-2.748000145E0,-3.397050142E0,1.779104996E1
1.325185660E1,-4.489050388E0,-2.856000185E0,1.595505047E1
1.327274676E1,-3.651000261E0,-1.767000079E0,1.144905090E1
1.329363692E1,-2.698050022E0,1.000500023E-1,9.430950165E0
1.331452409E1,-1.699950099E0,1.072050095E0,9.574050903E0
1.333541129E1,-1.161000013E0,1.452000022E0,9.273000717E0
1.335630767E1,-1.731000066E0,1.503000021E0,7.587000370E0
1.337720401E1,-2.011049986E0,1.618050098E0,5.377050400E0
1.339809307E1,-2.463000059E0,1.933950067E0,3.925950289E0
1.341898211E1,-2.961000204E0,2.106000185E0,3.253050089E0
1.343988138E1,-3.199050188E0,1.969950080E0,3.603000164E0
1.346078065E1,-3.370950222E0,1.612950087E0,5.406000137E0
1.348166704E1,-3.358950138E0,1.261050105E0,7.567950249E0
1.350255347E1,-2.428050041E0,1.012050033E0,9.811050415E0
1.352344994E1,-1.206000090E0,1.012050033E0,1.178400040E1
1.354434640E1,-9.930000305E-1,9.499500394E-1,1.257000065E1
1.356524162E1,-7.639500499E-1,9.829500318E-1,1.156605053E1
1.358613685E1,4.995000362E-2,1.239000082E0,1.019205093E1
1.360703305E1,3.660000265E-1,2.476950169E0,9.511950493E0
1.362792924E1,2.695050240E0,2.731050014E0,8.068050385E0
1.364882124E1,2.467950106E0,1.519500017E-1,1.228200054E1
1.366971325E1,1.672950029E0,-4.019999981E0,1.825605011E1
1.369060505E1,-7.710000277E-1,-5.265000343E0,1.867305183E1
1.371149686E1,-1.264050007E0,-3.934050083E0,1.631400108E1
1.373239060E1,-2.121000051E0,-1.489050031E0,1.295295048E1
1.375328429E1,-2.413050175E0,-4.095000029E-2,9.819000244E0
1.377417418E1,-8.550000191E-1,2.580000162E-1,9.036000252E0
1.379506407E1,4.519500136E-1,5.160000324E-1,8.370000839E0
1.381595159E1,1.924050093E0,1.552950025E0,8.535000801E0
1.383683913E1,1.636950135E0,3.313050270E0,7.977000237E0
1.385772135E1,4.695000127E-2,3.733950138E0,5.799000263E0
1.387860362E1,-3.250500262E-1,2.929950237E0,5.893950462E0
1.389948781E1,-9.889500737E-1,2.656950235E0,6.571950436E0
1.392037197E1,-6.010500193E-1,2.494050026E0,7.507950306E0
1.394125647E1,3.270000219E-1,2.353049994E0,8.956950188E0
1.396214097E1,9.450000525E-1,2.428950071E0,9.562050819E0
1.398302430E1,1.321050048E0,2.860050201E0,9.093000412E0
1.400390765E1,1.285050035E0,2.719050169E0,9.328050613E0
1.402480412E1,3.540000021E-1,2.635050058E0,9.679950714E0
1.404570058E1,-3.469500244E-1,2.152050018E0,1.054905033E1
1.406658369E1,-5.670000315E-1,2.218950033E0,1.196595097E1
1.408746681E1,2.869500220E-1,1.563000083E0,1.298595047E1
1.410835029E1,1.168050051E0,2.700000107E-1,1.381500053E1
1.412923378E1,7.969500422E-1,-8.140500188E-1,1.582305050E1
1.415012022E1,-5.029500127E-1,-1.438950062E0,1.675200081E1
1.417100669E1,-1.539000034E0,-1.161000013E0,1.416195107E1
1.419189318E1,-3.709500134E-1,-1.279050112E0,1.114995098E1
1.421277969E1,1.096050024E0,-7.759500146E-1,9.883050919E0
1.423366103E1,1.726050138E0,6.889500618E-1,8.194950104E0
1.425454238E1,3.010500073E-1,2.716950178E0,6.162000179E0
1.427543314E1,-4.189949989E0,3.976050138E0,4.374000072E0
1.429632395E1,-7.185000420E0,4.278000355E0,2.233050108E0
1.431721593E1,-4.465050220E0,2.329050064E0,2.403000116E0
1.433810793E1,-2.374950171E0,2.098950148E0,4.081950188E0
1.435899482E1,-3.210000038E0,3.420000076E0,4.522050381E0
1.437988170E1,-2.671950102E0,3.574050188E0,6.522000313E0
1.440076684E1,-3.376050234E0,3.334050179E0,8.347949982E0
1.442165192E1,-4.377000332E0,2.949000120E0,8.296050072E0
1.444253450E1,-3.687000275E0,2.688000202E0,8.655000687E0
1.446341712E1,-2.116050005E0,1.711050034E0,1.121895027E1
1.448430082E1,-3.361050129E0,3.364950180E0,1.088895035E1
1.450518451E1,-6.148050308E0,5.896050453E0,8.269050598E0
1.452607158E1,-5.260050297E0,3.993000269E0,6.912000179E0
1.454695865E1,-6.570000172E0,1.833000064E0,1.098495007E1
1.456784744E1,-7.587000370E0,-1.099500060E-1,1.517700100E1
1.458873621E1,-5.892000198E0,-5.170500278E-1,1.431705093E1
1.460962580E1,-4.582050323E0,3.889500201E-1,1.231800079E1
1.463051538E1,-4.519950390E0,5.590500236E-1,1.425495052E1
1.465140353E1,-2.920950174E0,6.979500055E-1,1.345095062E1
1.467229169E1,-8.430000544E-1,1.428000093E0,9.430950165E0
1.469318758E1,-6.250500083E-1,2.605950117E0,5.410950184E0
1.471408343E1,-8.590500355E-1,3.466050148E0,4.494000435E0
1.473497127E1,-2.077950001E0,2.925000191E0,4.917000294E0
1.475585912E1,-3.337050200E0,2.476950169E0,5.473050117E0
1.477675171E1,-4.507950306E0,1.665000081E0,5.821950436E0
1.479764428E1,-4.915050030E0,7.960500121E-1,6.747000217E0
1.481853826E1,-2.832000017E0,1.327950120E0,8.595000267E0
1.483943226E1,-1.362000108E0,2.788050175E0,9.756000519E0
1.486032495E1,-2.700000107E-1,3.150000095E0,9.862050056E0
1.488121761E1,-6.580500603E-1,3.519000053E0,9.514050484E0
1.490210931E1,-1.278000116E0,3.720000267E0,8.539950371E0
1.492300100E1,-2.257950068E0,3.918000221E0,7.924950600E0
1.494389727E1,-1.635000110E0,5.152050018E0,9.447000504E0
1.496479354E1,4.420500100E-1,5.559000492E0,1.120995045E1
1.498568906E1,1.018950105E0,3.684000254E0,1.321395016E1
1.500658460E1,-9.529500604E-1,1.933950067E0,1.492305088E1
1.502747614E1,-2.434950113E0,7.920000553E-1,1.470795059E1
1.504836768E1,-2.944950104E0,8.470500112E-1,1.184205055E1
1.506925096E1,-1.815000057E0,1.882950068E0,8.832000732E0
1.509013423E1,-8.659500480E-1,3.091950178E0,8.704950333E0
1.511101851E1,-7.369500399E-1,3.040050030E0,9.679950714E0
1.513190282E1,-1.312050104E0,2.262000084E0,9.514050484E0
1.515279128E1,-1.708950043E0,1.761000037E0,8.751000404E0
1.517367974E1,-1.732950091E0,1.954950094E0,7.627950191E0
1.519457031E1,-1.398000121E0,2.071950197E0,6.490050316E0
1.521546089E1,-9.169500470E-1,2.902950048E0,6.160050392E0
1.523634410E1,-7.590000629E-1,2.697000027E0,5.643000126E0
1.525722734E1,-1.099050045E0,2.122950077E0,5.538000107E0
1.527810930E1,-1.429050088E0,2.211000204E0,6.286950111E0
1.529899130E1,-1.743000031E0,2.542050123E0,6.766050339E0
1.531987498E1,-2.180999994E0,2.958000183E0,6.553050518E0
1.534075868E1,-2.860950232E0,2.845950127E0,7.666050434E0
1.536164132E1,-2.811000109E0,2.230950117E0,1.051005077E1
1.538252394E1,-2.617050171E0,1.938000083E0,1.122900009E1
1.540340365E1,-3.640950203E0,2.434050083E0,1.057005024E1
1.542428338E1,-4.975050449E0,2.592000008E0,1.014900017E1
1.544516556E1,-7.756950378E0,2.086950064E0,9.703950882E0
1.546604772E1,-4.474950314E0,5.089499950E-1,1.291395092E1
1.548693062E1,1.048050046E0,1.150950074E0,2.229000092E1
1.550781350E1,2.518050194E0,4.849500358E-1,2.299905014E1
1.552869580E1,-1.197000027E0,6.739500165E-1,1.527000046E1
1.554957811E1,-1.681050062E0,1.846950054E0,7.579950333E0
1.557045455E1,-1.177950025E0,4.066950321E0,7.156050205E0
1.559133101E1,1.620000005E-1,4.654050350E0,1.057305050E1
1.561221317E1,4.200000316E-2,4.012050152E0,1.143705082E1
1.563309532E1,-6.490500569E-1,4.030950069E0,9.049950600E0
1.565397857E1,-7.800000310E-1,4.000050068E0,6.580950260E0
1.567486180E1,1.909500062E-1,3.531000137E0,5.964000225E0
1.569573840E1,-3.919500113E-1,3.564000130E0,6.804000378E0
1.571661502E1,-3.010500073E-1,3.388950109E0,7.020000458E0
1.573748675E1,-4.519500136E-1,2.671050072E0,6.853950500E0
1.575835848E1,-1.800000072E0,2.443950176E0,6.909000397E0
1.577923797E1,-9.889500737E-1,2.499000072E0,7.435950279E0
1.580011747E1,-1.699500084E-1,3.004050255E0,7.996050358E0
1.582100583E1,-5.460000038E-1,2.973000050E0,7.977000237E0
1.584189417E1,-8.110500574E-1,2.602050066E0,8.095050812E0
1.586277567E1,-1.055999994E0,2.359950066E0,8.386950493E0
1.588365718E1,-1.582050085E0,2.889000177E0,7.980000496E0
1.590453853E1,-2.406000137E0,4.062000275E0,7.894050598E0
1.592541991E1,-2.406000137E0,5.113050461E0,8.284049988E0
1.594630284E1,-1.305000067E0,4.869000435E0,9.723000526E0
1.596718577E1,-1.522950053E0,3.351000071E0,1.459800053E1
1.598806837E1,-2.473050117E0,4.470000267E-1,1.683105087E1
1.600895099E1,-4.663950443E0,-7.395000011E-2,1.430505085E1
1.602983807E1,-4.800000191E0,8.230500221E-1,1.108005047E1
1.605072514E1,-3.901950121E0,1.936050057E0,1.072605038E1
1.607160466E1,-2.734050035E0,2.644950151E0,1.131495094E1
1.609248420E1,-1.812000036E0,3.022950172E0,1.081905079E1
1.611336594E1,-1.776000142E0,3.073050261E0,1.002705002E1
1.613424767E1,-2.121000051E0,3.010950089E0,8.334000587E0
1.615512964E1,-2.571000099E0,3.175950050E0,7.969950199E0
1.617601160E1,-2.521050215E0,2.998950243E0,8.475000381E0
1.619689803E1,-4.138950348E0,2.034000158E0,4.570050240E0
1.621778449E1,-4.141950130E0,2.688000202E0,6.622050285E0
1.623866975E1,-3.595950127E0,3.376950264E0,1.099200058E1
1.625955499E1,-1.786050081E0,3.265050173E0,7.708950520E0
1.630585611E1,-1.654050112E0,4.420950413E0,7.714050293E0
1.632585611E1,-1.017000079E0,3.844050169E0,9.142950058E0
1.634675110E1,-1.357050061E0,3.732000113E0,9.523950577E0
1.636764498E1,-1.293000102E0,3.885000229E0,8.787000656E0
1.638853836E1,-1.429050088E0,3.990000248E0,8.650050163E0
1.640943204E1,-1.384050012E0,3.895050287E0,8.800950050E0
1.643032268E1,-1.659000039E0,3.660000086E0,9.439949989E0
1.645121333E1,-1.851000071E0,3.496950150E0,9.217950821E0
1.647210751E1,-1.968000054E0,3.619050264E0,9.082950592E0
1.649300166E1,-1.824000120E0,3.669000149E0,8.880000114E0
1.651389498E1,-1.933950067E0,3.700950146E0,9.222000122E0
1.653478833E1,-1.924950123E0,3.733950138E0,9.118950844E0
1.655568518E1,-1.965000153E0,3.700950146E0,9.157950401E0
1.657658198E1,-1.948950052E0,3.535050154E0,9.246000290E0
1.659746933E1,-2.125950098E0,3.480000257E0,8.941950798E0
1.661835668E1,-2.226000071E0,3.448950052E0,8.800950050E0
1.663925196E1,-2.041949987E0,3.391950130E0,8.590050697E0
1.666014722E1,-1.666050076E0,3.219000101E0,8.535000801E0
1.668103919E1,-2.224050045E0,3.277050257E0,8.739000320E0
1.670193120E1,-1.992000103E0,2.961000204E0,8.935050011E0
1.672282475E1,-1.957950115E0,2.994000196E0,8.985000610E0
1.674371829E1,-1.657050133E0,3.112050056E0,9.093000412E0
1.676461097E1,-1.278000116E0,3.279000044E0,9.148050308E0
1.678550370E1,-7.900500298E-1,3.138000250E0,9.060000420E0
1.680639954E1,-6.529500484E-1,3.112050056E0,9.256050110E0
1.682729539E1,-6.529500484E-1,3.064050198E0,8.715000153E0
1.684819177E1,-6.649500132E-1,3.021000147E0,8.961000443E0
1.686908812E1,-3.540000021E-1,2.968050241E0,9.343950272E0
1.688998254E1,-4.020000100E-1,2.863050222E0,9.184050560E0
1.691087697E1,-5.550000072E-1,3.040050030E0,8.796000481E0
1.693176633E1,-3.730500042E-1,3.115950108E0,8.712000847E0
1.695265572E1,3.495000303E-2,3.090000153E0,9.289050102E0
1.697354178E1,1.740000099E-1,3.102000237E0,9.244050026E0
1.699442782E1,1.429500133E-1,2.986950159E0,9.141000748E0
1.701531553E1,7.304999977E-2,2.946000099E0,9.373050690E0
1.703620322E1,6.195000187E-2,3.118950129E0,9.763050079E0
1.705709292E1,9.495000541E-2,2.719050169E0,9.679950714E0
1.707798261E1,-1.429500133E-1,2.058000088E0,9.534000397E0
1.709886534E1,-1.194000006E0,2.046000004E0,9.598050117E0
1.711974807E1,-1.386000037E0,1.942950130E0,9.529050827E0
1.714062807E1,-9.240000248E-1,2.122950077E0,9.883050919E0
1.716150807E1,-6.700500250E-1,2.005050182E0,9.964950562E0
1.718239411E1,-7.440000176E-1,1.503000021E0,9.664950371E0
1.720328015E1,-3.250500262E-1,1.183950067E0,9.610050201E0
1.722417136E1,-2.299500108E-1,9.570000172E-1,9.708000183E0
1.724506255E1,1.170000061E-1,7.440000176E-1,9.675000191E0
1.726594986E1,2.119500041E-1,7.410000563E-1,1.000305080E1
1.728683713E1,-6.195000187E-2,5.089499950E-1,1.026405048E1
1.730772386E1,-7.200000435E-2,4.680000246E-1,1.010100079E1
1.732861059E1,-2.400000021E-2,5.310000181E-1,9.607950211E0
1.734950530E1,-9.600000381E-1,9.760500193E-1,9.106950760E0
1.737039995E1,-1.036050081E0,1.105050087E0,8.812950134E0
1.739128609E1,-8.779500127E-1,1.096050024E0,8.566050529E0
1.741217225E1,-1.004999995E0,1.024049997E0,8.230950356E0
1.743306270E1,-1.104000092E0,1.029000044E0,7.714050293E0
1.745395316E1,-9.930000305E-1,1.302000046E0,7.369050503E0
1.747483449E1,-9.570000172E-1,1.843050122E0,7.009950161E0
1.749571584E1,-9.499500394E-1,2.424000025E0,7.165950298E0
1.751660158E1,-4.620000124E-1,2.401050091E0,7.882050514E0
1.753748731E1,-4.999500215E-1,1.867050052E0,8.832000732E0
1.755836989E1,-9.259500504E-1,1.363950014E0,9.972000122E0
1.757925247E1,-9.889500737E-1,1.483050108E0,1.108500099E1
1.760014176E1,-8.430000544E-1,1.924050093E0,1.155195045E1
1.762103103E1,-5.940000415E-1,1.936050057E0,1.082400036E1
1.764191572E1,-3.730500042E-1,1.636950135E0,8.857950211E0
1.766280046E1,-1.650000066E-1,1.363950014E0,7.543950558E0
1.768368294E1,-1.375950098E0,1.150950074E0,1.109895039E1
1.770456544E1,-2.784000158E0,-1.150500029E-1,1.349595070E1
1.772544606E1,-4.278000355E0,-1.948950052E0,1.351500034E1
1.774632668E1,-1.465050101E0,-3.559950113E0,1.444395065E1
1.776721157E1,-7.969500422E-1,-3.634050131E0,1.681200027E1
1.778809649E1,-9.840000272E-1,-3.205950260E0,1.605600166E1
1.780897757E1,-2.560500205E-1,-2.467950106E0,1.306800079E1
1.782985865E1,3.270000219E-1,-1.621050119E0,1.008705044E1
1.785074014E1,-5.460000038E-1,1.189500093E-1,8.656949997E0
1.787162164E1,-7.800000310E-1,1.183950067E0,7.951050282E0
1.789251025E1,-1.510500014E-1,1.132050037E0,7.003050327E0
1.791339886E1,-5.500500202E-1,1.297050118E0,6.297000408E0
1.793428964E1,-7.990500331E-1,1.323000073E0,5.724000454E0
1.795518041E1,-6.169500351E-1,1.822950125E0,5.760000229E0
1.797606722E1,-8.550000191E-1,1.500000119E0,5.073000431E0
1.799695403E1,-1.872000098E0,1.681950092E0,5.467950344E0
1.801784121E1,-2.362950087E0,2.014950037E0,6.261000156E0
1.803872841E1,-1.752000093E0,1.668000102E0,6.720000267E0
1.805962278E1,-1.300050020E0,1.713000059E0,7.048050404E0
1.808051713E1,-1.951050043E0,1.761000037E0,6.687000275E0
1.810140135E1,-2.581050158E0,1.735050082E0,6.340050220E0
1.812228562E1,-2.325000048E0,1.474050045E0,5.964000225E0
1.814316674E1,-2.289000034E0,1.986000061E0,5.374950409E0
1.816404786E1,-2.878050089E0,2.329050064E0,5.566050053E0
1.818493460E1,-2.490000010E0,1.783050060E0,5.848950386E0
1.820582132E1,-2.338950157E0,6.979500055E-1,7.089000225E0
1.822670210E1,-2.830050230E0,9.640500546E-1,8.723999977E0
1.824758288E1,-3.120000124E0,1.713000059E0,8.655000687E0
1.826846586E1,-5.587950230E0,7.095000148E-2,1.222500038E1
1.828934882E1,-6.652950287E0,1.345050097E0,1.935705185E1
1.831023545E1,2.923050165E0,-2.368050098E0,1.752600098E1
1.833112206E1,-7.864950180E0,-1.045095062E1,2.181105042E1
1.835200302E1,-1.613205147E1,-1.063800049E1,2.233095169E1
1.837288394E1,-1.204995060E1,-1.021605015E1,1.647000122E1
1.839376592E1,-3.583950281E0,-4.501049995E0,1.165305042E1
1.841464792E1,-1.141950011E0,3.946950197E0,1.039995003E1
1.843552420E1,-1.507950068E0,5.278050423E0,9.856950760E0
1.845640047E1,-3.280050039E0,4.729950428E0,1.009095001E1
1.847728386E1,-4.788000107E0,2.223000050E0,8.149950027E0
1.849816723E1,-6.055050373E0,1.098000050E0,7.168050289E0
1.851904867E1,-5.329050064E0,1.620000005E-1,7.126950264E0
1.853993010E1,-2.812950134E0,3.730500042E-1,7.218000412E0
1.856081057E1,-1.254000068E0,5.809500217E-1,9.775050163E0
1.858169103E1,-7.009500265E-1,-5.310000181E-1,7.960950375E0
1.860257667E1,-5.505000427E-2,-3.300000131E-1,8.523000717E0
1.862346233E1,2.295000076E0,6.105000153E-2,6.613050461E0
1.864435427E1,2.781000137E0,2.440950155E0,3.579000235E0
1.866524627E1,-1.549500078E-1,6.289500594E-1,3.589050055E0
1.868613076E1,-2.475000143E0,-2.800500095E-1,3.001950026E0
1.870701523E1,-4.081950188E0,-8.380500674E-1,3.949950218E0
1.872789507E1,-1.429050088E0,4.759500325E-1,3.535950184E0
1.874877492E1,5.670000315E-1,2.065050125E0,2.017950058E0
1.876966065E1,3.510000110E-1,2.578050137E0,1.561050057E0
1.879054637E1,-2.380050182E0,1.615050077E0,2.655000210E0
1.881142469E1,-2.449050188E0,1.182000041E0,4.963050365E0
1.883230300E1,-2.145000219E0,3.964050293E0,8.815050125E0
1.885318023E1,-5.370000362E0,8.713950157E0,9.433050156E0
1.887405747E1,-3.888000250E0,1.238895035E1,3.295950174E0
1.889493018E1,4.222949982E0,6.568950176E0,7.585050583E0
1.891580295E1,4.560000420E0,-3.508050203E0,2.109300041E1
1.893667906E1,-1.660950065E0,-1.049700069E1,2.870505142E1
1.895755517E1,-3.724950075E0,-1.020195007E1,2.522100067E1
1.897843966E1,3.430050135E0,-5.986050129E0,1.740105057E1
1.899932411E1,5.032050133E0,-3.814050198E0,1.757595062E1
1.902020337E1,1.042950034E0,-4.321950436E0,1.755405045E1
1.904108264E1,-3.520500064E-1,-2.871000051E0,1.309395027E1
1.906196080E1,5.620500445E-1,-1.032000065E0,9.859050751E0
1.908283896E1,2.560950041E0,4.590000212E-1,8.356050491E0
1.910372341E1,2.776950121E0,1.198950052E0,7.491000175E0
1.912460787E1,1.773000121E0,1.018950105E0,7.174950123E0
1.914549136E1,3.799500167E-1,5.449500084E-1,6.919050217E0
1.916637486E1,7.630500197E-1,1.093050003E0,6.000000477E0
1.918725246E1,1.018950105E0,1.765950084E0,4.977000237E0
1.920813004E1,1.159950018E0,1.885950089E0,4.036050320E0
1.922900622E1,1.623000026E0,2.065050125E0,4.933950424E0
1.924988238E1,4.519500136E-1,1.780050039E0,5.166000366E0
1.927076530E1,1.503000021E0,2.365050077E0,4.558050156E0
1.929164822E1,9.790500402E-1,2.970000029E0,4.303950310E0
1.931252974E1,1.611000061E0,3.604950190E0,3.928950071E0
1.933341124E1,3.085050106E0,4.483950138E0,3.775050163E0
1.935429052E1,3.066000223E0,3.874950171E0,4.173000336E0
1.937516979E1,2.623050213E0,2.575050116E0,5.908950329E0
1.939604681E1,2.590050220E0,1.633950114E0,8.668950081E0
1.941692386E1,1.936050057E0,1.873950124E0,1.215105057E1
1.943781107E1,1.632000089E0,8.005949974E0,1.436505032E1
1.945869830E1,1.355100060E1,1.366995049E1,-2.860950232E0
1.947957942E1,1.654095078E1,-3.025950193E0,7.093950272E0
1.950046050E1,-3.856950283E0,-3.426000214E1,4.326900101E1
1.952134542E1,-5.848950386E0,-1.855605125E1,4.959495163E1
1.954223034E1,9.076050758E0,-5.811000347E0,2.020995140E1
1.956311746E1,5.401050091E0,4.948050022E0,7.333050251E0
1.958400458E1,2.491950035E0,6.592950344E0,1.543950081E0
1.960489088E1,5.941950321E0,7.180050373E0,1.149000049E0
1.962577719E1,7.945950508E0,6.994950294E0,2.326950073E0
1.964666226E1,6.667050362E0,5.440950394E0,4.324050426E0
1.966754734E1,5.215950012E0,3.813000202E0,7.660950184E0
1.968843732E1,3.655050278E0,2.452950001E0,1.011300087E1
1.970932732E1,1.777950048E0,1.735050082E0,9.376049995E0
1.973021272E1,6.859500408E-1,1.735050082E0,6.307950497E0
1.975109811E1,1.431000113E0,2.235000134E0,5.286000252E0
1.977197795E1,1.696950078E0,1.728000045E0,5.518050194E0
1.979285780E1,2.005950212E0,5.310000181E-1,6.055050373E0
1.981374346E1,8.640000224E-1,-2.130000144E-1,6.282000065E0
1.983462915E1,1.378050089E0,4.005000368E-2,5.614050388E0
1.985551415E1,1.669950128E0,5.310000181E-1,4.896000385E0
1.987639919E1,1.321050048E0,3.130500019E-1,4.953000069E0
1.989728920E1,4.450500309E-1,3.100500107E-1,6.057000160E0
1.991817920E1,-1.669050097E0,2.379000187E0,7.048050404E0
1.993906766E1,-4.189500213E-1,5.797950268E0,2.514000177E0
1.995995616E1,7.933950424E0,5.305050373E0,1.186950088E0
1.998084117E1,9.097949982E0,-2.959050179E0,1.398900032E1
2.000172622E1,4.897950172E0,-8.923050880E0,2.350395203E1
2.002261580E1,7.410000563E-1,-5.787000179E0,1.772400093E1
2.004350538E1,4.897950172E0,-1.225950003E0,6.856950283E0
2.006438816E1,6.936000347E0,-1.149000049E0,1.062795067E1
2.008527094E1,2.398050070E0,-4.288050175E0,1.806900024E1
2.010615694E1,-4.380000234E-1,-4.377000332E0,1.953705025E1
2.012704294E1,-4.470000267E-1,-2.212050200E0,1.487805080E1
2.014793335E1,1.656000137E0,1.305000018E-2,1.003905010E1
2.016882377E1,3.325050116E0,1.147950053E0,8.326950073E0
2.018970842E1,3.448950052E0,9.019500613E-1,8.359950066E0
2.021059308E1,3.145050049E0,9.330000281E-1,9.193950653E0
2.023148474E1,4.060050011E0,8.680500388E-1,7.060050488E0
2.025237643E1,3.631050110E0,1.675050020E0,5.992050171E0
2.027326194E1,4.177050114E0,1.918950081E0,5.341050148E0
2.029414749E1,3.199950218E0,1.960050106E0,7.276050568E0
2.031504053E1,2.275950193E0,1.546050072E0,8.083050728E0
2.033593357E1,1.411950111E0,1.773000121E0,7.948950291E0
2.035682262E1,7.920000553E-1,1.456950068E0,1.038405037E1
2.037771171E1,-1.237950087E0,2.257050037E0,1.076400089E1
2.039859788E1,-2.791050196E0,3.799050093E0,9.664950371E0
2.041948408E1,2.206950188E0,3.358050108E0,7.522050381E0
2.044037468E1,6.763050556E0,5.238000393E0,1.306500053E1
2.046126530E1,5.844000340E0,-2.029500157E-1,1.803795052E1
2.048215256E1,9.310500622E-1,-3.192000151E0,2.010000038E1
2.050303980E1,2.221050024E0,-7.470000386E-1,1.587600040E1
2.052392117E1,5.097000122E0,2.374050140E0,9.522000313E0
2.054480256E1,5.254950047E0,3.274050236E0,9.559950829E0
2.056568378E1,2.539950132E0,1.984050035E0,1.155000019E1
2.058656501E1,1.708950043E0,1.716000080E0,9.373050690E0
2.060744486E1,2.221050024E0,2.403000116E0,4.399950027E0
2.062832471E1,3.325050116E0,3.282000065E0,4.300050259E0
2.064920498E1,2.619000196E0,3.066000223E0,4.399950027E0
2.067008524E1,1.660950065E0,2.635050058E0,4.656000137E0
2.069097218E1,8.950500488E-1,2.365050077E0,4.993950367E0
2.071185914E1,9.570000172E-1,2.523000002E0,5.406000137E0
2.073274267E1,8.370000124E-1,2.760000229E0,5.254950047E0
2.075362617E1,7.750500441E-1,2.605950117E0,5.820000172E0
2.077451049E1,1.612950087E0,2.392950058E0,8.414999962E0
2.079539480E1,1.582050085E0,2.107950211E0,9.708000183E0
2.081628595E1,1.089000106E0,3.394050121E0,8.497050285E0
2.083717707E1,2.029500157E-1,5.464950085E0,5.968050480E0
2.085806641E1,4.620000362E0,6.610050201E0,5.547000408E0
2.087895576E1,6.763050556E0,4.783050060E0,1.540395069E1
2.089985055E1,6.283950329E0,5.710500479E-1,2.024805069E1
2.092074536E1,6.240000129E-1,-8.400000334E-1,1.555005074E1
2.094163285E1,5.569500327E-1,1.656000137E0,7.558050156E0
2.096252035E1,2.655000210E0,2.395950079E0,9.154950142E0
2.098340381E1,1.459950089E0,1.519050121E0,1.257900047E1
2.100428723E1,-1.482000113E0,1.639500111E-1,1.184400082E1
2.102517267E1,-3.258000135E0,5.140500069E-1,9.682050705E0
2.104605805E1,-2.691000223E0,1.471950054E0,8.800950050E0
2.106693912E1,-1.977000117E0,2.050950050E0,9.093000412E0
2.108782020E1,-5.029500127E-1,2.380950212E0,9.177000046E0
2.110870540E1,-2.130000144E-1,2.463000059E0,8.590050697E0
2.112959059E1,1.690500081E-1,2.295000076E0,7.654050350E0
2.115047373E1,5.910000205E-1,2.752050161E0,7.305000305E0
2.117135685E1,1.021950006E0,3.283950090E0,6.829950333E0
2.119224357E1,1.864050031E0,3.448950052E0,6.817950249E0
2.121313030E1,3.318000078E0,3.435000181E0,9.012000084E0
2.123401216E1,4.519500136E-1,3.940050125E0,1.260105038E1
2.125489405E1,-1.039050102E0,2.278050184E0,1.112805080E1
2.127578493E1,-1.774050117E0,3.126000166E0,1.020900059E1
2.129667581E1,-1.612950087E0,6.082950115E0,8.463000298E0
2.131756554E1,-2.641050100E0,7.030950546E0,4.813950062E0
2.133845528E1,-1.870500147E-1,6.265050411E0,9.210000038E0
2.135934059E1,-1.339500099E-1,2.623050213E0,1.357500076E1
2.138022594E1,-5.070000291E-1,-2.595000155E-2,1.662795067E1
2.140110532E1,-1.194000006E0,-6.390000582E-1,1.327095032E1
2.142198471E1,-9.600000083E-2,1.845000029E0,1.082400036E1
2.144287114E1,1.017000079E0,2.049000025E0,1.188195038E1
2.146375760E1,7.459500432E-1,1.078950047E0,1.387200069E1
2.148464610E1,6.289500594E-1,4.489500225E-1,1.412295055E1
2.150553456E1,1.807050109E0,4.060500264E-1,1.202400017E1
2.152642131E1,2.535000086E0,7.990500331E-1,8.692950249E0
2.154730809E1,1.354050040E0,2.009999990E0,3.481050253E0
2.156820071E1,2.910000086E-1,3.508950233E0,1.828950047E0
2.158909336E1,-2.440500110E-1,3.708000183E0,3.720000267E0
2.160997748E1,-6.370500326E-1,3.186000109E0,6.052050114E0
2.163086160E1,-4.005000368E-2,2.386050224E0,7.381050587E0
2.165174559E1,8.830500245E-1,2.281050205E0,8.023050308E0
2.167262959E1,1.126950026E0,2.617950201E0,7.273050308E0
2.169351390E1,1.182000041E0,3.385050058E0,8.430000305E0
2.171439821E1,8.040000200E-1,4.218000412E0,1.039305019E1
2.173528466E1,3.490500152E-1,4.243950367E0,9.655950546E0
2.175617112E1,-4.450500309E-1,5.463000298E0,8.025000572E0
2.177705362E1,-1.221000075E0,7.504950523E0,7.648950577E0
2.179793612E1,-2.197950125E0,7.227000237E0,8.511000633E0
2.181882180E1,-1.669500023E-1,3.715050220E0,9.622050285E0
2.183970745E1,5.400000215E-1,3.102000237E0,1.178205013E1
2.186059164E1,9.979500771E-1,2.760000229E0,1.361295033E1
2.188147584E1,-5.700000525E-1,2.530050039E0,1.313505077E1
2.190236194E1,-2.194950104E0,2.704950094E0,1.171200085E1
2.192324805E1,-2.755950212E0,3.114000082E0,9.742050171E0
2.194413748E1,-2.152050018E0,3.805950165E0,7.791000366E0
2.196502690E1,-4.020000100E-1,3.097050190E0,7.831050396E0
2.198591784E1,1.999500096E-1,2.815050125E0,8.617050171E0
2.200680876E1,-2.782050133E0,2.937000036E0,8.506050110E0
2.202769532E1,-3.960000277E0,2.925000191E0,7.375950336E0
2.204858190E1,-2.641050100E0,2.539050102E0,7.060050488E0
2.206946206E1,-1.069950104E0,3.076050043E0,6.720000267E0
2.209034222E1,-1.663950086E0,3.925950289E0,4.361999989E0
2.211122776E1,-1.645050049E0,3.717000246E0,6.165000439E0
2.213211329E1,-6.610500216E-1,2.515050173E0,9.127050400E0
2.215300181E1,-7.560000420E-1,2.494050026E0,9.985950470E0
2.217389031E1,-1.004999995E0,2.500950098E0,9.475950241E0
2.219477505E1,-1.366950035E0,2.908050060E0,9.775050163E0
2.221565982E1,-1.017000079E0,3.265050173E0,9.522000313E0
2.223655332E1,-8.209500313E-1,3.337050200E0,1.034295082E1
2.225744681E1,-1.885950089E0,3.744000196E0,1.090800095E1
2.227833391E1,-7.200000286E-1,3.009000063E0,9.768000603E0
2.229922103E1,-2.389500141E-1,2.295000076E0,1.524600029E1
2.232010658E1,-6.319500208E-1,8.130000234E-1,1.822695160E1
2.234099212E1,-2.460000068E-1,2.980500162E-1,1.535595036E1
2.236186891E1,8.440500498E-1,1.764000058E0,1.086705017E1
2.238274569E1,-8.040000200E-1,4.201050282E0,9.016050339E0
2.240363721E1,-3.187050104E0,4.981950283E0,9.162000656E0
2.242452874E1,-1.222950101E0,3.648000240E0,8.101950645E0
2.244541322E1,1.009950042E0,3.423000097E0,7.015050411E0
2.246629768E1,7.219500542E-1,4.150950432E0,7.033950329E0
2.248718863E1,4.999500215E-1,3.933000088E0,8.392050743E0
2.250807955E1,-6.150000095E-1,3.226950169E0,9.583950043E0
2.252897436E1,-8.569500446E-1,2.512950182E0,9.085950851E0
2.254986924E1,-1.378950119E0,2.049000025E0,7.656000137E0
2.257075202E1,-8.950500488E-1,2.343000174E0,6.682050228E0
2.259163480E1,-1.411950111E0,2.677950144E0,6.294000149E0
2.261252071E1,-2.491950035E0,3.592950106E0,6.331950188E0
2.263340659E1,-1.750050068E0,3.306000233E0,6.880950451E0
2.265429276E1,1.395000052E-2,3.325050116E0,9.615000725E0
2.267517892E1,-2.580000162E-1,4.801950455E0,1.049400043E1
2.269605853E1,-3.052050114E0,6.330000401E0,7.939050198E0
2.271693819E1,-1.216050029E0,4.831050396E0,1.078800011E1
2.273782008E1,-1.650000066E-1,2.653950214E0,1.528905106E1
2.275870196E1,3.340500295E-1,8.920500278E-1,1.828695107E1
2.277958770E1,1.267950058E0,1.468950033E0,1.914195061E1
2.280047339E1,4.920000136E-1,2.187000036E0,1.507200050E1
2.282135418E1,-6.889500618E-1,2.379000187E0,1.021095085E1
2.284223491E1,-1.246950030E0,2.803050041E0,7.503000259E0
2.286311860E1,-2.173950195E0,3.274050236E0,6.751050472E0
2.288400229E1,-1.779000044E0,2.877000093E0,6.880950451E0
2.290488094E1,-2.820000172E0,2.559000015E0,7.671000481E0
2.292575960E1,-3.316050053E0,2.230950117E0,8.527950287E0
2.294664168E1,-2.791050196E0,2.185050011E0,9.583950043E0
2.296752380E1,-1.525050044E0,2.958000183E0,9.270000458E0
2.298840505E1,-8.209500313E-1,3.492000103E0,8.631000519E0
2.300928628E1,-8.040000200E-1,3.183000088E0,9.154950142E0
2.303017492E1,-1.269000053E0,2.661000013E0,1.053195095E1
2.305106357E1,-1.579950094E0,2.556000233E0,1.067295074E1
2.307195109E1,-1.156050086E0,2.821950197E0,9.919050217E0
2.309283863E1,-8.260500431E-1,2.922000170E0,1.030005074E1
2.311373119E1,-1.027050018E0,2.908050060E0,1.118595028E1
2.313462365E1,-2.017950058E0,2.769000053E0,6.387000084E0
2.315551591E1,-1.044000030E0,1.986000061E0,1.288800049E1
2.317640818E1,-1.453050017E0,1.993050098E0,1.264095020E1
2.319729557E1,-1.980000138E0,2.068050146E0,7.873950481E0
2.321818296E1,-1.566000104E0,2.187000036E0,5.410950184E0
2.326277426E1,-6.250500083E-1,2.233050108E0,9.696000099E0
2.328453791E1,-1.194000006E0,2.242050171E0,9.694050789E0
2.330541877E1,-1.873950124E0,2.101050138E0,8.803050041E0
2.332630103E1,-2.083050013E0,2.002950191E0,8.676000595E0
2.334717757E1,-1.885950089E0,2.050950050E0,9.343950272E0
2.336805387E1,-1.342950106E0,2.125050068E0,9.876000404E0
2.338892973E1,-1.055999994E0,2.319000006E0,9.406949997E0
2.340980558E1,-1.213950038E0,2.566050053E0,9.310950279E0
2.343068541E1,-1.353000045E0,2.491050005E0,9.205950737E0
2.345156526E1,-1.723950028E0,2.362050056E0,9.604950905E0
2.347244562E1,-1.675950050E0,1.948050141E0,9.913950920E0
2.349332597E1,-1.909950137E0,1.845000029E0,1.036905003E1
2.351420162E1,-1.996950150E0,2.106000185E0,9.715950012E0
2.353507728E1,-1.779000044E0,2.331000090E0,9.400050163E0
2.355595300E1,-1.501050115E0,2.428950071E0,9.495000839E0
2.357682874E1,-1.527000070E0,2.371950150E0,9.511950493E0
2.359771057E1,-1.494000077E0,2.167950153E0,1.019700050E1
2.361859241E1,-1.534050107E0,1.924050093E0,1.000305080E1
2.363947730E1,-1.663950086E0,1.950000048E0,9.744000435E0
2.366036219E1,-1.467000127E0,2.026950121E0,9.871050835E0
2.368124530E1,-1.405050039E0,2.034000158E0,9.649050713E0
2.370212842E1,-1.387950063E0,1.954950094E0,9.337050438E0
2.372300825E1,-1.459950089E0,1.965000153E0,9.337050438E0
2.374388810E1,-1.266000032E0,1.977000117E0,9.553050041E0
2.376476959E1,-1.209000111E0,2.068050146E0,9.423000336E0
2.378565112E1,-1.153950095E0,2.202000141E0,9.220050812E0
2.380652676E1,-1.113000035E0,2.128050089E0,8.971050262E0
2.382740242E1,-1.276050091E0,2.044049978E0,9.249000549E0
2.384828058E1,-1.354950070E0,1.957950115E0,9.715950012E0
2.386915873E1,-1.269000053E0,1.969950080E0,9.682050705E0
2.389003611E1,-1.465050101E0,2.107950211E0,9.534000397E0
2.391091350E1,-1.396050096E0,2.058000088E0,9.495000839E0
2.393179826E1,-1.432050109E0,1.966950059E0,9.514050484E0
2.395268303E1,-1.386000037E0,1.912050128E0,9.547950745E0
2.397356258E1,-1.530000091E0,1.864050031E0,9.640950203E0
2.399444212E1,-1.314000010E0,1.795050144E0,9.498000145E0
2.401532647E1,-1.498950124E0,1.780050039E0,9.184050560E0
2.403621082E1,-1.393050075E0,1.720950127E0,9.220050812E0
2.405709047E1,-1.435950041E0,1.474050045E0,9.694050789E0
2.407797016E1,-1.549050093E0,1.159950018E0,1.009395027E1
2.409885567E1,-1.876950145E0,1.123950005E0,9.904950142E0
2.411974116E1,-1.645050049E0,1.507050037E0,9.541050911E0
2.414062395E1,-1.441050053E0,1.696950078E0,9.319950104E0
2.416150676E1,-1.446000099E0,1.929000139E0,9.028050423E0
2.418238736E1,-1.044000030E0,2.058000088E0,9.409049988E0
2.420326794E1,-9.139500260E-1,2.238000154E0,9.382950783E0
2.422415777E1,-4.470000267E-1,2.488950014E0,9.487950325E0
2.424504761E1,-5.940000415E-1,2.542050123E0,9.739050865E0
2.426593634E1,-1.029000044E0,2.391000032E0,9.751049995E0
2.428682512E1,-1.321050048E0,2.062950134E0,9.850050926E0
2.430769863E1,-1.297050118E0,1.918950081E0,1.000005054E1
2.432857218E1,-1.192050099E0,1.882950068E0,9.945000648E0
2.434945248E1,-1.020000100E0,1.941000104E0,9.742050171E0
2.437033278E1,-8.310000300E-1,2.065050125E0,9.166950226E0
2.439121345E1,-5.620500445E-1,2.295000076E0,8.632950783E0
2.441209411E1,-3.730500042E-1,2.439000130E0,8.554050446E0
2.443297612E1,-2.539499998E-1,2.262000084E0,8.530050278E0
2.445385812E1,-3.109500110E-1,2.110949993E0,8.403000832E0
2.447473995E1,-3.559500277E-1,2.080049992E0,8.161950111E0
2.449562180E1,-2.389500141E-1,2.070000172E0,8.089950562E0
2.451649948E1,-1.530000120E-1,2.065050125E0,7.774050236E0
2.453737713E1,-2.149500102E-1,1.917000055E0,7.312050343E0
2.455825789E1,-2.970000207E-1,2.026950121E0,6.901950359E0
2.457913866E1,-5.530500412E-1,2.026950121E0,7.929000378E0
2.460002266E1,-7.369500399E-1,2.106000185E0,7.288050175E0
2.462090665E1,-2.749500275E-1,1.267950058E0,7.597050190E0
2.464179150E1,-1.611000061E0,1.606050134E0,1.712595177E1
2.466267631E1,-1.716000080E0,1.780050039E0,1.324995041E1
2.468355531E1,-9.220500588E-1,1.110000014E0,1.413300037E1
2.470443435E1,-2.939999998E-1,-2.110500038E-1,1.085805035E1
2.472531713E1,-6.169500351E-1,3.250500262E-1,1.012005043E1
2.474619989E1,-2.905950069E0,-1.018050075E0,9.687000275E0
2.476708621E1,-3.828000069E0,-9.859500527E-1,9.519000053E0
2.478797252E1,-4.870050430E0,2.542050123E0,7.776000500E0
2.480885462E1,-1.852950096E0,4.677000046E0,8.197950363E0
2.482973678E1,-1.408050060E0,2.668950081E0,8.454000473E0
2.485062052E1,-5.203050137E0,-1.800000072E0,8.571000099E0
2.487150421E1,-5.146950245E0,-1.872000098E0,9.541050911E0
2.489239054E1,-3.687000275E0,-2.989500165E-1,9.298950195E0
2.491327684E1,-4.839000225E0,9.540000558E-1,1.150395012E1
2.493415873E1,-3.996000290E0,3.625950098E0,1.222005081E1
2.495504062E1,8.710500598E-1,1.194000006E0,1.080300045E1
2.497592245E1,-1.672950029E0,1.305000018E-2,9.142950058E0
2.499680429E1,-5.332050323E0,4.849500358E-1,5.901000500E0
2.501768396E1,-2.815050125E0,7.995000482E-2,3.991050243E0
2.503856361E1,-2.866050243E0,-3.105000220E-2,4.126950264E0
2.505943930E1,2.100000158E-2,1.021050096E0,4.117949963E0
2.508031500E1,1.527000070E0,1.957950115E0,5.538000107E0
2.510119716E1,5.670000315E-1,4.200000167E-1,5.359950066E0
2.512207931E1,-5.205000192E-2,3.750000298E-1,4.113000393E0
2.514296150E1,3.970500231E-1,1.206000090E0,5.086950302E0
2.516384369E1,-2.361000061E0,2.242050171E0,5.925000191E0
2.518472336E1,-1.612950087E0,1.897950053E0,5.277000427E0
2.520560302E1,2.254950047E0,1.419000030E0,8.683950424E0
2.522648440E1,1.477050066E0,-2.467950106E0,1.626900101E1
2.524736578E1,-5.119500160E-1,-4.185000420E0,1.755000114E1
2.526825317E1,5.329500437E-1,-1.654050112E0,1.257405090E1
2.528914055E1,5.620500445E-1,-7.609500289E-1,1.311795044E1
2.531002937E1,9.550500512E-1,-9.289500713E-1,1.598595047E1
2.533091818E1,-1.699950099E0,2.887050152E0,1.180305099E1
2.535179878E1,6.030000448E-1,5.832000256E0,2.230950117E0
2.537267940E1,1.693950057E0,5.796000481E0,2.695950031E0
2.539356631E1,2.202000141E0,-2.200050116E0,1.431705093E1
2.541445319E1,3.493050098E0,-5.932950497E0,2.354505157E1
2.543534424E1,1.441050053E0,-3.316050053E0,1.844295120E1
2.545623531E1,-2.749500275E-1,-1.978050113E0,9.346950531E0
2.547712366E1,-1.414950013E0,1.395000100E0,5.185950279E0
2.549801201E1,-7.800000310E-1,2.254050016E0,5.110950470E0
2.551890232E1,-4.470000267E-1,1.723050117E0,6.868950367E0
2.553979263E1,-2.400000021E-2,1.351950049E0,7.125000477E0
2.556066984E1,-4.279500246E-1,1.126950026E0,6.112050056E0
2.558154708E1,-2.010000050E-1,2.106000185E0,5.226000309E0
2.560242689E1,3.427950144E0,1.443000078E0,4.117949963E0
2.562330669E1,4.002000332E0,-7.900500298E-1,7.941000462E0
2.564419027E1,2.482050180E0,-4.480050087E0,1.366095066E1
2.566507385E1,1.546050072E0,-4.537050247E0,1.642005157E1
2.568595856E1,1.744950056E0,-1.357950091E0,1.095600033E1
2.570684329E1,2.406000137E0,8.869500160E-1,7.972950459E0
2.572772903E1,1.572000027E0,-3.105000220E-2,1.111095047E1
2.574861476E1,-1.030500084E-1,-3.760500252E-1,1.164495087E1
2.576949905E1,-1.515000105E0,2.749950171E0,7.242000580E0
2.579038336E1,1.788000107E0,7.062000275E0,9.000000358E-1
2.581126468E1,3.739050150E0,4.084050179E0,4.281000137E0
2.583214603E1,3.439950228E0,-7.213950157E0,2.080800056E1
2.585303591E1,1.132050037E0,-8.212050438E0,2.824695206E1
2.587392575E1,2.134950161E0,-1.984950066E0,1.429800034E1
2.589481504E1,1.788000107E0,3.238950253E0,2.305050135E0
2.591570431E1,1.024049997E0,3.684000254E0,2.200050116E0
2.593658741E1,1.699050069E0,9.160500169E-1,1.077405071E1
2.595747048E1,1.821000099E0,5.860500336E-1,1.434105110E1
2.597835351E1,1.636950135E0,6.499500275E-1,1.008900070E1
2.599923655E1,2.995050192E0,2.077050209E0,6.270000458E0
2.602011796E1,2.659050226E0,2.752050161E0,5.631000042E0
2.604099934E1,4.302000046E0,1.198950052E0,4.611000061E0
2.606188294E1,5.334000111E0,-5.479500294E-1,8.047050476E0
2.608276651E1,4.195950031E0,-2.370000124E0,1.226805019E1
2.610364174E1,1.816950083E0,-3.934050083E0,1.348905087E1
2.612451698E1,8.130000234E-1,-2.728950024E0,1.120200062E1
2.614540330E1,1.837950110E0,-5.910000205E-1,9.226950645E0
2.616628960E1,1.564950109E0,-1.120500043E-1,1.130805016E1
2.618716754E1,-4.710000157E-1,-1.020000100E0,1.144695091E1
2.620804551E1,-6.630000472E-1,-2.205000073E-2,8.224050522E0
2.622892077E1,-3.949500322E-1,2.848050117E0,6.744000435E0
2.624979600E1,-1.669500023E-1,5.638050079E0,4.477050304E0
2.627067051E1,2.772000074E0,4.825950146E0,1.917000055E0
2.629154501E1,1.896000147E0,1.090500057E-1,1.208595085E1
2.631242067E1,1.705950022E0,-5.203050137E0,2.287905121E1
2.633329633E1,1.291950107E0,-3.673050165E0,1.847100067E1
2.635417606E1,3.610500097E-1,-8.599500656E-1,1.003605080E1
2.637505575E1,5.710500479E-1,1.201050043E0,6.628950119E0
2.639593965E1,5.599500537E-1,1.800000072E0,7.609050274E0
2.641682353E1,5.160000324E-1,1.263000011E0,8.707950592E0
2.643770519E1,1.390050054E0,5.689499974E-1,9.768000603E0
2.645858685E1,2.791050196E0,1.735050082E0,7.678050518E0
2.647946820E1,6.184050083E0,5.020500422E-1,2.722050190E0
2.650034959E1,6.595950127E0,-1.561050057E0,9.367950439E0
2.652123179E1,5.551950455E0,-6.546000481E0,2.219205093E1
2.654211399E1,2.251950026E0,-6.397050381E0,1.929000092E1
2.656299478E1,1.279950023E0,-1.762050033E0,1.015605068E1
2.658387555E1,1.893000126E0,1.129050016E0,6.328050137E0
2.660476186E1,1.153050065E0,1.833000064E0,6.553050518E0
2.662564817E1,8.710500598E-1,2.116050005E0,4.743000031E0
2.664653412E1,5.520000458E-1,1.809000134E0,5.140050411E0
2.666742009E1,6.430500150E-1,1.699050069E0,7.870050430E0
2.668830072E1,1.057950020E0,2.029050112E0,8.347949982E0
2.670918137E1,1.696950078E0,4.747050285E0,4.936950207E0
2.673006135E1,3.651000261E0,5.887050152E0,-2.200500071E-1
2.675094135E1,3.394050121E0,3.600000143E0,6.273000240E0
2.677182592E1,2.911050081E0,-3.912000179E0,2.012805176E1
2.679271049E1,1.033950090E0,-5.169000149E0,2.417700195E1
2.681358972E1,9.670500755E-1,-1.113000035E0,1.364895058E1
2.683446900E1,1.996050119E0,3.121050119E0,5.394000053E0
2.685535018E1,2.341050148E0,4.330049992E0,6.202950478E0
2.687623137E1,2.419950008E0,3.832050085E0,9.145950317E0
2.689711588E1,8.590500355E-1,3.399000168E0,8.502000809E0
2.691800038E1,3.174000263E0,1.921950102E0,4.503000259E0
2.693888479E1,7.551000595E0,1.675050020E0,9.070950508E0
2.695976921E1,8.779050827E0,-1.198950052E0,1.732695007E1
2.698065227E1,4.335000038E0,-3.577050209E0,1.679295158E1
2.700153535E1,2.034000158E0,-1.969950080E0,1.177905083E1
2.702242225E1,2.587050200E0,9.780000448E-1,8.920950890E0
2.704330918E1,2.263950109E0,2.626050234E0,7.462950230E0
2.706420027E1,-2.460000068E-1,2.568000078E0,7.101000309E0
2.708509135E1,-1.039050102E0,2.416950226E0,6.246000290E0
2.710597535E1,-7.080000043E-1,2.061000109E0,6.790050507E0
2.712685935E1,-9.240000248E-1,2.098950148E0,8.241000175E0
2.714774009E1,-2.629500031E-1,2.386050224E0,9.535950661E0
2.716862086E1,-1.135050058E0,3.874950171E0,9.782999992E0
2.718950569E1,-3.795000166E-2,5.010000229E0,6.189000130E0
2.721039050E1,2.812950134E0,5.431950092E0,5.290950298E0
2.723125691E1,1.714050055E0,2.530050039E0,1.246695042E1
2.725212334E1,1.824000120E0,-3.043050051E0,1.987200165E1
2.727300148E1,-1.339500099E-1,-2.719950199E0,1.665405083E1
2.729387962E1,-3.088050127E0,1.669500023E-1,1.101795006E1
2.731475890E1,1.195950031E0,1.275000095E0,6.756000519E0
2.733563817E1,3.459000111E0,2.161050081E0,6.058950424E0
2.735651465E1,5.038950443E0,9.330000281E-1,7.297050476E0
2.737739112E1,4.024050236E0,2.374050140E0,1.304805088E1
2.739827513E1,7.627050400E0,3.601950169E0,1.178700066E1
2.741915913E1,5.647050381E0,1.363950014E0,1.365195084E1
2.744004311E1,-1.012950063E0,-2.538000107E0,1.692495155E1
2.746092707E1,-1.396050096E0,-3.163050175E0,1.486800098E1
2.748180788E1,3.919500113E-1,-1.168050051E0,1.050105095E1
2.750268869E1,2.224050045E0,1.548000097E0,7.987050533E0
2.752357742E1,2.689950228E0,2.458050013E0,5.176050186E0
2.754446614E1,1.756950140E0,1.431000113E0,3.648000240E0
2.756535217E1,2.939999998E-1,7.459500432E-1,2.971050024E0
2.758623821E1,-1.704000115E0,1.428000093E0,3.651000261E0
2.760712358E1,-7.009500265E-1,9.160500169E-1,5.001000404E0
2.762800897E1,1.693950057E0,1.416000009E0,1.030905056E1
2.764889309E1,-2.095050097E0,2.125050068E0,1.043595028E1
2.766977721E1,8.730000257E-1,1.950000048E0,9.631950378E0
2.769066031E1,3.042000055E0,3.246000051E0,9.744000435E0
2.771154339E1,-5.119500160E-1,2.282999992E0,1.084605026E1
2.773242232E1,2.146950006E0,-5.290500522E-1,1.238805103E1
2.775330124E1,2.535000086E0,-7.830000520E-1,1.334100056E1
2.777418187E1,1.090950012E0,9.000000358E-2,1.277100086E1
2.779506249E1,-1.150950074E0,9.829500318E-1,1.172400093E1
2.781593968E1,1.380000114E-1,3.127950191E0,1.187805080E1
2.783681691E1,1.066950083E0,2.845950127E0,1.112295055E1
2.785769725E1,-1.417050123E0,3.436950207E0,8.089950562E0
2.787857756E1,1.524000049E0,7.984050274E0,6.510000229E0
2.789945651E1,6.483000278E0,5.283000469E0,1.618995094E1
2.792033547E1,1.447950125E0,9.210000634E-1,2.296095085E1
2.794121943E1,-1.465050101E0,9.400500655E-1,1.610595131E1
2.796210339E1,9.520500302E-1,2.872050047E0,7.081950188E0
2.798298574E1,3.727050066E0,3.751050234E0,9.343950272E0
2.800386809E1,2.290500104E-1,3.106950045E0,1.536105061E1
2.802475312E1,-5.700000525E-1,9.949500561E-1,1.334295082E1
2.804563815E1,-1.932000041E0,1.584000111E0,9.541050911E0
2.806651542E1,-3.520500064E-1,2.797950029E0,7.149000168E0
2.808739269E1,-1.525050044E0,2.254050016E0,6.979050159E0
2.810827789E1,-2.509050131E0,2.065050125E0,7.609050274E0
2.812916308E1,-1.788000107E0,1.588950038E0,8.855999947E0
2.815004264E1,-1.519950032E0,1.390050054E0,9.604950905E0
2.817092218E1,-1.716000080E0,2.025000095E0,8.320050240E0
2.819179822E1,-9.810000658E-1,2.427000046E0,8.751000404E0
2.821267426E1,-1.012950063E0,2.053050041E0,9.862050056E0
2.823355627E1,-9.070500135E-1,2.721000195E0,8.842050552E0
2.825443826E1,-1.159050107E0,2.065050125E0,8.997000694E0
2.827532007E1,-2.101950169E0,1.423950076E0,1.047900009E1
2.829620192E1,-1.815000057E0,1.669950128E0,1.098900032E1
2.831708445E1,-1.225950003E0,1.467000127E0,1.171005058E1
2.833796702E1,-1.218000054E0,1.503000021E0,1.101795006E1
2.835884180E1,-1.264050007E0,1.843050122E0,9.651000023E0
2.837971661E1,-7.900500298E-1,2.913000107E0,8.607000351E0
2.840059829E1,-1.953000069E0,1.822950125E0,4.594050407E0
2.842147994E1,-1.594050050E0,2.548950195E0,7.458000183E0
2.844236055E1,-8.595000207E-2,3.181050062E0,1.187505054E1
2.846324117E1,-2.194950104E0,2.350050211E0,1.166700077E1
2.853236826E1,-1.206000090E0,4.129050255E0,8.533050537E0
2.855236827E1,-8.209500313E-1,4.144050121E0,9.361050606E0
2.857325635E1,-1.270950079E0,4.038000107E0,8.875050545E0
2.859414363E1,-1.573050022E0,3.715050220E0,8.812950134E0
2.861503522E1,-1.989000082E0,3.612000227E0,9.210000038E0
2.863592704E1,-2.040000200E0,3.616950274E0,9.193950653E0
2.865681981E1,-1.405050039E0,3.751050234E0,9.640950203E0
2.867771258E1,-9.139500260E-1,3.829950094E0,9.850050926E0
2.869860972E1,-1.055999994E0,3.808050156E0,9.118950844E0
2.871950683E1,-9.649500251E-1,3.796050072E0,8.976000786E0
2.874039443E1,-8.980500698E-1,3.801000118E0,8.679000854E0
2.876128209E1,-7.800000310E-1,3.760050297E0,8.905950546E0
2.878217165E1,-1.156050086E0,3.459000111E0,9.282000542E0
2.880306119E1,-1.684950113E0,3.435000181E0,9.094950676E0
2.882395149E1,-1.603950024E0,3.499050140E0,9.414000511E0
2.884484180E1,-1.177950025E0,3.400950193E0,9.640950203E0
2.886572739E1,-1.341000080E0,3.411000252E0,9.483000755E0
2.888661297E1,-1.410000086E0,3.412950277E0,9.009000778E0
2.890750114E1,-1.252050042E0,3.508950233E0,8.964000702E0
2.892838929E1,-1.432050109E0,3.454050064E0,8.791049957E0
2.894927484E1,-1.441050053E0,3.313050270E0,9.043050766E0
2.897016038E1,-1.726050138E0,3.222000122E0,9.166950226E0
2.899104930E1,-1.563000083E0,3.253050089E0,9.148050308E0
2.901193822E1,-1.507950068E0,3.279000044E0,9.201000214E0
2.903282761E1,-1.666050076E0,3.169050217E0,9.166950226E0
2.905371699E1,-1.783050060E0,3.088050127E0,8.961000443E0
2.907460285E1,-1.768950105E0,3.069000244E0,9.225000381E0
2.909548870E1,-1.681050062E0,3.187950134E0,9.298950195E0
2.911637068E1,-1.470000029E0,3.139950037E0,9.220050812E0
2.913725264E1,-1.852950096E0,3.205050230E0,8.662050247E0
2.915814336E1,-2.092050076E0,3.289050102E0,8.487000465E0
2.917903413E1,-2.248050213E0,3.265050173E0,8.988000870E0
2.919992458E1,-2.434950113E0,3.163950205E0,9.342000008E0
2.922081504E1,-2.490000010E0,3.121050119E0,9.535950661E0
2.924170875E1,-2.410950184E0,2.887050152E0,9.178950310E0
2.926260249E1,-2.451000214E0,3.010950089E0,8.971050262E0
2.928349523E1,-2.200050116E0,2.970000029E0,9.021000862E0
2.930438796E1,-2.001000166E0,3.010950089E0,9.184050560E0
2.932528125E1,-1.792950034E0,2.820000172E0,9.378000259E0
2.934617448E1,-1.525050044E0,2.769000053E0,9.481050491E0
2.936706542E1,-1.221000075E0,2.785950184E0,9.955050468E0
2.938795638E1,-6.169500351E-1,2.713950157E0,9.967050552E0
2.940884574E1,-3.949500322E-1,2.922000170E0,9.627000809E0
2.942973509E1,-3.709500134E-1,3.150000095E0,9.222000122E0
2.945062805E1,-4.810500145E-1,3.130950212E0,8.775000572E0
2.947152101E1,-4.470000267E-1,2.878950119E0,8.230950356E0
2.949240975E1,-4.069500268E-1,2.604000092E0,8.170949936E0
2.951329848E1,-3.559500277E-1,2.556000233E0,8.620950699E0
2.953418685E1,1.395000052E-2,2.398050070E0,8.095050812E0
2.955507519E1,-6.169500351E-1,2.707050085E0,7.627950191E0
2.957596492E1,-1.258950114E0,1.948050141E0,5.995050430E0
2.959685461E1,-1.522950053E0,2.154000044E0,6.784950256E0
2.961773534E1,-1.498950124E0,1.974000096E0,8.451000214E0
2.963861607E1,-1.663950086E0,1.701000094E0,9.577050209E0
2.965949823E1,-1.642050028E0,9.850500226E-1,9.634050369E0
2.968038038E1,-9.600000381E-1,1.950000077E-1,9.093000412E0
2.970125455E1,-4.759500325E-1,-5.080500245E-1,8.443950653E0
2.972212875E1,-9.049500227E-1,-7.300500274E-1,8.563950539E0
2.974300879E1,-7.180500627E-1,-1.053000093E0,8.236050606E0
2.976388879E1,-7.395000011E-2,-1.381050110E0,8.164050102E0
2.978476386E1,3.460500240E-1,-1.618050098E0,8.072999954E0
2.980563890E1,1.623000026E0,-1.771950126E0,8.071050644E0
2.982651186E1,1.654050112E0,-1.057950020E0,8.800950050E0
2.984738482E1,-1.242000103E0,5.760000348E-1,1.017000008E1
2.986826402E1,7.249500155E-1,6.409500241E-1,1.086195087E1
2.988914325E1,1.840050101E0,1.084050059E0,1.134105015E1
2.991002612E1,1.108050108E0,6.550500393E-1,1.182705021E1
2.993090901E1,1.663050056E0,4.609500170E-1,1.198305035E1
2.995178412E1,1.768950105E0,-3.760500252E-1,1.393200111E1
2.997265924E1,1.222950101E0,-3.310950041E0,1.786095047E1
2.999354138E1,-2.820000052E-1,-5.725050449E0,2.051895142E1
3.001442353E1,-1.894050121E0,-5.209950447E0,2.036805153E1
3.003530641E1,-2.602050066E0,-3.673050165E0,1.713300133E1
3.005618933E1,-1.756950140E0,-1.698000073E0,1.343895054E1
3.007706530E1,-2.749500275E-1,1.090500057E-1,1.055400085E1
3.009794130E1,1.168050051E0,1.408950090E0,8.551950455E0
3.011882423E1,1.255950093E0,2.230950117E0,7.209000111E0
3.013970714E1,5.740500093E-1,2.074949980E0,6.024000168E0
3.016059170E1,-7.129500508E-1,1.831050038E0,5.572950363E0
3.018147628E1,-1.159050107E0,1.165050030E0,4.530000210E0
3.020236276E1,-2.218950033E0,1.488000035E0,4.441050053E0
3.022324922E1,-2.317050219E0,1.165050030E0,4.249050140E0
3.024413664E1,-2.140050173E0,6.310500503E-1,4.714050293E0
3.026502406E1,-2.386950016E0,5.659500360E-1,5.182950020E0
3.028591111E1,-2.185950041E0,4.830000103E-1,5.269050121E0
3.030679819E1,-1.566000104E0,6.649500132E-1,5.728950500E0
3.032768400E1,-9.379500151E-1,7.960500121E-1,6.985950470E0
3.034856981E1,-6.130500436E-1,7.219500542E-1,7.554000378E0
3.036945655E1,-8.520000577E-1,3.850500286E-1,8.200050354E0
3.039034332E1,-1.348050117E0,3.850500286E-1,8.965950012E0
3.041123070E1,-2.356050014E0,1.198950052E0,9.184050560E0
3.043211809E1,-2.205000162E0,2.335950136E0,8.855999947E0
3.045300288E1,-1.423950076E0,3.004050255E0,8.688000679E0
3.047388765E1,-1.198950052E0,3.676950216E0,8.851050377E0
3.049477135E1,-5.359500051E-1,1.741950035E0,1.080705070E1
3.051565508E1,-2.454000235E0,-1.597050071E0,1.538295078E1
3.053654365E1,-5.917950153E0,-3.028950214E0,1.795395088E1
3.055743223E1,-8.047050476E0,-1.891050100E0,1.693395042E1
3.057831930E1,-5.775000095E0,-3.105000220E-2,1.216695023E1
3.059920638E1,-2.832000017E0,1.249050021E0,1.187295055E1
3.062009475E1,-2.052000046E0,7.360500097E-1,1.512705040E1
3.064098310E1,-2.916000128E0,4.729500115E-1,1.557000065E1
3.066187415E1,-3.679950237E0,8.080500364E-1,1.206405067E1
3.068276519E1,-3.289050102E0,1.582050085E0,8.293050766E0
3.070365382E1,-2.779950142E0,2.452950001E0,5.983050346E0
3.072454248E1,-2.286000013E0,3.001050234E0,5.425050259E0
3.074543057E1,-1.597050071E0,2.820000172E0,5.884950161E0
3.076631868E1,-1.285050035E0,2.506050110E0,7.051050186E0
3.078720071E1,-1.375950098E0,1.894950032E0,7.728000164E0
3.080808275E1,-1.827000141E0,1.191000104E0,8.113950729E0
3.082896872E1,-2.274000168E0,5.710500479E-1,8.575950623E0
3.084985468E1,-1.836000085E0,2.939999998E-1,8.890050888E0
3.087073611E1,-1.683000088E0,1.140000075E-1,9.457050323E0
3.089161750E1,-1.873950124E0,-1.270500124E-1,9.814050674E0
3.091249582E1,-2.040000200E0,-7.695000619E-2,8.794050217E0
3.093337417E1,-2.080049992E0,3.990000188E-1,7.216050148E0
3.095425117E1,-2.122950077E0,9.499500394E-1,6.009000301E0
3.097512822E1,-1.984950066E0,1.564950109E0,5.122950077E0
3.099601146E1,-1.678050041E0,2.149049997E0,5.073000431E0
3.101689473E1,-1.707000136E0,2.167950153E0,5.554050446E0
3.103777460E1,-1.731000066E0,1.974000096E0,6.865950108E0
3.105865445E1,-1.846050143E0,1.821000099E0,9.142950058E0
3.107953720E1,-2.284050226E0,1.603050113E0,1.145595074E1
3.110041993E1,-2.076000214E0,1.444950104E0,1.184895039E1
3.112130516E1,-1.399950027E0,2.140050173E0,1.049805069E1
3.114219039E1,3.370500207E-1,2.080049992E0,9.352050781E0
3.116308103E1,-2.680500150E-1,3.750000298E-1,1.257405090E1
3.118397164E1,-2.844000101E0,-2.049000025E0,1.577805042E1
3.120485260E1,-3.570000172E0,-2.203050137E0,1.698195076E1
3.122573357E1,1.170000061E-1,-8.430000544E-1,1.208595085E1
3.124662157E1,3.616950274E0,2.013000011E0,8.913000107E0
3.126750953E1,3.006000042E0,2.527050018E0,1.149195099E1
3.128838789E1,1.869000077E0,1.147950053E0,1.364505100E1
3.130926624E1,7.060500383E-1,1.378050089E0,1.387695026E1
3.133015420E1,3.679500222E-1,2.359950066E0,1.077105045E1
3.135104215E1,-5.430000424E-1,3.676950216E0,7.876950264E0
3.137192875E1,-1.081950068E0,4.017000198E0,6.670050144E0
3.139281537E1,-1.063050032E0,3.124050140E0,7.683000565E0
3.141369879E1,-4.830000103E-1,1.861950040E0,1.211205101E1
3.143458221E1,-1.503000021E0,1.384950042E0,9.898050308E0
3.145546354E1,1.407000065E0,2.769000053E0,7.150950432E0
3.147634488E1,1.915050149E0,2.776050091E0,6.904950142E0
3.149722817E1,-1.429050088E0,1.780050039E0,4.372050285E0
3.151811144E1,-3.340050220E0,4.080000222E-1,2.683950186E0
3.153899532E1,-1.708950043E0,2.149500102E-1,2.403000116E0
3.155987916E1,-5.023050308E0,4.470000267E-1,7.945950508E0
3.158076223E1,-1.951050043E0,-7.159500122E-1,7.281000137E0
3.160164527E1,9.880500436E-1,-3.760500252E-1,9.241050720E0
3.162253039E1,-7.180500627E-1,-5.629500151E-1,7.732950211E0
3.164341550E1,-1.237950087E0,-2.895000204E-2,3.960000277E0
3.166430220E1,-1.603950024E0,5.550000072E-1,5.892000198E0
3.168518893E1,-1.747950077E0,9.109500647E-1,1.035705090E1
3.170608003E1,-4.918050289E0,4.339950085E0,8.049000740E0
3.172697111E1,-8.751000404E0,9.724950790E0,-8.140500188E-1
3.174785707E1,7.609500289E-1,1.094295025E1,3.706050158E0
3.176874307E1,3.270000219E0,2.937000036E0,1.794195175E1
3.178963356E1,6.600000262E-1,-5.518950462E0,2.423700142E1
3.181052406E1,1.072050095E0,-4.741050243E0,2.141400146E1
3.183140218E1,4.492950439E0,-2.785050154E0,1.871595001E1
3.185228030E1,5.275950432E0,-2.977950096E0,1.912995148E1
3.187316120E1,5.140500069E-1,-3.499950171E0,1.651095009E1
3.189404213E1,-2.289000034E0,-3.043050051E0,1.416705036E1
3.191492309E1,-1.909500062E-1,-2.196000099E0,1.257405090E1
3.193580405E1,1.383000016E0,-9.480000734E-1,1.120695019E1
3.195669084E1,1.450050116E0,-4.090500176E-1,8.890050888E0
3.197757761E1,1.021950006E0,3.199500144E-1,7.056000233E0
3.199846790E1,1.678050041E0,1.041000009E0,6.093000412E0
3.201935817E1,3.232050180E0,1.299000025E0,7.378950119E0
3.204024674E1,3.964050293E0,1.158000112E0,8.277000427E0
3.206113536E1,3.490050077E0,7.720500231E-1,8.353050232E0
3.208203010E1,2.358000040E0,7.770000100E-1,7.101000309E0
3.210292487E1,1.857000113E0,1.275000095E0,5.716950417E0
3.212381999E1,2.314950228E0,1.761000037E0,5.323950291E0
3.214471510E1,2.857950211E0,2.107950211E0,6.301050186E0
3.216560819E1,3.109050035E0,2.286000013E0,6.979050159E0
3.218650127E1,1.873950124E0,2.254050016E0,7.077000141E0
3.220739324E1,1.048050046E0,2.809950113E0,7.294950485E0
3.222828520E1,7.510500550E-1,3.696000099E0,7.330950260E0
3.224918009E1,1.258950114E0,5.230950356E0,8.146950722E0
3.227007501E1,2.764950037E0,5.044050217E0,6.943050385E0
3.229096425E1,5.923050404E0,4.033050060E0,8.776950836E0
3.231185348E1,4.612950325E0,4.680000246E-1,1.401795101E1
3.233274694E1,3.319950104E0,-1.470000029E0,1.708500099E1
3.235364036E1,1.873950124E0,-2.097000122E0,1.685100174E1
3.237453345E1,5.319000244E0,-9.360000491E-1,1.598100090E1
3.239542653E1,7.357050419E0,-1.024950027E0,1.898895073E1
3.241631418E1,5.295000076E0,-1.330950022E0,1.871295166E1
3.243720188E1,3.085050106E0,-2.179500163E-1,1.227000046E1
3.245809002E1,2.287950039E0,1.371000051E0,6.541050434E0
3.247897817E1,1.905000091E0,2.146950006E0,4.137000084E0
3.249986815E1,1.393050075E0,2.515050173E0,3.984000206E0
3.252075826E1,7.770000100E-1,2.254050016E0,4.470000267E0
3.254164993E1,1.720500141E-1,2.499000072E0,4.093950272E0
3.256254162E1,2.629500031E-1,3.069000244E0,3.021000147E0
3.258343010E1,4.639500082E-1,3.210000038E0,3.342000246E0
3.260431857E1,3.510000110E-1,2.460000038E0,5.449050426E0
3.262520990E1,6.720000505E-1,1.962000132E0,7.024050236E0
3.264610117E1,1.000050068E0,1.584000111E0,8.688000679E0
3.266699163E1,9.400500655E-1,7.200000286E-1,1.015095043E1
3.268788205E1,1.624950051E0,3.270000219E-1,1.154505062E1
3.270877173E1,2.056050062E0,4.920000136E-1,1.193295097E1
3.272966142E1,1.546050072E0,1.261050105E0,1.012005043E1
3.275054761E1,1.660950065E0,2.451000214E0,8.188050270E0
3.277143380E1,2.061000109E0,4.644000053E0,7.222950459E0
3.279232671E1,3.949950218E0,6.397050381E0,4.129950047E0
3.281321959E1,5.475000381E0,3.247950077E0,7.731000423E0
3.283411359E1,3.040050030E0,-2.277000189E0,1.521300030E1
3.285500759E1,-4.020000100E-1,-3.472050190E0,1.681500053E1
3.287590055E1,-5.905950069E0,-2.041949987E0,1.608195114E1
3.289679351E1,-4.044000149E0,9.280500412E-1,1.832295036E1
3.291767439E1,6.210000515E0,2.602050066E0,2.049900055E1
3.293855528E1,6.198000431E0,1.689000130E0,1.880205154E1
3.295943748E1,1.563000083E0,7.219500542E-1,1.291395092E1
3.298031979E1,7.200000286E-1,8.899500370E-1,9.462000847E0
3.300121689E1,1.933950067E0,1.366050124E0,8.204999924E0
3.302211397E1,2.049000025E0,1.729950070E0,7.156050205E0
3.304300226E1,1.792950034E0,1.744050026E0,6.421050072E0
3.306389042E1,8.110500574E-1,1.147950053E0,6.169950485E0
3.308477706E1,3.079500198E-1,7.290000319E-1,6.238950253E0
3.310566367E1,9.280500412E-1,7.510500550E-1,6.012000084E0
3.312654487E1,9.640500546E-1,6.379500031E-1,5.844000340E0
3.314742610E1,7.219500542E-1,6.259500384E-1,5.559000492E0
3.316830162E1,1.759500057E-1,6.379500031E-1,5.233050346E0
3.318917716E1,-3.850500286E-1,1.006950021E0,4.309050083E0
3.321006331E1,-5.100000501E-1,1.777950048E0,3.415950060E0
3.323094946E1,-9.019500613E-1,2.599050045E0,2.860950232E0
3.325183776E1,-7.350000143E-1,2.266050100E0,4.123050213E0
3.327272607E1,-3.090000153E-1,1.893000126E0,7.953000546E0
3.329361330E1,-3.880500197E-1,1.150950074E0,8.502000809E0
3.331450053E1,1.519950032E0,1.980000138E-1,7.108050346E0
3.333539627E1,3.576000214E0,-1.654050112E0,1.169805050E1
3.335629200E1,1.990950108E0,-5.119050026E0,1.891005135E1
3.337717877E1,1.383000016E0,-5.041950226E0,2.025300026E1
3.339806555E1,4.258950233E0,-2.314950228E0,1.644404984E1
3.341896092E1,7.599000454E0,2.239500135E-1,1.521000099E1
3.343985630E1,8.173049927E0,1.239000082E0,1.549500084E1
3.346074777E1,8.395950317E0,2.515050173E0,1.437000084E1
3.348163927E1,9.133049965E0,4.270050049E0,1.163100052E1
3.350252710E1,9.157050133E0,5.512950420E0,9.073950768E0
3.352341495E1,8.317049980E0,5.956050396E0,7.138950348E0
3.354430156E1,6.391950130E0,5.472000122E0,6.033000469E0
3.356518806E1,5.704950333E0,4.879050255E0,5.547000408E0
3.358607775E1,4.644000053E0,4.345050335E0,5.241000175E0
3.360696744E1,3.454050064E0,3.736950159E0,4.932000160E0
3.362786190E1,2.769000053E0,2.863050222E0,6.189000130E0
3.364875636E1,1.668000102E0,1.906950116E0,7.218000412E0
3.366964372E1,1.861950040E0,1.624950051E0,7.192050457E0
3.369053112E1,1.387950063E0,1.309050083E0,6.973950386E0
3.371142277E1,2.170950174E0,1.198950052E0,6.852000237E0
3.373231442E1,2.122950077E0,7.720500231E-1,7.285050392E0
3.375320184E1,1.596000075E0,5.089499950E-1,7.564950466E0
3.377408923E1,1.849950075E0,8.320500255E-1,7.288050175E0
3.379497549E1,2.104050159E0,1.261050105E0,7.056000233E0
3.381586180E1,1.777950048E0,1.843050122E0,6.957000256E0
3.383675445E1,7.530000210E-1,2.617950201E0,6.094950199E0
3.385764710E1,8.490000367E-1,3.679050207E0,6.025950432E0
3.387853481E1,1.282950044E0,4.621950150E0,5.952000141E0
3.389942251E1,5.164050102E0,5.590050220E0,5.133000374E0
3.392031061E1,9.370050430E0,2.269050121E0,1.153305054E1
3.394119872E1,7.732950211E0,-1.410000086E0,1.861800003E1
3.396208521E1,5.616000175E0,-1.599000096E0,1.766505051E1
3.398297171E1,5.611050129E0,-1.840500087E-1,1.552905083E1
3.400385968E1,4.548000336E0,7.939500213E-1,1.311105061E1
3.402474768E1,3.022950172E0,1.134000063E0,1.165005016E1
3.404562569E1,1.840050101E0,1.354050040E0,1.074000072E1
3.406650369E1,1.809000134E0,1.524000049E0,1.033995056E1
3.408738536E1,1.531950116E0,1.603050113E0,9.459000587E0
3.410826702E1,2.001000166E0,1.837950110E0,8.664000511E0
3.412915350E1,1.740000129E0,1.965000153E0,7.788000584E0
3.415004000E1,2.596950054E0,2.578050137E0,6.823050499E0
3.417092535E1,2.937000036E0,2.685000181E0,6.568950176E0
3.419181070E1,2.776950121E0,2.424000025E0,6.438000202E0
3.421269456E1,2.415000200E0,2.008050203E0,6.189000130E0
3.423357845E1,2.512950182E0,1.600950122E0,5.968050480E0
3.425445897E1,2.305050135E0,1.126950026E0,6.262950420E0
3.427533943E1,1.426050067E0,5.140500069E-1,6.699000359E0
3.429622278E1,3.109500110E-1,3.289500177E-1,6.799050331E0
3.431710616E1,8.160000443E-1,8.779500127E-1,7.132050514E0
3.433799009E1,1.021950006E0,1.912050128E0,7.477050304E0
3.435887405E1,-2.440500110E-1,3.856050253E0,6.282000065E0
3.437976224E1,6.480000019E-1,4.536000252E0,6.559500098E-1
3.440065039E1,4.596000195E0,4.981950283E0,9.169500470E-1
3.442154071E1,7.015050411E0,-3.379500210E-1,1.369005108E1
3.444243106E1,3.303000212E0,-4.093950272E0,2.146695137E1
3.446332084E1,-9.840000272E-1,-3.019050121E0,1.977600098E1
3.448421065E1,-1.384050012E0,-8.689500690E-1,1.393695068E1
3.450510141E1,1.723050117E0,9.570000172E-1,1.171995068E1
3.452599218E1,5.329050064E0,2.365050077E0,1.188000011E1
3.454688715E1,5.592000484E0,2.917950153E0,1.032105064E1
3.456778211E1,3.354000092E0,3.724950075E0,6.852000237E0
3.458867287E1,1.776000142E0,6.025050163E0,1.615950108E0
3.460956361E1,5.791050434E0,3.901950121E0,5.736000061E0
3.463044933E1,1.057995033E1,9.379500151E-1,1.600500107E1
3.465133507E1,9.363000870E0,-1.093950033E0,2.222805023E1
3.467222308E1,4.390050411E0,1.060050011E0,1.687005043E1
3.469311108E1,3.784950256E0,7.249500155E-1,1.172700024E1
3.471400788E1,3.895050287E0,9.619500637E-1,9.486000061E0
3.473490464E1,6.009000301E0,8.440500498E-1,1.063305092E1
3.475580034E1,3.919050217E0,-7.905000448E-2,1.296705055E1
3.477669603E1,1.249050021E0,-3.180000186E-1,1.230105019E1
3.479758557E1,2.389050007E0,2.380500138E-1,9.634050369E0
3.481847512E1,1.860000134E0,1.225050092E0,7.102950573E0
3.483937503E1,2.269500047E-1,1.630050063E0,4.683000088E0
3.486027499E1,-7.870500088E-1,1.837950110E0,5.085000038E0
3.488117009E1,-1.309500039E-1,1.378050089E0,5.688000202E0
3.490206517E1,8.059500456E-1,8.539500237E-1,6.616950512E0
3.492295562E1,1.102950096E0,1.117050052E0,7.185000420E0
3.494384609E1,9.349500537E-1,1.371000051E0,6.775050163E0
3.496472933E1,4.450500309E-1,2.282999992E0,5.527950287E0
3.498561260E1,4.350000322E-1,2.149049997E0,5.764950275E0
3.500649300E1,1.182000041E0,9.349500537E-1,7.333050251E0
3.502737343E1,3.580500185E-1,1.372950077E0,9.517050743E0
3.504825821E1,3.900000155E-1,2.178000212E0,1.056795025E1
3.506914298E1,1.180050015E0,2.652000189E0,1.095300007E1
3.509002579E1,1.696950078E0,2.362050056E0,1.110405064E1
3.511090860E1,2.896050215E0,2.116050005E0,1.143705082E1
3.513178953E1,1.369050026E0,3.030000210E0,1.034505081E1
3.515267046E1,1.549500078E-1,3.061050177E0,9.043050766E0
3.517354978E1,-1.987050056E0,1.807050109E0,9.955050468E0
3.519442913E1,-1.858050108E0,7.339500189E-1,1.571295071E1
3.521531162E1,-4.309500158E-1,-1.036949992E0,1.798095131E1
3.523619412E1,2.070000172E0,-1.120050073E0,1.634295082E1
3.525707950E1,3.133050203E0,6.570000052E-1,1.344105053E1
3.527796488E1,2.592000008E0,2.829000235E0,1.019400024E1
3.529885088E1,2.029950142E0,3.340950251E0,7.996050358E0
3.531973688E1,1.455000043E0,3.610050201E0,6.744000435E0
3.534062236E1,1.294950008E0,3.622050285E0,5.602050304E0
3.536150786E1,1.168050051E0,3.106950045E0,6.747000217E0
3.538240158E1,7.560000420E-1,2.677950144E0,8.736000061E0
3.540329531E1,-8.310000300E-1,1.831050038E0,8.872950554E0
3.542418894E1,-1.582050085E0,1.632000089E0,8.265000343E0
3.544508260E1,-1.543950081E0,1.831050038E0,7.462950230E0
3.546597332E1,-1.186950088E0,2.134950161E0,6.814050198E0
3.548686410E1,-1.585050106E0,2.140050173E0,6.862050533E0
3.550775825E1,-9.450000525E-1,1.822950125E0,7.366950512E0
3.552865240E1,-6.700500250E-1,2.512950182E0,8.626049995E0
3.554954517E1,-5.100000501E-1,2.914950132E0,1.027800083E1
3.557043794E1,-4.470000267E-1,3.439950228E0,9.688950539E0
3.559132337E1,-1.237950087E0,3.775050163E0,9.529050827E0
3.561220880E1,-1.795050144E0,4.085999966E0,9.619950294E0
3.563309338E1,-1.611000061E0,4.615050316E0,8.884950638E0
3.565397795E1,-1.063050032E0,3.310050249E0,9.622050285E0
3.567486306E1,-2.820000172E0,2.191950083E0,1.373805046E1
3.569574814E1,-3.685050249E0,5.740500093E-1,1.615095139E1
3.571663352E1,-3.208050251E0,1.576950073E0,1.323300076E1
3.573751890E1,-1.894050121E0,3.078000069E0,9.178950310E0
3.575840250E1,-2.724000216E0,5.302050114E0,8.527950287E0
3.577928608E1,-1.884000063E0,3.646050215E0,9.663000107E0
3.580017592E1,-3.403950214E0,2.986950159E0,1.083600044E1
3.582106576E1,-3.531000137E0,2.937000036E0,9.981000900E0
3.584195424E1,-2.547000170E0,3.528000116E0,8.071050644E0
3.586284270E1,-2.272050142E0,3.817950249E0,6.447000504E0
3.588372755E1,-2.230950117E0,3.412950277E0,6.711000443E0
3.590461243E1,-3.475950241E0,2.941950083E0,8.551950455E0
3.592549830E1,-3.084000111E0,2.071950197E0,8.241000175E0
3.594638414E1,-2.770050049E0,2.142000198E0,7.708950520E0
3.596726373E1,-2.478000164E0,2.167950153E0,8.506050110E0
3.598814331E1,-2.644950151E0,2.320950031E0,8.920950890E0
3.600902559E1,-2.425050020E0,1.926000118E0,9.121950150E0
3.602990786E1,-2.574000120E0,1.324950099E0,1.080705070E1
3.605079312E1,-2.152050018E0,1.467000127E0,1.079505062E1
3.607167835E1,-1.141950011E0,1.672950029E0,9.523950577E0
3.609256823E1,-2.635950089E0,2.623050213E0,5.605050087E0
3.611345812E1,-2.848950148E0,3.715050220E0,7.075050354E0
3.613434535E1,-1.108050108E0,4.129050255E0,1.156605053E1
3.615523258E1,-1.921950102E0,3.736950159E0,9.895050049E0
3.619596800E1,-4.507950306E0,2.616000175E0,8.896950722E0
3.621596800E1,-4.402950287E0,2.853000164E0,8.581050873E0
3.623686502E1,-4.101000309E0,3.205050230E0,8.455950737E0
3.625776118E1,-3.969000101E0,3.327000141E0,7.849950314E0
3.627865750E1,-3.850050211E0,3.171000242E0,7.776000500E0
3.629955410E1,-3.979050159E0,2.902950048E0,8.394000053E0
3.632044075E1,-4.116000175E0,2.877000093E0,8.538000107E0
3.634132741E1,-4.237950325E0,2.962950230E0,8.511000633E0
3.636222283E1,-4.414950371E0,2.992050171E0,8.161950111E0
3.638311821E1,-4.378950119E0,2.973000050E0,8.044050217E0
3.640400193E1,-4.384050369E0,2.878950119E0,8.587950706E0
3.642488563E1,-4.377000332E0,2.901000023E0,8.920950890E0
3.644577562E1,-4.450950146E0,2.922000170E0,8.533050537E0
3.646666558E1,-4.513050079E0,2.989950180E0,7.873950481E0
3.648755852E1,-4.573050022E0,3.058950186E0,7.687950134E0
3.650845144E1,-4.354950428E0,3.046950102E0,7.981950283E0
3.652934150E1,-4.113000393E0,2.958000183E0,8.551950455E0
3.655023154E1,-4.309050083E0,2.893950224E0,8.629050255E0
3.657112814E1,-4.558050156E0,2.572950125E0,8.253000259E0
3.659202471E1,-4.984950066E0,2.596950054E0,7.963050365E0
3.661292286E1,-4.678050041E0,2.737950087E0,8.157000542E0
3.663382102E1,-4.573050022E0,2.752050161E0,8.335950851E0
3.665471303E1,-4.726050377E0,2.650050163E0,8.113950729E0
3.667560507E1,-4.897950172E0,2.566050053E0,8.137949944E0
3.669649634E1,-4.839000225E0,2.617950201E0,8.023050308E0
3.671738757E1,-4.747950077E0,2.785950184E0,7.849950314E0
3.673827274E1,-4.684950352E0,2.869950056E0,7.936950207E0
3.675915794E1,-5.044950008E0,2.817000151E0,7.848000526E0
3.678004181E1,-4.876950264E0,2.785950184E0,8.430000305E0
3.680092570E1,-5.125950336E0,2.797950029E0,8.398950577E0
3.682180814E1,-5.430000305E0,2.863050222E0,8.097000122E0
3.684269060E1,-5.662050247E0,2.628000021E0,8.478000641E0
3.686356840E1,-5.944950104E0,2.431950092E0,8.947050095E0
3.688444621E1,-5.665050507E0,2.092050076E0,9.426000595E0
3.690532610E1,-5.586000443E0,1.917000055E0,9.106950760E0
3.692620598E1,-5.437050343E0,2.211000204E0,8.041950226E0
3.694708520E1,-5.406000137E0,2.641950130E0,7.156050205E0
3.696796444E1,-5.587950230E0,2.677950144E0,6.832950115E0
3.698884777E1,-5.205000401E0,2.616000175E0,7.192050457E0
3.700973111E1,-4.791000366E0,2.536950111E0,8.188050270E0
3.703061406E1,-4.948950291E0,2.191950083E0,9.868950844E0
3.705149702E1,-5.274000168E0,1.711050034E0,1.027605057E1
3.707238096E1,-5.418000221E0,1.428000093E0,9.888000488E0
3.709326497E1,-5.431950092E0,1.359000087E0,9.040050507E0
3.711413938E1,-4.846050262E0,1.579050064E0,8.302950859E0
3.713501381E1,-4.345050335E0,1.990950108E0,8.028000832E0
3.715588995E1,-3.748950243E0,2.215950012E0,7.477050304E0
3.717676610E1,-3.424050093E0,2.467950106E0,7.189950466E0
3.719764705E1,-3.121950150E0,2.604000092E0,7.642050266E0
3.721852801E1,-2.788950205E0,2.728950024E0,8.281050682E0
3.723941230E1,-2.322000027E0,2.605950117E0,8.386950493E0
3.726029661E1,-2.025000095E0,2.467950106E0,9.366000175E0
3.728118488E1,-2.728950024E0,1.645950079E0,1.012695026E1
3.730207315E1,-3.345000267E0,6.450000405E-1,1.082700062E1
3.732295672E1,-3.807000160E0,4.800000191E-1,1.139895058E1
3.734384026E1,-3.670050144E0,1.090500057E-1,1.025700092E1
3.736472660E1,-3.712950230E0,-6.970500350E-1,8.593050003E0
3.738561294E1,-3.730050087E0,-7.849500179E-1,8.374950409E0
3.740650910E1,-4.008000374E0,-2.440500110E-1,9.427950859E0
3.742740525E1,-3.060000181E0,2.070000172E-1,9.184050560E0
3.744829463E1,-2.260050058E0,1.909500062E-1,8.608950615E0
3.746918402E1,-1.446000099E0,-1.699500084E-1,8.526000023E0
3.749007557E1,-1.396050096E0,-6.730500460E-1,1.017000008E1
3.751096707E1,-1.824000120E0,-7.249500155E-1,1.197795010E1
3.753185896E1,-1.204050064E0,-1.041000009E0,1.194495010E1
3.755275085E1,-7.920000553E-1,-7.900500298E-1,1.108005047E1
3.757363603E1,-1.618050098E0,3.409500122E-1,9.816000938E0
3.759452123E1,-2.362950087E0,1.261050105E0,9.001950264E0
3.761541188E1,-2.089950085E0,1.201050043E0,8.427000046E0
3.763630250E1,-2.125950098E0,1.543050051E0,8.071050644E0
3.765718503E1,-2.253000021E0,1.639050126E0,8.407950401E0
3.767806754E1,-1.827000141E0,1.560000062E0,8.515950203E0
3.769894257E1,-1.953000069E0,2.002950191E0,9.535950661E0
3.771981762E1,-1.432050109E0,2.833950043E0,1.335195065E1
3.774069484E1,-7.110000253E-1,2.374050140E0,1.569600105E1
3.776157207E1,-5.205000192E-2,-4.810500145E-1,9.519000053E0
3.778245561E1,6.859500408E-1,-9.190500379E-1,6.337050438E0
3.780333915E1,6.820500493E-1,-3.330000043E-1,5.635950089E0
3.782422238E1,1.690500081E-1,-1.270500124E-1,4.810050011E0
3.784510562E1,-1.732950091E0,-5.509500504E-1,5.704950333E0
3.786598491E1,-2.703000069E0,-2.370000184E-1,8.755050659E0
3.788686418E1,-4.590000212E-1,6.405000389E-2,8.257050514E0
3.790775015E1,1.843050122E0,-2.205000073E-2,6.969000340E0
3.792863611E1,4.234950066E0,-6.030000448E-1,7.788000584E0
3.794952380E1,2.820000172E0,1.657950044E0,1.028100014E1
3.797041149E1,4.995000362E-2,-3.769050121E0,8.584950447E0
3.799130061E1,1.483950019E0,-1.546950102E0,7.858050346E0
3.801218973E1,4.417050362E0,-1.395000052E-2,5.086950302E0
3.803308559E1,2.688000202E0,2.034000158E0,4.372050285E0
3.805398144E1,2.050500065E-1,2.926950216E0,4.065000057E0
3.807486817E1,-3.340050220E0,6.432000160E0,3.559950113E0
3.809575495E1,-3.376050234E0,8.110950470E0,2.595000155E-2
3.811664310E1,-1.173000097E0,6.697950363E0,4.695000127E-2
3.813753125E1,9.109500647E-1,-4.170000255E-1,6.847050190E0
3.815841720E1,-4.429500103E-1,-6.096000195E0,1.677600098E1
3.817930316E1,-4.615950108E0,-4.771950245E0,2.061705017E1
3.820018518E1,-2.595000029E0,-6.970500350E-1,1.367595100E1
3.822106718E1,1.948050141E0,3.289050102E0,7.747050285E0
3.824195614E1,4.572000027E0,4.074000359E0,1.247595024E1
3.826284510E1,1.957950115E0,4.783050060E0,1.730100060E1
3.828374249E1,4.386000156E0,3.921000242E0,1.494705105E1
3.830463987E1,7.431000233E0,8.610000610E-1,1.794195175E1
3.832552537E1,9.181050301E0,-2.550000191E0,2.568300056E1
3.834641088E1,8.497050285E0,-3.618000269E0,2.790495110E1
3.836729709E1,7.354950428E0,-3.448050261E0,2.306100082E1
3.838818328E1,5.652000427E0,-1.882050037E0,1.797600174E1
3.840906845E1,4.144050121E0,-3.570000231E-1,1.186605072E1
3.842995364E1,2.323950052E0,1.024049997E0,5.752950191E0
3.845084105E1,1.134000063E0,1.267950058E0,2.434950113E0
3.847172843E1,2.014950037E0,7.579500079E-1,2.073000193E0
3.849261243E1,3.487950087E0,-3.160500228E-1,2.860950232E0
3.851349643E1,3.799050093E0,-1.258950114E0,3.184050083E0
3.853437784E1,2.829000235E0,-1.851000071E0,3.181950092E0
3.855525926E1,1.279950023E0,-1.798050046E0,2.824950218E0
3.857614879E1,6.720000505E-1,-1.270950079E0,2.736000061E0
3.859703828E1,3.030000031E-1,-1.920000017E-1,1.393050075E0
3.861792353E1,-1.099500060E-1,8.179500103E-1,-3.679500222E-1
3.863880880E1,-3.880500197E-1,1.098000050E0,-8.230500221E-1
3.865968991E1,-2.890500128E-1,9.540000558E-1,2.800500095E-1
3.868057098E1,-7.710000277E-1,4.470000267E-1,2.266950130E0
3.870146066E1,-4.570500255E-1,4.759500325E-1,5.269050121E0
3.872235034E1,-1.270950079E0,1.476000071E0,8.562000275E0
3.874324167E1,-5.035050392E0,7.206000328E0,1.184205055E1
3.876413302E1,-3.808950186E0,1.136505032E1,6.727050304E0
3.878502421E1,-8.209500313E-1,1.444605064E1,-1.041000009E0
3.880591544E1,-1.099500060E-1,8.692950249E0,2.905950069E0
3.882680779E1,-9.310500622E-1,-2.571000099E0,1.618004990E1
3.884770010E1,-1.824000120E0,-5.509050369E0,2.814405060E1
3.886858827E1,-3.600000218E-2,-7.279500365E-1,2.213205147E1
3.888947646E1,6.859050274E0,4.456950188E0,6.864000320E0
3.891036386E1,1.373805046E1,6.550050259E0,4.495950222E0
3.893125124E1,1.400805092E1,1.828050137E0,1.228500080E1
3.895214260E1,8.262000084E0,-4.537050247E0,2.132295036E1
3.897303398E1,9.001950264E0,-3.606000185E0,2.145195007E1
3.899391488E1,1.090995026E1,-3.438000202E0,1.765995026E1
3.901479577E1,8.908050537E0,-3.453000069E0,1.935300064E1
3.903567734E1,6.580950260E0,-2.133000135E0,1.772400093E1
3.905655892E1,5.512950420E0,-1.630500108E-1,1.251900101E1
3.907743989E1,4.345050335E0,1.588950038E0,7.743000507E0
3.909832081E1,3.777000189E0,2.407950163E0,5.346000195E0
3.911920050E1,4.029000282E0,2.568000078E0,5.188050270E0
3.914008020E1,3.757950068E0,2.080049992E0,5.431950092E0
3.916096065E1,3.286950111E0,1.459950089E0,6.048000336E0
3.918184111E1,3.118950129E0,9.109500647E-1,6.522000313E0
3.920272050E1,3.973950148E0,9.570000172E-1,6.463950157E0
3.922359988E1,4.429050446E0,1.162950039E0,6.133950233E0
3.924448647E1,4.522050381E0,1.371000051E0,5.359950066E0
3.926537308E1,4.366050243E0,1.701000094E0,5.146950245E0
3.928625659E1,3.447000265E0,2.046000004E0,4.537050247E0
3.930714010E1,4.387950420E0,2.749950171E0,3.988050222E0
3.932802812E1,5.227950096E0,3.313050270E0,5.050950050E0
3.934891616E1,5.512950420E0,3.103950262E0,6.567000389E0
3.936979678E1,5.761950493E0,3.040050030E0,8.109000206E0
3.939067740E1,5.278950214E0,2.571000099E0,9.979050636E0
3.941156369E1,4.735050201E0,2.830950022E0,1.014705086E1
3.943245000E1,4.306950092E0,3.387000084E0,8.911050797E0
3.945334030E1,4.443000317E0,3.373050213E0,7.707000256E0
3.947423061E1,5.803050041E0,1.324950099E0,9.862050056E0
3.949512270E1,6.271950245E0,-2.488050222E0,1.673295021E1
3.951601482E1,5.014950275E0,-3.211050034E0,2.232105064E1
3.953689805E1,5.530050278E0,-1.699950099E0,1.866105080E1
3.955778132E1,6.793950558E0,7.870500088E-1,1.348395061E1
3.957866781E1,6.250950336E0,2.211000204E0,1.114305019E1
3.959955427E1,4.282950401E0,2.973000050E0,8.680950165E0
3.962044027E1,2.539950132E0,3.721950293E0,5.200050354E0
3.964132627E1,1.771050096E0,4.162950039E0,3.232050180E0
3.966220987E1,1.639050126E0,4.290000439E0,3.295950174E0
3.968309353E1,1.536000013E0,4.237050056E0,4.126950264E0
3.970397536E1,1.314000010E0,3.832050085E0,5.049000263E0
3.972485721E1,1.318950057E0,2.917950153E0,6.177000523E0
3.974574120E1,1.933950067E0,2.560950041E0,7.378950119E0
3.976662520E1,2.719050169E0,2.455950022E0,8.362950325E0
3.978751156E1,2.950950146E0,2.593950033E0,8.296050072E0
3.980839791E1,2.824950218E0,2.893950224E0,7.462950230E0
3.982929200E1,3.313050270E0,3.009000063E0,6.904950142E0
3.985018611E1,5.002950191E0,2.908050060E0,6.909000397E0
3.987107936E1,6.106950283E0,2.331000090E0,7.336050510E0
3.989197263E1,7.149000168E0,1.411950111E0,8.690999985E0
3.991286150E1,6.825000286E0,4.399500191E-1,1.024905014E1
3.993375038E1,5.461050034E0,6.430500150E-1,9.478950500E0
3.995463503E1,3.760950089E0,1.837950110E0,7.000050545E0
3.997551969E1,2.722050190E0,3.555000067E0,5.286000252E0
3.999639922E1,1.321050048E0,5.463000298E0,5.182950020E0
4.001727876E1,4.350000322E-1,7.351950169E0,4.791000366E0
4.003816430E1,5.566050053E0,7.393050194E0,1.024049997E0
4.005904983E1,1.077600098E1,1.594050050E0,7.563000202E0
4.007993247E1,8.688000679E0,-4.069950104E0,1.792094994E1
4.010081509E1,4.290000439E0,-3.804000139E0,1.989105034E1
4.012170292E1,2.166000128E0,-1.975050092E0,1.623795128E1
4.014259072E1,2.554050207E0,-4.639500082E-1,1.244295025E1
4.016347256E1,3.562050104E0,4.200000167E-1,1.143195057E1
4.018435445E1,2.542050123E0,1.260000020E-1,1.150200081E1
4.020524613E1,1.747050047E0,4.005000368E-2,1.046700096E1
4.022613782E1,1.929000139E0,3.679500222E-1,9.376049995E0
4.024701906E1,3.109050035E0,8.680500388E-1,8.119050026E0
4.026790030E1,4.921950340E0,1.675050020E0,6.811050415E0
4.028879289E1,5.266950130E0,1.813950062E0,6.637050152E0
4.030968546E1,4.534049988E0,1.681950092E0,6.208050251E0
4.033058057E1,4.157999992E0,1.369050026E0,5.664000034E0
4.035147569E1,3.796950102E0,9.180000424E-1,5.308050156E0
4.037236661E1,3.991050243E0,8.539500237E-1,5.065950394E0
4.039325754E1,4.584000111E0,6.690000296E-1,5.230950356E0
4.041414768E1,4.516950130E0,1.469999999E-1,6.514050484E0
4.043503780E1,3.967050076E0,-3.090000153E-1,7.390950203E0
4.045592657E1,4.120050430E0,-2.820000052E-1,7.395000458E0
4.047681534E1,5.274000168E0,3.580500185E-1,7.405050278E0
4.049770329E1,5.760000229E0,1.869000077E0,8.152050018E0
4.051859117E1,5.475000381E0,3.306000233E0,6.756000519E0
4.053947872E1,5.355000019E0,4.096050262E0,6.658050537E0
4.056036626E1,3.277050257E0,4.656000137E0,7.936950207E0
4.058125322E1,7.785000324E0,1.633950114E0,6.073950291E0
4.060214014E1,7.290000439E0,-4.009950161E0,1.245195103E1
4.062303473E1,6.343950272E0,-7.357950211E0,1.717094994E1
4.064392930E1,3.744000196E0,-7.762050152E0,2.137305069E1
4.066482117E1,4.789950371E0,-4.366950035E0,2.034405136E1
4.068571302E1,8.839050293E0,-2.080950022E0,1.919205093E1
4.070660386E1,9.414000511E0,-9.409500360E-1,1.837995148E1
4.072749466E1,6.856050491E0,-1.510500014E-1,1.387005043E1
4.074838989E1,4.132050037E0,3.150000274E-1,8.407950401E0
4.076928512E1,3.054000139E0,9.760500193E-1,4.470000267E0
4.079017435E1,3.265050173E0,1.375950098E0,3.379950047E0
4.081106359E1,3.270000219E0,1.396950126E0,4.093950272E0
4.083195482E1,2.041949987E0,1.378050089E0,5.250000477E0
4.085284605E1,5.380499959E-1,1.483050108E0,5.205000401E0
4.087373354E1,2.580000162E-1,2.041050196E0,4.407000065E0
4.089462105E1,4.210500121E-1,2.499000072E0,5.050950050E0
4.091551554E1,-2.700000107E-1,2.389050007E0,6.450000286E0
4.093641003E1,-1.462950110E0,2.061000109E0,7.138950348E0
4.095730228E1,-2.775000095E0,1.888050079E0,7.992000580E0
4.097819456E1,-4.780950069E0,2.821950197E0,8.980950356E0
4.099908319E1,-5.050500035E-1,4.503000259E0,5.551950455E0
4.101997185E1,4.294950008E0,2.683050156E0,8.430000305E0
4.104086200E1,2.307000160E0,-3.012000084E0,1.665405083E1
4.106175215E1,-1.429500133E-1,-5.248050213E0,2.015895081E1
4.108263730E1,-5.119500160E-1,-5.077950478E0,1.650795174E1
4.110352250E1,2.623050213E0,-4.944000244E0,1.367595100E1
4.112441469E1,2.913000107E0,-5.878050327E0,1.631400108E1
4.114530684E1,1.105050087E0,-6.184050083E0,1.787295151E1
4.116620102E1,-4.519500136E-1,-4.980000019E0,1.573695087E1
4.118709522E1,6.049500108E-1,-2.583000183E0,1.058700085E1
4.120797992E1,2.130000114E0,-4.500000179E-1,6.835050106E0
4.122886466E1,1.981950045E0,3.370500207E-1,4.708950043E0
4.124974833E1,2.887050152E0,5.830500126E-1,4.216050148E0
4.127063202E1,3.130950212E0,7.290000319E-1,4.828950405E0
4.129151866E1,2.583000183E0,5.860500336E-1,4.900950432E0
4.131240531E1,2.134950161E0,7.129500508E-1,4.786050320E0
4.133328758E1,1.864050031E0,9.540000558E-1,4.446000099E0
4.135416986E1,1.714050055E0,1.254000068E0,4.138950348E0
4.137505033E1,1.896000147E0,1.752000093E0,4.051050186E0
4.139593079E1,1.426050067E0,2.235000134E0,4.357050419E0
4.141681579E1,5.020500422E-1,2.820000172E0,4.621050358E0
4.143770075E1,-2.800500095E-1,3.241050243E0,4.149000168E0
4.145859626E1,-4.210500121E-1,3.295950174E0,5.320050240E0
4.147949176E1,7.080000043E-1,3.238950253E0,7.795050144E0
4.150038068E1,1.492950082E0,3.813000202E0,1.096305084E1
4.152126961E1,1.800000072E0,4.669950008E0,1.065705013E1
4.154215903E1,6.322950363E0,1.390050054E0,1.072095013E1
4.156304845E1,3.286950111E0,-5.425050259E0,1.826805115E1
4.158393891E1,3.750000298E-1,-8.641050339E0,2.410005188E1
4.160482937E1,-1.161000013E0,-6.745050430E0,2.313300133E1
4.162572472E1,-2.490000129E-1,-4.405050278E0,1.852395058E1
4.164662007E1,-7.639500499E-1,-2.563950062E0,1.654605103E1
4.166751284E1,-1.395000052E-2,-1.398000121E0,1.329000092E1
4.168840561E1,1.113000035E0,-1.410000026E-1,9.430950165E0
4.170930209E1,2.343000174E0,1.479000092E0,4.258950233E0
4.173019859E1,3.895050287E0,2.905950069E0,7.009500265E-1
4.175109968E1,4.584000111E0,3.432000160E0,1.374000072E0
4.177200076E1,4.315950394E0,3.385050058E0,3.967050076E0
4.179289656E1,4.042950153E0,2.749950171E0,5.281050205E0
4.181379238E1,3.289050102E0,2.446050167E0,5.478000164E0
4.183467866E1,2.652000189E0,1.765950084E0,5.581050396E0
4.185556498E1,2.236050129E0,1.014000058E0,5.530050278E0
4.187645235E1,2.359950066E0,6.859500408E-1,5.335950375E0
4.189733974E1,2.382000208E0,8.010000587E-1,4.003050327E0
4.191822281E1,3.433050156E0,1.468950033E0,1.860000134E0
4.193910590E1,4.687050343E0,2.656950235E0,-4.020000100E-1
4.195998946E1,6.256050110E0,3.739050150E0,-7.660500407E-1
4.198087304E1,7.651050568E0,4.917000294E0,1.636950135E0
4.200175915E1,7.426050186E0,5.398050308E0,3.471000195E0
4.202264527E1,1.121595097E1,5.535000324E0,5.035050392E0
4.204353262E1,1.819305038E1,3.415950060E0,8.965950012E0
4.206442000E1,2.307300186E1,1.633950114E0,1.585500050E1
4.208530413E1,2.309205055E1,-1.558950067E0,1.722900009E1
4.210618828E1,1.821000099E1,-2.080950022E0,1.628100014E1
4.212707219E1,1.441500092E1,-1.714050055E0,1.453995037E1
4.214795607E1,1.056000042E1,-5.790000558E-1,1.278495026E1
4.216883993E1,6.624000549E0,3.169500232E-1,8.427000046E0
4.218972378E1,3.912000179E0,9.739500284E-1,4.588950157E0
4.221060682E1,1.864050031E0,9.850500226E-1,3.220050097E0
4.223148986E1,-1.390500069E-1,3.289500177E-1,2.917950153E0
4.225237469E1,9.019500613E-1,1.243950009E0,2.341050148E0
4.227325950E1,2.713950157E0,1.704000115E0,1.495950103E0
4.229414796E1,4.812000275E0,2.559000015E0,1.429050088E0
4.231503642E1,4.539000034E0,3.046950102E0,6.900000572E-2
4.233592073E1,3.469050169E0,3.018000126E0,-5.359500051E-1
4.235680504E1,2.350050211E0,3.013050079E0,2.580000162E-1
4.237769149E1,2.041949987E0,3.468000174E0,2.080049992E0
4.239857795E1,2.737950087E0,4.540950298E0,4.623000145E0
4.241946257E1,1.471950054E0,7.776000500E0,6.280050278E0
4.244034719E1,1.705950022E0,8.107950211E0,8.500500321E-1
4.246123751E1,8.251950264E0,6.844050407E0,5.983050346E0
4.248212781E1,1.101795006E1,-2.850000262E-1,2.109600067E1
4.250301595E1,7.936050415E0,-4.834050179E0,2.932695198E1
4.252390411E1,7.819500566E-1,-2.215050220E0,2.114100075E1
4.254479484E1,1.132050037E0,1.869000077E0,8.265000343E0
4.256568557E1,6.244050503E0,3.130950212E0,4.390950203E0
4.258657034E1,4.776000023E0,4.234950066E0,1.123095036E1
4.260745515E1,4.504950047E0,5.008050442E0,9.445050240E0
4.262834461E1,5.374050140E0,3.496950150E0,1.062105083E1
4.264923399E1,2.947050095E0,1.906950116E0,1.440795040E1
4.267012062E1,4.120050430E0,1.783050060E0,1.222995090E1
4.269100725E1,2.527950048E0,4.360949993E0,8.286000252E0
4.271189741E1,1.824000120E0,5.050950050E0,7.744950294E0
4.273278756E1,3.442050219E0,3.684000254E0,1.057500076E1
4.275367402E1,2.665950060E0,2.785950184E0,7.992000580E0
4.277456048E1,2.065950155E0,2.439000130E0,6.391950130E0
4.279544216E1,2.535000086E0,1.117050052E0,5.398950100E0
4.281632385E1,2.295000076E0,2.190000117E-1,6.249000072E0
4.283720950E1,1.893000126E0,6.405000389E-2,9.189000130E0
4.285809515E1,1.198950052E0,-6.495000422E-2,8.905950546E0
4.287898024E1,4.110000134E-1,1.004999995E0,5.734050274E0
4.289986532E1,-4.810500145E-1,1.893000126E0,4.249050140E0
4.292074963E1,1.174950004E0,2.592000008E0,5.322000027E0
4.294163394E1,2.233050108E0,4.098000050E0,9.607950211E0
4.296252099E1,-4.852950096E0,3.838950157E0,9.253050804E0
4.298340807E1,-6.991050243E0,4.117050171E0,8.250000000E0
4.300429412E1,8.920500278E-1,4.102950096E0,7.113000393E0
4.302518016E1,4.753950119E0,2.902950048E0,7.704000473E0
4.304607646E1,2.571000099E0,1.443000078E0,1.600094986E1
4.306697276E1,1.693950057E0,-1.288050056E0,2.176800156E1
4.308786336E1,-1.599000096E0,-2.193000078E0,1.658205032E1
4.310875394E1,-4.642050266E0,9.540000558E-1,7.884000301E0
4.312964056E1,-5.839050293E0,4.162950039E0,4.009950161E0
4.315052718E1,-3.490500152E-1,6.210000515E0,4.684950352E0
4.317141940E1,2.068050146E0,6.238950253E0,6.663000107E0
4.319231159E1,2.037000179E0,5.592000484E0,9.943050385E0
4.321320309E1,1.354050040E0,3.649950266E0,1.703700066E1
4.323409459E1,-2.611950159E0,2.086950064E0,1.820805168E1
4.325498368E1,-3.124050140E0,2.371950150E0,1.389795113E1
4.327587279E1,-2.410950184E0,3.033000231E0,8.820000648E0
4.329676508E1,-9.810000658E-1,2.305050135E0,8.772000313E0
4.331765738E1,-2.614050150E0,8.950500488E-1,1.397700024E1
4.333854793E1,-8.550000191E-1,-9.300000221E-2,1.575900078E1
4.335943851E1,7.320000529E-1,1.399500072E-1,1.248105049E1
4.338033162E1,-1.254000068E0,1.579050064E0,1.106805038E1
4.340122474E1,-1.945950150E0,1.570500135E-1,1.278300095E1
4.342211686E1,-3.436050177E0,-3.499500155E-1,1.244505024E1
4.344300898E1,-3.535950184E0,-2.230500132E-1,9.820950508E0
4.346389019E1,-3.507000208E0,1.213050008E0,7.635000229E0
4.348477143E1,-2.526000023E0,1.998000145E0,6.682050228E0
4.350565819E1,-2.325000048E0,2.401050091E0,6.394950390E0
4.352654500E1,-1.798050046E0,2.038950205E0,7.138950348E0
4.354743514E1,-1.720950127E0,1.845000029E0,8.731950760E0
4.356832529E1,-1.498950124E0,1.917000055E0,8.851050377E0
4.358921064E1,-1.305000067E0,2.056050062E0,8.217000008E0
4.361009599E1,-4.309500158E-1,2.298000097E0,9.343950272E0
4.363097537E1,-1.549500078E-1,2.213999987E0,1.107300091E1
4.365185476E1,-2.250000089E-1,1.885950089E0,1.114695072E1
4.367274018E1,2.149500102E-1,2.005050182E0,1.071195030E1
4.369362560E1,-3.559500277E-1,1.126950026E0,1.083105087E1
4.371451000E1,-8.779500127E-1,8.080500364E-1,1.344105053E1
4.373539443E1,-9.810000658E-1,6.100500226E-1,1.361295033E1
4.375628049E1,-1.894050121E0,9.139500260E-1,1.042695045E1
4.377716652E1,-1.864950061E0,1.420950055E0,7.885950565E0
4.379805422E1,-1.783050060E0,2.383949995E0,6.079050064E0
4.381894191E1,-1.228050113E0,2.913000107E0,6.538050175E0
4.383983340E1,4.995000362E-2,2.839050055E0,8.787000656E0
