"Time (s)","Acceleration x (m/s^2)","Acceleration y (m/s^2)","Acceleration z (m/s^2)"
1.128581100E-2,1.534683347E0,2.667140722E0,9.545681953E0
3.127442600E-2,1.726219416E0,2.700659513E0,9.162610054E0
5.129481000E-2,2.116474390E0,2.695871115E0,9.904812813E0
7.128281000E-2,1.503558636E0,2.640804529E0,1.120486355E1
9.130188700E-2,2.183511972E0,2.410961151E0,1.125274754E1
1.112925790E-1,1.417367458E0,2.343923569E0,1.140837097E1
1.312805790E-1,1.120486379E0,1.850717902E0,1.029027843E1
1.513000400E-1,9.935936928E-1,1.900996208E0,8.990227699E0
1.712874240E-1,1.079784989E0,2.346317768E0,8.549694061E0
1.912771930E-1,1.137245774E0,2.473210335E0,8.954314232E0
2.112965780E-1,9.576807022E-1,2.286462545E0,9.136273384E0
2.312855000E-1,6.512228847E-1,2.001552582E0,8.607154846E0
2.512741920E-1,4.118026793E-1,1.869871497E0,7.850587368E0
2.712935770E-1,4.165911078E-1,1.862688899E0,7.436390400E0
2.912824990E-1,5.267243981E-1,1.956062794E0,7.163451672E0
3.113031150E-1,7.661445141E-1,1.989581585E0,6.971915245E0
3.312922690E-1,1.089361787E0,2.030282974E0,6.782773495E0
3.512833450E-1,1.343147159E0,2.044648170E0,6.428431511E0
3.712991140E-1,1.771709204E0,1.963245392E0,6.011840343E0
3.912911140E-1,2.066195965E0,1.982398987E0,5.829881191E0
4.112793440E-1,1.900996208E0,2.116474390E0,5.564124584E0
4.312984980E-1,1.120486379E0,2.303221941E0,5.341464043E0
4.512889590E-1,5.770025849E-1,2.420537949E0,6.081272125E0
4.712763430E-1,5.913678408E-1,2.580949545E0,7.572859764E0
4.912963430E-1,7.805097699E-1,2.710236311E0,1.048420906E1
5.112851890E-1,2.729389966E-1,3.145981073E0,1.243787766E1
5.312738030E-1,-3.567360640E-1,3.196259260E0,1.297896767E1
5.512928800E-1,-1.127668977E0,3.519476414E0,1.272039318E1
5.712821880E-1,-1.714248419E0,4.316745758E0,1.215296745E1
5.913028040E-1,-1.019929886E0,4.596867085E0,1.294066048E1
6.112919570E-1,1.146822572E0,3.239354849E0,1.516966152E1
6.312766490E-1,2.219424963E0,1.771709204E0,1.715206146E1
6.513002640E-1,2.279279947E0,2.346317619E-1,1.677138329E1
6.712886480E-1,8.619126081E-1,-4.094084799E-1,1.346977901E1
6.912759560E-1,-7.805097699E-1,2.394201756E-1,1.035731697E1
7.112963400E-1,-1.781286120E0,1.568202138E0,8.425195694E0
7.312854930E-1,-1.671152830E0,2.513911724E0,8.576030731E0
7.512748010E-1,-4.070142806E-1,2.190694571E0,9.165003777E0
7.712934930E-1,4.668693244E-1,1.584961534E0,8.786720276E0
7.912843390E-1,4.836287498E-1,1.673547029E0,7.503427982E0
8.112723390E-1,7.517793179E-1,1.836352706E0,6.461950302E0
8.312941850E-1,1.125274777E0,1.932120800E0,5.767632008E0
8.512831070E-1,1.000776291E0,2.037465572E0,5.336675644E0
8.713000300E-1,5.913678408E-1,2.130839586E0,5.032611847E0
8.912897990E-1,3.088520169E-1,2.037465572E0,4.845864296E0
9.112803370E-1,1.412578970E-1,1.982398987E0,4.697423935E0
9.312991060E-1,-2.849099934E-1,2.111685991E0,4.771644115E0
9.512877220E-1,-7.613561153E-1,2.161964178E0,5.650316238E0
9.712778740E-1,-7.805097699E-1,2.027888775E0,7.316680431E0
9.912962590E-1,-3.232172430E-1,1.778891921E0,8.884882927E0
1.011282798E0,-3.615244627E-1,1.702277422E0,1.032858658E1
1.031272643E0,-6.584054828E-1,1.616086125E0,1.102290440E1
1.051293258E0,-1.122880578E0,1.517923832E0,1.095107841E1
1.071283643E0,-1.292868972E0,1.821987510E0,1.065659142E1
1.091301489E0,-1.213860273E0,1.886630893E0,1.093431950E1
1.111290104E0,-1.908178806E0,2.786850691E0,1.152568722E1
1.131280334E0,-2.971204281E0,4.225766182E0,1.069729328E1
1.151298488E0,-1.268926859E0,4.656722069E0,9.165003777E0
1.171288564E0,2.442085743E0,4.441244125E0,9.483432770E0
1.191277872E0,3.452438831E0,3.794809580E0,1.293108368E1
1.211296257E0,1.915361404E0,2.061407566E0,1.592144108E1
1.231285871E0,-1.867477298E-1,3.998316824E-1,1.475307083E1
1.251275948E0,-1.814804912E0,-4.261679053E-1,1.147301483E1
1.271293563E0,-2.746149302E0,2.873042040E-2,9.224859238E0
1.291285255E0,-2.885013103E0,1.015141487E0,9.062053680E0
1.311303101E0,-2.782062292E0,1.754949808E0,9.921571732E0
1.331292870E0,-2.540247917E0,1.719036818E0,1.035971069E1
1.351281869E0,-2.047042370E0,1.120486379E0,9.665391922E0
1.371302177E0,-1.611297727E0,7.924807668E-1,8.640673637E0
1.391290793E0,-1.367089152E0,1.012747288E0,7.979874134E0
1.411277561E0,-8.283938169E-1,1.491587639E0,7.489062786E0
1.431297484E0,1.604115069E-1,1.786074519E0,6.818686485E0
1.451287946E0,5.554547906E-1,2.171540976E0,6.576871872E0
1.471277252E0,1.532289088E-1,2.516305923E0,7.948749542E0
1.491295945E0,1.244984865E-1,2.200271368E0,9.509769440E0
1.511286099E0,-1.819593310E-1,1.991975784E0,9.787496567E0
1.531275945E0,-3.016694188E-1,1.690306425E0,8.999804497E0
1.551293867E0,-7.158663273E-1,1.745373011E0,8.525752068E0
1.571283328E0,-2.140416384E0,2.839523315E0,8.437167168E0
1.591303405E0,-2.463633537E0,3.852270603E0,7.982268333E0
1.611289789E0,2.533065319E0,2.937685490E0,7.012616634E0
1.631280866E0,4.819528103E0,2.293645144E0,7.546523571E0
1.651296558E0,1.774103403E0,1.209071875E0,1.196621990E1
1.671285557E0,-1.776497602E0,-2.059013397E-1,1.515529633E1
1.691276865E0,-4.319139957E0,-1.651999205E-1,1.483207989E1
1.711297481E0,-5.171475887E0,1.077390790E0,1.308910084E1
1.731285249E0,-3.883395195E0,3.043030262E0,1.113782597E1
1.751274787E0,-1.965639591E0,3.845088005E0,1.070926380E1
1.771294787E0,-7.158663273E-1,3.040636063E0,1.059434223E1
1.791285556E0,-6.943184882E-2,2.078166962E0,9.825803757E0
1.811303402E0,2.298433632E-1,1.474828243E0,8.427590370E0
1.831292864E0,-1.628057212E-1,1.125274777E0,7.094019413E0
1.851280939E0,-8.762778044E-1,1.024718285E0,6.825869083E0
1.871303093E0,-1.335964561E0,1.060631394E0,7.029376030E0
1.891287093E0,-8.786720037E-1,9.959878922E-1,6.675034523E0
1.911278477E0,-1.029506683E0,1.728613615E0,5.595249176E0
1.931297477E0,-1.223437071E0,2.353500366E0,5.284003258E0
1.951288631E0,-8.882488012E-1,2.516305923E0,6.629544735E0
1.971276322E0,-8.355764151E-1,2.252943754E0,8.863334656E0
1.991296553E0,-7.876923680E-1,1.910573006E0,1.045069027E1
2.011285476E0,-4.141969085E-1,1.295263171E0,1.150174522E1
2.031272630E0,-7.589619160E-1,1.462857246E0,1.256955910E1
2.051293475E0,-1.606509328E0,2.458845139E0,1.351287460E1
2.071283937E0,-1.393425345E0,2.968810081E0,1.307234097E1
2.091302399E0,-3.088520169E-1,3.265691042E0,1.135330486E1
2.111292551E0,1.285686255E0,3.457227230E0,1.099417400E1
2.131280936E0,2.039859772E0,2.846705914E0,1.243787766E1
2.151297167E0,1.412579060E0,1.927332401E0,1.412818432E1
2.171288858E0,2.633621916E-2,1.570596337E0,1.409945393E1
2.191275705E0,-9.552865028E-1,1.616086125E0,1.192791271E1
2.211296628E0,-1.422155857E0,2.276885748E0,9.188945770E0
2.231286088E0,-1.343147159E0,2.920926094E0,7.175422668E0
2.251274165E0,-1.098938584E0,3.335123062E0,6.373364925E0
2.271295088E0,-6.536170840E-1,3.344699860E0,5.719748020E0
2.291282780E0,-2.944868207E-1,3.019088268E0,5.092466831E0
2.311303703E0,-2.825157940E-1,2.521094322E0,5.164293289E0
2.331291703E0,2.873042040E-2,1.656787634E0,5.252878666E0
2.351283087E0,-1.412578970E-1,1.520318031E0,6.315904140E0
2.371301548E0,-6.344634295E-1,1.972822189E0,5.899312973E0
2.391290164E0,-1.012747288E0,1.857900500E0,5.226542473E0
2.411280855E0,-6.392518282E-1,2.384624958E0,5.609614372E0
2.431298701E0,1.915361360E-2,1.819593310E0,8.013393402E0
2.451287009E0,1.015141487E0,1.498770237E0,8.995016098E0
2.471276239E0,2.075772762E0,1.577778935E0,1.012507915E1
2.491293854E0,2.703053713E0,2.037465572E0,1.423113537E1
2.511287008E0,2.154781580E0,3.361459255E0,1.617522621E1
2.531274393E0,1.800439715E0,4.378994942E0,1.424071217E1
2.551290392E0,4.268861771E0,3.881000996E0,1.354160500E1
2.571282776E0,7.137115479E0,2.468421936E0,1.305558205E1
2.591302776E0,5.384559631E0,2.135627985E0,1.161427212E1
2.611290468E0,1.637633920E0,2.035071373E0,1.072123528E1
2.631278468E0,-1.355118155E0,1.309628367E0,1.024957752E1
2.651298699E0,-3.023876667E0,9.935936928E-1,9.306262016E0
2.671291390E0,-3.632004023E0,1.175553083E0,8.396465302E0
2.691276621E0,-3.926490784E0,1.764526606E0,8.042123795E0
2.711296236E0,-3.483563423E0,2.087743998E0,7.795520782E0
2.731284620E0,-2.231395960E0,1.604115129E0,7.366958618E0
2.751276312E0,-1.108515382E0,7.110779285E-1,6.277596951E0
2.771295005E0,7.900865674E-1,2.035071403E-1,5.432443619E0
2.791284311E0,5.027823448E0,3.806780815E0,6.033388376E-1
2.811302773E0,3.399766445E0,1.007958889E0,4.575319290E0
2.831291311E0,6.775590777E-1,3.019088268E0,6.124367714E0
2.851280310E0,-3.782838583E-1,3.253720045E0,8.583212852E0
2.871300849E0,7.230489254E-1,1.699883223E0,1.051054573E1
2.891290388E0,7.182605267E-1,1.000776291E0,1.073320580E1
2.911278463E0,-1.517923832E0,1.362300754E0,1.203804588E1
2.931298771E0,-2.918531895E0,1.558625340E0,1.320402241E1
2.951287925E0,-2.762908697E0,1.484405041E0,1.288559341E1
2.971278386E0,-2.461239338E0,1.750161409E0,1.386482239E1
2.991298078E0,-2.748543501E0,1.917755604E0,1.626620674E1
3.011285232E0,-2.758120298E0,1.520318031E0,1.719515610E1
3.031274463E0,-2.772485495E0,1.491587639E0,1.554794598E1
3.051293154E0,-2.619256735E0,1.570596337E0,1.372116947E1
3.071283077E0,-1.745373011E0,1.149216771E0,1.301009178E1
3.091302077E0,-1.625662923E0,8.906430602E-1,1.223437023E1
3.111290769E0,-2.023100376E0,8.930372596E-1,1.015141487E1
3.131280230E0,-2.164358377E0,1.130063176E0,7.948749542E0
3.151298076E0,-2.006340981E0,1.419761658E0,6.418854713E0
3.171287383E0,-1.917755604E0,1.910573006E0,6.337451935E0
3.191278460E0,-1.472434044E0,2.147598982E0,7.117961884E0
3.211298152E0,-8.068459630E-1,1.704671621E0,7.433996201E0
3.231287305E0,-4.812345505E-1,1.221042871E0,6.794744492E0
3.251274998E0,-6.823474765E-1,9.696516991E-1,5.700594425E0
3.271295075E0,-8.212111592E-1,1.034295082E0,5.226542473E0
3.291282689E0,-2.011129409E-1,1.357512355E0,5.430049419E0
3.311303305E0,-1.197100803E-2,1.951274395E0,6.409277916E0
3.331292843E0,1.436521020E-2,2.597708941E0,7.366958618E0
3.351280611E0,-4.979939461E-1,3.114856482E0,7.596801758E0
3.371301227E0,-7.781155705E-1,3.933673382E0,8.451532364E0
3.391290688E0,-7.110779285E-1,4.237737179E0,9.457097054E0
3.411278149E0,-9.816226959E-1,3.586514235E0,1.151132202E1
3.431299072E0,-1.290474772E0,2.480392933E0,1.423113537E1
3.451287303E0,-7.445967197E-1,1.431732655E0,1.597171974E1
3.471276533E0,-6.536170840E-1,1.527500629E0,1.549287891E1
3.491294764E0,-1.027112484E0,1.982398987E0,1.214099693E1
3.511284225E0,-6.009446383E-1,2.255337954E0,8.671798706E0
3.531274071E0,-3.806780577E-1,2.571372509E0,6.619967937E0
3.551294686E0,-1.065419793E0,2.485181332E0,7.654263020E0
3.571285840E0,-1.771709204E0,2.087743998E0,8.643068314E0
3.591301455E0,-6.631938815E-1,1.333570361E0,8.777143478E0
3.611289454E0,-1.197100878E-1,1.742978811E0,9.394847870E0
3.631281839E0,9.097966552E-2,2.260126352E0,9.311050415E0
3.651301147E0,-1.125274822E-1,2.001552582E0,8.968679428E0
3.671289146E0,-6.296750307E-1,1.309628367E0,8.884882927E0
3.691278684E0,-1.491587639E0,1.012747288E0,8.667010307E0
3.711299376E0,-1.786074519E0,1.154005170E0,8.556877136E0
3.731286145E0,-1.022324085E0,1.122880578E0,8.635885239E0
3.751275376E0,-5.626373887E-1,1.288080573E0,8.216899872E0
3.771294068E0,-6.895300746E-1,1.522712231E0,7.548917770E0
3.791286144E0,-9.145850539E-1,1.611297727E0,7.235277653E0
3.811274375E0,-7.326257229E-1,1.714248419E0,7.273584843E0
3.831290067E0,-3.711012602E-1,2.011129379E0,7.352593422E0
3.851280297E0,4.094084799E-1,2.513911724E0,8.267178535E0
3.871301451E0,2.346317619E-1,2.971204281E0,9.349357605E0
3.891290374E0,6.943184882E-2,2.688688517E0,1.051054573E1
3.911279681E0,-4.357447028E-1,1.920149803E0,1.135330486E1
3.931299065E0,-8.930372596E-1,1.319205165E0,1.227267838E1
3.951285142E0,-1.606509328E0,1.376665950E0,1.328781986E1
3.971278142E0,-2.149993181E0,1.783680320E0,1.337879944E1
3.991295911E0,-2.633621931E0,2.286462545E0,1.188960552E1
4.011283372E0,-2.533065319E0,2.746149302E0,1.137724686E1
4.031274680E0,-1.297657371E0,3.028665066E0,1.222000504E1
4.051294679E0,-7.182605267E-1,2.719813108E0,1.473391724E1
4.071282064E0,-9.481038451E-1,2.042253971E0,1.626620674E1
4.091302371E0,-1.388636947E0,1.247379065E0,1.504995155E1
4.111291370E0,-1.944091797E0,8.092401624E-1,1.167173290E1
4.131279294E0,-2.372653961E0,9.935936928E-1,8.621520042E0
4.151297217E0,-2.525882721E0,1.508347034E0,6.600813866E0
4.171287677E0,-1.759738207E0,1.812410712E0,5.887341976E0
4.191277447E0,-7.709329724E-1,2.104503393E0,5.801150799E0
4.211297754E0,4.213795066E-1,2.303221941E0,5.544970989E0
4.231284830E0,1.297657371E0,2.221819162E0,4.884171486E0
4.251276830E0,1.450886250E0,2.032677174E0,5.042188644E0
4.271297523E0,7.541735172E-1,1.922544003E0,3.895366192E0
4.291283291E0,-6.871358752E-1,2.379836559E0,3.572149038E0
4.311303060E0,-1.980004787E0,2.700659513E0,3.385401249E0
4.331291599E0,-2.628833532E0,2.669534922E0,4.338293552E0
4.351282444E0,-3.210624456E0,2.710236311E0,7.570465565E0
4.371299367E0,-1.824381709E0,2.382230759E0,8.765172005E0
4.391288598E0,-6.679822803E-1,2.530671120E0,1.060391903E1
4.411280905E0,-9.074024558E-1,3.469198227E0,1.217930412E1
4.431299597E0,-1.395819545E0,3.770867586E0,1.318965721E1
4.451288520E0,-4.740519226E-1,3.694253206E0,1.341471195E1
4.471274751E0,1.034295082E0,4.819528103E0,1.207635307E1
4.491295288E0,2.715024710E0,4.941632271E0,1.221521664E1
4.511285519E0,3.191470861E0,3.586514235E0,1.489911747E1
4.531273212E0,2.097320795E0,1.802833915E0,1.789665794E1
4.551295288E0,1.632845521E0,-2.226607651E-1,1.633085060E1
4.571281518E0,-6.679822803E-1,6.799532771E-1,1.469082165E1
4.591302057E0,-2.351106167E0,2.640804529E0,1.160230160E1
4.611290056E0,-3.050212860E0,4.177882195E0,9.014169693E0
4.631278671E0,-3.567360640E0,4.560954094E0,6.868964672E0
4.651299594E0,-1.884236693E0,3.691859007E0,4.790797710E0
4.671290440E0,9.002198577E-1,2.437297344E0,5.319916248E0
4.691279055E0,1.458068848E0,1.635239720E0,7.508216381E0
4.711297440E0,1.063025594E0,1.122880578E0,7.522581577E0
4.731286439E0,-8.140286058E-2,1.242590666E0,5.580883980E0
4.751276208E0,-6.440402865E-1,1.570596337E0,4.388571739E0
4.771296516E0,-7.924807668E-1,1.757344007E0,3.983951569E0
4.791281746E0,-1.367089152E0,2.245761156E0,4.137180328E0
4.811302130E0,-2.504334927E0,2.683900118E0,5.058948040E0
4.831293438E0,-3.028665066E0,2.296039343E0,5.580883980E0
4.851282437E0,-2.420537949E0,1.946485996E0,5.963956356E0
4.871299053E0,-1.795651317E0,1.778891921E0,6.514622688E0
4.891289437E0,-2.106897593E0,2.545036316E0,7.345410824E0
4.911279359E0,-2.585737944E0,3.038241863E0,8.358158112E0
4.931300206E0,-1.853112102E0,3.198653460E0,1.165976238E1
4.951286667E0,1.628057212E-1,2.463633537E0,1.581130791E1
4.971275898E0,-1.987187415E-1,2.537853718E0,1.594059467E1
4.991296512E0,-2.059013367E0,3.627215624E0,1.394383049E1
5.011283897E0,-4.039018154E0,3.600879431E0,1.280419064E1
5.031274051E0,-4.321534157E0,2.351106167E0,1.454956341E1
5.051292511E0,-3.703830004E0,1.470039845E0,1.583046150E1
5.071280512E0,-3.988739967E0,1.723825216E0,1.438196945E1
5.091299358E0,-3.919308186E0,2.205059767E0,1.170285797E1
5.111289126E0,-2.856282711E0,2.267308950E0,8.832210541E0
5.131279895E0,-1.731007814E0,2.291250944E0,6.995857239E0
5.151299665E0,-1.323993564E0,2.379836559E0,6.538564682E0
5.171289202E0,-1.230619669E0,2.020706177E0,6.330269337E0
5.191278741E0,-8.307880163E-1,1.647210717E0,5.334281445E0
5.211295587E0,-7.326257229E-1,6.177040339E-1,4.261679173E0
5.231287278E0,-1.891419291E0,9.840168953E-1,4.170699596E0
5.251276278E0,-3.418920040E0,1.754949808E0,5.121197224E0
5.271293740E0,-3.512293816E0,1.881842494E0,6.691793919E0
5.291284585E0,-2.449268341E0,1.766920805E0,7.505822182E0
5.311272893E0,-1.623268723E0,1.886630893E0,7.908048153E0
5.331293739E0,-1.541865945E0,2.358288765E0,8.346187592E0
5.351280507E0,-1.242590666E0,3.071760893E0,8.760383606E0
5.371299661E0,-9.911994934E-1,3.976768970E0,9.679757118E0
5.391290430E0,-1.089361787E0,4.754884720E0,1.141315937E1
5.411280276E0,-1.434126854E0,5.121197224E0,1.299572659E1
5.431297506E0,-5.913678408E-1,4.941632271E0,1.358948898E1
5.451285122E0,1.719036818E0,3.646369219E0,1.248336792E1
5.471274430E0,1.465251446E0,2.930502892E0,1.200213337E1
5.491293736E0,-3.447650373E-1,1.896207690E0,1.319923401E1
5.511283583E0,-2.152387381E0,1.247379065E0,1.289756489E1
5.531274967E0,-3.699041605E0,1.683123827E0,1.040998936E1
5.551293120E0,-3.859453201E0,2.264914751E0,9.244012833E0
5.571283351E0,-2.573766708E0,3.045424461E0,1.037647057E1
5.591303274E0,-1.357512355E0,3.074155092E0,1.081460953E1
5.611289427E0,-1.170764685E0,2.238578558E0,1.008916569E1
5.631281504E0,-1.601720929E0,1.431732655E0,8.750806808E0
5.651301427E0,-9.193734527E-1,1.288080573E0,8.449137688E0
5.671290426E0,5.051765442E-1,1.462857246E0,7.620744228E0
5.691277811E0,5.339069963E-1,1.944091797E0,6.246472359E0
5.711297195E0,-5.171475410E-1,2.753331900E0,4.970362663E0
5.731286041E0,-7.278373241E-1,2.609679937E0,4.541800499E0
5.751274733E0,-3.782838583E-1,2.116474390E0,5.221754074E0
5.771295887E0,-9.409212470E-1,2.149993181E0,6.291962147E0
5.791281424E0,-1.156399369E0,2.212242365E0,7.299921036E0
5.811304501E0,-1.077390790E0,2.236184359E0,7.594407558E0
5.831292578E0,1.029506698E-1,1.860294700E0,8.597578049E0
5.851282423E0,1.869871497E0,1.173158884E0,1.117613316E1
5.871301808E0,5.339069963E-1,2.415749550E0,1.158075333E1
5.891288577E0,-2.353500366E0,4.584896088E0,1.098220348E1
5.911278654E0,-7.264008045E0,6.959944248E0,1.112824917E1
5.931299961E0,-8.983044624E0,5.779603004E0,7.908048153E0
5.951288500E0,-6.385335922E0,3.311181068E0,1.189678860E1
5.971276500E0,-3.057395458E0,3.983951569E0,1.646971321E1
5.991297499E0,-9.576806426E-2,4.323928356E0,1.712333107E1
6.011284499E0,-1.244984865E-1,3.497928619E0,1.469321537E1
6.031274422E0,-2.130839586E0,3.641580820E0,1.060391903E1
6.051292882E0,-2.667140722E0,3.648763418E0,7.773972988E0
6.071282036E0,-1.699883223E0,3.354276657E0,6.710947514E0
6.091303267E0,-1.189918280E0,2.947262287E0,7.084442616E0
6.111291266E0,-1.266532660E0,2.573766708E0,7.496245384E0
6.131278420E0,-1.812410712E0,2.420537949E0,7.129932880E0
6.151298651E0,-2.274491549E0,2.427720547E0,6.083666325E0
6.171287958E0,-2.566584110E0,2.669534922E0,5.219359875E0
6.191277804E0,-2.705447912E0,2.832340717E0,4.479551315E0
6.211296573E0,-2.315192938E0,3.098097086E0,4.280832767E0
6.231284188E0,-1.410184860E0,3.248931646E0,4.359841347E0
6.251274726E0,-1.074996591E0,3.294421434E0,4.757278919E0
6.271293495E0,-1.649604917E0,3.490746021E0,5.633556366E0
6.291283648E0,-2.492363930E0,3.593696833E0,6.385335922E0
6.311273418E0,-2.664746523E0,3.711012602E0,7.733271599E0
6.331293187E0,-2.269703150E0,3.703830004E0,8.765172005E0
6.351282032E0,-2.868253708E0,3.943250179E0,1.050815105E1
6.371302032E0,-3.792415380E0,4.108449936E0,1.297657299E1
6.391290340E0,-4.584896088E0,4.357447147E0,1.374271774E1
6.411278648E0,-3.957615376E0,4.462791920E0,1.291193008E1
6.431298954E0,-2.726995707E0,4.467580318E0,1.267729759E1
6.451289185E0,-2.200271368E0,4.592078686E0,1.298375607E1
6.471276262E0,-2.291250944E0,4.589684486E0,1.289517021E1
6.491295338E0,-2.102109194E0,4.338293552E0,1.190397072E1
6.511286415E0,-1.752555609E0,4.197035789E0,1.057997704E1
6.531275877E0,-1.788468719E0,4.211400986E0,9.995792389E0
6.551294645E0,-2.248155355E0,3.902548790E0,9.933543205E0
6.571283645E0,-2.588132143E0,3.488351822E0,9.852140427E0
6.591305722E0,-2.164358377E0,3.208230257E0,9.165003777E0
6.611291875E0,-1.623268723E0,3.031059265E0,8.111555099E0
6.631280259E0,-1.513135433E0,2.949656487E0,7.096413612E0
6.651299029E0,-1.707065821E0,2.906560898E0,5.674258232E0
6.671288874E0,-1.869871497E0,3.059789658E0,4.671087742E0
6.691278720E0,-1.723825216E0,2.473210335E0,5.123591423E0
6.711298028E0,-2.463633537E0,2.604891539E0,5.892130375E0
6.731286719E0,-1.735796213E0,2.806004286E0,6.186617374E0
6.751276796E0,-1.027112484E0,3.234566450E0,6.552929878E0
6.771295258E0,-1.204283476E0,3.512293816E0,6.502651691E0
6.791280565E0,-1.936909199E0,3.423708439E0,6.885724068E0
6.811303257E0,-2.954444885E0,3.469198227E0,8.406042099E0
6.831293411E0,-3.229778051E0,3.459621429E0,9.018958092E0
6.851282948E0,-3.804386616E0,4.575319290E0,9.016563416E0
6.871298641E0,-4.589684486E0,6.174646378E0,8.039729118E0
6.891289410E0,-5.125985622E0,6.009446144E0,7.422025204E0
6.911280179E0,-6.121973515E0,5.750872612E0,9.023746490E0
6.931298717E0,-6.002263546E0,4.398148537E0,1.603396797E1
6.951285486E0,-4.323928356E0,3.234566450E0,2.042493439E1
6.971276255E0,-3.198653460E0,3.756502390E0,1.454956341E1
6.991297793E0,-2.169146776E0,4.774038315E0,8.248024940E0
7.011286024E0,-1.731007814E0,4.778826714E0,7.180211067E0
7.031274947E0,-4.568136692E0,4.302380562E0,9.600749016E0
7.051293177E0,-6.442796707E0,3.251325846E0,1.199973869E1
7.071280792E0,-6.428431511E0,2.540247917E0,1.126950741E1
7.091301177E0,-5.420472622E0,2.801215887E0,8.619126320E0
7.111291330E0,-4.120420933E0,3.251325846E0,6.579266071E0
7.131280560E0,-2.343923569E0,3.292027235E0,5.731719017E0
7.151300253E0,-2.030282974E0,3.167528868E0,7.098807812E0
7.171287252E0,-2.427720547E0,3.050212860E0,8.978256226E0
7.191278944E0,-1.632845521E0,2.935291290E0,7.225700855E0
7.211296790E0,-1.608903527E0,3.327940464E0,5.317522049E0
7.231286712E0,-1.637633920E0,3.478775024E0,5.444414616E0
7.251273405E0,-3.248931646E0,4.769249916E0,6.679822803E-1
7.271294020E0,-2.853888512E0,4.642356873E0,5.746084213E0
7.291283558E0,-8.930372596E-1,5.698200226E0,9.792284966E0
7.311273481E0,1.508347094E-1,5.643133640E0,1.597650814E1
7.331289789E0,-2.679111719E0,4.029441357E0,1.514093113E1
7.351281403E0,-2.944868088E0,3.835511208E0,7.053318024E0
7.372226155E0,-3.519476414E0,3.804386616E0,5.851428986E0
7.392246158E0,-1.874659896E0,3.663128614E0,7.182605267E0
7.412236007E0,-1.386242747E0,3.541024208E0,7.996633530E0
7.432222241E0,-1.599326730E0,3.052607059E0,8.386888504E0
7.452244321E0,-2.382230759E0,2.832340717E0,7.860164165E0
7.472233939E0,-2.650381327E0,2.774879694E0,6.950367451E0
7.492224327E0,-1.920149803E0,2.789244890E0,5.868188381E0
7.512241022E0,-9.768342972E-1,2.837129116E0,5.355829239E0
7.532231179E0,-1.963245422E-1,2.868253708E0,5.123591423E0
7.552220106E0,-3.303998411E-1,3.134010077E0,4.831499100E0
7.572239802E0,-8.667010069E-1,3.124433279E0,4.826710701E0
7.592226805E0,-1.285686255E0,3.134010077E0,5.688623428E0
7.612216731E0,-1.534683347E0,3.497928619E0,7.151480675E0
7.632233349E0,-7.852981687E-1,3.402160645E0,8.178592682E0
7.652226506E0,-8.307880163E-1,3.569754839E0,8.662221909E0
7.672244432E0,-1.223437071E0,3.651157618E0,9.926360130E0
7.692232974E0,-1.968033791E0,3.811569214E0,1.117852783E1
7.712223824E0,-2.853888512E0,4.244919777E0,1.202607536E1
7.732243520E0,-3.734954596E0,4.989516258E0,1.166455078E1
7.752231138E0,-3.143586874E0,5.501875401E0,1.208353615E1
7.772220756E0,-1.086967587E0,4.378994942E0,1.421676922E1
7.792241067E0,-1.213860273E0,3.375824451E0,1.532049656E1
7.812230301E0,-2.422932148E0,2.298433542E0,1.451604462E1
7.832216996E0,-3.296815634E0,2.126051188E0,1.133175659E1
7.852238307E0,-3.339911461E0,2.894589901E0,8.669404030E0
7.872226849E0,-2.339135170E0,4.070142746E0,7.723694801E0
7.892217930E0,-2.729389966E-1,4.393360138E0,8.271966934E0
7.912234548E0,0.000000000E0,2.731784105E0,9.169792175E0
7.932223859E0,-1.003170490E0,1.175553083E0,8.157045364E0
7.952244400E0,-2.087743998E0,1.611297727E0,7.709329605E0
7.972232788E0,-2.387019157E0,1.376665950E0,7.821856976E0
7.992221714E0,-2.114080191E0,1.280897856E0,8.662221909E0
8.012241102E0,-1.556231141E0,1.604115129E0,8.456320763E0
8.032232797E0,-1.309628367E0,1.735796213E0,7.422025204E0
8.052219878E0,-1.091755986E0,1.364694953E0,6.404489517E0
8.072240112E0,-1.003170490E0,4.429273009E-1,5.446808815E0
8.092228499E0,-1.467645645E0,-1.675941236E-2,5.324704647E0
8.112218656E0,-3.038241863E0,-1.125274822E-1,9.933543205E0
8.132237659E0,-3.315969467E0,4.836287498E-1,1.244266605E1
8.152225432E0,-2.056619167E0,3.543418646E-1,1.124556541E1
8.172245435E0,-9.528923035E-1,3.040636182E-1,1.119528675E1
8.192233976E0,-8.331822157E-1,1.675941236E-2,1.099896240E1
8.212222287E0,-9.888052940E-1,-1.436521020E-2,1.019211674E1
8.232244137E0,-9.911994934E-1,-1.340752989E-1,1.010592556E1
8.252233140E0,-4.118026793E-1,-1.891419291E-1,1.249055004E1
8.272221989E0,-6.153098345E-1,-4.070142806E-1,1.372356415E1
8.292238992E0,-5.698199868E-1,-2.082955539E-1,1.207635307E1
8.312229688E0,5.410895944E-1,-5.865794420E-1,1.093431950E1
8.332217768E0,2.640804529E0,-2.068590164E0,1.252885723E1
8.352237155E0,6.560112834E-1,-8.164227605E-1,1.162863731E1
8.372225082E0,-1.774103403E0,3.974374831E-1,1.167412758E1
8.392243932E0,-2.430114746E0,3.711012602E-1,1.073560047E1
8.412235935E0,-1.745373011E0,1.963245422E-1,8.216899872E0
8.432224476E0,-9.313444495E-1,5.267243832E-2,7.331045628E0
8.452244249E0,-1.367089152E0,6.248866320E-1,7.864952564E0
8.472234021E0,-1.680729628E0,1.266532660E0,8.901641846E0
8.492220178E0,-1.331176162E0,1.201889277E0,8.937555313E0
8.512243335E0,-3.854664862E-1,7.015010715E-1,8.508993149E0
8.532232261E0,-2.202665508E-1,4.812345505E-1,7.211335659E0
8.552219956E0,4.070143029E-2,1.987187415E-1,6.785167694E0
8.572239345E0,-8.403648138E-1,5.410895944E-1,5.904101372E0
8.592226348E0,-1.604115069E-1,-3.639186621E-1,5.839457989E0
8.612216505E0,-4.692635238E-1,-5.530605912E-1,6.126761913E0
8.632234046E0,-1.596932530E0,1.053448766E-1,8.025363922E0
8.652226049E0,-7.565677166E-1,1.867477298E-1,9.636661530E0
8.672245206E0,5.291185975E-1,4.070142806E-1,1.039801788E1
8.692235363E0,5.889736414E-1,5.003881454E-1,1.085052204E1
8.712223058E0,-3.758896589E-1,3.303998411E-1,1.187284660E1
8.732242447E0,-7.278373241E-1,-3.998316824E-1,1.223915863E1
8.752233143E0,-1.896207690E0,4.070143029E-2,1.220563984E1
8.772221761E0,-2.614468336E0,-1.484405100E-1,1.235168648E1
8.792240226E0,-3.280056238E0,3.040636182E-1,1.356554699E1
8.812228921E0,-1.371877551E0,-3.830722719E-2,1.322078133E1
8.832220616E0,8.355764151E-1,-1.489193439E0,1.144188976E1
8.852240619E0,-2.561795712E-1,-1.448492050E0,1.010353088E1
8.872228315E0,-5.257667065E0,-4.165911078E-1,1.223197651E1
8.892216626E0,-6.737283707E0,6.560112834E-1,1.143710136E1
8.912235014E0,-4.623203278E0,1.604115069E-1,8.882488251E0
8.932224017E0,-1.922544003E0,-7.110779285E-1,7.560888767E0
8.952243636E0,-4.525041282E-1,-5.841852427E-1,8.985439301E0
8.972232639E0,-1.651999116E0,7.445967197E-1,8.997409821E0
8.992223334E0,-1.687912226E0,1.197100803E-2,8.748413086E0
9.012243645E0,-2.159569979E0,-3.112462163E-2,7.908048153E0
9.032230802E0,-1.838746905E0,-3.016694188E-1,5.667075634E0
9.052219420E0,-1.142034173E0,-4.955997467E-1,6.189011574E0
9.072239963E0,-1.230619669E0,-6.727706790E-1,6.481103897E0
9.092229812E0,-2.193088770E0,3.208230138E-1,6.083666325E0
9.112216046E0,-2.138022184E0,4.165911078E-1,6.105214119E0
9.132236895E0,-2.164358377E0,5.027823523E-2,8.058882713E0
9.152224975E0,-2.935291290E0,2.394201700E-3,8.463502884E0
9.172243747E0,-3.327940464E0,-5.961562395E-1,8.978256226E0
9.192233288E0,-4.831499100E0,-9.050082564E-1,9.574412346E0
9.212223445E0,-6.670246124E0,-1.405396342E0,1.009634876E1
9.232243142E0,-6.256049156E0,-9.792284966E-1,1.055603504E1
9.252234837E0,-4.944026470E0,4.070142806E-1,1.068532181E1
9.272221225E0,-5.372588634E0,1.553836942E0,1.149456215E1
9.292240997E0,-4.170699596E0,9.121908545E-1,1.337401104E1
9.312230462E0,-2.935291290E0,5.746083856E-1,1.311304283E1
9.332217926E0,-2.619256735E0,1.328781962E0,1.315853214E1
9.352238775E0,-3.378218651E0,1.817199111E0,1.464533138E1
9.372227163E0,-4.000710964E0,1.644816518E0,1.610340118E1
9.392215166E0,-4.132391930E0,8.331822157E-1,1.401086807E1
9.412236939E0,-3.325546265E0,6.296750307E-1,1.206917095E1
9.432225250E0,-2.612074137E0,1.039083481E0,9.844957352E0
9.452243176E0,-1.939303398E0,1.781286120E0,8.180987358E0
9.472232718E0,-1.237802267E0,1.956062794E0,6.545747280E0
9.492220336E0,-7.134721279E-1,1.889025092E0,5.418078423E0
9.512242493E0,-9.097966552E-2,1.513135433E0,4.589684486E0
9.532231419E0,4.620809257E-1,1.376665950E0,4.587290287E0
9.552220653E0,8.858546019E-1,1.187524080E0,4.297592163E0
9.572240042E0,1.278503656E0,1.079784989E0,3.605667830E0
9.592228352E0,1.266532660E0,1.484405041E0,3.876212597E0
9.612217355E0,9.313444495E-1,1.824381709E0,4.575319290E0
9.632236051E0,5.530605912E-1,1.833958507E0,5.269638062E0
9.652225977E0,4.094084799E-1,1.273715258E0,5.477933407E0
9.672244749E0,6.512228847E-1,9.648633003E-1,6.160281181E0
9.692235829E0,1.795651317E-1,1.438915253E0,7.551311970E0
9.712222832E0,-7.517793179E-1,1.920149803E0,9.785101891E0
9.732240758E0,-1.946485996E0,1.953668594E0,1.296699619E1
9.752229609E0,-3.481169224E0,2.489969730E0,1.521275806E1
9.772222227E0,-4.098873138E0,2.798821688E0,1.651999092E1
9.792240384E0,-3.138798475E0,2.293645144E0,1.597171974E1
9.812231848E0,-3.074155092E0,3.155557871E0,1.583764458E1
9.832217313E0,-4.010287762E0,5.011064053E0,1.629254341E1
9.852237932E0,-3.162740469E0,4.951209068E0,1.417846203E1
9.872229011E0,-1.041477680E0,4.144362926E0,9.825803757E0
9.892217322E0,8.858546615E-2,3.234566450E0,6.076483727E0
9.912236096E0,2.418143749E-1,2.231395960E0,3.754108191E0
9.932225329E0,5.003881454E-1,8.259995580E-1,2.355894566E0
9.952246255E0,3.926490843E-1,-6.177040339E-1,2.674323320E0
9.972232182E0,-4.405331016E-1,-1.611297727E0,4.845864296E0
9.992222569E0,-1.185129881E0,-1.539471745E0,7.132327080E0
1.001224165E1,-1.065419793E0,-1.771709323E-1,6.777985096E0
1.003223250E1,4.165911078E-1,9.600749016E-1,5.023035049E0
1.005222012E1,1.869871497E0,1.884236693E0,2.736572504E0
1.007223827E1,-5.578489900E-1,3.442862034E0,9.888052940E-1
1.009222874E1,-2.597708941E0,2.779668093E0,1.022324085E0
1.011221766E1,-1.201889277E0,-5.985504389E-2,4.733336926E0
1.013223836E1,-7.158663273E-1,-1.027112484E0,1.139879417E1
1.015222544E1,-2.932897091E0,-2.418143749E-1,1.831085396E1
1.017224383E1,-1.498770237E0,-8.930372596E-1,1.730529022E1
1.019223522E1,-5.219359994E-1,-7.541735172E-1,1.121922874E1
1.021222384E1,-1.970427990E0,2.525882721E0,1.072362900E1
1.023224299E1,-3.373430252E0,3.294421434E0,1.672110558E1
1.025223069E1,-2.703053713E0,1.192312479E0,1.972822189E1
1.027222115E1,-3.375824451E0,1.048660398E0,1.707305145E1
1.029223931E1,-2.870647907E0,2.736572504E0,1.345541382E1
1.031222816E1,-6.416460276E-1,3.299209833E0,1.050575733E1
1.033221778E1,-2.485181332E0,3.416525841E0,1.236844635E1
1.035224078E1,-4.991910458E0,3.045424461E0,1.775061226E1
1.037222609E1,-4.654327869E0,1.419761658E0,1.742739487E1
1.039224579E1,-4.393360138E0,2.454056740E0,1.341471195E1
1.041223556E1,-2.286462545E0,4.283226967E0,9.823410034E0
1.043222541E1,-1.699883223E0,5.075707436E0,1.036449909E1
1.045224395E1,-2.559401512E0,4.122815132E0,1.279222012E1
1.047223411E1,-1.235408068E0,2.899378300E0,1.173637676E1
1.049222273E1,3.112462163E-2,2.343923569E0,9.057265282E0
1.051224450E1,-9.361328483E-1,1.927332401E0,5.097255230E0
1.053223196E1,-2.054224968E0,1.719036818E0,1.666364431E0
1.055222081E1,-2.734178305E0,1.491587639E0,-3.854664862E-1
1.057223958E1,-3.028665066E0,1.405396342E0,1.345541358E0
1.059223043E1,-2.387019157E0,1.247379065E0,3.337517262E0
1.061221751E1,-1.553836942E0,1.584961534E0,2.985569477E0
1.063223782E1,-7.852981687E-1,2.154781580E0,1.321599364E0
1.065222490E1,-6.703764945E-2,2.966415882E0,1.613691926E0
1.067224514E1,8.667010069E-1,3.265691042E0,3.715801001E0
1.069223476E1,1.580173135E0,2.643198729E0,5.633556366E0
1.071222361E1,2.269703150E0,1.522712231E0,5.865794182E0
1.073223961E1,1.541865945E0,1.005564690E0,5.556941986E0
1.075223354E1,1.915361360E-2,1.130063176E0,5.532999992E0
1.077222269E1,-5.506663918E-1,2.600103140E0,5.011064053E0
1.079224124E1,-2.540247917E0,5.525817394E0,5.623979568E0
1.081222801E1,-4.876988888E0,6.464344501E0,9.160215378E0
1.083221816E1,-2.588132143E0,4.778826714E0,1.396059036E1
1.085223901E1,-2.104503393E0,5.039794445E0,1.585440350E1
1.087222855E1,-3.933673382E0,5.511452198E0,1.530613136E1
1.089221656E1,-4.876988888E0,5.920860767E0,1.577060699E1
1.091223694E1,-4.115632534E0,6.694188118E0,1.706587029E1
1.093222487E1,-3.682282209E0,7.180211067E0,1.693897629E1
1.095224457E1,-4.932055473E0,7.977479935E0,1.593580627E1
1.097223411E1,-6.007051945E0,9.004592896E0,1.390791798E1
1.099222488E1,-5.477933407E0,8.729259491E0,1.126471901E1
1.101224150E1,-3.509899616E0,7.297526836E0,1.114979744E1
1.103223235E1,-1.879448295E0,6.370970726E0,1.139879417E1
1.105221974E1,-1.264138460E0,5.128379822E0,1.216733265E1
1.107224282E1,-7.374141216E-1,3.653551817E0,1.194227791E1
1.109222805E1,-7.924807668E-1,2.643198729E0,9.301473618E0
1.111221690E1,-1.414973259E0,1.987187386E0,6.354211330E0
1.113223536E1,-2.157175779E0,1.661576033E0,4.975151062E0
1.115222583E1,-2.954444885E0,1.345541358E0,6.121973515E0
1.117224676E1,-2.825158119E0,7.829039693E-1,6.454767704E0
1.119223384E1,-2.039859772E0,1.915361360E-2,4.537012100E0
1.121222438E1,-7.852981687E-1,-2.322375625E-1,1.149216771E0
1.123197815E1,2.609679997E-1,6.464344263E-2,-1.182735682E0
1.125222900E1,6.823474765E-1,4.860229492E-1,-1.089361787E0
1.127221854E1,1.584961534E0,1.474828243E0,9.816227108E-2
1.129203662E1,1.213860273E0,1.915361404E0,9.074024558E-1
1.131222986E1,1.235408068E0,2.511517525E0,1.750161409E0
1.133221786E1,1.254561663E0,1.833958507E0,3.481169224E0
1.135224132E1,6.153098345E-1,2.070984364E0,4.819528103E0
1.137222802E1,-1.721431017E0,2.896984100E0,6.998251438E0
1.139221664E1,-4.690241337E0,4.027047157E0,1.022802925E1
1.141223418E1,-4.745307922E0,4.520252705E0,1.411621284E1
1.143222257E1,-3.201047659E0,3.552995205E0,1.678096008E1
1.145224380E1,-2.425326347E0,3.878606796E0,1.586158657E1
1.147223296E1,-4.402936935E0,5.707777023E0,1.351526833E1
1.149222434E1,-6.224924564E0,6.449979305E0,1.367807388E1
1.151224258E1,-7.733271599E0,7.374141216E0,1.580412579E1
1.153223051E1,-8.463502884E0,8.542511940E0,1.552160931E1
1.155222128E1,-7.831433773E0,8.128314972E0,1.390312958E1
1.157224128E1,-6.806715488E0,6.792350292E0,1.575384712E1
1.159222967E1,-5.272032261E0,5.566518784E0,1.719994545E1
1.161221790E1,-4.106055737E0,4.932055473E0,1.487517548E1
1.163223668E1,-3.684676409E0,4.264073372E0,1.186326981E1
1.165222691E1,-2.360682964E0,3.081337690E0,8.212111473E0
1.167224622E1,-1.063025594E0,2.006340981E0,3.727771997E0
1.169223615E1,-6.536170840E-1,1.482010841E0,7.110779285E-1
1.171222107E1,-1.027112484E0,1.031900883E0,3.112462163E-2
1.173224108E1,-1.051054597E0,3.734954596E-1,1.673547029E0
1.175223369E1,-9.433154464E-1,3.591302410E-2,4.036623955E0
1.177222254E1,-1.867477298E-1,-2.537853718E-1,4.458003521E0
1.179224193E1,7.589619160E-1,-5.698199868E-1,3.579331636E0
1.181223055E1,1.374271750E0,-2.011129409E-1,2.315192938E0
1.183222040E1,1.347935557E0,2.944868207E-1,1.989581585E0
1.185223925E1,-3.447650373E-1,1.288080573E0,4.807557106E0
1.187222694E1,-6.536170840E-1,1.778891921E0,6.107608318E0
1.189221679E1,-8.858546019E-1,2.296039343E0,6.500257492E0
1.191223703E1,-1.436521020E-2,1.546654344E0,6.019022942E0
1.193222688E1,1.802833915E0,7.374141216E-1,3.552995205E0
1.195224603E1,-9.409212470E-1,3.567360640E-1,4.364629745E0
1.197223373E1,-3.861847401E0,2.516305923E0,1.186326981E1
1.199222227E1,-3.117250681E0,5.695806026E0,2.123896408E1
1.201224320E1,1.292868972E0,6.517016888E0,2.208411598E1
1.203223189E1,6.279991150E0,4.343081951E0,1.931163025E1
1.205222259E1,5.523423195E0,2.511517525E0,1.922783470E1
1.207223928E1,2.758120298E0,2.442085743E0,1.784159088E1
1.209223029E1,-1.735796213E0,3.892971992E0,2.028846550E1
1.211221744E1,-5.722142220E0,5.453991413E0,2.065477753E1
1.213223683E1,-3.823540211E0,5.142745018E0,1.844971848E1
1.215222568E1,-2.003946781E0,5.240907669E0,1.644337654E1
1.217224599E1,-2.681505978E-1,6.490680695E0,1.245224285E1
1.219223646E1,5.195417404E-1,6.200982571E0,9.442731857E0
1.221222354E1,8.451532125E-1,5.037400246E0,7.067683220E0
1.223224300E1,4.477157295E-1,4.314351559E0,5.975927353E0
1.225223316E1,-6.584054828E-1,3.639186621E0,6.124367714E0
1.227221993E1,-2.011129379E0,2.987963676E0,7.077260017E0
1.229224240E1,-1.788468719E0,1.637633920E0,5.683835030E0
1.231222978E1,-1.620874524E0,8.882488012E-1,3.751713991E0
1.233222017E1,-1.412579060E0,6.200982332E-1,3.148375273E0
1.235223925E1,-1.331176162E0,4.740519226E-1,2.875436306E0
1.237222825E1,1.436520964E-1,-3.375824392E-1,2.193088770E0
1.239221772E1,8.116343617E-1,-2.896983922E-1,2.013523579E0
1.241223772E1,9.337386489E-1,-3.854664862E-1,2.324769735E0
1.243222665E1,1.484405041E0,-4.309563041E-1,1.991975784E0
1.245224611E1,2.161964178E0,1.388636976E-1,2.604891539E0
1.247223412E1,1.233013868E0,1.637633920E0,3.962403774E0
1.249222212E1,1.379060149E0,2.286462545E0,4.582501888E0
1.251224420E1,1.738190413E0,2.262520552E0,7.419631004E0
1.253223159E1,2.614468336E0,1.879448295E0,1.137006378E1
1.255222051E1,1.647210717E0,3.512293816E0,1.322556973E1
1.257223990E1,-6.464344263E-2,7.972691536E0,2.048239517E1
1.259223036E1,-1.570596337E0,9.100360870E0,1.923980522E1
1.261221937E1,3.423708379E-1,7.292738438E0,1.593580627E1
1.263223630E1,7.469909191E-1,4.769249916E0,1.563174248E1
1.265222699E1,-2.300827742E0,4.539406300E0,1.973061562E1
1.267224607E1,-2.791639090E0,3.433285236E0,2.059971237E1
1.269223561E1,-2.070984364E0,3.622427225E0,1.865562057E1
1.271222515E1,-2.398990154E0,4.355052948E0,1.649604988E1
1.273224462E1,-1.843535304E0,4.113238335E0,1.362300777E1
1.275223293E1,-4.740519226E-1,2.997540474E0,1.019451046E1
1.277222062E1,-3.088520169E-1,3.567360640E0,7.354987621E0
1.279224186E1,5.027823523E-2,4.034229755E0,6.971915245E0
1.281223048E1,1.273715258E0,3.452438831E0,9.071630478E0
1.283221933E1,1.388636947E0,3.536235809E0,9.047688484E0
1.285223841E1,3.495534360E-1,3.275267839E0,6.531382084E0
1.287222887E1,-1.161187768E0,3.315969467E0,4.745307922E0
1.289221872E1,-1.312022567E0,2.894589901E0,6.014234543E0
1.291223880E1,-5.267243832E-2,2.693476915E0,8.010998726E0
1.293222557E1,-7.661445439E-2,3.258508444E0,8.872911453E0
1.295224435E1,4.141969085E-1,3.311181068E0,7.728483200E0
1.297223320E1,-5.578489900E-1,3.744531393E0,7.311892033E0
1.299222458E1,-3.076549292E0,3.818751812E0,4.328716755E0
1.301224459E1,-3.442862034E0,3.514688015E0,8.834604263E0
1.303223136E1,-2.257732153E0,3.916913986E0,7.587224960E0
1.305222190E1,1.675941199E-1,4.582501888E0,5.202600479E0
1.307276077E1,-2.592920542E0,2.272097349E0,6.071695328E0
1.309278385E1,-1.774103403E0,2.348711967E0,6.385335922E0
1.311276970E1,-9.528923035E-1,2.073378563E0,6.770802498E0
1.313276140E1,-6.919242740E-1,1.800439715E0,6.861782074E0
1.315277987E1,-7.876923680E-1,1.620874524E0,6.220136166E0
1.317276757E1,-1.484405041E0,1.802833915E0,5.664681435E0
1.319278719E1,-1.960851192E0,2.226607561E0,5.698200226E0
1.321277742E1,-2.219424963E0,2.880224705E0,6.320692539E0
1.323276720E1,-1.929726601E0,3.315969467E0,7.900865555E0
1.325278574E1,-1.690306425E0,3.617638826E0,9.720458984E0
1.327277498E1,-2.025494576E0,3.620033026E0,1.138203526E1
1.329276452E1,-2.813186884E0,3.469198227E0,1.228225517E1
1.331278291E1,-3.754108191E0,3.914519787E0,1.193988419E1
1.333277100E1,-4.510675907E0,4.793191910E0,1.163821411E1
1.335276231E1,-2.090138197E0,4.216189384E0,1.352723980E1
1.337277954E1,-1.477222443E0,3.426102638E0,1.498770237E1
1.339277132E1,-2.427720547E0,2.710236311E0,1.536119843E1
1.341279071E1,-2.425326347E0,2.035071373E0,1.241872406E1
1.343277802E1,-2.944868088E0,2.229001760E0,8.813055992E0
1.345276611E1,-2.710236311E0,2.853888512E0,7.120356083E0
1.347278727E1,-3.035847664E0,4.311957359E0,7.254431248E0
1.349277473E1,-2.473210335E0,4.307168961E0,9.196128845E0
1.351276366E1,-1.094150186E0,2.588132143E0,1.054166985E1
1.353278490E1,4.501099288E-1,1.307234168E0,1.003170490E1
1.355277529E1,1.407790542E0,8.259995580E-1,7.747636795E0
1.357276276E1,1.508347034E0,9.289502501E-1,5.729324818E0
1.359278276E1,4.477157295E-1,6.967126727E-1,4.630385876E0
1.361277161E1,-8.307880163E-1,5.434837937E-1,4.199429989E0
1.363279039E1,-1.968033791E0,1.139639974E0,5.142745018E0
1.365277970E1,-3.761290789E0,1.994369984E0,5.796362400E0
1.367276740E1,-1.819593310E0,2.777273893E0,6.586448669E0
1.369278794E1,1.209071875E0,1.721431017E0,8.652645111E0
1.371277633E1,2.899378300E0,2.059013397E-1,1.025675964E1
1.373276464E1,3.064578056E0,-6.560112834E-1,1.288559341E1
1.375278527E1,1.223437071E0,-6.512228847E-1,1.491587639E1
1.377277504E1,6.248866320E-1,-1.048660398E0,1.320641613E1
1.379276374E1,5.075707436E-1,-1.510741234E0,1.158793640E1
1.381278374E1,-5.793967843E-1,-8.810662031E-1,1.083855152E1
1.383277267E1,-2.173935175E0,5.506663918E-1,1.055124664E1
1.385276160E1,-3.129221678E0,1.924938202E0,1.079784966E1
1.387278153E1,-1.151610970E0,9.959878922E-1,1.253604031E1
1.389276623E1,9.361328483E-1,-5.291185975E-1,1.343147182E1
1.391278839E1,1.053448766E-1,-6.224924326E-1,1.423352909E1
1.393277701E1,-2.535459518E0,6.847416759E-1,1.221521664E1
1.395276870E1,-2.509123325E0,6.129156351E-1,9.868899345E0
1.397278809E1,-1.544260144E0,1.460463107E-1,7.649474621E0
1.399277579E1,-4.764461517E-1,-3.782838583E-1,7.912836552E0
1.401276403E1,8.379705995E-2,-6.033388376E-1,7.785943985E0
1.403278434E1,-1.915361285E-1,-2.753331959E-1,7.146692276E0
1.405277366E1,-5.123591423E-1,2.011129409E-1,6.141127586E0
1.407275912E1,9.576806799E-3,5.985504389E-2,5.243301868E0
1.409278136E1,-2.250549644E-1,-1.041477680E0,5.449203014E0
1.411277090E1,-5.793967843E-1,-1.065419793E0,6.203376770E0
1.413276037E1,-4.572925270E-1,-6.703764796E-1,8.087613106E0
1.415278014E1,-6.943184733E-1,-6.057330370E-1,7.783549786E0
1.417276869E1,-1.867477298E0,-9.026140571E-1,9.071630478E0
1.419278808E1,-3.160346270E0,-1.338358760E0,1.136288166E1
1.421277678E1,-2.640804529E0,-1.853112102E0,1.373553562E1
1.423276540E1,-7.110779285E-1,-2.650381327E0,1.442506504E1
1.425278356E1,-1.113303781E0,-2.808398485E0,1.398692608E1
1.427277433E1,-2.568978310E0,-1.697489023E0,1.297657299E1
1.429276318E1,-2.375048161E0,-1.819593310E-1,9.801861763E0
1.431278357E1,9.648633003E-1,-8.523358107E-1,7.991845131E0
1.433277089E1,-8.906430602E-1,-2.705447912E0,1.249773312E1
1.435276235E1,-3.572149038E0,-4.345476151E0,1.660378838E1
1.437278136E1,-5.882553577E0,-2.779668093E0,1.525345898E1
1.439277006E1,-3.411737442E0,-3.320757866E0,1.093192482E1
1.441278722E1,-1.247379065E0,-2.691082716E0,7.558494568E0
1.443277737E1,-1.515529633E0,-7.709329724E-1,5.772420406E0
1.445276538E1,-1.594538331E0,1.010353088E0,6.294356346E0
1.447278700E1,2.394201607E-2,1.592144132E0,6.438008308E0
1.449277770E1,1.158793569E0,1.331176162E0,5.185841084E0
1.451276701E1,-2.825157940E-1,1.019929886E0,4.165910721E0
1.453278356E1,-1.091755986E0,8.068459630E-1,5.932831764E0
1.455277287E1,-1.458068848E0,3.782838583E-1,6.351817131E0
1.457276172E1,-2.233790159E0,-7.182604820E-2,6.335057735E0
1.459277896E1,-2.523488522E0,-1.723825186E-1,7.266402245E0
1.461276789E1,-2.561795712E0,3.998316824E-1,7.127538681E0
1.463279251E1,-3.251325846E0,1.350329757E0,6.615179062E0
1.465278020E1,-2.801215887E0,1.520318031E0,6.004657745E0
1.467276975E1,-3.883395195E0,1.525106430E0,9.583989143E0
1.469278698E1,-4.687847137E0,1.618480325E0,1.232056236E1
1.471277661E1,-3.110068083E0,6.296750307E-1,1.357512379E1
1.473276854E1,-1.608903527E0,-8.762778044E-1,1.616804314E1
1.475278546E1,-1.307234168E0,-1.450886250E0,1.856464005E1
1.477277531E1,-1.283292055E0,-1.467645645E0,1.900996208E1
1.479276401E1,-1.489193439E0,-1.841141105E0,1.738669205E1
1.481278310E1,-2.683900118E0,-2.195482969E0,1.518642139E1
1.483277410E1,-4.007893562E0,-2.080561161E0,1.283052731E1
1.485276188E1,-4.264073372E0,-1.410184860E0,9.950302124E0
1.487278088E1,-3.294421434E0,-6.440402865E-1,7.659051418E0
1.489276866E1,-2.449268341E0,-9.576806799E-3,6.684611320E0
1.491279228E1,-2.099714994E0,4.261679053E-1,6.744466305E0
1.493277874E1,-2.063801765E0,4.525041282E-1,6.370970726E0
1.495276683E1,-2.102109194E0,5.051765442E-1,5.978321552E0
1.497278768E1,-1.197100878E0,2.992752194E-1,5.372588634E0
1.499277853E1,-2.394201756E-1,2.729389966E-1,4.800374508E0
1.501276676E1,1.340752989E-1,5.219359994E-1,4.606443882E0
1.503278492E1,8.379705995E-2,8.547300100E-1,4.841075897E0
1.505277355E1,1.268926859E-1,9.696516991E-1,5.240907669E0
1.507276494E1,2.705447972E-1,9.097966552E-1,6.189011574E0
1.509278156E1,1.675941199E-1,8.499416113E-1,7.781155586E0
1.511276872E1,3.495534360E-1,7.110779285E-1,9.119514465E0
1.513279180E1,8.140286058E-2,1.027112484E0,9.902418137E0
1.515278165E1,-1.125274777E0,2.157175779E0,1.113064384E1
1.517276966E1,-2.370259762E0,2.535459518E0,1.260547161E1
1.519278720E1,-2.238578558E0,7.350199223E-1,1.412100124E1
1.521277667E1,-1.584961534E0,-8.140285611E-1,1.428380775E1
1.523276598E1,-1.671152830E0,-1.242590666E0,1.348414421E1
1.525278599E1,-3.469198227E0,-5.123591423E-1,1.287841129E1
1.527277576E1,-5.116408825E0,-7.110779285E-1,1.283770943E1
1.529276507E1,-5.346252441E0,-1.465251446E0,1.204044056E1
1.531278377E1,-5.722142220E0,-1.003170490E0,9.818621635E0
1.533277278E1,-5.114014626E0,-9.576806426E-2,7.280767441E0
1.535276070E1,-4.024652958E0,9.959878922E-1,5.700594425E0
1.537278202E1,-3.081337690E0,1.587355733E0,5.683835030E0
1.539277118E1,-2.985569477E0,1.491587639E0,5.882553577E0
1.541279026E1,-2.647987127E0,1.419761658E0,5.623979568E0
1.543278134E1,-1.561019540E0,1.541865945E0,4.960785866E0
1.545276542E1,-8.882488012E-1,1.927332401E0,4.812345505E0
1.547278812E1,-7.996633649E-1,2.449268341E0,6.447585106E0
1.549277890E1,-6.344634295E-1,2.494758129E0,9.497797966E0
1.551276536E1,-1.443703651E0,1.948880196E0,1.244984913E1
1.553278422E1,-2.257732153E0,4.572925270E-1,1.397016716E1
1.555277184E1,-3.224989653E0,-1.987187415E-1,1.246660805E1
1.557276046E1,-4.357447147E0,6.799532771E-1,1.114022064E1
1.559278416E1,-3.622427225E0,1.893813491E0,1.052730465E1
1.561277216E1,-3.241749048E0,2.923320293E0,1.131739140E1
1.563276017E1,-2.456450939E0,2.918531895E0,1.147780323E1
1.565277871E1,-1.077390760E-1,1.817199111E0,1.118810463E1
1.567276826E1,-3.351882473E-2,5.602431893E-1,1.229901409E1
1.569278911E1,-2.365471363E0,-6.943184733E-1,1.325430107E1
1.571277811E1,-4.175487995E0,-1.333570361E0,1.292150688E1
1.573276450E1,-4.601655483E0,-9.576807022E-1,1.143710136E1
1.575278512E1,-3.471592426E0,-8.619125932E-2,8.959102631E0
1.577277497E1,-1.697489023E0,2.992752194E-1,6.636727333E0
1.579276575E1,-1.244984865E0,8.762778044E-1,6.517016888E0
1.581278276E1,-1.046266198E0,7.805097699E-1,6.964732647E0
1.583277253E1,-9.600749016E-1,6.895300746E-1,6.327875137E0
1.585276246E1,-6.153098345E-1,8.714894056E-1,4.599261284E0
1.587278177E1,4.357447028E-1,1.019929886E0,3.627215624E0
1.589277170E1,1.031900883E0,9.481038451E-1,3.952826977E0
1.591278978E1,-9.959878922E-1,1.599326730E0,5.339069843E0
1.593277933E1,-3.720589399E0,2.109291792E0,8.441955566E0
1.595276895E1,-4.161122322E0,2.662352324E0,1.125753593E1
1.597278834E1,-3.332728863E0,2.415749550E0,1.431253815E1
1.599277665E1,-3.263296843E0,1.103726983E0,1.553118610E1
1.601276427E1,-2.375048161E0,-1.367089152E0,1.553597450E1
1.603278466E1,-1.721431017E0,-2.908955097E0,1.474828243E1
1.605277382E1,-1.113303781E0,-3.653551817E0,1.471715832E1
1.607276129E1,2.394201700E-3,-3.191470861E0,1.565329075E1
1.609278099E1,-4.788403511E-1,-1.778891921E0,1.470997524E1
1.611277384E1,-1.616086125E0,-3.758896589E-1,1.199255657E1
1.613275823E1,-1.747767210E0,1.795651317E-1,8.389283180E0
1.615278039E1,-1.690306425E0,6.200982332E-1,6.665457726E0
1.617277024E1,-1.223437071E0,5.650315881E-1,7.709329605E0
1.619278932E1,-1.216254473E0,3.854664862E-1,8.410830498E0
1.621277886E1,-1.584961534E0,1.651999205E-1,7.544129372E0
1.623276741E1,-1.731007814E0,2.394201700E-3,6.019022942E0
1.625278688E1,-1.623268723E0,1.412578970E-1,4.611232281E0
1.627277427E1,-1.752555609E0,7.015010715E-1,4.273650169E0
1.629276412E1,-1.438915253E0,1.019929886E0,4.390965939E0
1.631278597E1,-6.296750307E-1,1.446097851E0,5.463568211E0
1.633277144E1,-9.576807022E-1,1.984793186E0,8.094796181E0
1.635276190E1,-2.987963676E0,2.324769735E0,1.151850414E1
1.637278099E1,-4.165910721E0,2.372653961E0,1.086728191E1
1.639276930E1,-3.526659012E0,2.834734917E0,8.918401718E0
1.641278900E1,-2.260126352E0,3.459621429E0,1.013465595E1
1.643277954E1,-1.685518026E0,3.430891037E0,1.267729759E1
1.645276747E1,-6.847416759E-1,1.805228114E0,1.380017853E1
1.647278778E1,-1.187524080E0,8.307880163E-1,1.414973164E1
1.649277556E1,-2.343923569E0,6.631938815E-1,1.521515179E1
1.651276595E1,-2.600103140E0,8.427590132E-1,1.417606831E1
1.653278565E1,-1.419761658E0,7.469909191E-1,1.096783829E1
1.655277427E1,-7.757213712E-1,5.099649429E-1,8.676587105E0
1.657276319E1,-1.094150186E0,5.410895944E-1,9.054870605E0
1.659278266E1,-1.297657371E0,3.280056417E-1,9.179368973E0
1.661277344E1,-1.350329757E0,2.250549644E-1,7.486668587E0
1.663276052E1,-9.217676520E-1,1.436521020E-2,5.322310448E0
1.665278022E1,-6.895300746E-1,2.394201700E-3,4.857835293E0
1.667276761E1,-9.026140571E-1,5.985504389E-1,6.078877926E0
1.669278854E1,-6.081272364E-1,9.888052940E-1,6.777985096E0
1.671277623E1,2.896983922E-1,1.256955862E0,6.852205276E0
1.673276755E1,1.335964561E0,2.051830769E0,6.500257492E0
1.675278394E1,3.009511471E0,2.636016130E0,6.301538944E0
1.677277317E1,4.707000732E0,2.985569477E0,7.153874874E0
1.679276548E1,4.841075897E0,3.385401249E0,9.318233490E0
1.681278303E1,2.820369720E0,3.533841610E0,1.099656868E1
1.683277227E1,9.528923035E-1,3.462015629E0,1.201889229E1
1.685276058E1,-2.609679997E-1,2.978386879E0,1.338358784E1
1.687278143E1,-2.097320795E0,3.201047659E0,1.484644508E1
1.689277251E1,-4.180276394E0,4.505887508E0,1.493502998E1
1.691276206E1,-2.904166698E0,4.800374508E0,1.257195282E1
1.693277837E1,2.801215947E-1,3.150769472E0,1.125514221E1
1.695276976E1,1.441309452E0,1.357512355E0,1.545217800E1
1.697278669E1,7.182604820E-2,5.506663918E-1,1.699643707E1
1.699277631E1,-2.068590164E0,1.333570361E0,1.337879944E1
1.701276585E1,-2.533065319E0,2.427720547E0,8.734047890E0
1.703278278E1,-1.379060149E0,3.145981073E0,5.521028996E0
1.705277533E1,-7.589619160E-1,3.646369219E0,4.228160381E0
1.707276395E1,-8.259995580E-1,3.078943491E0,5.679046631E0
1.709278126E1,2.178723514E-1,1.549048543E0,7.527369976E0
1.711277011E1,5.602431893E-1,8.571242094E-1,8.530540466E0
1.713279196E1,-1.197100803E-2,5.578489900E-1,7.718906403E0
1.715278366E1,-7.805097699E-1,4.141969085E-1,6.110002518E0
1.717276982E1,-4.525041282E-1,5.410895944E-1,5.200206280E0
1.719278983E1,1.098938584E0,9.840168953E-1,5.999869347E0
1.721277699E1,2.375048161E0,1.496376038E0,6.794744492E0
1.723276622E1,1.616086125E0,1.838746905E0,7.285555840E0
1.725278623E1,-8.690952063E-1,1.874659896E0,7.498639584E0
1.727277731E1,-1.644816518E0,1.798045516E0,6.758831501E0
1.729276462E1,-7.445967197E-1,2.305616140E0,6.500257492E0
1.731278501E1,5.817909837E-1,3.258508444E0,8.327033043E0
1.733277302E1,9.050082564E-1,4.247313976E0,1.110191345E1
1.735276064E1,2.513911724E-1,4.527435303E0,1.388876438E1
1.737278349E1,-9.289502501E-1,4.604049683E0,1.471955204E1
1.739277150E1,-7.637503147E-1,4.932055473E0,1.315613842E1
1.741279112E1,1.716642618E0,4.999093056E0,1.299812126E1
1.743277882E1,3.586514235E0,4.539406300E0,1.423352909E1
1.745276990E1,2.334346771E0,3.608062029E0,1.408508873E1
1.747278929E1,-3.232172430E-1,2.748543501E0,1.252646351E1
1.749277822E1,-2.063801765E0,2.269703150E0,1.045787334E1
1.751276538E1,-2.317587137E0,1.924938202E0,8.700529099E0
1.753278654E1,-1.884236693E0,1.752555609E0,7.896077156E0
1.755277523E1,-1.467645645E0,1.582567334E0,7.896077156E0
1.757276347E1,-1.077390790E0,1.441309452E0,7.716512203E0
1.759278201E1,7.206547260E-1,1.103726983E0,7.994239330E0
1.761277210E1,5.865794420E-1,1.304839969E0,7.122750282E0
1.763276172E1,1.216254473E0,1.268926859E0,5.978321552E0
1.765278288E1,8.714894056E-1,1.462857246E0,4.407725334E0
1.767277004E1,-7.422025502E-2,1.771709204E0,4.015076160E0
1.769278873E1,-6.631938815E-1,1.927332401E0,4.302380562E0
1.771277928E1,-8.738836050E-1,1.850717902E0,6.421248913E0
1.773276851E1,-6.320692301E-1,1.640028119E0,9.739612579E0
1.775278790E1,-4.620809257E-1,1.714248419E0,1.082658005E1
1.777277376E1,-2.078166962E0,2.463633537E0,1.126232433E1
1.779276299E1,-2.870647907E0,2.798821688E0,1.134372807E1
1.781278177E1,-2.480392933E0,3.306392431E0,1.181059742E1
1.783277162E1,-2.085349798E0,4.125209332E0,1.264377880E1
1.785276239E1,-1.522712231E0,4.374206543E0,1.167891598E1
1.787278201E1,-1.237802267E0,3.778050184E0,9.521739960E0
1.789276856E1,-1.699883223E0,2.238578558E0,9.552865028E0
1.791278887E1,-2.470816135E0,8.643068075E-1,1.128147888E1
1.793277842E1,-1.163581967E0,2.489969730E-1,1.396777248E1
1.795276819E1,8.571242094E-1,7.134721279E-1,1.446576691E1
1.797278920E1,9.888052940E-1,1.570596337E0,1.218409252E1
1.799277897E1,-9.816227108E-2,2.011129379E0,1.049857426E1
1.801276513E1,-1.412579060E0,2.509123325E0,8.769960403E0
1.803278390E1,-7.326257229E-1,2.815581083E0,7.924807549E0
1.805277352E1,7.350199223E-1,2.705447912E0,8.492233276E0
1.807276399E1,1.625662923E0,2.315192938E0,8.710105896E0
1.809278338E1,1.532289028E0,1.754949808E0,8.010998726E0
1.811277223E1,7.493851185E-1,1.084573388E0,8.473079681E0
1.813276086E1,-1.149216816E-1,1.235408068E0,7.570465565E0
1.815277940E1,-4.070142806E-1,1.264138460E0,6.445190907E0
1.817276956E1,1.580173075E-1,1.685518026E0,7.838616371E0
1.819279072E1,5.267243832E-2,2.056619167E0,7.845798969E0
1.821278026E1,-1.522712231E0,2.645592928E0,7.302315235E0
1.823276711E1,-2.908955097E0,2.676717520E0,7.582436562E0
1.825278673E1,-2.564189911E0,2.183511972E0,7.196970463E0
1.827277635E1,-1.948880196E0,2.291250944E0,7.912836552E0
1.829276367E1,-3.507505417E0,3.677493811E0,1.033337498E1
1.831278467E1,-4.572925091E0,5.128379822E0,1.239238834E1
1.833277537E1,-2.973598480E0,5.171475887E0,1.149695683E1
1.835276307E1,-7.685387731E-1,5.046977043E0,1.082897472E1
1.837278184E1,-5.578489900E-1,5.516240597E0,1.173158836E1
1.839277177E1,-1.393425345E0,5.465962410E0,1.377623653E1
1.841278932E1,-1.606509328E0,4.390965939E0,1.429577827E1
1.843277848E1,-1.711854219E0,3.385401249E0,1.310107136E1
1.845276587E1,-1.843535304E0,3.323152065E0,1.103966427E1
1.847278626E1,-1.680729628E0,3.440467834E0,9.267954826E0
1.849277603E1,-1.604115129E0,3.289633036E0,8.020575523E0
1.851276534E1,-1.417367458E0,3.045424461E0,7.115567684E0
1.853278658E1,-1.489193439E0,2.715024710E0,6.294356346E0
1.855277389E1,-1.642422318E0,2.513911724E0,5.461174011E0
1.857276405E1,-1.924938202E0,2.262520552E0,5.257667065E0
1.859278229E1,-2.279279947E0,2.348711967E0,4.977545261E0
1.861277268E1,-2.449268341E0,2.952050686E0,4.829104900E0
1.863276161E1,-1.587355733E0,3.184288263E0,5.097255230E0
1.865278107E1,-8.355764151E-1,3.617638826E0,5.501875401E0
1.867276939E1,-7.062895298E-1,3.785232782E0,6.210559368E0
1.869278785E1,-1.247379065E0,3.466804028E0,7.558494568E0
1.871278071E1,-2.343923569E0,3.564966440E0,8.549694061E0
1.873276502E1,-2.978386879E0,3.921702385E0,9.509769440E0
1.875278756E1,-2.841917515E0,3.869029999E0,1.192551899E1
1.877277403E1,-2.604891539E0,3.864241600E0,1.325190639E1
1.879276450E1,-2.511517525E0,4.129997730E0,1.297657299E1
1.881278450E1,-2.173935175E0,5.020640850E0,1.155202293E1
1.883277374E1,-1.357512355E0,6.172252178E0,1.041477776E1
1.885276198E1,-6.224924326E-2,5.899312973E0,1.111388397E1
1.887278167E1,-4.548983276E-1,4.786009312E0,1.273475838E1
1.889277068E1,-1.944091797E0,4.024652958E0,1.263899040E1
1.891279192E1,-3.033453465E0,4.129997730E0,1.098699188E1
1.893277892E1,-3.007117271E0,4.465186119E0,9.351752281E0
1.895276854E1,-1.989581585E0,4.848258495E0,7.833827972E0
1.897278855E1,-1.280897856E0,4.800374508E0,7.117961884E0
1.899277717E1,-1.570596337E0,3.931279182E0,6.952761650E0
1.901276671E1,-3.272873640E0,3.849876404E0,6.976703644E0
1.903278487E1,-3.651157618E0,3.730166197E0,6.684611320E0
1.905277495E1,-2.384624958E0,3.555389643E0,5.760449409E0
1.907276604E1,-1.206677675E0,3.236960649E0,5.360617638E0
1.909278512E1,-1.640028119E0,3.059789658E0,4.601655483E0
1.911277074E1,-3.423708439E0,2.422932148E0,5.384559631E0
1.913275998E1,-3.629609823E0,2.454056740E0,6.162675381E0
1.915278090E1,-1.845929503E0,2.327163935E0,6.627150536E0
1.917276945E1,-1.733402014E0,2.655169725E0,6.100425720E0
1.919278922E1,-2.992752075E0,2.317587137E0,5.137956619E0
1.922061347E1,-3.409343243E0,3.433285236E0,5.078101635E0
1.924060336E1,-2.731784105E0,3.368641853E0,8.099584579E0
1.926062480E1,-2.279279947E0,2.913743496E0,1.001015759E1
1.928061185E1,-2.595314741E0,2.789244890E0,1.013465595E1
1.930060051E1,-3.335123062E0,2.975992680E0,8.391676903E0
1.932062049E1,-3.327940464E0,2.990357876E0,7.635109425E0
1.934060938E1,-2.791639090E0,2.901772499E0,7.187393665E0
1.936062867E1,-2.169146776E0,2.844311714E0,7.309497833E0
1.938061879E1,-1.860294700E0,2.896984100E0,7.905653954E0
1.940060684E1,-1.637633920E0,2.817975283E0,7.151480675E0
1.942062551E1,-1.781286120E0,2.724601507E0,6.438008308E0
1.944061502E1,-1.651999116E0,2.667140722E0,6.548141479E0
1.946060330E1,-1.192312479E0,2.480392933E0,6.287173748E0
1.948062297E1,-1.470039845E0,2.375048161E0,6.576871872E0
1.950061094E1,-2.087743998E0,2.094926596E0,7.165845871E0
1.952060107E1,-2.164358377E0,2.121262789E0,6.943184853E0
1.954062266E1,-1.771709204E0,2.398990154E0,6.095637321E0
1.956061117E1,-1.450886250E0,3.059789658E0,5.877765179E0
1.958059853E1,-1.175553083E0,3.536235809E0,6.557718277E0
1.960061820E1,-7.900865674E-1,3.754108191E0,7.398083210E0
1.962060740E1,-1.015141487E0,3.933673382E0,7.580042362E0
1.964062830E1,-1.106121182E0,3.651157618E0,8.236053467E0
1.966061512E1,-1.168370485E0,3.179499865E0,8.813055992E0
1.968060732E1,-1.754949808E0,2.772485495E0,1.078827286E1
1.970062391E1,-3.155557871E0,2.774879694E0,1.310585976E1
1.972061350E1,-5.470750809E0,1.766920805E0,1.344583702E1
1.974060386E1,-6.521805286E0,2.327163935E0,1.325430107E1
1.976062198E1,-5.755661011E0,1.568202138E0,1.280179691E1
1.978060996E1,-3.009511471E0,3.160346150E-1,1.244745445E1
1.980060070E1,-2.037465572E0,2.394201700E-3,1.230859089E1
1.982061944E1,-2.267308950E0,1.221042871E-1,1.202128696E1
1.984060650E1,-2.312798738E0,1.340752989E-1,1.071884060E1
1.986062647E1,-1.426944256E0,2.059013397E-1,9.528923035E0
1.988061790E1,-5.267243981E-1,8.331822157E-1,8.760383606E0
1.990060549E1,-2.394201756E-1,1.527500629E0,8.743624687E0
1.992062670E1,-7.278373241E-1,1.280897856E0,9.028534889E0
1.994061529E1,-1.192312479E0,5.961562395E-1,8.676587105E0
1.996060334E1,-1.003170490E0,5.698199868E-1,7.496245384E0
1.998062385E1,-1.637633920E0,6.416460276E-1,6.885724068E0
2.000061128E1,-3.296815634E0,9.457096457E-1,7.529764175E0
2.002059887E1,-3.445256233E0,6.177040339E-1,7.994239330E0
2.004061985E1,-2.664746523E0,1.027112484E0,8.590395927E0
2.006060874E1,-7.541735172E-1,6.775590777E-1,8.547300339E0
2.008062864E1,-7.182605267E-1,5.674257874E-1,7.503427982E0
2.010061784E1,-2.049436569E0,3.160346150E-1,8.944737434E0
2.012060743E1,-2.978386879E0,6.607996821E-1,8.786720276E0
2.014062856E1,-3.339911461E0,-2.633621916E-2,9.145850182E0
2.016061561E1,-2.947262287E0,-6.200982332E-1,8.178592682E0
2.018060358E1,-1.096544385E0,-4.118026793E-1,8.695740700E0
2.020062487E1,-7.829039693E-1,5.985504389E-2,1.202128696E1
2.022061099E1,-2.703053713E0,1.302445769E0,1.350569153E1
2.024060197E1,-2.207453966E0,1.472434044E0,1.373314095E1
2.026062163E1,-2.202665508E-1,7.206547260E-1,1.241154194E1
2.028061061E1,1.142034173E0,5.602431893E-1,1.165018559E1
2.030059612E1,3.423708379E-1,1.314416766E0,1.129823780E1
2.032061917E1,-1.268926859E0,1.187524080E0,1.229901409E1
2.034060860E1,-2.552218914E0,7.134721279E-1,1.196143150E1
2.036062796E1,-4.357447147E0,1.426944256E0,9.988609314E0
2.038061632E1,-2.264914751E0,3.687070608E-1,7.718906403E0
2.040060430E1,-1.963245422E-1,-3.758896589E-1,5.183446884E0
2.042062519E1,3.830722570E-1,-6.703764945E-2,4.781220913E0
2.044061563E1,1.386242747E0,3.806780577E-1,5.691017628E0
2.046060291E1,1.381454349E0,6.200982332E-1,7.359776020E0
2.048062196E1,-1.448492050E0,8.978256583E-1,7.594407558E0
2.050061116E1,-3.215412855E0,1.235408068E0,8.875306129E0
2.052060068E1,-2.030282974E0,1.163581967E0,8.930372238E0
2.054061850E1,-9.337386489E-2,5.506663769E-2,1.073081207E1
2.056060893E1,1.223437071E0,-1.063025594E0,1.184411621E1
2.058059814E1,2.908955097E0,-1.855506301E0,1.293108368E1
2.060061542E1,5.003881454E-1,-1.549048543E0,1.321599293E1
2.062060731E1,-1.510741234E0,-2.226607651E-1,1.375468922E1
2.064062298E1,-2.221819162E0,8.906430602E-1,1.330697346E1
2.066061711E1,-1.541865945E0,9.241618514E-1,1.188242340E1
2.068060454E1,-7.302315235E-1,1.017535686E0,1.000536919E1
2.070062421E1,2.968810201E-1,3.543418646E-1,8.073247910E0
2.072061126E1,-8.858546615E-2,-2.944868207E-1,9.311050415E0
2.074060069E1,-2.372653961E0,-7.134721279E-1,1.219845772E1
2.076062136E1,-4.082113743E0,-8.307880163E-1,1.311064816E1
2.078060841E1,-5.257667065E0,2.035071403E-1,1.042195988E1
2.080059754E1,-4.410119534E0,3.687070608E-1,7.232883453E0
2.082061913E1,-2.003946781E0,-7.637503147E-1,6.433219910E0
2.084060618E1,-1.680729628E0,-3.974374831E-1,6.895300865E0
2.086062515E1,-2.920926094E0,1.003170490E0,7.738059998E0
2.088061374E1,-3.672705412E0,2.114080191E0,8.530540466E0
2.090060294E1,-2.367865562E0,-7.158663273E-1,7.584830761E0
2.092062507E1,-7.278373241E-1,-3.859453201E0,7.177816868E0
2.094061489E1,-3.732560396E0,-2.578555346E0,7.153874874E0
2.096060356E1,-5.765237808E0,-9.097966552E-1,6.988674641E0
2.098062138E1,-3.945644379E0,-3.136404157E-1,7.513004780E0
2.100061151E1,-1.865083098E0,1.388636976E-1,8.930372238E0
2.102060186E1,-1.125274777E0,6.464344859E-1,1.056561184E1
2.104061907E1,-1.752555609E0,1.036689281E0,9.564835548E0
2.106060858E1,-2.171540976E0,5.746083856E-1,8.133103371E0
2.108060032E1,-2.408566952E0,7.781155705E-1,9.033323288E0
2.110061776E1,-3.232172251E0,-3.160346150E-1,8.904036522E0
2.112060635E1,-1.980004787E0,1.036689281E0,1.172440529E1
2.114062670E1,-9.816226959E-1,2.367865562E0,1.120725822E1
2.116061345E1,1.292868972E0,2.240972757E0,1.137485218E1
2.118060319E1,2.753331900E0,4.189853072E-1,1.383130360E1
2.120062109E1,2.585737705E-1,-9.888052940E-1,1.500206757E1
2.122061060E1,-3.248931646E0,-2.279279947E0,1.392467690E1
2.124060226E1,-5.307945251E0,-2.413355350E0,1.176510715E1
2.126062008E1,-5.236119270E0,-1.853112102E0,9.622296333E0
2.128060775E1,-4.137180328E0,-1.369483352E0,8.008605003E0
2.130059603E1,-3.639186621E0,-3.399766386E-1,8.032546997E0
2.132061724E1,-3.083731890E0,7.422025502E-2,8.882488251E0
2.134060736E1,-2.511517525E0,-1.867477298E-1,8.690952301E0
2.136062757E1,-2.322375536E0,-3.543418646E-1,7.496245384E0
2.138061554E1,-2.049436569E0,-5.027823448E-1,6.117185116E0
2.140060575E1,-2.779668093E0,-2.059013397E-1,5.674258232E0
2.142062287E1,-3.227383852E0,3.351882473E-2,6.691793919E0
2.144061185E1,-2.178723574E0,-2.633621916E-2,7.572859764E0
2.146060228E1,-3.375824392E-1,-8.858546615E-2,7.158663273E0
2.148062103E1,1.867477298E-1,4.668693244E-1,6.828263283E0
2.150061015E1,-1.599326730E0,1.244984865E0,8.262390137E0
2.152059851E1,-2.396595955E0,9.504981041E-1,1.080263805E1
2.154061879E1,-2.612074137E0,4.333505034E-1,1.166215611E1
2.156060707E1,-2.624045134E0,5.386953950E-1,1.125993061E1
2.158059720E1,-2.856282711E0,1.537077546E0,1.103248119E1
2.160061587E1,-3.375824451E0,2.523488522E0,1.134612179E1
2.162060484E1,-3.976768970E0,3.888183594E0,1.057997704E1
2.164062474E1,-7.709329724E-1,3.730166197E0,9.138668060E0
2.166061486E1,1.450886250E0,3.687070608E0,1.003170490E1
2.168060384E1,1.278503656E0,2.032677174E0,1.390073490E1
2.170062158E1,-1.151610970E0,-8.140286058E-2,1.516008472E1
2.172061048E1,-3.818751812E0,-5.458779931E-1,1.329260826E1
2.174059661E1,-4.915296078E0,3.016694188E-1,1.043393135E1
2.176062004E1,-4.338293552E0,1.527500629E0,8.398859978E0
2.178060702E1,-4.070142746E0,2.398990154E0,8.913613319E0
2.180059937E1,-2.849100113E0,1.855506301E0,1.063983250E1
2.182061619E1,-1.582567334E0,1.201889277E0,1.141315937E1
2.184060632E1,-1.072602391E0,1.063025594E0,1.004367638E1
2.186062506E1,-1.230619669E0,1.177947283E0,7.814674377E0
2.188061334E1,-1.103726983E0,1.276109457E0,6.126761913E0
2.190060255E1,-8.283938169E-1,1.345541358E0,5.559336185E0
2.192062006E1,-1.891419291E-1,1.297657371E0,5.535394192E0
2.194061204E1,1.364694983E-1,1.568202138E0,5.453991413E0
2.196060124E1,-2.370259613E-1,1.994369984E0,5.413290024E0
2.198062006E1,-7.565677166E-1,2.102109194E0,5.837063789E0
2.200060896E1,-1.113303781E0,1.984793186E0,6.390124321E0
2.202059931E1,-9.026140571E-1,1.759738207E0,7.015010834E0
2.204061960E1,-1.039083481E0,1.640028119E0,7.563282967E0
2.206060695E1,-1.601720929E0,1.675941229E0,7.852981567E0
2.208059431E1,-2.097320795E0,1.843535304E0,7.457938194E0
2.210061528E1,-1.671152830E0,2.159569979E0,7.433996201E0
2.212060595E1,-6.416460276E-1,2.944868088E0,8.054094315E0
2.214062477E1,-4.548983276E-2,4.249708176E0,1.037647057E1
2.216061298E1,1.237802267E0,3.828328609E0,1.374511242E1
2.218060195E1,2.044648170E0,2.231395960E0,1.529176617E1
2.220062254E1,7.158663273E-1,1.283292055E0,1.617283249E1
2.222061105E1,-6.895300746E-1,4.118026793E-1,1.643140602E1
2.224059995E1,-1.721431017E0,8.140286058E-2,1.481053162E1
2.226061808E1,-2.557007313E0,8.571242094E-1,1.197340298E1
2.228060766E1,-2.705447912E0,2.073378563E0,9.112331390E0
2.230059618E1,-2.585737944E0,2.887407303E0,8.204929352E0
2.232061530E1,-2.614468336E0,3.213018656E0,8.753201485E0
2.234060389E1,-2.255337954E0,2.858676910E0,9.440337181E0
2.236062471E1,-1.821987510E0,2.336740971E0,9.327810287E0
2.238061369E1,-1.412579060E0,2.094926596E0,8.607154846E0
2.240060097E1,-1.541865945E0,2.003946781E0,7.747636795E0
2.242062286E1,-1.711854219E0,1.893813491E0,7.204153061E0
2.244061238E1,-1.398213744E0,2.059013367E0,6.998251438E0
2.246060181E1,-8.140285611E-1,2.494758129E0,6.526593685E0
2.248062055E1,-3.639186621E-1,3.167528868E0,6.454767704E0
2.250060922E1,-4.764461517E-1,3.536235809E0,7.153874874E0
2.252059996E1,-1.783680320E0,3.318363667E0,8.439560890E0
2.254061686E1,-2.403778553E0,2.336740971E0,1.007240677E1
2.256060537E1,-2.832340717E0,1.879448295E0,1.216493893E1
2.258059458E1,-3.423708439E0,2.466027737E0,1.368286228E1
2.260061670E1,-2.236184359E0,2.238578558E0,1.323275280E1
2.262060252E1,-8.906430602E-1,1.570596337E0,1.195903778E1
2.264062011E1,-7.541735172E-1,7.924807668E-1,1.243787766E1
2.266061201E1,-1.759738207E0,-6.536170840E-1,1.394383049E1
2.268060129E1,-3.435679436E0,-1.417367458E0,1.396298409E1
2.270061903E1,-4.134786129E0,-9.481038451E-1,1.229183197E1
2.272061008E1,-3.311181068E0,3.878606856E-1,1.037647057E1
2.274059744E1,-2.178723574E0,1.647210717E0,9.071630478E0
2.276061895E1,-8.116343617E-1,1.915361404E0,8.765172005E0
2.278060939E1,5.228936672E0,6.426037312E0,9.176975250E0
2.280059621E1,-1.244984865E-1,1.414973259E0,8.693346024E0
2.282061549E1,9.911994934E-1,3.351882458E0,8.530540466E0
2.284060685E1,1.417367458E0,2.746149302E0,5.901707172E0
2.286062590E1,1.173158884E0,2.255337954E0,4.137180328E0
2.288061234E1,-1.675941199E-1,2.382230759E0,3.849876404E0
2.290060369E1,-9.552865028E-1,2.576161146E0,5.063736439E0
2.292062405E1,-7.757213712E-1,2.468421936E0,6.033388138E0
2.294061010E1,-4.429273009E-1,2.928108692E0,6.830657482E0
2.296060085E1,-5.985504389E-1,2.578555346E0,7.472303391E0
2.298061836E1,-2.145204782E0,1.829170108E0,8.518569946E0
2.300061041E1,-3.521870613E0,1.151610970E0,9.416395187E0
2.302059707E1,-4.122815132E0,1.201889277E0,9.665391922E0
2.304061674E1,-4.568136692E0,1.848323703E0,9.610325813E0
2.306060440E1,-4.551377296E0,2.145204782E0,1.041238308E1
2.308062846E1,-4.151545525E0,2.427720547E0,1.207395935E1
2.310061304E1,-2.786850691E0,2.832340717E0,1.311064816E1
2.312060225E1,-9.576806426E-2,2.705447912E0,1.444421864E1
2.314062161E1,2.145204782E0,1.817199111E0,1.592144108E1
2.316061112E1,1.829170108E0,3.567360640E-1,1.762132454E1
2.318060117E1,6.081272364E-1,-5.027823448E-1,1.769793892E1
2.320061722E1,-1.122880578E0,-4.357447028E-1,1.467406178E1
2.322060889E1,-2.128445387E0,-2.154781483E-2,1.077630138E1
2.324059863E1,-2.612074137E0,2.920926213E-1,8.686163902E0
2.326061776E1,-3.775655985E0,8.427590132E-1,7.082048416E0
2.328060719E1,-4.132391930E0,1.173158884E0,6.167463779E0
2.330059424E1,-4.005499363E0,1.175553083E0,5.379771233E0
2.332061491E1,-3.809175014E0,1.482010841E0,5.018246651E0
2.334060442E1,-2.624045134E0,1.517923832E0,5.425261021E0
2.336066530E1,-1.953668594E0,1.460463047E0,5.875370979E0
2.338065914E1,-1.723825216E0,1.551442742E0,5.805939198E0
2.340064805E1,-1.089361787E0,1.482010841E0,4.939238071E0
2.342066627E1,-1.455674648E0,2.928108692E0,3.253720045E0
2.344065180E1,-2.489969730E-1,1.616086125E0,5.762843609E0
2.346064279E1,-1.199495077E0,1.821987510E0,7.694964409E0
2.348066378E1,-2.190694571E0,1.345541358E0,1.060391903E1
2.350065454E1,-3.246537447E0,7.422025204E-1,1.167173290E1
2.352064276E1,-2.937685490E0,3.878606856E-1,1.085291672E1
2.354066090E1,-2.985569477E0,1.273715258E0,9.821015358E0
2.356065105E1,-2.700659513E0,2.130839586E0,1.011310768E1
2.358063873E1,-2.918531895E0,2.446874142E0,1.184172153E1
2.360065872E1,-4.599261284E0,3.466804028E0,1.251928043E1
2.362064763E1,-4.762067318E0,4.671087742E0,1.392467690E1
2.364066770E1,-2.157175779E0,5.221754074E0,1.361582470E1
2.366065654E1,5.841852427E-1,1.704671621E0,1.358230591E1
2.368064583E1,-2.561795712E-1,-2.590526342E0,1.562456036E1
2.370066329E1,-4.304774761E0,-3.749319792E0,1.725740623E1
2.372065412E1,-8.106766701E0,-2.104503393E0,1.706587029E1
2.374064296E1,-7.347805023E0,8.619125932E-2,1.465251446E1
2.376066087E1,-2.851494312E0,1.491587639E0,1.161427212E1
2.378065194E1,-1.752555609E0,3.306392431E0,9.069235802E0
2.380064085E1,-1.893813491E0,3.354276657E0,7.709329605E0
2.382065992E1,-7.781155705E-1,2.157175779E0,7.584830761E0
2.384064760E1,-5.195417404E-1,1.177947283E0,6.792350292E0
2.386066913E1,-1.450886250E0,2.114080191E0,5.434837818E0
2.388065581E1,-7.350199223E-1,2.547430515E0,3.890577793E0
2.390064873E1,6.368576288E-1,2.729389906E0,3.608062029E0
2.392066348E1,8.882488012E-1,3.337517262E0,5.458779812E0
2.394065494E1,6.823474765E-1,3.495534420E0,6.809109688E0
2.396064293E1,3.854664862E-1,2.987963676E0,6.452373505E0
2.398066530E1,1.987187415E-1,2.346317768E0,5.442020416E0
2.400065052E1,-4.788403399E-3,1.798045516E0,4.886565685E0
2.402064220E1,-3.375824392E-1,1.474828243E0,5.085284233E0
2.404066004E1,-7.517793179E-1,1.074996591E0,5.734113216E0
2.406065203E1,-1.185129881E0,5.961562395E-1,6.605602264E0
2.408063825E1,-1.264138460E0,6.943184882E-2,7.651868820E0
2.410065909E1,-1.254561663E0,-1.412578970E-1,8.353369713E0
2.412064862E1,-1.268926859E0,2.202665508E-1,8.571242332E0
2.414066707E1,-1.637633920E0,9.265560508E-1,8.061277390E0
2.416065506E1,-2.360682964E0,1.984793186E0,7.374141216E0
2.418064459E1,-2.604891539E0,3.143586874E0,7.374141216E0
2.420066527E1,-2.772485495E0,3.742137194E0,7.999027729E0
2.422065349E1,-5.046977043E0,5.140350819E0,9.497797966E0
2.424064333E1,-5.951985359E0,6.124367714E0,1.041956615E1
2.426066186E1,-3.311181068E0,5.947196960E0,1.294305420E1
2.428065138E1,-2.853888512E0,5.738901615E0,1.767878532E1
2.430063968E1,-3.983951569E0,4.441244125E0,2.016875458E1
2.432065990E1,-5.552153587E0,3.335123062E0,1.877293587E1
2.434064974E1,-6.026205540E0,2.767697096E0,1.511698914E1
2.436066850E1,-4.745307922E0,2.657563925E0,1.269166279E1
2.438065687E1,-3.148375273E0,2.956839085E0,1.226310158E1
2.440064478E1,-3.100491285E0,2.868253708E0,1.180102062E1
2.442066701E1,-3.253720045E0,2.308010340E0,1.020408726E1
2.444065469E1,-3.100491285E0,1.821987510E0,8.147468567E0
2.446064514E1,-2.602497339E0,1.379060149E0,6.440402508E0
2.448066359E1,-3.136404276E0,1.391031146E0,5.686229229E0
2.450065497E1,-3.232172251E0,1.422155857E0,6.217741966E0
2.452064142E1,-2.422932148E0,1.400607944E0,7.038952827E0
2.454066102E1,-1.917755604E0,1.410184860E0,6.746860504E0
2.456064817E1,-1.853112102E0,1.620874524E0,5.556941986E0
2.458066785E1,-1.551442742E0,1.687912226E0,4.685452938E0
2.460065953E1,-1.091755986E0,1.599326730E0,4.220977783E0
2.462064660E1,-9.792284966E-1,1.537077546E0,4.860229492E0
2.464066751E1,-1.323993564E0,1.383848548E0,6.114790916E0
2.466065389E1,-1.702277422E0,1.168370485E0,6.564900875E0
2.468064403E1,-1.625662923E0,9.864110947E-1,5.284003258E0
2.470066256E1,-1.173158884E0,1.024718285E0,4.465186119E0
2.472065355E1,-1.185129881E0,1.838746905E0,5.343858242E0
2.474064092E1,-1.199495077E0,2.729389906E0,6.914454460E0
2.476066161E1,-9.864110947E-1,2.851494312E0,8.427590370E0
2.478064860E1,-1.862688899E0,2.770091295E0,1.084333992E1
2.480063997E1,-3.538630009E0,4.345476151E0,1.270602798E1
2.482065965E1,-2.815581083E0,5.975927353E0,1.030224991E1
2.484065011E1,9.816227108E-2,6.038176537E0,8.432378769E0
2.486066679E1,2.681505978E-1,4.065354347E0,1.242111874E1
2.488065716E1,-6.823474765E-1,1.575384736E0,1.780567741E1
2.490064677E1,-3.878606796E0,9.935936928E-1,1.752316284E1
2.492066607E1,-6.330269337E0,1.769315004E0,1.330936718E1
2.494065375E1,-5.336675644E0,3.177105665E0,8.736441612E0
2.496064297E1,-2.267308950E0,4.594472885E0,7.821856976E0
2.498066396E1,-2.106897533E-1,4.297592163E0,9.904812813E0
2.500065249E1,-7.422025204E-1,3.057395458E0,1.233971596E1
2.502064109E1,-1.496376038E0,2.367865562E0,1.238759995E1
2.504065924E1,-1.254561663E0,2.068590164E0,1.062067890E1
2.506065007E1,-5.386953950E-1,2.300827742E0,8.449137688E0
2.508064052E1,2.322375625E-1,2.892195702E0,6.782773495E0
2.510065836E1,3.806780577E-1,3.141192675E0,6.387730122E0
2.512064574E1,-2.154781520E-1,2.916137695E0,7.592013359E0
2.514067004E1,-8.403648138E-1,2.114080191E0,8.813055992E0
2.516065702E1,-9.169792533E-1,1.565807939E0,8.923190117E0
2.518064409E1,-7.805097699E-1,1.482010841E0,8.504204750E0
2.520066508E1,-1.101332754E-1,1.462857246E0,8.226476669E0
2.522065423E1,2.442085743E-1,1.383848548E0,8.384494781E0
2.524064352E1,2.082955539E-1,1.199495077E0,8.750806808E0
2.526066159E1,1.556231081E-1,9.289502501E-1,7.908048153E0
2.528065273E1,-2.202665508E-1,9.217676520E-1,6.962338448E0
2.530063911E1,-5.770025849E-1,9.935936928E-1,6.581660271E0
2.532065610E1,-9.002198577E-1,1.005564690E0,6.871358871E0
2.534064801E1,-1.345541358E0,1.007958889E0,7.271190643E0
2.536066685E1,-1.587355733E0,9.361328483E-1,7.280767441E0
2.538065815E1,-1.826775908E0,1.134851575E0,6.947973251E0
2.540064675E1,-3.004723072E0,1.987187386E0,7.881711960E0
2.542066682E1,-4.151545525E0,2.738966703E0,1.003888798E1
2.544065327E1,-4.046200752E0,3.567360640E0,1.011310768E1
2.546064403E1,-1.982398987E0,3.526659012E0,1.172440529E1
2.548066094E1,-7.398083210E-1,2.238578558E0,1.659421158E1
2.550065016E1,-2.729389966E-1,2.442085743E-1,1.923980522E1
2.552064062E1,-4.381389022E-1,-5.410895944E-1,1.740584564E1
2.554065968E1,-1.642422318E0,1.005564705E-1,1.373792934E1
2.556065221E1,-2.142810583E0,1.043871999E0,1.118331623E1
2.558063712E1,-1.510741234E0,1.719036818E0,1.217930412E1
2.560065711E1,-3.208230138E-1,1.613691926E0,1.354878712E1
2.562064603E1,4.812345505E-1,1.189918280E0,1.298854446E1
2.564066917E1,-3.064578176E-1,1.077390790E0,1.104924107E1
2.566065747E1,-1.553836942E0,1.163581967E0,9.246406555E0
2.568064230E1,-1.939303398E0,1.213860273E0,7.931990147E0
2.570066260E1,-1.900996208E0,1.388636947E0,7.592013359E0
2.572065275E1,-1.721431017E0,1.534683347E0,7.682993412E0
2.574064112E1,-1.565807939E0,1.647210717E0,7.716512203E0
2.576066073E1,-1.273715258E0,1.783680320E0,8.085219383E0
2.578065002E1,-1.175553083E0,1.963245392E0,8.516175270E0
2.580063948E1,-1.256955862E0,2.135627985E0,8.760383606E0
2.582065977E1,-1.268926859E0,1.855506301E0,8.286332130E0
2.584064907E1,-9.433154464E-1,1.434126854E0,7.711723804E0
2.586066506E1,-4.860229492E-1,1.465251446E0,7.082048416E0
2.588065882E1,-4.788403399E-3,1.742978811E0,6.502651691E0
2.590064773E1,5.482721925E-1,1.821987510E0,6.325480938E0
2.592066442E1,1.632845521E0,1.438915253E0,9.260771751E0
2.594065448E1,7.422025204E-1,1.359906554E0,7.977479935E0
2.596064501E1,-7.852981687E-1,1.431732655E0,8.128314972E0
2.598066462E1,-1.537077546E0,1.472434044E0,6.524199486E0
2.600065046E1,-1.903390408E0,1.917755604E0,6.727706909E0
2.602064221E1,-2.195482969E0,2.497152328E0,8.657433510E0
2.604065974E1,-1.367089152E0,2.863465309E0,1.052012253E1
2.606064858E1,-6.344634295E-1,2.937685490E0,1.194227791E1
2.608063818E1,2.085349798E0,2.410961151E0,1.360385418E1
2.610065779E1,5.006275654E0,3.505111217E0,1.567244434E1
2.612064678E1,4.996698856E0,3.931279182E0,1.627099419E1
2.614066462E1,2.784456491E0,3.248931646E0,1.580891418E1
2.616065591E1,9.504981041E-1,2.650381327E0,1.457829380E1
2.618064421E1,1.891419291E-1,3.016694069E0,1.010592556E1
2.620066451E1,1.951274395E0,4.153939724E0,8.190564156E0
2.622065127E1,1.908178806E0,6.986280441E0,8.638279915E0
2.624064210E1,1.403002143E0,8.054094315E0,9.710882187E0
2.626066179E1,1.484405100E-1,6.900089264E0,1.015620327E1
2.628065008E1,8.140285611E-1,5.300762653E0,9.157821655E0
2.630063808E1,1.623268723E0,4.395754337E0,7.931990147E0
2.632065922E1,1.003170490E0,3.816357613E0,8.633491516E0
2.634064759E1,-5.267243832E-2,3.476380825E0,9.765948296E0
2.636066843E1,-9.744400978E-1,3.359065056E0,7.948749542E0
2.638065680E1,-1.142034173E0,3.112462282E0,6.303933144E0
2.640064472E1,-7.254431248E-1,2.585737944E0,5.068524837E0
2.642066317E1,-8.643068075E-1,2.607285738E0,4.915296078E0
2.644065493E1,-1.156399369E0,2.554613113E0,4.771644115E0
2.646064315E1,-1.283292055E0,2.636016130E0,5.106832027E0
2.648066191E1,-1.278503656E0,3.162740469E0,5.130774021E0
2.650064905E1,-7.278373241E-1,3.086126089E0,5.944802761E0
2.652063789E1,-7.781155705E-1,3.315969467E0,6.718130112E0
2.654066257E1,-1.082179189E0,3.581725836E0,6.358999729E0
2.656064833E1,-1.702277422E0,3.981557369E0,5.908889771E0
2.658063786E1,-1.740584612E0,3.971980572E0,6.356605530E0
2.660065662E1,-1.692700624E0,3.940855980E0,7.129932880E0
2.662064676E1,-1.999158382E0,4.261679173E0,8.537723541E0
2.664066529E1,-1.199495077E0,4.759673119E0,9.461885452E0
2.666065444E1,-2.121262789E0,4.771644115E0,9.732429504E0
2.668064404E1,-4.944026470E0,5.846640587E0,1.019929886E1
2.670066395E1,-5.588066578E0,7.295132637E0,1.031182671E1
2.672065048E1,-3.201047659E0,7.709329605E0,1.085052204E1
2.674064086E1,-1.462857246E0,8.231265068E0,1.074038887E1
2.676066115E1,-2.873041928E-1,7.094019413E0,1.095347309E1
2.678064984E1,-2.480392933E0,4.965574265E0,1.223437023E1
2.680063875E1,-3.672705412E0,4.458003521E0,1.306994724E1
2.682065928E1,-3.100491285E0,4.632780075E0,1.280179691E1
2.684064919E1,-2.564189911E0,4.819528103E0,1.081700325E1
2.686066695E1,-2.729389906E0,4.350264549E0,8.774748802E0
2.688065679E1,-3.445256233E0,3.598485231E0,8.197746277E0
2.690064455E1,-4.465186119E0,2.796427488E0,8.240841866E0
2.692066261E1,-4.388571739E0,2.372653961E0,7.256825447E0
2.694065091E1,-3.430891037E0,2.999934673E0,6.050147533E0
2.696064175E1,-2.193088770E0,3.023876667E0,4.987122059E0
2.698066166E1,-2.600103140E0,3.411737442E0,4.965574265E0
2.700065273E1,-3.244143248E0,3.095702887E0,6.212953568E0
2.702063833E1,-3.660734415E0,3.110068083E0,7.994239330E0
2.704065886E1,-3.078943491E0,3.294421434E0,8.250418663E0
2.706064785E1,-1.690306425E0,3.725377798E0,7.278373241E0
2.708063823E1,-1.443703651E0,4.398148537E0,2.674323320E0
2.710065883E1,-3.620033026E0,4.539406300E0,1.140358257E1
2.712064805E1,-4.797980309E0,3.763684988E0,1.338119316E1
2.714066535E1,-5.324704647E0,3.418920040E0,9.674968719E0
2.715671038E1,-2.358288765E0,3.205836058E0,5.707777023E0
2.717673150E1,-1.788468719E0,4.046200752E0,6.521805286E0
2.719671947E1,-1.163581967E0,4.235342979E0,8.051700592E0
2.721671029E1,-1.010353088E0,3.823540211E0,9.967061996E0
2.723672810E1,-1.426944256E0,3.385401249E0,1.041477776E1
2.725671661E1,-3.172317266E0,4.029441357E0,1.072362900E1
2.727670950E1,-4.788403511E0,5.061342239E0,1.086488724E1
2.729672793E1,-4.101267338E0,5.003881454E0,1.035252857E1
2.731671413E1,-3.725377798E0,5.758055210E0,8.530540466E0
2.733673156E1,-1.570596337E0,6.883329868E0,9.416395187E0
2.735672453E1,1.077390760E-1,6.174646378E0,1.096065521E1
2.737671427E1,-1.213860273E0,4.082113743E0,1.551921558E1
2.739673247E1,-8.714894056E-1,2.006340981E0,1.465011978E1
2.741672044E1,-1.881842494E0,1.618480325E0,1.035013390E1
2.743671110E1,-3.481169224E0,3.169923067E0,7.745242596E0
2.745672830E1,-4.256890774E0,4.350264549E0,6.107608318E0
2.747671781E1,-3.744531393E0,4.280832767E0,5.173870087E0
2.749670863E1,-2.659958124E0,3.603273630E0,5.468356609E0
2.751672544E1,-1.187524080E0,2.940079689E0,6.849811077E0
2.753671564E1,-8.092401624E-1,2.274491549E0,8.731653214E0
2.755670692E1,-4.620809257E-1,1.948880196E0,9.873687744E0
2.757672473E1,1.053448766E-1,1.745373011E0,9.572018623E0
2.759671463E1,1.556231081E-1,1.843535304E0,8.492233276E0
2.761673421E1,-2.896983922E-1,2.269703150E0,7.453149796E0
2.763672410E1,-2.585737705E-1,2.829946518E0,6.758831501E0
2.765671046E1,-3.471592367E-1,3.189076662E0,7.038952827E0
2.767673012E1,-2.394201756E-1,2.789244890E0,7.951143742E0
2.769672332E1,-7.661445439E-2,2.047042370E0,9.050082207E0
2.771670829E1,-5.243301988E-1,1.604115129E0,1.007001209E1
2.773672818E1,-1.084573388E0,1.802833915E0,1.039562416E1
2.775671923E1,-1.051054597E0,2.126051188E0,1.044350815E1
2.777670750E1,-4.764461517E-1,2.482787132E0,1.059434223E1
2.779672563E1,-1.891419291E-1,2.829946518E0,1.019929886E1
2.781671398E1,-5.865794420E-1,2.669534922E0,9.375694275E0
2.783670410E1,-1.118092179E0,2.568978310E0,8.039729118E0
2.785672400E1,-1.244984865E0,2.786850691E0,8.951920509E0
2.787671174E1,-1.199495077E0,3.059789658E0,9.490615845E0
2.789673070E1,-2.035071403E-1,2.248155355E0,1.040998936E1
2.791671990E1,7.350199223E-1,1.125274822E-1,1.238759995E1
2.793670941E1,3.926490843E-1,-9.097966552E-1,1.238281155E1
2.795673007E1,-6.440402865E-1,-8.283938169E-1,1.203086376E1
2.797671797E1,-1.740584612E0,3.591302410E-2,1.131020927E1
2.799670809E1,-2.111685991E0,6.296750307E-1,1.044111347E1
2.801672721E1,-1.211466074E0,1.130063176E0,9.682151794E0
2.803671549E1,-6.248866320E-1,1.156399369E0,8.765172005E0
2.805670469E1,-3.280056417E-1,9.576807022E-1,8.635885239E0
2.807672466E1,-2.944868207E-1,6.751648784E-1,8.219294548E0
2.809671347E1,-7.565677166E-1,5.817909837E-1,8.013393402E0
2.811673352E1,-1.089361787E0,5.123591423E-1,8.530540466E0
2.813672080E1,-9.337386489E-1,3.854664862E-1,8.451532364E0
2.815671184E1,-9.696516991E-1,1.436520964E-1,8.358158112E0
2.817673158E1,-9.792284966E-1,-1.412578970E-1,8.712499619E0
2.819672017E1,-1.716642618E0,1.340752989E-1,9.167398453E0
2.821670775E1,-2.288856745E0,6.488286853E-1,9.742006302E0
2.823672834E1,-2.614468336E0,9.097966552E-1,9.291896820E0
2.825671792E1,-2.686294317E0,8.714894056E-1,1.031900978E1
2.827670489E1,-2.403778553E0,8.355764151E-1,1.086488724E1
2.829672709E1,-2.267308950E0,9.289502501E-1,1.338119316E1
2.831671621E1,-3.596091032E0,2.018311977E0,1.245703125E1
2.833670272E1,-2.712630510E0,1.549048543E0,1.323275280E1
2.835672169E1,-1.134851575E0,7.781155705E-1,1.277785492E1
2.837671189E1,-1.865083098E0,8.547300100E-1,1.242111874E1
2.839673155E1,-2.619256735E0,7.565677166E-1,1.211466026E1
2.841672014E1,-2.257732153E0,-3.351882473E-2,1.112824917E1
2.843670864E1,-5.793967843E-1,-7.876923680E-1,1.010113716E1
2.845672961E1,5.147533417E-1,-3.136404157E-1,9.785101891E0
2.847671904E1,1.280897856E0,9.289502501E-1,9.085995674E0
2.849670832E1,1.960851192E0,9.720458984E-1,1.094150162E1
2.851672644E1,1.053448766E-1,1.302445769E0,1.058716011E1
2.853671557E1,-3.495534360E-1,1.235408068E0,8.360552788E0
2.855670446E1,-1.235408068E0,2.049436569E0,7.656657219E0
2.857672350E1,-1.587355733E0,1.833958507E0,6.301538944E0
2.859671155E1,-7.805097699E-1,1.482010841E0,6.179434776E0
2.861673083E1,-4.429273009E-1,1.367089152E0,5.875370979E0
2.863672003E1,-6.105214357E-1,1.115697980E0,5.274426460E0
2.865671169E1,-8.044517636E-1,6.536170840E-1,5.118803024E0
2.867672927E1,-1.865083098E0,-2.178723514E-1,8.674192429E0
2.869671901E1,-2.319981337E0,-4.932055473E-1,9.713275909E0
2.871670944E1,-2.456450939E0,-1.987187415E-1,1.048181534E1
2.873672734E1,-2.434903145E0,-5.722141862E-1,9.895236015E0
2.875671469E1,-1.448492050E0,-1.170764685E0,9.220070839E0
2.877670474E1,-1.788468719E0,-1.237802267E0,8.101978302E0
2.879672355E1,-4.259284973E0,-9.217676520E-1,9.737217903E0
2.881671237E1,-6.299144745E0,-1.022324085E0,1.176271248E1
2.883673211E1,-7.005434036E0,-1.264138460E0,1.237802315E1
2.885671915E1,-6.897695065E0,-9.696516991E-1,1.174355888E1
2.887671135E1,-5.090072632E0,-5.506663918E-1,1.212902546E1
2.889672948E1,-2.643198729E0,-9.097966552E-1,1.286404610E1
2.891671683E1,-3.782838583E0,-6.991068721E-1,1.476983070E1
2.893670972E1,-6.260837555E0,4.548983276E-1,1.587116337E1
2.895673061E1,-4.544194698E0,-1.465251446E0,1.390552330E1
2.897671766E1,-2.315192938E0,-1.896207690E0,1.065898609E1
2.899670478E1,-1.367089152E0,-1.829170108E0,8.757989883E0
2.901672252E1,-4.118026793E-1,-1.470039845E0,7.857769966E0
2.903671488E1,-3.112462163E-1,-8.762778044E-1,6.880935669E0
2.905670069E1,-4.285621047E-1,-8.762778044E-1,5.750872612E0
2.907672028E1,-1.108515382E0,-8.834604025E-1,5.200206280E0
2.909671078E1,-1.831564307E0,-9.888052940E-1,4.201824188E0
2.911673191E1,-1.687912226E0,-1.146822572E0,4.402936935E0
2.913672057E1,-1.893813491E0,4.620809257E-1,4.577713490E0
2.915670754E1,-4.860229492E-1,1.460463047E0,5.906495571E0
2.917672912E1,5.003881454E-1,1.848323703E0,8.678980827E0
2.919671517E1,-6.320692301E-1,1.817199111E0,8.595184326E0
2.921670783E1,-1.213860273E0,1.441309452E0,8.724471092E0
2.923672626E1,-1.386242747E0,4.812345505E-1,9.040505409E0
2.925671569E1,-1.431732655E0,4.141969085E-1,8.762778282E0
2.927670551E1,-2.298433542E0,1.137245774E0,6.596025467E0
2.929672401E1,-2.446874142E0,1.529894829E0,6.102819920E0
2.931671291E1,-2.870647907E0,2.504334927E0,9.624691010E0
2.933670111E1,-5.913678408E-1,2.164358377E0,1.239717674E1
2.935672208E1,1.367089152E0,2.873041928E-1,1.476264763E1
2.937670905E1,-1.290474772E0,-2.315192938E0,1.759498787E1
2.939673032E1,-5.791574001E0,-4.491522312E0,1.979286575E1
2.941671891E1,-7.386112213E0,-4.939238071E0,1.612973595E1
2.943670434E1,-6.742072105E0,-3.533841610E0,1.138682365E1
2.945672769E1,-4.819528103E0,-9.361328483E-1,1.039322948E1
2.947671566E1,-1.649604917E0,3.567360640E-1,1.273475838E1
2.949670455E1,-6.344634295E-1,1.130063176E0,1.356075859E1
2.951672514E1,-7.254431248E-1,1.015141487E0,1.101811600E1
2.953671472E1,-9.074024558E-1,9.720458984E-1,8.192957878E0
2.955670115E1,-1.771709323E-1,1.094150186E0,5.544970989E0
2.957672258E1,1.436521020E-2,1.482010841E0,4.307168961E0
2.959671155E1,1.292868853E-1,1.584961534E0,4.458003521E0
2.961673021E1,1.244984865E-1,1.915361404E0,4.783615112E0
2.963672011E1,6.703764945E-2,2.109291792E0,4.113238335E0
2.965670715E1,-2.035071403E-1,2.138022184E0,3.213018656E0
2.967672989E1,-1.364694983E-1,1.874659896E0,3.495534420E0
2.969671725E1,-4.836287498E-1,2.224213362E0,4.762067318E0
2.971670514E1,-1.074996591E0,2.375048161E0,7.354987621E0
2.973672511E1,-1.127668977E0,1.592144132E0,1.015141487E1
2.975671400E1,-1.256955862E0,5.386953950E-1,1.318486881E1
2.977670228E1,-2.173935175E0,-1.675941236E-2,1.450886250E1
2.979672325E1,-2.149993181E0,3.591302633E-1,1.399650288E1
2.981671175E1,-1.393425345E0,1.450886250E0,1.258392429E1
2.983670034E1,-2.873042107E0,2.535459518E0,1.323514652E1
2.985672069E1,-3.141192675E0,2.741360903E0,1.462378407E1
2.987670951E1,-1.407790542E0,3.134010077E0,1.584722137E1
2.989672740E1,1.398213744E0,3.086126089E0,1.660378838E1
2.991671868E1,1.101332784E0,2.722207308E0,1.650323296E1
2.993670665E1,-4.812345505E-1,2.051830769E0,1.460463047E1
2.995672608E1,-1.132457376E0,1.498770237E0,1.145625496E1
2.997671466E1,4.764461517E-1,2.600103140E0,9.588777542E0
2.999670409E1,6.368576288E-1,1.891419291E0,5.542576790E0
3.001672629E1,-1.350329757E0,1.151610970E0,4.434061527E0
3.003671234E1,-2.190694571E0,1.563413739E0,5.932831764E0
3.005670339E1,-1.482010841E0,1.582567334E0,6.754043102E0
3.007672158E1,-5.386953950E-1,1.264138460E0,6.490680695E0
3.009670986E1,2.777273953E-1,1.297657371E0,5.063736439E0
3.011672791E1,5.865794420E-1,1.642422318E0,4.436455727E0
3.013671834E1,3.830722570E-1,1.987187386E0,4.228160381E0
3.015670723E1,2.250549644E-1,2.183511972E0,3.505111217E0
3.017672566E1,2.489969730E-1,1.453280449E0,4.199429989E0
3.019671455E1,1.467645645E0,4.716577232E-1,8.339004517E0
3.021670129E1,1.699883193E-1,1.187524080E0,1.024478912E1
3.023672565E1,-1.577778935E0,2.267308950E0,1.110430717E1
3.025671146E1,-1.470039845E0,2.099714994E0,1.010353088E1
3.027670128E1,-2.094926596E0,1.513135433E0,9.751583099E0
3.029672186E1,-3.902548790E0,1.968033791E0,1.164539719E1
3.031671198E1,-5.051765442E0,2.755726099E0,1.336682796E1
3.033670119E1,-4.893748283E0,3.330334663E0,1.241154194E1
3.035671862E1,-3.428496838E0,2.947262287E0,1.035971069E1
3.037670936E1,-3.699041605E0,1.953668594E0,1.280897903E1
3.039672871E1,-5.087678432E0,3.303998411E-1,1.607945824E1
3.041671491E1,-6.655880928E0,6.703764945E-2,1.524867058E1
3.043670595E1,-6.986280441E0,1.082179189E0,1.224873543E1
3.045672531E1,-5.341464043E0,2.042253971E0,9.390059471E0
3.047671474E1,-1.752555609E0,3.050212860E0,8.034940720E0
3.049670486E1,1.651999205E-1,3.883395195E0,7.438784599E0
3.051672306E1,4.979939461E-1,2.389413357E0,7.184999466E0
3.053670972E1,-1.209071875E0,1.795651317E0,7.161057472E0
3.055669900E1,-2.504334927E0,1.434126854E0,6.706159115E0
3.057672174E1,-8.092401624E-1,1.086967587E0,5.518634796E0
3.059670932E1,2.011129409E-1,1.446097851E0,5.317522049E0
3.061672991E1,7.158663273E-1,2.449268341E0,5.080495834E0
3.063671942E1,4.644751251E-1,2.415749550E0,5.260061264E0
3.065670585E1,-8.595184088E-1,1.733402014E0,7.094019413E0
3.067672466E1,-2.047042370E0,1.110909581E0,8.221688271E0
3.069671225E1,-2.499546528E0,8.188169599E-1,7.742848396E0
3.071670545E1,-2.978386879E0,9.337386489E-1,8.769960403E0
3.073672365E1,-3.031059265E0,9.911994934E-1,1.085770512E1
3.075671254E1,-2.700659513E0,4.788403511E-1,1.347456741E1
3.077670174E1,-2.324769735E0,2.753331959E-1,1.416170311E1
3.079672202E1,-1.431732655E0,1.316810995E-1,1.442506504E1
3.081670960E1,-2.281674147E0,4.070142806E-1,1.486799240E1
3.083670042E1,-3.715801001E0,1.211466074E0,1.373074722E1
3.085671939E1,-4.671087742E0,2.377442360E0,1.143710136E1
3.087670859E1,-4.900930882E0,3.189076662E0,9.701305389E0
3.089672771E1,-2.975992680E0,2.743755102E0,1.082179165E1
3.091671506E1,-9.983820915E-1,2.406172752E0,1.365892029E1
3.093670511E1,5.746084079E-2,2.214636564E0,1.442985344E1
3.095672508E1,5.506663769E-2,1.941697598E0,1.229422569E1
3.097671274E1,-3.423708379E-1,1.903390408E0,9.526528358E0
3.099670171E1,-7.350199223E-1,1.817199111E0,7.503427982E0
3.101672068E1,-9.744400978E-1,1.568202138E0,6.830657482E0
3.103671265E1,-1.127668977E0,1.297657371E0,6.663063526E0
3.105670031E1,-6.991068721E-1,1.146822572E0,6.449979305E0
3.107671751E1,-4.070142806E-1,1.280897856E0,5.870582581E0
3.109670956E1,-6.464344859E-1,1.604115129E0,5.968744755E0
3.111672853E1,-5.027823448E-1,1.680729628E0,6.581660271E0
3.113671834E1,8.140286058E-2,1.532289028E0,6.687005520E0
3.115670323E1,5.386953950E-1,1.651999116E0,6.763619900E0
3.117672412E1,7.182605267E-1,1.939303398E0,6.847416878E0
3.119671371E1,-8.044517636E-1,1.707065821E0,7.608773232E0
3.121670383E1,-1.304839969E0,1.369483352E0,7.706935406E0
3.123672226E1,-1.783680320E0,1.436521053E0,8.161833763E0
3.125671269E1,-1.991975784E0,2.430114746E0,8.020575523E0
3.127670097E1,-2.346317768E0,3.210624456E0,8.779537201E0
3.129671817E1,-2.513911724E0,3.074155092E0,1.195664310E1
3.131670822E1,-2.932897091E0,2.794033289E0,1.551442719E1
3.133669865E1,-3.220201254E0,3.562572241E0,1.513853741E1
3.135671685E1,-1.731007814E0,4.010287762E0,1.135569859E1
3.137670628E1,2.346317619E-1,2.983175278E0,9.840168953E0
3.139672748E1,2.657563984E-1,1.175553083E0,1.333330917E1
3.141671553E1,-1.426944256E0,4.692635238E-1,1.543541813E1
3.143670626E1,-3.210624456E0,1.065419793E0,1.349132633E1
3.145672254E1,-3.440467834E0,2.308010340E0,9.399636269E0
3.147671413E1,-2.729389906E0,3.095702887E0,7.012616634E0
3.149670240E1,-1.338358760E0,2.528276920E0,8.535328865E0
3.151672153E1,-1.266532660E0,1.958456993E0,1.179144382E1
3.153670942E1,-1.802833915E0,1.608903527E0,1.323035812E1
3.155670016E1,-1.865083098E0,1.084573388E0,1.124556541E1
3.157672051E1,-1.335964561E0,9.672574997E-1,7.790732384E0
3.159670871E1,-7.422025204E-1,1.359906554E0,5.078101635E0
3.161672745E1,-7.900865376E-2,1.628057122E0,4.515464306E0
3.163671334E1,4.788403511E-1,1.651999116E0,5.774814606E0
3.165670439E1,1.484405100E-1,1.687912226E0,7.125144482E0
3.167672490E1,-4.165911078E-1,1.319205165E0,7.422025204E0
3.169671294E1,-6.296750307E-1,1.043871999E0,6.691793919E0
3.171670360E1,-7.613561153E-1,1.240196466E0,6.009446144E0
3.173672234E1,-9.169792533E-1,1.690306425E0,5.863399982E0
3.175671123E1,-9.289502501E-1,1.980004787E0,6.038176537E0
3.177669982E1,-4.860229492E-1,1.862688899E0,7.343016624E0
3.179671956E1,-1.675941199E-1,1.793257117E0,9.129091263E0
3.181670999E1,-1.350329757E0,2.375048161E0,1.016578007E1
3.183669857E1,-2.669534922E0,3.181894064E0,1.083855152E1
3.185671454E1,-3.177105665E0,3.502717018E0,1.115697956E1
3.187670528E1,-2.580949545E0,3.849876404E0,1.182496262E1
3.189672771E1,-3.543418646E-1,3.780444384E0,1.340513515E1
3.191671476E1,5.602431893E-1,3.385401249E0,1.555512810E1
3.193670542E1,-2.226607651E-1,2.609679937E0,1.685278511E1
3.195672393E1,-1.594538331E0,2.188300371E0,1.475067711E1
3.197671251E1,-2.130839586E0,2.205059767E0,1.120965195E1
3.199670225E1,-1.386242747E0,2.319981337E0,8.927978516E0
3.201671768E1,-2.849099934E-1,2.339135170E0,8.815450668E0
3.203670934E1,-3.447650373E-1,2.176329374E0,9.763554573E0
3.205669847E1,-1.271321058E0,1.704671621E0,9.332598686E0
3.207671543E1,-2.281674147E0,1.254561663E0,7.778761387E0
3.209670856E1,-2.779668093E0,1.211466074E0,6.210559368E0
3.211663591E1,-2.770091295E0,1.501164436E0,5.307945251E0
3.213674765E1,-2.085349798E0,1.862688899E0,4.663905144E0
3.215670570E1,-1.295263171E0,1.984793186E0,4.812345505E0
3.217672513E1,-9.840168953E-1,1.920149803E0,6.943184853E0
3.219671310E1,-1.237802267E0,1.561019540E0,8.240841866E0
3.221670291E1,-1.905784607E0,1.510741234E0,7.886500359E0
3.223672227E1,-2.583343744E0,1.505952835E0,7.491456985E0
3.225670739E1,-2.449268341E0,1.213860273E0,8.892065048E0
3.227669820E1,-1.484405041E0,6.775590777E-1,1.113543224E1
3.229671564E1,-1.086967587E0,6.105214357E-1,1.196621990E1
3.231670737E1,-1.359906554E0,8.523358107E-1,1.224155331E1
3.233669750E1,-2.659958124E0,1.211466074E0,1.290235329E1
3.235671746E1,-3.596091032E0,3.383007050E0,1.217451572E1
3.237670636E1,-2.114080191E0,5.070919037E0,1.010113716E1
3.239672540E1,1.520318031E0,2.609679937E0,1.015380955E1
3.241671576E1,1.065419793E0,1.201889277E0,1.385524559E1
3.243670227E1,-7.015010715E-1,3.902548850E-1,1.588074017E1
3.245672400E1,-3.100491285E0,7.613561153E-1,1.427662468E1
3.247671105E1,-3.715801001E0,1.781286120E0,1.038604736E1
3.249670064E1,-2.748543501E0,2.782062292E0,7.539340973E0
3.251671960E1,-1.089361787E0,2.650381327E0,6.746860504E0
3.253670857E1,-9.361328483E-1,1.932120800E0,9.442731857E0
3.255669900E1,-1.695094824E0,1.553836942E0,1.233013916E1
3.257671767E1,-2.279279947E0,1.484405041E0,1.164300251E1
3.259670694E1,-1.651999116E0,1.663970232E0,9.220070839E0
3.261672530E1,-1.795651317E-1,1.872265697E0,6.907271862E0
3.263671488E1,7.996633649E-1,2.169146776E0,5.312733650E0
3.265670400E1,2.250549644E-1,2.489969730E0,5.434837818E0
3.267672428E1,-6.679822803E-1,2.169146776E0,6.251260757E0
3.269671233E1,-1.130063176E0,1.637633920E0,6.730101109E0
3.271670145E1,-1.316810966E0,1.345541358E0,6.397306919E0
3.273671958E1,-1.352723956E0,1.453280449E0,5.889736176E0
3.275671031E1,-1.036689281E0,1.656787634E0,6.344634533E0
3.277669805E1,-1.352723956E0,1.817199111E0,7.862558365E0
3.279671856E1,-1.211466074E0,1.618480325E0,8.580819130E0
3.281670899E1,-8.427590132E-1,1.338358760E0,8.688557625E0
3.283669488E1,-9.624691010E-1,1.707065821E0,8.695740700E0
3.285671816E1,-1.549048543E0,2.516305923E0,8.836998940E0
3.287670590E1,-1.714248419E0,3.035847664E0,9.162610054E0
3.289672487E1,-1.719036818E0,3.445256233E0,1.117134476E1
3.291671222E1,-1.920149803E0,3.957615376E0,1.268926907E1
3.293670242E1,-9.576807022E-1,4.429273129E0,1.293347740E1
3.295672178E1,4.022258818E-1,4.398148537E0,1.264377880E1
3.297671036E1,3.423708379E-1,3.521870613E0,1.450646782E1
3.299669917E1,-6.057330370E-1,2.614468336E0,1.579694271E1
3.301671984E1,-1.307234168E0,2.025494576E0,1.432450867E1
3.303670904E1,-1.630451322E0,1.721431017E0,1.135569859E1
3.305669785E1,-1.984793186E0,1.953668594E0,9.536105156E0
3.307671690E1,-1.932120800E0,2.284068346E0,9.394847870E0
3.309670587E1,-1.146822572E0,2.054224968E0,9.856928825E0
3.311672738E1,-6.129156351E-1,1.288080573E0,9.555258751E0
3.313671496E1,-4.213795066E-1,4.596867263E-1,7.776367188E0
3.315670354E1,-8.858546615E-2,4.070143029E-2,6.090848923E0
3.317672320E1,1.867477298E-1,4.309563041E-1,6.363788128E0
3.319671310E1,3.280056417E-1,1.098938584E0,6.086060524E0
3.321670076E1,6.009446383E-1,1.300051570E0,5.497087002E0
3.323671973E1,2.114080191E0,5.937620401E-1,5.422866821E0
3.325670831E1,1.053448796E0,1.493981838E0,5.384559631E0
3.327669759E1,6.009446383E-1,3.464409828E0,5.164293289E0
3.329671810E1,-9.121908545E-1,4.134786129E0,5.659893036E0
3.331670491E1,-2.851494312E0,5.046977043E0,6.751648903E0
3.333672634E1,-3.488351822E0,4.778826714E0,7.235277653E0
3.335671439E1,-1.944091797E0,3.622427225E0,9.042900085E0
3.337670236E1,-5.746084079E-2,3.066972494E0,1.211705494E1
3.339672164E1,1.211466074E0,1.898601890E0,1.522472858E1
3.341671299E1,1.012747288E0,3.890577793E0,1.487756920E1
3.343670227E1,-2.346317619E-1,8.391676903E0,1.307234097E1
3.345671701E1,1.601720929E0,7.390900612E0,1.377144814E1
3.347670736E1,2.049436569E0,5.013458252E0,1.298614979E1
3.349669695E1,2.082955539E-1,4.230554581E0,1.529176617E1
3.351671868E1,-6.009446383E-1,3.825934410E0,1.194467258E1
3.353670511E1,-1.570596337E0,4.419696331E0,9.059659004E0
3.355669378E1,-2.142810583E0,5.413290024E0,7.613561630E0
3.357671559E1,-1.824381709E0,4.821922302E0,8.602366447E0
3.359670541E1,-1.898601890E0,3.445256233E0,1.052491093E1
3.361672445E1,-2.880224705E0,2.834734917E0,9.911994934E0
3.363671204E1,-3.213018656E0,2.918531895E0,8.343792915E0
3.365670247E1,-2.111685991E0,3.126827478E0,6.452373505E0
3.367672151E1,-1.221042871E-1,3.404554844E0,5.736507416E0
3.369671071E1,1.110909581E0,3.677493811E0,5.571307182E0
3.371669845E1,4.070143029E-2,3.837905407E0,5.700594425E0
3.373671681E1,-1.383848548E0,3.555389643E0,6.239289761E0
3.375670570E1,-1.987187386E0,3.380612850E0,6.160281181E0
3.377669805E1,-2.468421936E0,3.629609823E0,6.052541733E0
3.379671495E1,-1.946485996E0,3.665522814E0,7.331045628E0
3.381670684E1,-1.410184860E0,3.588908434E0,8.927978516E0
3.383669665E1,-1.266532660E0,3.359065056E0,9.485827446E0
3.385671547E1,-1.568202138E0,3.344699860E0,9.514557838E0
3.387670244E1,-1.668758631E0,3.390189648E0,9.004592896E0
3.389672056E1,-1.635239720E0,3.272873640E0,9.253589630E0
3.391671168E1,-2.118868589E0,3.236960649E0,1.055842972E1
3.393670204E1,-2.571372509E0,3.825934410E0,1.190875912E1
3.395671955E1,-2.310404539E0,4.395754337E0,1.148977375E1
3.397670821E1,-2.542642117E0,5.137956619E0,9.967061996E0
3.399670048E1,-2.729389906E0,5.583278179E0,8.542511940E0
3.401671884E1,-2.319981337E0,5.528211594E0,9.947908401E0
3.403670712E1,-2.647987127E0,5.286397457E0,1.413057804E1
3.405669824E1,-2.085349798E0,4.065354347E0,1.542105293E1
3.407671482E1,-1.276109457E0,3.418920040E0,1.261265469E1
3.409670456E1,-7.254431248E-1,3.878606796E0,9.141061783E0
3.411672369E1,-3.758896589E-1,3.708618402E0,6.715735912E0
3.413671350E1,-9.648633003E-1,3.488351822E0,6.799532890E0
3.415670139E1,-1.721431017E0,3.272873640E0,8.018181801E0
3.417672236E1,-2.214636564E0,2.863465309E0,7.915230751E0
3.419671025E1,-2.126051188E0,2.200271368E0,6.490680695E0
3.421669892E1,-3.366247654E0,2.894589901E0,5.638344765E0
3.423672104E1,-3.383007050E0,3.550601006E0,5.793968201E0
3.425670901E1,-2.537853718E0,4.185064793E0,6.813898087E0
3.427669698E1,-1.810016513E0,4.484339714E0,8.015787125E0
3.429671387E1,-1.170764685E0,4.244919777E0,8.154650688E0
3.431670638E1,-1.891419291E0,4.386177540E0,8.482656479E0
3.433669442E1,-2.327163935E0,4.163516521E0,9.339780807E0
3.435671308E1,-2.442085743E0,3.732560396E0,9.629479408E0
3.437670444E1,-3.081337690E0,3.744531393E0,7.551311970E0
3.439672233E1,-3.028665066E0,3.670311213E0,1.167412758E1
3.441671092E1,-2.439691544E0,3.129221678E0,1.205719948E1
3.443670042E1,-2.810792685E0,3.201047659E0,8.207323074E0
3.445975561E1,-1.561019540E0,2.245761156E0,6.303933144E0
3.447977592E1,-9.241618514E-1,1.821987510E0,6.155492783E0
3.449976576E1,-7.565677166E-1,1.915361404E0,6.232107162E0
3.451978598E1,-3.711012602E-1,1.879448295E0,6.258443356E0
3.453977560E1,-3.160346150E-1,2.023100376E0,5.736507416E0
3.455976290E1,-8.475474119E-1,2.415749550E0,5.444414616E0
3.457978228E1,-1.256955862E0,2.937685490E0,5.954379559E0
3.459976843E1,-1.462857246E0,3.122039080E0,7.189787865E0
3.461975950E1,-2.092532396E0,3.438073635E0,9.200917244E0
3.463977672E1,-3.210624456E0,4.007893562E0,1.163821411E1
3.465976880E1,-3.354276657E0,4.022258759E0,1.356315231E1
3.467975895E1,-2.489969730E0,3.253720045E0,1.442506504E1
3.469977856E1,-2.279279947E0,2.935291290E0,1.391510010E1
3.471976632E1,-1.960851192E0,3.155557871E0,1.393185997E1
3.473975585E1,-8.403648138E-1,2.334346771E0,1.425268269E1
3.475977216E1,-1.237802267E0,1.221042871E0,1.500925064E1
3.477976069E1,-2.384624958E0,4.620809257E-1,1.388876438E1
3.479978015E1,-3.725377798E0,8.451532125E-1,1.173877048E1
3.481977268E1,-4.031835556E0,1.690306425E0,9.500192642E0
3.483976129E1,-2.561795712E0,2.329558372E0,8.769960403E0
3.485977975E1,-3.782838583E-1,2.674323320E0,8.741230011E0
3.487976867E1,2.968810201E-1,2.276885748E0,8.525752068E0
3.489975882E1,-1.077390790E0,1.872265697E0,7.924807549E0
3.491977735E1,-2.803610086E0,1.874659896E0,7.541735172E0
3.493976873E1,-3.181894064E0,2.118868589E0,7.354987621E0
3.495975673E1,-2.161964178E0,1.807622313E0,7.498639584E0
3.497977695E1,-1.297657371E0,1.546654344E0,8.415618896E0
3.499976472E1,-9.792284966E-1,1.477222443E0,8.743624687E0
3.501978494E1,-1.125274777E0,1.106121182E0,8.329427719E0
3.503977263E1,-2.094926596E0,9.313444495E-1,7.592013359E0
3.505976255E1,-2.784456491E0,7.589619160E-1,7.144298077E0
3.507978093E1,-2.712630510E0,7.469909191E-1,6.382941723E0
3.509977077E1,-2.303221941E0,8.236053586E-1,6.909666061E0
3.511976061E1,-1.915361404E0,8.667010069E-1,6.835445881E0
3.513977907E1,-1.546654344E0,8.451532125E-1,7.319074631E0
3.515976868E1,-1.491587639E0,6.464344859E-1,7.599195957E0
3.517975782E1,-1.905784607E0,6.440402865E-1,8.066065788E0
3.519977636E1,-2.229001760E0,4.141969085E-1,8.255207062E0
3.521976528E1,-2.691082716E0,-2.011129409E-1,1.030703831E1
3.523975358E1,-3.576937437E0,-9.385270476E-1,1.231577396E1
3.525977411E1,-5.422866821E0,-1.240196466E0,1.367807388E1
3.527976549E1,-6.476315498E0,-9.552865028E-1,1.318965721E1
3.529978341E1,-5.999869347E0,-2.681505978E-1,1.200213337E1
3.531977079E1,-5.298368454E0,1.867477298E-1,1.221521664E1
3.533976002E1,-4.412513733E0,9.121908545E-1,1.403959846E1
3.535978063E1,-3.289633036E0,3.543418646E-1,1.537316895E1
3.537976793E1,-2.942473888E0,-2.466027737E-1,1.416170311E1
3.539975777E1,-3.236960649E0,-1.532289088E-1,1.124077702E1
3.541977900E1,-3.263296843E0,3.495534360E-1,8.719682693E0
3.543976822E1,-2.537853718E0,6.153098345E-1,6.813898087E0
3.545975568E1,-2.425326347E0,1.007958889E0,5.997475147E0
3.547977683E1,-1.731007814E0,1.027112484E0,6.361393929E0
3.549976459E1,-8.355764151E-1,6.991068721E-1,6.916848660E0
3.551978367E1,-1.096544385E0,6.536170840E-1,6.991068840E0
3.553977282E1,-2.387019157E0,3.040636182E-1,7.060500622E0
3.555976266E1,-2.813186884E0,-9.313444495E-1,7.752425194E0
3.557978273E1,-3.373430252E0,-2.085349798E0,7.850587368E0
3.559977134E1,-3.940855980E0,-2.892195702E0,8.298302650E0
3.561975749E1,-4.551377296E0,-3.442862034E0,8.781931877E0
3.563977625E1,-5.140350819E0,-3.787626982E0,9.267954826E0
3.565976886E1,-5.027823448E0,-3.761290789E0,9.998186111E0
3.567975617E1,-4.948814869E0,-3.840299606E0,1.041717148E1
3.569977532E1,-3.871424198E0,-4.469974518E0,1.028309631E1
3.571976454E1,-3.651157618E0,-4.127603531E0,9.540893555E0
3.573975284E1,-4.584896088E0,-3.244143248E0,8.681375504E0
3.575977530E1,-4.807557106E0,-2.396595955E0,8.097189903E0
3.577976483E1,-4.230554581E0,-1.889025092E0,6.687005520E0
3.579978291E1,-4.321534157E0,-1.661576033E0,7.635109425E0
3.581977221E1,-5.360617638E0,-9.672574997E-1,7.158663273E0
3.583976082E1,-6.347028732E0,-8.140285611E-1,7.776367188E0
3.585977982E1,-7.096413612E0,-8.188169599E-1,6.722918510E0
3.587976843E1,-6.445190907E0,5.793967843E-1,5.161899090E0
3.589975711E1,-7.699752808E0,1.889025092E0,7.618350029E0
3.591977896E1,-4.393360138E0,4.189853072E-1,9.579200745E0
3.593976757E1,-1.795651317E0,-1.786074519E0,1.047942066E1
3.595975395E1,-4.292803764E0,-3.083731890E0,1.060870743E1
3.597977548E1,-7.424419403E0,-2.430114746E0,1.330457878E1
3.599976540E1,-6.342240334E0,-3.485957623E0,1.411142445E1
3.601978347E1,-3.902548790E0,-3.033453465E0,1.054885292E1
3.603977308E1,-2.130839586E0,-2.489969730E-1,7.450755596E0
3.605976254E1,-4.692635238E-1,1.424550056E0,9.900024414E0
3.607977984E1,-6.129156351E-1,1.833958507E0,1.282334423E1
3.609977083E1,-1.199495077E0,1.307234168E0,1.167891598E1
3.611975737E1,-2.059013367E0,2.873041928E-1,8.700529099E0
3.613977944E1,-3.047818661E0,2.202665508E-1,7.939172745E0
3.615976844E1,-3.205836058E0,6.105214357E-1,8.456320763E0
3.617975666E1,-3.019088268E0,1.022324085E0,8.367734909E0
3.619977543E1,-2.870647907E0,1.482010841E0,7.572859764E0
3.621976750E1,-2.370259762E0,1.939303398E0,6.165069580E0
3.623975580E1,-2.322375536E0,1.738190413E0,5.355829239E0
3.625977295E1,-2.959233284E0,1.762132406E0,5.039794445E0
3.627976187E1,-2.870647907E0,1.091755986E0,5.995080948E0
3.629978317E1,-2.693476915E0,5.602431893E-1,7.599195957E0
3.631977232E1,-3.440467834E0,2.585737705E-1,8.137891769E0
3.633976039E1,-3.945644379E0,-8.858546615E-2,7.872135162E0
3.635977946E1,-4.115632534E0,-1.723825186E-1,7.070077419E0
3.637976961E1,-3.581725836E0,-1.340752989E-1,7.242460251E0
3.639975907E1,-3.074155092E0,1.029506698E-1,7.955932140E0
3.641977637E1,-2.798821688E0,6.344634295E-1,9.452308655E0
3.643976798E1,-2.997540474E0,8.283938169E-1,1.112585545E1
3.645975659E1,-2.482787132E0,5.363011956E-1,1.096304989E1
3.647977513E1,-2.020706177E0,4.788403511E-1,9.710882187E0
3.649976497E1,-3.177105665E0,1.290474772E0,9.909601212E0
3.651975327E1,-4.338293552E0,1.862688899E0,1.047942066E1
3.653977234E1,-5.109226227E0,2.384624958E0,1.016817474E1
3.655976219E1,-4.149151325E0,2.715024710E0,8.710105896E0
3.657978118E1,-1.886630893E0,2.130839586E0,9.981427193E0
3.659977110E1,-3.622427225E0,1.209071875E0,1.442027664E1
3.661975848E1,-5.698200226E0,-5.650315881E-1,1.716163826E1
3.663977940E1,-6.866570473E0,-1.412579060E0,1.534922695E1
3.665976701E1,-6.325480938E0,-1.295263171E0,1.094150162E1
3.667975531E1,-4.807557106E0,-4.477157295E-1,7.795520782E0
3.669977538E1,-3.679888010E0,7.661445141E-1,6.950367451E0
3.671976607E1,-3.026270866E0,1.414973259E0,7.050923824E0
3.673975499E1,-3.335123062E0,1.654393315E0,6.730101109E0
3.675977106E1,-3.749319792E0,1.601720929E0,5.949591160E0
3.677976090E1,-4.273650169E0,1.723825216E0,5.595249176E0
3.679978244E1,-4.541800499E0,1.862688899E0,6.126761913E0
3.681977104E1,-4.209006786E0,2.032677174E0,7.558494568E0
3.683976120E1,-4.007893562E0,2.281674147E0,8.710105896E0
3.685977958E1,-3.660734415E0,2.432508945E0,8.769960403E0
3.687977011E1,-3.744531393E0,2.413355350E0,8.310274124E0
3.689975710E1,-3.945644379E0,2.066195965E0,8.379706383E0
3.691977525E1,-4.350264549E0,1.436521053E0,9.603142738E0
3.693976825E1,-4.747702122E0,6.177040339E-1,1.071165848E1
3.695975617E1,-5.221754074E0,1.053448766E-1,1.076911926E1
3.697977470E1,-4.953603268E0,-2.250549644E-1,9.878476143E0
3.699976546E1,-4.161122322E0,-3.280056417E-1,8.415618896E0
3.701978200E1,-3.354276657E0,-8.379705995E-2,6.821080685E0
3.703977253E1,-2.784456491E0,5.602431893E-1,5.542576790E0
3.705976176E1,-2.523488522E0,1.213860273E0,4.594472885E0
3.707977929E1,-2.521094322E0,1.956062794E0,4.735731125E0
3.709977252E1,-2.825158119E0,2.568978310E0,5.276820660E0
3.711975920E1,-3.450044632E0,3.047818661E0,7.034164429E0
3.713977674E1,-3.919308186E0,2.853888512E0,8.990227699E0
3.715976696E1,-3.859453201E0,2.001552582E0,9.789890289E0
3.717975711E1,-3.687070608E0,1.561019540E0,9.562441826E0
3.719977680E1,-3.689464808E0,1.568202138E0,8.942343712E0
3.721976503E1,-3.292027235E0,2.039859772E0,8.705317497E0
3.723975364E1,-3.720589399E0,3.059789658E0,8.829815865E0
3.725977425E1,-4.826710701E0,4.276044369E0,8.640673637E0
3.727976324E1,-4.283226967E0,5.456385612E0,8.214506149E0
3.729978224E1,-2.466027737E-1,4.807557106E0,1.022802925E1
3.731977123E1,1.340752989E-1,3.057395458E0,1.471715832E1
3.733975954E1,-1.335964561E0,-6.009446383E-1,1.730529022E1
3.735978045E1,-3.473986626E0,-3.083731890E0,1.584003830E1
3.737976814E1,-4.285621166E0,-3.569754839E0,1.300051498E1
3.739975698E1,-4.802768707E0,-1.821987510E0,1.152808094E1
3.741977852E1,-5.133168221E0,5.554547906E-1,1.173158836E1
3.743976382E1,-4.364629745E0,1.742978811E0,1.132217979E1
3.745975635E1,-3.066972494E0,1.798045516E0,1.005804157E1
3.747977327E1,-2.810792685E0,1.714248419E0,9.016563416E0
3.749976434E1,-3.490746021E0,1.989581585E0,8.702922821E0
3.751978280E1,-3.143586874E0,1.960851192E0,8.552088737E0
3.753977387E1,-1.719036818E0,1.683123827E0,7.623138428E0
3.755976187E1,-8.547300100E-1,1.881842494E0,6.921637058E0
3.757978163E1,-7.829039693E-1,2.020706177E0,7.139509678E0
3.759976678E1,-1.948880196E0,2.061407566E0,7.141903877E0
3.761975755E1,-2.861071110E0,1.711854219E0,6.816292286E0
3.763977816E1,-2.580949545E0,9.792284966E-1,6.991068840E0
3.765976738E1,-2.343923569E0,5.578489900E-1,7.615955830E0
3.767975876E1,-2.415749550E0,6.560112834E-1,8.104372978E0
3.769977722E1,-2.628833532E0,8.259995580E-1,7.821856976E0
3.771976744E1,-2.664746523E0,9.433154464E-1,7.347805023E0
3.773975598E1,-2.777273893E0,1.067813993E0,7.307103634E0
3.775977482E1,-2.908955097E0,1.084573388E0,7.867346764E0
3.777976374E1,-2.695871115E0,1.084573388E0,8.391676903E0
3.779977973E1,-2.413355350E0,1.244984865E0,8.497021675E0
3.781977257E1,-2.094926596E0,1.589749932E0,8.796297073E0
3.783976126E1,-2.068590164E0,1.821987510E0,8.923190117E0
3.785977995E1,-2.384624958E0,2.061407566E0,9.330204010E0
3.787977010E1,-2.707842112E0,2.061407566E0,9.653421402E0
3.789975756E1,-3.031059265E0,2.183511972E0,9.739612579E0
3.791977817E1,-3.263296843E0,2.928108692E0,9.330204010E0
3.793976831E1,-2.975992680E0,4.067748547E0,7.965508938E0
3.795975600E1,-3.351882473E-2,4.539406300E0,7.606379032E0
3.797977654E1,1.343147159E0,4.824316502E0,9.995792389E0
3.799976422E1,-1.963245422E-1,3.454833031E0,1.370680428E1
3.801978276E1,-2.264914751E0,1.565807939E0,1.408987713E1
3.803977291E1,-4.369418144E0,8.738836050E-1,1.242590714E1
3.805975936E1,-4.996698856E0,8.667010069E-1,1.141555405E1
3.807978113E1,-4.405331135E0,1.197100878E0,1.221761131E1
3.809976828E1,-3.754108191E0,1.508347034E0,1.262462521E1
3.811975966E1,-3.394978046E0,1.249773264E0,1.101332760E1
3.813977650E1,-3.529053211E0,1.094150186E0,8.729259491E0
3.815976857E1,1.132457376E0,4.632780075E0,6.840234280E0
3.817975464E1,-3.347094059E0,1.422155857E0,5.712565422E0
3.819977494E1,-2.463633537E0,2.054224968E0,5.894524574E0
3.821976486E1,-2.085349798E0,2.774879694E0,6.342240334E0
3.823978732E1,-1.501164436E0,3.191470861E0,6.591237068E0
3.825977247E1,-1.575384736E0,3.423708439E0,6.411672115E0
3.827976354E1,-2.054224968E0,3.371036053E0,6.706159115E0
3.829978138E1,-2.288856745E0,3.239354849E0,7.738059998E0
3.831977184E1,-1.728613615E0,3.124433279E0,8.963891029E0
3.833975930E1,-8.738836050E-1,2.870647907E0,1.035731697E1
3.835977837E1,-7.254431248E-1,2.351106167E0,1.118570995E1
3.837976790E1,-1.611297727E0,1.570596337E0,1.110191345E1
3.839975559E1,-2.317587137E0,8.858546019E-1,9.840168953E0
3.841977581E1,-2.121262789E0,6.440402865E-1,7.414842606E0
3.843976543E1,-1.786074519E0,1.194706678E0,5.616796970E0
3.845975496E1,-1.956062794E0,1.893813491E0,5.789179802E0
3.847977434E1,-2.439691544E0,2.353500366E0,6.742072105E0
3.849976103E1,-3.500322819E0,2.504334927E0,7.469909191E0
3.851978471E1,-4.790797710E0,2.343923569E0,8.434772491E0
3.853977217E1,-5.133168221E0,2.135627985E0,9.512163162E0
3.855976047E1,-5.011064053E0,2.245761156E0,1.044829655E1
3.857977954E1,-4.944026470E0,2.279279947E0,1.096065521E1
3.859976908E1,-5.549759388E0,3.126827478E0,1.000776291E1
3.861975946E1,-4.927267075E0,4.493916512E0,9.430760384E0
3.863977668E1,-2.899378300E0,4.556165695E0,1.157357121E1
3.865976630E1,-3.179499865E0,2.621650934E0,1.540189934E1
3.867975675E1,-4.944026470E0,9.457096457E-1,1.613691902E1
3.869977575E1,-6.016628742E0,8.331822157E-1,1.268448067E1
3.871976505E1,-5.169081688E0,2.133233786E0,9.052476883E0
3.873975489E1,-3.047818661E0,3.493140221E0,8.197746277E0
3.875977304E1,-1.326387763E0,3.986345768E0,9.722852707E0
3.877976311E1,-2.013523579E0,3.675099611E0,1.147301483E1
3.879978318E1,-3.445256233E0,2.602497339E0,1.153047562E1
3.881976833E1,-3.938461781E0,1.843535304E0,1.003170490E1
3.883975671E1,-3.157952070E0,1.568202138E0,8.331821442E0
3.885977917E1,-1.860294700E0,1.814804912E0,7.177816868E0
3.887976747E1,-9.959878922E-1,2.444479942E0,6.488286495E0
3.889975816E1,-4.644751251E-1,2.882618904E0,5.779603004E0
3.891977692E1,-6.200982332E-1,3.155557871E0,5.386953831E0
3.893976715E1,-9.265560508E-1,3.169923067E0,5.588066578E0
3.895975476E1,-9.337386489E-1,2.892195702E0,6.550535679E0
3.897977568E1,-1.168370485E0,2.439691544E0,7.972691536E0
3.899976406E1,-1.414973259E0,1.836352706E0,9.210494041E0
3.901978159E1,-1.774103403E0,1.352723956E0,9.054870605E0
3.903977236E1,-1.810016513E0,1.223437071E0,8.106766701E0
3.905975789E1,-1.340752959E0,1.537077546E0,7.223306656E0
3.907977904E1,-6.631938815E-1,1.951274395E0,8.025363922E0
3.909977080E1,-1.675941236E-2,1.848323703E0,9.919178009E0
3.911975965E1,2.681505978E-1,1.661576033E0,9.957485199E0
3.913977849E1,3.902548850E-1,1.520318031E0,7.931990147E0
3.915976733E1,1.108515382E0,1.900996208E0,6.512228489E0
3.917975656E1,-4.309562966E-2,3.229778051E0,7.886500359E0
3.919977540E1,-2.240972757E0,4.608838081E0,1.020169353E1
3.921976424E1,-3.337517262E0,4.975151062E0,1.087207031E1
3.923975385E1,-2.480392933E0,4.984727859E0,1.043632507E1
3.925977407E1,-2.394201756E-1,4.766855717E0,9.768342972E0
3.927976122E1,1.757344007E0,3.983951569E0,1.052491093E1
3.929978145E1,1.359906554E0,2.782062292E0,1.280897903E1
3.931977137E1,-8.930372596E-1,2.020706177E0,1.454716969E1
3.933975906E1,-2.801215887E0,1.975216389E0,1.378581333E1
3.935978020E1,-3.804386616E0,2.190694571E0,1.192791271E1
3.937976789E1,-3.888183594E0,2.523488522E0,1.078587818E1
3.939975935E1,-3.986345768E0,2.482787132E0,1.098938560E1
3.941977527E1,-3.854664803E0,2.521094322E0,1.100614548E1
3.943976418E1,-3.313575268E0,2.415749550E0,9.964667320E0
3.945975595E1,-2.430114746E0,2.248155355E0,8.456320763E0
3.947977441E1,-2.030282974E0,2.360682964E0,7.333439827E0
3.949976302E1,-2.111685991E0,2.746149302E0,6.945579052E0
3.951978209E1,-1.762132406E0,2.863465309E0,6.605602264E0
3.953977008E1,-1.082179189E0,2.865859509E0,6.409277916E0
3.955976169E1,-1.362300754E0,2.791639090E0,7.244854450E0
3.957978200E1,-2.430114746E0,2.767697096E0,8.422801971E0
3.959977184E1,-3.033453465E0,2.492363930E0,8.870517731E0
3.961975922E1,-2.652775526E0,1.982398987E0,9.244012833E0
3.963977837E1,-1.989581585E0,1.594538331E0,9.952696800E0
3.965976821E1,-1.283292055E0,1.379060149E0,1.048420906E1
3.967975582E1,-8.379706144E-1,1.261744261E0,1.024957752E1
3.969977497E1,-5.985504389E-1,1.154005170E0,9.222464561E0
3.971976658E1,-5.434837937E-1,1.144428372E0,8.054094315E0
3.973975619E1,-4.213795066E-1,1.223437071E0,7.635109425E0
3.975977365E1,-1.244984865E-1,1.376665950E0,7.654263020E0
3.977976172E1,3.016694188E-1,1.556231141E0,7.776367188E0
3.979978133E1,4.908113480E-1,1.771709204E0,7.491456985E0
3.981977117E1,2.489969730E-1,1.944091797E0,7.642292023E0
3.983975947E1,-1.388636976E-1,2.190694571E0,8.786720276E0
3.985977893E1,-1.221042871E-1,2.008735180E0,9.746794701E0
3.987976939E1,-2.753331959E-1,1.733402014E0,1.084573364E1
3.989975861E1,-1.170764685E0,2.439691544E0,1.218888092E1
3.991977676E1,-1.668758631E0,3.708618402E0,1.081939793E1
3.993976653E1,-4.548983276E-1,4.493916512E0,9.002198219E0
3.995975452E1,1.493981838E0,3.150769472E0,9.801861763E0
3.997977429E1,2.477998734E0,6.272808313E-1,1.404917526E1
3.999976136E1,8.786720037E-1,-6.105214357E-1,1.636436844E1
4.001978166E1,-1.460463047E0,-1.987187415E-1,1.537316895E1
4.003952100E1,-2.157175779E0,7.613561153E-1,1.277785492E1
4.005978499E1,-1.553836942E0,1.893813491E0,1.067095661E1
4.007977136E1,-9.481038451E-1,2.427720547E0,1.236844635E1
4.009975974E1,-5.027823448E-1,2.015917778E0,1.343386555E1
4.011974896E1,4.070143029E-2,1.568202138E0,1.259589481E1
4.013976918E1,-1.197100803E-2,1.640028119E0,1.078827286E1
4.015975932E1,-1.173158810E-1,1.860294700E0,8.722076416E0
4.017974770E1,-3.687070608E-1,1.982398987E0,6.924031258E0
4.019976730E1,-6.847416759E-1,2.102109194E0,6.121973515E0
4.021975806E1,-7.613561153E-1,2.190694571E0,6.004657745E0
4.023974574E1,-7.565677166E-1,2.238578558E0,6.026205540E0
4.025976358E1,-9.528923035E-1,2.334346771E0,5.999869347E0
4.027975318E1,-1.201889277E0,2.324769735E0,6.059724331E0
4.029977286E1,-1.446097851E0,2.135627985E0,6.062118530E0
4.031976170E1,-1.462857246E0,1.572990537E0,6.327875137E0
4.033975192E1,-1.709460020E0,1.034295082E0,6.892906666E0
4.035976968E1,-1.970427990E0,7.230489254E-1,7.781155586E0
4.037976074E1,-1.915361404E0,7.350199223E-1,8.145073891E0
4.039974843E1,-1.788468719E0,1.091755986E0,7.472303391E0
4.041976780E1,-1.403002143E0,1.400607944E0,6.428431511E0
4.043975525E1,-9.672574997E-1,1.647210717E0,5.425261021E0
4.045974570E1,-8.164227605E-1,1.735796213E0,5.087678432E0
4.047976500E1,-8.379706144E-1,1.436521053E0,5.923254967E0
4.049975668E1,-9.121908545E-1,8.571242094E-1,7.797914982E0
4.051977582E1,-1.431732655E0,6.919242740E-1,9.969455719E0
4.053976289E1,-2.437297344E0,8.212111592E-1,1.143710136E1
4.055975080E1,-3.323152065E0,1.189918280E0,1.255279922E1
4.057977056E1,-2.628833532E0,1.795651317E0,1.424550056E1
4.059976124E1,-1.053448796E0,2.822763920E0,1.455914021E1
4.061975085E1,-3.950432837E-1,4.302380562E0,1.289277649E1
4.063977045E1,5.865794420E-1,4.824316502E0,1.221282291E1
4.065975813E1,1.199495077E0,3.665522814E0,1.441309452E1
4.067974774E1,2.011129409E-1,2.422932148E0,1.689348793E1
4.069976773E1,-1.345541358E0,1.865083098E0,1.630212021E1
4.071975541E1,-2.480392933E0,1.948880196E0,1.296699619E1
4.073974548E1,-2.944868088E0,2.659958124E0,1.017056847E1
4.075976300E1,-3.196259260E0,3.421314240E0,1.022084713E1
4.077975507E1,-3.007117271E0,3.433285236E0,1.097023201E1
4.079976983E1,-2.647987127E0,2.954444885E0,9.983820915E0
4.081976182E1,-2.592920542E0,2.202665567E0,8.209717751E0
4.083975127E1,-2.616862535E0,1.850717902E0,6.912060261E0
4.085977095E1,-2.614468336E0,1.865083098E0,6.107608318E0
4.087975986E1,-2.245761156E0,2.149993181E0,6.193799973E0
4.089974785E1,-1.304839969E0,2.161964178E0,6.528987885E0
4.091976792E1,-5.530605912E-1,2.023100376E0,6.248866558E0
4.093975706E1,-3.112462163E-1,1.920149803E0,5.552153587E0
4.095974536E1,-1.316810995E-1,1.541865945E0,5.118803024E0
4.097976658E1,-5.243301988E-1,1.134851575E0,5.248090267E0
4.099975303E1,-1.647210717E0,7.613561153E-1,5.877765179E0
4.101977425E1,-2.557007313E0,4.501099288E-1,6.172252178E0
4.103976355E1,-3.062183857E0,3.950432837E-1,6.054935932E0
4.105975338E1,-3.045424461E0,5.674257874E-1,6.153098583E0
4.107977022E1,-2.592920542E0,9.792284966E-1,7.319074631E0
4.109976160E1,-2.430114746E0,1.477222443E0,8.705317497E0
4.111974628E1,-2.073378563E0,1.640028119E0,9.308655739E0
4.113976903E1,-2.078166962E0,2.109291792E0,8.968679428E0
4.115975818E1,-2.521094322E0,2.731784105E0,8.882488251E0
4.117974832E1,-2.442085743E0,2.913743496E0,1.035971069E1
4.119976623E1,-2.171540976E0,2.894589901E0,1.181538582E1
4.121975607E1,-2.343923569E0,3.581725836E0,1.181538582E1
4.123974437E1,-1.398213744E0,4.407725334E0,1.113543224E1
4.125976497E1,9.504981041E-1,3.428496838E0,1.114500904E1
4.127975358E1,1.632845521E0,1.029506683E0,1.331415558E1
4.129977133E1,4.141969085E-1,-6.584054828E-1,1.645774269E1
4.131976217E1,-1.735796213E0,-5.841852427E-1,1.737232780E1
4.133975285E1,-3.469198227E0,8.810662031E-1,1.548569679E1
4.135976976E1,-2.885013103E0,2.418143749E0,1.232056236E1
4.137975968E1,-1.400607944E0,3.177105665E0,1.128866100E1
4.139974851E1,-7.422025204E-1,2.923320293E0,1.264138508E1
4.141976858E1,-1.632845521E0,2.284068346E0,1.323275280E1
4.143975565E1,-2.557007313E0,1.824381709E0,1.241393566E1
4.145974479E1,-2.461239338E0,1.316810966E0,1.074278259E1
4.147976332E1,-1.601720929E0,1.146822572E0,9.433155060E0
4.149975492E1,-9.217676520E-1,1.443703651E0,8.300697327E0
4.151977314E1,-2.920926213E-1,1.663970232E0,7.517793179E0
4.153976228E1,-9.337386489E-2,1.771709204E0,7.103596210E0
4.155975243E1,-4.788403511E-1,1.721431017E0,6.926425457E0
4.157977273E1,-1.048660398E0,1.568202138E0,6.995857239E0
4.159975979E1,-1.352723956E0,1.321599364E0,6.751648903E0
4.161975063E1,-1.204283476E0,1.182735682E0,6.287173748E0
4.163977085E1,-9.648633003E-1,1.173158884E0,6.138733387E0
4.165975761E1,-8.547300100E-1,1.103726983E0,6.766014099E0
4.167974713E1,-9.097966552E-1,9.481038451E-1,7.539340973E0
4.169976628E1,-1.015141487E0,7.541735172E-1,7.651868820E0
