"Time (s)","Acceleration x (m/s^2)","Acceleration y (m/s^2)","Acceleration z (m/s^2)"
1.324266800E-2,-1.620838284E0,4.714757919E0,8.361419678E0
3.210522000E-2,-1.467697620E0,4.621438026E0,9.407083511E0
5.096735500E-2,-4.031906128E-1,3.765106440E0,9.911669731E0
6.982959500E-2,-1.926222295E-1,3.454039574E0,9.275477409E0
8.869219900E-2,-7.860422134E-1,3.686143398E0,8.686843872E0
1.075582930E-1,-1.061216831E0,3.769891977E0,8.430811882E0
1.264220430E-1,-8.913264275E-1,3.542573929E0,8.739485741E0
1.452851160E-1,-5.515456200E-1,3.466003656E0,9.117551804E0
1.641486050E-1,-8.494520187E-2,3.267399311E0,9.040981293E0
1.830099590E-1,6.819544733E-2,3.296113253E0,9.100801468E0
2.018758450E-1,2.500499785E-1,3.578466177E0,9.084052086E0
2.207367300E-1,6.616154313E-1,3.843770504E0,9.428618431E0
2.396015740E-1,1.135394335E0,3.910769463E0,9.612865448E0
2.584641780E-1,1.525125384E0,3.860520124E0,9.550652504E0
2.773261570E-1,1.582553029E0,3.753142357E0,9.040981293E0
2.961893340E-1,1.482054472E0,3.733999729E0,8.581559181E0
3.150529800E-1,1.410568953E0,3.698107481E0,8.282456398E0
3.339149070E-1,1.317248821E0,3.781856298E0,8.478668213E0
3.527795430E-1,1.463211060E0,3.941876173E0,8.880661964E0
3.716421470E-1,1.551446438E0,3.827020645E0,8.883054733E0
3.905066260E-1,1.365105271E0,3.800998688E0,8.638986588E0
4.093707930E-1,1.355534077E0,3.509074450E0,8.222636223E0
4.282337090E-1,1.221535921E0,2.961117983E0,7.954639912E0
4.470990220E-1,7.405785918E-1,3.044866800E0,8.722735405E0
4.659608450E-1,6.783652306E-1,3.757927895E0,9.990633011E0
4.848263660E-1,1.561017632E0,4.078267097E0,9.880562782E0
5.036901160E-1,2.860320330E0,2.906083107E0,9.194122314E0
5.225548030E-1,2.726322412E0,2.252842426E0,7.882854939E0
5.414195430E-1,1.087537885E0,2.779263496E0,6.997510910E0
5.602819380E-1,-5.371887088E-1,3.332005501E0,7.052545547E0
5.791443340E-1,-8.434699774E-1,3.564109325E0,7.224828720E0
5.980080320E-1,-9.056833982E-1,4.181158543E0,6.299105644E0
6.168711570E-1,-1.878365725E-1,3.633501291E0,7.756035328E0
6.357353240E-1,1.343569875E0,1.814955950E0,9.172586441E0
6.545991260E-1,1.525125384E0,1.202393413E0,8.710771561E0
6.734613130E-1,1.283749342E0,1.037288666E0,8.220243454E0
6.923233970E-1,7.956135273E-1,1.503889084E0,8.260921478E0
7.111844910E-1,7.298108935E-2,2.209771633E0,7.674679756E0
7.300469910E-1,-2.859423161E-1,2.487339020E0,7.275078297E0
7.489084490E-1,-1.328016520E-1,2.279163599E0,8.112565994E0
7.677714700E-1,2.751746029E-2,2.003988981E0,8.507381439E0
7.866330320E-1,-2.285145670E-1,2.360519648E0,6.579065800E0
8.054944910E-1,-3.385843933E-1,1.843669891E0,5.854040623E0
8.243569380E-1,-7.298108935E-2,-1.037886813E-1,8.504988670E0
8.432206880E-1,-7.956135273E-1,-1.618445396E0,1.094776154E1
8.620825630E-1,-1.355534077E0,-2.306082845E-1,1.071087265E1
8.809454280E-1,-1.592124343E0,6.978068948E-1,1.068694401E1
8.998073030E-1,-6.065805554E-1,8.673981763E-3,1.068694401E1
9.186720950E-1,-3.505485058E-1,-1.372881979E-1,1.147896862E1
9.375375110E-1,-1.070788145E0,-4.396811500E-2,1.272533035E1
9.564028240E-1,-1.709372640E0,-1.612164229E-1,1.419213009E1
9.752659490E-1,-8.386843204E-1,-4.603192508E-1,1.440509129E1
9.941285010E-1,1.543370634E-1,-5.153541565E-1,1.477837181E1
1.012988709E0,1.758724600E-1,-1.277169138E-1,1.510140324E1
1.031852616E0,7.776673883E-2,-3.439682722E-2,1.501286793E1
1.050717511E0,-1.447657645E-1,1.043868884E-1,1.428305721E1
1.069579751E0,-4.187439755E-2,3.484548032E-1,1.271575832E1
1.088440741E0,5.252245665E-1,6.643074155E-1,1.093101215E1
1.107302824E0,1.209571838E0,9.056833982E-1,9.206086159E0
1.126166418E0,1.250249863E0,1.128215909E0,8.160422325E0
1.145031626E0,6.807580590E-1,1.190429211E0,7.940282822E0
1.163894178E0,1.555334684E-2,9.391828775E-1,8.134101868E0
1.182757876E0,-8.267202377E-1,9.343972206E-1,8.191529274E0
1.201621001E0,-1.415354609E0,9.702895880E-1,7.909176350E0
1.220483813E0,-1.723729610E0,9.655039310E-1,8.292027473E0
1.239345532E0,-1.793121457E0,8.724829555E-1,9.098408699E0
1.258206105E0,-1.625623941E0,8.985049129E-1,9.794421196E0
1.277070793E0,-1.393819213E0,1.056431174E0,1.019641590E1
1.295934386E0,-1.379462242E0,1.235892892E0,1.065822983E1
1.314796991E0,-1.721336842E0,1.814955950E0,1.057208824E1
1.333659438E0,-1.601695657E0,1.417747378E0,9.653543472E0
1.352523553E0,-1.711765528E0,1.101894855E0,8.780163765E0
1.371386470E0,-2.278864384E0,1.381855130E0,8.193922043E0
1.390247928E0,-2.125723839E0,1.479960799E0,8.124529839E0
1.409109595E0,-1.513161182E0,1.247856975E0,8.229814529E0
1.427971470E0,-1.525125384E0,9.463613629E-1,7.617251873E0
1.446832616E0,-1.752443433E0,9.894321561E-1,6.129215240E0
1.465695688E0,-1.415354609E0,1.049252748E0,4.899304390E0
1.484559282E0,-1.611266971E0,1.185643673E0,5.267798901E0
1.503422407E0,-1.020538807E0,1.599601984E0,5.626722336E0
1.522286626E0,-2.033899166E-2,1.920240164E0,6.763313293E0
1.541151261E0,1.642373681E0,2.114058733E0,8.064709663E0
1.560013657E0,2.185544491E0,1.561316729E0,8.019246101E0
1.578875584E0,1.805085540E0,1.200000525E0,8.854341507E0
1.597738293E0,1.001396298E0,1.448854089E0,1.022991467E1
1.616601626E0,1.030110121E0,1.838884234E0,1.140479088E1
1.635464386E0,1.632802367E0,2.039881229E0,1.207956696E1
1.654327043E0,1.709372640E0,2.094916344E0,1.329960728E1
1.673189178E0,8.338986635E-1,2.130808592E0,1.535025597E1
1.692053241E0,4.151547253E-1,1.733600020E0,1.615394592E1
1.710914178E0,1.006181955E0,6.810571551E-1,1.512054539E1
1.729775011E0,1.427318692E0,4.968098104E-1,1.433570004E1
1.748637928E0,1.759621978E0,1.113858938E0,1.437159157E1
1.767500324E0,2.099402666E0,1.396211982E0,1.420888042E1
1.786363032E0,1.939083695E0,1.393819213E0,1.298136234E1
1.805225220E0,1.367498159E0,1.221535921E0,1.138564873E1
1.824086834E0,1.044467092E0,1.226321578E0,1.032562828E1
1.842949178E0,1.293320656E0,1.444068432E0,9.567401886E0
1.861810063E0,1.642373681E0,1.716850281E0,8.828020096E0
1.880674126E0,1.752443433E0,1.733600020E0,8.112565994E0
1.899535011E0,1.446461320E0,1.539781332E0,7.397111893E0
1.918398813E0,1.013360381E0,1.350748420E0,6.901797771E0
1.937260324E0,6.568298340E-1,1.360319614E0,6.889833927E0
1.956122928E0,2.907279432E-1,1.482353687E0,7.614859104E0
1.974983970E0,7.776673883E-2,1.640279889E0,8.696414948E0
1.993845480E0,6.281159520E-1,1.877169371E0,9.531510353E0
2.012707095E0,1.558624864E0,2.164308071E0,9.658329964E0
2.031571261E0,1.927119493E0,2.193022013E0,9.720542908E0
2.050433970E0,1.484447360E0,2.224128723E0,9.787242889E0
2.069297043E0,8.769695163E-1,2.379662037E0,9.691828728E0
2.088160741E0,6.807580590E-1,2.413161755E0,9.710971832E0
2.107025272E0,7.142575383E-1,2.324627161E0,9.488439560E0
2.125888970E0,1.089930773E0,2.118844509E0,8.909376144E0
2.144752563E0,1.520339727E0,1.762313843E0,8.208278656E0
2.163616574E0,1.721336842E0,1.487139225E0,7.303792000E0
2.182479386E0,8.913264275E-1,1.422533035E0,6.363711834E0
2.201344230E0,1.728515267E0,1.051645517E0,6.385247231E0
2.220208605E0,1.360319614E0,1.233500123E0,6.306283951E0
2.239073084E0,1.185643673E0,1.223928809E0,5.947360516E0
2.257936001E0,1.077966571E0,1.405783296E0,6.043073654E0
2.276798188E0,-3.230310604E-2,1.759921074E0,5.598008633E0
2.295660011E0,-1.663011760E-1,1.666600943E0,6.579065800E0
2.314522303E0,5.623133108E-2,1.362712502E0,8.698807716E0
2.333385324E0,1.112662554E-1,1.427318692E0,1.033519936E1
2.352247824E0,7.525427341E-1,1.769492388E0,1.114875889E1
2.371109595E0,1.570588946E0,2.487339020E0,1.144786167E1
2.389973657E0,2.092224360E0,2.475374937E0,1.262991619E1
2.408836470E0,7.166503668E-1,3.422932863E0,1.438116360E1
2.427701470E0,-6.376872063E-1,2.590230465E0,1.599841213E1
2.446562355E0,-1.166501045E0,1.886740685E0,1.735753632E1
2.465424230E0,-6.376872063E-1,1.020538807E0,1.684547234E1
2.484286938E0,3.146561682E-1,5.853442550E-1,1.478794289E1
2.503150845E0,1.343569875E0,8.174480200E-1,1.025384331E1
2.522014803E0,1.403390527E0,1.755135417E0,6.999903679E0
2.540879855E0,8.195417523E-1,2.786442041E0,6.468996048E0
2.559743032E0,2.620140910E-1,3.260220766E0,7.988139153E0
2.578607355E0,-5.946164131E-1,2.898904562E0,1.059840965E1
2.597473449E0,-9.870393276E-1,2.410768747E0,1.112243748E1
2.616336574E0,-7.094719410E-1,1.712064624E0,8.964410782E0
2.635201053E0,-8.027920127E-1,8.222336769E-1,7.538288593E0
2.654062251E0,-2.589931488E0,1.386640668E0,7.299006462E0
2.672926938E0,-4.004089355E0,1.578066587E0,7.928318501E0
2.691790116E0,-3.568595886E0,1.295713425E0,8.708378792E0
2.710652876E0,-2.388934374E0,1.427318692E0,8.969196320E0
2.729517251E0,-1.817049742E0,2.061416626E0,9.679864883E0
2.748380168E0,-1.324427366E0,2.578266382E0,1.069172955E1
2.767241261E0,-1.176072359E0,2.673979282E0,1.080419254E1
2.786104699E0,-1.341177106E0,2.384447813E0,1.039262676E1
2.804969282E0,-1.582553029E0,2.159522533E0,9.758528709E0
2.823834022E0,-1.797907114E0,1.994417667E0,9.347262383E0
2.842697928E0,-1.785943031E0,2.037488461E0,9.067302704E0
2.861562772E0,-1.563410521E0,2.094916344E0,8.737092972E0
2.880425845E0,-1.348355532E0,1.932204247E0,8.617451668E0
2.899288501E0,-1.245464206E0,2.159522533E0,7.923532963E0
2.918153449E0,-3.098705411E-1,2.465803623E0,6.990332127E0
2.937018397E0,-5.539384484E-1,2.461018085E0,6.287141323E0
2.955885168E0,-1.077966571E0,2.135594130E0,6.488138676E0
2.974751209E0,-1.338784218E0,1.731207132E0,6.983153820E0
2.993613709E0,-1.656730533E0,1.855633974E0,7.976175308E0
3.012476574E0,-1.266999602E0,2.262413740E0,8.354241371E0
3.031339699E0,-3.098705411E-1,2.635694027E0,7.923532963E0
3.050203657E0,1.076770201E-2,2.635694027E0,7.945068359E0
3.069067407E0,-7.298108935E-2,2.769692183E0,7.887640953E0
3.087930897E0,-4.558327198E-1,3.279363394E0,7.287042141E0
3.106795480E0,-3.469592705E-2,3.623929977E0,7.062117100E0
3.125661886E0,4.007977843E-1,4.102195263E0,7.918747425E0
3.144525584E0,7.166503668E-1,4.499403954E0,8.995517731E0
3.163389959E0,6.340979785E-2,4.430012226E0,1.072762203E1
3.182251418E0,-2.141576260E-1,3.688536167E0,1.370160198E1
3.201114334E0,-2.739782035E-1,3.274577856E0,1.629751587E1
3.219976678E0,-4.127618968E-1,3.104687452E0,1.720439529E1
3.238837251E0,-1.734796464E-1,3.377469063E0,1.592901993E1
3.257701313E0,-1.208375469E-1,3.647858143E0,1.337378502E1
3.276565011E0,-3.457628787E-1,3.363112211E0,1.226620674E1
3.295428449E0,-1.256231815E-1,3.152543783E0,1.210828114E1
3.314291522E0,4.666004330E-2,3.107080221E0,1.190967655E1
3.333153970E0,2.069791555E-1,2.743371248E0,1.096690464E1
3.352016366E0,-5.982056726E-3,2.367697954E0,9.600901604E0
3.370878605E0,-4.426721856E-2,2.047059774E0,8.301599503E0
3.389740220E0,3.553341627E-1,2.142772675E0,7.712964535E0
3.408600793E0,4.654040039E-1,2.532802820E0,8.083851814E0
3.427462928E0,4.893322289E-1,2.626122952E0,8.619844437E0
3.446325741E0,9.200403094E-1,2.583052158E0,8.612666130E0
3.465189230E0,1.269392371E0,2.807977438E0,8.158029556E0
3.484050220E0,1.231107235E0,2.987439156E0,7.677072525E0
3.502913345E0,6.664010882E-1,2.886940479E0,8.026424408E0
3.521776574E0,6.161518097E-1,2.872583628E0,8.552845001E0
3.540638397E0,7.405785918E-1,2.853441000E0,9.151051521E0
3.559501886E0,5.587241054E-1,2.793620348E0,9.622437477E0
3.578364074E0,7.621139884E-1,2.839084148E0,9.832706451E0
3.597227407E0,1.171286702E0,3.150151014E0,9.533903122E0
3.616089959E0,1.135394335E0,3.298506021E0,9.014659882E0
3.634952720E0,5.467599630E-1,3.047259569E0,8.636593819E0
3.653815063E0,4.187439755E-2,2.834298372E0,8.117351532E0
3.672677355E0,-1.160518974E-1,2.839084148E0,7.538288593E0
3.691539803E0,-1.758724600E-1,2.810370207E0,7.275078297E0
3.710402772E0,-3.768695593E-1,2.736192703E0,7.356434345E0
3.729267980E0,-3.720839322E-1,2.621337175E0,7.150651455E0
3.748129803E0,-1.854437590E-1,2.525624275E0,6.516852379E0
3.766992407E0,-6.101697683E-2,2.472982168E0,5.928217888E0
3.785854074E0,-9.451649338E-2,2.451446772E0,5.810969830E0
3.804716574E0,-3.948157281E-2,2.587837696E0,5.825326920E0
3.823578345E0,1.196411322E-3,2.788834810E0,5.693721294E0
3.842441157E0,-3.672982752E-1,2.807977438E0,5.978467464E0
3.861303397E0,-7.166503668E-1,2.726621389E0,7.198507786E0
3.880165897E0,-4.941178858E-1,2.752942562E0,8.818449020E0
3.899029751E0,-2.572284341E-1,3.085544825E0,1.019641590E1
3.917895063E0,3.888336718E-1,3.540181160E0,1.105543900E1
3.936757355E0,1.082752228E0,4.016053677E0,1.167996597E1
3.955621001E0,1.463211060E0,4.243371964E0,1.278036499E1
3.974482876E0,1.398604870E0,4.030410767E0,1.502722549E1
3.993345011E0,1.173679471E0,3.499503136E0,1.640519142E1
4.012209126E0,1.195214868E0,3.202793121E0,1.510379601E1
4.031072876E0,8.793623447E-1,3.224328518E0,1.342403412E1
4.049934491E0,1.016949639E-1,3.040081263E0,1.319193077E1
4.068795897E0,-5.994020700E-1,2.719442844E0,1.366810226E1
4.087656730E0,-1.183250785E0,2.382055044E0,1.363938808E1
4.106520636E0,-1.322034478E0,2.006381750E0,1.229970646E1
4.125383761E0,-1.513161182E0,1.817348838E0,1.037109184E1
4.144246886E0,-1.702194214E0,1.989632010E0,8.722735405E0
4.163109178E0,-1.668694735E0,2.255235434E0,7.456932545E0
4.181971366E0,-1.326820135E0,2.477767944E0,6.784848690E0
4.200833084E0,-1.097109199E0,2.532802820E0,6.421139717E0
4.219696001E0,-9.463613629E-1,2.525624275E0,6.107679844E0
4.238558449E0,-1.125823021E0,2.659622431E0,6.320641041E0
4.257421313E0,-1.209571838E0,2.793620348E0,7.121937275E0
4.276284751E0,-9.224331379E-1,2.662015200E0,7.854141235E0
4.295146886E0,-9.343972206E-1,2.755335331E0,8.689236641E0
4.314012459E0,-1.070788145E0,2.941975355E0,9.632008553E0
4.332874491E0,-1.056431174E0,2.894119024E0,1.040459061E1
4.351736730E0,-1.159322619E0,2.839084148E0,1.084726334E1
4.370600063E0,-1.286142230E0,2.843869686E0,1.073480034E1
4.389463605E0,-1.489233017E0,2.843869686E0,1.052183914E1
4.408327668E0,-1.680658817E0,2.760120869E0,1.011505985E1
4.427189491E0,-2.010868311E0,2.652443886E0,9.777671814E0
4.446051782E0,-2.432005167E0,2.530410051E0,9.457332611E0
4.464915272E0,-2.616252422E0,2.441875458E0,9.024231911E0
4.483777147E0,-2.570788860E0,2.494517565E0,8.339883804E0
4.502638136E0,-2.503789902E0,2.602194548E0,7.569395542E0
4.521500063E0,-2.336292267E0,2.537588358E0,6.818347931E0
4.540361053E0,-2.106581211E0,2.532802820E0,6.186643124E0
4.559222147E0,-1.986940145E0,2.666800737E0,6.040680885E0
4.578082147E0,-1.793121457E0,2.841476917E0,6.368497372E0
4.596942459E0,-1.537089467E0,2.879761934E0,6.634100914E0
4.615802876E0,-1.398604870E0,3.020938635E0,6.646064758E0
4.634664543E0,-1.192822099E0,3.224328518E0,6.787241459E0
4.653526053E0,-1.166501045E0,3.324826956E0,7.696215153E0
4.672389282E0,-1.331605792E0,3.207578659E0,8.954839706E0
4.691250168E0,-1.812264085E0,3.181257725E0,1.024187946E1
4.710113449E0,-1.876870275E0,3.346362352E0,1.078026390E1
4.728975949E0,-1.460519075E0,3.736392498E0,1.008634567E1
4.747840272E0,-1.128215909E0,4.095016956E0,9.431011200E0
4.766703553E0,-1.054038405E0,4.111766815E0,1.001456070E1
4.785568293E0,-1.484447360E0,3.760320902E0,1.250788212E1
4.804432720E0,-1.864906192E0,3.253042459E0,1.443859100E1
4.823295845E0,-2.113759756E0,2.731407166E0,1.480230045E1
4.842158136E0,-2.525325298E0,2.056631088E0,1.456301785E1
4.861018918E0,-2.525325298E0,1.475175142E0,1.415623760E1
4.879880376E0,-2.250150681E0,1.343569875E0,1.343599796E1
4.898741366E0,-2.022832394E0,1.482353687E0,1.190967655E1
4.917603553E0,-1.893620014E0,1.609173179E0,9.940383911E0
4.936465063E0,-1.819442511E0,1.781456470E0,8.086244583E0
4.955325168E0,-2.082653046E0,2.094916344E0,7.196115017E0
4.974187511E0,-2.147259235E0,2.374876499E0,7.220043182E0
4.993048449E0,-1.654337764E0,2.439482689E0,7.466504097E0
5.011910741E0,-1.252642632E0,2.547159672E0,7.480860710E0
5.030771991E0,-9.678967595E-1,2.568695068E0,7.251150131E0
5.049631418E0,-7.166503668E-1,2.492124796E0,7.131508827E0
5.068492772E0,-6.735795736E-1,2.573480844E0,7.624430180E0
5.087353293E0,-4.271188378E-1,2.846262455E0,8.918947220E0
5.106213032E0,8.973085135E-2,2.985046148E0,1.037587738E1
5.125075688E0,5.539384484E-1,2.927618504E0,1.126122189E1
5.143936470E0,4.749752879E-1,2.688336134E0,1.175174999E1
5.162797199E0,8.374879137E-3,2.338984251E0,1.217767239E1
5.181658345E0,-2.045863420E-1,1.946561217E0,1.192164040E1
5.200521418E0,-6.819544733E-2,1.709671736E0,1.063430214E1
5.219383970E0,-2.356930375E-1,1.743171334E0,8.993124962E0
5.238245897E0,-5.802595019E-1,1.688136339E0,7.669893742E0
5.257107407E0,-6.472585201E-1,1.661815286E0,6.686742783E0
5.275970532E0,-8.650053740E-1,1.831705689E0,5.947360516E0
5.294829959E0,-1.183250785E0,1.903490424E0,5.832505226E0
5.313692303E0,-1.185643673E0,1.800599098E0,6.141179085E0
5.332553397E0,-9.463613629E-1,1.621137381E0,6.612565517E0
5.351412668E0,-9.822536707E-1,1.707278967E0,6.846762657E0
5.370275324E0,-4.701896608E-1,1.862812400E0,6.961618423E0
5.389135949E0,3.708875179E-2,1.826920033E0,7.009474754E0
5.407996886E0,3.409772217E-1,1.484746456E0,7.523931503E0
5.426856261E0,-4.821537733E-1,1.491924882E0,8.926125526E0
5.445717563E0,1.256231815E-1,2.061416626E0,9.201300621E0
5.464578657E0,1.135394335E0,2.341377020E0,1.070608711E1
5.483438397E0,1.082752228E0,2.482553482E0,1.270140171E1
5.502298970E0,1.168893814E0,2.327019930E0,1.463958836E1
5.521158553E0,1.006181955E0,1.913061738E0,1.594098473E1
5.540020376E0,8.267202377E-1,1.381855130E0,1.600319862E1
5.558880376E0,5.754738450E-1,1.400997639E0,1.469940853E1
5.577745220E0,3.768695593E-1,1.841277003E0,1.319910908E1
5.596608084E0,-6.340979785E-2,2.137987137E0,1.288325596E1
5.615469438E0,-8.721838593E-1,2.166700840E0,1.302682590E1
5.634331157E0,-1.546660781E0,2.061416626E0,1.231645679E1
5.653193241E0,-1.843370795E0,1.721635938E0,1.089033413E1
5.672052824E0,-1.862513304E0,1.527817249E0,9.442975044E0
5.690914751E0,-2.008475542E0,1.822134495E0,8.466703415E0
5.709775793E0,-2.037189484E0,2.015953064E0,8.169993401E0
5.728638501E0,-1.553839207E0,2.327019930E0,8.057531357E0
5.747500688E0,-1.054038405E0,2.516052961E0,7.789535046E0
5.766361053E0,-8.841479421E-1,2.525624275E0,7.356434345E0
5.785223084E0,-1.109073281E0,2.377269268E0,7.215257645E0
5.804086782E0,-1.235892892E0,2.236092806E0,7.574181080E0
5.822947876E0,-1.333998680E0,2.355733871E0,8.308777809E0
5.841809074E0,-1.101894855E0,2.377269268E0,9.038588524E0
5.860670063E0,-1.030110121E0,2.441875458E0,9.806385040E0
5.879530168E0,-1.034895778E0,2.384447813E0,1.007677460E1
5.898391938E0,-1.247856975E0,2.353341103E0,9.935597420E0
5.917253605E0,-1.216750264E0,2.465803623E0,9.629615784E0
5.936118866E0,-1.137787223E0,2.645265341E0,9.416654587E0
5.954982199E0,-1.204786181E0,2.683550596E0,9.244371414E0
5.973848241E0,-1.307677627E0,2.506481647E0,9.277871132E0
5.992710793E0,-1.575374603E0,2.214557409E0,9.438189507E0
6.011572355E0,-1.678265929E0,2.274377823E0,9.627223015E0
6.030434438E0,-1.613659739E0,2.458625317E0,9.359226227E0
6.049296991E0,-1.639980793E0,2.362912416E0,8.507381439E0
6.098646366E0,-1.692024708E0,2.262413740E0,6.894619465E0
6.117422772E0,-1.729711652E0,2.297109842E0,7.206882477E0
6.136199230E0,-1.700399637E0,2.192423820E0,7.157829762E0
6.154975688E0,-1.799701691E0,2.208575249E0,6.969993114E0
6.173752095E0,-1.885843396E0,2.464607239E0,7.240980625E0
6.192528553E0,-1.729113460E0,3.080160856E0,7.920542240E0
6.211305011E0,-1.086341500E0,3.683152199E0,8.515158653E0
6.230081418E0,-2.638086975E-1,3.846163273E0,9.037990570E0
6.248857876E0,7.178468257E-2,3.781856298E0,1.053021431E1
6.267634334E0,2.602194548E-1,3.246462107E0,1.325294685E1
6.286410793E0,2.075773627E-1,2.767897606E0,1.545972824E1
6.305187199E0,9.272187948E-2,2.903092146E0,1.484178162E1
6.323963657E0,6.879365444E-2,2.867797852E0,1.300828075E1
6.342740116E0,-5.264210105E-1,2.483151674E0,1.247079372E1
6.361516522E0,-1.271785259E0,2.218744755E0,1.291137218E1
6.380292980E0,-1.404586911E0,2.043470621E0,1.237866974E1
6.399069438E0,-1.315454245E0,2.075773716E0,1.112841988E1
6.417845845E0,-1.182652593E0,2.215155602E0,9.930811882E0
6.436622303E0,-1.032503009E0,2.356930256E0,9.109176636E0
6.455398761E0,-8.063812256E-1,2.408974171E0,8.386544228E0
6.474175220E0,-5.688936114E-1,2.365305185E0,7.750053406E0
6.492951626E0,-6.107679605E-1,2.507678032E0,7.603493214E0
6.613268084E0,4.223332107E-1,2.958725214E0,8.947661400E0
6.632130480E0,6.400800347E-1,2.901297569E0,9.383154869E0
6.650994647E0,6.281159520E-1,2.855833769E0,1.012941647E1
6.669856938E0,5.515456200E-1,2.568695068E0,1.077308559E1
6.688718293E0,4.103690982E-1,2.291127682E0,1.094536877E1
6.707583241E0,2.045863420E-1,2.216950178E0,1.071565819E1
6.726447824E0,1.447657645E-1,2.240878344E0,1.009591675E1
6.745312147E0,4.187439755E-2,2.216950178E0,9.368798256E0
6.764173866E0,-2.261217386E-1,2.085345030E0,8.653344154E0
6.783037824E0,-4.773681164E-1,1.982453585E0,7.813463211E0
6.801904074E0,-6.161518097E-1,1.968096614E0,6.906583309E0
6.820767720E0,-4.079762697E-1,1.834098577E0,6.356533527E0
6.839631522E0,-3.170489967E-1,1.814955950E0,6.332605362E0
6.858492928E0,-3.481557071E-1,1.817348838E0,6.593422890E0
6.877354751E0,-2.237289101E-1,1.795813441E0,6.987939358E0
6.896217147E0,-2.033899166E-2,1.826920033E0,7.325327396E0
6.915079959E0,-1.196411322E-3,2.032702923E0,7.844570160E0
6.933942199E0,-4.666004330E-2,2.355733871E0,8.698807716E0
6.952808084E0,1.064806059E-1,2.697907448E0,9.509974480E0
6.971673188E0,4.390829504E-1,3.174079180E0,1.044766140E1
6.990535949E0,1.149751306E0,3.231507063E0,1.178046417E1
7.009401366E0,1.608874083E0,3.068794966E0,1.365613747E1
7.028265063E0,2.135295153E0,2.733799934E0,1.475683594E1
7.047131053E0,2.226222277E0,2.568695068E0,1.441944790E1
7.065994282E0,1.936690807E0,2.719442844E0,1.309382439E1
7.084858241E0,1.685444474E0,2.997010469E0,1.178524971E1
7.103723657E0,8.673982024E-1,3.133401155E0,1.169432259E1
7.122586418E0,1.064806059E-1,2.908475876E0,1.197188950E1
7.141450376E0,-5.228317380E-1,2.836691141E0,1.177328587E1
7.160315272E0,-7.190431952E-1,2.760120869E0,1.119422245E1
7.179180116E0,-7.501499057E-1,2.539981127E0,1.036151981E1
7.198042043E0,-1.015753269E0,2.566302299E0,9.428618431E0
7.216906366E0,-1.446461320E0,2.839084148E0,8.780163765E0
7.235769751E0,-1.491625786E0,2.858226538E0,8.495417595E0
7.254633918E0,-1.219143152E0,2.817548752E0,8.337491035E0
7.273496886E0,-1.063609719E0,2.657229662E0,8.165207863E0
7.292360897E0,-9.822536707E-1,2.547159672E0,7.976175308E0
7.311221991E0,-8.721838593E-1,2.652443886E0,7.610073090E0
7.330083241E0,-5.108676553E-1,2.836691141E0,7.437789917E0
7.348944751E0,-4.187439755E-2,3.078366280E0,7.567002296E0
7.367808449E0,2.189432681E-1,3.212364435E0,8.024031639E0
7.386672407E0,2.859423161E-1,3.099901676E0,8.433204651E0
7.405537251E0,1.136590764E-1,3.157329559E0,8.574380875E0
7.424402355E0,-1.316052489E-2,3.209971666E0,8.792127609E0
7.443266782E0,-1.088734269E-1,3.200400352E0,9.146265030E0
7.462129386E0,-1.974078715E-1,3.205185890E0,9.533903122E0
7.480992251E0,-3.936193287E-1,3.154936552E0,9.803992271E0
7.499854751E0,-7.094719410E-1,3.075973511E0,9.624830246E0
7.518718241E0,-9.415757060E-1,2.999403238E0,8.938090324E0
7.537583605E0,-1.015753269E0,2.980260611E0,8.095816612E0
7.556446886E0,-1.312463164E0,2.992224693E0,7.337291718E0
7.575312459E0,-1.133001566E0,2.946761131E0,7.054938316E0
7.594179022E0,-1.243071318E0,2.944368362E0,6.861119747E0
7.613043449E0,-1.142572761E0,2.894119024E0,6.445067883E0
7.631906522E0,-9.607182741E-1,3.104687452E0,6.739385128E0
7.650771626E0,-6.329016089E-1,3.250649452E0,7.320541859E0
7.669637720E0,1.196411322E-3,3.276970625E0,7.756035328E0
7.688502199E0,1.806581169E-1,3.281756163E0,8.203493118E0
7.707366157E0,1.375873089E-1,3.410968781E0,8.839983940E0
7.726231366E0,-5.982056726E-3,3.772284985E0,9.902098656E0
7.745094803E0,2.883351147E-1,4.073481560E0,1.112243748E1
7.763957876E0,7.334001660E-1,4.150051594E0,1.243131161E1
7.782820011E0,9.343972206E-1,4.061517239E0,1.363938808E1
7.801683813E0,7.956135273E-1,3.939483404E0,1.429502201E1
7.820545845E0,6.664010882E-1,3.741178274E0,1.434766388E1
7.839408970E0,3.050848842E-1,3.209971666E0,1.433091354E1
7.858273345E0,-6.101697683E-2,2.748156786E0,1.387149239E1
7.877138345E0,-9.212367237E-2,2.712264538E0,1.246959686E1
7.896000168E0,-2.452643216E-1,2.846262455E0,1.082333469E1
7.914861157E0,-7.716853023E-1,2.700300455E0,9.567401886E0
7.933723188E0,-1.434497118E0,2.429911375E0,9.079266548E0
7.952586157E0,-1.458425403E0,2.257628202E0,8.653344154E0
7.971450949E0,-1.106680512E0,2.329412937E0,8.002495766E0
7.990314959E0,-8.195417523E-1,2.671586514E0,7.590930939E0
8.009179907E0,-7.334001660E-1,2.726621389E0,7.153044224E0
8.028043918E0,1.878365725E-1,2.939582586E0,6.751348972E0
8.046905376E0,6.999006271E-1,3.111865759E0,6.942475796E0
8.065768657E0,7.262216806E-1,3.343969584E0,7.629215717E0
8.084630793E0,4.558327198E-1,3.449253798E0,8.655736923E0
8.103494959E0,2.189432681E-1,3.238685369E0,9.842277527E0
8.122357095E0,5.623133108E-2,2.977867842E0,1.070130062E1
8.141217251E0,8.374879137E-3,2.891726255E0,1.064865875E1
8.160082824E0,-2.512463741E-2,2.922832966E0,9.990633011E0
8.178948970E0,-2.033899166E-2,2.903690338E0,9.014659882E0
8.197812355E0,-5.300102234E-1,2.867797852E0,8.303992271E0
8.216674595E0,-8.721838593E-1,2.666800737E0,7.988139153E0
8.235540063E0,-1.006181955E0,2.382055044E0,7.569395542E0
8.254406678E0,-8.673982024E-1,2.453839540E0,7.275078297E0
8.273270220E0,-7.860422134E-1,2.597409010E0,6.674778938E0
8.292134230E0,-4.965106845E-1,2.532802820E0,6.693921566E0
8.310998918E0,-1.112662554E-1,2.559123755E0,6.823133945E0
8.329863918E0,4.031906128E-1,2.683550596E0,6.959225655E0
8.348727355E0,2.428714931E-1,2.709871531E0,7.337291718E0
8.367590584E0,-1.064806059E-1,2.633301258E0,8.045567513E0
8.386451991E0,6.101697683E-2,2.561516523E0,8.938090324E0
8.405314959E0,4.893322289E-1,2.788834810E0,9.378369331E0
8.424178813E0,6.376872063E-1,3.286541939E0,9.653543472E0
8.443041626E0,8.051848412E-1,3.793820381E0,9.976275444E0
8.461904803E0,1.130608678E0,4.054338932E0,1.065344429E1
8.480767511E0,1.377069473E0,4.008875370E0,1.206281757E1
8.499632668E0,1.771586061E0,3.781856298E0,1.368245888E1
8.518494855E0,2.443969250E0,3.614358664E0,1.454387474E1
8.537357199E0,2.544467688E0,3.638286829E0,1.392174149E1
8.556220741E0,2.106581211E0,3.480360508E0,1.271575832E1
8.575084126E0,1.207179070E0,3.315255880E0,1.223749352E1
8.593945688E0,6.448656917E-1,3.442075491E0,1.192642593E1
8.612808918E0,9.942178130E-1,3.621536970E0,1.139521980E1
8.631670376E0,2.165504545E-1,3.559323788E0,1.046441174E1
8.650537407E0,-4.821537733E-1,3.384647608E0,8.258528709E0
8.669401938E0,-5.874379873E-1,2.906083107E0,8.337491035E0
8.688264438E0,-4.319044948E-1,3.035295486E0,7.957032681E0
8.707128970E0,-1.016949639E-1,3.410968781E0,7.088438034E0
8.725993813E0,-1.423729509E-1,3.576073408E0,6.882655144E0
8.744858449E0,-1.974078715E-1,3.631108284E0,7.890033722E0
8.763722824E0,9.212367237E-2,3.544966698E0,8.550452232E0
8.782584907E0,1.543370634E-1,3.556930780E0,8.380561829E0
8.801446366E0,8.255238086E-2,3.533002615E0,7.657929897E0
8.820308345E0,-3.457628787E-1,3.683750391E0,7.878069401E0
8.839170584E0,-8.003991842E-1,3.623929977E0,8.993124962E0
8.858033136E0,-9.750752449E-1,3.274577856E0,9.801599503E0
8.876895584E0,-5.204389095E-1,3.066402197E0,9.835099220E0
8.895759438E0,1.280160099E-1,2.827120066E0,9.624830246E0
8.914624178E0,-9.451649338E-2,2.707478762E0,8.971589088E0
8.933489855E0,-3.314059377E-1,2.408375978E0,9.486045837E0
8.952353188E0,-1.085145116E0,2.212164640E0,9.632008553E0
8.971214595E0,6.101697683E-2,2.712264538E0,9.770493507E0
8.990076886E0,1.618445396E0,2.724228621E0,8.595915794E0
9.008938293E0,1.972583175E0,2.355733871E0,7.263113976E0
9.027802876E0,4.701896608E-1,1.841277003E0,7.100401878E0
9.046665168E0,5.635097623E-1,2.035095692E0,6.782455921E0
9.065529751E0,-2.835494876E-1,3.731606960E0,5.088337421E0
9.084392876E0,-1.116251707E0,3.982554197E0,7.112366199E0
9.103255011E0,-1.807478428E0,3.255435228E0,8.464310646E0
9.122118084E0,-5.802595019E-1,3.257827997E0,8.883054733E0
9.140982407E0,-5.706881881E-1,3.772284985E0,8.926125526E0
9.159846053E0,-9.463613629E-1,3.970590115E0,9.995418549E0
9.178709959E0,-5.754738450E-1,4.025625229E0,1.167757225E1
9.197572303E0,-8.003991842E-1,3.812663794E0,1.323021507E1
9.216433970E0,-1.094716311E0,3.408575773E0,1.339531994E1
9.235296938E0,-7.357929349E-1,3.298506021E0,1.265384388E1
9.254159751E0,-2.500499785E-1,3.169293642E0,1.175892830E1
9.273021261E0,-3.457628787E-1,3.186043262E0,1.092622662E1
9.291882668E0,-1.525125384E0,3.446861029E0,1.052423191E1
9.310746522E0,-2.266900301E0,3.552145243E0,1.183310604E1
9.329610168E0,-1.864906192E0,3.946661949E0,1.320150185E1
9.348471834E0,-1.233500123E0,4.353441715E0,1.243370438E1
9.367333761E0,-5.132604837E-1,3.951447487E0,1.100997543E1
9.386197251E0,1.360319614E0,3.941876173E0,9.591330528E0
9.405058397E0,8.578268886E-1,4.051946163E0,9.115159035E0
9.423921730E0,3.912265003E-1,2.891726255E0,7.459325314E0
9.442784491E0,1.477268934E0,6.738786697E-1,4.827519894E0
9.461646418E0,1.668694735E0,2.934198678E-1,4.593023300E0
9.480508918E0,5.467599630E-1,1.647458434E0,9.445367813E0
9.499373188E0,-2.061117649E0,3.628715515E0,9.961918831E0
9.518235584E0,-1.695015788E0,4.473083019E0,6.624529362E0
9.537098241E0,-1.470090389E0,5.047360420E0,7.095616341E0
9.555959647E0,-1.235892892E0,3.530609846E0,8.399704933E0
9.574821209E0,-9.200403094E-1,3.171686411E0,1.013420200E1
9.593685063E0,-1.572981834E0,2.949153900E0,1.227099228E1
9.612548605E0,-6.209374666E-1,2.898904562E0,1.115115166E1
9.631412407E0,4.271188378E-1,2.642872572E0,1.036151981E1
9.650276991E0,6.520441771E-1,2.190629244E0,1.046919727E1
9.669141053E0,1.195214868E0,1.915454507E0,9.277871132E0
9.688004074E0,1.269392371E0,2.023131609E0,8.095816612E0
9.706866157E0,8.506484628E-1,2.298306227E0,7.540681362E0
9.725729959E0,-3.589233849E-3,2.573480844E0,6.928118706E0
9.744593866E0,7.537391037E-2,2.714657307E0,5.810969830E0
9.763458136E0,9.415757060E-1,1.927418590E0,5.361119270E0
9.782321105E0,1.369890928E0,1.735992789E0,5.143372059E0
9.801185063E0,7.166503668E-1,2.851048231E0,5.516652584E0
9.820049751E0,-8.985049129E-1,3.640679598E0,5.801398277E0
9.838914699E0,-1.616052628E0,3.547359467E0,7.066902637E0
9.857778813E0,-1.099501967E0,3.047259569E0,8.739485741E0
9.876641366E0,-4.175475538E-1,2.858226538E0,9.749257088E0
9.895506105E0,-5.922235847E-1,3.638286829E0,1.131386375E1
9.914368501E0,-1.553839207E0,4.451547623E0,1.353171158E1
9.933230636E0,-1.852941990E0,3.939483404E0,1.487647724E1
9.952094803E0,-1.250249863E0,3.401397467E0,1.464198112E1
9.970959230E0,-6.544370055E-1,3.444468260E0,1.352931786E1
9.989825480E0,-6.209374666E-1,3.425325632E0,1.267059422E1
1.000869100E1,-1.226321578E0,3.095116138E0,1.270140171E1
1.002755595E1,-1.434497118E0,2.937189817E0,1.335942745E1
1.004642137E1,-1.154536963E0,3.324826956E0,1.258445263E1
1.006528407E1,-1.061216831E0,3.195614576E0,1.082812023E1
1.008414652E1,-1.399801224E-1,1.824527264E0,9.292227745E0
1.010300944E1,-1.046859860E0,2.580659151E0,8.703593254E0
1.012187303E1,-2.245364904E0,4.147658825E0,9.450154305E0
1.014073433E1,-2.671287298E0,4.456333160E0,9.404690742E0
1.015959407E1,-2.317149639E0,4.152444363E0,8.801698685E0
1.017845329E1,-2.202294111E0,3.674179077E0,8.299205780E0
1.019731402E1,-1.970190287E0,3.071187973E0,7.983353615E0
1.021617652E1,-1.757229090E0,2.757728100E0,8.057531357E0
1.023504022E1,-1.733300924E0,2.817548752E0,8.069495201E0
1.025390189E1,-1.793121457E0,3.006581545E0,8.213064194E0
1.027276319E1,-1.797907114E0,3.099901676E0,8.236992836E0
1.029162569E1,-1.656730533E0,2.939582586E0,8.146065712E0
1.031048584E1,-1.833799481E0,2.918047190E0,7.988139153E0
1.032934704E1,-1.876870275E0,2.755335331E0,7.775177956E0
1.034820751E1,-2.266900301E0,2.635694027E0,8.344670296E0
1.036706907E1,-2.568396091E0,2.549552441E0,8.973981857E0
1.038592960E1,-2.752643347E0,2.702693224E0,9.158229828E0
1.040479225E1,-2.860320330E0,2.767299414E0,8.732307434E0
1.042365491E1,-2.872284412E0,2.863012314E0,7.904390335E0
1.044251689E1,-3.054138899E0,2.963510752E0,7.574181080E0
1.046137933E1,-3.118745327E0,3.164507866E0,7.870891094E0
1.048024272E1,-3.020639420E0,3.530609846E0,7.715357304E0
1.049910553E1,-2.910569668E0,3.657429457E0,6.971189499E0
1.051796647E1,-2.781357288E0,3.604787350E0,6.461817741E0
1.053682881E1,-2.599502802E0,3.607180119E0,6.748956203E0
1.055568960E1,-2.532503605E0,3.688536167E0,7.437789917E0
1.057455079E1,-2.424826622E0,3.652643681E0,7.567002296E0
1.059341444E1,-2.963211775E0,3.905983925E0,7.904390335E0
1.061227772E1,-3.274278641E0,4.185944080E0,8.560024261E0
1.063114048E1,-3.080460072E0,4.262514591E0,8.811270714E0
1.065000251E1,-2.831606388E0,4.532903194E0,8.918947220E0
1.066886319E1,-3.080460072E0,4.834399223E0,8.830412865E0
1.068772704E1,-3.279064417E0,4.781756878E0,9.615258217E0
1.070658730E1,-3.326920748E0,4.700400829E0,1.130907822E1
1.072544902E1,-3.243171930E0,4.910969257E0,1.237149143E1
1.074431058E1,-3.389134169E0,4.762614250E0,1.263709450E1
1.076317272E1,-3.838984728E0,4.188336849E0,1.326610756E1
1.078203355E1,-3.905983925E0,3.867698669E0,1.336660671E1
1.080089387E1,-3.884448528E0,3.738785267E0,1.285693550E1
1.081975470E1,-3.728914976E0,3.635894060E0,1.174457169E1
1.083861642E1,-3.338884830E0,3.585644722E0,1.046201897E1
1.085747704E1,-3.245564699E0,3.384647608E0,9.129515648E0
1.087633798E1,-3.941876173E0,4.250550270E0,7.141079903E0
1.089519923E1,-4.398606300E0,4.776971340E0,1.016770172E1
1.091405975E1,-2.848356247E0,4.116552353E0,9.165408134E0
1.093291861E1,-1.857727647E0,3.772284985E0,6.514459610E0
1.097272246E1,2.644068897E-1,4.942076206E0,7.961818218E0
1.099158267E1,1.546660781E0,4.542474747E0,9.237193108E0
1.101044361E1,1.678265929E0,4.633401871E0,8.923732758E0
1.102930611E1,6.209374666E-1,4.791328430E0,8.246563911E0
1.104816694E1,-2.548356056E-1,4.556831837E0,8.524131775E0
1.106702778E1,-1.080359459E0,4.327120781E0,9.131908417E0
1.108588830E1,-1.054038405E0,4.276871204E0,9.387940407E0
1.110474772E1,-3.601198196E-1,4.319941998E0,8.619844437E0
1.112360819E1,3.589233849E-3,4.611866474E0,7.480860710E0
1.114246991E1,1.926222295E-1,4.712365150E0,7.004689217E0
1.116133033E1,-1.495514214E-1,4.812863827E0,7.143472672E0
1.118019064E1,-5.012963414E-1,4.836791992E0,7.842176914E0
1.119904944E1,-5.682953596E-1,4.765007019E0,8.342276573E0
1.121790876E1,-6.161518097E-1,4.796113968E0,8.093423843E0
1.123676798E1,-5.802595019E-1,4.767399788E0,7.562216759E0
1.125562668E1,-3.266202807E-1,4.745864391E0,7.148258686E0
1.127448824E1,-8.733802289E-2,4.808077812E0,6.841977119E0
1.129335033E1,-3.481557071E-1,4.932504654E0,6.734599113E0
1.131220929E1,-6.161518097E-1,4.932504654E0,6.748956203E0
1.133106934E1,-6.592226624E-1,4.784149647E0,7.026224613E0
1.134992752E1,-7.884350419E-1,4.781756878E0,7.133901596E0
1.136878715E1,-9.032905698E-1,4.820042133E0,6.995117664E0
1.138764923E1,-8.147560954E-1,4.726722240E0,6.827620506E0
1.140650699E1,-7.405785918E-1,4.556831837E0,6.569494724E0
1.142536752E1,-7.740781307E-1,4.547260284E0,6.531209469E0
1.144422684E1,-8.650053740E-1,4.640580177E0,6.495316982E0
1.146308574E1,-6.101697683E-2,4.245764732E0,6.727420807E0
1.148194512E1,-2.404786795E-1,3.870091438E0,7.413861752E0
1.150080502E1,-1.408176184E0,3.913162231E0,7.220043182E0
1.151966361E1,-1.919941068E0,3.690928936E0,7.303792000E0
1.153852194E1,-1.317248821E0,3.298506021E0,7.519145966E0
1.155738366E1,-1.123430252E0,3.248256683E0,8.607880592E0
1.157624309E1,-1.243071318E0,2.927618504E0,9.596116066E0
1.159510350E1,-2.137687922E0,2.614158630E0,1.087597752E1
1.161396470E1,-2.824428082E0,2.501696110E0,1.128754234E1
1.163282580E1,-2.822035313E0,2.389233351E0,1.255095291E1
1.165168507E1,-2.668894529E0,3.176471949E0,1.412752438E1
1.167054658E1,-2.228615284E0,3.487539053E0,1.561556053E1
1.168940741E1,-2.235793591E0,2.973082066E0,1.682872200E1
1.170826736E1,-2.006082773E0,2.257628202E0,1.608216095E1
1.172712642E1,-2.197508574E0,2.147558212E0,1.310100269E1
1.174598637E1,-2.147259235E0,2.384447813E0,1.055294609E1
1.176484673E1,-2.008475542E0,3.016152859E0,9.500403404E0
1.178370783E1,-2.166401863E0,3.415754318E0,9.440582275E0
1.180256913E1,-2.216650963E0,3.169293642E0,9.258728027E0
1.182142908E1,-1.754836321E0,2.544766903E0,9.021839142E0
1.184029085E1,-1.266999602E0,2.245664120E0,9.112766266E0
1.185915121E1,-1.436890006E0,2.683550596E0,9.057730675E0
1.187801199E1,-1.549053550E0,3.186043262E0,8.184350967E0
1.189687220E1,-1.711765528E0,3.176471949E0,8.256134987E0
1.191573340E1,-2.209472656E0,3.121437073E0,9.021839142E0
1.193459293E1,-2.252543449E0,3.037688255E0,9.622437477E0
1.195345361E1,-2.082653046E0,3.013760090E0,9.770493507E0
1.197231314E1,-1.939083695E0,3.090330362E0,9.084052086E0
1.199117189E1,-1.654337764E0,3.174079180E0,8.514560699E0
1.201003340E1,-1.482054472E0,3.253042459E0,8.655736923E0
1.202889403E1,-1.474876046E0,3.090330362E0,8.983553886E0
1.204775330E1,-1.505982757E0,2.690729141E0,9.328120232E0
1.206661324E1,-1.706979871E0,2.317448616E0,1.009830952E1
1.208547324E1,-1.833799481E0,2.257628202E0,1.035194874E1
1.210433283E1,-1.706979871E0,2.334198475E0,9.837491989E0
1.212319330E1,-1.529910922E0,2.267199516E0,9.203693390E0
1.214205465E1,-1.589731574E0,2.161915302E0,8.385348320E0
1.216091621E1,-1.840977907E0,2.142772675E0,7.583752155E0
1.217977746E1,-1.829013824E0,2.104487419E0,7.447361469E0
1.219863955E1,-1.941476464E0,2.417947292E0,7.777570724E0
1.221749991E1,-1.628016710E0,2.085345030E0,7.181757927E0
1.223636069E1,-1.611266971E0,2.365305185E0,6.811169624E0
1.225522330E1,-9.391828775E-1,1.740778446E0,7.138687134E0
1.227408611E1,-2.512463741E-2,1.491924882E0,7.193722248E0
1.229294538E1,2.428714931E-1,1.886740685E0,7.086045265E0
1.231180746E1,-3.696911037E-1,2.142772675E0,8.050353050E0
1.233067007E1,-7.357929349E-1,1.532602906E0,1.117268753E1
1.234953168E1,-5.156532526E-1,6.020939946E-1,1.322303677E1
1.236839257E1,-8.147560954E-1,6.571289301E-1,1.218963718E1
1.238725137E1,-5.611169338E-1,7.313064337E-1,1.300529003E1
1.240611267E1,-1.417747378E0,1.257428288E0,1.418255901E1
1.242497215E1,-1.809871197E0,1.712064624E0,1.306511116E1
1.244383194E1,-1.429711580E0,1.970489502E0,1.108893871E1
1.246269132E1,-2.380858511E-1,1.164108157E0,1.137129116E1
1.248155121E1,1.389033556E0,6.762714982E-1,1.179960632E1
1.250041152E1,6.544370055E-1,2.166700840E0,1.209153080E1
1.251927085E1,-7.740781307E-1,3.174079180E0,1.288086319E1
1.253813090E1,-7.692924738E-1,2.444268227E0,1.141436195E1
1.255699152E1,3.840480447E-1,8.772686124E-1,8.954839706E0
1.257585205E1,8.338986635E-1,3.029911816E-1,7.715357304E0
1.259471413E1,5.682953596E-1,1.003789067E0,8.696414948E0
1.261357465E1,-2.751746029E-2,2.482553482E0,1.144068336E1
1.263243257E1,-7.094719410E-1,2.824727058E0,1.180917835E1
1.265129132E1,-7.190431952E-1,1.463211060E0,9.861420631E0
1.267015215E1,-3.696911037E-1,1.824527234E-2,7.952247143E0
1.268901309E1,-6.233302951E-1,-1.755733639E-1,6.739385128E0
1.270787392E1,-1.054038405E0,1.042074203E0,7.167401314E0
1.272673465E1,-1.183250785E0,1.822134495E0,9.639186859E0
1.274559361E1,-1.329213023E0,1.745564103E0,1.193121147E1
1.276445486E1,-1.829013824E0,1.295713425E0,1.022034359E1
1.278331637E1,-1.491625786E0,4.695914313E-2,7.947461128E0
1.280217762E1,-9.607182741E-1,-2.425723970E-1,8.153244019E0
1.282103824E1,-1.489233017E0,1.121037364E0,8.344670296E0
1.283989804E1,-1.848156333E0,2.164308071E0,7.811070442E0
1.285875835E1,-1.252642632E0,2.271985054E0,7.361219883E0
1.287762074E1,-6.305087805E-1,2.224128723E0,7.332505703E0
1.289648028E1,-4.486542344E-1,2.037488461E0,7.485646725E0
1.291534173E1,-1.974078715E-1,1.781456470E0,7.586144924E0
1.293420199E1,-7.190431952E-1,1.496710539E0,6.920940399E0
1.295306205E1,-1.365105271E0,1.377069473E0,5.550152302E0
1.297192090E1,-1.099501967E0,1.475175142E0,4.602594376E0
1.299078199E1,-5.443671346E-1,1.427318692E0,5.404190063E0
1.300964319E1,-6.951149702E-1,1.013360381E0,7.863712311E0
1.302850283E1,-2.065903187E0,5.207380056E-1,1.050030422E1
1.304736475E1,-4.181158543E0,5.207380056E-1,1.196949673E1
1.306622460E1,-5.494519234E0,8.509475589E-1,1.110808086E1
1.308508564E1,-4.781457901E0,1.262213945E0,1.047398281E1
1.310394658E1,-1.453639746E0,1.872383714E0,1.208674526E1
1.312280647E1,2.403291225E0,2.774477959E0,1.441226959E1
1.314166663E1,8.793623447E-1,2.805584431E0,1.568495274E1
1.316052720E1,-2.190330029E0,1.326820135E0,1.544596958E1
1.317938814E1,-3.403491020E0,6.308078766E-1,1.405334663E1
1.319824850E1,-3.200101137E0,9.272187948E-1,1.340728474E1
1.321711048E1,-2.424826622E0,1.558923960E0,1.390738392E1
1.323597267E1,-1.616052628E0,2.011167526E0,1.319910908E1
1.325483132E1,-1.243071318E0,2.114058733E0,1.100997543E1
1.327369147E1,-1.429711580E0,1.903490424E0,9.306584358E0
1.329255168E1,-1.666301847E0,1.611566067E0,9.174979210E0
1.331141173E1,-1.563410521E0,1.659422517E0,9.371191025E0
1.333027189E1,-1.255035520E0,1.958525300E0,8.794520378E0
1.334913252E1,-1.118644595E0,2.109273195E0,7.978568077E0
1.336799267E1,-1.429711580E0,2.286342144E0,6.999903679E0
1.338685324E1,-2.018046856E0,2.370090723E0,6.186643124E0
1.340571481E1,-2.097009897E0,2.590230465E0,6.320641041E0
1.342457705E1,-1.946262121E0,2.664407969E0,7.208079338E0
1.344343757E1,-1.970190287E0,2.472982168E0,8.473882675E0
1.346229725E1,-1.630409479E0,2.166700840E0,9.870991707E0
1.348115892E1,-9.559326172E-1,2.530410051E0,1.047159004E1
1.350002074E1,-6.233302951E-1,3.159722328E0,9.873384476E0
1.351888090E1,-2.811566591E-1,3.276970625E0,8.902197838E0
1.353774069E1,-4.701896608E-1,2.973082066E0,9.067302704E0
1.355660335E1,-1.042074203E0,2.743371248E0,9.964311600E0
1.357546642E1,-1.326820135E0,2.480160713E0,1.042851925E1
1.359432845E1,-1.326820135E0,2.279163599E0,9.859027863E0
1.361318725E1,-1.369890928E0,2.336591244E0,9.139086723E0
1.363204699E1,-1.826620936E0,2.336591244E0,8.373383522E0
1.365090658E1,-1.984547257E0,2.298306227E0,7.569395542E0
1.366976528E1,-2.008475542E0,2.346162558E0,7.098009109E0
1.368862460E1,-1.862513304E0,2.355733871E0,7.294220924E0
1.370748434E1,-1.680658817E0,2.410768747E0,7.523931503E0
1.372634767E1,-1.826620936E0,2.444268227E0,7.672286510E0
1.374520887E1,-1.960619092E0,2.331805706E0,7.590930939E0
1.376406877E1,-1.386640668E0,2.599801779E0,7.631608486E0
1.378293059E1,-6.664010882E-1,2.970689297E0,7.545466900E0
1.380179335E1,-2.859423161E-1,3.099901676E0,7.325327396E0
1.382065533E1,-5.144568533E-2,3.265006542E0,7.701000690E0
1.383951778E1,-1.734796464E-1,3.284149170E0,7.992925167E0
1.385838007E1,-4.426721856E-2,3.406183004E0,9.184550285E0
1.387724371E1,-4.199403822E-1,3.542573929E0,1.066062355E1
1.389610585E1,-2.165504545E-1,3.850949049E0,1.067019463E1
1.391496850E1,-6.305087805E-1,4.020839214E0,1.039262676E1
1.393383241E1,-7.788637877E-1,3.442075491E0,1.127557850E1
1.395269548E1,-6.807580590E-1,2.968296528E0,1.334267807E1
1.397155809E1,-7.645068169E-1,2.796013355E0,1.505115318E1
1.399041798E1,-6.089733839E-1,2.597409010E0,1.453669643E1
1.400928090E1,-6.807580590E-1,2.336591244E0,1.368485165E1
1.402814554E1,-1.372283816E0,2.147558212E0,1.343121243E1
1.404700642E1,-1.697408557E0,1.901097536E0,1.332114315E1
1.406586741E1,-1.451246977E0,1.805384636E0,1.225185013E1
1.408472804E1,-1.051645517E0,2.054238319E0,1.063190937E1
1.410358824E1,-8.291130662E-1,2.212164640E0,9.440582275E0
1.412244866E1,-8.985049129E-1,2.456232548E0,8.813663483E0
1.414130934E1,-4.199403822E-1,2.439482689E0,8.335098267E0
1.416016923E1,4.905286431E-2,2.654836655E0,7.727321625E0
1.417902892E1,3.433700502E-1,2.774477959E0,7.205686092E0
1.419788944E1,-1.196411322E-3,2.676372051E0,7.176972389E0
1.421675168E1,-3.170489967E-1,2.348555326E0,7.674679756E0
1.423561413E1,-1.902294010E-1,2.250449657E0,8.344670296E0
1.425447475E1,-1.567298770E-1,2.377269268E0,8.634201050E0
1.427333699E1,-2.620140910E-1,2.523231506E0,8.725129128E0
1.429219814E1,-1.567298770E-1,2.662015200E0,9.165408134E0
1.431106147E1,-2.883351147E-1,2.769692183E0,1.003848934E1
1.432992324E1,-6.185446382E-1,2.563909531E0,1.059840965E1
1.434878538E1,-7.980063558E-1,2.298306227E0,1.063669491E1
1.436764533E1,-7.238288522E-1,2.228914261E0,1.032802105E1
1.438650554E1,-5.754738450E-1,2.295913219E0,9.368798256E0
1.440536585E1,-4.247260094E-1,2.348555326E0,8.160422325E0
1.442422725E1,-5.635097623E-1,2.532802820E0,7.143472672E0
1.444308856E1,-1.147358418E0,2.494517565E0,6.892226696E0
1.446194923E1,-1.381855130E0,2.327019930E0,6.770491600E0
1.448081054E1,-1.240678549E0,2.372483730E0,6.552744865E0
1.449967074E1,-8.075776696E-1,2.422732830E0,6.423532486E0
1.451853194E1,-4.366901219E-1,2.597409010E0,5.997610092E0
1.453739517E1,-1.280160099E-1,2.685943365E0,5.468796253E0
1.455625679E1,-1.902294010E-1,2.671586514E0,5.327619553E0
1.457511804E1,-6.687939167E-1,2.774477959E0,6.196214199E0
1.459398142E1,-1.128215909E0,3.004188776E0,7.641180038E0
1.461284569E1,-1.116251707E0,3.207578659E0,8.820841789E0
1.463170897E1,-8.626125455E-1,3.681357622E0,9.521938324E0
1.465057298E1,-1.343569875E0,4.269692898E0,1.072522926E1
1.466943585E1,-6.664010882E-1,4.219443798E0,1.239781189E1
1.468829850E1,-3.721736431E0,3.497110367E0,1.635494232E1
1.470716137E1,-1.429711580E0,2.221735716E0,1.619462395E1
1.472602298E1,-9.320043921E-1,2.750549555E0,1.621615982E1
1.474488548E1,-6.161518097E-1,4.291228294E0,1.421366596E1
1.476374673E1,5.252245665E-1,4.657330036E0,1.270618725E1
1.478260694E1,4.773681164E-1,4.446761608E0,1.228056431E1
1.480146934E1,3.768695593E-1,3.908376694E0,1.074676514E1
1.482033059E1,4.941178858E-1,3.451646566E0,8.849555016E0
1.483919184E1,2.548356056E-1,3.056830883E0,7.624430180E0
1.485805132E1,-5.659025311E-1,2.511267424E0,8.320741653E0
1.487691241E1,-1.522732496E0,2.274377823E0,9.179764748E0
1.489577397E1,-2.008475542E0,2.322234392E0,9.076873779E0
1.491463554E1,-2.015654087E0,2.492124796E0,7.952247143E0
1.493349574E1,-1.807478428E0,2.815155745E0,6.975975513E0
1.495235720E1,-1.821835399E0,3.078366280E0,6.827620506E0
1.497121809E1,-1.958226204E0,3.016152859E0,7.337291718E0
1.499007975E1,-2.116152525E0,2.898904562E0,8.129315376E0
1.500893923E1,-2.159223318E0,2.884547710E0,8.899805069E0
1.502780100E1,-2.039582253E0,2.956332445E0,9.545866966E0
1.504666069E1,-1.711765528E0,3.111865759E0,9.770493507E0
1.506552246E1,-1.250249863E0,3.343969584E0,9.770493507E0
1.508438330E1,-9.080761671E-1,3.485146284E0,9.593723297E0
1.510324278E1,-7.094719410E-1,3.540181160E0,9.442975044E0
1.512210220E1,-6.281159520E-1,3.470789194E0,9.241978645E0
1.514096179E1,-6.185446382E-1,3.327219963E0,8.935696602E0
1.515982288E1,-6.592226624E-1,3.133401155E0,8.277670860E0
1.517868168E1,-6.855437160E-1,3.028116941E0,7.495217800E0
1.519754090E1,-6.281159520E-1,2.925225735E0,6.710670948E0
1.521640147E1,-5.706881881E-1,2.784049034E0,6.129215240E0
1.523526324E1,-7.142575383E-1,2.740978241E0,5.813362598E0
1.525412168E1,-8.578268886E-1,2.729014158E0,5.636293888E0
1.527298022E1,-9.439685345E-1,2.769692183E0,5.796612740E0
1.529184111E1,-9.248259664E-1,2.922832966E0,6.519245148E0
1.531070121E1,-6.424728632E-1,2.951546669E0,7.590930939E0
1.532956064E1,-2.117647976E-1,3.140579700E0,8.691629410E0
1.534842121E1,8.733802289E-2,3.602394581E0,9.538688660E0
1.536728142E1,7.190431952E-1,3.614358664E0,1.081376362E1
1.538614028E1,1.252642632E0,3.320041418E0,1.298854065E1
1.540499845E1,1.130608678E0,2.915654421E0,1.535743523E1
1.542385814E1,5.706881881E-1,2.719442844E0,1.556560993E1
1.544271955E1,1.495514214E-1,2.583052158E0,1.404856110E1
1.546157856E1,3.936193287E-1,2.688336134E0,1.346231937E1
1.548043725E1,5.180460811E-1,2.748156786E0,1.429980755E1
1.549929559E1,-1.208375469E-1,2.472982168E0,1.440509129E1
1.551815465E1,-1.068395257E0,2.623729944E0,1.291436291E1
1.553701642E1,-1.202393413E0,3.186043262E0,1.139043427E1
1.555587611E1,-6.113662124E-1,3.989732742E0,1.049073315E1
1.557473574E1,1.639083475E-1,4.762614250E0,9.995418549E0
1.559359392E1,8.291130662E-1,5.037788868E0,9.665508270E0
1.561245304E1,1.097109199E0,4.848755836E0,9.335298538E0
1.563131236E1,1.231107235E0,4.396512508E0,8.615058899E0
1.565017147E1,1.331605792E0,4.173980236E0,7.552645683E0
1.566903173E1,1.345962763E0,4.123730659E0,6.825526714E0
1.568788939E1,1.247856975E0,3.898805380E0,6.626922131E0
1.570674944E1,7.956135273E-1,3.513859987E0,6.956832886E0
1.572560772E1,1.686939895E-1,3.097508907E0,7.796713352E0
1.574446548E1,-2.452643216E-1,2.705085993E0,8.160422325E0
1.576332423E1,-5.467599630E-1,2.561516523E0,8.136494637E0
1.578218356E1,-7.477570772E-1,2.568695068E0,8.098209381E0
1.580104283E1,-6.951149702E-1,2.518445730E0,8.110173225E0
1.581990356E1,-5.539384484E-1,2.583052158E0,8.136494637E0
1.583876517E1,-4.438686073E-1,2.788834810E0,7.968996525E0
1.585762569E1,-3.194418252E-1,2.946761131E0,7.775177956E0
1.587648804E1,-2.069791555E-1,3.080759048E0,7.868498325E0
1.589534923E1,7.298108935E-2,3.142972469E0,8.296813011E0
1.591420861E1,4.151547253E-1,3.174079180E0,8.495417595E0
1.593306981E1,6.903293133E-1,3.131008387E0,8.107780457E0
1.595192981E1,7.214360237E-1,3.140579700E0,7.320541859E0
1.597079225E1,5.587241054E-1,3.305684566E0,6.717849731E0
1.598965106E1,5.898307562E-1,3.384647608E0,6.598208427E0
1.600851095E1,7.022934556E-1,3.422932863E0,7.050152779E0
1.602737111E1,5.395814776E-1,3.387040377E0,7.485646725E0
1.604622991E1,3.002992272E-1,3.276970625E0,6.992724895E0
1.606508975E1,-1.232303679E-1,3.391826153E0,6.375676155E0
1.608394913E1,-7.764709592E-1,3.643072367E0,6.468996048E0
1.610281074E1,-9.702895880E-1,3.810271025E0,7.382755280E0
1.612167319E1,-1.782652885E-1,3.736392498E0,8.792127609E0
1.614053257E1,5.084748268E-1,3.920340776E0,1.090469074E1
1.615939205E1,3.553341627E-1,3.659822226E0,1.341685581E1
1.617825007E1,-4.151547253E-1,3.095116138E0,1.507747459E1
1.619710861E1,-1.006181955E0,2.949153900E0,1.455583954E1
1.621596746E1,-8.051848412E-1,3.109472990E0,1.394327641E1
1.623482767E1,-9.212367237E-2,3.355933666E0,1.507747459E1
1.625368705E1,1.351944804E-1,3.052045345E0,1.604387665E1
1.627254455E1,-8.099704385E-1,2.800798893E0,1.490279865E1
1.629140184E1,-1.630409479E0,2.973082066E0,1.266580868E1
1.631026288E1,-1.089930773E0,3.061616659E0,1.076351452E1
1.632912283E1,-4.749752879E-1,3.293720484E0,9.390333176E0
1.634798403E1,-4.151547253E-1,3.592823267E0,8.148458481E0
1.636684382E1,-4.677968323E-1,3.540181160E0,7.062117100E0
1.638570293E1,-7.908278704E-1,3.296113253E0,6.634100914E0
1.640456085E1,-1.207179070E0,2.985046148E0,6.803991318E0
1.642341939E1,-1.429711580E0,2.807977438E0,7.188936710E0
1.644227965E1,-1.092323542E0,2.740978241E0,7.832605839E0
1.646114033E1,-6.664010882E-1,2.760120869E0,8.624629974E0
1.647999861E1,-5.491527915E-1,2.733799934E0,9.416654587E0
1.649885621E1,-5.419743061E-1,2.630908489E0,9.670293808E0
1.651771413E1,-5.563312769E-1,2.740978241E0,9.701400757E0
1.653657455E1,-2.811566591E-1,3.035295486E0,9.627223015E0
1.655543538E1,6.783652306E-1,3.308077335E0,9.450154305E0
1.657429673E1,1.628016710E0,3.655036688E0,9.249156952E0
1.659315663E1,1.434497118E0,3.853341818E0,9.081659317E0
1.661201580E1,6.305087805E-1,3.769891977E0,8.540881157E0
1.663087668E1,-2.045863420E-1,3.422932863E0,8.282456398E0
1.664973632E1,-7.860422134E-1,3.097508907E0,8.169993401E0
1.666859418E1,-1.066002488E0,2.989831924E0,8.059924126E0
1.668745361E1,-1.226321578E0,2.810370207E0,7.507182121E0
1.670631241E1,-1.015753269E0,2.772084951E0,6.614958286E0
1.672517080E1,-4.079762697E-1,2.932404041E0,5.846862316E0
1.674403184E1,2.141576260E-1,3.040081263E0,5.528616905E0
1.676289330E1,1.399801224E-1,3.147758245E0,5.736792088E0
1.678175632E1,-9.559326172E-1,3.035295486E0,6.404389858E0
1.680062069E1,-3.146561682E-1,2.961117983E0,7.490432262E0
1.681948194E1,4.223332107E-1,3.365504980E0,8.258528709E0
1.683834350E1,8.147560954E-1,3.755535126E0,8.799305916E0
1.685720533E1,5.898307562E-1,4.343870640E0,8.703593254E0
1.687606595E1,3.098705411E-1,4.652544498E0,8.576773643E0
1.689492642E1,6.640082598E-1,4.398905277E0,1.028016472E1
1.691378908E1,5.563312769E-1,3.578466177E0,1.400309753E1
1.693265111E1,-2.213360965E-1,3.253042459E0,1.626880074E1
1.695151038E1,-3.194418252E-1,3.226721287E0,1.578784370E1
1.697037376E1,9.690931439E-2,2.731407166E0,1.508704567E1
1.698923705E1,5.826523304E-1,2.461018085E0,1.466830158E1
1.700809955E1,7.118647099E-1,2.544766903E0,1.347667599E1
1.702696152E1,5.946164131E-1,2.743371248E0,1.150768185E1
1.704582512E1,6.329016089E-1,2.992224693E0,9.744471550E0
1.706468647E1,4.247260094E-1,3.308077335E0,8.677271843E0
1.708354830E1,-3.589233849E-3,3.564109325E0,8.105387688E0
1.710240934E1,-1.830509305E-1,3.621536970E0,8.160422325E0
1.712127111E1,-1.447657645E-1,3.690928936E0,8.409276009E0
1.714013069E1,1.902294010E-1,3.736392498E0,8.847162247E0
1.715899178E1,5.587241054E-1,3.640679598E0,9.208478928E0
1.717785199E1,6.879364848E-1,3.439682484E0,9.282656670E0
1.719671210E1,7.477570772E-1,3.238685369E0,9.275477409E0
1.721557356E1,9.870393276E-1,3.032902718E0,9.122337341E0
1.723443397E1,1.269392371E0,2.870190859E0,8.856734276E0
1.725329512E1,1.276570916E0,2.831905603E0,8.717949867E0
1.727215512E1,1.159322619E0,2.853441000E0,8.887840271E0
1.729101762E1,9.870393276E-1,2.822334290E0,9.179764748E0
1.730987970E1,7.573283911E-1,2.803191662E0,9.323334694E0
1.732874319E1,6.305087805E-1,2.903690338E0,9.096015930E0
1.734760361E1,6.185446382E-1,3.099901676E0,8.722735405E0
1.736646288E1,7.214360237E-1,3.205185890E0,8.282456398E0
1.738532533E1,7.597211599E-1,3.281756163E0,8.083851814E0
1.740418658E1,4.558327198E-1,3.238685369E0,8.296813011E0
1.742304902E1,2.404786795E-1,2.970689297E0,8.598309517E0
1.744191163E1,2.189432681E-1,2.707478762E0,8.543273926E0
1.746077272E1,5.826523304E-1,2.702693224E0,7.995317936E0
1.747963423E1,5.659025311E-1,2.774477959E0,6.473781586E0
1.749849626E1,9.774680734E-1,2.743371248E0,5.502295494E0
1.751735678E1,1.219143152E0,2.901297569E0,5.767899036E0
1.753621554E1,1.099501967E0,3.030509949E0,6.660421848E0
1.755507627E1,4.414757788E-1,2.932404041E0,7.301399231E0
1.757393715E1,-8.973085135E-2,2.827120066E0,7.844570160E0
1.759279783E1,3.098705411E-1,2.963510752E0,8.284849167E0
1.761165574E1,8.889335990E-1,3.377469063E0,8.320741653E0
1.763051814E1,1.209571838E0,3.937090635E0,8.014460564E0
1.764937955E1,1.336391449E0,4.437190533E0,8.045567513E0
1.766824449E1,1.553839207E0,4.674079895E0,9.107980728E0
1.768710705E1,1.594517231E0,4.549653053E0,1.140718365E1
1.770597085E1,1.070788145E0,3.970590115E0,1.469223022E1
1.772483158E1,5.706881881E-1,3.442075491E0,1.654636765E1
1.774369304E1,5.108676553E-1,3.600001574E0,1.513490200E1
1.776255314E1,5.276173949E-1,3.803391695E0,1.312493134E1
1.778141600E1,3.720839322E-1,3.745963812E0,1.177328587E1
1.780027663E1,2.548356056E-1,3.516252756E0,1.095254707E1
1.781913866E1,3.589233849E-3,3.681357622E0,1.088076305E1
1.783800059E1,-5.730810165E-1,3.731606960E0,1.057926750E1
1.785686100E1,-5.156532526E-1,3.329612732E0,1.026580715E1
1.787572173E1,-2.739782035E-1,3.379862070E0,9.402297020E0
1.789458074E1,-2.859423161E-1,3.595216036E0,8.313563347E0
1.791344059E1,-2.428714931E-1,3.528217077E0,7.464111328E0
1.793230304E1,-3.505485058E-1,3.499503136E0,7.284649372E0
1.795116199E1,-7.429714203E-1,3.375076294E0,7.892426491E0
1.797002548E1,-7.932206988E-1,3.202793121E0,8.720342636E0
1.798888798E1,-5.539384484E-1,3.193221807E0,9.163015366E0
1.800775033E1,-3.696911037E-1,3.401397467E0,9.265906334E0
1.802661288E1,-1.196411322E-3,3.480360508E0,8.828020096E0
1.804547569E1,4.247260094E-1,3.468396425E0,8.241778374E0
1.806433720E1,1.519442350E-1,3.449253798E0,8.081459045E0
1.808319746E1,-3.577269912E-1,3.341576815E0,8.469096184E0
1.810205840E1,-5.324030519E-1,3.293720484E0,8.918947220E0
1.812092022E1,-3.074777126E-1,3.265006542E0,9.273084641E0
1.813978189E1,-2.141576260E-1,3.265006542E0,9.447761536E0
1.815864434E1,-2.787638307E-1,3.274577856E0,9.356833458E0
1.817750548E1,-3.864408433E-1,3.315255880E0,9.012267113E0
1.819636559E1,-4.055834413E-1,3.339184046E0,8.808876991E0
1.821522616E1,-5.036891699E-1,3.279363394E0,8.926125526E0
1.823408595E1,-5.252245665E-1,3.119044304E0,8.756235123E0
1.825294830E1,-4.630111754E-1,3.025724173E0,8.019246101E0
1.827180986E1,-2.835494876E-1,3.011367321E0,7.033402920E0
1.829066981E1,-1.076770201E-2,3.035295486E0,6.265605927E0
1.830952996E1,3.469592705E-2,3.030509949E0,5.866004944E0
1.832839215E1,-2.213360965E-1,2.992224693E0,6.047859192E0
1.834725449E1,-2.404786795E-1,2.977867842E0,6.440282345E0
1.836611449E1,-9.930214286E-2,3.147758245E0,6.858726978E0
1.838497585E1,1.375873089E-1,3.406183004E0,7.590930939E0
1.840383835E1,3.744767308E-1,3.475574970E0,8.531310081E0
1.842269902E1,4.701896608E-1,3.444468260E0,9.167800903E0
1.844156220E1,1.950150430E-1,3.743571043E0,9.464510918E0
1.846042418E1,-1.208375469E-1,4.121337891E0,9.957133293E0
1.847928663E1,1.830509305E-1,4.128516197E0,1.073240757E1
1.849814814E1,9.176474810E-1,3.922733545E0,1.192642593E1
1.851700845E1,1.056431174E0,3.209971666E0,1.339771271E1
1.853586699E1,4.606183469E-1,2.865405083E0,1.337139225E1
1.855472694E1,3.002992272E-1,3.427718401E0,1.177089310E1
1.857358939E1,6.568298340E-1,3.274577856E0,1.221117210E1
1.859244960E1,1.615155339E-1,2.671586514E0,1.447448349E1
1.861131252E1,3.589233849E-3,2.389233351E0,1.526172161E1
1.863017350E1,3.577269912E-1,2.781656265E0,1.383559990E1
1.864903366E1,5.228317380E-1,3.365504980E0,1.165125179E1
1.866789470E1,3.840480447E-1,3.288934708E0,9.885348320E0
1.868675533E1,-1.447657645E-1,3.382254839E0,9.191729546E0
1.870561460E1,-4.342973232E-1,3.343969584E0,9.603294373E0
1.872447564E1,-8.494520187E-2,3.068794966E0,9.440582275E0
1.874333590E1,2.476571500E-1,3.140579700E0,8.459525108E0
1.876219632E1,4.677968323E-1,3.188436270E0,7.574181080E0
1.878105689E1,6.233302951E-1,2.973082066E0,7.626822948E0
1.879991694E1,7.956135273E-1,2.772084951E0,8.016853333E0
1.881877678E1,1.010967612E0,2.595016241E0,8.562417030E0
1.883763944E1,1.116251707E0,2.437089920E0,8.777770996E0
1.885650153E1,1.142572761E0,2.370090723E0,8.751449585E0
1.887536403E1,1.013360381E0,2.324627161E0,8.679664612E0
1.889422590E1,6.400800347E-1,2.307877541E0,8.619844437E0
1.891308767E1,4.366901219E-1,2.370090723E0,8.708378792E0
1.893194783E1,4.199403822E-1,2.489732027E0,8.768199921E0
1.895080866E1,3.529413342E-1,2.611765862E0,8.713164330E0
1.896966767E1,1.328016520E-1,2.590230465E0,8.430811882E0
1.898852767E1,-1.184447184E-1,2.595016241E0,8.203493118E0
1.900738757E1,-1.902294010E-1,2.575873613E0,8.344670296E0
1.902624830E1,1.076770201E-2,2.561516523E0,8.684451103E0
1.904510772E1,3.385843933E-1,2.513660192E0,8.631808281E0
1.906396778E1,5.467599630E-1,2.556730986E0,7.952247143E0
1.908282757E1,5.371887088E-1,2.664407969E0,7.121937275E0
1.910168975E1,6.340979785E-2,2.752942562E0,6.480959892E0
1.912054819E1,-2.476571500E-1,2.690729141E0,6.660421848E0
1.913940772E1,2.883351147E-1,2.848655462E0,7.028617382E0
1.915826736E1,9.535398483E-1,3.456432343E0,7.772785187E0
1.917712663E1,1.324427366E0,3.489931822E0,8.385348320E0
1.919598663E1,1.106680512E0,3.064009428E0,8.461917877E0
1.921484663E1,5.922235847E-1,3.061616659E0,8.902197838E0
1.923370845E1,4.797609448E-1,3.406183004E0,9.323334694E0
1.925257152E1,6.879364848E-1,3.913162231E0,9.402297020E0
1.927143153E1,7.262216806E-1,4.346263409E0,9.730113983E0
1.929029439E1,4.510470629E-1,4.506582260E0,1.090469074E1
1.930915314E1,4.366901219E-1,4.013660908E0,1.276840115E1
1.932801267E1,1.112662554E-1,3.272184849E0,1.472812271E1
1.934687517E1,-5.862415582E-2,3.018545866E0,1.539093399E1
1.936573486E1,-1.794617064E-2,3.128615618E0,1.393849087E1
1.938459699E1,-5.156532526E-1,2.989831924E0,1.288804150E1
1.940345741E1,-9.272187948E-1,2.762513638E0,1.259641647E1
1.942231778E1,-8.793623447E-1,3.023331404E0,1.256291676E1
1.944117991E1,-8.506484628E-1,3.707678795E0,1.343839073E1
1.946003949E1,-1.702194214E0,2.449054003E0,1.177567863E1
1.947889694E1,-8.769695163E-1,2.922832966E0,9.002696037E0
1.949775652E1,-8.362914920E-1,3.403790236E0,7.629215717E0
1.951661496E1,-4.797609448E-1,4.095016956E0,7.066902637E0
1.953547496E1,-2.500499785E-1,4.092624187E0,6.277570248E0
1.955433543E1,9.930214286E-2,3.937090635E0,6.344569206E0
1.957319538E1,-4.462614357E-1,3.810271025E0,7.083652496E0
1.959205397E1,-9.559326172E-1,3.511467218E0,7.748857021E0
1.961091350E1,-1.188036442E0,3.214757204E0,8.483453751E0
1.962977444E1,-1.075573802E0,3.226721287E0,8.923732758E0
1.964863533E1,-7.214360237E-1,3.420539856E0,9.366405487E0
1.966749663E1,-3.696911037E-1,3.518645763E0,9.416654587E0
1.968635767E1,-1.016949639E-1,3.468396425E0,8.983553886E0
1.970522059E1,1.088734269E-1,3.477967739E0,8.392526627E0
1.972408100E1,-8.255238086E-2,3.482753277E0,8.074280739E0
1.974294163E1,3.589233849E-3,3.454039574E0,8.483453751E0
1.976180298E1,1.040877849E-1,3.387040377E0,8.837591171E0
1.978066366E1,2.141576260E-1,3.360719442E0,8.964410782E0
1.979952231E1,-4.187439755E-2,3.241078377E0,8.868698120E0
1.981838028E1,-5.180460811E-1,2.961117983E0,8.540881157E0
1.983724064E1,-7.357929349E-1,2.669193745E0,8.007282257E0
1.985609981E1,-5.898307562E-1,2.535195589E0,7.557431221E0
1.987496074E1,-4.103690982E-1,2.664407969E0,7.071688175E0
1.989382173E1,-5.850451589E-1,2.671586514E0,6.815955162E0
1.991268225E1,-7.501499057E-1,2.638087034E0,6.703492641E0
1.993154408E1,-8.291130662E-1,2.561516523E0,6.478567123E0
1.995040283E1,-7.716853023E-1,2.764906645E0,6.198606968E0
1.996926621E1,-7.298108935E-2,3.209971666E0,6.672386169E0
1.998812658E1,8.434699774E-1,3.662214994E0,7.444968700E0
2.000698517E1,7.740781307E-1,3.956233025E0,8.110173225E0
2.002584241E1,4.797609448E-1,4.068696022E0,8.708378792E0
2.004470324E1,5.156532526E-1,4.458725929E0,9.270691872E0
2.006356319E1,4.247260094E-1,5.059324265E0,9.839884758E0
2.008242241E1,2.189432681E-1,5.097609520E0,1.083051395E1
2.010128382E1,3.385843933E-1,4.477868557E0,1.253659630E1
2.012014116E1,7.776673883E-2,3.506681681E0,1.491954803E1
2.013900324E1,-4.175475538E-1,2.865405083E0,1.569930935E1
2.015786262E1,-1.016949639E-1,2.683550596E0,1.435962772E1
2.017672538E1,3.888336718E-1,2.815155745E0,1.273011589E1
2.019558569E1,8.769695163E-1,2.829512835E0,1.213460159E1
2.021444606E1,7.429714203E-1,2.681157827E0,1.207717419E1
2.023330585E1,3.888336718E-1,2.659622431E0,1.140000534E1
2.025216600E1,3.385843933E-1,2.827120066E0,1.051705360E1
2.027102840E1,1.639083475E-1,3.135794163E0,9.739685059E0
2.028989043E1,-1.184447184E-1,3.327219963E0,9.136693954E0
2.030874944E1,-5.982056726E-3,3.365504980E0,8.837591171E0
2.032760944E1,4.271188378E-1,3.556930780E0,8.679664612E0
2.034646965E1,8.889335990E-1,3.542573929E0,8.411668777E0
2.036532991E1,9.248259664E-1,3.396611691E0,7.947461128E0
2.038418955E1,1.123430252E0,3.461217880E0,7.401897907E0
2.040304934E1,8.985049129E-1,3.018545866E0,8.275278091E0
2.042190840E1,1.018146038E0,2.657229662E0,8.950054169E0
2.044076736E1,1.283749342E0,2.798406124E0,9.124730110E0
2.045962746E1,1.159322619E0,2.882154942E0,9.342476845E0
2.047848913E1,7.836494446E-1,2.762513638E0,9.428618431E0
2.049734850E1,5.706881881E-1,2.640479803E0,9.179764748E0
2.051620788E1,5.204389095E-1,2.554338217E0,8.971589088E0
2.053506778E1,5.946164131E-1,2.769692183E0,8.811270714E0
2.055392856E1,6.305087805E-1,3.011367321E0,8.440382957E0
2.057278731E1,5.587241054E-1,3.095116138E0,7.978568077E0
2.059164757E1,9.104689956E-1,3.525824070E0,8.122137070E0
2.061050580E1,6.568298340E-1,3.533002615E0,8.315956116E0
2.062936465E1,8.291130662E-1,3.482753277E0,7.696215153E0
2.064822491E1,9.200403094E-1,3.568894863E0,6.380461693E0
2.066708554E1,3.002992272E-1,3.322434187E0,5.956932068E0
2.068594746E1,7.776673883E-2,3.064009428E0,6.346961975E0
2.070480736E1,3.840480447E-1,2.805584431E0,6.471388817E0
2.072366569E1,4.414757788E-1,2.932404041E0,6.588637352E0
2.074252720E1,3.469592705E-2,3.375076294E0,7.234400272E0
2.076138861E1,7.118647099E-1,3.236292601E0,7.657929897E0
2.078025012E1,1.869691849E0,3.049652576E0,8.196314812E0
2.079911163E1,1.972583175E0,3.018545866E0,8.521739006E0
2.081797080E1,2.082653046E0,2.561516523E0,9.332905769E0
2.083683033E1,9.559326172E-1,3.147758245E0,1.000738239E1
2.085568996E1,-9.655039310E-1,4.566402912E0,1.014616585E1
2.087455069E1,-1.147358418E0,5.844170094E0,1.008634567E1
2.089340955E1,2.075474501E0,6.179165363E0,1.121336555E1
2.091226845E1,3.337987661E-1,5.454140186E0,1.413948822E1
2.093112689E1,-2.692822695E0,4.879862785E0,1.321585846E1
2.094999048E1,-2.077867270E0,5.224429131E0,1.095493984E1
2.096885095E1,-2.362613201E0,4.128516197E0,1.379252911E1
2.098771220E1,-1.613659739E0,3.652643681E0,1.414666653E1
2.100657246E1,-8.554341197E-1,4.073481560E0,1.253898907E1
2.102543377E1,-8.602197170E-1,3.819842339E0,1.084726334E1
2.104429408E1,-4.187439755E-2,3.229114056E0,9.703793526E0
2.106315179E1,1.160518974E-1,3.389433384E0,9.459725380E0
2.108201007E1,2.572284341E-1,3.853341818E0,9.227621078E0
2.110086991E1,4.366901219E-1,4.322334766E0,8.751449585E0
2.111973116E1,-4.666004330E-2,4.731507778E0,8.057531357E0
2.113858960E1,-2.452643216E-1,4.391726971E0,8.595915794E0
2.115745002E1,-4.127618968E-1,4.276871204E0,9.533903122E0
2.117631028E1,-9.678967595E-1,4.803292274E0,8.610273361E0
2.119516970E1,-1.532303810E0,4.688436985E0,6.361319065E0
2.121402944E1,-1.204786181E0,3.963411570E0,7.236793041E0
2.123288918E1,-1.068395257E0,3.848556042E0,7.578966618E0
2.125174918E1,-7.453642488E-1,4.028017998E0,7.928318501E0
2.127060944E1,-5.491527915E-1,3.815056562E0,8.519346237E0
2.128946892E1,-6.089733839E-1,3.399004459E0,7.842176914E0
2.130832830E1,-8.410771489E-1,3.075973511E0,8.239385605E0
2.132718637E1,-1.147358418E0,2.915654421E0,9.483653069E0
2.134604647E1,-8.219345808E-1,2.530410051E0,9.801599503E0
2.136490538E1,-7.884350419E-1,2.444268227E0,8.311170578E0
2.138376460E1,-1.001396298E0,2.824727058E0,8.091031075E0
2.140262600E1,-1.037288666E0,2.484946251E0,7.712964535E0
2.142148528E1,-1.252642632E0,2.420340061E0,6.913762093E0
2.144034465E1,-2.460718870E0,3.698107481E0,7.519145966E0
2.145920455E1,-3.216850996E0,4.504189491E0,7.320541859E0
2.147806423E1,-3.934697628E0,5.138287544E0,6.315855503E0
2.149692392E1,-4.331906319E0,5.576174259E0,6.440282345E0
2.151578382E1,-3.645166159E0,4.946861744E0,6.928118706E0
2.153464449E1,-2.408077002E0,3.750749588E0,7.760821342E0
2.155350423E1,-1.845763564E0,3.303291559E0,8.705986023E0
2.157236283E1,-1.829013824E0,3.958626032E0,8.177172661E0
2.159122168E1,-2.429612398E0,5.305785179E0,8.136494637E0
2.161008314E1,-2.757428885E0,5.913562298E0,7.849355698E0
2.162894548E1,-3.781557083E0,6.353841305E0,7.811070442E0
2.164780767E1,-4.355834484E0,6.425626278E0,9.947562218E0
2.166666564E1,-3.683451414E0,5.896812439E0,1.227099228E1
2.168552673E1,-3.300599813E0,5.753242970E0,1.248634720E1
2.170438606E1,-3.441776276E0,5.434997559E0,1.182353497E1
2.172324252E1,-3.570988655E0,5.226821899E0,1.218006516E1
2.174210314E1,-4.245764732E0,5.738885880E0,1.234277725E1
2.176096194E1,-4.451248169E0,5.913562298E0,9.976275444E0
2.177982215E1,-4.484747887E0,5.363213062E0,7.509574890E0
2.179868210E1,-4.520640373E0,5.753242970E0,8.282456398E0
2.181754022E1,-4.272085667E0,5.686244011E0,7.303792000E0
2.183639699E1,-3.764807224E0,5.391926765E0,7.916354656E0
2.185712291E1,-2.432005167E0,4.470689774E0,7.145865917E0
2.187598025E1,-1.326820135E0,4.240979195E0,8.744271278E0
2.189483911E1,-2.356930375E-1,4.059124470E0,9.134301186E0
2.191369494E1,-1.283749342E0,4.197908401E0,8.193922043E0
2.193255109E1,-2.235793591E0,4.169194221E0,8.076673508E0
2.195141057E1,-2.140080690E0,3.889234066E0,8.177172661E0
2.197026963E1,-1.762014747E0,3.724428415E0,8.045567513E0
2.198912697E1,-1.211964726E0,3.949054718E0,7.629215717E0
2.200798510E1,-1.235892892E0,4.415655136E0,7.875676632E0
2.202684317E1,-1.154536963E0,4.585545540E0,8.985946655E0
2.204570010E1,-1.133001566E0,4.535296440E0,9.500403404E0
2.206455614E1,-9.080761671E-1,4.439583302E0,9.237193108E0
2.208341067E1,-8.530412912E-1,4.346263409E0,8.617451668E0
2.210226676E1,-9.870393276E-1,4.367798805E0,8.493024826E0
2.212112385E1,-6.448656917E-1,4.398905277E0,9.206086159E0
2.213997869E1,-3.936193287E-1,4.262514591E0,9.935597420E0
2.215883531E1,-7.429714203E-1,3.898805380E0,1.000020409E1
2.217769426E1,-1.051645517E0,3.492324591E0,9.392725945E0
2.219655156E1,-1.274178028E0,3.391826153E0,8.694022179E0
2.221541171E1,-1.482054472E0,3.430111170E0,8.076673508E0
2.223426885E1,-9.511470199E-1,3.303291559E0,7.765606880E0
2.225312833E1,5.982056726E-3,2.882154942E0,8.725129128E0
2.227198765E1,-1.998006850E-1,2.647658348E0,9.308977127E0
2.229084630E1,-9.487541914E-1,2.571087837E0,9.230013847E0
2.230970447E1,-1.369890928E0,2.145165443E0,8.933303833E0
2.232856400E1,-1.489233017E0,1.896311998E0,7.691429138E0
2.234742505E1,-1.484447360E0,2.118844509E0,7.437789917E0
2.236628458E1,-1.197607756E0,2.319841623E0,7.318149090E0
2.238514442E1,-1.022931695E0,2.094916344E0,7.095616341E0
2.240400322E1,-8.961120844E-1,1.647458434E0,6.808776855E0
2.242286051E1,-8.889335990E-1,1.216750264E0,6.658029079E0
2.244171713E1,-6.711867452E-1,9.631111026E-1,6.727420807E0
2.246057609E1,-6.305087805E-1,9.343972206E-1,7.299006462E0
2.247943411E1,-9.451649338E-2,1.207179070E0,8.009675026E0
2.249829421E1,5.252245665E-1,1.403390527E0,8.777770996E0
2.251715296E1,1.423729509E-1,2.078166485E0,8.916554451E0
2.253600999E1,4.582255483E-1,8.817551732E-1,9.782457352E0
2.255486869E1,8.841479421E-1,-2.688934505E-1,1.024666500E1
2.257372682E1,5.994020700E-1,-7.043871880E-1,1.220877934E1
2.259258291E1,9.343972206E-1,-8.647062778E-1,1.548186207E1
2.261144010E1,1.783550143E0,-1.697408557E0,1.738864136E1
2.263029671E1,2.357827663E0,-3.254837036E0,1.594098473E1
2.264915296E1,3.135494947E0,-5.233402252E0,1.372313690E1
2.266801161E1,3.760021687E0,-6.049354553E0,1.439552021E1
2.268687010E1,1.687837243E0,-3.065804005E0,1.415623760E1
2.270572921E1,-5.874379873E-1,-1.144666553E0,1.142393398E1
2.272458713E1,-5.862415582E-2,-1.584945917E0,8.600702286E0
2.274344520E1,1.247856975E0,-1.726122379E0,8.052745819E0
2.276230286E1,1.312463164E0,-5.225326419E-1,8.406883240E0
2.278116229E1,9.607182741E-1,-1.516451389E-1,9.839884758E0
2.280002255E1,5.754738450E-1,-6.637091637E-1,1.202213955E1
2.281888078E1,-1.519442350E-1,-8.048857450E-1,1.313928795E1
2.283774119E1,-5.515456200E-1,-9.149555564E-1,1.233320618E1
2.285660203E1,-2.739782035E-1,-1.185344458E0,1.151486111E1
2.287546364E1,-8.434699774E-1,-7.618148923E-1,1.073240757E1
2.289432583E1,-2.202294111E0,-3.861417472E-1,8.844769478E0
2.291318729E1,-2.219043970E0,2.670988142E-1,5.339583874E0
2.293204999E1,-1.797907114E0,6.020939946E-1,6.086144447E0
2.295091171E1,-1.360319614E0,5.135595798E-1,8.246563911E0
2.296977531E1,-9.631111026E-1,7.169494629E-1,9.261120796E0
2.298863650E1,-6.640082598E-1,1.809572130E-1,9.854242325E0
2.300749619E1,-8.937192559E-1,5.350949764E-1,9.478867531E0
2.302635525E1,-1.101894855E0,1.077966571E0,8.638986588E0
2.304521479E1,-3.314059377E-1,9.583254457E-1,7.935497284E0
2.306407255E1,6.185446382E-1,1.001396298E0,7.734499931E0
2.308293192E1,1.125823021E0,1.101894855E0,7.856534004E0
2.310179130E1,9.248259664E-1,9.367900491E-1,8.181958199E0
2.312064968E1,5.754738450E-1,6.762714982E-1,8.325527191E0
2.313950979E1,1.016949639E-1,7.552346587E-1,8.203493118E0
2.315836791E1,-2.069791555E-1,1.032503009E0,7.959425449E0
2.317722593E1,-2.093719840E-1,1.085145116E0,7.890033722E0
2.319608624E1,-3.194418252E-1,9.080761671E-1,7.983353615E0
2.321494385E1,-4.199403822E-1,7.432705164E-1,8.064709663E0
2.323380458E1,-4.630111754E-1,6.236293912E-1,7.899604797E0
2.325266354E1,-6.472585201E-1,6.044868231E-1,7.555038452E0
2.327152421E1,-7.166503668E-1,8.030911088E-1,7.624430180E0
2.329038338E1,-6.137589812E-1,7.360920906E-1,8.024031639E0
2.330924546E1,-5.228317380E-1,5.135595798E-1,8.426025391E0
2.332810635E1,-9.798609018E-1,4.920241535E-1,9.208478928E0
2.334696676E1,-1.345962763E0,5.709872842E-1,1.013180923E1
2.336582723E1,-1.403390527E0,6.308078766E-1,1.069651508E1
2.338468609E1,-1.152144074E0,9.535398483E-1,1.097169018E1
2.340354442E1,-4.414757788E-1,1.300499082E0,1.217288685E1
2.342240411E1,1.399801224E-1,1.384247899E0,1.369442272E1
2.344126572E1,1.998006850E-1,1.341177106E0,1.444337654E1
2.346012755E1,7.298108935E-2,1.324427366E0,1.470897961E1
2.347898989E1,-5.862415582E-2,1.377069473E0,1.479990673E1
2.349785078E1,-5.874379873E-1,1.219143152E0,1.436441326E1
2.351671239E1,-1.410568953E0,1.365105271E0,1.313928795E1
2.353557150E1,-1.747657895E0,1.771885157E0,1.148853970E1
2.355443265E1,-1.432104349E0,2.164308071E0,1.024187946E1
2.357328963E1,-1.298106313E0,2.489732027E0,9.246764183E0
2.359214525E1,-1.412961721E0,2.683550596E0,8.342276573E0
2.361100463E1,-1.522732496E0,2.740978241E0,7.586144924E0
2.362986229E1,-1.517946839E0,2.712264538E0,6.975975513E0
2.364872192E1,-1.680658817E0,2.721835852E0,6.746563435E0
2.366758354E1,-1.939083695E0,2.896511793E0,7.066902637E0
2.368644197E1,-1.939083695E0,3.135794163E0,7.677072525E0
2.370530156E1,-1.982154489E0,3.178864956E0,8.251349449E0
2.372416072E1,-1.802692771E0,3.181257725E0,8.612666130E0
2.374302109E1,-1.405783296E0,3.209971666E0,9.471689224E0
2.376188176E1,-9.774680734E-1,3.040081263E0,1.056730270E1
2.378074145E1,-7.190431952E-1,2.822334290E0,1.134257793E1
2.379960046E1,-8.985049129E-1,2.745764017E0,1.152203941E1
2.381845854E1,-1.149751306E0,2.640479803E0,1.154118156E1
2.383731765E1,-1.068395257E0,2.484946251E0,1.118943691E1
2.385617817E1,-1.034895778E0,2.508874655E0,1.063908768E1
2.387503822E1,-9.942178130E-1,2.630908489E0,1.014138031E1
2.389389926E1,-7.381857634E-1,2.786442041E0,9.713364601E0
2.391275874E1,-4.630111754E-1,2.903690338E0,9.318549156E0
2.393161979E1,-2.476571500E-1,2.946761131E0,8.933303833E0
2.395047869E1,-6.101697683E-2,2.918047190E0,8.875876427E0
2.396933578E1,1.076770201E-2,2.822334290E0,9.117551804E0
2.398819437E1,5.623133108E-2,2.717050076E0,9.526723862E0
2.400705281E1,4.666004330E-2,2.575873613E0,9.682257652E0
2.402591078E1,2.991028316E-2,2.532802820E0,9.550652504E0
2.404476666E1,-3.230310604E-2,2.506481647E0,9.282656670E0
2.406362447E1,-1.710868180E-1,2.468196630E0,8.839983940E0
2.408248156E1,-3.936193287E-1,2.465803623E0,8.464310646E0
2.410134072E1,-5.539384484E-1,2.338984251E0,8.296813011E0
2.412020140E1,-8.219345808E-1,2.233700037E0,8.150851250E0
2.413906176E1,-9.391828775E-1,2.317448616E0,8.074280739E0
2.415792275E1,-1.278963685E0,2.209771633E0,7.957032681E0
2.417678036E1,-1.125823021E0,2.197807550E0,7.959425449E0
2.419563979E1,-8.075776696E-1,2.405983210E0,7.837391376E0
2.421449786E1,-3.457628787E-1,2.348555326E0,7.741678715E0
2.423335479E1,1.567298770E-1,2.614158630E0,7.583752155E0
2.425221145E1,3.230310604E-2,2.834298372E0,7.500003338E0
2.427107203E1,-3.696911037E-1,2.673979282E0,7.720143318E0
2.428993124E1,-7.262216806E-1,2.470589399E0,8.268099785E0
2.430878906E1,-6.305087805E-1,2.281556368E0,8.761020660E0
2.432764666E1,-1.423729509E-1,2.353341103E0,9.263513565E0
2.434650468E1,1.447657645E-1,2.681157827E0,9.617651939E0
2.436536395E1,2.644068897E-1,2.688336134E0,9.684650421E0
2.438422307E1,1.974078715E-1,2.901297569E0,9.067302704E0
2.440308098E1,2.979064286E-1,3.339184046E0,8.859127045E0
2.442193958E1,4.654040039E-1,3.372683525E0,9.961918831E0
2.444079796E1,2.644068897E-1,2.886940479E0,1.225663567E1
2.445965942E1,-4.366901219E-1,2.037488461E0,1.432612801E1
2.447851911E1,-1.049252748E0,1.377069473E0,1.499851131E1
2.449737697E1,-9.439685345E-1,1.314856052E0,1.404377556E1
2.451623385E1,-3.744767308E-1,1.972882271E0,1.277797222E1
2.453509229E1,2.285145670E-1,2.472982168E0,1.174217892E1
2.455395130E1,4.103690982E-1,2.528017044E0,1.068215847E1
2.457280973E1,3.589233849E-3,2.585444927E0,9.555438042E0
2.459166926E1,-2.356930375E-1,2.898904562E0,8.928518295E0
2.461052942E1,-3.589233849E-3,3.224328518E0,9.017052650E0
2.462938828E1,3.505485058E-1,3.329612732E0,9.543474197E0
2.464824510E1,3.672982752E-1,3.317648649E0,1.024666500E1
2.466710312E1,5.898307562E-1,3.152543783E0,1.045962620E1
2.468596218E1,1.133001566E0,3.016152859E0,9.906884193E0
2.470482119E1,1.271785259E0,3.066402197E0,8.792127609E0
2.472368119E1,1.075573802E0,3.064009428E0,7.990531921E0
2.474254015E1,8.362914920E-1,2.920439959E0,8.024031639E0
2.476139926E1,5.611169338E-1,2.750549555E0,8.828020096E0
2.478025734E1,4.223332107E-1,2.563909531E0,9.608079910E0
2.479911437E1,4.271188378E-1,2.360519648E0,1.002652550E1
2.481797328E1,5.036891699E-1,2.257628202E0,1.003370380E1
2.483683098E1,6.233302951E-1,2.226521492E0,9.596116066E0
2.485568994E1,7.692924738E-1,2.252842426E0,8.866305351E0
2.487454895E1,8.506484628E-1,2.353341103E0,8.201100349E0
2.489340692E1,9.128618240E-1,2.444268227E0,7.904390335E0
2.491226567E1,1.111466169E0,2.444268227E0,7.861319542E0
2.493112385E1,1.164108157E0,2.463410854E0,7.854141235E0
2.494998286E1,1.159322619E0,2.461018085E0,7.550252914E0
2.496884109E1,1.006181955E0,2.477767944E0,7.143472672E0
2.498770072E1,7.501499057E-1,2.437089920E0,6.837191582E0
2.500655880E1,5.012963414E-1,2.382055044E0,6.760920525E0
2.502541557E1,3.002992272E-1,2.343769789E0,6.952046871E0
2.504427708E1,3.146561682E-1,2.307877541E0,7.315756321E0
2.506313692E1,4.079762697E-1,2.281556368E0,7.729714394E0
2.508199546E1,2.117647976E-1,2.240878344E0,8.114958763E0
2.510085499E1,1.351944804E-1,2.137987137E0,8.280063629E0
2.511971374E1,6.819544733E-2,2.202593327E0,8.110173225E0
2.513857343E1,-6.472585201E-1,2.738585472E0,8.323134422E0
2.515743140E1,-6.687939167E-1,3.219542980E0,9.316155434E0
2.517629041E1,1.998006850E-1,3.250649452E0,1.124925709E1
2.519514828E1,1.329213023E0,2.949153900E0,1.339771271E1
2.521400630E1,1.907976985E0,2.717050076E0,1.544596958E1
2.523286380E1,2.065903187E0,2.068595171E0,1.629512215E1
2.525172208E1,2.094617128E0,1.822134495E0,1.539811325E1
2.527058270E1,1.730908036E0,2.317448616E0,1.400070477E1
2.528944145E1,1.118644595E0,2.834298372E0,1.301964664E1
2.530830046E1,4.079762697E-1,3.016152859E0,1.207956696E1
2.532715895E1,-1.615155339E-1,2.870190859E0,1.086879826E1
2.534601786E1,-3.960121572E-1,2.879761934E0,9.486045837E0
2.536487911E1,-2.309073806E-1,3.044866800E0,8.349455833E0
2.538373729E1,1.076770201E-2,3.296113253E0,7.684250832E0
2.540259708E1,-1.316052489E-2,3.501895905E0,7.555038452E0
2.542145525E1,-3.122633696E-1,3.518645763E0,7.756035328E0
2.544031463E1,-5.778666735E-1,3.396611691E0,7.801498890E0
2.545917416E1,-7.740781307E-1,3.451646566E0,7.677072525E0
2.547803255E1,-8.865407705E-1,3.559323788E0,7.734499931E0
2.549689333E1,-7.836494446E-1,3.657429457E0,8.280063629E0
2.551575109E1,-4.582255483E-1,3.592823267E0,9.139086723E0
2.553460937E1,-1.543370634E-1,3.430111170E0,9.742077827E0
2.555346692E1,1.794617064E-2,3.353540897E0,1.007916737E1
2.557232223E1,6.819544733E-2,3.269792080E0,1.022034359E1
2.559117843E1,-9.212367237E-2,3.190829039E0,1.014855862E1
2.561003369E1,-1.686939895E-1,3.205185890E0,9.954740524E0
2.562889187E1,-5.383851007E-2,3.209971666E0,9.928419113E0
2.564774760E1,1.447657645E-1,3.128615618E0,1.003848934E1
2.566660406E1,3.098705411E-1,2.944368362E0,9.926026344E0
2.568546140E1,3.553341627E-1,2.819941521E0,9.507581711E0
2.570431979E1,4.103690982E-1,2.779263496E0,8.813663483E0
2.572317864E1,6.400800347E-1,2.781656265E0,7.985746384E0
2.574203807E1,8.147560954E-1,2.829512835E0,7.301399231E0
2.576089729E1,8.362914920E-1,2.781656265E0,7.004689217E0
2.577975588E1,6.783652306E-1,2.602194548E0,7.016653538E0
2.579861531E1,4.103690982E-1,2.427518606E0,6.990332127E0
2.581747197E1,2.404786795E-1,2.279163599E0,6.887440681E0
2.583633119E1,1.878365725E-1,2.190629244E0,6.882655144E0
2.585519171E1,1.040877849E-1,2.013560295E0,6.925725937E0
2.587404999E1,-4.426721856E-2,1.872383714E0,7.200900555E0
2.589291104E1,-2.931207716E-1,2.037488461E0,7.823034763E0
2.591177203E1,-5.754738450E-1,2.145165443E0,8.433204651E0
2.593063275E1,-8.554341197E-1,2.329412937E0,9.313762665E0
2.594948968E1,-1.054038405E0,2.834298372E0,1.004088211E1
2.596834864E1,-1.135394335E0,3.107080221E0,1.100758266E1
2.598720604E1,-9.487541914E-1,3.047259569E0,1.212024498E1
2.600606624E1,-5.467599630E-1,2.731407166E0,1.306271839E1
2.602492645E1,2.512463741E-2,2.578266382E0,1.317278767E1
2.604378676E1,2.715853751E-1,2.609373093E0,1.232842064E1
2.606264468E1,2.644068897E-1,2.906083107E0,1.120857906E1
2.608150458E1,3.708875179E-2,3.186043262E0,1.086640549E1
2.610036260E1,-2.620140910E-1,3.116651535E0,1.134497070E1
2.611921963E1,-4.869394004E-1,2.956332445E0,1.190489101E1
2.613807921E1,-5.850451589E-1,2.717050076E0,1.209392357E1
2.615693760E1,-3.361915946E-1,2.568695068E0,1.187139130E1
2.617579671E1,3.912265003E-1,2.707478762E0,1.138804150E1
2.619465525E1,1.333998680E0,2.994617462E0,1.063908768E1
2.621351437E1,1.831406593E0,3.224328518E0,9.593723297E0
2.623237150E1,1.793121457E0,3.339184046E0,8.720342636E0
2.625122786E1,1.341177106E0,3.243471146E0,8.378169060E0
2.627008562E1,7.549355626E-1,3.008974552E0,8.536095619E0
2.628894406E1,5.060819983E-1,2.721835852E0,8.737092972E0
2.630780197E1,4.582255483E-1,2.528017044E0,8.653344154E0
2.632666150E1,5.826523304E-1,2.537588358E0,8.251349449E0
2.634551916E1,6.376872063E-1,2.647658348E0,7.782356739E0
2.636438010E1,4.582255483E-1,2.743371248E0,7.598109245E0
2.638324176E1,1.399801224E-1,2.645265341E0,7.856534004E0
2.640210301E1,-3.074777126E-1,2.382055044E0,8.433204651E0
2.642096249E1,-6.520441771E-1,2.178664923E0,9.127122879E0
2.643982296E1,-7.621139884E-1,2.011167526E0,9.679864883E0
2.645868098E1,-7.836494446E-1,1.901097536E0,9.971489906E0
2.647753963E1,-6.520441771E-1,1.850848317E0,9.675079346E0
2.649639734E1,-4.055834413E-1,2.032702923E0,8.966803551E0
2.651525411E1,-1.495514214E-1,2.303091764E0,8.260921478E0
2.653411145E1,2.045863420E-1,2.525624275E0,7.815855980E0
2.655297015E1,3.649054468E-1,2.657229662E0,7.650751114E0
2.657182942E1,4.031906128E-1,2.640479803E0,7.679465294E0
2.659068828E1,4.151547253E-1,2.542374134E0,7.801498890E0
2.660954640E1,5.036891699E-1,2.446661234E0,8.002495766E0
2.662840416E1,4.558327198E-1,2.506481647E0,8.031209946E0
2.664726041E1,3.888336718E-1,2.573480844E0,8.287241936E0
2.666611734E1,4.390829504E-1,2.391626120E0,8.698807716E0
2.668497421E1,4.007977843E-1,2.145165443E0,9.344869614E0
2.670383197E1,9.690931439E-2,2.032702923E0,9.813564301E0
2.672268864E1,-1.112662554E-1,2.214557409E0,1.001934624E1
2.674154520E1,2.751746029E-2,2.453839540E0,1.056012440E1
2.676040166E1,2.811566591E-1,2.523231506E0,1.211067390E1
2.677925713E1,6.376872063E-1,2.271985054E0,1.384038544E1
2.679811687E1,1.030110121E0,1.910668850E0,1.481665707E1
2.681697822E1,1.510768414E0,1.676172256E0,1.401266861E1
2.683583812E1,1.541875124E0,1.984846354E0,1.179960632E1
2.685469661E1,1.173679471E0,2.719442844E0,1.070369434E1
2.687355390E1,1.178465128E0,3.032902718E0,1.155553913E1
2.689241411E1,1.298106313E0,2.676372051E0,1.249352551E1
2.691127317E1,8.027920127E-1,2.374876499E0,1.188814068E1
2.693013088E1,4.199403822E-1,2.542374134E0,1.027777100E1
2.694898833E1,6.400800347E-1,2.851048231E0,8.911768913E0
2.696784791E1,8.195417523E-1,2.994617462E0,8.035995483E0
2.698670817E1,3.864408433E-1,2.963510752E0,7.507182121E0
2.700556562E1,-3.457628787E-1,2.769692183E0,7.160222530E0
2.702442338E1,-1.101894855E0,2.678765059E0,7.167401314E0
2.704328494E1,-1.515554070E0,2.676372051E0,7.425826073E0
2.706214494E1,-1.489233017E0,2.726621389E0,7.712964535E0
2.708100307E1,-1.156929731E0,2.846262455E0,8.071887970E0
2.709985911E1,-8.386843204E-1,2.898904562E0,8.289634705E0
2.711871682E1,-7.094719410E-1,2.973082066E0,8.550452232E0
2.713757328E1,-6.664010882E-1,2.999403238E0,9.067302704E0
2.715643359E1,-4.965106845E-1,3.032902718E0,9.603294373E0
2.717529020E1,-3.601198196E-1,3.190829039E0,1.002173901E1
2.719414713E1,-2.117647976E-1,3.198007345E0,1.024187946E1
2.721300411E1,-2.117647976E-1,3.020938635E0,1.019641590E1
2.723185989E1,-5.850451589E-1,2.762513638E0,9.923633575E0
2.725071692E1,-1.025324464E0,2.568695068E0,9.462118149E0
2.726957291E1,-1.144965649E0,2.573480844E0,9.005088806E0
2.728842848E1,-8.075776696E-1,2.693121910E0,8.806484222E0
2.730728479E1,-3.960121572E-1,2.738585472E0,8.713164330E0
2.732614041E1,-3.816552162E-1,2.726621389E0,8.306385040E0
2.734499968E1,-4.462614357E-1,2.657229662E0,7.724928856E0
2.736385671E1,-3.888336718E-1,2.630908489E0,7.222435951E0
2.738271354E1,-2.093719840E-1,2.772084951E0,6.932904720E0
2.740157145E1,3.948157281E-2,3.047259569E0,6.923333168E0
2.742042926E1,1.663011760E-1,3.209971666E0,7.617251873E0
2.743928614E1,4.007977843E-1,3.068794966E0,9.007481575E0
2.745814161E1,4.199403822E-1,2.767299414E0,1.022991467E1
2.747699718E1,2.907279432E-1,2.604587555E0,1.067498016E1
2.749585484E1,3.672982752E-1,2.810370207E0,9.844670296E0
2.751470921E1,3.960121572E-1,3.288934708E0,9.514760017E0
2.753356640E1,6.281159520E-1,3.528217077E0,1.066540909E1
2.755242260E1,8.027920127E-1,3.056830883E0,1.234995556E1
2.757128031E1,4.462614357E-1,2.401197433E0,1.291436291E1
2.759013916E1,5.982056726E-3,2.157129526E0,1.244806194E1
2.760899604E1,3.589233849E-3,2.267199516E0,1.170389366E1
2.762785208E1,3.146561682E-1,2.618944407E0,1.094058323E1
2.764670880E1,5.491527915E-1,2.879761934E0,1.073719311E1
2.766556775E1,4.055834413E-1,2.776870728E0,1.178524971E1
2.768442421E1,2.979064286E-1,2.118844509E0,1.288086319E1
2.770328223E1,1.710868180E-1,1.721635938E0,1.274207973E1
2.772213838E1,1.351944804E-1,1.941775560E0,1.157946682E1
2.774099630E1,6.305087805E-1,2.394019127E0,1.016530895E1
2.775985161E1,1.077966571E0,2.664407969E0,8.799305916E0
2.777871046E1,8.985049129E-1,2.822334290E0,7.763214111E0
2.779756593E1,4.654040039E-1,2.836691141E0,7.086045265E0
2.781642239E1,1.639083475E-1,2.717050076E0,6.806384087E0
2.783528020E1,3.074777126E-1,2.755335331E0,7.009474754E0
2.785413729E1,7.980063558E-1,2.949153900E0,7.665108204E0
2.787299421E1,1.075573802E0,3.157329559E0,8.220243454E0
2.789185234E1,9.942178130E-1,3.233899832E0,8.495417595E0
2.791070942E1,6.305087805E-1,3.190829039E0,8.421239853E0
2.792956671E1,2.787638307E-1,3.202793121E0,8.521739006E0
2.794842234E1,2.261217386E-1,3.310470104E0,9.024231911E0
2.796727801E1,3.577269912E-1,3.322434187E0,9.596116066E0
2.798613557E1,1.902294010E-1,3.171686411E0,1.006002426E1
2.800499275E1,-1.519442350E-1,2.834298372E0,1.011027431E1
2.802385046E1,-2.404786795E-1,2.566302299E0,9.395118713E0
2.804270687E1,-1.423729509E-1,2.611765862E0,8.306385040E0
2.806156020E1,-5.862415582E-2,2.793620348E0,7.392326355E0
2.808041656E1,-1.112662554E-1,2.822334290E0,7.028617382E0
2.809927463E1,-1.076770201E-2,2.566302299E0,7.011867523E0
2.811813119E1,3.098705411E-1,2.329412937E0,6.940083027E0
2.813698729E1,5.180460811E-1,2.360519648E0,6.849155903E0
2.815584505E1,6.041877270E-1,2.439482689E0,6.873084068E0
2.817470041E1,5.419743061E-1,2.432304144E0,7.385148048E0
2.819355906E1,2.787638307E-1,2.470589399E0,7.988139153E0
2.821241708E1,1.232303679E-1,2.743371248E0,8.670093536E0
2.823127411E1,3.840480447E-1,3.142972469E0,9.706186295E0
2.825013156E1,1.113858938E0,3.427718401E0,1.145982552E1
2.826898609E1,1.781157374E0,3.250649452E0,1.353171158E1
2.828784385E1,2.099402666E0,2.750549555E0,1.543400478E1
2.830669973E1,2.295614243E0,2.166700840E0,1.573520184E1
2.832555770E1,2.293221474E0,2.123630047E0,1.451516151E1
2.834441432E1,2.192722797E0,2.592623234E0,1.393609810E1
2.836327083E1,2.030010939E0,2.693121910E0,1.396241951E1
2.838212656E1,1.491625786E0,2.475374937E0,1.300050449E1
2.840098499E1,8.362914920E-1,2.642872572E0,1.113679504E1
2.841984458E1,7.166503668E-1,2.918047190E0,9.234800339E0
2.843870270E1,7.453642488E-1,3.190829039E0,7.949853897E0
2.845756098E1,6.735795736E-1,3.396611691E0,7.423433304E0
2.847641848E1,3.505485058E-1,3.346362352E0,7.492825031E0
2.849527562E1,-2.021935135E-1,3.164507866E0,7.815855980E0
2.851413187E1,-5.635097623E-1,2.949153900E0,7.899604797E0
2.853299109E1,-6.664010882E-1,2.965903759E0,7.722536087E0
2.855185249E1,-6.664010882E-1,3.131008387E0,7.607680321E0
2.857071192E1,-5.180460811E-1,3.300898790E0,7.794320583E0
2.858956895E1,-1.926222295E-1,3.485146284E0,8.366205215E0
2.860842801E1,3.122633696E-1,3.590430260E0,9.014659882E0
2.862728781E1,8.003991842E-1,3.669393539E0,9.438189507E0
2.864614718E1,1.202393413E0,3.714857101E0,9.476474762E0
2.866500536E1,1.436890006E0,3.736392498E0,9.371191025E0
2.868386411E1,1.424925923E0,3.733999729E0,9.203693390E0
2.870272140E1,1.338784218E0,3.683750391E0,9.208478928E0
2.872158197E1,1.216750264E0,3.537788391E0,9.435796738E0
2.874043838E1,1.054038405E0,3.284149170E0,9.646365166E0
2.875929572E1,8.865407705E-1,2.944368362E0,9.553045273E0
2.877815364E1,6.568298340E-1,2.664407969E0,9.069695473E0
2.879701130E1,5.347958803E-1,2.547159672E0,8.043173790E0
2.881587135E1,4.295116663E-1,2.571087837E0,7.042974472E0
2.883472953E1,3.146561682E-1,2.618944407E0,6.626922131E0
2.885359150E1,1.639083475E-1,2.585444927E0,6.861119747E0
2.887245015E1,6.580262631E-2,2.465803623E0,7.145865917E0
2.889130801E1,-2.404786795E-1,2.571087837E0,7.363612652E0
2.891016624E1,-5.060819983E-1,2.726621389E0,7.598109245E0
2.892902697E1,-4.797609448E-1,2.827120066E0,7.937890053E0
2.894788624E1,-5.204389095E-1,2.884547710E0,8.366205215E0
2.896674229E1,-6.352944374E-1,2.872583628E0,8.847162247E0
2.898559687E1,-5.826523304E-1,2.989831924E0,8.966803551E0
2.900445510E1,-5.682953596E-1,3.291327477E0,8.629415512E0
2.902331343E1,-6.161518097E-1,3.600001574E0,8.210671425E0
2.904217244E1,-7.884350419E-1,3.757927895E0,8.335098267E0
2.906103025E1,-6.735795736E-1,3.836591959E0,9.256335258E0
2.907988859E1,-3.433700502E-1,3.688536167E0,1.085922718E1
2.909874781E1,-3.002992272E-1,3.375076294E0,1.289282703E1
2.911760473E1,-8.255238086E-2,2.884547710E0,1.457498169E1
2.913646187E1,3.649054468E-1,2.561516523E0,1.467069435E1
2.915531848E1,5.754738450E-1,2.944368362E0,1.289282703E1
2.917417755E1,6.448656917E-1,3.458825111E0,1.127557850E1
2.919303567E1,6.927221417E-1,3.698107481E0,1.139043427E1
2.921189338E1,7.836494446E-1,3.126222849E0,1.288086319E1
2.923075078E1,8.745766878E-1,2.449054003E0,1.364656639E1
2.924960760E1,8.865407705E-1,2.260020971E0,1.316800213E1
2.926846583E1,1.398604870E0,2.257628202E0,1.167278671E1
2.928732338E1,1.896012783E0,2.429911375E0,9.639186859E0
2.930617994E1,2.041975021E0,2.662015200E0,7.595716476E0
2.932503833E1,1.872084618E0,2.815155745E0,6.124429703E0
2.934389546E1,1.484447360E0,2.841476917E0,5.557330608E0
2.936275380E1,1.073180914E0,2.551945448E0,5.691328526E0
2.938161275E1,1.092323542E0,2.152343988E0,6.246463299E0
2.940047275E1,1.235892892E0,2.216950178E0,7.624430180E0
2.941933062E1,1.422533035E0,2.250449657E0,9.421440125E0
2.943818854E1,1.814656854E0,1.977667928E0,1.041176987E1
2.945704499E1,1.776371717E0,1.915454507E0,1.022991467E1
2.947590499E1,1.384247899E0,2.059023857E0,9.815957069E0
2.949476239E1,7.788637877E-1,1.994417667E0,9.926026344E0
2.951362135E1,2.309073806E-1,1.781456470E0,1.031605625E1
2.953247937E1,-6.101697683E-2,1.683350682E0,1.027777100E1
2.955133578E1,-5.144568533E-2,1.786242127E0,9.636794090E0
2.957019432E1,1.591227055E-1,1.932204247E0,8.605487823E0
2.958905187E1,4.558327198E-1,2.003988981E0,7.375576496E0
2.960790760E1,7.501499057E-1,2.102094650E0,6.138786316E0
2.962676307E1,9.846464992E-1,2.161915302E0,5.057230473E0
2.964561864E1,1.008574724E0,2.157129526E0,4.305884361E0
2.966447583E1,9.152546525E-1,2.171486616E0,4.054637909E0
2.968333437E1,5.826523304E-1,2.243271112E0,4.837090969E0
2.970219301E1,2.500499785E-1,2.068595171E0,6.665207386E0
2.972105130E1,2.667997181E-1,1.649851203E0,8.603095055E0
2.973990989E1,5.970092416E-1,1.484746456E0,1.021316528E1
2.975876791E1,9.702895880E-1,1.563709617E0,1.148614693E1
2.977762458E1,1.544267893E0,1.786242127E0,1.213938713E1
2.979648234E1,2.020439625E0,2.140379906E0,1.250548935E1
2.981533958E1,2.266900301E0,2.281556368E0,1.411077404E1
2.983419828E1,2.393719912E0,1.755135417E0,1.647937012E1
2.985305739E1,2.374577284E0,8.341978192E-1,1.756331825E1
2.987191442E1,2.120938063E0,3.580260873E-1,1.637647820E1
2.989077338E1,1.678265929E0,6.810571551E-1,1.362024593E1
2.990963322E1,1.417747378E0,1.362712502E0,1.153400326E1
2.992849208E1,9.583254457E-1,1.889133453E0,1.085683441E1
2.994734729E1,6.616154313E-1,1.791027784E0,1.095972633E1
2.996620348E1,5.204389095E-1,1.556531072E0,1.060080242E1
2.998506020E1,3.816552162E-1,1.707278967E0,9.701400757E0
3.000391760E1,4.630111754E-1,1.975275040E0,8.828020096E0
3.002277593E1,5.898307562E-1,2.200200319E0,8.404490471E0
3.004163531E1,5.826523304E-1,2.396411896E0,8.134101868E0
3.006049223E1,4.486542344E-1,2.535195589E0,7.748857021E0
3.007934848E1,1.663011760E-1,2.671586514E0,7.495217800E0
3.009820604E1,-2.380858511E-1,2.714657307E0,7.614859104E0
3.011706489E1,-1.902294010E-1,2.666800737E0,8.114958763E0
3.013592536E1,6.580262631E-2,2.595016241E0,8.851948738E0
3.015478380E1,4.079762697E-1,2.602194548E0,9.318549156E0
3.017364135E1,8.267202377E-1,2.702693224E0,9.569794655E0
3.019249911E1,1.121037364E0,2.882154942E0,9.718150139E0
3.021135697E1,1.032503009E0,2.941975355E0,9.651150703E0
3.023021447E1,9.559326172E-1,2.858226538E0,9.373583794E0
3.024907051E1,1.034895778E0,2.812762976E0,9.129515648E0
3.026792786E1,1.180858016E0,2.941975355E0,9.280263901E0
3.028678536E1,1.367498159E0,3.030509949E0,9.689435959E0
3.030564317E1,1.290927768E0,2.829512835E0,9.899705887E0
3.032450078E1,9.152546525E-1,2.461018085E0,9.658329964E0
3.034335880E1,6.185446382E-1,2.221735716E0,9.052945137E0
3.036221588E1,5.563312769E-1,2.169093609E0,8.488239288E0
3.038107312E1,6.257231236E-1,2.260020971E0,8.174779892E0
3.039992979E1,6.448656917E-1,2.422732830E0,7.791927814E0
3.041878895E1,6.424728632E-1,2.530410051E0,7.138687134E0
3.043764729E1,4.797609448E-1,2.657229662E0,6.586244106E0
3.045650614E1,2.835494876E-1,2.733799934E0,6.533602238E0
3.047536598E1,4.486542344E-1,2.743371248E0,7.418647289E0
3.049422354E1,8.243274093E-1,2.640479803E0,8.507381439E0
3.051308458E1,9.607182741E-1,2.666800737E0,9.273084641E0
3.053194312E1,8.386843204E-1,2.846262455E0,9.476474762E0
3.055080213E1,7.860422134E-1,3.102294445E0,9.244371414E0
3.056965973E1,5.132604837E-1,3.391826153E0,9.225228310E0
3.058851703E1,2.452643216E-1,3.710071564E0,1.024187946E1
3.060737406E1,6.257231236E-1,3.492324591E0,1.214656639E1
3.062622880E1,1.202393413E0,2.992224693E0,1.388584900E1
3.064508541E1,1.723729610E0,2.539981127E0,1.462044525E1
3.066394057E1,1.970190287E0,2.449054003E0,1.352931786E1
3.068279650E1,1.855334878E0,2.839084148E0,1.150289631E1
3.070165229E1,1.683051586E0,3.332005501E0,1.037587738E1
3.072050828E1,1.412961721E0,3.408575773E0,1.038066292E1
3.073936473E1,1.326820135E0,2.994617462E0,1.062233829E1
3.075822062E1,1.503589988E0,2.810370207E0,1.059840965E1
3.077707593E1,1.642373681E0,2.937189817E0,1.015334511E1
3.079593197E1,1.546660781E0,3.001796007E0,9.320941925E0
3.081478843E1,1.460818172E0,3.018545866E0,8.236992836E0
3.083364619E1,1.276570916E0,3.260220766E0,7.339684486E0
3.085250551E1,1.399801224E-1,3.576073408E0,6.794419765E0
3.087136354E1,6.735795736E-1,3.248256683E0,7.031010151E0
3.089022354E1,6.592226624E-1,2.894119024E0,7.624430180E0
3.090908187E1,3.744767308E-1,2.915654421E0,8.239385605E0
3.092793869E1,2.141576260E-1,2.886940479E0,8.729914665E0
3.094679624E1,3.242274821E-1,2.891726255E0,9.165408134E0
3.096565203E1,5.778666735E-1,2.898904562E0,9.469296455E0
3.098450973E1,8.913264275E-1,2.894119024E0,9.533903122E0
3.100336760E1,1.039681435E0,2.913261652E0,9.481260300E0
3.102222348E1,1.018146038E0,2.831905603E0,9.514760017E0
3.104108025E1,8.243274093E-1,2.669193745E0,9.830313683E0
3.105993630E1,5.898307562E-1,2.595016241E0,1.016291618E1
3.107879286E1,6.161518097E-1,2.604587555E0,1.042134094E1
3.109764734E1,9.439685345E-1,2.439482689E0,1.031366348E1
3.111650281E1,1.333998680E0,2.245664120E0,9.543474197E0
3.113535854E1,1.572981834E0,2.231307030E0,8.442775726E0
3.115421385E1,1.635195136E0,2.322234392E0,7.473682404E0
3.117307130E1,1.735693693E0,2.367697954E0,6.727420807E0
3.119192838E1,1.630409479E0,2.365305185E0,6.581458569E0
3.121078505E1,1.436890006E0,2.288734913E0,6.768098831E0
3.122964171E1,1.467697620E0,2.226521492E0,7.308577538E0
3.124850062E1,1.718943954E0,2.231307030E0,7.882854939E0
3.126735692E1,1.769193292E0,2.362912416E0,8.332705498E0
3.128621156E1,1.558624864E0,2.654836655E0,8.887840271E0
3.130506630E1,1.675873160E0,2.781656265E0,9.079266548E0
3.132392525E1,1.939083695E0,2.977867842E0,8.983553886E0
3.134277994E1,1.931905150E0,3.265006542E0,8.653344154E0
3.136163645E1,1.764407635E0,3.745963812E0,8.588737488E0
3.138049468E1,1.498804331E0,4.372584343E0,9.677472115E0
3.139935301E1,1.829013824E0,4.264907360E0,1.180199909E1
3.141821135E1,2.479861498E0,3.477967739E0,1.335942745E1
3.143707072E1,2.513360977E0,2.044667006E0,1.295025539E1
3.145592765E1,1.692622900E0,3.300898790E0,1.267298698E1
3.147478546E1,1.448854089E0,4.403690815E0,1.218006516E1
3.149364275E1,2.259721994E0,4.214657784E0,1.194796181E1
3.151249781E1,2.561217546E0,3.941876173E0,1.164646626E1
3.153135739E1,1.745265007E0,3.523431301E0,1.097169018E1
3.155021650E1,8.171489239E-1,3.221935749E0,1.005523872E1
3.156907296E1,1.950150430E-1,3.142972469E0,8.978767395E0
3.158792916E1,9.451649338E-2,3.109472990E0,7.830213070E0
3.160678583E1,7.094719410E-1,2.884547710E0,7.409076214E0
3.162564270E1,5.706881881E-1,2.977867842E0,7.442575932E0
3.164449796E1,2.333002090E-1,3.028116941E0,7.925925732E0
3.166335380E1,4.414757788E-1,2.611765862E0,8.320741653E0
3.168220859E1,4.941178858E-1,2.176272154E0,8.490632057E0
3.170106635E1,2.715853751E-1,2.176272154E0,8.885447502E0
3.171992416E1,-4.630111754E-1,2.745764017E0,8.966803551E0
3.173878301E1,-1.864906192E0,2.580659151E0,9.036195755E0
3.175764124E1,-1.884048700E0,2.681157827E0,1.036869907E1
3.177649880E1,-1.264606714E0,3.860520124E0,1.132582760E1
3.179535635E1,-1.594517231E0,4.367798805E0,1.062951660E1
3.181421635E1,-9.535398483E-1,3.207578659E0,8.751449585E0
3.183307588E1,-9.439685345E-1,3.059223652E0,7.409076214E0
3.185193416E1,-1.556231976E0,3.568894863E0,6.693921566E0
3.187079442E1,-2.508575439E0,4.106980801E0,7.636394501E0
3.188965234E1,-3.099602699E0,3.975375652E0,9.005088806E0
3.190851130E1,-2.226222277E0,3.032902718E0,9.069695473E0
3.192737182E1,-1.099501967E0,2.178664923E0,8.100602150E0
3.194623015E1,-1.058824062E0,2.212164640E0,6.689135551E0
3.196508661E1,-1.917548299E0,2.855833769E0,5.684150219E0
3.198394458E1,-2.587538481E0,3.631108284E0,5.849255085E0
3.200280130E1,-2.171187401E0,3.817449331E0,6.095715523E0
3.202165869E1,-1.451246977E0,3.446861029E0,6.413960934E0
3.204051718E1,-8.793623447E-1,2.822334290E0,7.514360428E0
3.205937515E1,-7.884350419E-1,2.664407969E0,9.019445419E0
3.207823400E1,-1.030110121E0,3.025724173E0,9.375976562E0
3.209709187E1,-7.740781307E-1,3.241078377E0,8.928518295E0
3.211594999E1,-1.006181955E0,3.853341818E0,8.172386169E0
3.213480880E1,-1.840977907E0,4.056731701E0,8.024031639E0
3.215366572E1,-3.070888758E0,3.789034605E0,9.701400757E0
3.217252630E1,-4.090231419E0,4.786542416E0,1.223031521E1
3.219138546E1,-3.221636534E0,5.241178989E0,1.339771271E1
3.221024333E1,-1.529910922E0,4.430012226E0,1.351256847E1
3.222910359E1,-4.630111754E-1,3.987339735E0,1.276122189E1
3.224796062E1,-6.496513486E-1,4.355834484E0,1.226142120E1
3.226682150E1,-1.723729610E0,5.195715427E0,1.209392357E1
3.228568114E1,-3.085245609E0,5.238786221E0,1.216810131E1
3.230453973E1,-3.661916018E0,4.532903194E0,1.210110188E1
3.232339796E1,-2.510968208E0,3.726821184E0,1.125164986E1
3.234225551E1,-1.563410521E0,3.800998688E0,1.020120144E1
3.236111583E1,-1.274178028E0,4.473083019E0,9.292227745E0
3.237997604E1,-7.070791125E-1,4.709972382E0,8.335098267E0
3.239883525E1,-3.936193287E-1,4.647758961E0,7.653144360E0
3.241769515E1,-7.094719410E-1,4.623830795E0,7.227221489E0
3.243655479E1,-1.408176184E0,4.461118698E0,7.337291718E0
3.245541166E1,-1.577767372E0,4.286442757E0,7.607680321E0
3.247427135E1,-1.085145116E0,4.135694981E0,7.901997566E0
3.249312859E1,-4.414757788E-1,4.145266056E0,7.779963493E0
3.251198614E1,-4.797609448E-1,4.305585384E0,7.476075172E0
3.253084432E1,-1.288534999E0,4.439583302E0,7.370790958E0
3.254970322E1,-1.982154489E0,4.439583302E0,7.440182686E0
3.256856557E1,-2.269293070E0,4.324728012E0,7.712964535E0
3.258742468E1,-2.231008053E0,4.286442757E0,7.949853897E0
3.260628406E1,-1.829013824E0,4.382155418E0,8.062316895E0
3.262514322E1,-1.570588946E0,4.434797764E0,7.811070442E0
3.264400265E1,-1.963011861E0,4.659722805E0,7.521538734E0
3.266286322E1,-2.439183474E0,4.891826630E0,7.356434345E0
3.268172359E1,-2.307578325E0,5.140680313E0,7.294220924E0
3.270058296E1,-1.513161182E0,5.391926765E0,7.023831844E0
3.271944406E1,-1.396211982E0,5.750850201E0,6.849155903E0
3.273830484E1,-1.687837243E0,5.633601665E0,6.889833927E0
3.275716635E1,-2.262114763E0,5.238786221E0,6.952046871E0
3.277602520E1,-3.034996510E0,4.894219398E0,7.011867523E0
3.279488520E1,-3.398705482E0,4.480261326E0,7.428218842E0
3.281374609E1,-2.898605585E0,4.090231419E0,8.114958763E0
3.283260546E1,-2.589931488E0,4.650151730E0,8.674879074E0
3.285146572E1,-2.637787819E0,6.167201042E0,9.923633575E0
3.287032499E1,-4.551746845E0,6.617052078E0,9.490832329E0
3.288918541E1,-4.956133842E0,5.128716469E0,1.334507084E1
3.290804426E1,-3.817449331E0,4.087838173E0,1.511815262E1
3.292690359E1,-3.492025614E0,5.009075165E0,1.504397488E1
3.294576093E1,-3.889234066E0,5.219643593E0,1.219202995E1
3.296462166E1,-3.006282568E0,5.061717033E0,1.022991467E1
3.299144885E1,1.606481314E0,5.528317451E0,8.320741653E0
3.301030750E1,2.075474501E0,4.719543457E0,8.076673508E0
3.302916401E1,1.099501967E0,4.197908401E0,7.593323708E0
3.304802224E1,3.433700502E-1,3.972982883E0,7.401897907E0
3.306687916E1,3.888336718E-1,4.099802494E0,7.789535046E0
3.308573411E1,6.017948985E-1,4.520939350E0,8.588737488E0
3.310458864E1,8.745766878E-1,4.561617374E0,9.258728027E0
3.312344568E1,1.752443433E0,4.554438591E0,9.624830246E0
3.314230427E1,2.030010939E0,4.592723846E0,9.387940407E0
3.316115963E1,1.821835399E0,4.580760002E0,8.947661400E0
3.318001359E1,1.678265929E0,4.506582260E0,8.727521896E0
3.319887104E1,1.501197100E0,4.310370922E0,8.698807716E0
3.321772859E1,1.238285661E0,4.219443798E0,8.861519814E0
3.323658469E1,1.087537885E0,4.176373005E0,8.973981857E0
3.325544156E1,1.551446438E0,3.671786308E0,8.313563347E0
3.327429838E1,1.781157374E0,3.528217077E0,7.844570160E0
3.329315557E1,1.592124343E0,4.126123428E0,8.193922043E0
3.331201510E1,1.709372640E0,4.312763691E0,8.615058899E0
3.333087250E1,1.766800404E0,4.138087749E0,8.672486305E0
3.334973026E1,1.460818172E0,4.243371964E0,8.177172661E0
3.336858651E1,9.128618240E-1,4.248157501E0,7.215257645E0
3.338744338E1,1.073180914E0,3.896412611E0,6.267998695E0
3.340630219E1,1.278963685E0,3.339184046E0,5.724828243E0
3.342515781E1,1.491625786E0,2.987439156E0,5.851647854E0
3.344401604E1,1.840977907E0,2.918047190E0,6.624529362E0
3.346287109E1,2.231008053E0,2.791227579E0,7.772785187E0
3.348172489E1,2.664108992E0,2.343769789E0,8.583951950E0
3.350058140E1,2.721536636E0,1.791027784E0,8.418847084E0
3.351943698E1,2.467897415E0,1.566102386E0,8.038388252E0
3.353829484E1,1.905584097E0,1.647458434E0,7.834998608E0
3.355715156E1,1.293320656E0,1.848455548E0,8.040781021E0
3.357600724E1,8.338986635E-1,1.968096614E0,7.964210987E0
3.359486276E1,8.530412912E-1,1.917847395E0,7.179365158E0
3.361372015E1,1.133001566E0,1.731207132E0,6.421139717E0
3.363257729E1,1.293320656E0,1.853241086E0,6.346961975E0
3.365143474E1,1.209571838E0,2.267199516E0,7.162615299E0
3.367029286E1,1.109073281E0,2.319841623E0,8.067102432E0
3.368915021E1,1.204786181E0,2.030309916E0,8.959625244E0
3.370800771E1,1.152144074E0,1.913061738E0,1.045484066E1
3.372686416E1,9.631111026E-1,1.929811478E0,1.179003525E1
3.374572078E1,1.986940145E0,1.424925923E0,1.321107292E1
3.376457640E1,1.991725802E0,1.381855130E0,1.589312840E1
3.378343239E1,9.272187948E-1,2.027917147E0,1.693400574E1
3.380229000E1,1.030110121E0,2.233700037E0,1.583091450E1
3.382114724E1,2.393719912E0,8.246265054E-1,1.498415470E1
3.384000443E1,2.965604544E0,-9.182456881E-2,1.422802258E1
3.385886021E1,2.293221474E0,8.605188727E-1,1.372792244E1
3.387771635E1,1.013360381E0,2.140379906E0,1.321107292E1
3.389657161E1,4.534398913E-1,2.602194548E0,1.263470173E1
3.391542864E1,5.635097623E-1,2.020738840E0,1.020120144E1
3.393428568E1,7.477570772E-1,1.037288666E0,8.899805069E0
3.395314271E1,-1.256231815E-1,1.391426325E0,9.098408699E0
3.397199755E1,-1.319641709E0,2.355733871E0,8.978767395E0
3.399085406E1,-1.448854089E0,2.121237278E0,8.911768913E0
3.400971073E1,-1.290927768E0,1.908276081E0,8.457132339E0
3.402856823E1,-1.367498159E0,1.338784218E0,7.703393459E0
3.404742651E1,-1.324427366E0,9.726824164E-1,7.191329479E0
3.406628703E1,-1.195214868E0,1.470389485E0,7.488039494E0
3.408514510E1,-1.288534999E0,1.865205288E0,8.136494637E0
3.410400213E1,-8.673982024E-1,1.637887120E0,8.564809799E0
3.412286078E1,-3.912265003E-1,1.568495274E0,8.689236641E0
3.414171854E1,2.907279432E-1,1.429711580E0,8.823234558E0
3.416057854E1,2.835494876E-1,1.405783296E0,9.584152222E0
3.417943745E1,-8.027920127E-1,1.494317770E0,1.024187946E1
3.419829651E1,-1.771586061E0,1.518245935E0,1.121575832E1
3.421715677E1,-1.884048700E0,1.444068432E0,1.157228851E1
3.423601234E1,-1.587338686E0,1.286142230E0,1.142154026E1
3.425486828E1,-9.726824164E-1,1.252642632E0,1.122532940E1
3.427372432E1,-5.635097623E-1,1.807777524E0,9.624830246E0
3.429257932E1,-4.893322289E-1,2.377269268E0,7.550252914E0
3.431143724E1,-5.874379873E-1,2.920439959E0,6.375676155E0
3.433029411E1,-1.106680512E0,1.891526341E0,6.648457527E0
3.434915036E1,-1.140179992E0,8.913264275E-1,7.995317936E0
3.436800687E1,-1.240678549E0,6.475576162E-1,9.978668213E0
3.438686375E1,-1.683051586E0,1.343569875E0,9.921240807E0
3.440572015E1,-1.654337764E0,1.678565025E0,9.105587006E0
3.442457729E1,-1.592124343E0,1.982453585E0,7.832605839E0
3.444343364E1,-1.367498159E0,2.118844509E0,5.971288681E0
3.446228943E1,-7.094719410E-1,1.822134495E0,5.105087280E0
3.448114734E1,-7.692924738E-1,1.637887120E0,6.351747513E0
3.450000484E1,-8.482556343E-1,1.767099500E0,7.674679756E0
3.451886328E1,-1.878365725E-1,1.968096614E0,8.576773643E0
3.453772161E1,3.002992272E-1,2.161915302E0,8.971589088E0
3.455657828E1,4.666004330E-2,2.255235434E0,9.009874344E0
3.457543630E1,-6.281159520E-1,2.102094650E0,9.285049438E0
3.459429349E1,-5.180460811E-1,1.898704767E0,9.617651939E0
3.461315000E1,-2.261217386E-1,1.843669891E0,1.144307613E1
3.463200568E1,-2.117647976E-1,1.759921074E0,1.405813217E1
3.465086437E1,-3.481557071E-1,1.367498159E0,1.562752438E1
3.466972297E1,-8.733802289E-2,1.144965649E0,1.456301785E1
3.468857828E1,4.462614357E-1,1.104287624E0,1.356521034E1
3.470743333E1,5.300102234E-1,1.266999602E0,1.390259838E1
3.472629015E1,6.520441771E-1,1.288534999E0,1.495065498E1
3.474514708E1,8.338986635E-1,1.106680512E0,1.434527111E1
3.476400396E1,5.682953596E-1,1.207179070E0,1.227099228E1
3.478286203E1,3.002992272E-1,1.716850281E0,1.037587738E1
3.480172000E1,6.616154313E-1,2.085345030E0,8.758627892E0
3.482057635E1,1.121037364E0,2.355733871E0,8.004889488E0
3.483943088E1,1.515554070E0,2.705085993E0,7.667500973E0
3.485828568E1,1.910369754E0,2.968296528E0,7.468896866E0
3.487714156E1,2.269293070E0,3.037688255E0,7.363612652E0
3.489600036E1,2.247757673E0,3.042474031E0,7.215257645E0
3.491485687E1,1.986940145E0,3.049652576E0,7.399505138E0
3.493371521E1,1.807478428E0,2.827120066E0,7.957032681E0
3.495257443E1,1.709372640E0,2.518445730E0,8.686843872E0
3.497143349E1,1.460818172E0,2.269592285E0,9.131908417E0
3.499029203E1,1.183250785E0,2.054238319E0,9.249156952E0
3.500915104E1,7.836494446E-1,1.872383714E0,9.234800339E0
3.502801057E1,3.242274821E-1,1.817348838E0,9.407083511E0
3.504686802E1,1.423729509E-1,1.771885157E0,9.808777809E0
3.506572625E1,2.667997181E-1,1.769492388E0,1.025384331E1
3.508458495E1,4.821537733E-1,1.771885157E0,1.035434151E1
3.510344416E1,6.257231236E-1,1.700100541E0,1.000020409E1
3.512230219E1,8.147560954E-1,1.652244091E0,9.244371414E0
3.514116068E1,8.889335990E-1,1.743171334E0,8.610273361E0
3.516001989E1,1.097109199E0,1.798206210E0,8.019246101E0
3.517887687E1,1.381855130E0,1.769492388E0,7.380362511E0
3.519773630E1,1.527518153E0,1.690529227E0,6.729813576E0
3.521659510E1,1.348355532E0,1.594816327E0,6.153143406E0
3.523545312E1,1.135394335E0,1.372283816E0,5.464010715E0
3.525431234E1,1.092323542E0,1.101894855E0,5.150550842E0
3.527316984E1,1.152144074E0,1.085145116E0,5.164907455E0
3.529202760E1,1.314856052E0,1.400997639E0,5.751149178E0
3.531088724E1,1.482054472E0,1.752742529E0,6.449853420E0
3.532974489E1,1.073180914E0,2.061416626E0,7.550252914E0
3.534860255E1,4.199403822E-1,2.178664923E0,9.165408134E0
3.536746078E1,5.802595019E-1,2.121237278E0,1.095493984E1
3.538632031E1,1.549053550E0,1.869990945E0,1.341207027E1
3.540517812E1,2.022832394E0,1.814955950E0,1.595055580E1
3.542403734E1,2.178365946E0,1.439282775E0,1.807538223E1
3.544289854E1,2.331506491E0,5.949155092E-1,1.853001785E1
3.546175573E1,1.862513304E0,4.322035909E-1,1.753460503E1
3.548061640E1,9.343972206E-1,8.889335990E-1,1.492911911E1
3.549947693E1,7.453642488E-1,1.446461320E0,1.195753288E1
3.551833640E1,9.894321561E-1,2.322234392E0,1.032562828E1
3.553719541E1,1.051645517E0,3.209971666E0,9.801599503E0
3.555605406E1,9.559326172E-1,3.449253798E0,9.706186295E0
3.557491469E1,5.132604837E-1,3.126222849E0,9.371191025E0
3.559377479E1,1.136590764E-1,2.745764017E0,8.851948738E0
3.561263312E1,-1.495514214E-1,2.614158630E0,8.196314812E0
3.563149203E1,-3.314059377E-1,2.688336134E0,7.564609528E0
3.565035323E1,-5.491527915E-1,2.860619545E0,7.313363075E0
3.566921120E1,-8.315058947E-1,2.994617462E0,7.552645683E0
3.568806864E1,-9.822536707E-1,2.973082066E0,8.024031639E0
3.570692375E1,-1.046859860E0,2.922832966E0,8.512166977E0
3.572578010E1,-1.049252748E0,2.851048231E0,9.103194237E0
3.574463974E1,-1.027717352E0,2.673979282E0,9.792028427E0
3.576349984E1,-6.831508875E-1,2.537588358E0,1.029691410E1
3.578235927E1,-1.064806059E-1,2.549552441E0,1.053380394E1
3.580121953E1,3.242274821E-1,2.669193745E0,1.059362411E1
3.582007864E1,5.443671346E-1,2.709871531E0,1.051705360E1
3.583893791E1,7.310073376E-1,2.652443886E0,1.019162941E1
3.585779568E1,8.027920127E-1,2.573480844E0,9.632008553E0
3.587665505E1,6.759724021E-1,2.444268227E0,8.895019531E0
3.589551250E1,5.515456200E-1,2.286342144E0,8.026424408E0
3.591437000E1,3.936193287E-1,2.135594130E0,7.179365158E0
3.593322698E1,2.380858511E-1,2.013560295E0,6.602993965E0
3.595208219E1,1.686939895E-1,2.003988981E0,6.325426579E0
3.597094047E1,1.974078715E-1,1.994417667E0,6.299105644E0
3.598979880E1,3.098705411E-1,2.013560295E0,6.361319065E0
3.600865906E1,4.630111754E-1,2.035095692E0,6.531209469E0
3.602751693E1,5.826523304E-1,2.037488461E0,6.684350014E0
3.604637453E1,5.754738450E-1,2.109273195E0,7.057331085E0
3.606523401E1,3.649054468E-1,2.286342144E0,7.619644642E0
3.608409213E1,1.782652885E-1,2.382055044E0,8.638986588E0
3.610295057E1,-1.112662554E-1,2.566302299E0,9.988240242E0
3.612180781E1,-5.515456200E-1,3.068794966E0,1.063430214E1
3.614066588E1,-7.357929349E-1,3.537788391E0,1.034716320E1
3.615952437E1,-8.315058947E-1,4.020839214E0,1.019641590E1
3.617838453E1,-3.218346536E-1,4.406083584E0,1.130907822E1
3.619724448E1,6.616154313E-1,4.224229336E0,1.304596806E1
3.621610307E1,1.099501967E0,3.427718401E0,1.516122341E1
3.623496031E1,1.314856052E0,2.458625317E0,1.625205231E1
3.625382094E1,1.546660781E0,1.716850281E0,1.544357681E1
3.627267922E1,1.269392371E0,1.700100541E0,1.353410435E1
3.629153562E1,9.128618240E-1,1.989632010E0,1.194078350E1
3.631039302E1,1.058824062E0,2.444268227E0,1.076830006E1
3.632925114E1,1.333998680E0,2.992224693E0,1.030887794E1
3.634811031E1,1.465603828E0,3.229114056E0,1.019641590E1
3.636696797E1,1.417747378E0,2.992224693E0,9.988240242E0
3.638582760E1,1.403390527E0,2.669193745E0,9.079266548E0
3.640468594E1,1.496411443E0,2.678765059E0,8.138887405E0
3.642354291E1,1.778764486E0,2.810370207E0,7.784749508E0
3.644240031E1,1.931905150E0,2.922832966E0,7.894819260E0
3.646125672E1,1.812264085E0,2.961117983E0,8.177172661E0
3.648011375E1,1.630409479E0,2.934797049E0,8.452346802E0
3.649897177E1,1.319641709E0,2.879761934E0,8.440382957E0
3.651782870E1,9.726824164E-1,2.834298372E0,8.414061546E0
3.653668698E1,8.003991842E-1,2.776870728E0,8.435597420E0
3.655554443E1,6.831508875E-1,2.745764017E0,8.483453751E0
3.657440422E1,5.682953596E-1,2.745764017E0,8.347063065E0
3.659326255E1,5.994020700E-1,2.779263496E0,8.162815094E0
3.661212187E1,8.626125455E-1,2.867797852E0,7.988139153E0
3.663097901E1,1.197607756E0,2.973082066E0,8.031209946E0
3.664983703E1,1.417747378E0,3.085544825E0,8.150851250E0
3.666869448E1,1.424925923E0,3.092723370E0,7.985746384E0
3.668755286E1,1.109073281E0,3.071187973E0,7.765606880E0
3.670641036E1,9.224331379E-1,3.004188776E0,7.765606880E0
3.672526823E1,1.255035520E0,2.925225735E0,7.653144360E0
3.674412521E1,1.793121457E0,2.999403238E0,6.849155903E0
3.676298276E1,2.022832394E0,3.233899832E0,5.796612740E0
3.678184140E1,2.063510418E0,3.406183004E0,5.157729149E0
3.680070031E1,1.776371717E0,3.506681681E0,5.100301266E0
3.681956109E1,1.142572761E0,3.525824070E0,5.882754326E0
3.683842021E1,9.990034699E-1,3.332005501E0,7.019046307E0
3.685727937E1,1.369890928E0,3.308077335E0,8.201100349E0
3.687613609E1,1.541875124E0,3.662214994E0,9.395118713E0
3.689499198E1,1.814656854E0,3.772284985E0,1.065583706E1
3.691384802E1,2.319542408E0,3.807878017E0,1.201974678E1
3.693270531E1,2.613859653E0,3.755535126E0,1.386670589E1
3.695156359E1,2.427219391E0,3.348755360E0,1.507986736E1
3.697042177E1,2.235793591E0,2.839084148E0,1.472572994E1
3.698928010E1,2.202294111E0,2.614158630E0,1.401027584E1
3.700813818E1,2.286042929E0,2.889333248E0,1.407966709E1
3.702699479E1,2.164009094E0,2.918047190E0,1.414905930E1
3.704585281E1,1.611266971E0,2.652443886E0,1.329003620E1
3.706471203E1,9.774680734E-1,2.525624275E0,1.137846947E1
3.708356890E1,9.798609018E-1,2.717050076E0,9.930811882E0
3.710242812E1,1.116251707E0,2.958725214E0,9.141479492E0
3.712128661E1,6.687939167E-1,3.131008387E0,8.576773643E0
3.714014385E1,1.974078715E-1,3.107080221E0,7.933104515E0
3.715900104E1,2.273181453E-2,3.078366280E0,7.370790958E0
3.717785885E1,3.230310604E-2,3.140579700E0,7.222435951E0
3.719671458E1,2.309073806E-1,3.312862873E0,7.531110287E0
3.721557073E1,2.356930375E-1,3.389433384E0,7.980960846E0
3.723442890E1,1.567298770E-1,3.322434187E0,8.485846519E0
3.725328635E1,2.596212626E-1,3.188436270E0,8.904590607E0
3.727214625E1,4.031906128E-1,3.030509949E0,9.378369331E0
3.729100666E1,5.802595019E-1,2.903690338E0,9.718150139E0
3.730986427E1,7.573283911E-1,2.805584431E0,9.875777245E0
3.732872432E1,8.291130662E-1,2.791227579E0,9.777671814E0
3.734758156E1,1.003789067E0,2.810370207E0,9.466903687E0
3.736643818E1,1.137787223E0,2.817548752E0,9.186943054E0
3.738529765E1,1.044467092E0,2.791227579E0,8.902197838E0
3.740415666E1,8.865407705E-1,2.705085993E0,8.445168495E0
3.742301531E1,7.238288522E-1,2.673979282E0,7.978568077E0
3.744187390E1,6.592226624E-1,2.733799934E0,7.689036369E0
3.746073229E1,7.286145091E-1,2.819941521E0,7.538288593E0
3.747959213E1,7.860422134E-1,2.863012314E0,7.399505138E0
3.749845104E1,8.075776696E-1,2.851048231E0,7.143472672E0
3.751731026E1,8.075776696E-1,2.819941521E0,6.916154861E0
3.753617005E1,7.405785918E-1,2.817548752E0,7.086045265E0
3.755502854E1,5.850451589E-1,2.819941521E0,7.557431221E0
3.757388672E1,4.127618968E-1,2.882154942E0,7.971389771E0
3.759274614E1,5.180460811E-1,3.023331404E0,8.301599503E0
3.761160588E1,8.147560954E-1,3.157329559E0,8.926125526E0
3.763046234E1,8.865407705E-1,3.272184849E0,9.689435959E0
3.764931833E1,8.123632669E-1,3.260220766E0,1.020359421E1
3.766817745E1,9.391828775E-1,3.300898790E0,1.000259686E1
3.768703640E1,1.200000525E0,3.377469063E0,9.402297020E0
3.770589328E1,1.266999602E0,3.631108284E0,9.882955551E0
3.772475005E1,1.240678549E0,3.784249067E0,1.160578823E1
3.774360505E1,1.467697620E0,3.547359467E0,1.273729420E1
3.776246213E1,1.606481314E0,3.150151014E0,1.177328587E1
3.778132057E1,2.039582253E0,2.630908489E0,1.120379353E1
3.780018047E1,2.369791746E0,2.805584431E0,1.229252815E1
3.781903885E1,2.446362019E0,2.877369165E0,1.361785316E1
3.783789672E1,2.412862539E0,2.539981127E0,1.307707500E1
3.785675495E1,1.785943031E0,2.492124796E0,1.069412231E1
3.787561250E1,1.259821177E0,3.059223652E0,8.806484222E0
3.789446854E1,1.384247899E0,3.755535126E0,8.404490471E0
3.791332719E1,1.762014747E0,4.185944080E0,9.079266548E0
3.793218578E1,2.101795673E0,4.255335808E0,9.232406616E0
3.795104547E1,2.470290184E0,3.934697628E0,8.526524544E0
3.796990380E1,2.539682150E0,3.683750391E0,7.808677673E0
3.798876078E1,2.211865425E0,3.549752474E0,7.638787270E0
3.800761760E1,1.836192250E0,3.437289715E0,8.229814529E0
3.802647328E1,1.611266971E0,3.257827997E0,8.806484222E0
3.804532916E1,1.367498159E0,3.142972469E0,9.136693954E0
3.806418693E1,1.276570916E0,3.042474031E0,9.208478928E0
3.808304453E1,1.307677627E0,2.896511793E0,9.026624680E0
3.810190229E1,1.290927768E0,2.867797852E0,8.691629410E0
3.812075755E1,1.295713425E0,2.894119024E0,8.437990189E0
3.813961265E1,1.353141189E0,2.982653379E0,8.363812447E0
3.815846776E1,1.460818172E0,3.075973511E0,8.485846519E0
3.817732364E1,1.587338686E0,3.075973511E0,8.488239288E0
3.819618094E1,1.704586983E0,3.152543783E0,8.155636787E0
3.821503890E1,1.752443433E0,3.262613773E0,7.794320583E0
3.823389724E1,1.910369754E0,3.308077335E0,7.610073090E0
3.825275328E1,1.989332914E0,3.202793121E0,7.492825031E0
3.827160765E1,1.898405671E0,3.032902718E0,7.210472107E0
3.829046443E1,1.654337764E0,2.956332445E0,6.801598549E0
3.830932036E1,1.250249863E0,3.085544825E0,6.653243542E0
3.832817771E1,8.506484628E-1,3.162115097E0,7.040581703E0
3.834703390E1,7.716853023E-1,3.061616659E0,7.689036369E0
3.836589021E1,8.793623447E-1,2.961117983E0,7.892426491E0
3.838474625E1,1.027717352E0,2.824727058E0,7.885247707E0
3.840360364E1,8.841479421E-1,2.740978241E0,8.129315376E0
3.842246328E1,8.027920127E-1,2.592623234E0,8.792127609E0
3.844132041E1,9.870393276E-1,2.496910334E0,9.562616348E0
3.846017635E1,1.106680512E0,2.671586514E0,1.000259686E1
3.847903265E1,1.333998680E0,2.805584431E0,1.092144108E1
3.849788995E1,1.766800404E0,2.705085993E0,1.268704510E1
3.851674526E1,1.783550143E0,2.480160713E0,1.398156166E1
3.853560125E1,1.668694735E0,2.176272154E0,1.301964664E1
3.855445797E1,1.766800404E0,1.929811478E0,1.206999588E1
3.857331422E1,2.116152525E0,2.453839540E0,1.307707500E1
3.859216906E1,2.487040043E0,2.738585472E0,1.446969795E1
3.861102260E1,1.984547257E0,2.480160713E0,1.355085373E1
3.862987771E1,1.374676585E0,2.338984251E0,1.117508030E1
3.864873323E1,1.226321578E0,2.461018085E0,9.543474197E0
3.866758906E1,1.269392371E0,2.767299414E0,9.000303268E0
3.868644312E1,1.087537885E0,3.135794163E0,9.093623161E0
3.870529937E1,6.903293133E-1,3.114258766E0,9.100801468E0
3.872415698E1,1.495514214E-1,2.994617462E0,9.036195755E0
3.874301458E1,-1.184447184E-1,2.896511793E0,9.033802986E0
3.876187219E1,-3.708875179E-2,2.913261652E0,9.005088806E0
3.878073021E1,2.691925466E-1,3.061616659E0,8.954839706E0
3.879958828E1,5.587241054E-1,3.209971666E0,9.009874344E0
3.881844672E1,6.592226624E-1,3.291327477E0,9.074481010E0
3.883730422E1,7.046862841E-1,3.281756163E0,8.897412300E0
3.885616297E1,6.687939167E-1,3.221935749E0,8.579166412E0
3.887502276E1,5.467599630E-1,3.174079180E0,8.507381439E0
3.889388068E1,3.529413342E-1,3.047259569E0,8.784949303E0
3.891273682E1,1.686939895E-1,2.961117983E0,9.093623161E0
3.893159614E1,1.447657645E-1,2.882154942E0,9.201300621E0
3.895045406E1,1.663011760E-1,2.970689297E0,9.196515083E0
3.896931088E1,2.069791555E-1,3.075973511E0,9.234800339E0
3.898816687E1,2.380858511E-1,3.092723370E0,9.146265030E0
3.900702443E1,1.256231815E-1,3.068794966E0,8.871090889E0
3.902588370E1,-6.819544733E-2,2.987439156E0,8.311170578E0
3.904474187E1,-2.512463741E-2,2.932404041E0,7.744071484E0
3.906359963E1,2.237289101E-1,2.977867842E0,7.437789917E0
3.908245416E1,5.371887088E-1,3.061616659E0,7.564609528E0
3.910130870E1,7.788637877E-1,3.056830883E0,7.803892136E0
3.912016364E1,7.286145091E-1,2.961117983E0,7.736892700E0
3.913901880E1,5.395814776E-1,2.834298372E0,7.361219883E0
3.915787635E1,4.558327198E-1,2.848655462E0,7.109973431E0
3.917673333E1,5.706881881E-1,2.987439156E0,7.356434345E0
3.919558880E1,6.089733839E-1,3.107080221E0,8.052745819E0
3.921444588E1,4.845465720E-1,3.109472990E0,8.739485741E0
3.923329984E1,1.304088384E-1,3.078366280E0,9.373583794E0
3.925215406E1,-6.819544733E-2,3.020938635E0,9.648757935E0
3.927101130E1,-4.905286431E-2,3.013760090E0,8.964410782E0
3.928986932E1,-1.064806059E-1,3.394218922E0,8.478668213E0
3.930872693E1,1.208375469E-1,3.638286829E0,8.971589088E0
3.932758469E1,7.668996453E-1,3.836591959E0,1.063430214E1
3.934644271E1,1.458425403E0,3.614358664E0,1.267537975E1
3.936529765E1,1.290927768E0,3.116651535E0,1.392413425E1
3.938415573E1,9.894321561E-1,2.616551638E0,1.364895916E1
3.940301370E1,1.255035520E0,2.283949137E0,1.350060463E1
3.942186927E1,1.345962763E0,2.441875458E0,1.394327641E1
3.944072578E1,8.554341197E-1,2.561516523E0,1.374706554E1
3.945958349E1,5.970092416E-1,2.757728100E0,1.242174053E1
3.947843823E1,8.386843204E-1,3.087937593E0,1.084726334E1
3.949729552E1,1.200000525E0,3.355933666E0,9.500403404E0
3.951615458E1,1.630409479E0,3.549752474E0,8.684451103E0
3.953501333E1,1.979761600E0,3.688536167E0,8.433204651E0
3.955387078E1,2.068295956E0,3.686143398E0,8.411668777E0
3.957273036E1,1.963011861E0,3.542573929E0,8.193922043E0
3.959158979E1,1.709372640E0,3.444468260E0,7.921140194E0
3.961044724E1,1.477268934E0,3.274577856E0,8.076673508E0
3.962930297E1,1.269392371E0,3.044866800E0,8.576773643E0
3.964816172E1,1.133001566E0,2.846262455E0,8.808876991E0
3.966702021E1,1.027717352E0,2.748156786E0,8.667700768E0
3.968587635E1,8.315058947E-1,2.829512835E0,8.526524544E0
3.970473510E1,6.687939167E-1,2.913261652E0,8.607880592E0
