"Time (s)","Acceleration x (m/s^2)","Acceleration y (m/s^2)","Acceleration z (m/s^2)"
3.373536300E-2,8.920500278E-1,3.208050251E0,9.219000816E0
5.030427600E-2,6.670500040E-1,3.381000042E0,9.420000076E0
7.030427600E-2,6.960000396E-1,3.409050226E0,9.286050797E0
9.030427600E-2,6.460500360E-1,3.441000223E0,9.207000732E0
1.103042760E-1,4.369500279E-1,3.546000242E0,9.262050629E0
1.303042760E-1,1.240500063E-1,3.732000113E0,9.355950356E0
1.503042760E-1,2.239500135E-1,3.496050119E0,9.337050438E0
1.703042760E-1,4.729500115E-1,3.385050058E0,9.436950684E0
1.903042760E-1,4.180500209E-1,3.256050110E0,9.406050682E0
2.103042760E-1,2.200500071E-1,3.088950157E0,9.166950226E0
2.303042760E-1,2.700000107E-1,3.055050135E0,8.889000893E0
2.503042760E-1,1.410000026E-1,3.426000118E0,7.429050446E0
2.703042760E-1,1.099500060E-1,3.538950205E0,7.390950203E0
2.903042760E-1,9.495000541E-2,3.493050098E0,7.851000309E0
3.103042760E-1,-1.530000120E-1,3.172050238E0,8.578050613E0
3.303042760E-1,-1.549500078E-1,2.742000103E0,9.222000122E0
3.503042760E-1,-1.140000075E-1,2.737050056E0,9.523050308E0
3.703042760E-1,-3.439500034E-1,3.310950041E0,9.817950249E0
3.903042760E-1,-4.879500270E-1,3.759000063E0,9.739050865E0
4.103042760E-1,-4.399500191E-1,3.658050060E0,9.247950554E0
4.303042760E-1,-4.180500209E-1,3.469050169E0,8.764950752E0
4.503042760E-1,-3.300000131E-1,3.759000063E0,8.185950279E0
4.703042760E-1,-5.205000192E-2,3.997950077E0,8.406000137E0
4.903042760E-1,2.100000083E-1,3.948000193E0,8.643000603E0
5.103042760E-1,2.869500220E-1,3.682050228E0,8.839050293E0
5.303042760E-1,2.989500165E-1,3.364050150E0,9.181050301E0
5.503042760E-1,2.290500104E-1,2.509950161E0,8.583000183E0
5.703042760E-1,9.795000404E-2,2.514000177E0,8.599950790E0
5.903042760E-1,-2.805000171E-2,2.950050116E0,8.986950874E0
6.103042760E-1,1.669500023E-1,2.995050192E0,9.183000565E0
6.303042760E-1,3.559500277E-1,2.790000200E0,8.368050575E0
6.503042760E-1,8.370000124E-1,1.840050101E0,7.573050499E0
6.703042760E-1,1.086000085E0,1.300950050E0,7.075050354E0
6.903042760E-1,6.889500618E-1,1.636050105E0,6.669000149E0
7.103042760E-1,8.100000024E-2,1.986000061E0,6.733050346E0
7.303042760E-1,-8.509500623E-1,3.582000256E0,8.905950546E0
7.503042760E-1,-7.890000343E-1,3.808950186E0,9.211950302E0
7.703042760E-1,-6.889500618E-1,3.322950125E0,8.458050728E0
7.903042760E-1,-1.543050051E0,3.589050055E0,7.768950462E0
8.103042760E-1,-2.155950069E0,4.090950012E0,7.023000240E0
8.303042760E-1,-1.978050113E0,4.330950260E0,1.007400036E1
8.503042760E-1,-1.380000114E0,3.931050301E0,1.032495022E1
8.703042760E-1,-3.850500286E-1,3.567000151E0,1.024605083E1
8.903042760E-1,3.319500089E-1,3.390000105E0,1.004505062E1
9.103042760E-1,2.599500120E-1,3.658050060E0,9.798000336E0
9.303042760E-1,-1.306050062E0,4.394999981E0,8.503950119E0
9.503042760E-1,-8.440500498E-1,3.856950283E0,8.571000099E0
9.703042760E-1,-1.155000091E0,3.844950199E0,1.113105011E1
9.903042760E-1,-2.707950115E0,5.656050205E0,1.279395103E1
1.010304276E0,-5.500500202E-1,4.032000065E0,1.475895023E1
1.030304276E0,2.529000044E0,3.085950136E0,1.445505047E1
1.050304276E0,2.220000029E0,3.547950268E0,1.405095100E1
1.070304276E0,2.668050051E0,3.886050224E0,1.265595055E1
1.090304276E0,2.968950033E0,4.126950264E0,9.649950027E0
1.110304276E0,3.531000137E0,4.054950237E0,8.302950859E0
1.130304276E0,2.467050076E0,4.446000099E0,9.846000671E0
1.150304276E0,1.758000135E0,4.017000198E0,1.014495087E1
1.170304276E0,2.377950191E0,3.517050266E0,1.033005047E1
1.190304276E0,2.668050051E0,3.637050152E0,1.005900002E1
1.210304276E0,1.843950033E0,3.787050247E0,6.637050152E0
1.230304276E0,2.050050020E0,3.268050194E0,8.425050735E0
1.250304276E0,3.268050194E0,2.797050238E0,7.438950539E0
1.270304276E0,3.139050245E0,2.835000038E0,7.216950417E0
1.290304276E0,3.531000137E0,2.626950026E0,6.859950542E0
1.310304276E0,4.041000366E0,3.084000111E0,5.613000393E0
1.330304276E0,3.405000210E0,3.028950214E0,6.066000462E0
1.350304276E0,2.434950113E0,3.318000078E0,6.070050240E0
1.370304276E0,1.452000022E0,3.831000090E0,6.748050213E0
1.390304276E0,1.567050099E0,3.876000166E0,7.519950390E0
1.410304276E0,2.538000107E0,3.804000139E0,8.370000839E0
1.430304276E0,2.337000132E0,4.052999973E0,7.681050301E0
1.450304276E0,1.618950129E0,4.519950390E0,6.544050217E0
1.470304276E0,7.819500566E-1,5.022000313E0,5.202000141E0
1.490304276E0,5.500500202E-1,5.299950123E0,4.455000401E0
1.510304276E0,2.067000151E0,4.285050392E0,7.473000526E0
1.530304276E0,2.754000187E0,3.780000210E0,8.982000351E0
1.550304276E0,3.249000072E0,3.547950268E0,9.718950272E0
1.570304276E0,3.103050232E0,3.711000204E0,9.211950302E0
1.590304276E0,2.845050097E0,4.041000366E0,7.807950497E0
1.610304276E0,2.806050062E0,4.273050308E0,5.250000477E0
1.630304276E0,3.072000027E0,4.245000362E0,3.715950251E0
1.650304276E0,3.772950172E0,4.081950188E0,4.197000027E0
1.670304276E0,3.993000269E0,3.883050203E0,5.460000038E0
1.690304276E0,3.553050280E0,4.021950245E0,5.817000389E0
1.710304276E0,2.656050205E0,4.345050335E0,4.849950314E0
1.730304276E0,2.727000237E0,4.749000072E0,5.074950218E0
1.750304276E0,2.875950098E0,5.362050056E0,5.635050297E0
1.770304276E0,3.361950159E0,4.789950371E0,7.129950523E0
1.790304276E0,2.641050100E0,3.972000122E0,1.088700008E1
1.810304276E0,1.528950095E0,5.278050423E0,1.161495018E1
1.830304276E0,2.400000095E0,4.390050411E0,1.340205097E1
1.850304276E0,4.078950405E0,3.570000172E0,1.592895031E1
1.870304276E0,5.163000107E0,3.298950195E0,1.544295120E1
1.890304276E0,5.302050114E0,2.146050215E0,1.216305065E1
1.910304276E0,3.469050169E0,3.034050226E0,1.062405014E1
1.930304276E0,2.797050238E0,3.924000263E0,1.090605068E1
1.950304276E0,3.354000092E0,3.831000090E0,1.066005039E1
1.970304276E0,3.472050190E0,3.613050222E0,9.181050301E0
1.990304276E0,1.452000022E0,2.761050224E0,8.289000511E0
2.010304276E0,5.895000324E-2,3.037950039E0,8.395950317E0
2.030304276E0,-6.979500055E-1,3.297000170E0,8.221950531E0
2.050304276E0,-7.440000176E-1,3.498000145E0,7.906050205E0
2.070304276E0,-4.729500115E-1,3.474000216E0,7.894050598E0
2.090304276E0,4.005000368E-2,3.223050117E0,8.149950027E0
2.110304276E0,5.279999971E-1,3.003000259E0,8.137949944E0
2.130304276E0,1.126950026E0,2.914050102E0,7.723950386E0
2.150304276E0,1.450050116E0,2.916000128E0,7.126050472E0
2.170304276E0,1.426050067E0,3.120000124E0,6.952950478E0
2.190304276E0,1.075950027E0,3.622050285E0,7.173000336E0
2.210304276E0,1.396950126E0,3.370950222E0,7.153950214E0
2.230304276E0,1.990050077E0,3.072000027E0,6.814950466E0
2.250304276E0,2.601000071E0,2.875950098E0,6.892950535E0
2.270304276E0,2.979000092E0,2.976000071E0,7.719000340E0
2.290304276E0,2.833050251E0,3.720000267E0,9.351000786E0
2.310304276E0,2.434950113E0,4.072050095E0,1.007805061E1
2.330304276E0,1.995000124E0,5.190000057E0,1.045395088E1
2.350304276E0,1.608000040E0,6.243000507E0,8.985000610E0
2.370304276E0,3.955050230E0,5.281050205E0,8.308050156E0
2.390304276E0,2.979000092E0,5.794950485E0,7.602000237E0
2.410304276E0,4.197000027E0,3.531000137E0,9.151950836E0
2.430304276E0,5.257050037E0,2.172000170E0,1.094895077E1
2.450304276E0,4.845000267E0,3.208050251E0,1.187595081E1
2.470304276E0,4.594050407E0,3.522000074E0,9.102000237E0
2.490304276E0,3.667950153E0,3.201000214E0,8.013000488E0
2.510304276E0,1.906950116E0,3.522000074E0,5.581950188E0
2.530304276E0,-1.219500080E-1,4.096050262E0,4.302000046E0
2.550304276E0,-8.200500607E-1,4.393050194E0,4.419000149E0
2.570304276E0,1.105050087E0,4.519950390E0,5.965050220E0
2.590304276E0,1.867950082E0,4.560000420E0,6.733050346E0
2.610304276E0,1.986000061E0,4.479000092E0,6.819000244E0
2.630304276E0,1.830000043E0,4.393050194E0,6.846000195E0
2.650304276E0,1.933050036E0,4.162950039E0,7.023000240E0
2.670304276E0,2.815950155E0,4.063050270E0,9.681000710E0
2.690304276E0,2.895000219E0,4.117949963E0,1.097100067E1
2.710304276E0,2.577000141E0,4.185000420E0,1.137105083E1
2.730304276E0,1.794000030E0,4.703999996E0,1.062900066E1
2.750304276E0,1.399050117E0,4.771050453E0,9.243000031E0
2.770304276E0,3.658050060E0,4.797000408E0,9.949050903E0
2.790304276E0,5.652000427E0,4.157999992E0,1.097295094E1
2.810304276E0,6.142050266E0,3.088950157E0,1.184895039E1
2.830304276E0,4.669950008E0,3.397050142E0,1.258905029E1
2.850304276E0,2.871000051E0,3.877950191E0,1.238805103E1
2.870304276E0,8.850000501E-1,3.838050127E0,1.036305046E1
2.890304276E0,6.379500031E-1,3.771000147E0,9.624000549E0
2.910304276E0,8.149500489E-1,3.256050110E0,9.126000404E0
2.930304276E0,7.630500197E-1,3.055050135E0,8.482049942E0
2.950304276E0,1.155000091E0,2.931000233E0,7.171050549E0
2.970304276E0,1.447050095E0,2.689050198E0,6.771000385E0
2.990304276E0,1.641000032E0,2.332950115E0,6.322050095E0
3.010304276E0,1.408950090E0,1.987950087E0,5.533950329E0
3.030304276E0,8.970000148E-1,1.966050148E0,4.603050232E0
3.050304276E0,6.460500360E-1,2.431050062E0,3.663000107E0
3.070304276E0,2.460000068E-1,3.337950230E0,4.632000446E0
3.090304276E0,-3.919500113E-1,4.474050045E0,5.857050419E0
3.110304276E0,-4.800000191E-1,5.014950275E0,7.554000378E0
3.130304276E0,-7.095000148E-2,4.672950268E0,9.657000542E0
3.150304276E0,-6.310500503E-1,5.319000244E0,1.371795082E1
3.170304276E0,-7.050000429E-1,6.381000519E0,1.455300045E1
3.190304276E0,-1.605000161E-2,5.842950344E0,1.405995083E1
3.210304276E0,2.818050146E0,4.300050259E0,1.362495041E1
3.230304276E0,4.129950047E0,4.627050400E0,1.194495010E1
3.250304276E0,3.366000175E0,3.637050152E0,1.025805092E1
3.270304276E0,2.848950148E0,3.925950289E0,1.052595043E1
3.290304276E0,2.557950020E0,4.361999989E0,1.060995007E1
3.310304276E0,3.108000040E0,3.960000277E0,9.862950325E0
3.330304276E0,3.547950268E0,3.730050087E0,9.619050026E0
3.350304276E0,3.289950132E0,2.208000183E0,9.609000206E0
3.370304276E0,2.928000212E0,1.906950116E0,8.590050697E0
3.390304276E0,2.449950218E0,2.313000202E0,7.272000313E0
3.410304276E0,2.077050209E0,2.802000046E0,6.076950073E0
3.430304276E0,1.950000048E0,2.995050192E0,5.025000095E0
3.450304276E0,1.701000094E0,3.286950111E0,3.229950190E0
3.470304276E0,1.210050106E0,3.888000250E0,3.277950048E0
3.490304276E0,9.379500151E-1,4.383000374E0,3.739950180E0
3.510304276E0,1.191000104E0,4.359000206E0,4.736999989E0
3.530304276E0,2.280000210E0,4.903050423E0,7.884000301E0
3.550304276E0,2.437950134E0,4.831050396E0,9.054000854E0
3.570304276E0,2.139000177E0,4.720950127E0,9.822000504E0
3.590304276E0,9.660000205E-1,5.448000431E0,1.002300072E1
3.610304276E0,3.229500055E-1,5.577000141E0,1.062900066E1
3.630304276E0,3.952950239E0,4.962000370E0,1.357905102E1
3.650304276E0,5.830950260E0,3.529050112E0,1.364100075E1
3.670304276E0,5.982000351E0,2.931000233E0,1.207695103E1
3.690304276E0,4.596000195E0,3.637050152E0,1.042095089E1
3.710304276E0,3.844950199E0,4.255949974E0,8.470050812E0
3.730304276E0,3.316050053E0,4.111050129E0,7.434000492E0
3.750304276E0,3.237000227E0,2.991000175E0,8.334000587E0
3.770304276E0,3.163050175E0,2.007000208E0,8.311950684E0
3.790304276E0,2.650950193E0,1.923000097E0,7.402950287E0
3.810304276E0,2.038050175E0,2.301000118E0,7.072950363E0
3.830304276E0,8.610000610E-1,3.010050058E0,7.510950565E0
3.850304276E0,7.510500550E-1,2.803950071E0,7.504050255E0
3.870304276E0,7.530000210E-1,2.479050159E0,7.683000565E0
3.890304276E0,8.350500464E-1,2.257950068E0,7.771950245E0
3.910304276E0,9.280500412E-1,2.281949997E0,7.579950333E0
3.930304276E0,2.269500047E-1,3.022050142E0,7.552050591E0
3.950304276E0,-5.860500336E-1,3.853950262E0,7.212000370E0
3.970304276E0,-1.332000017E0,4.531949997E0,7.743000507E0
3.990304276E0,-1.231950045E0,4.894950390E0,9.363000870E0
4.010304276E0,1.500000060E-1,5.343000412E0,1.282800102E1
4.030304276E0,1.114950061E0,6.252000332E0,1.357905102E1
4.050304276E0,2.814000130E0,6.264000416E0,1.424205112E1
4.070304276E0,4.575000286E0,5.710950375E0,1.337100029E1
4.090304276E0,4.054950237E0,6.247050285E0,1.248300076E1
4.110304276E0,3.772950172E0,4.206000328E0,1.028700066E1
4.130304276E0,2.365950108E0,4.699050426E0,9.657000542E0
4.150304276E0,2.325000048E0,5.116050243E0,9.685950279E0
4.170304276E0,3.441000223E0,4.945950031E0,9.976050377E0
4.190304276E0,4.218000412E0,4.411950111E0,8.478000641E0
4.210304276E0,2.809050083E0,3.888000250E0,5.071950436E0
4.230304276E0,1.560000062E0,3.747000217E0,4.267950058E0
4.250304276E0,9.490500689E-1,3.594000101E0,3.964950085E0
4.270304276E0,1.119000077E0,3.594000101E0,4.075050354E0
4.290304276E0,1.597950101E0,3.526950121E0,4.570050240E0
4.310304276E0,1.597950101E0,3.526950121E0,4.570050240E0
4.330304276E0,-1.860000044E-1,3.261000156E0,5.010000229E0
4.350304276E0,-7.560000420E-1,3.079050064E0,4.753950119E0
4.370304276E0,-8.389500380E-1,3.333000183E0,5.878950119E0
4.390304276E0,1.650000066E-1,3.546000242E0,8.032050133E0
4.410304276E0,2.371050119E0,2.589000225E0,1.195905018E1
4.430304276E0,2.653050184E0,2.232000113E0,1.221105099E1
4.450304276E0,2.188950062E0,2.842050076E0,1.214400101E1
4.470304276E0,1.855950117E0,3.505050182E0,1.202100086E1
4.490304276E0,1.866000056E0,4.210950375E0,1.133700085E1
4.510304276E0,1.866000056E0,4.210950375E0,1.133700085E1
4.530304276E0,3.969000101E0,4.740000248E0,1.077195072E1
4.550304276E0,4.660950184E0,4.114950180E0,1.028895092E1
4.570304276E0,4.539000034E0,3.157950163E0,9.471000671E0
4.590304276E0,4.539000034E0,3.157950163E0,9.471000671E0
4.610304276E0,4.162950039E0,2.932950258E0,1.093695068E1
4.630304276E0,5.317050457E0,2.248950005E0,1.217700100E1
4.650304276E0,5.533950329E0,2.009999990E0,1.168905067E1
4.670304276E0,4.399950027E0,2.359050035E0,9.760050774E0
4.690304276E0,1.567050099E0,3.334950209E0,6.301950455E0
4.710304276E0,8.659500480E-1,3.828000069E0,5.677950382E0
4.730304276E0,4.830000103E-1,4.240050316E0,6.079950333E0
4.750304276E0,4.470000267E-1,4.044000149E0,6.511050224E0
4.770304276E0,6.360000372E-1,3.843000174E0,6.706950188E0
4.790304276E0,7.150500417E-1,4.213050365E0,6.558000088E0
4.810304276E0,8.130000234E-1,4.063050270E0,6.666000366E0
4.830304276E0,9.109500647E-1,4.113000393E0,7.161000252E0
4.850304276E0,1.191000104E0,3.802050114E0,7.975050449E0
4.870304276E0,1.593000054E0,3.517050266E0,8.487000465E0
4.890304276E0,2.263050079E0,3.481050253E0,9.649950027E0
4.910304276E0,2.280000210E0,3.325950146E0,1.093005085E1
4.930304276E0,2.062050104E0,2.916000128E0,1.216995049E1
4.950304276E0,1.438050032E0,3.022050142E0,1.228500080E1
4.970304276E0,1.410000026E-1,4.764000416E0,1.101405048E1
4.990304276E0,1.213050008E0,5.530050278E0,8.407950401E0
5.010304276E0,6.430500150E-1,7.389000416E0,8.877000809E0
5.030304276E0,1.825050116E0,5.914950371E0,1.075995064E1
5.050304276E0,3.787050247E0,3.523950100E0,1.164105034E1
5.070304276E0,4.150950432E0,3.249000072E0,1.171305084E1
5.090304276E0,3.541050196E0,3.792000294E0,9.874950409E0
5.110304276E0,2.959950209E0,3.912000179E0,8.056050301E0
5.130304276E0,2.329950094E0,4.122000217E0,7.353000164E0
5.150304276E0,2.160000086E0,3.663000107E0,7.015950203E0
5.170304276E0,2.665050030E0,2.635950089E0,7.168950558E0
5.190304276E0,3.072000027E0,2.341950178E0,7.093950272E0
5.210304276E0,3.136950254E0,1.971000075E0,6.568050385E0
5.230304276E0,2.644050121E0,1.714950085E0,5.890950203E0
5.250304276E0,1.579050064E0,1.945050120E0,5.530050278E0
5.270304276E0,-6.840000153E-1,3.225000143E0,5.110950470E0
5.290304276E0,-5.950500369E-1,3.828000069E0,5.532000065E0
5.310304276E0,-3.299999982E-2,4.405050278E0,6.594000340E0
5.330304276E0,6.649500132E-1,4.608000278E0,7.507950306E0
5.350304276E0,1.452000022E0,4.210950375E0,8.146950722E0
5.370304276E0,2.311050177E0,3.921000242E0,9.301050186E0
5.390304276E0,2.896950245E0,3.772950172E0,1.024395084E1
5.410304276E0,2.650950193E0,4.474050045E0,1.021695042E1
5.430304276E0,1.512000084E0,5.376000404E0,9.978000641E0
5.450304276E0,1.981050134E0,5.452950478E0,1.013805008E1
5.470304276E0,5.629950047E0,4.081950188E0,1.154295063E1
5.490304276E0,6.585000515E0,1.966050148E0,1.180905056E1
5.510304276E0,5.223000050E0,1.584000111E0,1.098300076E1
5.530304276E0,2.914050102E0,2.122050047E0,9.973050117E0
5.550304276E0,1.621950030E0,2.526000023E0,9.210000038E0
5.570304276E0,1.216950059E0,3.127050161E0,8.052000046E0
5.590304276E0,9.139500260E-1,3.280050039E0,7.687950134E0
5.610304276E0,8.370000124E-1,2.919000149E0,7.530000210E0
5.630304276E0,8.509500623E-1,2.433000088E0,7.267050266E0
5.650304276E0,5.310000181E-1,2.488050222E0,6.807000160E0
5.670304276E0,2.050500065E-1,3.046050072E0,6.214050293E0
5.690304276E0,3.540000021E-1,3.373950243E0,6.106050491E0
5.710304276E0,5.895000324E-2,4.132050037E0,6.076950073E0
5.730304276E0,-3.919500113E-1,4.728000164E0,6.762000084E0
5.750304276E0,1.324950099E0,3.541050196E0,9.601950645E0
5.770304276E0,2.839950085E0,3.325950146E0,1.159305096E1
5.790304276E0,3.783000231E0,3.543000221E0,1.285695076E1
5.810304276E0,3.571950197E0,3.949950218E0,1.311300087E1
5.830304276E0,2.512050152E0,4.486050129E0,1.218405056E1
5.850304276E0,2.842050076E0,3.228000164E0,1.062405014E1
5.870304276E0,2.111999989E0,3.184050083E0,1.146900082E1
5.890304276E0,1.270050049E0,2.530950069E0,1.289505100E1
5.910304276E0,5.279999971E-1,2.863950253E0,1.349595070E1
5.930304276E0,1.051950097E0,3.424050093E0,1.299105072E1
5.950304276E0,4.102950096E0,4.234950066E0,1.193505096E1
5.970304276E0,3.448050261E0,4.684950352E0,1.117005062E1
5.990304276E0,3.132000208E0,3.694050074E0,1.016505051E1
6.010304276E0,2.761050224E0,2.998050213E0,8.793000221E0
6.030304276E0,2.160000086E0,2.863950253E0,7.306950569E0
6.050304276E0,1.279950023E0,3.400050163E0,5.415000439E0
6.070304276E0,1.528950095E0,3.655950069E0,5.713950157E0
6.090304276E0,2.005050182E0,3.340050220E0,6.420000076E0
6.110304276E0,1.878000140E0,2.754000187E0,6.907950401E0
6.130304276E0,1.131000042E0,2.548050165E0,6.972000122E0
6.150304276E0,-4.305000231E-2,3.163050175E0,6.628050327E0
6.170304276E0,4.249500334E-1,3.522000074E0,6.967950344E0
6.190304276E0,1.372950077E0,3.807000160E0,7.711950302E0
6.210304276E0,1.710000038E0,4.157999992E0,7.815000534E0
6.230304276E0,1.014000058E0,4.120050430E0,7.329000473E0
6.250304276E0,-2.599500120E-1,4.138950348E0,7.213950157E0
6.270304276E0,3.105000220E-2,4.267950058E0,7.522950172E0
6.290304276E0,4.450500309E-1,4.498050213E0,8.254950523E0
6.310304276E0,6.360000372E-1,4.917000294E0,8.511000633E0
6.330304276E0,-2.805000171E-2,5.620050430E0,7.410000324E0
6.350304276E0,9.610500336E-1,5.508000374E0,9.403950691E0
6.370304276E0,4.495950222E0,4.137000084E0,1.720905113E1
6.390304276E0,4.897950172E0,3.358950138E0,1.774800110E1
6.410304276E0,2.761050224E0,4.309050083E0,1.425405025E1
6.430304276E0,-5.279999971E-1,7.281000137E0,8.938950539E0
6.450304276E0,1.140000075E-1,6.739950180E0,8.302950859E0
6.470304276E0,1.062000036E0,5.611050129E0,9.183000565E0
6.490304276E0,1.444950104E0,4.801950455E0,1.014495087E1
6.510304276E0,1.903950095E0,3.933000088E0,1.023405075E1
6.530304276E0,1.135950089E0,4.113000393E0,7.669050217E0
6.550304276E0,4.159500301E-1,4.588950157E0,6.151950359E0
6.570304276E0,3.495000303E-2,4.438050270E0,5.335950375E0
6.590304276E0,-1.189500093E-1,4.039050102E0,5.251950264E0
6.610304276E0,-8.805000782E-2,3.763950109E0,5.611050129E0
6.630304276E0,-1.930500120E-1,3.768000126E0,5.242050171E0
6.650304276E0,-1.650000066E-1,3.921000242E0,4.563000202E0
6.670304276E0,-2.629500031E-1,4.285050392E0,4.492950439E0
6.690304276E0,-5.700000376E-2,4.483950138E0,4.831050396E0
6.710304276E0,4.230000079E-1,4.354950428E0,5.782950401E0
6.730304276E0,8.250000477E-1,4.039050102E0,7.468050480E0
6.750304276E0,4.129500091E-1,4.282950401E0,7.834050179E0
6.770304276E0,4.609500170E-1,4.534049988E0,9.223950386E0
6.790304276E0,1.255950093E0,5.010000229E0,1.112205029E1
6.810304276E0,2.155950069E0,5.692050457E0,1.202595043E1
6.830304276E0,1.054949999E0,8.266950607E0,8.479949951E0
6.850304276E0,4.879500270E-1,8.059050560E0,8.545050621E0
6.870304276E0,6.049500108E-1,7.378950119E0,1.265595055E1
6.890304276E0,1.938000083E0,5.769000053E0,1.579005051E1
6.910304276E0,2.293950081E0,5.257050037E0,1.206495094E1
6.930304276E0,1.831950068E0,6.073050499E0,9.013950348E0
6.950304276E0,2.077050209E0,5.998950481E0,7.284000397E0
6.970304276E0,2.613000154E0,5.695050240E0,6.598950386E0
6.990304276E0,2.890050173E0,5.524950027E0,6.862050533E0
7.010304276E0,2.053050041E0,4.723050117E0,8.170949936E0
7.030304276E0,1.543050051E0,4.417050362E0,7.908000469E0
7.050304276E0,1.216950059E0,4.122000217E0,7.216950417E0
7.070304276E0,1.015950084E0,3.778050184E0,6.376950264E0
7.090304276E0,9.900000691E-1,3.475950241E0,5.544000149E0
7.110304276E0,1.323000073E0,3.109950066E0,5.340000153E0
7.130304276E0,1.509000063E0,2.944950104E0,5.707050323E0
7.150304276E0,1.569000125E0,3.016950130E0,4.222949982E0
7.170304276E0,1.732050061E0,3.720000267E0,3.933000088E0
7.190304276E0,1.585950017E0,3.802050114E0,5.821050167E0
7.210304276E0,1.651050091E0,4.429050446E0,6.255000114E0
7.258355177E0,1.879950047E0,3.969000101E0,8.992050171E0
7.278355177E0,1.785000086E0,4.153950214E0,9.126000404E0
7.298355177E0,1.966050148E0,3.828000069E0,8.566050529E0
7.318355177E0,1.864050031E0,3.847050190E0,8.237999916E0
7.338355177E0,1.720050097E0,3.775950193E0,7.918050289E0
7.358355177E0,1.225050092E0,3.880950212E0,7.968000412E0
7.378355177E0,1.404000044E0,3.901950121E0,8.178000450E0
7.398355177E0,1.855950117E0,3.981000185E0,8.137949944E0
7.418355177E0,2.140950203E0,3.940950155E0,8.194950104E0
7.438355177E0,1.588050127E0,4.225049973E0,8.559000015E0
7.458355177E0,1.404000044E0,4.383000374E0,8.602050781E0
7.478355177E0,2.128950119E0,4.513050079E0,8.824950218E0
7.498355177E0,3.454950094E0,4.471950054E0,9.367950439E0
7.518355177E0,4.394999981E0,4.276050091E0,9.337050438E0
7.538355177E0,4.510050297E0,4.186950207E0,8.994000435E0
7.558355177E0,3.952950239E0,4.129950047E0,8.855999947E0
7.578355177E0,3.382950068E0,4.039050102E0,8.872050285E0
7.598355177E0,3.027000189E0,3.901950121E0,9.115950584E0
7.618355177E0,2.332950115E0,3.904950142E0,9.262050629E0
7.638355177E0,1.801050067E0,3.864000082E0,9.504000664E0
7.658355177E0,1.186050057E0,4.216050148E0,1.019805050E1
7.678355177E0,5.500500202E-1,4.519950390E0,9.765000343E0
7.698355177E0,9.589500427E-1,4.582050323E0,9.585000038E0
7.718355177E0,1.902000070E0,4.780950069E0,9.090000153E0
7.738355177E0,2.596050024E0,4.273050308E0,9.685950279E0
7.758355177E0,2.550000191E0,4.363950253E0,9.696000099E0
7.778355177E0,1.818000078E0,4.361999989E0,8.467950821E0
7.798355177E0,1.516950130E0,4.876049995E0,7.542000294E0
7.818355177E0,2.014050007E0,4.447950363E0,7.396050453E0
7.838355177E0,1.999950051E0,4.333050251E0,7.531950474E0
7.858355177E0,1.621950030E0,3.984000206E0,7.791000366E0
7.878355177E0,1.654950023E0,3.760950089E0,8.059050560E0
7.898355177E0,1.765050054E0,3.730050087E0,6.858000278E0
7.918355177E0,1.138950109E0,3.547950268E0,9.648000717E0
7.938355177E0,6.049500108E-1,3.352050066E0,9.825000763E0
7.958355177E0,3.970500231E-1,3.322950125E0,1.021200085E1
7.978355177E0,4.690500200E-1,3.007050037E0,1.026000023E1
7.998355177E0,1.240950108E0,2.412000179E0,1.013805008E1
8.018355177E0,1.672050118E0,2.170050144E0,9.865050316E0
8.038355177E0,2.230050087E0,2.220000029E0,8.994000435E0
8.058355177E0,2.059950113E0,2.389950037E0,9.109050751E0
8.078355177E0,1.054949999E0,3.117000103E0,8.773950577E0
8.098355177E0,1.720500141E-1,3.414000273E0,7.284000397E0
8.118355177E0,-6.705000252E-2,3.205950260E0,5.728050232E0
8.138355177E0,-4.729500115E-1,2.967000246E0,6.514950275E0
8.158355177E0,-5.640000105E-1,3.655950069E0,7.408050537E0
8.178355177E0,-8.595000207E-2,3.835050106E0,8.013000488E0
8.198355177E0,8.629500270E-1,3.850050211E0,8.176050186E0
8.218355177E0,1.354050040E0,3.826050282E0,8.190000534E0
8.238355177E0,1.383000016E0,3.844950199E0,8.269050598E0
8.258355177E0,1.404000044E0,3.981000185E0,7.699950218E0
8.278355177E0,1.306050062E0,4.087049961E0,8.502000809E0
8.298355177E0,1.198050022E0,3.924000263E0,8.512949944E0
8.318355177E0,1.234050035E0,3.649050236E0,7.654050350E0
8.338355177E0,1.770000100E0,3.799050093E0,6.448050499E0
8.358355177E0,2.353950024E0,4.254000187E0,6.280950069E0
8.378355177E0,2.656050205E0,5.178000450E0,4.342950344E0
8.398355177E0,1.429950118E0,5.347950459E0,6.778950214E0
8.418355177E0,1.648050070E0,5.635050297E0,6.700050354E0
8.438355177E0,3.414000273E0,5.422050476E0,6.769050121E0
8.458355177E0,4.765950203E0,5.307000160E0,6.400950432E0
8.478355177E0,4.849950314E0,4.990950108E0,6.384000301E0
8.498355177E0,3.478950262E0,4.703999996E0,7.846050262E0
8.518355177E0,2.701050043E0,4.918950081E0,9.898950577E0
8.538355177E0,2.160000086E0,6.079950333E0,1.084200096E1
8.558355177E0,2.017050028E0,6.940950394E0,1.028700066E1
8.578355177E0,4.144050121E0,5.785950184E0,1.032300091E1
8.598355177E0,4.729950428E0,4.804050446E0,1.126500034E1
8.618355177E0,5.323950291E0,2.761050224E0,1.244505024E1
8.638355177E0,4.747050285E0,2.815950155E0,1.228905106E1
8.658355177E0,4.255949974E0,3.795000076E0,1.071300030E1
8.678355177E0,4.921950340E0,4.267950058E0,1.022205067E1
8.698355177E0,5.569950104E0,4.216050148E0,9.181050301E0
8.718355177E0,4.857000351E0,4.383000374E0,7.783950329E0
8.738355177E0,4.149000168E0,3.850050211E0,6.847950459E0
8.758355177E0,3.900000095E0,3.262950182E0,6.121050358E0
8.778355177E0,3.553050280E0,2.887950182E0,5.917050362E0
8.798355177E0,3.768000126E0,3.060000181E0,6.180000305E0
8.818355177E0,4.024050236E0,2.971050024E0,6.598950386E0
8.838355177E0,3.856950283E0,2.854050159E0,7.161000252E0
8.858355177E0,3.271050215E0,2.662950039E0,7.140000343E0
8.878355177E0,2.203050137E0,2.311050177E0,6.915000439E0
8.898355177E0,2.100000143E0,2.383050203E0,7.666050434E0
8.918355177E0,3.049950123E0,2.233950138E0,9.294000626E0
8.938355177E0,3.555000067E0,1.971000075E0,9.703050613E0
8.958355177E0,2.919000149E0,1.873050094E0,9.016050339E0
8.978355177E0,2.031000137E0,2.254050016E0,7.603950500E0
8.998355177E0,1.560000062E0,2.497950077E0,6.187950134E0
9.018355177E0,1.372950077E0,2.775000095E0,4.459950447E0
9.038355177E0,1.488000035E0,2.919000149E0,3.382950068E0
9.058355177E0,2.455050230E0,2.434950113E0,3.280050039E0
9.078355177E0,2.014050007E0,4.137000084E0,3.639000177E0
9.098355177E0,1.165050030E0,5.635050297E0,5.575050354E0
9.118355177E0,2.605050087E0,5.194950104E0,6.535050392E0
9.138355177E0,3.732000113E0,4.828050137E0,9.238950729E0
9.158355177E0,4.489050388E0,4.489050388E0,1.161705017E1
9.178355177E0,3.622050285E0,4.477050304E0,1.186095047E1
9.198355177E0,1.579050064E0,6.259050369E0,1.036095047E1
9.218355177E0,2.605050087E0,6.834000111E0,9.126000404E0
9.238355177E0,4.918950081E0,6.097050190E0,9.733950615E0
9.258355177E0,6.286050320E0,4.736999989E0,1.177695084E1
9.278355177E0,6.742950439E0,3.232050180E0,1.299795055E1
9.298355177E0,5.041050434E0,3.496050119E0,1.235400105E1
9.318355177E0,3.510000229E0,4.019999981E0,1.052400017E1
9.338355177E0,4.186950207E0,3.376050234E0,9.765000343E0
9.358355177E0,4.510050297E0,2.632050037E0,1.055895042E1
9.378355177E0,3.811050177E0,1.678950071E0,1.094700050E1
9.398355177E0,2.955000162E0,9.930000305E-1,1.061700058E1
9.418355177E0,2.050050020E0,9.930000305E-1,9.846000671E0
9.438355177E0,1.858950138E0,1.201050043E0,8.631000519E0
9.458355177E0,1.806000113E0,1.404000044E0,7.558950424E0
9.478355177E0,1.261050105E0,1.726950049E0,6.085050106E0
9.498355177E0,8.920500278E-1,1.672050118E0,4.861950397E0
9.518355177E0,1.024049997E0,1.299000025E0,4.291950226E0
9.538355177E0,9.180000424E-1,1.495050073E0,4.072050095E0
9.558355177E0,8.149500489E-1,2.266050100E0,5.410050392E0
9.578355177E0,1.440000057E0,3.096000195E0,7.855050564E0
9.598355177E0,1.897050142E0,3.084000111E0,9.544950485E0
9.618355177E0,2.100000143E0,2.980950117E0,9.696000099E0
9.638355177E0,1.873050094E0,3.237000227E0,1.022700024E1
9.658355177E0,1.689000130E0,4.596000195E0,1.134405041E1
9.678355177E0,2.683950186E0,5.376000404E0,1.198095036E1
9.698355177E0,3.739950180E0,5.388000488E0,1.137105083E1
9.718355177E0,3.262950182E0,6.628050327E0,1.022895050E1
9.738355177E0,2.670000076E0,7.453050137E0,9.049050331E0
9.758355177E0,3.555000067E0,7.803000450E0,8.772000313E0
9.778355177E0,4.888050079E0,6.541950226E0,7.846050262E0
9.798355177E0,4.639050007E0,4.845000267E0,7.161000252E0
9.818355177E0,3.912000179E0,3.478950262E0,6.748050213E0
9.838355177E0,2.833050251E0,3.097950220E0,6.670950413E0
9.858355177E0,3.364050150E0,3.487950087E0,7.366950512E0
9.878355177E0,5.335950375E0,3.378000259E0,7.726050377E0
9.898355177E0,6.465000153E0,3.223050117E0,7.567950249E0
9.918355177E0,5.379000187E0,3.381000042E0,6.949050426E0
9.938355177E0,4.170000076E0,3.795000076E0,6.178050518E0
9.958355177E0,4.455000401E0,3.772950172E0,6.568050385E0
9.978355177E0,4.897950172E0,3.876000166E0,6.967950344E0
9.998355177E0,4.788000107E0,4.005000114E0,7.150050163E0
1.001835518E1,4.434000015E0,3.658050060E0,6.712050438E0
1.003835518E1,4.105950356E0,2.980950117E0,6.166050434E0
1.005835518E1,3.316050053E0,2.932950258E0,5.665950298E0
1.007835518E1,2.340000153E0,3.664950132E0,6.610950470E0
1.009835518E1,1.926000118E0,4.141950130E0,8.320050240E0
1.011835518E1,3.574950218E0,3.831000090E0,9.943950653E0
1.013835518E1,6.091950417E0,3.244050264E0,9.861000061E0
1.015835518E1,7.354950428E0,3.253950119E0,7.456050396E0
1.017835518E1,7.518000126E0,3.352050066E0,5.010000229E0
1.019835518E1,6.144000053E0,4.489050388E0,4.462050438E0
1.021835518E1,4.383000374E0,5.343000412E0,6.183000088E0
1.023835518E1,4.855050087E0,4.347000122E0,9.337050438E0
1.025835518E1,6.115950108E0,3.181950092E0,1.138695049E1
1.027835518E1,6.484050274E0,2.517000198E0,1.142595100E1
1.029835518E1,4.740000248E0,3.004950047E0,9.523050308E0
1.031835518E1,2.725050211E0,4.306950092E0,8.467950821E0
1.033835518E1,2.701050043E0,4.768950462E0,8.260050774E0
1.035835518E1,5.356950283E0,5.095950127E0,9.810000420E0
1.037835518E1,8.410950661E0,3.333000183E0,1.139700031E1
1.039835518E1,9.226950645E0,1.525950074E0,1.145895100E1
1.041835518E1,6.805050373E0,2.002050161E0,1.085895061E1
1.043835518E1,4.837950230E0,2.827950239E0,1.014795017E1
1.045835518E1,4.515000343E0,2.257950068E0,9.198000908E0
1.047835518E1,3.792000294E0,1.879950047E0,7.855050564E0
1.049835518E1,2.821050167E0,1.840050101E0,6.478950500E0
1.051835518E1,1.627050042E0,2.416050196E0,5.410050392E0
1.053835518E1,7.050000429E-1,2.802000046E0,4.926000118E0
1.055835518E1,3.130500019E-1,3.445050240E0,5.392950058E0
1.057835518E1,4.110000134E-1,3.346950054E0,6.750000477E0
1.059835518E1,1.191000104E0,2.385000229E0,7.915050507E0
1.061835518E1,1.806000113E0,1.830000043E0,7.939050198E0
1.063835518E1,1.854000092E0,1.642950058E0,7.291050434E0
1.065835518E1,1.792050123E0,1.999950051E0,6.091950417E0
1.067835518E1,1.441950083E0,2.299050093E0,5.371950150E0
1.069835518E1,5.500500202E-1,3.097950220E0,5.572950363E0
1.071835518E1,7.770000100E-1,3.993000269E0,6.166050434E0
1.073835518E1,1.573950052E0,4.417050362E0,6.963000298E0
1.075835518E1,1.734000087E0,4.603050232E0,8.157000542E0
1.077835518E1,5.089499950E-1,5.046000004E0,9.238950729E0
1.079835518E1,4.920000136E-1,5.440950394E0,1.061700058E1
1.081835518E1,1.246050000E0,5.497950077E0,1.123905087E1
1.083835518E1,1.645950079E0,5.776050091E0,1.066005039E1
1.085835518E1,9.690000415E-1,6.955950260E0,9.577950478E0
1.087835518E1,1.720050097E0,6.220950127E0,9.004050255E0
1.089835518E1,3.768000126E0,4.402050018E0,1.011000061E1
1.091835518E1,4.099050045E0,4.029000282E0,1.188000011E1
1.093835518E1,4.222949982E0,2.979000092E0,1.337100029E1
1.095835518E1,3.889950275E0,2.835000038E0,1.369395065E1
1.097835518E1,3.567000151E0,3.088950157E0,1.250700092E1
1.099835518E1,3.583950281E0,3.109950066E0,1.101405048E1
1.101835518E1,3.768000126E0,3.049950123E0,9.724050522E0
1.103835518E1,3.928950071E0,2.967000246E0,8.628000259E0
1.105835518E1,3.673050165E0,2.875950098E0,7.540050507E0
1.107835518E1,3.309000254E0,2.739000082E0,6.369000435E0
1.109835518E1,3.117000103E0,2.610000134E0,5.613000393E0
1.111835518E1,3.213000059E0,2.368050098E0,5.431050301E0
1.113835518E1,3.120000124E0,2.103000164E0,5.865000248E0
1.115835518E1,2.482950211E0,1.990050077E0,6.013050079E0
1.117835518E1,1.612050056E0,1.684050083E0,5.875950336E0
1.119835518E1,6.769500375E-1,1.894950032E0,5.251950264E0
1.121835518E1,1.840500087E-1,2.304000139E0,4.831050396E0
1.123835518E1,1.789500117E-1,2.914050102E0,5.484000206E0
1.125835518E1,6.580500603E-1,3.168000221E0,6.478950500E0
1.127835518E1,1.678950071E0,3.499950171E0,7.732950211E0
1.129835518E1,2.317950010E0,3.889950275E0,8.690999985E0
1.131835518E1,2.734950066E0,3.981000185E0,9.363000870E0
1.133835518E1,3.457050085E0,3.732000113E0,1.097805023E1
1.135835518E1,3.973950148E0,3.478950262E0,1.218195057E1
1.137835518E1,4.032000065E0,2.931000233E0,1.277295017E1
1.139835518E1,3.429000139E0,2.730000019E0,1.229205036E1
1.141835518E1,3.457050085E0,3.112950087E0,1.146900082E1
1.143835518E1,3.868950129E0,3.055050135E0,1.132500076E1
1.145835518E1,4.033950329E0,3.948000193E0,1.155000019E1
1.147835518E1,4.189050198E0,4.168050289E0,1.220595074E1
1.149835518E1,4.363950253E0,3.321000099E0,1.233495045E1
1.151835518E1,4.309050083E0,2.725050211E0,1.215495014E1
1.153835518E1,4.632000446E0,2.227050066E0,1.104000092E1
1.155835518E1,4.725000381E0,2.176950216E0,9.592950821E0
1.157835518E1,4.077000141E0,2.656050205E0,8.545050621E0
1.159835518E1,3.019050121E0,2.860950232E0,7.071000099E0
1.161835518E1,2.554950237E0,2.351999998E0,6.298050404E0
1.163835518E1,1.975950122E0,2.341950178E0,6.184950352E0
1.165835518E1,1.573950052E0,2.287050009E0,5.977050304E0
1.167835518E1,1.732050061E0,1.951950073E0,5.872050285E0
1.169835518E1,1.584000111E0,2.179050207E0,6.465000153E0
1.171835518E1,1.387050033E0,1.785000086E0,7.150050163E0
1.173835518E1,5.400000215E-1,1.708050132E0,7.378950119E0
1.175835518E1,-5.700000376E-2,1.320000052E0,8.052000046E0
1.177835518E1,7.720500231E-1,1.074000001E0,8.710050583E0
1.179835518E1,1.354050040E0,1.177050114E0,8.644950867E0
1.181835518E1,1.234050035E0,1.797000051E0,8.157000542E0
1.183835518E1,8.779500127E-1,2.670000076E0,7.147050381E0
1.185835518E1,1.237050056E0,3.060000181E0,7.012950420E0
1.187835518E1,2.502000093E0,2.959950209E0,8.659049988E0
1.189835518E1,2.775000095E0,3.253950119E0,1.050705051E1
1.191835518E1,2.269950151E0,3.924000263E0,1.073595047E1
1.193835518E1,7.320000529E-1,5.692050457E0,9.708000183E0
1.195835518E1,-9.300000221E-2,7.378950119E0,9.526050568E0
1.197835518E1,1.468950033E0,5.758950233E0,1.117695045E1
1.199835518E1,2.184000015E0,4.255949974E0,1.463505077E1
1.201835518E1,2.974050045E0,2.068950176E0,1.748400116E1
1.203835518E1,3.096000195E0,4.879500270E-1,1.685805130E1
1.205835518E1,2.220000029E0,1.492950082E0,1.521795082E1
1.207835518E1,2.802000046E0,2.206050158E0,1.324395084E1
1.209835518E1,3.253950119E0,2.725050211E0,1.040400028E1
1.211835518E1,3.529050112E0,2.292000055E0,8.085000038E0
1.213835518E1,3.306000233E0,2.407050133E0,6.328950405E0
1.215835518E1,2.421000004E0,2.884950161E0,4.858950138E0
1.217835518E1,1.866000056E0,3.466950178E0,4.504950047E0
1.219835518E1,1.995000124E0,3.649050236E0,5.179950237E0
1.221835518E1,2.242050171E0,3.259050131E0,6.625050545E0
1.223835518E1,1.593000054E0,2.622000217E0,7.408050537E0
1.225835518E1,6.139500141E-1,2.485950232E0,7.369950294E0
1.227835518E1,-9.300000221E-2,2.091000080E0,7.083000183E0
1.229835518E1,-5.239500403E-1,2.187000036E0,7.288050175E0
1.231835518E1,-4.995000362E-2,2.317950010E0,8.032050133E0
1.233835518E1,8.920500278E-1,2.194050074E0,8.455950737E0
1.235835518E1,1.347000122E0,2.269950151E0,7.236000538E0
1.237835518E1,1.356000066E0,3.262950182E0,5.608050346E0
1.239835518E1,1.440000057E0,4.129950047E0,4.285050392E0
1.241835518E1,1.849050045E0,4.157999992E0,5.283000469E0
1.243835518E1,2.754000187E0,3.964950085E0,8.524950027E0
1.245835518E1,4.467000008E0,3.865950108E0,1.136100101E1
1.247835518E1,5.307000160E0,3.310950041E0,1.198305035E1
1.249835518E1,4.714050293E0,3.393000126E0,1.156695080E1
1.251835518E1,3.742050171E0,4.003050327E0,1.102395058E1
1.253835518E1,4.019999981E0,3.402000189E0,1.120305061E1
1.255835518E1,4.027050018E0,4.066950321E0,1.120095062E1
1.257835518E1,4.297049999E0,3.715950251E0,1.236105061E1
1.259835518E1,4.294950008E0,2.754000187E0,1.349295044E1
1.261835518E1,3.487950087E0,2.341950178E0,1.318395042E1
1.263835518E1,2.613000154E0,2.703000069E0,1.117695045E1
1.265835518E1,2.674950123E0,2.878050089E0,9.423000336E0
1.267835518E1,3.487950087E0,3.213000059E0,8.832000732E0
1.269835518E1,4.161000252E0,2.875950098E0,8.932050705E0
1.271835518E1,4.012050152E0,1.867950082E0,8.350950241E0
1.273835518E1,3.211050034E0,1.423050046E0,6.895950317E0
1.275835518E1,1.762950063E0,2.647950172E0,6.289950371E0
1.277835518E1,1.501950026E0,2.827950239E0,6.250050068E0
1.279835518E1,1.093050003E0,2.644050121E0,6.345000267E0
1.281835518E1,7.009500265E-1,2.188950062E0,7.087050438E0
1.283835518E1,5.020500422E-1,1.846950054E0,7.279050350E0
1.285835518E1,3.439500034E-1,1.573950052E0,7.087050438E0
1.287835518E1,3.150000274E-1,7.080000043E-1,6.661050320E0
1.289835518E1,2.599500120E-1,8.749500513E-1,6.163950443E0
1.291835518E1,1.854000092E0,9.520500302E-1,6.895950317E0
1.293835518E1,3.132000208E0,1.081050038E0,6.513000488E0
1.295835518E1,2.445000172E0,1.890000105E0,5.946000099E0
1.297835518E1,5.310000181E-1,4.099050045E0,5.884050369E0
1.299835518E1,1.576050043E0,3.517050266E0,8.152050018E0
1.301835518E1,2.509950161E0,3.003000259E0,1.039395046E1
1.303835518E1,2.092950106E0,4.230000019E0,1.179705048E1
1.305835518E1,1.258050084E0,5.635050297E0,1.174395084E1
1.307835518E1,3.390000165E-1,7.243050575E0,1.092105007E1
1.309835518E1,9.490500689E-1,6.562950134E0,1.232805061E1
1.311835518E1,1.897050142E0,5.683050156E0,1.480695057E1
1.313835518E1,3.889950275E0,2.280000210E0,1.752795029E1
1.315835518E1,4.405050278E0,1.669500023E-1,1.573995113E1
1.317835518E1,2.263050079E0,1.468950033E0,1.248300076E1
1.319835518E1,1.834950089E0,1.834950089E0,1.034400082E1
1.321835518E1,1.681950092E0,2.656050205E0,7.506000519E0
1.323835518E1,1.320000052E0,3.601050138E0,5.947950363E0
1.325835518E1,1.198050022E0,3.802050114E0,5.599050045E0
1.327835518E1,1.525950074E0,3.481050253E0,5.971950054E0
1.329835518E1,1.681950092E0,3.241950035E0,6.541950226E0
1.331835518E1,1.995000124E0,3.141000032E0,7.012950420E0
1.333835518E1,2.320950031E0,2.818050146E0,7.114050388E0
1.335835518E1,2.424000025E0,2.634000063E0,7.156950474E0
1.337835518E1,2.461950064E0,2.251049995E0,6.783000469E0
1.339835518E1,1.918950081E0,2.376000166E0,5.616000175E0
1.341835518E1,1.146000028E0,2.883000135E0,4.929000378E0
1.343835518E1,6.049500108E-1,3.382950068E0,5.532000065E0
1.345835518E1,1.087950110E0,3.334950209E0,7.260000229E0
1.347835518E1,2.032950163E0,3.220050097E0,8.523000717E0
1.349835518E1,3.412050247E0,3.310950041E0,9.861000061E0
1.351835518E1,4.072050095E0,3.169950247E0,1.043505096E1
1.353835518E1,3.466950178E0,3.649050236E0,1.022895050E1
1.355835518E1,2.758950233E0,3.961950302E0,1.065795040E1
1.357835518E1,3.679950237E0,2.737050056E0,1.110300064E1
1.359835518E1,4.129950047E0,2.550000191E0,1.107405090E1
1.361835518E1,3.481050253E0,2.854050159E0,1.081500053E1
1.363835518E1,3.256050110E0,4.101000309E0,1.134900093E1
1.365835518E1,3.429000139E0,4.696950436E0,1.182795048E1
1.367835518E1,4.752000332E0,2.719950199E0,1.308900070E1
1.369835518E1,5.701950073E0,1.375050068E0,1.369905090E1
1.371835518E1,4.921950340E0,1.162050009E0,1.228905106E1
1.373835518E1,4.644000053E0,1.009050012E0,1.009305000E1
1.375835518E1,4.462050438E0,1.083000064E0,8.344050407E0
1.377835518E1,4.467000008E0,8.440500498E-1,7.897950172E0
1.379835518E1,4.279950142E0,5.310000181E-1,7.597050190E0
1.381835518E1,3.555000067E0,2.580000162E-1,7.075050354E0
1.383835518E1,2.962050200E0,1.620000005E-1,6.178050518E0
1.385835518E1,2.373000145E0,4.995000362E-2,5.661000252E0
1.387835518E1,1.681950092E0,1.860000044E-1,6.135000229E0
1.389835518E1,1.312950015E0,2.100000083E-1,6.544050217E0
1.391835518E1,1.114950061E0,1.309500039E-1,6.781050205E0
1.393835518E1,8.560500145E-1,1.549500078E-1,6.633000374E0
1.395835518E1,4.020000100E-1,6.979500055E-1,6.393000126E0
1.397835518E1,5.359500051E-1,1.158000112E0,7.377000332E0
1.399835518E1,6.190500259E-1,1.597950101E0,7.393950462E0
1.401835518E1,1.950000064E-3,2.245950222E0,8.626049995E0
1.403835518E1,-6.960000396E-1,2.995050192E0,1.024095058E1
1.405835518E1,-7.510500550E-1,3.108000040E0,1.074795055E1
1.407835518E1,3.460500240E-1,2.895000219E0,1.151700020E1
1.409835518E1,7.870500088E-1,4.044000149E0,1.309305096E1
1.411835518E1,5.505000427E-2,5.118000031E0,1.307700062E1
1.413835518E1,1.093050003E0,3.784950256E0,1.327305031E1
1.415835518E1,1.849050045E0,4.998000145E0,1.471095085E1
1.417835518E1,2.409000158E0,3.883050203E0,1.676700020E1
1.419835518E1,2.710950136E0,2.211000204E0,1.643205070E1
1.421835518E1,2.074050188E0,2.836950064E0,1.543395042E1
1.423835518E1,2.988000154E0,2.751000166E0,1.345500088E1
1.425835518E1,4.375950336E0,2.818050146E0,1.107105064E1
1.427835518E1,4.807050228E0,3.091050148E0,8.221950531E0
1.429835518E1,4.630050182E0,2.553000212E0,6.463050365E0
1.431835518E1,4.099050045E0,1.770000100E0,4.938000202E0
1.433835518E1,3.082050085E0,1.681950092E0,4.962000370E0
1.435835518E1,2.278050184E0,2.152950048E0,5.536950111E0
1.437835518E1,2.341950178E0,2.572050095E0,6.550950527E0
1.439835518E1,2.695950031E0,2.794050217E0,7.288050175E0
1.441835518E1,2.431050062E0,2.799000025E0,7.339050293E0
1.443835518E1,2.344950199E0,2.529000044E0,7.233000278E0
1.445835518E1,2.078999996E0,1.935000062E0,6.994050503E0
1.447835518E1,1.548000097E0,1.777050138E0,6.610950470E0
1.449835518E1,1.276950002E0,2.376000166E0,6.919950485E0
1.451835518E1,2.055000067E0,2.680050135E0,7.908000469E0
1.453835518E1,2.826000214E0,2.710950136E0,7.942050457E0
1.455835518E1,2.361000061E0,2.944950104E0,6.561000347E0
1.457835518E1,1.234050035E0,3.993000269E0,5.307000160E0
1.459835518E1,-3.299999982E-2,5.539050102E0,4.881000042E0
1.461835518E1,-2.359500080E-1,6.334050179E0,5.656050205E0
1.463835518E1,1.789500117E-1,6.190050125E0,7.851000309E0
1.465835518E1,9.300000668E-1,5.503050327E0,1.017405033E1
1.467835518E1,1.933050036E0,4.855050087E0,1.062600040E1
1.469835518E1,1.782000065E0,5.061000347E0,9.528000832E0
1.471835518E1,3.750000298E-1,6.214050293E0,8.559000015E0
1.473835518E1,9.090000391E-1,6.556050301E0,9.873000145E0
1.475835518E1,2.706000090E0,5.695050240E0,1.131105042E1
1.477835518E1,3.703950167E0,3.475950241E0,1.008105087E1
1.479835518E1,2.914050102E0,3.553050280E0,8.023050308E0
1.481835518E1,1.351050019E0,6.018000126E0,8.398950577E0
1.483835518E1,5.430000424E-1,7.597050190E0,8.607000351E0
1.485835518E1,-8.490000367E-1,7.410000324E0,1.114305019E1
1.487835518E1,-9.640500546E-1,5.911950111E0,1.264095020E1
1.489835518E1,-3.079500198E-1,4.279950142E0,1.280400085E1
1.491835518E1,1.012050033E0,3.526950121E0,1.144695091E1
1.493835518E1,1.395000100E0,3.313950062E0,8.710050583E0
1.495835518E1,1.773000121E0,3.333000183E0,5.884050369E0
1.497835518E1,1.789050102E0,4.009950161E0,4.656000137E0
1.499835518E1,1.560000062E0,3.667950153E0,4.180050373E0
1.501835518E1,1.122000098E0,3.163050175E0,4.993050098E0
1.503835518E1,1.045050025E0,3.000000238E0,5.635050297E0
1.505835518E1,8.370000124E-1,3.414000273E0,5.623050213E0
1.507835518E1,1.198050022E0,4.129950047E0,5.830950260E0
1.509835518E1,1.123950005E0,4.474050045E0,6.661050320E0
1.511835518E1,1.122000098E0,4.620000362E0,6.670950413E0
1.513835518E1,4.420500100E-1,4.768950462E0,6.682950497E0
1.515835518E1,1.690500081E-1,4.501049995E0,7.410000324E0
1.517835518E1,-1.980000138E-1,4.636950016E0,8.619000435E0
1.519835518E1,6.340500116E-1,4.747050285E0,1.094700050E1
1.521835518E1,1.593000054E0,5.563050270E0,1.194000053E1
1.523835518E1,1.938000083E0,5.544000149E0,1.104495049E1
1.525835518E1,8.779500127E-1,6.700050354E0,9.202950478E0
1.527835518E1,8.200500607E-1,6.664050102E0,8.253000259E0
1.529835518E1,1.206000090E0,5.878950119E0,9.753000259E0
1.531835518E1,1.456950068E0,5.733000278E0,1.112205029E1
1.533835518E1,1.693950057E0,5.697000504E0,1.023195076E1
1.535835518E1,6.550500393E-1,6.288000107E0,8.434950829E0
1.537835518E1,5.830500126E-1,6.853050232E0,6.879000187E0
1.539835518E1,1.390050054E0,6.778950214E0,6.654000282E0
1.541835518E1,2.175000191E0,5.530050278E0,8.326950073E0
1.543835518E1,2.032950163E0,4.192049980E0,9.420000076E0
1.545835518E1,1.106999993E0,4.342950344E0,8.166000366E0
1.547835518E1,1.231950045E0,4.278000355E0,7.473000526E0
1.549835518E1,1.501950026E0,4.222949982E0,6.919950485E0
1.551835518E1,8.710500598E-1,4.285050392E0,6.496050358E0
1.553835518E1,8.389500380E-1,4.111050129E0,5.695050240E0
1.555835518E1,8.940000534E-1,4.378950119E0,4.647000313E0
1.557835518E1,9.349500537E-1,4.831050396E0,4.312050343E0
1.559835518E1,7.459500432E-1,5.290050030E0,5.139000416E0
1.561835518E1,1.605000019E0,5.544000149E0,6.963000298E0
1.563835518E1,1.191000104E0,6.388950348E0,8.212050438E0
1.565835518E1,1.323000073E0,6.469950199E0,8.077950478E0
1.567835518E1,2.689050198E0,6.417000294E0,8.731050491E0
1.569835518E1,4.054950237E0,6.156000137E0,9.942000389E0
1.571835518E1,4.345050335E0,5.685000420E0,1.105500031E1
1.573835518E1,3.378000259E0,5.569950104E0,1.066005039E1
1.575835518E1,1.864050031E0,5.317050457E0,1.032705021E1
1.577835518E1,5.740500093E-1,5.881050110E0,1.103100014E1
1.579835518E1,6.120000482E-1,6.622950077E0,1.090605068E1
1.581835518E1,1.780050039E0,5.785950184E0,1.094700050E1
1.583835518E1,2.479050159E0,5.452950478E0,1.166295052E1
1.585835518E1,1.588050127E0,5.464950085E0,1.195005035E1
1.587835518E1,-4.249500334E-1,5.653950214E0,1.176495075E1
1.589835518E1,-9.949500561E-1,5.875950336E0,1.086300087E1
1.591835518E1,-3.795000166E-2,6.054000378E0,9.181050301E0
1.593835518E1,1.335000038E0,6.018000126E0,8.170949936E0
1.595835518E1,2.305950165E0,5.311950207E0,7.867050171E0
1.597835518E1,2.340000153E0,4.941000462E0,7.939050198E0
1.599835518E1,1.348950028E0,4.575000286E0,8.098950386E0
1.601835518E1,6.859500408E-1,4.122000217E0,4.632000446E0
1.603835518E1,3.144000053E0,4.390050411E0,8.548950195E0
1.605835518E1,2.170050144E0,5.110950470E0,7.800000191E0
1.607835518E1,2.107950211E0,4.795050144E0,4.480950356E0
1.609835518E1,1.639050126E0,4.672950268E0,4.419000149E0
1.611835518E1,1.263000011E0,4.716000080E0,5.947950363E0
1.613835518E1,1.263000011E0,4.543950081E0,7.743000507E0
1.615835518E1,7.560000420E-1,4.422000408E0,7.774050236E0
1.617835518E1,6.529500484E-1,4.290000439E0,7.306950569E0
1.619835518E1,7.579500079E-1,4.809000015E0,6.943950176E0
1.621835518E1,8.989500403E-1,5.398050308E0,7.353000164E0
1.623835518E1,1.903950095E0,5.653950214E0,8.713950157E0
1.625835518E1,1.855950117E0,5.886000156E0,8.758049965E0
1.627835518E1,1.702950120E0,5.725950241E0,9.681000710E0
1.629835518E1,2.199000120E0,5.695050240E0,1.001895046E1
1.631835518E1,3.043050051E0,5.497950077E0,9.468000412E0
1.633835518E1,3.156000137E0,5.338050365E0,9.052050591E0
1.635835518E1,2.983050108E0,5.434050083E0,9.162000656E0
1.637835518E1,3.297000170E0,5.293050289E0,9.667050362E0
1.639835518E1,3.565050125E0,5.238000393E0,9.778950691E0
1.641835518E1,4.422000408E0,5.209050179E0,7.537050247E0
1.643835518E1,4.773000240E0,4.347000122E0,1.148295021E1
1.645835518E1,3.322950125E0,4.414050102E0,1.064595032E1
1.647835518E1,1.504950047E0,4.693950176E0,7.453050137E0
1.649835518E1,2.146050215E0,4.426050186E0,5.911950111E0
1.653945711E1,-2.340000123E-1,3.601050138E0,9.861000061E0
1.655945711E1,-4.729500115E-1,3.259050131E0,1.020300007E1
1.657945711E1,-1.740000099E-1,3.187050104E0,9.571050644E0
1.659945711E1,-6.705000252E-2,3.357000113E0,9.004050255E0
1.661945711E1,-5.205000192E-2,3.571950197E0,8.398950577E0
1.663945711E1,1.905000024E-2,3.688950062E0,8.358000755E0
1.665945711E1,2.239500135E-1,3.679950237E0,8.626049995E0
1.667945711E1,9.469500184E-1,3.706050158E0,8.932050705E0
1.669945711E1,1.513950109E0,3.754050255E0,9.199950218E0
1.671945711E1,1.746000051E0,4.027050018E0,8.791049957E0
1.673945711E1,2.196000099E0,3.730050087E0,8.451000214E0
1.675945711E1,2.992950201E0,3.652950287E0,9.013950348E0
1.677945711E1,3.642000198E0,3.673050165E0,1.011000061E1
1.679945711E1,4.366950035E0,3.330000162E0,1.061700058E1
1.681945711E1,4.771050453E0,3.256050110E0,9.826950073E0
1.683945711E1,4.225049973E0,3.553050280E0,8.250000000E0
1.685945711E1,3.397050142E0,3.952950239E0,7.417950153E0
1.687945711E1,2.682000160E0,3.961950302E0,7.156950474E0
1.689945711E1,1.975950122E0,3.843000174E0,7.377000332E0
1.691945711E1,1.579050064E0,3.972000122E0,7.839000225E0
1.693945711E1,1.729950070E0,4.168050289E0,8.011050224E0
1.695945711E1,2.349000216E0,4.363950253E0,8.113950729E0
1.697945711E1,2.883000135E0,4.338000298E0,8.680950165E0
1.699945711E1,3.412050247E0,3.831000090E0,9.703050613E0
1.701945711E1,3.582000256E0,3.115050077E0,1.055895042E1
1.703945711E1,2.593050241E0,2.974050045E0,1.048005009E1
1.705945711E1,2.044950008E0,3.349950075E0,9.861000061E0
1.707945711E1,2.574000120E0,3.369000196E0,8.652000427E0
1.709945711E1,2.602950096E0,3.523950100E0,7.438950539E0
1.711945711E1,2.042999983E0,3.531000137E0,6.274050236E0
1.713945711E1,1.312950015E0,3.541050196E0,5.899950504E0
1.715945711E1,9.139500260E-1,3.517050266E0,6.570000172E0
1.717945711E1,8.370000124E-1,3.337950230E0,7.465050220E0
1.719945711E1,1.045050025E0,3.409050226E0,7.960950375E0
1.721945711E1,1.368000031E0,3.457050085E0,7.834050179E0
1.723945711E1,1.555050015E0,3.361950159E0,7.003950119E0
1.725945711E1,1.399050117E0,3.457050085E0,5.935950279E0
1.727945711E1,1.528950095E0,3.631950140E0,5.203950405E0
1.729945711E1,2.239050150E0,3.886050224E0,4.771050453E0
1.731945711E1,2.836950064E0,4.150950432E0,4.417050362E0
1.733945711E1,2.409000158E0,4.267950058E0,4.335000038E0
1.735945711E1,2.092950106E0,3.804000139E0,4.620000362E0
1.737945711E1,1.036050081E0,3.687000275E0,5.998950481E0
1.739945711E1,8.110500574E-1,3.853950262E0,8.088000298E0
1.741945711E1,1.359000087E0,4.099050045E0,1.032705021E1
1.743945711E1,1.902000070E0,4.338000298E0,1.195395088E1
1.745945711E1,2.131950140E0,4.029000282E0,1.230600071E1
1.747945711E1,1.876050115E0,3.498000145E0,1.119600010E1
1.749945711E1,9.469500184E-1,3.414000273E0,9.550050735E0
1.751945711E1,1.129050016E0,3.180000067E0,9.540000916E0
1.753945711E1,2.686950207E0,2.566950083E0,1.086300087E1
1.755945711E1,1.891950130E0,3.333000183E0,1.071300030E1
1.757945711E1,7.579500079E-1,4.066950321E0,1.109100056E1
1.759945711E1,1.033050060E0,4.005000114E0,1.243800068E1
1.761945711E1,2.625000238E0,3.070050240E0,1.491000080E1
1.763945711E1,3.898050070E0,2.727000237E0,1.545795059E1
1.765945711E1,3.996000290E0,3.487950087E0,1.335705090E1
1.767945711E1,3.876000166E0,4.273050308E0,1.033395004E1
1.769945711E1,3.912000179E0,4.989000320E0,8.494050026E0
1.771945711E1,4.008000374E0,4.687050343E0,7.150050163E0
1.773945711E1,3.555000067E0,3.912000179E0,6.469950199E0
1.775945711E1,2.680050135E0,3.634050131E0,6.240000248E0
1.777945711E1,1.693950057E0,3.286950111E0,6.766950130E0
1.779945711E1,6.120000482E-1,3.220050097E0,7.590000153E0
1.781945711E1,5.430000424E-1,2.962050200E0,8.164050102E0
1.783945711E1,5.119500160E-1,2.692050219E0,8.334000587E0
1.785945711E1,3.780000210E-1,2.421000004E0,7.774050236E0
1.787945711E1,3.820500076E-1,2.413950205E0,6.523050308E0
1.789945711E1,5.400000215E-1,2.665050030E0,5.211000443E0
1.791945711E1,1.110000014E0,3.015000105E0,4.192049980E0
1.793945711E1,1.468950033E0,3.499950171E0,3.936000109E0
1.795945711E1,8.490000367E-1,3.663000107E0,4.627050400E0
1.797945711E1,2.719500065E-1,3.490950108E0,6.223050117E0
1.799945711E1,5.470499992E-1,3.484050274E0,8.599950790E0
1.801945711E1,1.966050148E0,4.012050152E0,1.015995026E1
1.803945711E1,2.851950169E0,4.446000099E0,1.093005085E1
1.805945711E1,3.354000092E0,4.168050289E0,1.148505020E1
1.807945711E1,3.643950224E0,4.378950119E0,1.156005096E1
1.809945711E1,3.519000053E0,4.972050190E0,1.079205036E1
1.811945711E1,3.625050068E0,5.227950096E0,1.008795071E1
1.813945711E1,4.456950188E0,4.642050266E0,1.093500042E1
1.815945711E1,4.483950138E0,3.417000055E0,1.280595016E1
1.817945711E1,3.778050184E0,2.458950043E0,1.341705036E1
1.819945711E1,2.565000057E0,2.577000141E0,1.234905052E1
1.821945711E1,1.804050088E0,3.205950260E0,1.077195072E1
1.823945711E1,1.636050105E0,3.430950165E0,9.407999992E0
1.825945711E1,2.056950092E0,3.313950062E0,8.700000763E0
1.827945711E1,3.072000027E0,2.514000177E0,8.230950356E0
1.829945711E1,3.967050076E0,1.840050101E0,7.657050133E0
1.831945711E1,3.853950262E0,1.299000025E0,6.867000103E0
1.833945711E1,3.261000156E0,1.488000035E0,5.872050285E0
1.835945711E1,2.389950037E0,2.029050112E0,5.482050419E0
1.837945711E1,1.342050076E0,2.449950218E0,5.290050030E0
1.839945711E1,8.470500112E-1,2.847000122E0,4.749000072E0
1.841945711E1,6.580500603E-1,3.496050119E0,4.912050247E0
1.843945711E1,4.039500058E-1,4.075050354E0,6.067950249E0
1.845945711E1,4.695000127E-2,4.278000355E0,7.458000183E0
1.847945711E1,1.273050070E0,4.747050285E0,9.490050316E0
1.849945711E1,3.630000114E0,4.206000328E0,1.195200062E1
1.851945711E1,5.161050320E0,3.036000252E0,1.327305031E1
1.853945711E1,4.423950195E0,2.749050140E0,1.213605022E1
1.855945711E1,3.100950241E0,3.184050083E0,1.044495010E1
1.857945711E1,2.269950151E0,3.478950262E0,8.815050125E0
1.859945711E1,1.789050102E0,3.993000269E0,8.535000801E0
1.861945711E1,2.434950113E0,3.421050072E0,9.516000748E0
1.863945711E1,2.739000082E0,3.132000208E0,1.180605030E1
1.865945711E1,3.244050264E0,1.033050060E0,1.303095055E1
1.867945711E1,1.492950082E0,1.974000096E0,1.296705055E1
1.869945711E1,1.429500133E-1,3.676950216E0,1.159305096E1
1.871945711E1,1.318050027E0,3.835050106E0,1.013805008E1
1.873945711E1,3.055050135E0,3.687000275E0,1.053105068E1
1.875945711E1,3.751950264E0,2.995050192E0,1.064595032E1
1.877945711E1,3.049950123E0,2.325000048E0,9.157050133E0
1.879945711E1,1.834950089E0,2.509950161E0,7.398000240E0
1.881945711E1,1.106999993E0,2.529000044E0,5.773950100E0
1.883945711E1,1.095000029E0,2.670000076E0,4.974000454E0
1.885945711E1,1.237050056E0,2.694000244E0,4.864050388E0
1.887945711E1,1.087950110E0,2.407050133E0,5.347950459E0
1.889945711E1,6.930000186E-1,2.134050131E0,5.548950195E0
1.891945711E1,6.000000238E-1,2.151000023E0,5.709000111E0
1.893945711E1,5.020500422E-1,2.335050106E0,6.195000172E0
1.895945711E1,1.054949999E0,2.473950148E0,7.381950378E0
1.897945711E1,1.786950111E0,2.337000132E0,9.034950256E0
1.899945711E1,1.773000121E0,2.650950193E0,1.073895073E1
1.901945711E1,2.139000177E0,2.773050070E0,1.166505051E1
1.903945711E1,2.397000074E0,3.180000067E0,1.195395088E1
1.905945711E1,2.340000153E0,4.515000343E0,1.164300060E1
1.907945711E1,2.116950035E0,5.518050194E0,1.081800079E1
1.909945711E1,2.128950119E0,6.124950409E0,9.999000549E0
1.911945711E1,2.517000198E0,6.259050369E0,9.684000015E0
1.913945711E1,2.554950237E0,5.683050156E0,9.892050743E0
1.915945711E1,2.848950148E0,3.637050152E0,1.014105034E1
1.917945711E1,2.562000036E0,2.440050125E0,9.592950821E0
1.919945711E1,1.822950125E0,2.425950050E0,8.470050812E0
1.921945711E1,2.871000051E0,2.566950083E0,7.681050301E0
1.923945711E1,5.125050068E0,2.353950024E0,8.772000313E0
1.925945711E1,6.175950527E0,2.110050201E0,9.688050270E0
1.927945711E1,6.343050480E0,1.306050062E0,8.539950371E0
1.929945711E1,5.403000355E0,1.159950018E0,7.018050194E0
1.931945711E1,4.465050220E0,1.420950055E0,6.838050365E0
1.933945711E1,4.021950245E0,1.441950083E0,7.032000542E0
1.935945711E1,3.280050039E0,2.014050007E0,6.882000446E0
1.937945711E1,2.731950045E0,2.617050171E0,6.984000206E0
1.939945711E1,2.254050016E0,3.157950163E0,7.365000248E0
1.941945711E1,2.278050184E0,2.883000135E0,7.378950119E0
1.943945711E1,2.428050041E0,2.622000217E0,6.721050262E0
1.945945711E1,1.603050113E0,3.031050205E0,6.027000427E0
1.947945711E1,4.969500303E-1,3.382950068E0,6.700050354E0
1.949945711E1,2.749500275E-1,3.655950069E0,9.247950554E0
1.951945711E1,1.627050042E0,2.680050135E0,1.238505077E1
1.953945711E1,3.121950150E0,1.954950094E0,1.398105049E1
1.955945711E1,4.270950317E0,1.653000116E0,1.373205090E1
1.957945711E1,4.546050072E0,1.648050070E0,1.252905083E1
1.959945711E1,3.904950142E0,2.533950090E0,1.148100090E1
1.961945711E1,4.560000420E0,2.533950090E0,1.178895092E1
1.963945711E1,5.553000450E0,2.179050207E0,1.237605095E1
1.965945711E1,6.178050518E0,1.780050039E0,1.191105080E1
1.967945711E1,5.776050091E0,1.756050110E0,1.025295067E1
1.969945711E1,4.965000153E0,2.683950186E0,8.266950607E0
1.971945711E1,4.957950115E0,3.205950260E0,7.012950420E0
1.973945711E1,5.134950161E0,3.070050240E0,7.104000568E0
1.975945711E1,5.119950294E0,2.111999989E0,8.032050133E0
1.977945711E1,4.692000389E0,1.509000063E0,7.996950150E0
1.979945711E1,3.651000261E0,1.588050127E0,7.936950207E0
1.981945711E1,3.084000111E0,1.741950035E0,7.333950520E0
1.983945711E1,2.577000141E0,1.846950054E0,6.172950268E0
1.985945711E1,1.492950082E0,2.155950069E0,5.518050194E0
1.987945711E1,8.295000345E-2,2.668050051E0,4.936050415E0
1.989945711E1,-6.810000539E-1,2.995050192E0,4.948050022E0
1.991945711E1,-3.349500299E-1,3.076950073E0,5.497950077E0
1.993945711E1,1.165050030E0,2.689050198E0,6.541950226E0
1.995945711E1,2.268000126E0,2.068950176E0,7.552050591E0
1.997945711E1,2.095950127E0,1.830000043E0,7.285950184E0
1.999945711E1,2.031000137E0,2.244000196E0,7.855050564E0
2.001945711E1,2.344950199E0,2.548050165E0,8.680950165E0
2.003945711E1,3.519000053E0,2.707950115E0,1.087005043E1
2.005945711E1,5.652000427E0,2.164950132E0,1.254105091E1
2.007945711E1,5.431050301E0,2.347050190E0,1.272495079E1
2.009945711E1,3.603000164E0,3.124950171E0,1.178505039E1
2.011945711E1,1.866000056E0,4.656000137E0,1.071000004E1
2.013945711E1,1.384950042E0,5.422050476E0,1.012605095E1
2.015945711E1,2.239050150E0,5.388000488E0,1.073205090E1
2.017945711E1,4.045950413E0,4.804050446E0,1.199505043E1
2.019945711E1,5.227950096E0,3.424050093E0,1.279905033E1
2.021945711E1,5.352000237E0,2.509950161E0,1.293600082E1
2.023945711E1,4.491000175E0,3.019050121E0,1.270800018E1
2.025945711E1,4.654050350E0,2.916000128E0,1.210005093E1
2.027945711E1,4.945950031E0,2.530950069E0,1.107600021E1
2.029945711E1,4.255949974E0,2.590950012E0,9.532950401E0
2.031945711E1,3.631950140E0,2.512050152E0,8.056050301E0
2.033945711E1,2.883000135E0,2.529000044E0,6.235050201E0
2.035945711E1,2.385000229E0,2.734950066E0,4.942950249E0
2.037945711E1,1.831950068E0,2.884950161E0,4.596000195E0
2.039945711E1,1.270050049E0,2.797050238E0,5.106000423E0
2.041945711E1,8.970000148E-1,2.536050081E0,6.042000294E0
2.043945711E1,7.009500265E-1,2.305950165E0,6.478950500E0
2.045945711E1,2.869500220E-1,2.275050163E0,6.726000309E0
2.047945711E1,6.340500116E-1,2.479050159E0,7.024950504E0
2.049945711E1,1.119000077E0,2.626950026E0,7.303050518E0
2.051945711E1,1.528950095E0,3.061950207E0,7.525050163E0
2.053945711E1,1.615050077E0,3.457050085E0,7.531950474E0
2.055945711E1,1.813050032E0,3.828000069E0,7.381950378E0
2.057945711E1,2.351999998E0,4.173000336E0,8.289000511E0
2.059945711E1,3.547950268E0,3.886050224E0,9.940050125E0
2.061945711E1,4.831050396E0,3.073950052E0,1.117395020E1
2.063945711E1,5.512950420E0,2.497950077E0,1.216995049E1
2.065945711E1,4.840050220E0,2.670000076E0,1.186395073E1
2.067945711E1,3.550950050E0,3.409050226E0,1.148805046E1
2.069945711E1,4.572000027E0,3.457050085E0,1.148100090E1
2.071945711E1,6.238050461E0,3.096000195E0,1.189695072E1
2.073945711E1,6.468000412E0,2.467050076E0,1.177500057E1
2.075945711E1,5.247000217E0,2.554950237E0,1.089000034E1
2.077945711E1,4.194000244E0,2.851950169E0,1.002795029E1
2.079945711E1,3.937950134E0,2.911950111E0,8.893950462E0
2.081945711E1,3.790050268E0,2.767950058E0,7.872000217E0
2.083945711E1,3.664950132E0,2.725050211E0,7.456050396E0
2.085945711E1,3.631950140E0,2.509950161E0,6.690000534E0
2.087945711E1,3.259050131E0,2.281949997E0,5.802000046E0
2.089945711E1,2.467050076E0,2.431050062E0,5.166000366E0
2.091945711E1,1.612050056E0,2.694000244E0,4.926000118E0
2.093945711E1,1.512000084E0,2.758950233E0,5.617950439E0
2.095945711E1,1.684050083E0,2.446950197E0,6.432000160E0
2.097945711E1,1.774950027E0,2.179050207E0,6.657000542E0
2.099945711E1,6.910500526E-1,2.419050217E0,5.986950397E0
2.101945711E1,-2.890500128E-1,2.749050140E0,5.352000237E0
2.103945711E1,-4.210500121E-1,3.286950111E0,5.520000458E0
2.105945711E1,1.095000096E-2,3.462000132E0,6.456000328E0
2.107945711E1,-1.530000120E-1,3.652950287E0,7.549050331E0
2.109945711E1,0.000000000E0,4.146000385E0,8.434950829E0
2.111945711E1,2.200500071E-1,3.957000256E0,9.769950867E0
2.113945711E1,-2.595000155E-2,4.141950130E0,1.097595024E1
2.115945711E1,-3.439500034E-1,4.282950401E0,1.169400024E1
2.117945711E1,-7.050000131E-3,4.575000286E0,1.196595097E1
2.119945711E1,8.940000534E-1,5.191950321E0,1.151895046E1
2.121945711E1,2.031000137E0,4.447950363E0,1.087005043E1
2.123945711E1,2.749050140E0,3.397050142E0,1.146405029E1
2.125945711E1,3.409050226E0,1.975950122E0,1.456305027E1
2.127945711E1,5.005050182E0,3.199500144E-1,1.657005119E1
2.129945711E1,4.861950397E0,5.700000376E-2,1.511595058E1
2.131945711E1,2.683950186E0,1.432950020E0,1.221495056E1
2.133945711E1,2.047950029E0,2.445000172E0,9.765000343E0
2.135945711E1,2.739000082E0,3.333000183E0,7.915050507E0
2.137945711E1,3.784950256E0,4.045950413E0,6.859950542E0
2.139945711E1,4.702050209E0,3.345000267E0,6.180000305E0
2.141945711E1,4.998000145E0,2.908950090E0,6.481950283E0
2.143945711E1,4.938000202E0,2.287050009E0,6.904950142E0
2.145945711E1,3.864000082E0,2.280000210E0,7.195050240E0
2.147945711E1,2.785050154E0,2.376000166E0,7.144950390E0
2.149945711E1,1.957050085E0,2.446950197E0,7.164000511E0
2.151945711E1,1.714950085E0,2.494950056E0,7.051050186E0
2.153945711E1,1.642950058E0,2.470950127E0,6.538950443E0
2.155945711E1,2.188950062E0,2.497950077E0,6.676050186E0
2.157945711E1,2.299050093E0,2.859000206E0,6.714000225E0
2.159945711E1,2.227050066E0,3.268050194E0,5.781000137E0
2.161945711E1,1.998000145E0,4.234950066E0,5.665950298E0
2.163945711E1,2.151000023E0,4.996050358E0,6.400950432E0
2.165945711E1,1.648050070E0,5.049000263E0,7.027050495E0
2.167945711E1,1.170000076E0,4.663050175E0,8.485050201E0
2.169945711E1,1.249050021E0,4.237050056E0,1.077195072E1
2.171945711E1,1.356000066E0,3.550950050E0,1.227495098E1
2.173945711E1,7.960500121E-1,3.466950178E0,1.326600075E1
2.175945711E1,7.770000100E-1,3.924000263E0,1.422300053E1
2.177945711E1,2.437950134E0,2.851950169E0,1.508400059E1
2.179945711E1,4.536000252E0,1.636050105E0,1.458405113E1
2.181945711E1,5.616000175E0,1.102950096E0,1.322700024E1
2.183945711E1,4.795050144E0,1.234050035E0,1.136295033E1
2.185945711E1,3.283050060E0,1.555050015E0,9.946950912E0
2.187945711E1,3.133950233E0,1.324950099E0,1.049505043E1
2.189945711E1,3.157950163E0,8.850000501E-1,1.090605068E1
2.191945711E1,2.332950115E0,1.093050003E0,9.664050102E0
2.193945711E1,1.342050076E0,1.645950079E0,7.621050358E0
2.195945711E1,5.860500336E-1,2.067000151E0,5.599050045E0
2.197945711E1,-2.479500175E-1,2.802000046E0,4.651050091E0
2.199945711E1,-6.600000262E-1,3.094050169E0,4.909950256E0
2.201945711E1,1.410000026E-1,2.790000200E0,6.439050198E0
2.203945711E1,1.291950107E0,2.115000010E0,7.209000111E0
2.205945711E1,1.681950092E0,1.618950129E0,7.429050446E0
2.207945711E1,9.660000205E-1,1.734000087E0,7.200000286E0
2.209945711E1,6.310500503E-1,1.729950070E0,6.937050343E0
2.211945711E1,3.460500240E-1,1.957050085E0,6.304950237E0
2.213945711E1,3.060000241E-1,2.785050154E0,5.410050392E0
2.215945711E1,7.440000176E-1,3.292050123E0,5.518050194E0
2.217945711E1,7.099500299E-1,3.244050264E0,6.337950230E0
2.219945711E1,5.359500051E-1,2.376000166E0,8.425050735E0
2.221945711E1,2.010000050E-1,2.601000071E0,1.098795033E1
2.223945711E1,3.610500097E-1,3.229950190E0,1.230900097E1
2.225945711E1,6.190500259E-1,3.892950296E0,1.247100067E1
2.227945711E1,-5.190000534E-1,5.998950481E0,1.144995022E1
2.229945711E1,-7.390500307E-1,6.508050442E0,1.030095005E1
2.231945711E1,1.464000106E0,5.970000267E0,1.116195011E1
2.233945711E1,4.893000126E0,2.857050180E0,1.398600101E1
2.235945711E1,6.313950062E0,1.119000077E0,1.502205086E1
2.237945711E1,4.351950169E0,2.029050112E0,1.411305046E1
2.239945711E1,2.566950083E0,3.144000053E0,1.193505096E1
2.241945711E1,1.951950073E0,3.898050070E0,1.108305073E1
2.243945711E1,1.870950103E0,4.027050018E0,1.127700043E1
2.245945711E1,2.316000223E0,3.076950073E0,1.084200096E1
2.247945711E1,2.830050230E0,2.388000011E0,9.375000000E0
2.249945711E1,2.659950018E0,2.239050150E0,7.272000313E0
2.251945711E1,1.717950106E0,2.428050041E0,5.577000141E0
2.253945711E1,1.359000087E0,2.245950222E0,4.888050079E0
2.255945711E1,8.610000610E-1,1.828050137E0,5.082000256E0
2.257945711E1,3.270000219E-1,1.572000027E0,5.641950130E0
2.259945711E1,5.359500051E-1,1.432950020E0,6.091950417E0
2.261945711E1,7.050000429E-1,1.591050029E0,6.364950180E0
2.263945711E1,8.869500160E-1,1.816050053E0,6.754950523E0
2.265945711E1,1.140000075E-1,2.400000095E0,7.054050446E0
2.267945711E1,2.149500102E-1,2.926050186E0,7.264050484E0
2.269945711E1,1.300950050E0,2.857050180E0,7.555950165E0
2.271945711E1,1.914000034E0,2.881050110E0,8.080050468E0
2.273945711E1,1.119000077E0,2.329950094E0,8.482049942E0
2.275945711E1,8.130000234E-1,1.528950095E0,8.454000473E0
2.277945711E1,1.435050011E0,4.489500225E-1,9.183000565E0
2.279945711E1,2.160000086E0,4.710000157E-1,1.114305019E1
2.281945711E1,2.919000149E0,1.797000051E0,1.169100094E1
2.283945711E1,4.477050304E0,1.687050104E0,1.270095062E1
2.285945711E1,5.806950092E0,6.379500031E-1,1.452405071E1
2.287945711E1,6.135000229E0,5.359500051E-1,1.596300030E1
2.289945711E1,5.143950462E0,1.141050100E0,1.638600159E1
2.291945711E1,4.723050117E0,2.287050009E0,1.547400093E1
2.293945711E1,4.663050175E0,2.872950077E0,1.397595024E1
2.295945711E1,3.772950172E0,3.802050114E0,1.158105087E1
2.297945711E1,2.851950169E0,3.888000250E0,9.172050476E0
2.299945711E1,2.182049990E0,3.754050255E0,7.534950256E0
2.301945711E1,1.842000127E0,3.589050055E0,6.549000263E0
2.303945711E1,1.617000103E0,3.223050117E0,6.286050320E0
2.305945711E1,9.229500294E-1,3.052950144E0,6.472050190E0
2.307945711E1,2.910000086E-1,3.169950247E0,6.697050095E0
2.309945711E1,6.405000389E-2,2.701050043E0,6.558000088E0
2.311945711E1,-1.950000064E-3,2.514000177E0,5.970000267E0
2.313945711E1,3.730500042E-1,2.461950064E0,5.563050270E0
2.315945711E1,5.400000215E-1,2.686950207E0,5.629950047E0
2.317945711E1,2.295000106E-2,2.836950064E0,6.238050461E0
2.319945711E1,-4.210500121E-1,3.165000200E0,7.542000294E0
2.321945711E1,1.020000055E-1,3.049950123E0,8.824950218E0
2.323945711E1,7.410000563E-1,2.878050089E0,1.022205067E1
2.325945711E1,1.330050111E0,3.003000259E0,1.034895039E1
2.327945711E1,1.804050088E0,3.148950100E0,9.777000427E0
2.329945711E1,1.576050043E0,3.168000221E0,9.283950806E0
2.331945711E1,1.639050126E0,3.016950130E0,1.005195045E1
2.333945711E1,1.888050079E0,2.919000149E0,1.114995098E1
2.335945711E1,1.633950114E0,3.607950211E0,1.253400040E1
2.337945711E1,4.489500225E-1,5.214000225E0,1.219395065E1
2.339945711E1,7.480500340E-1,5.110950470E0,1.323705101E1
2.341945711E1,2.986050129E0,3.940950155E0,1.690095139E1
2.343945711E1,6.121050358E0,-2.820000052E-1,1.761795044E1
2.345945711E1,5.581950188E0,-2.910000086E-1,1.540500069E1
2.347945711E1,2.635950089E0,1.392000079E0,1.146900082E1
2.349945711E1,1.777050138E0,2.146050215E0,8.557050705E0
2.351945711E1,1.737000108E0,2.787000179E0,7.011000156E0
2.353945711E1,1.596000075E0,3.787050247E0,6.085050106E0
2.355945711E1,1.675050020E0,3.871050119E0,6.111000061E0
2.357945711E1,1.621950030E0,3.502950191E0,6.187950134E0
2.359945711E1,1.078950047E0,3.088950157E0,6.180000305E0
2.361945711E1,2.839500010E-1,2.895000219E0,5.962950230E0
2.363945711E1,-1.909500062E-1,2.758950233E0,6.030000210E0
2.365945711E1,-1.570500135E-1,2.955000162E0,6.475050449E0
2.367945711E1,2.989500165E-1,3.010050058E0,7.147050381E0
2.369945711E1,4.399500191E-1,2.811000109E0,7.426950455E0
2.371945711E1,3.679500222E-1,2.620050192E0,7.333950520E0
2.373945711E1,1.930500120E-1,2.502000093E0,7.060950279E0
2.375945711E1,1.960500032E-1,2.433000088E0,7.224000454E0
2.377945711E1,6.100500226E-1,2.320950031E0,8.071050644E0
2.379945711E1,9.280500412E-1,2.296950102E0,8.509050369E0
2.381945711E1,1.216950059E0,2.100000143E0,8.725950241E0
2.383945711E1,1.303950071E0,2.134050131E0,9.363000870E0
2.385945711E1,1.758000135E0,2.196000099E0,9.660000801E0
2.387945711E1,2.074050188E0,2.566950083E0,9.283950806E0
2.389945711E1,2.055000067E0,2.950050116E0,8.414999962E0
2.391945711E1,1.567050099E0,2.964000225E0,7.872000217E0
2.393945711E1,1.552050114E0,3.141000032E0,8.269050598E0
2.395945711E1,2.413950205E0,3.346950054E0,9.105000496E0
2.397945711E1,2.494950056E0,3.169950247E0,1.012905025E1
2.399945711E1,2.208000183E0,2.017050028E0,1.185600090E1
2.401945711E1,3.559500277E-1,2.586000204E0,1.273200035E1
2.403945711E1,-8.680500388E-1,4.032000065E0,1.204800034E1
2.405945711E1,6.705000252E-2,4.361999989E0,1.182300091E1
2.407945711E1,1.713000059E0,4.435950279E0,1.387395096E1
2.409945711E1,2.467050076E0,3.180000067E0,1.421805096E1
2.411945711E1,7.249500155E-1,4.588950157E0,1.292400074E1
2.413945711E1,5.140500069E-1,5.568000317E0,1.070505047E1
2.415945711E1,1.710000038E0,5.623050213E0,9.094950676E0
2.417945711E1,2.074050188E0,5.494050026E0,7.200000286E0
2.419945711E1,1.324950099E0,5.002950191E0,5.698950291E0
2.421945711E1,3.079500198E-1,4.747050285E0,5.191950321E0
2.423945711E1,4.050000105E-3,4.804050446E0,5.652000427E0
2.425945711E1,1.048050046E0,4.888050079E0,6.771000385E0
2.427945711E1,2.364000082E0,4.618050098E0,6.940950394E0
2.429945711E1,2.175000191E0,4.157999992E0,5.530050278E0
2.431945711E1,9.210000634E-1,3.924000263E0,4.009950161E0
2.433945711E1,-1.120500043E-1,3.850050211E0,2.848950148E0
2.435945711E1,-9.000000544E-3,3.996000290E0,2.593050241E0
2.437945711E1,1.603050113E0,4.051050186E0,3.754050255E0
2.439945711E1,3.541050196E0,3.780000210E0,6.027000427E0
2.441945711E1,2.610000134E0,4.789950371E0,9.588000298E0
2.443945711E1,4.105950356E0,4.209000111E0,6.967950344E0
2.445945711E1,2.509950161E0,6.334050179E0,5.263950348E0
2.447945711E1,3.321000099E0,5.824050426E0,5.061000347E0
2.449945711E1,4.033950329E0,6.763950348E0,8.590050697E0
2.451945711E1,4.249050140E0,6.724050522E0,1.088505077E1
2.453945711E1,3.658050060E0,6.613050461E0,1.133205032E1
2.455945711E1,1.831950068E0,6.562950134E0,1.158105087E1
2.457945711E1,2.458950043E0,6.337950230E0,1.254105091E1
2.459945711E1,3.783000231E0,6.496050358E0,1.674495125E1
2.461945711E1,4.711050034E0,6.115950108E0,1.276800060E1
2.463945711E1,3.067050219E0,7.630050182E0,2.316000223E0
2.465945711E1,6.814950466E0,7.297950268E0,4.945950031E0
2.467945711E1,6.574950218E0,7.249950409E0,1.312695026E1
2.469945711E1,5.950950146E0,6.187950134E0,1.026300049E1
2.471945711E1,3.865950108E0,5.202000141E0,6.988950253E0
2.476691079E1,1.585950017E0,3.991050243E0,7.221000195E0
2.478691079E1,2.373000145E0,3.874050140E0,7.954050541E0
2.480691079E1,2.476050138E0,3.832950115E0,7.908000469E0
2.482691079E1,2.131950140E0,3.895050287E0,7.638000488E0
2.484691079E1,1.452000022E0,4.009950161E0,7.221000195E0
2.486691079E1,1.216950059E0,3.984000206E0,7.104000568E0
2.488691079E1,2.163000107E0,3.949950218E0,7.542000294E0
2.490691079E1,3.187050104E0,4.024050236E0,7.918050289E0
2.492691079E1,2.890050173E0,4.186950207E0,8.217000008E0
2.494691079E1,2.827950239E0,4.333050251E0,7.674000263E0
2.496691079E1,2.566950083E0,4.477050304E0,6.982050419E0
2.498691079E1,2.445000172E0,4.630050182E0,6.846000195E0
2.500691079E1,2.734950066E0,4.642050266E0,7.224000454E0
2.502691079E1,3.241950035E0,4.741950035E0,7.720950603E0
2.504691079E1,3.235050201E0,4.591050148E0,7.969950199E0
2.506691079E1,2.445000172E0,4.813950062E0,7.960950375E0
2.508691079E1,2.425950050E0,4.828050137E0,7.942050457E0
2.510691079E1,2.904000044E0,5.143950462E0,8.557050705E0
2.512691079E1,3.799050093E0,5.239950180E0,9.424950600E0
2.514691079E1,3.985950232E0,5.254050255E0,1.058100033E1
2.516691079E1,3.991050243E0,5.125050068E0,1.158795071E1
2.518691079E1,4.113000393E0,4.948050022E0,1.265295029E1
2.520691079E1,4.279950142E0,5.107950211E0,1.290900040E1
2.522691079E1,3.843000174E0,5.395950317E0,1.166295052E1
2.524691079E1,2.809050083E0,6.007950306E0,1.052805042E1
2.526691079E1,2.806050062E0,5.674950123E0,1.013295078E1
2.528691079E1,3.349950075E0,4.915050030E0,1.095705032E1
2.530691079E1,3.376050234E0,3.682050228E0,1.281105042E1
2.532691079E1,3.250950098E0,2.388000011E0,1.314405060E1
2.534691079E1,1.725000024E0,2.625000238E0,1.189695072E1
2.536691079E1,5.500500202E-1,2.992950201E0,1.019595051E1
2.538691079E1,3.199500144E-1,3.165000200E0,9.205050468E0
2.540691079E1,4.830000103E-1,2.859000206E0,8.628000259E0
2.542691079E1,5.449500084E-1,2.457000017E0,7.834050179E0
2.544691079E1,4.330500066E-1,1.804050088E0,7.123050213E0
2.546691079E1,-2.239500135E-1,1.426050067E0,6.453000069E0
2.548691079E1,-9.709500670E-1,1.264950037E0,6.472050190E0
2.550691079E1,-9.829500318E-1,1.294050097E0,6.703950405E0
2.552691079E1,-6.930000186E-1,1.392000079E0,7.243050575E0
2.554691079E1,-1.189500093E-1,1.378050089E0,7.072950363E0
2.556691079E1,1.410000026E-1,1.363050103E0,6.415050507E0
2.558691079E1,-8.100000024E-2,1.753950119E0,5.506050110E0
2.560691079E1,-4.540500343E-1,2.506950140E0,4.768950462E0
2.562691079E1,-5.670000315E-1,3.211050034E0,5.340000153E0
2.564691079E1,-2.220000178E-1,3.555000067E0,7.420050144E0
2.566691079E1,1.222050071E0,3.253950119E0,1.020000076E1
2.568691079E1,2.107950211E0,2.869050026E0,1.189695072E1
2.570691079E1,2.254050016E0,2.722950220E0,1.319595051E1
2.572691079E1,2.380050182E0,2.809050083E0,1.410105038E1
2.574691079E1,3.241950035E0,2.191050053E0,1.472505093E1
2.576691079E1,3.676950216E0,1.465950012E0,1.512000084E1
2.578691079E1,3.570000172E0,9.690000415E-1,1.455795097E1
2.580691079E1,3.523950100E0,1.366050124E0,1.325100040E1
2.582691079E1,4.113000393E0,1.806000113E0,1.190400028E1
2.584691079E1,4.003050327E0,1.926000118E0,1.026000023E1
2.586691079E1,3.048000097E0,1.930950046E0,8.833950043E0
2.588691079E1,1.512000084E0,2.596050024E0,7.792950153E0
2.590691079E1,6.739500165E-1,3.342000246E0,7.425000191E0
2.592691079E1,5.590500236E-1,3.952950239E0,7.864950180E0
2.594691079E1,1.155000091E0,4.078950405E0,9.136050224E0
2.596691079E1,1.588050127E0,3.169950247E0,1.008300018E1
2.598691079E1,1.591050029E0,2.574000120E0,9.991950035E0
2.600691079E1,1.339950085E0,2.091000080E0,8.569050789E0
2.602691079E1,1.054949999E0,2.196000099E0,6.628050327E0
2.604691079E1,1.002000093E0,2.359050035E0,5.215950012E0
2.606691079E1,1.063950062E0,2.545950174E0,4.510050297E0
2.608691079E1,1.584000111E0,2.566950083E0,4.773000240E0
2.610691079E1,1.947000146E0,2.256000042E0,5.271000385E0
2.612691079E1,1.825050116E0,2.056950092E0,5.773950100E0
2.614691079E1,1.744050026E0,2.344950199E0,6.106050491E0
2.616691079E1,2.518950224E0,2.845050097E0,7.498950481E0
2.618691079E1,3.570000172E0,3.268050194E0,9.034950256E0
2.620691079E1,4.141950130E0,3.390000105E0,9.538050652E0
2.622691079E1,4.326000214E0,3.691950083E0,9.466050148E0
2.624691079E1,3.760950089E0,3.877950191E0,9.222000122E0
2.626691079E1,3.085950136E0,3.760950089E0,9.913050652E0
2.628691079E1,2.869050026E0,3.783000231E0,1.184205055E1
2.630691079E1,2.908950090E0,3.945000172E0,1.333800030E1
2.632691079E1,2.644050121E0,4.327950001E0,1.308195019E1
2.634691079E1,1.918950081E0,4.900050163E0,1.152405071E1
2.636691079E1,1.026000023E0,5.809050083E0,1.005195045E1
2.638691079E1,1.090950012E0,6.196950436E0,9.786000252E0
2.640691079E1,2.299050093E0,4.825950146E0,1.107600021E1
2.642691079E1,4.039050102E0,2.964000225E0,1.237605095E1
2.644691079E1,4.327950001E0,2.128950119E0,1.263405037E1
2.646691079E1,3.055050135E0,2.431050062E0,1.117200089E1
2.648691079E1,2.434950113E0,2.847000122E0,9.588000298E0
2.650691079E1,2.344950199E0,2.826000214E0,8.662050247E0
2.652691079E1,1.935000062E0,2.400000095E0,7.717050552E0
2.654691079E1,1.270050049E0,1.959000111E0,7.498950481E0
2.656691079E1,6.100500226E-1,1.911000133E0,7.209000111E0
2.658691079E1,-1.260000020E-1,2.280000210E0,7.030050278E0
2.660691079E1,1.000500023E-1,2.332950115E0,6.439050198E0
2.662691079E1,3.540000021E-1,2.337000132E0,5.479050159E0
2.664691079E1,2.220000178E-1,2.662950039E0,4.021950245E0
2.666691079E1,-3.130500019E-1,3.139050245E0,3.262950182E0
2.668691079E1,-1.557000041E0,4.105950356E0,3.961950302E0
2.670691079E1,-1.878000140E0,4.182000160E0,6.015000343E0
2.672691079E1,-1.194000006E0,3.586050272E0,8.037000656E0
2.674691079E1,-9.640500546E-1,3.591000080E0,9.187950134E0
2.676691079E1,-1.251000047E0,4.036050320E0,9.576000214E0
2.678691079E1,-1.330050111E0,4.021950245E0,1.187295055E1
2.680691079E1,-1.821000099E0,3.630000114E0,1.558500099E1
2.682691079E1,-1.344000101E0,2.400000095E0,1.637400055E1
2.684691079E1,-1.737000108E0,1.641000032E0,1.466805077E1
2.686691079E1,-2.397000074E0,2.164950132E0,1.306500053E1
2.688691079E1,1.770000011E-1,2.376000166E0,1.263405037E1
2.690691079E1,2.389950037E0,2.701050043E0,1.365105057E1
2.692691079E1,3.691950083E0,2.292000055E0,1.404105091E1
2.694691079E1,5.134950161E0,1.641000032E0,1.468995094E1
2.696691079E1,6.262050152E0,8.659500480E-1,1.340205097E1
2.698691079E1,7.264050484E0,2.869500220E-1,9.286050797E0
2.700691079E1,6.441000462E0,9.930000305E-1,4.548000336E0
2.702691079E1,1.835100174E1,-2.731950045E0,7.036950111E0
2.704691079E1,2.223000050E0,4.198950291E0,3.060000181E0
2.706691079E1,-4.020000100E-1,3.559950113E0,3.180000067E0
2.708691079E1,2.457000017E0,6.769500375E-1,3.637050152E0
2.710691079E1,1.581000090E0,2.782050133E0,8.119050026E0
2.712691079E1,2.845050097E0,1.663050056E0,1.086300087E1
2.714691079E1,2.770050049E0,2.032950163E0,1.067895031E1
2.716691079E1,2.964000225E0,2.424000025E0,8.299950600E0
2.718691079E1,3.673050165E0,2.964000225E0,5.335950375E0
2.720691079E1,4.254000187E0,3.594000101E0,4.137000084E0
2.722691079E1,4.369050026E0,4.515000343E0,5.446050167E0
2.724691079E1,2.718000174E0,3.976950169E0,8.788949966E0
2.726691079E1,1.033050060E0,3.514950275E0,9.721950531E0
2.728691079E1,3.406950235E0,4.456950188E0,6.775950432E0
2.730691079E1,4.347000122E0,4.122000217E0,1.008600044E1
2.732691079E1,3.901950121E0,4.419000149E0,8.703000069E0
2.734691079E1,3.579000235E0,4.591050148E0,5.410050392E0
2.739918393E1,2.589000225E0,3.949950218E0,8.098950386E0
2.741918393E1,2.823000193E0,4.077000141E0,8.796000481E0
2.743918393E1,2.833050251E0,3.991050243E0,9.151950836E0
2.745918393E1,2.443050146E0,3.984000206E0,9.246000290E0
2.747918393E1,1.995000124E0,4.177950382E0,8.793000221E0
2.749918393E1,2.042999983E0,4.375950336E0,8.551950455E0
2.751918393E1,2.368050098E0,4.261050224E0,8.674050331E0
2.753918393E1,2.359050035E0,4.258950233E0,8.686050415E0
2.755918393E1,2.572050095E0,4.321050167E0,8.368050575E0
2.757918393E1,2.758950233E0,4.417050362E0,7.944000244E0
2.759918393E1,3.376050234E0,4.327950001E0,8.110950470E0
2.761918393E1,4.144050121E0,3.442950249E0,8.655000687E0
2.763918393E1,4.333050251E0,2.593050241E0,8.293050766E0
2.765918393E1,3.003000259E0,2.665050030E0,6.889050484E0
2.767918393E1,1.219950080E0,3.747000217E0,5.344950199E0
2.769918393E1,1.050000042E-1,5.038950443E0,4.977000237E0
2.771918393E1,5.209500194E-1,4.984050274E0,6.018000126E0
2.773918393E1,1.098000050E0,4.237050056E0,7.200000286E0
2.775918393E1,6.960000396E-1,3.811050177E0,8.065950394E0
2.777918393E1,-1.840500087E-1,3.682050228E0,8.875050545E0
2.779918393E1,-8.059500456E-1,3.780000210E0,9.703050613E0
2.781918393E1,-3.390000165E-1,3.853950262E0,1.133505058E1
2.783918393E1,4.920000136E-1,3.153000116E0,1.260300064E1
2.785918393E1,9.709500670E-1,2.698950052E0,1.246200085E1
2.787918393E1,8.440500498E-1,2.538000107E0,1.053300095E1
2.789918393E1,4.969500303E-1,2.826000214E0,8.619000435E0
2.791918393E1,8.680500388E-1,3.177000046E0,7.642050266E0
2.793918393E1,9.490500689E-1,3.418950081E0,7.741050243E0
2.795918393E1,7.410000563E-1,3.448050261E0,8.616000175E0
2.797918393E1,4.230000079E-1,3.228000164E0,9.093000412E0
2.799918393E1,1.170000061E-1,3.019050121E0,9.253050804E0
2.801918393E1,2.530499995E-1,3.061950207E0,8.937000275E0
2.803918393E1,7.080000043E-1,2.974050045E0,9.364950180E0
2.805918393E1,9.850500226E-1,3.129000187E0,8.911050797E0
2.807918393E1,8.110500574E-1,3.402000189E0,7.678050518E0
2.809918393E1,4.729500115E-1,3.748950243E0,6.475050449E0
2.811918393E1,8.749500513E-1,4.000050068E0,6.115950108E0
2.813918393E1,1.714950085E0,3.952950239E0,6.477000237E0
2.815918393E1,1.830000043E0,3.744000196E0,7.020000458E0
2.817918393E1,1.555050015E0,3.364050150E0,6.604050159E0
2.819918393E1,1.074000001E0,3.237000227E0,6.984000206E0
2.821918393E1,1.336950064E0,3.358950138E0,8.680950165E0
2.823918393E1,2.095950127E0,3.096000195E0,1.106895065E1
2.825918393E1,2.359050035E0,2.809050083E0,1.206495094E1
2.827918393E1,2.653050184E0,2.778000116E0,1.181595039E1
2.829918393E1,2.833050251E0,3.361950159E0,1.113795090E1
2.831918393E1,2.325000048E0,4.198950291E0,1.068600082E1
2.833918393E1,2.140950203E0,4.587000370E0,1.034895039E1
2.835918393E1,4.255949974E0,3.892950296E0,1.171305084E1
2.837918393E1,5.974950314E0,2.059950113E0,1.311300087E1
2.839918393E1,5.911950111E0,8.539500237E-1,1.322295094E1
2.841918393E1,3.630000114E0,1.615050077E0,1.130100060E1
2.843918393E1,1.794000030E0,2.421000004E0,9.447000504E0
2.845918393E1,1.573950052E0,2.907000065E0,9.250050545E0
2.847918393E1,3.117000103E0,2.718000174E0,1.024095058E1
2.849918393E1,4.204050064E0,2.089050055E0,9.784050941E0
2.851918393E1,4.209000111E0,2.188950062E0,7.663950443E0
2.853918393E1,3.679950237E0,2.625000238E0,5.191950321E0
2.855918393E1,3.012000084E0,2.857050180E0,4.072050095E0
2.857918393E1,2.242050171E0,3.082050085E0,4.564949989E0
2.859918393E1,1.873050094E0,2.775000095E0,5.745000362E0
2.861918393E1,1.335000038E0,2.455050230E0,6.580050468E0
2.863918393E1,2.460000068E-1,2.353950024E0,6.570000172E0
2.865918393E1,-8.899500370E-1,2.602950096E0,5.776050091E0
2.867918393E1,-1.284000039E0,2.847000122E0,5.209050179E0
2.869918393E1,-3.370500207E-1,3.358950138E0,4.630050182E0
2.871918393E1,1.099950075E0,3.661050081E0,5.074950218E0
2.873918393E1,1.995000124E0,3.535950184E0,6.601950169E0
2.875918393E1,3.133950233E0,3.145950079E0,8.289000511E0
2.877918393E1,4.789950371E0,3.028950214E0,9.850950241E0
2.879918393E1,5.817000389E0,2.698950052E0,1.163100052E1
2.881918393E1,5.719050407E0,2.160000086E0,1.305495071E1
2.883918393E1,5.367000103E0,1.549950123E0,1.351500034E1
2.885918393E1,4.378950119E0,1.957050085E0,1.187805080E1
2.887918393E1,4.144050121E0,2.742000103E0,1.074105072E1
2.889918393E1,5.371950150E0,3.061950207E0,1.235400105E1
2.891918393E1,6.478950500E0,1.633950114E0,1.438605022E1
2.893918393E1,5.412000179E0,1.399050117E0,1.457700062E1
2.895918393E1,3.694050074E0,2.766000032E0,1.245195103E1
2.897918393E1,3.382950068E0,3.601050138E0,1.022700024E1
2.899918393E1,3.876000166E0,3.562950134E0,9.037950516E0
2.901918393E1,3.843000174E0,3.169950247E0,8.155050278E0
2.903918393E1,2.680050135E0,2.389950037E0,7.458000183E0
2.905918393E1,1.039950013E0,2.131950140E0,7.342950344E0
2.907918393E1,9.795000404E-2,2.055000067E0,7.840950489E0
2.909918393E1,-3.229500055E-1,2.305950165E0,8.137949944E0
2.911918393E1,-3.130500019E-1,2.305950165E0,7.602000237E0
2.913918393E1,-4.230000079E-1,2.388000011E0,6.862050533E0
2.915918393E1,-6.379500031E-1,2.244000196E0,5.866950512E0
2.917918393E1,-6.220500469E-1,2.065050125E0,4.675050259E0
2.919918393E1,-4.849500358E-1,2.055000067E0,4.156050205E0
2.921918393E1,-2.580000162E-1,2.280000210E0,4.423950195E0
2.923918393E1,1.140000075E-1,2.433000088E0,5.734950066E0
2.925918393E1,7.200000286E-1,2.433000088E0,8.068050385E0
2.927918393E1,1.513950109E0,1.971000075E0,1.020000076E1
2.929918393E1,1.725000024E0,1.359000087E0,1.180395031E1
2.931918393E1,8.419500589E-1,1.396950126E0,1.241205025E1
2.933918393E1,4.420500100E-1,2.163000107E0,1.354800034E1
2.935918393E1,9.300000668E-1,3.285000086E0,1.447695065E1
2.937918393E1,1.450050116E0,4.165950298E0,1.370400047E1
2.939918393E1,2.325000048E0,4.711050034E0,1.179405022E1
2.941918393E1,3.748950243E0,4.692000389E0,1.100205040E1
2.943918393E1,4.807050228E0,2.017050028E0,1.282095051E1
2.945918393E1,4.246950150E0,1.282050014E0,1.543095112E1
2.947918393E1,3.196050167E0,1.768050075E0,1.575405121E1
2.949918393E1,2.659950018E0,2.236950159E0,1.386900043E1
2.951918393E1,2.482950211E0,2.646000147E0,1.125105095E1
2.953918393E1,2.376000166E0,2.778000116E0,8.896050453E0
2.955918393E1,2.584050179E0,2.761050224E0,7.642050266E0
2.957918393E1,2.317950010E0,2.530950069E0,6.235050201E0
2.959918393E1,1.552050114E0,2.586000204E0,5.167950153E0
2.961918393E1,9.880500436E-1,2.266050100E0,5.271000385E0
2.963918393E1,7.510500550E-1,1.756050110E0,6.325950146E0
2.965918393E1,5.020500422E-1,1.167000055E0,6.706950188E0
2.967918393E1,-1.240500063E-1,7.770000100E-1,6.544050217E0
2.969918393E1,-7.920000553E-1,5.710500479E-1,6.027000427E0
2.971918393E1,-1.468950033E0,5.929500461E-1,5.719050407E0
2.973918393E1,-1.885050058E0,7.720500231E-1,5.355000019E0
2.975918393E1,-1.654950023E0,9.040500522E-1,4.446000099E0
2.977918393E1,-1.318050027E0,1.399050117E0,3.586050272E0
2.979918393E1,-1.222050071E0,2.304000139E0,3.957000256E0
2.981918393E1,-1.552050114E0,3.694050074E0,4.572000027E0
2.983918393E1,-5.670000315E-1,4.417050362E0,5.785950184E0
2.985918393E1,1.465950012E0,4.252050400E0,7.858050346E0
2.987918393E1,1.354050040E0,2.887950182E0,1.235400105E1
2.989918393E1,1.789050102E0,1.189050078E0,1.617105103E1
2.991918393E1,2.328000069E0,2.595000155E-2,1.705395126E1
2.993918393E1,3.217950106E0,3.795000166E-2,1.750395012E1
2.995918393E1,6.211050510E0,-1.249050021E0,1.665195084E1
2.997918393E1,8.269050598E0,-1.576050043E0,1.693695068E1
2.999918393E1,8.719050407E0,-1.923000097E0,1.757100105E1
3.001918393E1,8.296050072E0,-1.855950117E0,1.681905174E1
3.003918393E1,7.618950367E0,-8.850000501E-1,1.520895100E1
3.005918393E1,7.807950497E0,-7.459500432E-1,1.252905083E1
3.007918393E1,6.867000103E0,-1.020000055E-1,9.535050392E0
3.009918393E1,4.599000454E0,1.014000058E0,6.834000111E0
3.011918393E1,2.890050173E0,1.372950077E0,5.613000393E0
3.013918393E1,2.452050209E0,1.075950027E0,6.238050461E0
3.015918393E1,2.811000109E0,4.800000191E-1,6.903000355E0
3.017918393E1,2.775000095E0,2.719500065E-1,6.937050343E0
3.019918393E1,2.002050161E0,2.239500135E-1,6.151950359E0
3.021918393E1,7.369500399E-1,5.449500084E-1,5.335950375E0
3.023918393E1,8.595000207E-2,7.390500307E-1,4.351950169E0
3.025918393E1,-6.705000252E-2,1.042950034E0,3.703950167E0
3.027918393E1,3.300000131E-1,1.170000076E0,3.937950134E0
3.029918393E1,3.900000155E-1,1.438050032E0,4.369050026E0
3.031918393E1,-1.909500062E-1,1.687050104E0,4.819050312E0
3.033918393E1,-1.062000036E0,1.702950120E0,5.167950153E0
3.035918393E1,-1.873050094E0,1.641000032E0,6.262050152E0
3.037918393E1,-2.932950258E0,1.786950111E0,7.996950150E0
3.039918393E1,-3.871050119E0,1.447050095E0,9.751049995E0
3.041918393E1,-4.170000076E0,1.213050008E0,1.124100018E1
3.043918393E1,-3.385050058E0,7.920000553E-1,1.338795090E1
3.045918393E1,-1.033050060E0,4.420500100E-1,1.530705070E1
3.047918393E1,1.167000055E0,7.290000319E-1,1.691295052E1
3.049918393E1,4.618050098E0,-1.206000090E0,1.813500023E1
3.051918393E1,8.044050217E0,-2.872950077E0,1.876695061E1
3.053918393E1,9.127950668E0,-2.650950193E0,1.837905121E1
3.055918393E1,7.657050133E0,-1.072050095E0,1.697205162E1
3.057918393E1,5.896050453E0,5.449500084E-1,1.526895046E1
3.059918393E1,6.034050465E0,1.165050030E0,1.384995079E1
3.061918393E1,7.011000156E0,1.126950026E0,1.216005039E1
3.063918393E1,6.724050522E0,9.660000205E-1,9.271950722E0
3.065918393E1,5.745000362E0,9.490500689E-1,6.523050308E0
3.067918393E1,4.848000050E0,9.300000668E-1,3.579000235E0
3.069918393E1,3.262950182E0,1.090950012E0,1.861050129E0
3.071918393E1,1.962000132E0,1.054949999E0,1.366050124E0
3.073918393E1,1.270050049E0,6.049500108E-1,2.067000151E0
3.075918393E1,1.231950045E0,1.020000055E-1,2.928000212E0
3.077918393E1,1.063950062E0,-1.290000081E-1,3.826050282E0
3.079918393E1,3.799500167E-1,-3.105000220E-2,4.350000381E0
3.081918393E1,-3.079500198E-1,3.349500299E-1,4.314000130E0
3.083918393E1,-6.529500484E-1,6.360000372E-1,3.957000256E0
3.085918393E1,-9.210000634E-1,1.251000047E0,4.230000019E0
3.087918393E1,-8.040000200E-1,1.750950098E0,4.783050060E0
3.089918393E1,-1.290000081E-1,2.179050207E0,5.398050308E0
3.091918393E1,6.790500283E-1,2.701050043E0,5.448000431E0
3.093918393E1,1.264950037E0,2.806050062E0,5.938950062E0
3.095918393E1,1.146000028E0,3.133950233E0,7.353000164E0
3.097918393E1,1.533000112E0,3.405000210E0,9.082950592E0
3.099918393E1,3.772950172E0,2.956950188E0,1.200195026E1
3.101918393E1,5.752050400E0,2.400000095E0,1.533105087E1
3.103918393E1,6.412050247E0,1.066950083E0,1.802295113E1
3.105918393E1,8.133000374E0,2.910000086E-1,1.941105080E1
3.107918393E1,8.485050201E0,-3.540000021E-1,1.917105103E1
3.109918393E1,6.139950275E0,8.869500160E-1,1.840605164E1
3.111918393E1,5.070000172E0,1.519050121E0,1.667595100E1
3.113918393E1,4.729950428E0,2.175000191E0,1.409400082E1
3.115918393E1,4.788000107E0,2.275050163E0,1.125600052E1
3.117918393E1,4.576950073E0,2.080950022E0,8.815050125E0
3.119918393E1,3.511950254E0,2.361000061E0,6.468000412E0
3.121918393E1,2.078999996E0,2.437950134E0,4.855050087E0
3.123918393E1,1.312950015E0,2.078999996E0,4.078950405E0
3.125918393E1,4.900500178E-1,1.962000132E0,4.075050354E0
3.127918393E1,-1.930500120E-1,1.648050070E0,4.627050400E0
3.129918393E1,-3.250500262E-1,1.468950033E0,4.732950211E0
3.131918393E1,-3.299999982E-2,1.501950026E0,4.870950222E0
3.133918393E1,3.439500034E-1,1.641000032E0,5.257050037E0
3.135918393E1,3.679500222E-1,1.648050070E0,5.874000072E0
3.137918393E1,2.770500183E-1,1.782000065E0,6.609000206E0
3.139918393E1,4.180500209E-1,1.770000100E0,7.329000473E0
3.141918393E1,7.530000210E-1,1.521000028E0,8.998950005E0
3.143918393E1,-1.395000052E-2,2.242050171E0,1.085595036E1
3.145918393E1,-3.105000220E-2,2.545950174E0,1.256700039E1
3.147918393E1,4.830000103E-1,2.821050167E0,1.392600060E1
3.149918393E1,3.940500319E-1,4.531949997E0,1.433505058E1
3.151918393E1,1.417950034E0,4.333050251E0,1.436895084E1
3.153918393E1,3.907050133E0,3.945000172E0,1.445505047E1
3.155918393E1,4.965000153E0,2.988000154E0,1.344495106E1
3.157918393E1,4.027050018E0,2.371050119E0,1.284000015E1
3.159918393E1,2.143949986E0,2.317950010E0,1.280595016E1
3.161918393E1,2.479500175E-1,2.826000214E0,1.284705067E1
3.163918393E1,4.590000212E-1,2.845050097E0,1.188705063E1
3.165918393E1,1.885050058E0,2.938050032E0,1.092300034E1
3.167918393E1,3.000000238E0,2.674950123E0,9.163949966E0
3.169918393E1,2.581050158E0,2.730000019E0,6.807000160E0
3.171918393E1,1.452000022E0,2.778000116E0,4.623000145E0
3.173918393E1,4.060500264E-1,2.916000128E0,3.981000185E0
3.175918393E1,3.010500073E-1,2.983050108E0,4.699050426E0
3.177918393E1,1.452000022E0,2.299050093E0,6.018000126E0
3.179918393E1,2.107950211E0,1.801050067E0,7.047000408E0
3.181918393E1,1.690950036E0,1.612050056E0,6.931950092E0
3.183918393E1,4.570500255E-1,2.055000067E0,5.910000324E0
3.185918393E1,-5.089499950E-1,2.979000092E0,4.855050087E0
3.187918393E1,-4.090500176E-1,3.787050247E0,4.060050011E0
3.189918393E1,1.414050102E0,3.933000088E0,4.728000164E0
3.191918393E1,2.545950174E0,4.375950336E0,5.958000183E0
3.193918393E1,2.908950090E0,4.552950382E0,6.898050308E0
3.195918393E1,3.259050131E0,4.680000305E0,6.819000244E0
3.197918393E1,3.898050070E0,4.857000351E0,7.285950184E0
3.199918393E1,4.240050316E0,4.596000195E0,9.106950760E0
3.201918393E1,3.991050243E0,3.912000179E0,1.165500069E1
3.203918393E1,2.175000191E0,4.918950081E0,1.278000069E1
3.205918393E1,1.387050033E0,4.926000118E0,1.385895061E1
3.207918393E1,2.014050007E0,3.778050184E0,1.470195103E1
3.209918393E1,2.847000122E0,2.638950109E0,1.601295090E1
3.211918393E1,2.494950056E0,2.479050159E0,1.586400032E1
3.213918393E1,1.798950076E0,2.629050016E0,1.425600052E1
3.215918393E1,1.785000086E0,2.683950186E0,1.218405056E1
3.217918393E1,1.392000079E0,3.216000080E0,9.427950859E0
3.219918393E1,6.000000238E-1,3.505050182E0,7.473000526E0
3.221918393E1,4.995000362E-2,3.274950266E0,6.385950089E0
3.223918393E1,-8.820000291E-1,3.402000189E0,5.770950317E0
3.225918393E1,-1.417950034E0,3.298950195E0,6.397950172E0
3.227918393E1,-1.234050035E0,2.818050146E0,8.047050476E0
3.229918393E1,-3.870000243E-1,1.939950109E0,9.748050690E0
3.231918393E1,-3.199500144E-1,1.891950130E0,1.017195034E1
3.233918393E1,-6.259500384E-1,2.317950010E0,9.306000710E0
3.235918393E1,-9.829500318E-1,2.641050100E0,8.961000443E0
3.237918393E1,-8.419500589E-1,2.351999998E0,8.851050377E0
3.239918393E1,-1.570500135E-1,2.078999996E0,8.887050629E0
3.241918393E1,4.159500301E-1,2.029050112E0,8.049000740E0
3.243918393E1,2.770500183E-1,2.188950062E0,6.304950237E0
3.245918393E1,-1.930500120E-1,2.625000238E0,4.789950371E0
3.247918393E1,-2.440500110E-1,3.328050137E0,3.019050121E0
3.249918393E1,3.919500113E-1,3.630000114E0,3.241950035E0
3.251918393E1,4.300500154E-1,3.784950256E0,5.307000160E0
3.253918393E1,8.440500498E-1,4.266000271E0,7.993950367E0
3.255918393E1,1.660050035E0,4.398000240E0,1.026495075E1
3.257918393E1,1.828050137E0,4.426050186E0,1.149495029E1
3.259918393E1,8.490000367E-1,5.754000187E0,1.177695084E1
3.261918393E1,9.495000541E-2,7.228050232E0,1.153800011E1
3.263918393E1,-1.120500043E-1,8.346000671E0,1.059300041E1
3.265918393E1,1.359000087E0,9.384000778E0,9.106950760E0
3.267918393E1,5.013000011E0,8.899050713E0,8.731050491E0
3.269918393E1,7.987050533E0,5.599050045E0,1.013595009E1
3.271918393E1,8.157000542E0,2.512050152E0,1.131105042E1
3.273918393E1,4.819050312E0,3.247050047E0,1.232505035E1
3.275918393E1,1.540950060E0,4.825950146E0,1.217505074E1
3.277918393E1,1.086000085E0,4.663050175E0,1.099305058E1
3.279918393E1,1.324950099E0,4.620000362E0,9.271950722E0
3.281918393E1,1.501950026E0,4.870950222E0,6.987000465E0
3.283918393E1,9.040500522E-1,5.146950245E0,5.020050049E0
3.285918393E1,1.009050012E0,4.855050087E0,4.405050278E0
3.287918393E1,2.080950022E0,3.852000237E0,5.233050346E0
3.289918393E1,2.529000044E0,3.451950073E0,6.573000431E0
3.291918393E1,1.663050056E0,3.840000153E0,7.417950153E0
3.293918393E1,7.579500079E-1,3.808950186E0,7.726050377E0
3.295918393E1,5.689499974E-1,3.280050039E0,7.635000229E0
3.297918393E1,1.020000055E-1,2.986050129E0,6.855000496E0
3.299918393E1,-2.100000158E-2,2.545950174E0,5.917050362E0
3.301918393E1,-3.349500299E-1,2.233950138E0,5.197050095E0
3.303918393E1,-1.605000161E-2,2.224950075E0,5.142000198E0
3.305918393E1,4.519500136E-1,1.897050142E0,5.166000366E0
3.307918393E1,2.790000141E-1,2.292000055E0,4.809000015E0
3.309918393E1,-5.205000192E-2,3.085950136E0,4.455000401E0
3.311918393E1,3.150000274E-1,3.874050140E0,5.119950294E0
3.313918393E1,1.540950060E0,4.347000122E0,6.786000252E0
3.315918393E1,3.153000116E0,4.516950130E0,8.293050766E0
3.317918393E1,4.744950294E0,4.596000195E0,9.616950035E0
3.319918393E1,4.777950287E0,3.925950289E0,1.007400036E1
3.321918393E1,4.410000324E0,2.854050159E0,1.080600071E1
3.323918393E1,2.638950109E0,4.234950066E0,1.037505054E1
3.325918393E1,2.208000183E0,5.683050156E0,9.910950661E0
3.327918393E1,4.785000324E0,4.915050030E0,1.165800095E1
3.329918393E1,6.457950115E0,2.242050171E0,1.415100098E1
3.331918393E1,6.214050293E0,5.860500336E-1,1.667100143E1
3.333918393E1,4.572000027E0,7.680000067E-1,1.678305054E1
3.335918393E1,2.988000154E0,1.402050018E0,1.492905045E1
3.337918393E1,2.638950109E0,1.983000040E0,1.316295052E1
3.339918393E1,2.461950064E0,2.613000154E0,1.219395065E1
3.341918393E1,2.881050110E0,2.038050175E0,1.069800091E1
3.343918393E1,3.228000164E0,1.584000111E0,9.499050140E0
3.345918393E1,2.806050062E0,1.591050029E0,7.884000301E0
3.347918393E1,2.412000179E0,1.609950066E0,6.409950256E0
3.349918393E1,2.009999990E0,1.890000105E0,6.003000259E0
3.351918393E1,2.140950203E0,1.837050080E0,6.511050224E0
3.353918393E1,2.596050024E0,1.588050127E0,6.865050316E0
3.355918393E1,2.416050196E0,1.488000035E0,6.529950142E0
3.357918393E1,1.531050086E0,1.489950061E0,5.838000298E0
3.359918393E1,5.040000081E-1,1.360950112E0,5.698950291E0
3.361918393E1,3.150000274E-1,1.477950096E0,6.877050400E0
3.363918393E1,1.090950012E0,2.022000074E0,7.945950508E0
3.365918393E1,2.332950115E0,1.822950125E0,9.511050224E0
3.367918393E1,3.175050259E0,1.690950036E0,9.877050400E0
3.369918393E1,3.256050110E0,1.786950111E0,9.913050652E0
3.371918393E1,2.497950077E0,2.703000069E0,1.079595089E1
3.373918393E1,1.678950071E0,3.661050081E0,1.146195030E1
3.375918393E1,8.629500270E-1,5.119950294E0,1.249995041E1
3.377918393E1,1.012050033E0,6.061050415E0,1.323705101E1
3.379918393E1,9.810000658E-1,7.888950348E0,1.233000088E1
3.381918393E1,3.574950218E0,7.675950527E0,1.059795094E1
3.383918393E1,5.392950058E0,6.946050167E0,8.712000847E0
3.385918393E1,7.012950420E0,3.378000259E0,1.123905087E1
3.387918393E1,7.543950558E0,5.670000315E-1,1.451505089E1
3.389918393E1,4.345050335E0,1.762950063E0,1.583295059E1
3.391918393E1,2.593050241E0,2.107950211E0,1.329705048E1
3.393918393E1,2.263050079E0,1.821000099E0,1.033200073E1
3.395918393E1,2.485950232E0,2.086050034E0,6.987000465E0
3.397918393E1,2.608050108E0,2.047950029E0,4.584000111E0
3.399918393E1,2.199000120E0,1.864050031E0,4.029000282E0
3.401918393E1,2.308950186E0,1.854000092E0,4.393050194E0
3.403918393E1,3.012000084E0,1.774950027E0,4.905000210E0
3.405918393E1,3.748950243E0,1.476000071E0,5.296950340E0
3.407918393E1,3.466950178E0,1.765050054E0,4.795050144E0
3.409918393E1,2.317950010E0,2.104950190E0,4.282950401E0
3.411918393E1,1.158000112E0,2.313000202E0,3.550950050E0
3.413918393E1,6.529500484E-1,2.329950094E0,3.366000175E0
3.415918393E1,8.389500380E-1,2.755950212E0,3.529050112E0
3.417918393E1,1.732050061E0,3.096000195E0,4.198950291E0
3.419918393E1,2.548050165E0,3.333000183E0,5.077050209E0
3.421918393E1,2.233950138E0,3.517050266E0,6.051000118E0
3.423918393E1,7.890000343E-1,3.900000095E0,6.633000374E0
3.425918393E1,1.383000016E0,4.623000145E0,6.633000374E0
3.427918393E1,2.353950024E0,5.083950043E0,7.269000530E0
3.429918393E1,2.923950195E0,5.320950031E0,9.589950562E0
3.431918393E1,3.046050072E0,5.320950031E0,1.211505032E1
3.433918393E1,3.409050226E0,5.367000103E0,1.303800106E1
3.435918393E1,3.859050274E0,6.463050365E0,1.176300049E1
3.437918393E1,4.072050095E0,6.429000378E0,1.108800030E1
3.439918393E1,4.033950329E0,6.121050358E0,1.103805065E1
3.441918393E1,4.536000252E0,5.737950325E0,1.231095028E1
3.443918393E1,4.108050346E0,5.398050308E0,1.267995071E1
3.445918393E1,3.562950134E0,5.635050297E0,1.290195084E1
3.447918393E1,4.134000301E0,5.392950058E0,1.320795059E1
3.449918393E1,4.230000019E0,4.828050137E0,1.214595032E1
3.451918393E1,3.808950186E0,4.302000046E0,1.026300049E1
3.453918393E1,2.871000051E0,3.748950243E0,9.138000488E0
3.455918393E1,1.572000027E0,3.736950159E0,7.695000172E0
3.457918393E1,3.970500231E-1,3.892950296E0,6.420000076E0
3.459918393E1,6.195000187E-2,3.663000107E0,6.156000137E0
3.461918393E1,5.239500403E-1,3.430950165E0,6.133050442E0
3.463918393E1,1.006950021E0,3.247050047E0,5.914950371E0
3.465918393E1,1.219950080E0,2.962050200E0,5.257050037E0
3.467918393E1,1.027950048E0,2.638950109E0,4.669950008E0
3.469918393E1,4.950000346E-1,2.692050219E0,3.904950142E0
3.471918393E1,3.495000303E-2,2.494950056E0,4.398000240E0
3.473918393E1,-1.191000104E0,2.613000154E0,5.058000088E0
3.475918393E1,-1.342050076E0,3.016950130E0,5.656050205E0
3.477918393E1,-1.378050089E0,3.433050156E0,6.943950176E0
3.479918393E1,-5.740500093E-1,3.340050220E0,8.841000557E0
3.481918393E1,7.605000585E-2,3.405000210E0,1.045905018E1
3.483918393E1,2.530499995E-1,3.211050034E0,1.066200066E1
3.485918393E1,-3.199500144E-1,4.180050373E0,1.095705032E1
3.487918393E1,2.595000155E-2,4.426050186E0,1.233000088E1
3.489918393E1,1.066950083E0,4.833000183E0,1.313700104E1
3.491918393E1,2.296950102E0,5.608050346E0,1.289700031E1
3.493918393E1,2.199000120E0,6.334050179E0,1.158795071E1
3.495918393E1,2.446950197E0,5.652000427E0,1.035405064E1
3.497918393E1,2.622000217E0,4.477050304E0,9.886950493E0
3.499918393E1,3.180000067E0,4.024050236E0,1.177500057E1
3.501918393E1,4.510050297E0,3.462000132E0,1.323900032E1
3.503918393E1,5.281050205E0,3.261000156E0,1.305300045E1
3.505918393E1,2.095950127E0,4.816050053E0,1.081305027E1
3.507918393E1,3.342000246E0,3.819000244E0,9.040050507E0
3.509918393E1,3.204000235E0,4.168050289E0,7.039050102E0
3.511918393E1,5.305050373E0,3.835050106E0,6.736050129E0
3.513918393E1,1.722000122E0,5.527050495E0,5.005050182E0
3.515918393E1,2.845050097E0,3.208050251E0,5.178000450E0
3.517918393E1,1.495050073E0,3.988050222E0,6.439050198E0
3.519918393E1,1.854000092E0,2.337000132E0,6.694950104E0
3.521918393E1,1.552050114E0,2.782050133E0,5.553000450E0
3.523918393E1,2.377950191E0,3.196050167E0,5.380950451E0
3.525918393E1,3.370950222E0,3.430950165E0,5.479050159E0
3.527918393E1,3.370950222E0,3.643950224E0,5.601000309E0
3.529918393E1,2.763000250E0,4.078950405E0,4.479000092E0
3.531918393E1,2.836950064E0,4.728000164E0,5.025000095E0
3.533918393E1,2.151000023E0,5.625000477E0,5.761950493E0
3.535918393E1,2.187000036E0,6.244950294E0,7.939050198E0
3.537918393E1,2.266050100E0,6.352950096E0,8.407950401E0
3.539918393E1,3.417000055E0,5.766000271E0,9.040050507E0
3.541918393E1,4.474050045E0,5.029050350E0,9.784050941E0
3.543918393E1,4.465050220E0,4.773000240E0,1.063605022E1
3.545918393E1,3.250950098E0,5.677950382E0,1.094505024E1
3.547918393E1,1.891950130E0,6.913050175E0,9.697950363E0
3.549918393E1,3.237000227E0,7.327050209E0,1.186605072E1
3.551918393E1,5.557950497E0,5.218050480E0,1.507695103E1
3.553918393E1,5.308950424E0,2.857050180E0,1.455300045E1
3.555918393E1,2.200950146E0,4.398000240E0,1.104000092E1
3.557918393E1,1.809000134E0,6.604050159E0,6.202050209E0
3.559918393E1,3.838050127E0,6.003000259E0,9.577950478E0
3.561918393E1,5.137050152E0,5.326050282E0,1.015305042E1
3.563918393E1,4.186950207E0,5.106000423E0,8.173950195E0
3.568480970E1,2.662950039E0,2.683950186E0,8.731050491E0
3.570480970E1,2.044950008E0,2.332950115E0,1.040100002E1
3.572480970E1,1.231950045E0,2.140950203E0,1.065000057E1
3.574480970E1,5.380499959E-1,2.337000132E0,9.669000626E0
3.576480970E1,1.086000085E0,2.782050133E0,8.137949944E0
3.578480970E1,1.660050035E0,3.112950087E0,6.774000168E0
3.580480970E1,1.821000099E0,3.132000208E0,6.855000496E0
3.582480970E1,2.184000015E0,3.148950100E0,8.032050133E0
3.584480970E1,2.656050205E0,3.064950228E0,8.950950623E0
3.586480970E1,3.024000168E0,3.199050188E0,8.523000717E0
3.588480970E1,3.748950243E0,3.139050245E0,7.474950314E0
3.590480970E1,4.180050373E0,3.393000126E0,8.029950142E0
3.592480970E1,5.524950027E0,3.703950167E0,9.595050812E0
3.594480970E1,6.669000149E0,3.756000280E0,9.961050034E0
3.596480970E1,6.859950542E0,3.720000267E0,9.247950554E0
3.598480970E1,7.117950439E0,3.424050093E0,7.630050182E0
3.600480970E1,6.871950150E0,3.046050072E0,6.601950169E0
3.602480970E1,6.109050274E0,2.857050180E0,5.664000034E0
3.604480970E1,4.101000309E0,3.192000151E0,5.754000187E0
3.606480970E1,2.719950199E0,3.325950146E0,7.378950119E0
3.608480970E1,2.148000002E0,2.926050186E0,8.947050095E0
3.610480970E1,1.311000109E0,2.884950161E0,9.556950569E0
3.612480970E1,1.890000105E-1,3.189000130E0,8.080050468E0
3.614480970E1,-1.122000098E0,3.652950287E0,7.003950119E0
3.616480970E1,-1.651050091E0,3.850050211E0,6.984000206E0
3.618480970E1,-1.027950048E0,3.646050215E0,7.977000237E0
3.620480970E1,-6.600000262E-1,3.727950096E0,9.310050011E0
3.622480970E1,-2.460000068E-1,3.751950264E0,9.853050232E0
3.624480970E1,-6.049500108E-1,4.017000198E0,9.065999985E0
3.626480970E1,-7.939500213E-1,4.078950405E0,8.236050606E0
3.628480970E1,-2.680500150E-1,3.511950254E0,7.015950203E0
3.630480970E1,4.609500170E-1,3.151050091E0,6.502950191E0
3.632480970E1,1.225050092E0,2.797050238E0,6.835950375E0
3.634480970E1,1.395000100E0,2.437950134E0,7.558950424E0
3.636480970E1,1.504950047E0,3.048000097E0,8.236050606E0
3.638480970E1,2.332950115E0,3.003000259E0,9.384000778E0
3.640480970E1,3.168000221E0,2.893050194E0,1.073895073E1
3.642480970E1,4.165950298E0,3.096000195E0,1.112205029E1
3.644480970E1,4.725000381E0,3.370950222E0,1.081305027E1
3.646480970E1,4.663050175E0,4.027050018E0,9.541950226E0
3.648480970E1,3.711000204E0,4.438050270E0,8.784000397E0
3.650480970E1,3.546000242E0,4.624950409E0,1.068105030E1
3.652480970E1,4.675050259E0,3.472050190E0,1.255695057E1
3.654480970E1,4.102950096E0,3.547950268E0,1.313400078E1
3.656480970E1,2.698950052E0,4.600950241E0,1.190895081E1
3.658480970E1,3.945000172E0,4.776000023E0,1.054305077E1
3.660480970E1,5.371950150E0,4.486050129E0,9.865050316E0
3.662480970E1,6.055950165E0,3.603000164E0,8.911050797E0
3.664480970E1,5.022000313E0,2.890050173E0,7.906050205E0
3.666480970E1,3.193950176E0,2.734950066E0,7.408050537E0
3.668480970E1,1.440000057E0,2.887950182E0,7.614000320E0
3.670480970E1,5.140500069E-1,3.115050077E0,8.269050598E0
3.672480970E1,5.279999971E-1,2.887950182E0,8.869950294E0
3.674480970E1,8.299500346E-1,2.290050030E0,9.222000122E0
3.676480970E1,1.083000064E0,2.239050150E0,8.473050117E0
3.678480970E1,1.081050038E0,1.864050031E0,6.913050175E0
3.680480970E1,7.150500417E-1,2.029050112E0,5.664000034E0
3.682480970E1,6.499500275E-1,2.494950056E0,5.299950123E0
3.684480970E1,1.036050081E0,2.683950186E0,5.950950146E0
3.686480970E1,1.359000087E0,2.763000250E0,5.977050304E0
3.688480970E1,1.138950109E0,2.514000177E0,5.991000175E0
3.690480970E1,8.850000501E-1,2.194050074E0,6.678000450E0
3.692480970E1,3.030000031E-1,2.440050125E0,7.207050323E0
3.694480970E1,2.509500086E-1,2.689050198E0,7.855050564E0
3.696480970E1,-1.650000066E-1,2.790000200E0,8.383950233E0
3.698480970E1,-4.999500215E-1,2.845050097E0,1.024800014E1
3.700480970E1,8.595000207E-2,3.060000181E0,1.266300106E1
3.702480970E1,1.258050084E0,2.955000162E0,1.214100075E1
3.704480970E1,1.675050020E0,4.354950428E0,8.904000282E0
3.706480970E1,1.429950118E0,6.037050247E0,6.130050182E0
3.708480970E1,3.268050194E0,6.790950298E0,7.642050266E0
3.710480970E1,5.130000114E0,5.119950294E0,1.335705090E1
3.712480970E1,6.955950260E0,1.018950105E0,1.894200134E1
3.714480970E1,5.118000031E0,9.709500670E-1,1.860405159E1
3.716480970E1,3.667950153E0,2.859000206E0,1.553895092E1
3.718480970E1,4.033950329E0,2.920950174E0,1.155195045E1
3.720480970E1,4.120050430E0,2.895000219E0,9.337050438E0
3.722480970E1,4.054950237E0,2.890050173E0,8.475000381E0
3.724480970E1,3.699000120E0,2.328000069E0,7.980000496E0
3.726480970E1,3.151050091E0,1.705950022E0,6.700050354E0
3.728480970E1,2.371050119E0,1.642950058E0,5.659050465E0
3.730480970E1,2.042999983E0,1.804050088E0,5.167950153E0
3.732480970E1,1.993050098E0,1.854000092E0,4.708950043E0
3.734480970E1,1.840050101E0,1.797000051E0,5.233050346E0
3.736480970E1,1.677000046E0,1.690950036E0,6.103950500E0
3.738480970E1,1.966050148E0,1.213050008E0,6.183000088E0
3.740480970E1,2.380050182E0,1.182000041E0,5.107950211E0
3.742480970E1,2.440050125E0,1.774950027E0,3.751950264E0
3.744480970E1,1.861050129E0,2.505000114E0,3.517050266E0
3.746480970E1,1.038000107E0,3.340050220E0,4.725000381E0
3.748480970E1,1.501950026E0,3.160950184E0,7.563000202E0
3.750480970E1,2.242050171E0,2.042999983E0,1.155495071E1
3.752480970E1,2.458950043E0,9.540000558E-1,1.351695061E1
3.754480970E1,1.528950095E0,1.351050019E0,1.422495079E1
3.756480970E1,4.180500209E-1,2.890050173E0,1.330605030E1
3.758480970E1,2.029050112E0,3.133950233E0,1.443600082E1
3.760480970E1,5.001000404E0,1.830000043E0,1.680000114E1
3.762480970E1,7.549050331E0,5.040000081E-1,1.666095161E1
3.764480970E1,6.066000462E0,1.528950095E0,1.432095051E1
3.766480970E1,4.149000168E0,3.094050169E0,1.209600067E1
3.768480970E1,3.490950108E0,3.816000223E0,1.028700066E1
3.770480970E1,3.780000210E0,3.661050081E0,1.029900074E1
3.772480970E1,3.627000093E0,2.755950212E0,1.060995007E1
3.774480970E1,2.359050035E0,2.278050184E0,1.002105045E1
3.776480970E1,9.780000448E-1,2.280000210E0,8.865000725E0
3.778480970E1,-3.630000055E-1,2.617050171E0,7.843050480E0
3.780480970E1,-9.760500193E-1,2.710950136E0,7.285950184E0
3.782480970E1,-8.200500607E-1,2.497950077E0,7.177950382E0
3.784480970E1,-2.100000158E-2,2.290050030E0,7.573050499E0
3.786480970E1,7.530000210E-1,2.167050123E0,7.792950153E0
3.788480970E1,1.159950018E0,2.041050196E0,6.879000187E0
3.790480970E1,9.730500579E-1,2.473950148E0,5.854950428E0
3.792480970E1,1.452000022E0,2.823000193E0,4.960050106E0
3.794480970E1,1.918950081E0,2.656050205E0,5.518050194E0
3.796480970E1,1.879950047E0,2.218050003E0,6.496050358E0
3.798480970E1,1.095000029E0,1.831950068E0,6.664050102E0
3.800480970E1,7.170000076E-1,1.693950057E0,6.819000244E0
3.802480970E1,7.270500064E-1,1.806000113E0,6.537000179E0
3.804480970E1,7.170000076E-1,2.284950018E0,6.322050095E0
3.806480970E1,1.222050071E0,2.359050035E0,6.448050499E0
3.808480970E1,2.311050177E0,3.036000252E0,7.054050446E0
3.810480970E1,2.883000135E0,3.940950155E0,7.839000225E0
3.812480970E1,2.578950167E0,4.498050213E0,9.892050743E0
3.814480970E1,2.026050091E0,5.359950066E0,1.222200012E1
3.816480970E1,2.332950115E0,6.618000507E0,1.258905029E1
3.818480970E1,3.820950270E0,5.862000465E0,1.198095036E1
3.820480970E1,5.491050243E0,3.469050169E0,1.381605053E1
3.822480970E1,6.288000107E0,1.106999993E0,1.778805161E1
3.824480970E1,5.797950268E0,4.230000079E-1,1.814505005E1
3.826480970E1,3.015000105E0,1.690950036E0,1.627095032E1
3.828480970E1,2.196000099E0,2.005050182E0,1.283505058E1
3.830480970E1,2.434950113E0,2.239050150E0,1.034205055E1
3.832480970E1,3.163050175E0,2.608050108E0,8.679000854E0
3.834480970E1,3.997950077E0,2.380050182E0,7.540050507E0
3.836480970E1,4.431000233E0,2.091000080E0,6.618000507E0
3.838480970E1,3.775950193E0,2.467050076E0,5.470050335E0
3.840480970E1,3.249000072E0,2.626950026E0,4.993050098E0
3.842480970E1,3.316050053E0,1.957050085E0,5.665950298E0
3.844480970E1,3.103050232E0,1.761000037E0,7.705050468E0
3.846480970E1,3.015000105E0,1.618950129E0,8.923050880E0
3.848480970E1,2.311050177E0,1.459050059E0,9.100049973E0
3.850480970E1,1.213050008E0,1.938000083E0,8.368050575E0
3.852480970E1,9.490500689E-1,2.107950211E0,7.237950325E0
3.854480970E1,1.167000055E0,2.155950069E0,6.184950352E0
3.856480970E1,1.299000025E0,2.244000196E0,5.530050278E0
3.858480970E1,1.462050080E0,2.383050203E0,5.158950329E0
3.860480970E1,1.822950125E0,2.491050005E0,5.001000404E0
3.862480970E1,2.457000017E0,2.548050165E0,5.329050064E0
3.864480970E1,3.417000055E0,2.050050020E0,6.088950157E0
3.866480970E1,4.168050289E0,1.395000100E0,6.597000122E0
3.868480970E1,4.087049961E0,1.480950117E0,6.124950409E0
3.870480970E1,3.661050081E0,2.329950094E0,5.452950478E0
3.872480970E1,2.991000175E0,3.847050190E0,4.918950081E0
3.874480970E1,2.950050116E0,4.483950138E0,5.773950100E0
3.876480970E1,3.739950180E0,3.531000137E0,7.882050514E0
3.878480970E1,4.666050434E0,2.323050022E0,1.047300053E1
3.880480970E1,4.312050343E0,2.014050007E0,1.236105061E1
3.882480970E1,2.692050219E0,3.414000273E0,1.185900021E1
3.884480970E1,1.846950054E0,4.840050220E0,1.139895058E1
3.886480970E1,3.253950119E0,4.801950455E0,1.288800049E1
3.888480970E1,5.070000172E0,2.908950090E0,1.445700073E1
3.890480970E1,5.857050419E0,1.705950022E0,1.503705025E1
3.892480970E1,4.371000290E0,2.067000151E0,1.415400028E1
3.894480970E1,3.235050201E0,2.488050222E0,1.266495037E1
3.896480970E1,2.446950197E0,2.718000174E0,1.105995083E1
3.898480970E1,1.840050101E0,2.869050026E0,9.987000465E0
3.900480970E1,1.717950106E0,2.377950191E0,9.022950172E0
3.902480970E1,1.336950064E0,2.009999990E0,8.097000122E0
3.904480970E1,7.510500550E-1,1.854000092E0,7.060950279E0
3.906480970E1,5.329500437E-1,2.062050104E0,6.456000328E0
3.908480970E1,9.795000404E-2,2.397000074E0,6.334050179E0
3.910480970E1,-2.100000083E-1,2.211000204E0,6.979950428E0
3.912480970E1,-2.320500165E-1,1.885050058E0,8.559000015E0
3.914480970E1,3.820500076E-1,1.147950053E0,1.026300049E1
3.916480970E1,4.999500215E-1,8.710500598E-1,1.055700016E1
3.918480970E1,4.369500279E-1,7.339500189E-1,9.202950478E0
3.920480970E1,2.340000123E-1,1.323000073E0,7.417950153E0
3.922480970E1,4.609500170E-1,1.561950088E0,6.286050320E0
3.924480970E1,7.009500265E-1,1.758000135E0,5.305050373E0
3.926480970E1,5.950500369E-1,1.939950109E0,5.911950111E0
3.928480970E1,7.390500307E-1,2.107950211E0,7.336050510E0
3.930480970E1,1.179000020E0,2.518950224E0,9.688050270E0
3.932480970E1,1.876050115E0,2.826000214E0,1.210800076E1
3.934480970E1,2.077050209E0,2.860950232E0,1.331805038E1
3.936480970E1,9.640500546E-1,4.012050152E0,1.272000027E1
3.938480970E1,-4.279500246E-1,6.061050415E0,1.085400009E1
3.940480970E1,1.363050103E0,5.995950222E0,9.210000038E0
3.942480970E1,3.189000130E0,4.666050434E0,1.072200012E1
3.944480970E1,4.069950104E0,1.921050072E0,1.471305084E1
3.946480970E1,4.381050110E0,6.720000505E-1,1.635000038E1
3.948480970E1,2.887950182E0,1.573950052E0,1.526400089E1
3.950480970E1,2.931000233E0,1.462050080E0,1.273905087E1
3.952480970E1,3.247050047E0,1.134000063E0,1.090200043E1
3.954480970E1,3.441000223E0,1.110000014E0,8.971050262E0
3.956480970E1,3.709050179E0,6.910500526E-1,7.351050377E0
3.958480970E1,3.840000153E0,5.550000072E-1,6.219000340E0
3.960480970E1,3.639000177E0,8.080500364E-1,5.317050457E0
3.962480970E1,3.322950125E0,9.520500302E-1,5.364000320E0
3.964480970E1,2.787000179E0,1.074000001E0,5.470050335E0
3.966480970E1,2.089050055E0,1.270050049E0,5.836050510E0
3.968480970E1,1.726950049E0,1.416000009E0,6.409950256E0
3.970480970E1,1.780050039E0,1.533000112E0,7.003950119E0
3.972480970E1,1.806000113E0,1.497000098E0,7.345950127E0
3.974480970E1,1.866000056E0,1.363050103E0,6.892950535E0
3.976480970E1,1.567050099E0,1.591050029E0,5.962950230E0
3.978480970E1,1.054949999E0,1.935000062E0,4.930950165E0
3.980480970E1,1.021050096E0,2.335050106E0,4.273050308E0
3.982480970E1,1.918950081E0,2.440050125E0,4.330950260E0
3.984480970E1,2.548050165E0,1.861050129E0,4.678050041E0
3.986480970E1,1.387050033E0,1.830000043E0,5.383950233E0
3.988480970E1,2.290500104E-1,2.254050016E0,7.072950363E0
3.990480970E1,6.910500526E-1,2.233950138E0,1.016505051E1
3.992480970E1,2.815950155E0,1.432950020E0,1.354800034E1
3.994480970E1,4.479000092E0,6.859500408E-1,1.531905079E1
3.996480970E1,3.457050085E0,1.002000093E0,1.374195099E1
3.998480970E1,1.243950009E0,2.332950115E0,1.134195042E1
4.000480970E1,3.349500299E-1,3.457050085E0,1.009305000E1
4.002480970E1,2.055000067E0,3.376050234E0,1.204800034E1
4.004480970E1,4.093950272E0,1.627050042E0,1.585305119E1
4.006480970E1,5.295000076E0,-3.460500240E-1,1.905195045E1
4.008480970E1,3.613050222E0,4.090500176E-1,1.804905128E1
4.010480970E1,2.446950197E0,9.810000658E-1,1.592895031E1
4.012480970E1,2.529000044E0,1.348950028E0,1.255305099E1
4.014480970E1,2.703000069E0,1.672050118E0,9.277050018E0
4.016480970E1,2.473950148E0,1.633950114E0,7.027050495E0
4.018480970E1,2.035950184E0,1.447050095E0,5.737950325E0
4.020480970E1,1.324950099E0,1.227000117E0,5.355000019E0
4.022480970E1,6.430500150E-1,8.779500127E-1,6.274050236E0
4.024480970E1,1.720500141E-1,5.260500312E-1,7.489050388E0
4.026480970E1,7.050000131E-3,2.650500238E-1,8.659049988E0
4.028480970E1,5.260500312E-1,9.000000544E-3,9.121050835E0
4.030480970E1,8.610000610E-1,-3.010500073E-1,8.809950829E0
4.032480970E1,6.430500150E-1,-1.000500023E-1,7.729050159E0
4.034480970E1,3.850500286E-1,-4.050000105E-3,6.891000271E0
4.036480970E1,3.750000298E-1,2.269500047E-1,6.190050125E0
4.038480970E1,6.289500594E-1,7.050000429E-1,6.049050331E0
4.040480970E1,6.700500250E-1,1.004999995E0,5.697000504E0
4.042480970E1,5.760000348E-1,1.423050046E0,6.622950077E0
4.044480970E1,1.960500032E-1,1.642950058E0,7.635000229E0
4.046480970E1,-3.390000165E-1,1.902000070E0,8.310000420E0
4.048480970E1,-4.609500170E-1,2.554950237E0,9.862950325E0
4.050480970E1,4.399500191E-1,2.368050098E0,1.183995056E1
4.052480970E1,1.605000019E0,1.629000068E0,1.334700108E1
4.054480970E1,1.612050056E0,1.533000112E0,1.337805080E1
4.056480970E1,8.250000477E-1,2.074050188E0,1.274700069E1
4.058480970E1,3.079500198E-1,2.182049990E0,1.211505032E1
4.060480970E1,-1.980000138E-1,1.708050132E0,1.216500092E1
4.062480970E1,1.140000075E-1,8.230500221E-1,1.359105110E1
4.064480970E1,1.339950085E0,-4.900500178E-1,1.581195068E1
4.066480970E1,1.722000122E0,-8.779500127E-1,1.653195000E1
4.068480970E1,1.159950018E0,-3.030000031E-1,1.557705116E1
4.070480970E1,1.288950086E0,2.790000141E-1,1.379700089E1
4.072480970E1,2.479050159E0,2.050500065E-1,1.195395088E1
4.074480970E1,3.115050077E0,5.205000192E-2,9.889050484E0
4.076480970E1,2.598000050E0,5.119500160E-1,7.669050217E0
4.078480970E1,1.773000121E0,8.370000124E-1,5.938950062E0
4.080480970E1,1.063950062E0,1.392000079E0,5.439000130E0
4.082480970E1,1.222050071E0,1.794000030E0,6.118050098E0
4.084480970E1,2.641050100E0,1.585950017E0,7.614000320E0
4.086480970E1,3.144000053E0,1.663050056E0,7.864950180E0
4.088480970E1,2.281949997E0,2.078999996E0,7.626000404E0
4.090480970E1,1.867950082E0,1.983000040E0,6.328950405E0
4.092480970E1,1.441950083E0,2.268000126E0,5.551050186E0
4.094480970E1,1.099950075E0,2.488050222E0,4.498050213E0
4.096480970E1,9.660000205E-1,2.601000071E0,3.832950115E0
4.098480970E1,1.126950026E0,2.560050011E0,3.619950056E0
4.100480970E1,2.007000208E0,2.361000061E0,3.606000185E0
4.102480970E1,1.825050116E0,2.926050186E0,4.168050289E0
4.104480970E1,9.450000525E-1,3.687000275E0,4.456950188E0
4.106480970E1,9.259500504E-1,3.984000206E0,5.230050087E0
4.108480970E1,2.143949986E0,3.342000246E0,8.427000046E0
4.110480970E1,3.649050236E0,2.620050192E0,1.203105068E1
4.112480970E1,4.857000351E0,1.428000093E0,1.503195095E1
4.114480970E1,4.150950432E0,1.057050109E0,1.510800076E1
4.116480970E1,3.003000259E0,1.387050033E0,1.410105038E1
4.118480970E1,1.831950068E0,2.227050066E0,1.250700092E1
4.120480970E1,1.450050116E0,2.269950151E0,1.157400036E1
4.122480970E1,1.963950038E0,2.290050030E0,1.224900055E1
4.124480970E1,2.668050051E0,1.513950109E0,1.293600082E1
4.126480970E1,2.218050003E0,1.402050018E0,1.259100056E1
4.128480970E1,1.162050009E0,2.055000067E0,1.174395084E1
4.130480970E1,1.012050033E0,2.446950197E0,1.032495022E1
4.132480970E1,1.249050021E0,2.521950006E0,9.219000816E0
4.134480970E1,1.488000035E0,2.400000095E0,8.439000130E0
4.136480970E1,1.504950047E0,1.986000061E0,8.817000389E0
4.138480970E1,1.383000016E0,1.597950101E0,9.231000900E0
4.140480970E1,9.210000634E-1,1.110000014E0,9.733950615E0
4.142480970E1,5.670000315E-1,1.123950005E0,9.793950081E0
4.144480970E1,2.989500165E-1,1.306050062E0,9.636000633E0
4.146480970E1,1.450500041E-1,1.630950093E0,9.337050438E0
4.148480970E1,1.960500032E-1,1.792050123E0,9.250050545E0
4.150480970E1,8.299500346E-1,1.663050056E0,9.065999985E0
4.152480970E1,1.240950108E0,1.690950036E0,8.536950111E0
4.154480970E1,1.404000044E0,1.794000030E0,8.320050240E0
4.156480970E1,1.761000037E0,1.548000097E0,8.506050110E0
4.158480970E1,1.537950039E0,1.495050073E0,8.647050858E0
4.160480970E1,9.139500260E-1,1.627050042E0,8.796000481E0
4.162480970E1,3.460500240E-1,1.761000037E0,8.833950043E0
4.164480970E1,3.010500073E-1,1.617000103E0,8.764950752E0
4.166480970E1,4.729500115E-1,1.456950068E0,8.209950447E0
4.168480970E1,3.990000188E-1,1.792050123E0,7.446000576E0
4.170480970E1,4.900500178E-1,2.164950132E0,6.574950218E0
4.172480970E1,2.460000068E-1,2.746950150E0,6.475050449E0
4.174480970E1,1.339500099E-1,3.073950052E0,7.396050453E0
4.176480970E1,3.799500167E-1,3.043050051E0,9.504000664E0
4.178480970E1,1.239000082E0,2.916000128E0,1.202400017E1
4.180480970E1,1.792050123E0,2.749050140E0,1.399605083E1
4.182480970E1,1.468950033E0,3.271050215E0,1.328505039E1
4.184480970E1,1.287000060E0,4.209000111E0,1.201200104E1
4.186480970E1,1.642950058E0,5.049000263E0,1.158105087E1
4.188480970E1,3.088950157E0,4.019999981E0,1.150200081E1
4.190480970E1,4.245000362E0,2.659950018E0,1.308405018E1
4.192480970E1,5.920050144E0,1.033050060E0,1.444095039E1
4.194480970E1,5.026950359E0,9.109500647E-1,1.383795071E1
4.196480970E1,3.277950048E0,1.746000051E0,1.234005070E1
4.198480970E1,2.761050224E0,2.062050104E0,9.940050125E0
4.200480970E1,2.799000025E0,2.199000120E0,7.674000263E0
4.202480970E1,2.506950140E0,2.485950232E0,5.746950150E0
4.204480970E1,2.337000132E0,2.758950233E0,4.611000061E0
4.206480970E1,2.124000072E0,2.529000044E0,4.858950138E0
4.208480970E1,2.128950119E0,2.337000132E0,5.742000103E0
4.210480970E1,2.182049990E0,2.110050201E0,7.011000156E0
4.212480970E1,1.918950081E0,2.232000113E0,7.702050209E0
4.214480970E1,1.951950073E0,2.175000191E0,8.311950684E0
4.216480970E1,2.263050079E0,1.858950138E0,8.968050003E0
4.218480970E1,2.680050135E0,1.111950040E0,9.057000160E0
4.220480970E1,2.782050133E0,9.469500184E-1,7.798050404E0
4.222480970E1,2.964000225E0,1.356000066E0,6.208950520E0
4.224480970E1,3.369000196E0,1.717950106E0,5.326050282E0
4.226480970E1,3.316050053E0,2.164950132E0,4.993050098E0
4.228480970E1,2.707950115E0,3.016950130E0,5.422050476E0
4.230480970E1,2.032950163E0,3.474000216E0,5.989050388E0
4.232480970E1,1.722000122E0,3.790050268E0,6.465000153E0
4.234480970E1,1.842000127E0,3.874050140E0,6.883950233E0
4.236480970E1,2.194050074E0,3.349950075E0,8.072999954E0
4.238480970E1,2.140950203E0,3.211050034E0,9.298050880E0
4.240480970E1,2.220000029E0,2.848950148E0,1.036605072E1
4.242480970E1,2.325000048E0,2.641050100E0,1.137495041E1
4.244480970E1,1.902000070E0,2.833050251E0,1.148505020E1
4.246480970E1,1.267950058E0,3.145950079E0,1.097595024E1
4.248480970E1,-7.800000161E-2,4.198950291E0,9.978000641E0
4.250480970E1,-2.939999998E-1,4.905000210E0,9.801000595E0
4.252480970E1,2.164950132E0,4.063050270E0,1.242300034E1
4.254480970E1,4.246950150E0,2.100000143E0,1.513005066E1
4.256480970E1,5.005050182E0,9.810000658E-1,1.523505116E1
4.258480970E1,3.622050285E0,1.608000040E0,1.407495022E1
4.260480970E1,3.655950069E0,1.878000140E0,1.196595097E1
4.262480970E1,4.114950180E0,2.059950113E0,9.258000374E0
