"Time (s)","Acceleration x (m/s^2)","Acceleration y (m/s^2)","Acceleration z (m/s^2)"
2.842261400E-2,-2.567498684E0,4.415954113E0,9.670592308E0
4.797350000E-2,-2.667997360E0,4.609772682E0,1.022453117E1
6.752433300E-2,-2.697907448E0,4.027120590E0,1.055354404E1
8.707516700E-2,-2.912065268E0,3.793820381E0,1.179183006E1
1.066260000E-1,-3.328416348E0,3.158525944E0,1.084905815E1
1.261768850E-1,-2.147558212E0,3.038884640E0,1.139103222E1
1.457277190E-1,-2.075773716E0,3.239881754E0,1.067797089E1
1.652785520E-1,-1.221535921E0,2.372483730E0,9.726823807E0
1.848293850E-1,-2.787638307E-1,1.865205288E0,9.119047165E0
2.043802710E-1,6.580262184E-1,1.688136339E0,8.518448830E0
2.239311040E-1,8.781659007E-1,1.567298889E0,7.860422611E0
2.434819370E-1,4.965106845E-1,1.762313843E0,7.397411346E0
2.630327710E-1,-3.708875179E-1,2.455035925E0,8.080561638E0
2.825836040E-1,-8.159525394E-1,2.994617462E0,8.172685623E0
3.021344890E-1,-5.060819983E-1,2.912065268E0,7.735995770E0
3.216853230E-1,3.672982752E-1,2.519642353E0,7.069594383E0
3.412361560E-1,1.312463164E0,1.880758643E0,7.127022266E0
3.607869890E-1,1.941775560E0,8.602197170E-1,9.979267120E0
3.803378230E-1,1.741974831E0,1.318445325E0,1.040040398E1
3.998887080E-1,4.845465720E-1,2.178664923E0,1.086580753E1
4.194395420E-1,-1.202393413E0,2.858226538E0,1.044945621E1
4.389903750E-1,-1.087537885E0,3.509074450E0,9.403793335E0
4.585412080E-1,2.644068897E-1,3.287738323E0,8.717052460E0
4.780920420E-1,1.429711580E0,2.965903759E0,7.976474285E0
4.976428750E-1,1.454836130E0,2.904886723E0,8.079365730E0
5.171937080E-1,8.482556343E-1,3.061616659E0,9.049654961E0
5.367445420E-1,-7.298108935E-2,3.024527788E0,9.389435768E0
5.562953750E-1,-9.643075466E-1,2.751745939E0,9.212367058E0
5.758462080E-1,-9.044869542E-1,2.431107759E0,9.340383530E0
5.953970420E-1,-2.416750938E-1,2.226521492E0,8.902496338E0
6.149478750E-1,2.380858511E-1,2.172683001E0,8.195417404E0
6.344987080E-1,9.690931439E-2,1.867598057E0,7.922635555E0
6.540495940E-1,-2.632105052E-1,1.789831281E0,8.414361000E0
6.736004270E-1,-1.830509305E-1,2.008774519E0,8.072187424E0
6.931512080E-1,-1.172483116E-1,2.081755638E0,6.890132904E0
7.127020420E-1,-2.991028316E-2,1.902294040E0,5.783452511E0
7.322528750E-1,1.746760458E-1,1.641476393E0,5.547759533E0
7.518037080E-1,3.924229145E-1,1.588834286E0,5.603990555E0
7.713545420E-1,2.009970993E-1,1.180858016E0,5.891129494E0
7.909053750E-1,3.960121572E-1,1.739582062E0,5.191228867E0
8.104562080E-1,-2.512463741E-2,1.989632010E0,6.636493683E0
8.300070420E-1,-1.782652885E-1,1.712064624E0,9.300901413E0
8.495578750E-1,-8.135596663E-2,2.750549555E0,1.065882874E1
8.691087080E-1,-1.250249863E0,5.626722336E0,1.273938751E1
8.886595420E-1,-2.641676188E0,7.289734364E0,1.510947895E1
9.082103750E-1,-3.102294445E0,6.527620316E0,1.282074356E1
9.277612080E-1,-2.051845312E0,3.733999729E0,1.172124195E1
9.473120420E-1,-2.086541414E0,3.239881754E0,1.411167145E1
9.668628750E-1,-3.664607763E0,3.745963812E0,1.537747478E1
9.864137080E-1,-3.343969584E0,3.324826956E0,1.420140266E1
1.005964542E0,-2.821137905E0,3.032902718E0,1.150588799E1
1.025515323E0,-2.727817774E0,2.652443886E0,9.605986595E0
1.045066156E0,-2.754138947E0,1.977667928E0,9.914660454E0
1.064616989E0,-1.842473388E0,1.502692580E0,1.014556789E1
1.084167823E0,-1.124626637E0,1.730010748E0,8.729017258E0
1.103718656E0,-1.335195065E0,2.151147604E0,6.492924213E0
1.123269489E0,-1.710868239E0,2.559123755E0,4.924428940E0
1.142820271E0,-1.712064624E0,2.977867842E0,4.624129772E0
1.162371104E0,-1.619940877E0,2.790031195E0,5.412564754E0
1.181921937E0,-1.253839016E0,2.182254314E0,5.535795212E0
1.201472771E0,-9.212366939E-1,2.292324066E0,4.928018093E0
1.221023604E0,-1.253839016E0,2.597409010E0,5.314459324E0
1.240574385E0,-1.708475351E0,2.175075769E0,7.232306480E0
1.260125219E0,-1.545763373E0,1.422533035E0,8.386843681E0
1.279676052E0,-1.580459356E0,1.150947690E0,7.728816986E0
1.299226833E0,-2.018345833E0,1.773081541E0,8.665607452E0
1.318777667E0,-2.120040894E0,3.895515203E0,1.223928738E1
1.338328500E0,-1.756331801E0,6.021538258E0,1.292483139E1
1.357879333E0,-1.496710539E0,5.796612740E0,1.230269718E1
1.377430114E0,-7.609176040E-1,4.455435753E0,1.165902805E1
1.396980948E0,2.536391914E-1,3.561716557E0,1.303131199E1
1.416531781E0,1.135394335E0,2.688336134E0,1.459621811E1
1.436082614E0,-3.661018610E-1,3.619144201E0,1.241874981E1
1.455633396E0,-1.610369682E0,4.570291042E0,1.108714390E1
1.475184229E0,-2.017149448E0,4.134797573E0,1.022333431E1
1.494735062E0,-1.935793519E0,3.083152056E0,9.857233047E0
1.514285844E0,-1.061216831E0,1.799402595E0,9.489934921E0
1.533836677E0,-7.417750359E-2,9.164510965E-1,9.326025963E0
1.553387510E0,6.233302951E-1,1.000199914E0,8.260024071E0
1.572938292E0,1.519442350E-1,1.397408366E0,7.356733322E0
1.592489125E0,-5.575276613E-1,1.777867198E0,6.094519138E0
1.612039958E0,-9.906286001E-1,1.898704767E0,5.346762180E0
1.631590739E0,-1.387837172E0,2.175075769E0,5.633901119E0
1.651141573E0,-1.410568953E0,2.325823545E0,5.665007591E0
1.670692354E0,-1.160518974E-1,2.404786825E0,5.621936798E0
1.690243187E0,3.409772217E-1,1.579262972E0,6.299105644E0
1.709794021E0,5.024927482E-2,1.351944804E0,6.783652306E0
1.729344802E0,-7.202396393E-1,1.463211060E0,7.838887215E0
1.748895635E0,-1.106680512E0,2.697907448E0,8.069794655E0
1.768446417E0,-4.151547253E-1,3.262613773E0,7.154539585E0
1.787997250E0,8.374879137E-3,2.792423964E0,7.901100159E0
1.807548083E0,-2.739782035E-1,3.324826956E0,9.407382011E0
1.827098864E0,-2.117647976E-1,4.354937077E0,1.186840057E1
1.846649698E0,-6.699903607E-1,4.354937077E0,1.291526031E1
1.866200479E0,-1.434497118E0,3.426522017E0,1.411645699E1
1.885751312E0,-1.751546144E0,2.372483730E0,1.644706726E1
1.905302094E0,-1.575673699E0,2.277967215E0,1.704168320E1
1.924852927E0,-2.047059774E0,2.585444927E0,1.522911930E1
1.944403708E0,-2.148754835E0,3.324826956E0,1.315932846E1
1.963954542E0,-2.280359983E0,3.515056372E0,1.113141060E1
1.983505323E0,-1.771885157E0,3.554538012E0,9.655039787E0
2.003056156E0,-1.637887120E0,2.934797049E0,9.152546883E0
2.022606937E0,-1.354337573E0,2.440679073E0,9.141778946E0
2.042157771E0,-1.075573802E0,2.585444927E0,8.274380684E0
2.061708552E0,-1.162911773E0,2.656033039E0,7.192824841E0
2.081259385E0,-1.195214868E0,2.784049034E0,6.418746948E0
2.100810167E0,-1.128215909E0,2.855833769E0,5.864808083E0
2.120361000E0,-1.100698471E0,2.658426046E0,5.505885124E0
2.139911781E0,-8.817551732E-1,2.316252232E0,4.919643402E0
2.159462614E0,-5.898307562E-1,2.222932339E0,4.712664127E0
2.179013396E0,-5.024927258E-1,2.159522533E0,5.319244862E0
2.198564229E0,-7.704889178E-1,2.231307030E0,6.205785751E0
2.218115010E0,-6.699903607E-1,2.201396942E0,6.757331371E0
2.237665844E0,-2.536391914E-1,2.109273195E0,6.826723099E0
2.257216625E0,-4.103690982E-1,2.492124796E0,6.847062111E0
2.276767406E0,-8.566305041E-1,3.097508907E0,7.339983463E0
2.296318239E0,-9.320043921E-1,3.221935749E0,8.676374435E0
2.315869021E0,-4.007977843E-1,3.531806231E0,9.857233047E0
2.335419854E0,2.656033039E-1,4.537988186E0,1.118644619E1
2.354970635E0,3.924229145E-1,4.828716278E0,1.227637672E1
2.374521469E0,-8.662018180E-1,5.081159115E0,1.293440247E1
2.394072250E0,-1.143769264E0,5.777470112E0,1.302174091E1
2.413623031E0,-8.219345808E-1,5.030909538E0,1.364626789E1
2.433173864E0,-1.586441398E0,4.009174347E0,1.596251965E1
2.452724646E0,-3.960121572E-1,3.163311481E0,1.644347763E1
2.472275427E0,8.458628058E-1,1.898704767E0,1.432104397E1
2.491826260E0,8.279166222E-1,1.403390527E0,1.191147137E1
2.511377042E0,-1.950150430E-1,1.751546144E0,1.068993473E1
2.530927875E0,-1.467996716E0,2.017149448E0,1.005224800E1
2.550478656E0,-2.207378864E0,1.886740685E0,9.151350021E0
2.570029437E0,-1.703689694E0,1.539781332E0,7.721638680E0
2.589580219E0,-9.439685345E-1,1.416550994E0,6.716653347E0
2.609131052E0,-8.721838593E-1,1.366301775E0,5.971288681E0
2.628681833E0,-8.961120844E-1,1.161715388E0,5.732006550E0
2.648232667E0,-8.075776696E-1,1.211964726E0,5.789434433E0
2.667783448E0,-4.402793646E-1,1.430907965E0,5.460421085E0
2.687334229E0,3.349951804E-1,1.670190215E0,5.455635548E0
2.706885010E0,6.173482537E-1,1.800599098E0,6.045466423E0
2.726435844E0,3.661018610E-1,2.086541414E0,7.234699249E0
2.745986625E0,1.663011760E-1,2.336591244E0,7.752745152E0
2.765537406E0,4.390829504E-1,2.127219439E0,7.765905857E0
2.785088239E0,9.391828775E-1,2.135594130E0,7.738388538E0
2.804639021E0,1.211964726E0,3.219542980E0,8.356932640E0
2.824189802E0,4.713860750E-1,4.187439442E0,1.035852909E1
2.843740583E0,-3.732803464E-1,4.039084435E0,1.208614731E1
2.863291417E0,-6.245267391E-1,4.331008911E0,1.226800156E1
2.882842198E0,-1.088734269E0,5.065605640E0,1.134676456E1
2.902392979E0,-9.870393276E-1,5.456831932E0,1.072941685E1
2.921943760E0,-9.080761671E-1,5.236692429E0,1.182532978E1
2.941494594E0,-3.110669553E-1,4.338187218E0,1.300499153E1
2.961045375E0,-2.129612118E-1,3.438486099E0,1.332921886E1
2.980596156E0,-6.795616150E-1,2.980260611E0,1.235892868E1
3.000146937E0,-9.439685345E-1,2.721835852E0,1.060857964E1
3.019697719E0,-1.288534999E0,2.511267424E0,9.224330902E0
3.039248552E0,-1.215553880E0,2.598605394E0,8.488538742E0
3.058799333E0,-1.591227055E-1,2.556730986E0,8.420342445E0
3.078350114E0,2.309073806E-1,2.536391973E0,7.822137356E0
3.097900896E0,-2.536391914E-1,2.455035925E0,6.602993965E0
3.117451677E0,-5.324030519E-1,2.130808592E0,5.977271080E0
3.137002510E0,-4.666004181E-1,2.037488461E0,6.246463299E0
3.156553292E0,-3.948157281E-2,1.890329838E0,6.570691109E0
3.176104073E0,1.782652885E-1,1.770688772E0,6.756134510E0
3.195654854E0,-3.505485058E-1,1.883151412E0,6.605386734E0
3.215205635E0,-7.094719410E-1,2.392822742E0,6.372086525E0
3.234756417E0,-3.254238665E-1,2.560320139E0,6.870990276E0
3.254307250E0,1.280160099E-1,2.225325108E0,7.494320393E0
3.273858031E0,-1.088734269E-1,2.268395901E0,7.679764271E0
3.293408812E0,-7.202396393E-1,2.304288149E0,8.245666504E0
3.312959594E0,-1.054038405E0,2.644068956E0,9.702896118E0
3.332510375E0,-7.154539824E-1,3.820141315E0,1.054875851E1
3.352061156E0,-5.790630579E-1,5.143372059E0,1.069830990E1
3.371611937E0,-1.032503009E0,5.491528034E0,1.106919765E1
3.391162719E0,-1.122233868E0,4.613361835E0,1.334118271E1
3.410713552E0,3.948157281E-2,4.041477680E0,1.484746456E1
3.430264333E0,1.020538807E0,2.410768747E0,1.487976742E1
3.449815114E0,1.013360381E0,2.275574446E0,1.505444336E1
3.469365896E0,1.347159147E0,2.732603550E0,1.477687645E1
3.488916677E0,8.853443861E-1,3.451646566E0,1.300738430E1
3.508467458E0,-2.033899277E-1,3.879961967E0,1.019820976E1
3.528018239E0,-8.793623447E-1,3.583251953E0,8.605786324E0
3.547569021E0,-1.154536963E0,3.393022537E0,8.389236450E0
3.567119802E0,-1.070788145E0,3.208775282E0,8.250452042E0
3.586670583E0,-7.214360237E-1,2.940778971E0,8.206185341E0
3.606221364E0,-2.859423161E-1,2.572284460E0,7.990831375E0
3.625772198E0,-2.093719840E-1,2.197807550E0,7.804191113E0
3.645322979E0,-4.055834413E-1,1.972882271E0,7.775477409E0
3.664873760E0,-5.228317380E-1,1.654636860E0,7.698906898E0
3.684424542E0,-2.189432681E-1,1.484746456E0,7.241877556E0
3.703975323E0,1.794617064E-2,1.526620865E0,6.699903488E0
3.723526104E0,6.340979785E-2,1.722832322E0,6.087340832E0
3.743076885E0,-5.012963414E-1,1.878365755E0,5.505885124E0
3.762627667E0,-5.491527915E-1,1.738385677E0,5.520241737E0
3.782178448E0,-1.770688742E-1,1.914258122E0,5.516652584E0
3.801729229E0,7.597211599E-1,2.647658348E0,5.708078384E0
3.821280010E0,9.260223508E-1,3.389433384E0,7.328019142E0
3.840830792E0,-5.276173949E-1,3.576073408E0,9.814162254E0
3.860381573E0,-2.141576260E-1,3.518645763E0,1.093400288E1
3.879932354E0,6.640082598E-1,4.567898273E0,1.234217930E1
3.899483135E0,-7.345965505E-1,5.977271080E0,1.490489197E1
3.919033917E0,-1.884347796E0,6.270391941E0,1.595414543E1
3.938584698E0,-6.675975323E-1,5.475974560E0,1.398245907E1
3.958135479E0,7.070791125E-1,4.108476639E0,1.201196957E1
3.977686260E0,5.539384484E-1,3.667000771E0,1.052722359E1
3.997237042E0,1.555334684E-2,3.052045345E0,9.534201622E0
4.016787823E0,-5.132604837E-1,2.675175667E0,9.428917885E0
4.036338604E0,-1.213161111E0,2.736192703E0,9.759127617E0
4.055889385E0,-1.103091240E0,2.623729944E0,9.933803558E0
4.075440167E0,-1.137787223E0,2.647658348E0,9.523433685E0
4.094990948E0,-1.107876897E0,2.562713146E0,8.636893272E0
4.114541729E0,-9.678967595E-1,2.196611166E0,7.890332699E0
4.134092510E0,-6.448656917E-1,1.781456470E0,7.006184578E0
4.153643292E0,-3.421736360E-1,1.740778446E0,6.589833736E0
4.173194021E0,-2.584248483E-1,1.889133453E0,6.290730953E0
4.192744802E0,-4.235295951E-1,2.189432621E0,6.104090691E0
4.212295583E0,-7.417750359E-2,2.163111687E0,6.113661766E0
4.231846364E0,-2.931207716E-1,1.891526341E0,6.648457527E0
4.251397146E0,-1.109073281E0,1.612762451E0,7.383054256E0
4.270947927E0,-1.171286702E0,1.436890006E0,7.231110096E0
4.290498708E0,-6.173482537E-1,2.128415823E0,6.017949104E0
4.310049489E0,2.153540403E-2,2.920439959E0,5.637490273E0
4.329600271E0,-3.230310678E-1,2.535195589E0,7.473981380E0
4.349151052E0,-7.980063558E-1,2.050648928E0,9.489934921E0
4.368701833E0,-1.651047617E-1,3.507878065E0,1.007856941E1
4.388252562E0,1.825723648E0,5.394618511E0,9.682557106E0
4.407803344E0,2.871387079E-2,4.065405846E0,1.195454216E1
4.427354125E0,-4.749752879E-1,1.956132531E0,1.560120392E1
4.446904906E0,-2.715853751E-1,1.231107235E0,1.784926033E1
4.466455687E0,-5.180460811E-1,1.735992789E0,1.790429497E1
4.486006469E0,-8.865407705E-1,1.861616015E0,1.607258987E1
4.505557250E0,-1.003789067E0,1.700100541E0,1.432582951E1
4.525108031E0,-2.991028316E-2,1.572084427E0,1.211605740E1
4.544658760E0,6.783652306E-1,1.858026743E0,9.529416084E0
4.564209542E0,4.869394004E-1,2.330609322E0,7.375875950E0
4.583760323E0,5.264209956E-2,2.654836655E0,6.388836384E0
4.603311104E0,-2.524427772E-1,2.758924484E0,6.306283951E0
4.622861885E0,-5.072783828E-1,2.471785784E0,6.942774773E0
4.642412667E0,-3.852444589E-1,2.060220242E0,7.211967468E0
4.661963448E0,-2.679961324E-1,1.978864312E0,6.949953556E0
4.681514177E0,-1.256231815E-1,1.852044702E0,6.634100914E0
4.701064958E0,8.733802289E-2,1.494317770E0,6.593422890E0
4.720615739E0,2.440679073E-1,1.280160069E0,6.736992359E0
4.740166521E0,5.850451589E-1,1.686939955E0,6.296712875E0
4.759717302E0,9.020941257E-1,2.238485575E0,5.942574978E0
4.779268031E0,1.356730461E0,2.084148407E0,6.762116909E0
4.798818812E0,8.374879360E-1,1.667797327E0,8.221738815E0
4.818369594E0,1.195214868E0,2.111665964E0,8.274380684E0
4.837920375E0,2.069791555E0,2.603390932E0,6.965506554E0
4.857471156E0,2.179861546E0,2.666800737E0,7.045666218E0
4.877021937E0,9.272187948E-1,3.267399311E0,1.006899738E1
4.896572667E0,5.778666735E-1,4.332205296E0,1.236371422E1
4.916123448E0,6.628118753E-1,5.381458282E0,1.277886963E1
4.935674229E0,-5.814558864E-1,5.056034088E0,1.267358494E1
4.955225010E0,-1.113858938E0,4.246063709E0,1.318445301E1
4.974775739E0,-1.621137381E0,3.322434187E0,1.466561031E1
4.994326521E0,-1.262213945E0,1.945364833E0,1.494078445E1
5.013877302E0,-7.046862841E-1,1.671386600E0,1.383530045E1
5.033428083E0,-5.455635786E-1,2.184647083E0,1.261615753E1
5.052978812E0,-1.098305583E0,2.551945448E0,1.157647610E1
5.072529594E0,-1.534995675E0,2.644068956E0,1.074257755E1
5.092080375E0,-1.549352646E0,2.724228621E0,9.597611427E0
5.111631156E0,-1.505085468E0,2.505285263E0,8.413164139E0
5.131181885E0,-1.521835208E0,1.958525300E0,7.968099594E0
5.150732667E0,-1.436890006E0,1.762313843E0,7.802994728E0
5.170283448E0,-1.044467092E0,1.995614052E0,7.434499741E0
5.189834229E0,-1.311266780E0,2.382055044E0,6.701099873E0
5.209384958E0,-1.609173179E0,2.662015200E0,5.370690346E0
5.228935739E0,-9.834501147E-1,2.721835852E0,3.986442566E0
5.248486521E0,8.374879509E-2,2.557927370E0,3.946960926E0
5.268037302E0,7.537391037E-2,2.516052961E0,5.620740414E0
5.287588031E0,-6.376872063E-1,2.684746981E0,7.086344242E0
5.307138812E0,-1.386640668E0,2.846262455E0,7.057630539E0
5.326689594E0,-1.697707653E0,2.535195589E0,6.686742783E0
5.346240323E0,-2.054238319E0,2.142772675E0,7.439285755E0
5.365791104E0,-2.474178553E0,2.644068956E0,9.134600639E0
5.385341885E0,-2.793620348E0,3.461217880E0,1.119482040E1
5.404892614E0,-2.333002090E0,3.718446493E0,1.220459175E1
5.424443396E0,-1.372283816E0,4.220939159E0,1.295713425E1
5.443994177E0,-6.364908218E-1,4.559523582E0,1.292602825E1
5.463544906E0,7.896314561E-2,3.818944931E0,1.255274773E1
5.483095687E0,6.460621208E-2,3.802195072E0,1.375753403E1
5.502646469E0,8.255238086E-2,4.424329281E0,1.420738411E1
5.522197250E0,1.012163997E0,4.204189301E0,1.249292660E1
5.541747979E0,1.842473388E0,3.598805189E0,1.044227791E1
5.561298760E0,1.858026743E0,3.034099102E0,9.760323524E0
5.580849542E0,1.398604870E0,2.712264538E0,1.006660461E1
5.600400271E0,1.025324464E0,2.796013355E0,1.001156998E1
5.619951052E0,7.920243144E-1,3.014956474E0,8.851051331E0
5.639501833E0,9.284151793E-1,2.807977438E0,7.463213921E0
5.659052562E0,8.494520187E-1,2.190629244E0,7.080362320E0
5.678603344E0,1.509871125E0,1.726421595E0,7.887939930E0
5.698154073E0,1.217946768E0,1.555334687E0,8.505288124E0
5.717704854E0,8.626125455E-1,1.843669891E0,7.786244869E0
5.737255635E0,3.024527788E0,6.245267391E-1,6.490531445E0
5.756806364E0,2.958725214E0,1.774278045E0,6.669992924E0
5.776357146E0,2.569891453E0,2.031506538E0,7.703692436E0
5.795907927E0,1.816152334E0,1.832902193E0,8.084151268E0
5.815458656E0,8.913264275E-1,2.005185366E0,7.957331657E0
5.835009437E0,6.508477330E-1,2.717050076E0,7.855636597E0
5.854560167E0,9.834501147E-1,3.030509949E0,7.710870743E0
5.874110948E0,1.320838094E0,2.472982168E0,8.248059273E0
5.893661729E0,1.353141189E0,2.136790514E0,9.257830620E0
5.913212458E0,3.373879790E-1,2.516052961E0,1.009172916E1
5.932763239E0,-2.494517565E0,4.082155228E0,1.073779202E1
5.952314021E0,-2.033899307E0,4.833501816E0,1.061575794E1
5.971864750E0,-1.908276081E0,4.553541660E0,1.064566803E1
5.991415531E0,-4.543970108E0,4.967499733E0,1.281835079E1
6.010966260E0,-4.893322468E0,4.502095699E0,1.520519161E1
6.030517042E0,-3.763910055E0,3.668197155E0,1.423490238E1
6.050067823E0,-2.922832966E0,2.890529871E0,1.123071289E1
6.069618552E0,-2.916850805E0,1.734796405E0,1.067079258E1
6.089169333E0,-2.717050076E0,1.428515077E0,1.162433243E1
6.108720062E0,-1.933400750E0,1.962114573E0,9.530612946E0
6.128270844E0,-2.277967215E0,2.026720762E0,7.433303356E0
6.147821573E0,-2.081755638E0,2.231307030E0,6.416353703E0
6.167372354E0,-2.081755638E0,2.386840582E0,5.443671703E0
6.186923135E0,-2.154736757E0,1.925025821E0,5.984449387E0
6.206473864E0,-2.182254314E0,1.966900229E0,7.138986588E0
6.226024646E0,-2.154736757E0,2.603390932E0,6.556334019E0
6.245575375E0,-1.846062660E0,2.581855536E0,5.641079426E0
6.265126156E0,-1.635494232E0,2.097309113E0,6.334998131E0
6.284676885E0,-1.596012712E0,2.067398787E0,8.160721779E0
6.304227667E0,-1.422533035E0,2.554338217E0,8.389236450E0
6.323778448E0,-1.332802176E0,2.749353170E0,7.010970116E0
6.343329177E0,-1.261017561E0,2.750549555E0,7.122236729E0
6.362879958E0,-1.731207132E0,3.031706333E0,9.183652878E0
6.382430687E0,-2.140379906E0,3.973282099E0,1.030827999E1
6.401981469E0,-1.235892892E0,5.286941528E0,1.052243805E1
6.421532198E0,3.649054468E-1,6.472585201E0,1.139103222E1
6.441082979E0,6.460621208E-2,5.918646812E0,1.289013577E1
6.460633708E0,-2.823530734E-1,5.123033047E0,1.342493153E1
6.480184489E0,-1.615155339E-1,5.253442287E0,1.314616776E1
6.499735219E0,-1.184447184E-1,4.972285271E0,1.310070419E1
6.519286000E0,-5.682953596E-1,4.553541660E0,1.365344620E1
6.538836781E0,-1.495514154E0,4.990231514E0,1.344646645E1
6.558387510E0,-1.509871125E0,4.529613495E0,1.189232826E1
6.577938292E0,-1.121037364E0,3.759124279E0,1.012044334E1
6.597489021E0,-9.032905698E-1,3.247060299E0,8.378468513E0
6.617039802E0,-8.003991842E-1,2.935993433E0,7.062416077E0
6.636590531E0,-1.205982566E0,2.756531715E0,6.906882763E0
6.656141312E0,-1.371087432E0,2.870190859E0,6.807580471E0
6.675692042E0,-9.020941257E-1,2.879761934E0,5.851647854E0
6.695242823E0,-6.580262184E-1,2.788834810E0,5.021338463E0
6.714793552E0,-1.758724600E-1,2.691925526E0,4.953142643E0
6.734344333E0,3.397808075E-1,2.461018085E0,5.327619553E0
6.753895062E0,1.112662554E0,1.805384636E0,5.743970871E0
6.773445844E0,8.937192559E-1,1.387837172E0,5.851647854E0
6.792996573E0,5.838487148E-1,2.403590441E0,6.403193474E0
6.812547354E0,-3.696911037E-1,3.292523861E0,7.104290485E0
6.832098083E0,-1.731207132E0,4.021138668E0,6.508477688E0
6.851648864E0,-3.349951804E-1,3.080759048E0,6.933203697E0
6.871199594E0,7.178468108E-1,2.115255117E0,6.699903488E0
6.890750375E0,1.307677627E0,2.199003935E0,7.153343201E0
6.910301104E0,2.512463629E-1,3.488735437E0,8.912068367E0
6.929851885E0,1.423729420E0,4.438685894E0,9.805787086E0
6.949402614E0,-3.840480447E-1,4.687539577E0,1.046022415E1
6.968953396E0,-9.320043921E-1,5.820540905E0,9.990034103E0
6.988504125E0,-9.355936646E-1,6.930810928E0,1.028674412E1
7.008054906E0,-1.111466169E0,6.792026997E0,1.235055447E1
7.027605635E0,-1.147358418E0,5.581258774E0,1.550070477E1
7.047156417E0,-1.588834286E0,4.649254322E0,1.573759460E1
7.066707146E0,-2.120040894E0,4.352544308E0,1.377189064E1
7.086257927E0,-2.379662037E0,4.837090969E0,1.177508068E1
7.105808656E0,-1.972882271E0,4.682754040E0,1.046620655E1
7.125359437E0,-1.300499082E0,4.323830605E0,1.054516983E1
7.144910167E0,-5.790630579E-1,3.984049797E0,9.607182503E0
7.164460948E0,-2.596212626E-1,3.712464333E0,7.454838753E0
7.184011677E0,-3.266202807E-1,3.562912941E0,5.953342915E0
7.203562458E0,-5.575276613E-1,3.359523058E0,6.192625046E0
7.223113187E0,-7.573283911E-1,3.304488182E0,6.897311211E0
7.242663969E0,-8.865407705E-1,3.058027267E0,6.911668301E0
7.262214698E0,-7.764709592E-1,2.711068153E0,6.634100914E0
7.281765479E0,-3.242274821E-1,2.628515720E0,5.612365723E0
7.301316208E0,-5.611169338E-1,2.731407166E0,5.491528034E0
7.320866989E0,-8.542376757E-1,3.056830883E0,6.180660725E0
7.340417719E0,-7.680960894E-1,3.012563705E0,6.973881721E0
7.359968500E0,-6.987041831E-1,3.041277647E0,7.042077065E0
7.379519229E0,-9.032905698E-1,3.522234917E0,8.106883049E0
7.399069958E0,-1.250249863E0,3.836891174E0,8.001599312E0
7.418620739E0,-1.842473388E0,3.905086517E0,9.202795982E0
7.438171469E0,-1.922633052E0,4.655236244E0,1.135513973E1
7.457722250E0,-6.209374666E-1,5.247459888E0,1.137547874E1
7.477272979E0,5.982056726E-3,6.116054535E0,1.183370399E1
7.496823760E0,-2.871387079E-2,5.842076302E0,1.224168110E1
7.516374489E0,-7.154539824E-1,5.479563713E0,1.221894836E1
7.535925219E0,-1.021735311E0,4.709074974E0,1.264128208E1
7.555476000E0,-1.268195987E0,4.216153622E0,1.374437332E1
7.575026729E0,-1.499103427E0,4.476971149E0,1.320479202E1
7.594577510E0,-1.293320656E0,4.268795490E0,1.170568848E1
7.614128239E0,-1.107876897E0,4.395615101E0,8.246863365E0
7.633679021E0,-9.487541914E-1,4.468596458E0,7.416553974E0
7.653229750E0,-6.077769399E-1,4.377668858E0,6.550352097E0
7.672780531E0,-3.828516304E-1,4.094119549E0,6.806384087E0
7.692331260E0,-1.842473447E-1,3.789034605E0,8.137989998E0
7.711881989E0,2.955136001E-1,3.019742250E0,8.689535141E0
7.731432771E0,7.836494446E-1,2.726621389E0,8.965906143E0
7.770084181E0,-1.572084427E0,3.923032761E0,8.595019341E0
7.789634806E0,-1.704886079E0,4.216153622E0,8.501698494E0
7.809185431E0,-1.625923038E0,4.019941807E0,8.301898003E0
7.828736056E0,-1.283749342E0,3.848855257E0,8.544769287E0
7.848286681E0,-1.037288666E0,3.884747505E0,8.641678810E0
7.867837306E0,-8.386843204E-1,3.964907169E0,8.519644737E0
7.887387983E0,-7.800601721E-1,3.805784464E0,8.734998703E0
7.906938608E0,-8.566305041E-1,3.724428415E0,9.114261627E0
7.926489233E0,-1.692921996E0,4.094119549E0,9.241081238E0
7.946039858E0,-1.793420553E0,3.955335855E0,8.918049812E0
7.965590483E0,-9.774680734E-1,3.237488985E0,9.157332420E0
7.985141108E0,-4.965106845E-1,2.457428932E0,1.045065308E1
8.004691733E0,-1.238285661E0,2.220539331E0,1.167697430E1
8.024242358E0,-1.537388563E0,2.219342947E0,1.130848026E1
8.043792983E0,-1.414158225E0,2.391626120E0,1.037527943E1
8.063343608E0,-1.978864312E0,3.037688255E0,1.054516983E1
8.082894233E0,-1.491924882E0,2.565105915E0,9.590433121E0
8.102444858E0,-4.666004181E-1,2.530410051E0,8.260024071E0
8.121995483E0,6.400800347E-1,2.934797049E0,7.941778183E0
8.141546108E0,1.198804140E0,3.209971666E0,8.662017822E0
8.161096733E0,1.526620865E0,2.998206854E0,9.129815102E0
8.180647358E0,1.490728498E0,2.520838737E0,9.669396400E0
8.200197983E0,7.286145091E-1,2.172683001E0,1.029392338E1
8.219748608E0,8.494520187E-2,2.246860504E0,1.076889801E1
8.239299233E0,2.775674164E-1,2.377269268E0,1.013001442E1
8.258849858E0,7.633104324E-1,2.355733871E0,8.699107170E0
8.278400483E0,1.075573802E0,2.467000246E0,7.907082558E0
8.297951108E0,1.001396298E0,2.647658348E0,7.789834023E0
8.317501733E0,1.028913736E0,2.504088879E0,7.548159122E0
8.337052358E0,-1.316052489E-2,2.120040894E0,8.275577545E0
8.356602931E0,2.392822644E-3,2.042274237E0,7.899903774E0
8.376153556E0,-5.252245665E-1,1.877169371E0,7.397411346E0
8.395704181E0,-2.919243574E-1,1.639083505E0,6.356533527E0
8.415254806E0,1.184447184E-1,1.593619823E0,5.337191105E0
8.434805431E0,2.153540403E-1,1.607976794E0,5.261816978E0
8.454356056E0,-5.635097623E-1,1.844866276E0,5.090730190E0
8.473906681E0,-8.386843204E-1,1.829312921E0,5.485546112E0
8.493457306E0,-6.652047038E-1,1.418943882E0,5.632704735E0
8.513007931E0,-2.979064286E-1,8.111668825E-1,6.451049805E0
8.532558556E0,-2.045863420E-1,-3.409772217E-1,8.304290771E0
8.552109181E0,3.445664644E-1,-2.057827413E-1,1.141137123E1
8.571659753E0,5.754738450E-1,2.764906645E0,1.230389404E1
8.591210378E0,-4.235295951E-1,6.239284992E0,1.216630650E1
8.610761003E0,-1.295713425E0,7.484749317E0,1.310190010E1
8.630311628E0,-6.664010882E-1,3.958925009E0,1.476132298E1
8.649862253E0,1.264606714E0,1.429711580E0,1.638485336E1
8.669412878E0,1.226321578E0,1.881955028E0,1.612882042E1
8.688963503E0,-2.392822690E-2,2.921636343E0,1.436531067E1
8.708514076E0,2.129612118E-1,3.233899832E0,1.199282742E1
8.728064701E0,7.549355626E-1,3.067598581E0,9.999606133E0
8.747615326E0,1.014556766E0,2.411965132E0,8.672785759E0
8.767165951E0,2.297109663E-1,1.859223247E0,8.982656479E0
8.786716576E0,-6.640082598E-1,1.219143152E0,9.071190834E0
8.806267201E0,-8.039883971E-1,1.110269666E0,8.286344528E0
8.825817774E0,-5.922235847E-1,1.010967612E0,7.363911629E0
8.845368399E0,-3.732803464E-1,1.259821177E0,6.677171707E0
8.864919024E0,5.862415582E-2,1.814955950E0,6.489335060E0
8.884469649E0,-3.744767308E-1,2.423929453E0,6.260820389E0
8.904020222E0,-1.046859860E0,2.776870728E0,5.502295494E0
8.923570847E0,-1.116251707E0,2.646461725E0,5.211567879E0
8.943121472E0,-1.253839016E0,2.158325911E0,6.557530403E0
8.962672097E0,-1.757528186E0,2.001596212E0,8.324629784E0
8.982222722E0,-2.078166485E0,3.083152056E0,8.604590416E0
9.001773295E0,-1.499103427E0,3.879961967E0,9.247062683E0
9.021323920E0,2.847459018E-1,3.816552162E0,1.195693493E1
9.040874545E0,1.697707653E0,2.900100946E0,1.580220032E1
9.060425170E0,1.521835208E0,2.638087034E0,1.724746513E1
9.079975743E0,5.156532526E-1,3.261417150E0,1.513460350E1
9.099526368E0,7.082754970E-1,4.454239368E0,1.150828075E1
9.119076993E0,1.367498159E0,4.971088886E0,9.036494255E0
9.138627566E0,1.756331801E0,5.504688263E0,9.857233047E0
9.158178191E0,1.730010748E0,4.943571568E0,1.140538883E1
9.177728816E0,7.992027402E-1,4.335794449E0,1.093998528E1
9.197279389E0,9.930214286E-2,3.653840065E0,9.692128181E0
9.216830014E0,-4.905286431E-1,3.011367321E0,8.384450912E0
9.236380639E0,-7.465606928E-1,2.756531715E0,7.483552933E0
9.255931264E0,-7.896314859E-1,2.769692183E0,6.387639999E0
9.275481837E0,-1.161715388E0,2.817548752E0,5.710471153E0
9.295032462E0,-1.304088354E0,2.658426046E0,5.251049519E0
9.314583087E0,-1.046859860E0,2.268395901E0,5.600401402E0
9.334133660E0,-9.140582681E-1,2.129612207E0,6.370890141E0
9.353684285E0,-1.052842021E0,2.103291035E0,7.018148899E0
9.373234858E0,-6.257231236E-1,2.445464849E0,6.515655994E0
9.392785483E0,3.469592929E-1,1.690529227E0,6.417550564E0
9.412336108E0,5.934200287E-1,1.051645517E0,6.625725746E0
9.431886681E0,2.991028428E-1,1.115055323E0,7.295716286E0
9.451437306E0,6.604190469E-1,5.228317380E-1,8.163114548E0
9.470987931E0,9.547362328E-1,2.321037948E-1,9.068798065E0
9.490538503E0,1.350748420E0,1.491924882E0,1.002353382E1
9.510089128E0,6.532405615E-1,3.233899832E0,9.791430473E0
9.529639753E0,-3.469592929E-1,4.749752998E0,1.209571838E1
9.549190326E0,-1.261017561E0,5.918646812E0,1.515494251E1
9.568740951E0,-6.101697683E-1,5.498706341E0,1.455673695E1
9.588291524E0,-8.195417523E-1,4.319045067E0,1.284227943E1
9.607842149E0,-8.123632669E-1,4.783252239E0,1.198923779E1
9.627392774E0,-9.080761671E-1,5.739185333E0,1.173559856E1
9.646943347E0,-4.666004181E-1,6.253642082E0,1.033579731E1
9.666493972E0,-2.572284341E-1,5.679364681E0,8.451449394E0
9.686044545E0,-2.703889608E-1,4.634897232E0,7.919046402E0
9.705595170E0,-4.689932466E-1,3.719642878E0,8.157132149E0
9.725145743E0,-5.862415433E-1,3.013760090E0,8.977870941E0
9.744696368E0,-7.728816867E-1,2.873780012E0,9.956535339E0
9.764246941E0,-7.884350419E-1,2.708675146E0,9.692128181E0
9.783797566E0,-4.331009090E-1,2.531606436E0,7.847261906E0
9.803348191E0,2.512463741E-2,2.395215511E0,6.061019897E0
9.822898764E0,2.524427772E-1,2.099701881E0,5.710471153E0
9.842449389E0,3.696911037E-1,1.767099500E0,5.747560024E0
9.861999962E0,-5.347958803E-1,1.871187329E0,5.772684574E0
9.881550587E0,-2.215753794E0,3.110669374E0,5.638686657E0
9.901101160E0,-1.400997639E0,2.717050076E0,5.073980331E0
9.920651785E0,-1.564906001E0,2.438286304E0,4.368097782E0
9.940202358E0,-4.594219327E-1,2.909672260E0,4.013959885E0
9.959752983E0,-8.973085135E-2,2.687139750E0,5.501099110E0
9.979303556E0,1.363908947E-1,1.677368641E0,1.066481018E1
9.998854181E0,3.960121572E-1,1.436890006E0,1.006181908E1
1.001840475E1,-7.752745152E-1,3.475574970E0,1.068395329E1
1.003795538E1,-1.240678549E0,5.248656273E0,1.255633640E1
1.005750595E1,3.696911037E-1,5.188836098E0,1.463569927E1
1.007705658E1,5.814558864E-1,4.298706055E0,1.503530121E1
1.009660715E1,-7.429714203E-1,4.161118507E0,1.492762375E1
1.011615777E1,-1.970489502E0,3.505485058E0,1.472902012E1
1.013570835E1,-9.906286001E-1,2.658426046E0,1.492044544E1
1.015525897E1,2.177468538E-1,2.550748825E0,1.419542027E1
1.017480954E1,5.359922647E-1,3.511467218E0,1.203470135E1
1.019436017E1,7.274180651E-1,3.803391695E0,9.676574707E0
1.021391074E1,7.262216806E-1,3.463610888E0,8.012366295E0
1.023346137E1,-2.069791555E-1,3.140579700E0,7.572087288E0
1.025301194E1,-1.179661512E0,2.901297569E0,7.901100159E0
1.027256251E1,-1.265803218E0,2.675175667E0,8.092526436E0
1.029211314E1,-7.609176040E-1,2.355733871E0,8.335397720E0
1.031166371E1,-9.918249846E-1,2.465803623E0,8.214560509E0
1.033121434E1,-1.150947690E0,2.690729141E0,7.467999458E0
1.035076491E1,-1.039681435E0,2.254039049E0,6.732206345E0
1.037031554E1,-6.675975323E-1,1.879562140E0,6.338587284E0
1.038986611E1,-3.397808075E-1,1.588834286E0,6.909275532E0
1.040941668E1,-4.546362907E-2,1.960918188E0,7.365108013E0
1.042896731E1,3.122633696E-1,2.525624275E0,6.881757736E0
1.044851788E1,8.315058947E-1,2.559123755E0,6.381658077E0
1.046806850E1,1.103091240E0,2.624926329E0,6.067001820E0
1.048761908E1,8.913264275E-1,2.848655462E0,5.911468506E0
1.050716970E1,1.103091240E0,2.918047190E0,6.558726788E0
1.052672027E1,1.192822099E0,2.400001049E0,7.751548767E0
1.054627085E1,5.635097623E-1,2.232503414E0,9.542576790E0
1.056582147E1,-3.302095234E-1,2.994617462E0,1.143051338E1
1.058537205E1,-1.158126116E0,3.071187973E0,1.324666595E1
1.060492267E1,-2.433500528E0,4.348955154E0,1.633938980E1
1.062447324E1,-1.362712502E0,4.767699242E0,1.409731483E1
1.064402382E1,-9.188438654E-1,4.315455437E0,1.069113159E1
1.066357444E1,-7.884350419E-1,4.039084435E0,1.027836990E1
1.068312501E1,-3.469592929E-1,3.924229145E0,1.204307652E1
1.070267559E1,-4.067798555E-1,4.784449100E0,1.261974621E1
1.072222621E1,1.040877849E-1,4.628915310E0,1.136351490E1
1.074177678E1,4.725824594E-1,3.933800459E0,1.000319481E1
1.076132736E1,-1.878365725E-1,3.384647608E0,9.424132347E0
1.078087798E1,-8.111668825E-1,3.036491871E0,9.101100922E0
1.080042856E1,-9.906286001E-1,2.931207657E0,8.181060791E0
1.081997913E1,-7.968099117E-1,2.721835852E0,7.268198967E0
1.083952975E1,-7.716853023E-1,2.458625317E0,6.579065800E0
1.085908033E1,-6.568298340E-1,2.362912416E0,6.330212116E0
1.087863090E1,-4.929214716E-1,2.263610125E0,5.931807518E0
1.089818152E1,-4.725824594E-1,2.122433662E0,5.428118229E0
1.091773210E1,-5.072783828E-1,2.256431818E0,5.185246468E0
1.093728267E1,-6.173482537E-1,2.367697954E0,5.316852093E0
1.095683330E1,-8.590233326E-1,2.597409010E0,6.154339790E0
1.097638387E1,-1.146162033E0,3.206382275E0,7.222734928E0
1.099593444E1,-7.262216806E-1,3.048455954E0,7.601997375E0
1.101548507E1,-1.111466169E0,2.726621389E0,7.903493404E0
1.103503564E1,-1.452443361E0,3.125026464E0,9.334401131E0
1.105458621E1,-1.397408366E0,3.664607763E0,1.120199966E1
1.107413684E1,-7.597211599E-1,3.767499208E0,1.223450184E1
1.109368741E1,-1.444068432E0,4.060619831E0,1.267478180E1
1.111323798E1,-1.299302697E0,3.681357622E0,1.246899891E1
1.113278856E1,-1.069591761E0,3.066402197E0,1.295234871E1
1.115233918E1,-6.077769399E-1,3.340380430E0,1.264008522E1
1.117188975E1,6.723831892E-1,3.050848961E0,1.135155106E1
1.119144033E1,7.896314859E-1,3.024527788E0,1.123430252E1
1.121099095E1,1.471585929E-1,3.644268990E0,1.172004509E1
1.123054152E1,-2.297109663E-1,4.202992916E0,1.133360481E1
1.125009210E1,3.601198196E-1,4.106083870E0,1.026879883E1
1.126964272E1,7.345965505E-1,4.047459602E0,1.005942631E1
1.128919330E1,-5.742774159E-2,3.950550079E0,1.005583763E1
1.130874387E1,-8.997012973E-1,3.431307554E0,9.584450722E0
1.132829444E1,-1.228714466E0,2.904886723E0,8.772088051E0
1.134784501E1,-1.298106313E0,2.160718918E0,7.581658363E0
1.136739564E1,-1.306481123E0,1.843669891E0,6.638886452E0
1.138694621E1,-1.244267821E0,1.840080619E0,5.778666496E0
1.140649679E1,-1.400997639E0,2.149951220E0,4.591826439E0
1.142604736E1,-1.432104349E0,2.533999205E0,3.696911097E0
1.144559798E1,-1.222732425E0,2.462214470E0,4.161118507E0
1.146514856E1,-5.718846321E-1,2.490928411E0,5.900700569E0
1.148469913E1,4.689932466E-1,2.902493954E0,7.177271366E0
1.150424970E1,9.104689956E-1,3.146561861E0,7.257431030E0
1.152380033E1,7.872386575E-1,3.269792080E0,7.397411346E0
1.154335090E1,6.221339107E-1,3.402593851E0,8.319844246E0
1.156290147E1,-2.835494876E-1,3.163311481E0,1.002592659E1
1.158245204E1,-1.283749342E0,3.887140274E0,1.097587776E1
1.160200262E1,-1.067198873E0,4.234099865E0,1.131206894E1
1.162155324E1,-2.991028316E-2,3.631108284E0,1.263649654E1
1.164110382E1,1.200000525E0,2.956332445E0,1.423849106E1
1.166065439E1,1.338784218E0,2.991028309E0,1.481276894E1
1.168020496E1,1.214357495E0,4.078566074E0,1.355653667E1
1.169975559E1,1.735992789E0,4.248456478E0,1.190907860E1
1.171930616E1,3.326023519E-1,4.552345276E0,1.160638618E1
1.173885673E1,-1.133001566E0,4.176671982E0,1.218425274E1
1.175840731E1,9.092725813E-2,2.871387243E0,1.237448215E1
1.177795788E1,6.675975323E-1,2.589034081E0,1.110867882E1
1.179750850E1,8.063812256E-1,2.629712105E0,9.275776863E0
1.181705908E1,9.822536707E-1,2.443071842E0,7.680960655E0
1.183660965E1,1.077966571E0,2.415554523E0,7.189235687E0
1.185616022E1,7.788637877E-1,2.478964329E0,7.178467751E0
1.187571080E1,-5.946164131E-1,2.276770830E0,7.002595425E0
1.189526137E1,-6.544370055E-1,2.173879385E0,6.181857109E0
1.191481199E1,-6.113662124E-1,2.092523336E0,5.150550842E0
1.193436257E1,-6.329016089E-1,2.383251429E0,4.796412945E0
1.195391314E1,-5.491527915E-1,2.571087837E0,5.022534847E0
1.197346371E1,-4.546363056E-1,2.159522533E0,5.956932068E0
1.199301429E1,-7.525427341E-1,1.832902193E0,7.841279984E0
1.201256486E1,-8.159525394E-1,2.134397745E0,8.145168304E0
1.203211548E1,-4.079762697E-1,2.213361025E0,7.454838753E0
1.205166606E1,-4.223332107E-1,1.814955950E0,8.797212601E0
1.207121663E1,-1.198804140E0,2.684746981E0,1.063250732E1
1.209076720E1,-1.326820135E0,4.339384079E0,1.109551907E1
1.211031777E1,-7.680960894E-1,4.287938118E0,1.152981567E1
1.212986835E1,-7.788637877E-1,3.846462488E0,1.269751358E1
1.214941897E1,-1.574477315E0,5.241477966E0,1.320120239E1
1.216896955E1,-1.527817249E0,5.682953835E0,1.245942783E1
1.218852012E1,-6.675975323E-1,4.322634220E0,1.299541950E1
1.220807069E1,-6.017948985E-1,3.963710785E0,1.505085468E1
1.222762126E1,-8.422735929E-1,3.659822226E0,1.520040607E1
1.224717184E1,-5.312066078E-1,3.034099102E0,1.275613785E1
1.226672241E1,-3.601198196E-1,2.933600664E0,1.045184898E1
1.228627304E1,-8.027920127E-1,2.967100143E0,9.005388260E0
1.230582361E1,-1.278963685E0,3.156133175E0,7.916653633E0
1.232537418E1,-1.336391449E0,3.230310678E0,7.653443336E0
1.234492475E1,-1.447657704E0,2.998206854E0,7.374679565E0
1.236447533E1,-1.643869162E0,2.695514679E0,6.975078106E0
1.238402590E1,-1.288534999E0,2.397608280E0,6.557530403E0
1.240357647E1,-7.740781307E-1,2.076970100E0,6.541976929E0
1.242312705E1,-2.069791555E-1,2.102094650E0,6.614958286E0
1.244267762E1,1.328016520E-1,2.165504456E0,6.311069489E0
1.246222819E1,8.733802289E-2,2.133201361E0,6.245266914E0
1.248177882E1,3.625126183E-1,1.986042738E0,6.705885410E0
1.250132939E1,6.113662124E-1,2.019542217E0,6.839883327E0
1.252087996E1,5.192425251E-1,2.203789711E0,6.825526714E0
1.254043054E1,5.347958803E-1,2.380858421E0,6.714260101E0
1.255998111E1,4.677968323E-1,2.621337175E0,6.660421848E0
1.257953168E1,3.397808075E-1,3.275774240E0,6.957131863E0
1.259908225E1,4.247260094E-1,3.708875179E0,7.093522549E0
1.261863283E1,3.302095234E-1,2.877369165E0,7.881958008E0
1.263818345E1,-8.494520187E-2,1.719243050E0,9.821340561E0
1.265773402E1,-6.281159520E-1,2.141576290E0,1.198086262E1
1.267728460E1,-7.369893789E-1,3.440878868E0,1.180618668E1
1.269683517E1,-8.829515576E-1,4.456632137E0,1.033938694E1
1.271638574E1,-1.980060697E0,5.315655708E0,1.002831936E1
1.273593632E1,-2.611765862E0,5.062016487E0,1.098185921E1
1.275548689E1,-2.000399828E0,3.749552965E0,1.167458153E1
1.277503746E1,-1.837687731E0,3.128615618E0,1.252403355E1
1.279458804E1,-2.065006018E0,2.782852650E0,1.350150204E1
1.281413861E1,-1.936989903E0,2.915654421E0,1.330409431E1
1.283368918E1,-1.319641709E0,3.404986620E0,1.183609676E1
1.285323975E1,-7.393822074E-1,3.385843992E0,1.037886810E1
1.287279033E1,-5.395814776E-1,3.158525944E0,9.249456406E0
1.289234095E1,-8.542376757E-1,2.811566591E0,8.517251968E0
1.291189152E1,-1.039681435E0,2.508874655E0,8.445467949E0
1.293144210E1,-9.990034699E-1,2.700300455E0,7.899903774E0
1.295099267E1,-9.272187948E-1,2.801995277E0,6.611369133E0
1.297054324E1,-7.298108935E-1,2.321038008E0,5.860022545E0
1.299009382E1,-8.063812256E-1,1.885544300E0,6.844669342E0
1.300964439E1,-1.069591761E0,2.000399828E0,8.130811691E0
1.302919496E1,-8.458628058E-1,2.495713949E0,8.152346611E0
1.304874554E1,-5.096712112E-1,2.762513638E0,6.900900364E0
1.306829611E1,-6.819544435E-1,2.441875458E0,6.900900364E0
1.308784668E1,-1.348355532E0,2.021935225E0,8.499305725E0
1.310739725E1,-1.774278045E0,1.865205288E0,1.001635551E1
1.312694783E1,-1.192822099E0,2.361716032E0,1.060379314E1
1.314649840E1,-1.591227055E-1,3.383451223E0,1.033938694E1
1.316604897E1,-1.986042857E-1,3.726821184E0,1.035015392E1
1.318559960E1,-3.852444589E-1,3.556930780E0,1.025204849E1
1.320515012E1,-2.440679073E-1,2.671586514E0,1.128694439E1
1.322470074E1,3.828516304E-1,1.679761529E0,1.331127262E1
1.324425132E1,1.339980662E-1,2.041077614E0,1.460698605E1
1.326380189E1,-3.254238665E-1,3.725624800E0,1.336511135E1
1.328335246E1,3.421736360E-1,4.342973232E0,1.097109222E1
1.330290304E1,4.857429862E-1,3.689732552E0,1.001635551E1
1.332245361E1,-1.162911773E0,3.235096216E0,1.058584690E1
1.334200418E1,-2.025524378E0,2.589034081E0,1.074257755E1
1.336155475E1,-1.897508383E0,2.414358139E0,9.646664619E0
1.338110533E1,-1.502692580E0,2.562713146E0,7.668996811E0
1.340065590E1,-8.673982024E-1,2.252842426E0,6.489335060E0
1.342020647E1,-9.284151793E-1,2.030309916E0,6.288337708E0
1.343975704E1,-1.566102386E0,2.037488461E0,6.263213158E0
1.345930762E1,-1.308874011E0,1.792224169E0,5.763113499E0
1.347885819E1,-5.838487148E-1,1.408176184E0,5.114658356E0
1.349840876E1,-6.699903309E-2,1.026520967E0,4.996213913E0
1.351795934E1,-3.014956415E-1,1.020538807E0,6.000002861E0
1.353750991E1,-6.101697683E-1,1.518245935E0,7.220342159E0
1.355706048E1,-2.907279432E-1,1.574477315E0,7.597211838E0
1.357661106E1,-2.907279432E-1,1.383051515E0,7.235895634E0
1.359616163E1,-5.395814776E-1,2.305484533E0,8.299505234E0
1.361571220E1,-1.331605792E0,4.124029636E0,1.130010509E1
1.363526277E1,-1.311266780E0,5.499902725E0,1.316530991E1
1.365481335E1,-1.330409408E0,5.922235966E0,1.302174091E1
1.367436392E1,-9.966106415E-1,5.091926575E0,1.333639717E1
1.369391449E1,-1.257428288E0,4.683950424E0,1.397049522E1
1.371346507E1,-1.776670814E0,4.486542225E0,1.391785336E1
1.373301564E1,-1.398604870E0,3.710071564E0,1.358764362E1
1.375256621E1,-1.167697430E0,3.248256683E0,1.264846039E1
1.377211679E1,-1.010967612E0,2.894119024E0,1.074138069E1
1.379166736E1,-3.517449200E-1,2.630908489E0,8.824729919E0
1.381121793E1,-1.734796464E-1,2.921636343E0,7.117451191E0
1.383076850E1,-4.283152521E-1,3.128615618E0,5.947360516E0
1.385031908E1,-8.327022791E-1,2.976671457E0,5.571687698E0
1.386986965E1,-1.469193101E0,2.817548752E0,6.143572330E0
1.388942022E1,-1.420140266E0,2.507678032E0,7.336394310E0
1.390897080E1,-6.664010882E-1,2.219342947E0,7.773084164E0
1.392852137E1,-1.866401732E-1,2.193022013E0,6.984649181E0
1.394807194E1,-2.404786795E-1,2.423929453E0,5.568098068E0
1.396762251E1,-4.235295951E-1,2.385644197E0,5.726024628E0
1.398717309E1,-4.821537733E-1,2.213361025E0,7.192824841E0
1.400672366E1,-7.657032609E-1,2.422732830E0,7.953742504E0
1.402627423E1,-1.520638824E0,2.504088879E0,8.438288689E0
1.404582481E1,-1.665404558E0,2.252842426E0,1.051167011E1
1.406537538E1,-1.010967612E0,2.422732830E0,1.314138222E1
1.408492595E1,-5.288137794E-1,3.419343472E0,1.374556923E1
1.410447652E1,1.399801224E-1,3.937389612E0,1.143410301E1
1.412402710E1,2.500499785E-1,4.222135544E0,9.804591179E0
1.414357767E1,1.107876897E0,4.555934429E0,1.091366386E1
1.416312824E1,2.414358139E0,4.691128731E0,1.184327602E1
1.418267882E1,3.013760090E0,4.508078098E0,1.072582722E1
1.420222939E1,2.093719721E0,4.889732838E0,1.151545906E1
1.422177996E1,6.963114142E-1,5.534598827E0,1.393460274E1
1.424133054E1,6.460621357E-1,4.619344234E0,1.380419350E1
1.426088111E1,1.551745534E0,3.509074450E0,1.111944675E1
1.428043163E1,1.339980721E0,3.159722328E0,8.433503151E0
1.429998220E1,2.079362869E0,2.726621389E0,6.988238335E0
1.431953277E1,1.418943882E0,2.585444927E0,6.922435760E0
1.433908335E1,3.326023519E-1,3.014956474E0,7.095915318E0
1.435863392E1,-3.900300860E-1,2.662015200E0,6.812366009E0
1.437818449E1,-6.855437160E-1,2.038684845E0,7.075576782E0
1.439773507E1,-9.762716293E-1,1.974078655E0,7.265805721E0
1.441728564E1,-1.062413216E0,1.838884234E0,6.626922131E0
1.443683621E1,-7.345965505E-1,1.733600020E0,6.181857109E0
1.445638679E1,-4.438686073E-1,1.714457393E0,5.473581791E0
1.447593736E1,-1.914258152E-1,2.067398787E0,5.761917114E0
1.449548793E1,-2.488535494E-1,2.282752752E0,6.008377552E0
1.451503850E1,2.285145670E-1,2.447857618E0,5.827719688E0
1.453458908E1,3.577269912E-1,2.900100946E0,6.480959892E0
1.455413965E1,-9.188438654E-1,3.078366280E0,8.050651550E0
1.457369022E1,-1.511067510E0,4.197010994E0,1.043509960E1
1.459324074E1,-1.537388563E0,4.679164886E0,1.160279655E1
1.461279132E1,-9.451649338E-2,4.229313850E0,1.103689480E1
1.463234189E1,-4.319044948E-1,4.705485821E0,1.046500969E1
1.465189246E1,-1.368694544E0,5.136193752E0,1.009172916E1
1.467144304E1,-6.311069489E0,5.702096462E0,1.522194099E1
1.469099361E1,-6.459424496E0,5.566901684E0,1.559761429E1
1.471054418E1,-5.497509956E0,5.123033047E0,1.135872936E1
1.473009475E1,-6.183053493E0,6.599404812E0,7.950153351E0
1.474964533E1,-1.915454507E0,6.489335060E0,9.311669350E0
1.476919590E1,-1.280160069E0,4.738985062E0,9.541379929E0
1.478874647E1,-9.595218897E-1,4.576273441E0,9.854840279E0
1.480829705E1,-1.000199914E0,4.017549038E0,9.156135559E0
1.482784757E1,-1.037288666E0,3.903890133E0,7.840083599E0
1.484739814E1,-1.122233868E0,4.248456478E0,6.689135551E0
1.486694871E1,-1.228714466E0,4.414757729E0,5.759523869E0
1.488649929E1,-1.130608678E0,4.078566074E0,4.742574692E0
1.490604986E1,-1.290927768E0,4.064209461E0,3.899104595E0
1.492560043E1,-1.685743570E0,3.830909014E0,5.000999451E0
1.494515100E1,-1.901097536E0,3.690928936E0,5.678168297E0
1.496470158E1,-1.864008784E0,3.366701365E0,6.034698486E0
1.498425215E1,-2.135594130E0,3.656233072E0,6.489335060E0
1.500380272E1,-3.065205812E0,4.250849247E0,6.334998131E0
1.502335324E1,-2.701496840E0,4.018745422E0,6.466603279E0
1.506378812E1,-2.610569477E0,3.799802303E0,9.286544800E0
1.508333859E1,-3.055634499E0,3.951746702E0,9.032905579E0
1.510288906E1,-2.988635540E0,3.921836376E0,9.224330902E0
1.512243958E1,-2.606980324E0,3.866801500E0,8.734998703E0
1.514199005E1,-2.684746981E0,4.057030678E0,8.653642654E0
1.516154052E1,-2.409572363E0,4.195814610E0,8.495717049E0
1.518109098E1,-2.519642353E0,4.015156269E0,8.279166222E0
1.520064145E1,-2.719442844E0,3.997210264E0,8.300702095E0
1.522019192E1,-2.644068956E0,4.005585194E0,7.975277901E0
1.523974244E1,-2.648854733E0,3.805784464E0,7.712067604E0
1.525929291E1,-2.324627161E0,3.726821184E0,8.610571861E0
1.527884338E1,-1.617548108E0,3.541377544E0,8.837890625E0
1.529839385E1,-2.170290232E0,3.230310678E0,8.748159409E0
1.531794432E1,-1.533799291E0,3.479164124E0,8.571090698E0
1.533749479E1,-1.113858938E0,3.229114056E0,8.044670105E0
1.535704526E1,-1.311266780E0,3.127419233E0,7.730013371E0
1.537659578E1,-1.166501045E0,3.226721287E0,7.782655716E0
1.539614624E1,-8.183453679E-1,3.153740168E0,7.026523590E0
1.541569671E1,-1.514656782E0,3.020938635E0,6.881757736E0
1.543524718E1,-2.803191662E0,2.233700037E0,7.049255371E0
1.545479765E1,-3.288934708E0,2.639283419E0,6.823133945E0
1.547434812E1,-2.266003132E0,2.654836655E0,6.222535133E0
1.549389859E1,-6.795616150E-1,2.551945448E0,5.773880959E0
1.551344906E1,-1.866401732E-1,2.422732830E0,5.301298618E0
1.553299953E1,-2.368894368E-1,2.421536446E0,5.124229908E0
1.555255005E1,2.021935135E-1,2.429911375E0,5.388636589E0
1.557210052E1,3.314059377E-1,2.853441000E0,6.315855503E0
1.559165098E1,-6.317051649E-1,2.435893536E0,9.628718376E0
1.561120145E1,3.930211306E0,1.575673699E0,1.192582798E1
1.563075192E1,3.150151014E0,1.835294962E0,1.208495045E1
1.565030239E1,5.108676553E-1,3.310470104E0,1.312582874E1
1.566985286E1,-1.534995675E0,5.309673309E0,1.388913918E1
1.568940333E1,-7.178467698E-3,5.458028316E0,1.346201992E1
1.570895380E1,3.326023519E-1,5.296513081E0,1.132762241E1
1.572850427E1,-1.210768223E0,5.160121918E0,1.041835022E1
1.574805473E1,-2.355733871E0,4.804787636E0,1.302413368E1
1.576760520E1,-4.223332107E-1,4.677968502E0,1.588475323E1
1.578715567E1,8.195417523E-1,3.613162279E0,1.493240929E1
1.580670614E1,1.101894855E0,3.285345554E0,1.248694515E1
1.582625661E1,8.949156404E-1,2.998206854E0,1.039442158E1
1.584580708E1,3.086741269E-1,2.919243574E0,8.602197647E0
1.586535755E1,2.392822690E-2,3.064009428E0,6.206982136E0
1.588490802E1,-5.144568682E-1,2.592623234E0,5.469992638E0
1.590445848E1,-1.987239242E0,2.062613010E0,6.090929985E0
1.592400895E1,-4.165904045E0,2.237289190E0,5.119443893E0
1.594355942E1,-3.621536970E0,2.580659151E0,4.896911621E0
1.596310989E1,-2.032702923E0,2.336591244E0,4.738985062E0
1.598266036E1,-9.655039310E-1,2.146361828E0,4.965106964E0
1.600221083E1,-6.867401004E-1,2.267199516E0,5.448457241E0
1.602176130E1,-6.400800347E-1,2.458625317E0,5.115854740E0
1.604131177E1,-2.859423161E-1,2.236092806E0,4.481756687E0
1.606086223E1,-7.740781307E-1,2.677568436E0,5.304887772E0
1.608041270E1,-3.744767308E-1,2.969492912E0,8.289934158E0
1.609996317E1,9.343972206E-1,2.646461725E0,1.067677498E1
1.611951364E1,1.685743570E0,3.194418192E0,1.064806080E1
1.613906411E1,9.272187948E-1,4.089334011E0,8.477770805E0
1.615861458E1,3.768695593E-1,5.888736725E0,8.726624489E0
1.617816505E1,1.959721804E0,5.139782906E0,1.228594780E1
1.619771552E1,3.000599623E0,2.843869686E0,1.646022606E1
1.621726598E1,8.973085135E-2,3.332005501E0,1.682752609E1
1.623681640E1,1.959721804E0,2.218146563E0,1.547318745E1
1.625636687E1,9.355936646E-1,2.082952023E0,1.300618744E1
1.627591734E1,-1.406979680E0,2.377269268E0,1.186481094E1
1.629546781E1,-2.720639229E0,2.693121910E0,1.079043388E1
1.631501828E1,-3.543770313E0,2.502892494E0,1.085862923E1
1.633456874E1,-3.762713671E0,2.544766903E0,1.147478104E1
1.635411921E1,-3.125026464E0,2.511267424E0,1.101655579E1
1.637366968E1,-1.984846354E0,1.664208174E0,9.248259544E0
1.639322015E1,-7.214360237E-1,1.478764415E0,8.023134232E0
1.641277062E1,-4.618147612E-1,1.584048629E0,6.630511761E0
1.643232104E1,-1.676172256E0,1.566102386E0,5.566901684E0
1.645187150E1,-2.596212626E0,6.951149702E-1,4.855037212E0
1.647142197E1,-2.440679073E0,1.750349760E0,7.609176159E0
1.649097244E1,-1.328016520E0,2.213361025E0,7.127022266E0
1.651052291E1,-2.931207716E-1,2.082952023E0,5.928217888E0
1.653007338E1,-8.434699774E-1,2.134397745E0,5.764309883E0
1.654962385E1,-7.908278704E-1,2.630908489E0,5.718846321E0
1.656917427E1,-1.746760458E-1,2.627319336E0,5.024927616E0
1.658872473E1,-5.994020700E-1,3.089133978E0,5.203192711E0
1.660827520E1,-1.134197950E0,2.845066071E0,7.816154957E0
1.662782567E1,-6.113662124E-1,2.928814888E0,1.135155106E1
1.664737614E1,5.754738450E-1,3.890729666E0,1.343928814E1
1.666692661E1,1.324427366E0,4.214957237E0,1.283629704E1
1.668647703E1,1.974078655E0,3.366701365E0,1.272862053E1
1.670602750E1,1.179661512E0,2.048256159E0,1.414995670E1
1.672557796E1,5.347958803E-1,1.690529227E0,1.482951832E1
1.674512843E1,1.880758643E0,1.239482164E0,1.455793285E1
1.676467890E1,3.347558975E0,1.147358418E0,1.361037540E1
1.678422932E1,3.975674868E0,1.529013634E0,1.253360462E1
1.680377979E1,3.114258766E0,2.450250387E0,1.061216831E1
1.682333026E1,1.351944804E0,3.146561861E0,8.855836868E0
1.684288072E1,-1.435693651E-1,3.014956474E0,8.596215248E0
1.686243119E1,-8.267202377E-1,2.953939438E0,9.168100357E0
1.688198166E1,-6.161518097E-1,3.274577856E0,9.576076508E0
1.690153208E1,-4.211367965E-1,3.081955671E0,9.506684303E0
1.692108255E1,-9.200403094E-1,2.508874655E0,8.568697929E0
1.694063302E1,-1.619940877E0,1.946561217E0,7.867600918E0
1.696018348E1,-2.030309916E0,1.530210137E0,7.379465103E0
1.697973390E1,-1.514656782E0,1.471585870E0,6.817151546E0
1.699928437E1,-7.417750359E-2,1.527817249E0,6.485745907E0
1.701883484E1,8.171489239E-1,1.616351724E0,6.589833736E0
1.703838526E1,4.713860750E-1,1.496710539E0,6.721438885E0
1.705793572E1,-4.630111754E-1,8.578268886E-1,6.626922131E0
1.707748619E1,-1.926222295E-1,9.128618240E-1,6.557530403E0
1.709703666E1,2.560320199E-1,9.523434043E-1,6.309873104E0
1.711658713E1,2.548356056E-1,1.493121386E0,5.925825119E0
1.713613755E1,2.751746029E-2,2.041077614E0,6.092126369E0
1.715568802E1,-1.083948612E0,2.212164640E0,7.502695560E0
1.717523848E1,-1.725225091E0,2.681157827E0,9.911071777E0
1.719478890E1,-9.403793216E-1,4.015156269E0,1.114935684E1
1.721433937E1,-9.655039310E-1,6.813562393E0,1.093639565E1
1.723388984E1,5.048855543E-1,8.013563156E0,1.034058285E1
1.725344031E1,2.303091764E0,5.371886730E0,1.255274773E1
1.727299072E1,1.802991867E0,3.098705292E0,1.410329628E1
1.729254119E1,7.776673883E-2,2.517249346E0,1.511905003E1
1.731209166E1,-9.667003751E-1,1.968096614E0,1.573161221E1
1.733164208E1,-1.155733347E0,1.896311998E0,1.499103355E1
1.735119255E1,-1.103091240E0,2.015953064E0,1.303011608E1
1.737074302E1,-5.120640397E-1,2.100898266E0,1.188395405E1
1.739029343E1,2.871387079E-2,1.948953986E0,1.155852985E1
1.740984390E1,3.517449200E-1,1.825723648E0,9.638289452E0
1.742939437E1,4.271188378E-1,1.782652855E0,7.155735970E0
1.744894479E1,2.153540403E-2,2.041077614E0,5.294120312E0
1.746849526E1,-6.017948985E-1,2.600998163E0,4.515256405E0
1.748804572E1,-1.495514154E0,3.065205812E0,4.515256405E0
1.750759614E1,-1.544566989E0,3.008974552E0,5.054837704E0
1.752714661E1,-8.027920127E-1,2.831905603E0,5.303691387E0
1.754669708E1,-7.405785918E-1,3.062813044E0,5.109872818E0
1.756624750E1,-8.434699774E-1,3.233899832E0,5.149354458E0
1.758579796E1,-1.024128079E0,2.933600664E0,6.101697922E0
1.760534843E1,-1.418943882E0,2.431107759E0,7.257431030E0
1.762489885E1,-1.435693622E0,2.579462767E0,6.971488953E0
1.764444932E1,-1.171286702E0,2.878565550E0,6.918846607E0
1.766399979E1,-9.427721500E-1,3.919443607E0,9.853643417E0
1.768355020E1,-4.761717021E-1,5.129015446E0,1.422293758E1
1.770310067E1,1.141376376E0,6.212964058E0,1.496112347E1
1.772265109E1,2.344966173E0,5.717649937E0,1.301097298E1
1.774220156E1,9.056833982E-1,4.254438877E0,1.176072311E1
1.776175203E1,-5.934200287E-1,2.565105915E0,1.377906895E1
1.778130244E1,-1.556531072E0,8.865407705E-1,1.735753632E1
1.780085291E1,-1.003789067E0,9.918249846E-1,1.727737617E1
1.782040338E1,1.038485050E0,2.494517565E0,1.391426373E1
1.783995380E1,1.721635938E0,3.672982693E0,1.045543861E1
1.785950427E1,1.116251707E0,3.914657831E0,8.335397720E0
1.787905468E1,2.656033039E-1,3.316452265E0,7.469195843E0
1.789860515E1,-6.053841114E-1,2.689532757E0,7.458428383E0
1.791815562E1,-9.104689956E-1,2.568695068E0,7.574480057E0
1.793770604E1,-1.070788145E0,2.459821701E0,7.042077065E0
1.795725650E1,-1.219143152E0,2.362912416E0,6.453442574E0
1.797680692E1,-9.403793216E-1,2.505285263E0,5.998806477E0
1.799635739E1,-7.046862841E-1,2.472982168E0,5.749952793E0
1.801590781E1,-4.749752879E-1,2.006381750E0,5.722435474E0
1.803545828E1,-1.615155339E-1,1.922633052E0,5.333601475E0
1.805500875E1,-7.680960894E-1,1.994417667E0,5.564508915E0
1.807455916E1,-4.761717021E-1,1.777867198E0,5.907878876E0
1.809410963E1,-8.123632669E-1,2.317448616E0,4.917250633E0
1.811366005E1,-1.447657704E0,2.861815929E0,4.613361835E0
1.813321052E1,7.369893789E-1,2.432304144E0,5.824130535E0
1.815276093E1,2.079362869E0,1.871187329E0,7.921439171E0
1.817231140E1,9.690931439E-1,2.312663078E0,8.513663292E0
1.819186187E1,-4.079762697E-1,3.205185890E0,1.002592659E1
1.821141229E1,-1.200000525E0,3.921836376E0,1.153819084E1
1.823096276E1,-1.165304661E0,3.667000771E0,1.141735363E1
1.825051317E1,-2.501696110E0,3.722035646E0,1.326700497E1
1.827006364E1,-4.205385685E0,3.710071564E0,1.680479431E1
1.828961406E1,-4.185046673E0,3.540181160E0,1.610967827E1
1.830916453E1,-4.144368649E0,4.199403763E0,1.353978729E1
1.832871500E1,-2.528017044E0,4.508078098E0,1.213520050E1
1.834826541E1,-1.009771109E0,3.572484255E0,9.495916367E0
1.836781588E1,-1.903490424E0,3.716053486E0,7.842476368E0
1.838736630E1,-3.850051641E0,3.384647608E0,7.734799385E0
1.840691677E1,-3.973282099E0,2.720639229E0,9.129815102E0
1.842646718E1,-3.111865759E0,2.416750908E0,9.414560318E0
1.844601765E1,-2.224128723E0,2.779263496E0,9.147761345E0
1.846556807E1,-9.858429432E-1,3.016152859E0,9.272188187E0
1.848511854E1,-9.092725813E-2,2.617748022E0,8.757730484E0
1.850466895E1,-3.852444589E-1,2.127219439E0,8.322237015E0
1.852421942E1,-1.146162033E0,1.781456470E0,7.776673794E0
1.854376984E1,-1.600798368E0,1.555334687E0,6.687939167E0
1.856332031E1,-1.246660590E0,1.427318692E0,5.475974560E0
1.858287072E1,-7.034898400E-1,1.548156261E0,4.510470867E0
1.860242119E1,-3.924229145E-1,1.843669891E0,3.617947817E0
1.862197161E1,-7.908278704E-1,1.290927768E0,2.861815929E0
1.864152208E1,-1.097109199E0,2.480160713E0,3.996013880E0
1.866107250E1,-5.168496966E-1,2.766103029E0,5.812166214E0
1.868062296E1,4.893322289E-1,3.020938635E0,7.925028801E0
1.870017338E1,1.310070395E0,3.961317778E0,9.543772697E0
1.871972385E1,1.232303619E0,5.103890896E0,1.205504036E1
1.873927427E1,-1.746760458E-1,6.046662807E0,1.304327583E1
1.875882473E1,-5.946164131E-1,6.848258495E0,1.473739433E1
1.877837515E1,1.220339537E0,6.827919483E0,1.607019615E1
1.879792562E1,4.905286312E0,5.103890896E0,1.625085449E1
1.881747604E1,5.876772404E0,3.597608805E0,1.671386528E1
1.883702650E1,4.687539577E0,2.425125837E0,1.706082535E1
1.885657692E1,2.744567633E0,1.568495274E0,1.573639774E1
1.887612739E1,6.951149702E-1,1.350748420E0,1.321316624E1
1.889567781E1,-5.324030519E-1,1.320838094E0,1.038604641E1
1.891522828E1,-5.730810165E-1,1.710868239E0,8.319844246E0
1.893477869E1,3.613162339E-1,2.207378864E0,7.560122967E0
1.895432916E1,1.599601984E0,2.251646042E0,7.651050568E0
1.897387958E1,1.718046665E0,2.000399828E0,7.414160728E0
1.899343005E1,7.980063558E-1,1.917847395E0,6.443871498E0
1.901298046E1,-3.302095234E-1,2.032702923E0,5.278566837E0
1.903253093E1,-6.879364848E-1,2.245664120E0,5.024927616E0
1.905208135E1,-5.419743061E-1,1.871187329E0,5.825326920E0
1.907163182E1,-9.846464992E-1,1.537388563E0,6.979863644E0
1.909118223E1,-1.263410330E0,1.575673699E0,7.066005230E0
1.911073265E1,-6.448656917E-1,1.548156261E0,6.692724705E0
1.913028312E1,-3.337987661E-1,2.060220242E0,6.574280262E0
1.914983359E1,-5.587241054E-1,2.572284460E0,7.180860519E0
1.916938400E1,-2.476571500E-1,2.461018085E0,8.286344528E0
1.918893442E1,6.951149702E-1,1.914258122E0,8.644071579E0
1.920848489E1,1.165304661E0,2.123630047E0,8.240880966E0
1.922803531E1,7.573283911E-1,3.075973511E0,7.686942577E0
1.924758578E1,7.537391037E-2,3.583251953E0,8.550751686E0
1.926713619E1,-7.896314561E-2,3.515056372E0,1.051047325E1
1.928668666E1,-1.172483116E-1,3.863212109E0,1.121037388E1
1.930623708E1,-5.503492057E-2,5.157729149E0,1.063609695E1
1.932578755E1,-1.292124242E-1,6.325426579E0,1.071147060E1
1.934533796E1,-3.625126183E-1,6.559923172E0,1.223689461E1
1.936488843E1,3.098705411E-1,5.966503143E0,1.284467220E1
1.938443885E1,5.647061467E-1,5.676971912E0,1.157408333E1
1.940398927E1,1.028913707E-1,5.727221012E0,1.020538902E1
1.942353973E1,-6.161518097E-1,5.473581791E0,9.327222824E0
1.944309015E1,-9.786644578E-1,5.242674351E0,8.481359482E0
1.946264062E1,-8.075776696E-1,4.840680122E0,7.544569969E0
1.948219104E1,-1.176072359E0,4.439882278E0,7.587640762E0
1.950174151E1,-1.707278967E0,3.864408493E0,8.847461700E0
1.952129192E1,-1.770688772E0,3.449253798E0,1.005583763E1
1.954084239E1,-1.757528186E0,3.232703447E0,1.011685371E1
1.956039281E1,-1.896311998E0,3.128615618E0,9.207581520E0
1.957994322E1,-2.293520451E0,2.991028309E0,8.554341316E0
1.959949369E1,-2.313859463E0,2.696711063E0,8.200202942E0
1.961904411E1,-1.823330879E0,2.757728100E0,7.792226791E0
1.963859458E1,-1.089930773E0,3.110669374E0,7.351947784E0
1.965814500E1,-1.012163997E0,3.395415306E0,7.344769001E0
1.967769546E1,-2.079362869E0,3.708875179E0,8.036294937E0
1.969724588E1,-3.090330362E0,3.440878868E0,7.957331657E0
1.971679635E1,-3.632304668E0,2.967100143E0,7.015756130E0
1.973634677E1,-3.716053486E0,2.683550596E0,6.162714481E0
1.975589718E1,-3.261417150E0,2.896511793E0,6.525227547E0
1.977544765E1,-2.465803623E0,3.297309637E0,8.679964066E0
1.979499807E1,-1.843669891E0,3.802195072E0,1.037767220E1
1.981454854E1,-2.281556368E0,4.463810444E0,1.041835022E1
1.983409895E1,-1.300499082E0,4.919643402E0,1.031665516E1
1.985364942E1,6.963114142E-1,5.791827202E0,1.158006477E1
1.987319984E1,2.748156786E0,5.690132141E0,1.302054405E1
1.989275026E1,3.133401155E0,5.609972477E0,1.347637749E1
1.991230072E1,3.416950703E0,5.196014404E0,1.242951679E1
1.993185114E1,3.208775282E0,4.904089928E0,1.103450203E1
1.995140161E1,1.903490424E0,4.334598064E0,1.064207840E1
1.997095203E1,8.123632669E-1,3.639483213E0,1.051047325E1
1.999050250E1,1.591227055E-1,3.156133175E0,9.970891953E0
2.001005291E1,-3.182454109E-1,3.314059258E0,8.962317467E0
2.002960333E1,-1.002592683E0,3.751945972E0,7.807780266E0
2.004915380E1,-1.281356573E0,4.261617184E0,6.911668301E0
2.006870421E1,-1.071984529E0,4.112065792E0,6.661618233E0
2.008825468E1,-4.941178858E-1,3.387040377E0,6.982256413E0
2.010780510E1,-6.975077987E-1,2.380858421E0,8.352147102E0
2.012735552E1,-1.628315806E0,1.808973908E0,9.987641335E0
2.014690598E1,-2.793620348E0,1.513460279E0,1.083111191E1
2.016645640E1,-3.498306751E0,1.180858016E0,1.029631615E1
2.018600687E1,-3.583251953E0,1.491924882E0,9.364311218E0
2.020555729E1,-3.110669374E0,1.871187329E0,8.224131584E0
2.022510776E1,-2.671586514E0,2.729014158E0,7.599604607E0
2.024465817E1,-1.481157184E0,2.947957516E0,8.935996056E0
2.026420859E1,-2.584248483E-1,2.666800737E0,8.440681458E0
2.028375906E1,3.314059377E-1,2.980260611E0,6.666403770E0
2.030330947E1,3.158525825E-1,3.287738323E0,6.695117950E0
2.032285989E1,9.284151793E-1,2.632104874E0,8.323433876E0
2.034241036E1,9.667003751E-1,1.965703845E0,8.840283394E0
2.036196078E1,1.686939895E-1,1.767099500E0,8.149953842E0
2.038151124E1,2.524427772E-1,2.032702923E0,7.840083599E0
2.040106166E1,8.542376757E-1,2.088934183E0,7.808976650E0
2.042061208E1,5.886343718E-1,2.323430777E0,7.757531166E0
2.044016255E1,9.523434043E-1,2.104487419E0,8.224131584E0
2.045971296E1,2.919243574E-1,2.557927370E0,8.800801277E0
2.047926343E1,-1.813759565E0,3.650250912E0,8.840283394E0
2.049881385E1,-2.439482689E0,4.248456478E0,8.420342445E0
2.051836427E1,-1.347159147E0,4.675575256E0,8.752944946E0
2.053791473E1,-1.037288666E0,5.542973518E0,1.135872936E1
2.055746515E1,-1.867598057E0,6.333801746E0,1.451007652E1
2.057701562E1,-3.170490026E0,6.537191391E0,1.343928814E1
2.059656604E1,-3.651447296E0,6.771687984E0,1.087178993E1
2.061611645E1,-1.397408366E0,6.805187702E0,1.022213840E1
2.063566692E1,-5.623133108E-2,6.583851337E0,1.014197922E1
2.065521734E1,-3.062812984E-1,5.918646812E0,1.000080204E1
2.067476781E1,-1.094716311E0,5.401797295E0,1.036451149E1
2.069431822E1,-2.287538528E0,4.869394302E0,1.071864891E1
2.071386864E1,-3.463610888E0,4.295116425E0,1.007497978E1
2.073341911E1,-3.064009428E0,3.101098061E0,8.834300995E0
2.075296953E1,-5.670989752E-1,2.143969059E0,7.610372543E0
2.077252000E1,4.905286431E-1,2.161915302E0,6.501298904E0
2.079207041E1,-1.024128079E0,2.733799934E0,6.649653912E0
2.081162083E1,-2.226521492E0,2.014756680E0,6.661618233E0
2.083117130E1,-1.905883193E0,1.384247899E0,6.601797581E0
2.085072171E1,-5.479564071E-1,1.409372568E0,5.958128452E0
2.087027218E1,-4.354937077E-1,1.654636860E0,4.561916351E0
2.088982260E1,-1.593619823E0,1.756331801E0,3.836891174E0
2.090937302E1,-3.396611691E0,1.795813441E0,4.104887009E0
2.092892348E1,-3.769891977E0,1.527817249E0,4.899304390E0
2.094847390E1,-3.047259569E0,1.555334687E0,5.397011280E0
2.096802432E1,-2.494517565E0,2.616551638E0,6.351747513E0
2.098757479E1,-1.366301775E0,4.565505505E0,6.830312252E0
2.100712520E1,-2.895315409E0,5.629115105E0,5.822933674E0
2.102667567E1,-4.983053207E0,5.418546677E0,5.753541946E0
2.104622609E1,-4.813162804E0,6.738188744E0,9.491130829E0
2.106577651E1,-1.386640668E0,7.296912670E0,1.359242916E1
2.108532697E1,-1.846062660E0,6.790830612E0,1.535474300E1
2.110487739E1,-5.105087280E0,6.063412666E0,1.685025787E1
2.112442781E1,-5.350351334E0,5.246263504E0,1.679641914E1
2.114397828E1,-3.603590965E0,5.359922886E0,1.434377575E1
2.116352869E1,-1.037288666E0,5.387440205E0,1.179781246E1
2.118307916E1,1.536192179E0,5.201996326E0,1.122832012E1
2.120262958E1,2.133201361E0,4.616951466E0,1.133839035E1
2.122218000E1,6.340979934E-1,4.966303349E0,1.100818062E1
2.124173046E1,1.104287624E0,3.655036688E0,9.684949875E0
2.126128088E1,1.123430252E0,4.057030678E0,9.556933403E0
2.128083135E1,1.530210137E0,4.652843475E0,9.163313866E0
2.130038177E1,1.088734269E0,4.748556614E0,7.978867054E0
2.131993218E1,-2.392822690E-2,3.521038532E0,6.626922131E0
2.133948265E1,-1.704886079E0,2.319841623E0,6.855436802E0
2.135903307E1,-2.836691141E0,2.231307030E0,6.293123722E0
2.137858354E1,-2.536391973E0,2.719442844E0,5.441278458E0
2.139813395E1,-1.025324464E0,2.427518606E0,4.472185612E0
2.141768437E1,5.144568682E-1,2.715853691E0,3.640679598E0
2.143723484E1,1.104287624E0,3.428914785E0,3.259024382E0
2.145678526E1,2.428714931E-1,3.923032761E0,3.839283943E0
2.147633567E1,5.862415582E-2,2.928814888E0,5.129015446E0
2.149588614E1,5.144568682E-1,3.524627686E0,5.727221012E0
2.151543656E1,-2.883351147E-1,3.364308596E0,8.275577545E0
2.153498697E1,-3.048455954E0,3.724428415E0,1.164227867E1
2.155453744E1,-3.268595695E0,5.937789440E0,1.163151073E1
2.157408786E1,-1.698904037E0,7.732406139E0,9.229117393E0
2.159363833E1,3.110669367E-2,6.872186661E0,7.028916359E0
2.161318875E1,-2.070987940E0,6.870990276E0,8.333004951E0
2.163273916E1,-2.590230465E0,7.210771084E0,1.167338562E1
2.165228963E1,-9.056833982E-1,6.466603279E0,1.285424328E1
2.167184005E1,-1.015753269E0,6.439085960E0,1.032144070E1
2.169139052E1,-4.833501875E-1,6.141179085E0,7.342376232E0
2.171094093E1,1.996810555E0,6.417550564E0,6.672386169E0
2.173049135E1,1.728814363E0,6.126822472E0,8.233702660E0
2.175004182E1,7.178467698E-3,5.319244862E0,1.004626560E1
2.176959223E1,-7.537391186E-1,4.761716843E0,9.403793335E0
2.178914265E1,-5.240281820E-1,3.917050600E0,7.879564762E0
2.180869312E1,-4.319044948E-1,3.054438114E0,5.782256126E0
2.182824354E1,8.267202377E-1,3.085544825E0,5.157729149E0
2.184779400E1,2.620140791E0,3.282952785E0,5.576473236E0
2.186734442E1,3.469592810E0,2.611765862E0,4.575077057E0
2.188689484E1,2.289931297E0,1.362712502E0,8.103293419E0
2.190644531E1,1.013360381E0,2.553141832E0,1.017787075E1
2.192599572E1,-5.204389095E-1,5.292923450E0,1.044467068E1
2.194554619E1,5.072783828E-1,3.743571043E0,8.590232849E0
2.196509661E1,2.299502611E0,3.154936552E0,9.316454887E0
2.198464703E1,2.009970993E-1,5.621936798E0,1.463928890E1
2.200419750E1,1.517049551E0,7.550551891E0,1.400997639E1
2.202374791E1,3.188436270E0,6.917650223E0,7.484749317E0
2.204329833E1,2.183450699E0,7.840083599E0,6.281159401E0
2.206284880E1,-4.530809879E0,1.158485126E1,1.501137257E1
2.208239921E1,-5.252245665E-1,8.472985268E0,1.399442291E1
2.210194968E1,1.542174220E0,5.469992638E0,8.773283958E0
2.212150010E1,3.720839322E-1,7.379465103E0,6.746563435E0
2.214105052E1,2.153540403E-2,6.745367050E0,6.135197163E0
2.216060098E1,-6.053841114E-1,5.350351334E0,7.373483181E0
2.218015140E1,-1.764706731E0,5.235496044E0,8.163114548E0
2.219970182E1,-1.380658627E0,4.508078098E0,7.381857872E0
2.221925229E1,-1.073180914E0,3.911068678E0,7.563712597E0
2.223880270E1,-1.137787223E0,3.678964853E0,6.368497372E0
2.225835312E1,-1.661815286E0,4.346562386E0,5.054837704E0
2.227790359E1,-1.629512191E0,4.328616142E0,5.082355499E0
2.229745400E1,-8.662018180E-1,3.865604877E0,5.834897995E0
2.231700447E1,-4.223332107E-1,3.628715515E0,6.234499454E0
2.233655489E1,-2.847459018E-1,3.458825111E0,5.839683533E0
2.235610531E1,-2.787638307E-1,3.178864956E0,5.498706341E0
2.237565578E1,-7.788637877E-1,3.318845034E0,3.698107481E0
2.239520619E1,-1.734796464E-1,3.486342669E0,4.370490551E0
2.241475661E1,2.644068897E-1,3.748356581E0,5.919843197E0
2.243430708E1,1.253839016E0,3.888336897E0,6.893722057E0
2.245385750E1,1.094716311E0,4.159922123E0,8.379665375E0
2.247340796E1,2.979064286E-1,5.297709465E0,8.843872070E0
2.249295838E1,-5.108676553E-1,6.563512325E0,9.840482712E0
2.252753385E1,6.340979785E-2,2.714657307E0,9.114261627E0
2.254708427E1,2.069791555E-1,2.653640270E0,9.479166985E0
2.256663463E1,-1.220339537E-1,2.768495798E0,9.376275063E0
2.258618500E1,-2.333002090E-1,2.965903759E0,9.113064766E0
2.260573536E1,-6.340979785E-2,3.016152859E0,8.871390343E0
2.262528573E1,6.939185411E-2,2.886940479E0,8.289934158E0
2.264483609E1,-3.326023519E-1,2.650051117E0,8.100900650E0
2.266438646E1,-6.281159520E-1,2.642872572E0,8.331808090E0
2.268393682E1,-5.108676553E-1,2.456232548E0,7.941778183E0
2.270348719E1,-3.876372576E-1,2.239681959E0,7.409375191E0
2.272303755E1,7.298108935E-2,1.927418590E0,7.384250641E0
2.274258797E1,-4.905286431E-1,1.573280931E0,7.372286797E0
2.276213833E1,-4.187439680E-1,1.368694544E0,7.244270325E0
2.278168870E1,-3.038884699E-1,1.085145116E0,7.307680130E0
2.280123906E1,-2.242074728E0,1.493121386E0,7.168896675E0
2.282078943E1,-1.635494232E0,1.951346874E0,6.796812534E0
2.284033979E1,-1.381855130E0,2.009970903E0,6.376872540E0
2.285989016E1,-7.956135273E-1,2.063809633E0,6.489335060E0
2.287944052E1,8.087740541E-1,2.281556368E0,7.196413994E0
2.289899088E1,1.747956991E0,2.535195589E0,8.979066849E0
2.291854125E1,9.595218897E-1,3.298506021E0,1.122712421E1
2.293809161E1,5.958128572E-1,4.012763500E0,1.220219898E1
2.295764198E1,1.696511269E0,4.788038254E0,1.262692547E1
2.297719234E1,1.934597135E0,5.657829285E0,1.291167068E1
2.299674271E1,-3.242274821E-1,5.410171986E0,1.102732277E1
2.301629307E1,-1.317248821E0,3.902693748E0,1.568973827E1
2.303584349E1,-1.058824062E0,4.052245140E0,1.208255768E1
2.305539380E1,-2.579462767E0,4.797609329E0,9.884750366E0
2.307494417E1,-1.488335729E0,5.341976643E0,1.105962658E1
2.309449458E1,-1.854437590E0,4.398007870E0,1.014556789E1
2.311404495E1,-1.975275040E0,3.297309637E0,9.944570541E0
2.313359531E1,-7.561319470E-1,2.187039852E0,1.057507992E1
2.315314568E1,2.153540403E-2,1.665404558E0,9.738788605E0
2.317269604E1,2.440679073E-1,1.422533035E0,7.314858913E0
2.319224640E1,1.986042857E-1,7.453642488E-1,5.131408215E0
2.321179677E1,1.446461320E0,8.793623447E-1,3.664607763E0
2.323134713E1,9.200403094E-1,1.698904037E0,2.494517565E0
2.325089750E1,-2.199003935E0,3.286541939E0,3.230310678E0
2.327044786E1,-2.269592285E0,2.995813847E0,5.767899036E0
2.328999823E1,2.859423161E-1,2.797209740E0,5.532206059E0
2.330954859E1,1.153340459E0,2.474178553E0,4.890929699E0
2.332909896E1,-4.701896608E-1,1.671386600E0,6.710670948E0
2.334864932E1,-1.753939033E0,1.507478237E0,8.961120605E0
2.336819969E1,-1.922633052E0,2.970689297E0,9.900303841E0
2.338775005E1,-5.515456200E-1,3.571287870E0,1.174756241E1
2.340730042E1,-6.628118753E-1,3.293720484E0,1.550309753E1
2.342685078E1,-5.431707501E-1,3.433700562E0,1.712782478E1
2.344640109E1,6.041877270E-1,2.379662037E0,1.772603035E1
2.346595151E1,2.248056889E0,1.177268744E0,1.931965065E1
2.348550182E1,4.165904045E0,1.308874011E0,1.881476402E1
2.350505219E1,3.010170937E0,1.694118381E0,1.503171158E1
2.352460255E1,1.357926846E0,2.250449657E0,1.081675434E1
2.354415292E1,8.721838593E-1,3.075973511E0,7.750352383E0
2.356370328E1,-3.026920557E-1,3.171686411E0,6.707081795E0
2.358325364E1,-1.038485050E0,2.231307030E0,6.684350014E0
2.360280401E1,-1.326820135E0,1.822134495E0,7.563712597E0
2.362235437E1,-2.152343988E0,8.829515576E-1,8.913264275E0
2.364190474E1,-1.963310957E0,6.101697683E-1,8.962317467E0
2.366145510E1,-1.272981644E0,9.595218897E-1,7.873582840E0
2.368100547E1,-1.117448211E0,1.016949654E0,7.319644451E0
2.370055583E1,-2.062613010E0,7.298108935E-1,7.560122967E0
2.372010620E1,-2.919243574E0,4.366901219E-1,5.721239090E0
2.373965656E1,-6.329016089E-1,7.202396393E-1,5.196014404E0
2.375920693E1,9.822536707E-1,1.715653777E0,5.142175674E0
2.377875724E1,4.953143001E-1,1.847259045E0,5.402993679E0
2.379830760E1,-4.761717021E-1,8.027920127E-1,5.124229908E0
2.381785797E1,-3.170489967E-1,3.577269912E-1,5.458028316E0
2.383740833E1,8.614161611E-2,-1.435693540E-2,6.923632145E0
2.385695870E1,1.004985496E-1,1.314856052E0,7.356733322E0
2.387650906E1,7.537391037E-2,2.063809633E0,8.934800148E0
2.389605943E1,1.280160099E-1,2.518445730E0,1.112662506E1
2.391560979E1,1.974078715E-1,2.956332445E0,1.261855030E1
2.393516016E1,-1.184447184E-1,3.972085476E0,1.304925823E1
2.395471052E1,-1.615155339E-1,3.505485058E0,1.421815205E1
2.397426083E1,-1.128215909E0,2.023131609E0,1.547438431E1
2.399381120E1,-4.761717021E-1,1.561316729E0,1.633340645E1
2.401336156E1,2.285145670E-1,2.606980324E0,1.595055580E1
2.403291193E1,-4.905286431E-2,3.799802303E0,1.446461296E1
2.405246229E1,-2.368894368E-1,3.603590965E0,1.293918800E1
2.407201265E1,-1.746760458E-1,3.165704250E0,1.153938675E1
2.409156302E1,-3.050848842E-1,2.542374134E0,1.003789139E1
2.411111333E1,-8.554341197E-1,1.757528186E0,9.156135559E0
2.413066370E1,-1.141376376E0,1.343569875E0,8.039883614E0
2.415021406E1,-9.547362328E-1,1.509871125E0,6.899703979E0
2.416976443E1,-6.293123364E-1,1.966900229E0,6.254838467E0
2.418931479E1,-3.194418252E-1,2.419143677E0,6.153143406E0
2.420886515E1,-8.135596663E-2,2.432304144E0,6.339783669E0
2.422841552E1,-3.409772217E-1,1.812563181E0,7.038487911E0
2.424796583E1,-4.821537733E-1,1.235892892E0,7.500302792E0
2.426751620E1,-6.819544733E-2,1.045663476E0,7.223931789E0
2.428706656E1,8.853443712E-2,8.303094506E-1,7.037291527E0
2.430661693E1,-7.968099117E-1,1.138983607E0,7.225128174E0
2.432616729E1,-4.654040039E-1,9.930213690E-1,7.293323517E0
2.434571765E1,-1.159322619E0,1.580459356E0,7.031309128E0
2.436526797E1,-1.373480201E0,2.311466694E0,6.775277138E0
2.438481833E1,-1.044467092E0,2.044667006E0,8.385646820E0
2.440436870E1,-1.922633052E0,1.789831281E0,1.167099285E1
2.442391906E1,-2.334198475E0,2.429911375E0,1.260778236E1
2.444346943E1,-1.697707653E0,3.007778168E0,1.200479126E1
2.446301974E1,-5.934200287E-1,3.178864956E0,1.084427261E1
2.448257010E1,3.541377485E-1,2.999403238E0,1.105484104E1
2.450212047E1,1.902294010E-1,3.115455151E0,1.180618668E1
2.452167083E1,7.010970116E-1,3.779463291E0,1.212921810E1
2.454122120E1,1.168893814E0,3.938585997E0,1.198923779E1
2.456077151E1,1.019342422E0,3.475574970E0,1.228475189E1
2.458032187E1,9.643075466E-1,2.262413740E0,1.298225880E1
2.459987224E1,1.000199914E0,1.402194023E0,1.353141212E1
2.461942260E1,1.133001566E0,1.250249863E0,1.347518063E1
2.463897297E1,9.176474810E-1,1.691725612E0,1.218425274E1
2.465852328E1,1.734796464E-1,2.416750908E0,9.803394318E0
2.467807364E1,-2.943171859E-1,2.685943365E0,7.934599876E0
2.469762401E1,-1.268195957E-1,2.513660192E0,7.018148899E0
2.471717437E1,-6.580262631E-2,2.426322222E0,6.774080753E0
2.473672469E1,-2.141576260E-1,2.102094650E0,7.068397999E0
2.475627505E1,-3.948157430E-1,1.546959877E0,7.934599876E0
2.477582542E1,-5.790630579E-1,1.124626637E0,8.359326363E0
2.479537578E1,-5.096712112E-1,1.147358418E0,8.148757935E0
2.481492614E1,-6.939185411E-2,1.496710539E0,7.615158081E0
2.483447646E1,2.907279432E-1,1.731207132E0,7.403393269E0
2.485402682E1,3.756731451E-1,1.639083505E0,7.594819069E0
2.487357719E1,4.043870270E-1,1.409372568E0,7.539783955E0
2.489312750E1,2.488535494E-1,1.330409408E0,7.430910587E0
2.491267786E1,1.950150430E-1,1.444068432E0,7.226324558E0
2.493222823E1,2.775674164E-1,1.899901152E0,6.853044033E0
2.495177859E1,3.744767308E-1,2.124826431E0,7.353144169E0
2.497132890E1,4.749752879E-1,1.788634896E0,8.817551613E0
2.499087927E1,1.030110121E0,2.072184324E0,9.466006279E0
2.501042963E1,1.505085468E0,2.766103029E0,9.858428955E0
2.502998000E1,1.170090318E0,2.699103832E0,1.120199966E1
2.504953031E1,2.177468538E-1,1.875972986E0,1.414875984E1
2.506908068E1,1.674975902E-1,1.220339537E0,1.609651756E1
2.508863104E1,-1.950150430E-1,9.104689956E-1,1.604387665E1
2.510818140E1,2.117647976E-1,8.602197170E-1,1.399561977E1
2.512773172E1,6.400800347E-1,1.271785259E0,1.225005531E1
2.514728208E1,2.955136001E-1,2.498106956E0,1.145324516E1
2.516683245E1,-7.190431952E-1,3.852444410E0,1.013719273E1
2.518638276E1,-8.243274093E-1,4.205385685E0,9.006584167E0
2.520593312E1,-7.585247755E-1,3.780659676E0,9.102297783E0
2.522548349E1,8.853443712E-2,2.934797049E0,1.026401234E1
2.524503385E1,9.248259664E-1,2.072184324E0,1.135992527E1
2.526458417E1,1.012163997E0,1.623530149E0,1.139581776E1
2.528413453E1,8.997012973E-1,1.651047587E0,9.748359680E0
2.530368490E1,8.446664214E-1,1.655833244E0,7.981259823E0
2.532323521E1,2.620140910E-1,1.562513232E0,7.458428383E0
2.534278557E1,5.742774159E-2,1.923829436E0,7.371089935E0
2.536233594E1,1.663011760E-1,2.132004976E0,7.028916359E0
2.538188630E1,2.847459018E-1,2.169093609E0,6.357729912E0
2.540143661E1,3.672982752E-1,2.085345030E0,5.746363640E0
2.542098698E1,4.390829504E-1,1.892722726E0,6.004788399E0
2.544053734E1,5.443671346E-1,1.585245013E0,6.550352097E0
2.546008766E1,4.259224236E-1,1.192822099E0,7.170093060E0
2.547963802E1,1.998006850E-1,1.183250785E0,7.440482140E0
2.549918838E1,6.065805554E-1,9.104689956E-1,7.689335346E0
2.551873870E1,9.882357717E-1,7.836494446E-1,8.469395638E0
2.553828906E1,3.972085714E-1,1.642672777E0,8.498109818E0
2.555783943E1,-5.934200287E-1,2.965903759E0,7.590033531E0
2.557738974E1,-9.595218897E-1,3.741178274E0,7.491927624E0
2.559694010E1,-1.398604870E0,3.694518089E0,8.676374435E0
2.561649047E1,-1.534995675E0,3.406183004E0,9.680164337E0
2.563604078E1,-1.456032634E0,3.194418192E0,9.739984512E0
2.565559114E1,-1.485942841E0,3.280559778E0,9.833304405E0
2.567514151E1,-1.897508383E0,3.504288673E0,1.049970531E1
2.569469182E1,-1.917847395E0,3.049652576E0,1.130728340E1
2.571424219E1,-1.232303619E0,2.879761934E0,1.170808125E1
2.573379255E1,-8.781659007E-1,2.839084148E0,1.114217854E1
2.575334286E1,-8.781659007E-1,2.325823545E0,9.981659889E0
2.577289323E1,-3.182454109E-1,9.894321561E-1,9.963713646E0
2.579244359E1,-4.007977843E-1,-8.015955985E-2,1.139821053E1
2.581199390E1,-1.068395257E0,4.534398913E-1,1.249292660E1
2.583154427E1,-1.433300734E0,1.499103427E0,1.277288723E1
2.585109463E1,-1.670190215E0,2.312663078E0,1.273819160E1
2.587064495E1,-5.599204898E-1,1.566102386E0,1.242353535E1
2.589019531E1,1.770688742E-1,6.819544435E-1,1.210528946E1
2.590974568E1,2.811566591E-1,1.028913707E-1,1.156810093E1
2.592929599E1,1.555334777E-1,-4.725824594E-1,1.168295670E1
2.594884635E1,5.036891699E-1,-6.173482537E-1,1.168056393E1
2.596839672E1,1.162911773E0,1.890329868E-1,1.126181984E1
2.598794703E1,5.132604837E-1,1.213161111E0,1.083350468E1
2.600749740E1,-2.129612118E-1,1.677368641E0,1.037647533E1
2.602704771E1,-7.776673883E-2,1.349551916E0,9.720842361E0
2.604659807E1,1.076770201E-2,1.027717352E0,8.991030693E0
2.606614844E1,2.871387079E-2,9.487541914E-1,8.353343964E0
2.608569875E1,8.733802289E-2,1.092323542E0,8.171489716E0
2.610524911E1,-1.782652885E-1,1.180858016E0,8.571090698E0
2.612479948E1,-1.172483116E-1,1.060020447E0,8.534002304E0
2.614434979E1,5.383851007E-2,1.051645517E0,8.234899521E0
2.616390016E1,4.426721856E-2,1.153340459E0,7.984848976E0
2.618345052E1,9.571290761E-2,1.404586911E0,7.813762188E0
2.620300083E1,3.146561682E-1,1.554138303E0,7.493124008E0
2.622255120E1,4.019941986E-1,1.416550994E0,7.300501823E0
2.624210151E1,5.802595019E-1,1.210768223E0,7.208378315E0
2.626165187E1,7.453642488E-1,1.040877819E0,7.153343201E0
2.628120224E1,7.142575383E-1,9.607182741E-1,7.170093060E0
2.630075255E1,3.517449200E-1,1.293320656E0,7.402196884E0
2.632030292E1,6.939185411E-2,1.911865234E0,7.403393269E0
2.633985328E1,1.076770201E-2,2.237289190E0,7.366304398E0
2.635940359E1,-1.806581169E-1,2.051845312E0,7.694121361E0
2.637895396E1,-3.146561682E-1,1.934597135E0,8.118846893E0
2.639850432E1,2.009970993E-1,2.400001049E0,8.420342445E0
2.641805463E1,2.512463629E-1,2.952743053E0,8.279166222E0
2.643760500E1,-5.024927482E-2,2.699103832E0,8.495717049E0
2.645715531E1,-6.927221417E-1,2.790031195E0,9.650253296E0
2.647670568E1,-1.196411327E-1,4.529613495E0,1.140180016E1
2.649625604E1,2.931207716E-1,5.273781300E0,1.306361485E1
2.651580635E1,1.734796464E-1,3.817748547E0,1.362114334E1
2.653535672E1,2.309073806E-1,2.957528830E0,1.446222019E1
2.655490708E1,1.374676585E0,2.098505497E0,1.554257965E1
2.657445740E1,8.494520187E-1,1.150947690E0,1.564786339E1
2.659400776E1,1.004985496E-1,1.332802176E0,1.371326637E1
2.661355807E1,-1.411765367E-1,2.413161755E0,1.135155106E1
2.663310844E1,-2.620140910E-1,3.571287870E0,1.016471100E1
2.665265880E1,-6.508477330E-1,3.882354736E0,9.595218658E0
2.667220911E1,-1.147358418E0,3.128615618E0,9.152546883E0
2.669175948E1,-1.130608678E0,2.586641312E0,8.673981667E0
2.671130979E1,-6.759724021E-1,2.047059774E0,8.947959900E0
2.673086016E1,-3.146561682E-1,1.780260086E0,9.072386742E0
2.675041052E1,3.230310604E-2,1.887937069E0,8.868997574E0
2.676996083E1,2.201396823E-1,2.133201361E0,8.201399803E0
2.678951120E1,4.247260094E-1,2.224128723E0,7.430910587E0
2.680906151E1,5.371887088E-1,2.236092806E0,7.423732281E0
2.682861187E1,6.508477330E-1,2.287538528E0,7.574480057E0
2.684816224E1,7.094719410E-1,2.317448616E0,7.131807804E0
2.686771255E1,8.446664214E-1,2.215753794E0,6.545566559E0
2.688726292E1,6.843472719E-1,1.914258122E0,6.080162525E0
2.690681323E1,1.842473447E-1,2.183450699E0,6.196214199E0
2.692636359E1,-2.129612118E-1,2.817548752E0,6.526423931E0
2.694591396E1,-9.212367237E-2,3.006581545E0,6.591030121E0
2.696546427E1,3.361915946E-1,3.097508907E0,7.153343201E0
2.698501463E1,5.623133108E-2,3.032902718E0,8.224131584E0
2.700456495E1,2.871387079E-2,3.079562664E0,8.530412674E0
2.702411531E1,-1.052841991E-1,3.366701365E0,7.977670670E0
2.704366568E1,-3.996013701E-1,3.789034605E0,7.874779224E0
2.706321599E1,-6.879364848E-1,3.841676712E0,8.300702095E0
2.708276635E1,-8.673982024E-1,3.969692707E0,8.744570732E0
2.710231672E1,-8.626125455E-1,3.828516245E0,9.419346809E0
2.712186703E1,-6.723831892E-1,3.548556089E0,1.009172916E1
2.714141739E1,-8.183453679E-1,3.565305710E0,1.077607632E1
2.716096771E1,3.589233849E-3,3.658625841E0,1.114696407E1
2.718051807E1,4.187439680E-1,3.603590965E0,1.182174015E1
2.720006844E1,1.567298770E-1,3.321237803E0,1.237687492E1
2.721961875E1,6.460621208E-2,3.310470104E0,1.252283764E1
2.723916911E1,4.438686073E-1,3.680161238E0,1.203829098E1
2.725871943E1,9.583254457E-1,3.588037491E0,1.211366463E1
2.727826979E1,1.099501967E0,3.084348440E0,1.306600761E1
2.729782016E1,1.277767301E0,2.587837696E0,1.369412422E1
2.731737047E1,1.580459356E0,2.569891453E0,1.304686546E1
2.733692083E1,1.795813441E0,2.730210543E0,1.140897846E1
2.735647114E1,2.024327993E0,3.012563705E0,9.895518303E0
2.737602151E1,2.196611166E0,3.450450182E0,9.012566566E0
2.739557182E1,2.075773716E0,3.542573929E0,9.199206352E0
2.741512219E1,1.597209096E0,3.146561861E0,9.385847092E0
2.743467255E1,1.046859860E0,2.884547710E0,8.748159409E0
2.745422286E1,8.709874153E-1,2.998206854E0,8.088936806E0
2.747377323E1,7.716853023E-1,3.193221807E0,7.801798344E0
2.749332359E1,5.599204898E-1,3.269792080E0,7.725227833E0
2.751287390E1,4.486542344E-1,3.235096216E0,7.791030407E0
2.753242427E1,2.572284341E-1,3.144168854E0,7.715656757E0
2.755197458E1,1.914258115E-2,3.174079180E0,7.481160164E0
2.757152495E1,7.058826834E-2,3.038884640E0,7.324429989E0
2.759107526E1,2.943171859E-1,2.705085993E0,7.835297585E0
2.761062562E1,2.943171859E-1,2.435893536E0,8.431110382E0
2.763017599E1,2.823530734E-1,2.237289190E0,8.694320679E0
2.764972630E1,1.124626622E-1,2.207378864E0,8.719446182E0
2.766927667E1,2.129612118E-1,2.374876499E0,8.597412109E0
2.768882698E1,4.486542344E-1,2.478964329E0,8.140382767E0
2.770837734E1,4.199403822E-1,2.457428932E0,7.532605648E0
2.772792771E1,3.421736360E-1,2.311466694E0,7.161718369E0
2.774747802E1,4.079762697E-1,2.127219439E0,7.314858913E0
2.776702838E1,4.821537733E-1,2.142772675E0,7.377072334E0
2.778657875E1,5.335994363E-1,2.501696110E0,7.032505512E0
2.780612906E1,9.631111026E-1,2.608176708E0,7.112665176E0
2.782567943E1,1.329213023E0,2.059023857E0,8.018348694E0
2.784522974E1,1.586441398E0,2.024327993E0,8.886942863E0
2.786478010E1,1.630708575E0,2.913261652E0,9.067601204E0
2.788433047E1,2.609373093E0,2.977867842E0,9.053244591E0
2.790388078E1,3.261417150E0,2.214557409E0,1.038365364E1
2.792343114E1,2.262413740E0,2.171486616E0,1.211007500E1
2.794298146E1,1.938186288E0,3.212364435E0,1.213998604E1
2.796253182E1,1.454836130E0,4.791627407E0,1.130130100E1
2.798208219E1,1.567298770E-1,6.015556335E0,1.120678520E1
2.800163250E1,3.553341627E-1,5.167300701E0,1.149751282E1
2.802118286E1,1.015753269E0,4.151547432E0,1.222253799E1
2.804073318E1,6.699903309E-2,5.222335339E0,1.293200970E1
2.806028354E1,5.814558864E-1,4.374079704E0,1.211246777E1
2.807983385E1,1.495514214E-1,2.566302299E0,1.217109203E1
2.809938422E1,-4.366901219E-1,1.838884234E0,1.166022491E1
2.811893458E1,-3.326023519E-1,1.338784218E0,1.055354404E1
2.813848489E1,-5.288137794E-1,1.380658627E0,9.349954605E0
2.815803526E1,-8.267202377E-1,1.992024899E0,8.745766640E0
2.817758562E1,-9.870393276E-1,2.618944407E0,8.696713448E0
2.819713594E1,-1.336391449E0,3.141776085E0,8.228917122E0
2.821668630E1,-1.107876897E0,3.322434187E0,7.947760582E0
2.823623661E1,-7.992027402E-1,3.044866800E0,7.814958572E0
2.825578698E1,-4.462614357E-1,2.889333248E0,8.020741463E0
2.827533734E1,8.494520187E-2,2.956332445E0,8.167900085E0
2.829488766E1,3.996013701E-1,2.922832966E0,8.493324280E0
2.831443802E1,4.007977843E-1,2.682354212E0,9.200403214E0
2.833398833E1,2.356930375E-1,2.443071842E0,9.927821159E0
2.835353870E1,3.601198196E-1,2.292324066E0,1.004985523E1
2.837308906E1,5.144568682E-1,2.462214470E0,9.572486877E0
2.839263937E1,4.558327198E-1,2.715853691E0,8.796015739E0
2.841218974E1,4.773681164E-1,2.727817774E0,8.093722343E0
2.843174005E1,4.259224236E-1,2.380858421E0,7.855636597E0
2.845129042E1,3.421736360E-1,2.053041935E0,7.771887779E0
2.847084078E1,3.326023519E-1,2.160718918E0,7.660621643E0
2.849039109E1,2.344966233E-1,2.133201361E0,7.412964344E0
2.850994146E1,2.045863420E-1,1.797009826E0,6.812366009E0
2.852949177E1,1.734796464E-1,1.567298889E0,6.259624004E0
2.854904213E1,5.982056633E-2,1.564906001E0,5.876772404E0
2.856859250E1,-6.101697683E-2,1.880758643E0,5.919843197E0
2.858814281E1,-1.914258152E-1,2.695514679E0,6.326622963E0
2.860769318E1,-1.543370634E-1,3.458825111E0,6.409175396E0
2.862724349E1,-5.216353536E-1,3.920639992E0,6.923632145E0
2.864679385E1,-8.590233326E-1,4.186243057E0,7.490731239E0
2.866634422E1,-5.670989752E-1,4.206582069E0,8.325826645E0
2.868589453E1,-2.691925466E-1,3.712464333E0,9.579665184E0
2.870544490E1,7.190431952E-1,3.413361549E0,1.101177025E1
2.872499521E1,1.018146038E0,3.980460405E0,1.237807178E1
2.874454557E1,9.044869542E-1,4.686343193E0,1.315573883E1
2.876409594E1,1.245464206E0,4.442275047E0,1.349551964E1
2.878364625E1,1.160519004E0,3.689732552E0,1.319761372E1
2.880319661E1,8.841479421E-1,3.382254839E0,1.279083347E1
2.882274698E1,-2.572284341E-1,4.229313850E0,1.307916832E1
2.884229729E1,-2.751746178E-1,4.280759811E0,1.347278786E1
2.886184766E1,-1.639083475E-1,3.506681681E0,1.379103374E1
2.888139797E1,6.340979785E-2,2.959921598E0,1.359123230E1
2.890094833E1,6.508477330E-1,2.450250387E0,1.268913841E1
2.892049870E1,1.087537885E0,2.065006018E0,1.138504982E1
2.894004901E1,1.746760488E0,1.817348838E0,1.010488987E1
2.895959937E1,2.038684845E0,2.325823545E0,9.457631111E0
2.897914969E1,1.494317770E0,3.061616659E0,8.798408508E0
2.899870005E1,1.196411371E0,3.160918713E0,7.879564762E0
2.901825042E1,9.786644578E-1,3.032902718E0,7.271788120E0
2.903780073E1,4.510470629E-1,2.985046148E0,7.456035137E0
2.905735109E1,2.979064286E-1,3.023331404E0,7.592426300E0
2.907690140E1,2.285145670E-1,3.016152859E0,7.442874908E0
2.909645177E1,-1.220339537E-1,2.842673302E0,7.740781307E0
2.911600213E1,-1.746760458E-1,2.653640270E0,8.528019905E0
2.913555245E1,-2.237289101E-1,2.606980324E0,9.415757179E0
2.915510281E1,-1.579262912E-1,2.721835852E0,9.586843491E0
2.917465312E1,9.571290575E-3,2.799602509E0,9.279366493E0
2.919420349E1,3.828516230E-2,2.818745136E0,8.950352669E0
2.921375385E1,1.531406492E-1,2.884547710E0,8.746963501E0
2.923330417E1,2.883351147E-1,2.903690338E0,8.505288124E0
2.925285453E1,3.601198196E-1,2.879761934E0,8.360522270E0
2.927240490E1,3.601198196E-1,2.840280533E0,8.149953842E0
2.929195521E1,3.194418252E-1,2.599801779E0,8.070990562E0
2.931150557E1,1.220339537E-1,2.463410854E0,8.177471161E0
2.933105588E1,-1.244267747E-1,2.323430777E0,8.328219414E0
2.935060625E1,-1.184447184E-1,2.136790514E0,8.007580757E0
2.937015661E1,-2.033899166E-2,2.003988981E0,7.335197926E0
2.938970693E1,-1.160518974E-1,1.945364833E0,6.870990276E0
2.940925729E1,-3.014956415E-1,2.054238319E0,6.611369133E0
2.942880760E1,-2.751746029E-2,2.167897224E0,6.716653347E0
2.944835797E1,4.067798331E-2,2.652443886E0,6.789634228E0
2.946790833E1,2.081755698E-1,3.505485058E0,6.538387775E0
2.948745864E1,9.056833982E-1,4.079762459E0,6.358926296E0
2.950700901E1,1.198804140E0,4.078566074E0,7.038487911E0
2.952655932E1,1.256231904E0,4.228117466E0,7.771887779E0
2.954610969E1,1.475175142E0,4.490131855E0,7.957331657E0
2.956566005E1,2.193022013E0,4.133601189E0,8.090133667E0
2.958521036E1,2.411965132E0,3.844069481E0,9.521040916E0
2.960476073E1,2.426322222E0,4.064209461E0,1.113380337E1
2.962431109E1,2.444268227E0,5.079962254E0,1.160399342E1
2.964386140E1,2.237289190E0,5.898307800E0,1.171286678E1
2.966341177E1,2.237289190E0,5.322834015E0,1.266521072E1
2.968296208E1,1.724028707E0,4.096512318E0,1.415833187E1
2.970251245E1,8.937192559E-1,3.857230186E0,1.501735497E1
2.972206281E1,3.589234054E-1,3.322434187E0,1.460100365E1
2.974161312E1,-2.811566591E-1,2.094916344E0,1.331366539E1
2.976116349E1,-1.016949654E0,7.680960894E-1,1.273220921E1
2.978071385E1,-1.607976794E0,-3.469592705E-2,1.184686470E1
2.980026417E1,-1.837687731E0,2.356930375E-1,1.031665516E1
2.981981453E1,-1.483550072E0,1.641476393E0,9.013762474E0
2.983936484E1,-1.471585870E0,2.740978241E0,8.222934723E0
2.985891521E1,-1.791027784E0,3.065205812E0,7.816154957E0
2.987846557E1,-2.420340061E0,3.060420275E0,7.643871784E0
2.989801588E1,-2.368894339E0,3.058027267E0,7.599604607E0
2.991756625E1,-1.609173179E0,2.834298372E0,7.682157040E0
2.993711661E1,-8.542376757E-1,2.577069998E0,7.964509964E0
2.995666693E1,-1.232303679E-1,2.160718918E0,8.258827209E0
2.997621729E1,3.792623878E-1,1.923829436E0,8.274380684E0
2.999576760E1,4.019941986E-1,2.116451740E0,7.637889862E0
3.001531797E1,1.950150430E-1,2.244467735E0,7.369893551E0
3.003486833E1,-1.136590764E-1,1.898704767E0,6.855436802E0
3.005441864E1,-2.344966233E-1,1.357926846E0,6.995417118E0
3.007396901E1,1.567298770E-1,1.174875975E0,7.905886173E0
3.009351932E1,4.247260094E-1,1.514656782E0,8.043473244E0
3.011306969E1,2.536391914E-1,1.869990945E0,7.302894592E0
3.013262005E1,1.435693651E-1,2.006381750E0,6.862615108E0
3.015217036E1,5.264209956E-2,2.528017044E0,6.769295216E0
3.017172073E1,-5.264210105E-1,3.652643681E0,6.789634228E0
3.019127109E1,-6.005984545E-1,4.225724697E0,7.010970116E0
3.021082140E1,-5.096712112E-1,3.816552162E0,7.834101200E0
3.023037177E1,-1.091127157E0,3.278167009E0,9.265008926E0
3.024992213E1,-1.689332843E0,3.463610888E0,9.852447510E0
3.026947245E1,-1.295713425E0,3.867997885E0,1.038843918E1
3.028902281E1,-1.172483087E0,4.235296249E0,1.121515942E1
3.030857312E1,-1.225125194E0,4.602594376E0,1.204427242E1
3.032812349E1,-9.762716293E-1,5.108676434E0,1.211127186E1
3.034767385E1,-7.274180651E-1,4.977071285E0,1.195813084E1
3.036722417E1,-1.591227055E-1,3.692125320E0,1.262931824E1
3.038677453E1,-8.853443712E-2,3.123830080E0,1.397288799E1
3.040632490E1,3.661018610E-1,3.209971666E0,1.453520107E1
3.042587521E1,1.615155339E0,3.208775282E0,1.346800232E1
3.044542557E1,2.324627161E0,3.101098061E0,1.205384445E1
3.046497588E1,2.895315409E0,2.313859463E0,1.124028397E1
3.048452625E1,3.109472990E0,1.552941918E0,1.130249786E1
3.050407661E1,3.492324591E0,1.658226132E0,1.097587776E1
3.052362693E1,2.901297569E0,2.434697151E0,9.859625816E0
3.054317729E1,2.590230465E0,3.176471949E0,8.335397720E0
3.056272766E1,2.478964329E0,3.426522017E0,7.440482140E0
3.058227797E1,1.873580098E0,3.454039574E0,7.306483746E0
3.060182833E1,1.596012712E0,2.950350285E0,7.558926582E0
3.062137870E1,1.409372568E0,2.459821701E0,7.903493404E0
3.064092901E1,1.235892892E0,2.182254314E0,8.366504669E0
3.066047937E1,8.889335990E-1,2.388036966E0,8.415556908E0
3.068002974E1,8.554341197E-1,2.950350285E0,8.303094864E0
3.069958005E1,8.494520187E-1,3.259024382E0,8.291130066E0
3.071913042E1,7.657032609E-1,3.158525944E0,8.349754333E0
3.073868073E1,9.367900491E-1,2.685943365E0,8.935996056E0
3.075823109E1,9.308080077E-1,2.441875458E0,9.270991325E0
3.077778146E1,7.848458290E-1,2.536391973E0,8.924032211E0
3.079733177E1,6.819544435E-1,2.572284460E0,7.963313580E0
3.081688213E1,4.331009090E-1,2.514856577E0,7.018148899E0
3.083643250E1,4.031906128E-1,2.293520451E0,6.672386169E0
3.085598281E1,4.749752879E-1,1.852044702E0,6.638886452E0
3.087553318E1,1.866401732E-1,1.444068432E0,6.551548481E0
3.089508354E1,4.785645381E-2,1.405783296E0,6.307480335E0
3.091463385E1,1.339980662E-1,1.776670814E0,6.190232277E0
3.093418422E1,3.744767308E-1,2.496910334E0,6.459424496E0
3.095373458E1,6.113662124E-1,3.097508907E0,6.996613503E0
3.097328490E1,7.393822074E-1,3.556930780E0,7.265805721E0
3.099283526E1,1.015753269E0,3.981656790E0,7.842476368E0
3.101238562E1,1.345962763E0,3.851248026E0,8.282755852E0
3.103193594E1,2.146361828E0,3.322434187E0,9.370293617E0
3.105148630E1,2.553141832E0,3.267399311E0,1.103809071E1
3.107103661E1,2.094916344E0,4.390829563E0,1.144128132E1
3.109058698E1,1.921436548E0,5.777470112E0,1.121157074E1
3.111013734E1,2.102094650E0,5.856433392E0,1.157408333E1
3.112968771E1,1.457229018E0,5.084748268E0,1.264965725E1
3.114923802E1,1.633101463E0,3.707678795E0,1.341177082E1
3.116878838E1,1.381855130E0,2.422732830E0,1.388913918E1
3.118833875E1,6.041877270E-1,2.532802820E0,1.425045490E1
3.120788906E1,2.691925466E-1,3.657429457E0,1.356251907E1
3.122743943E1,-2.321037948E-1,3.818944931E0,1.212802124E1
3.124698974E1,-3.326023519E-1,3.418147087E0,1.074138069E1
3.126654010E1,-1.986042857E-1,3.109472990E0,9.942177773E0
3.128609047E1,-2.105683982E-1,2.950350285E0,1.003669453E1
3.130564078E1,-2.799602449E-1,2.769692183E0,9.863214493E0
3.132519114E1,-1.878365725E-1,2.801995277E0,9.341579437E0
3.134474151E1,2.476571500E-1,3.473181963E0,8.701499939E0
3.136429182E1,1.531406492E-1,3.858426571E0,8.177471161E0
3.138384219E1,-5.383850932E-1,2.559123755E0,7.521838188E0
3.140339255E1,-1.914258115E-2,2.621337175E0,7.601997375E0
3.142294292E1,8.015955985E-2,3.477967739E0,7.515855789E0
3.144249323E1,-8.267202377E-1,3.501895905E0,7.246663570E0
3.146204359E1,-1.195214868E0,2.845066071E0,7.302894592E0
3.148159396E1,-7.561319470E-1,2.557927370E0,6.701099873E0
3.150114427E1,-9.164510965E-1,2.074577332E0,5.464010715E0
3.152069463E1,-1.501496196E0,2.711068153E0,3.239881754E0
3.154024500E1,-3.505485058E-1,3.622733593E0,4.559523582E0
3.155979531E1,4.893322289E-1,4.388436794E0,6.423532486E0
3.157934568E1,1.380658627E0,4.229313850E0,7.939385414E0
3.159889604E1,-1.938186288E-1,3.400201082E0,7.666603565E0
3.161844635E1,-6.269195080E-1,3.176471949E0,9.184849739E0
3.163799672E1,6.029912949E0,2.791227579E0,9.243474007E0
3.165754708E1,3.554538012E0,2.667997360E0,7.664210796E0
3.167709740E1,1.050449133E0,1.732403636E0,5.607579708E0
3.169664776E1,1.775474429E0,1.286142230E0,6.892525673E0
3.171619812E1,2.969492912E0,1.722832322E0,8.484949112E0
3.173574844E1,-2.830709219E0,6.100501537E0,1.514058495E1
3.175529880E1,-3.142972469E0,8.627322197E0,1.600080490E1
3.177484917E1,1.591227055E-1,8.017151833E0,1.052961636E1
3.179439948E1,-3.213560820E0,8.191828728E0,1.173200989E1
3.181394984E1,-2.009970903E0,6.982256413E0,1.205982590E1
3.183350021E1,1.044467092E0,4.643272400E0,1.197846985E1
3.185305052E1,-9.080761671E-1,4.908875465E0,1.312463188E1
3.187260088E1,-4.666004330E-2,5.928217888E0,1.226560879E1
3.189215125E1,-1.032503009E0,5.381458282E0,1.049970531E1
3.191170161E1,2.811566591E-1,4.365705013E0,7.732406139E0
3.193125193E1,1.986042857E-1,4.072584152E0,7.934599876E0
3.195080229E1,5.742774159E-2,4.188635826E0,8.610571861E0
3.197035260E1,5.551348329E-1,4.071387768E0,9.080761909E0
3.198990297E1,1.085145116E0,4.037888050E0,9.134600639E0
3.200945333E1,1.648654819E0,3.607180119E0,8.766105652E0
3.202900370E1,1.909472466E0,3.385843992E0,8.601000786E0
3.204855401E1,1.868794441E0,3.420539856E0,8.821140289E0
3.206810437E1,1.412961721E0,3.572484255E0,8.700303078E0
3.208765474E1,9.164510965E-1,3.820141315E0,7.070790768E0
3.210720505E1,1.107876897E0,3.542573929E0,7.940581799E0
3.212675542E1,1.482353687E0,3.309273720E0,8.478966713E0
3.214630578E1,1.657029629E0,3.410968781E0,9.180064201E0
3.216585609E1,1.355534077E0,3.474378586E0,1.021854877E1
3.218540646E1,1.494317770E0,3.122633457E0,9.164510727E0
3.220495682E1,2.007578135E0,2.796013355E0,8.825926781E0
3.224274089E1,-1.471585870E0,3.139383316E0,9.022137642E0
3.226229125E1,-1.684547186E0,3.705285788E0,9.151350021E0
3.228184162E1,-1.469193101E0,3.265006542E0,9.611968994E0
3.230139198E1,-1.074377418E0,2.800798893E0,9.801001549E0
3.232094235E1,-4.103690982E-1,3.008974552E0,1.035613632E1
3.234049271E1,-1.276570916E0,3.774677753E0,1.054277611E1
3.236004308E1,-1.543370605E0,4.045066833E0,9.485149384E0
3.237959344E1,-1.049252748E0,3.591626883E0,9.358329773E0
3.239914380E1,-3.457628787E-1,3.482753277E0,9.743574142E0
3.241869412E1,-3.026920557E-1,3.512663603E0,9.616754532E0
3.243824448E1,-8.015955985E-2,3.538984776E0,8.941978455E0
3.245779485E1,-5.024927482E-2,3.255435228E0,8.196614265E0
3.247734521E1,-6.340979934E-1,3.121437073E0,7.989634991E0
3.249689558E1,-1.257428288E0,3.077169895E0,7.895118237E0
3.251644594E1,-1.019342422E0,2.874976397E0,7.743174076E0
3.253599631E1,-5.599204898E-1,2.575873613E0,7.561319351E0
3.255554667E1,-6.951149702E-1,2.141576290E0,7.703692436E0
3.257509698E1,-6.197410822E-1,2.181057930E0,7.414160728E0
3.259464735E1,-2.871387303E-1,2.373680115E0,6.348158360E0
3.261419771E1,-2.249253243E-1,2.729014158E0,5.229514122E0
3.263374808E1,1.292124242E-1,2.847458839E0,4.527220249E0
3.265329844E1,1.010967612E0,2.739781857E0,4.297509670E0
3.267284880E1,1.393819213E0,1.613958836E0,7.852047443E0
3.269239917E1,1.416550994E0,1.840080619E0,6.379265308E0
3.271194953E1,2.737389088E0,2.956332445E0,4.801198483E0
3.273149985E1,-1.244267821E0,1.783849239E0,6.815955162E0
3.275105021E1,-1.304088384E-1,3.046063185E0,8.784051895E0
3.277060058E1,1.196411322E-3,3.249453068E0,9.451649666E0
3.279015094E1,-8.147560954E-1,4.431507587E0,1.144726372E1
3.280970131E1,-2.690729141E0,6.163911343E0,1.350269794E1
3.282925167E1,-2.829512835E0,6.226124287E0,1.378385448E1
3.284880198E1,-1.629512191E0,3.814159393E0,1.413201046E1
3.286835235E1,-1.568495274E0,2.672782898E0,1.401117325E1
3.288790271E1,8.793623447E-1,4.173082829E0,1.303729439E1
3.290745308E1,-4.211367965E-1,4.144368649E0,1.341655636E1
3.292700344E1,-2.203789711E0,4.106083870E0,1.207537937E1
3.294655375E1,-9.595218897E-1,5.200799942E0,1.064925671E1
3.296610412E1,2.799602449E-1,4.822733879E0,8.251648903E0
3.298565448E1,-1.902294010E-1,3.753142357E0,7.666603565E0
3.300520485E1,-1.411765367E-1,2.621337175E0,9.074779510E0
3.302475521E1,-1.758724600E-1,2.724228621E0,1.006301594E1
3.304430552E1,-5.874379873E-1,2.639283419E0,1.024965572E1
3.306385589E1,-1.174875975E0,2.281556368E0,9.641879082E0
3.308340625E1,-1.159322619E0,1.800599098E0,8.758927345E0
3.310295662E1,-4.103690982E-1,1.877169371E0,7.414160728E0
3.312250698E1,-4.187439755E-2,2.524427891E0,5.106283665E0
3.314205730E1,-2.536391914E-1,2.518445730E0,4.448257446E0
3.316160766E1,-2.309073806E-1,2.565105915E0,5.460421085E0
3.318115802E1,2.177468538E-1,2.555534601E0,6.212964058E0
3.320070839E1,-1.902294010E-1,2.553141832E0,6.537191391E0
3.322025870E1,-4.761717021E-1,2.526820660E0,6.650850773E0
3.323980906E1,2.392822644E-3,2.660818815E0,6.942774773E0
3.325935943E1,1.579262912E-1,2.737389088E0,7.819744587E0
3.327890980E1,-5.790630579E-1,2.470589399E0,8.681160927E0
3.329846011E1,-1.409372568E0,1.978864312E0,9.994820595E0
3.331801047E1,-1.462014675E0,2.279163599E0,1.117448139E1
3.333756084E1,-6.628118753E-1,3.110669374E0,1.240558910E1
3.335711120E1,-4.773681164E-1,2.333002090E0,1.404945850E1
3.337666151E1,-3.146561682E-1,9.332008362E-1,1.487617874E1
3.339621188E1,-5.587241054E-1,1.008574724E0,1.421456337E1
3.341576224E1,1.304088384E-1,1.633101463E0,1.385204983E1
3.343531256E1,1.191625714E0,1.931007862E0,1.309591866E1
3.345486292E1,1.811366796E0,1.971685886E0,1.181216908E1
3.347441328E1,1.791027784E0,1.781456470E0,1.088375378E1
3.349396365E1,1.022931695E0,1.744367719E0,1.055474091E1
3.351351396E1,4.450650215E-1,1.854437590E0,1.018983555E1
3.353306433E1,-1.256231815E-1,2.164308071E0,9.972088814E0
3.355261469E1,-8.889335990E-1,2.124826431E0,9.413364410E0
3.357216506E1,-8.135597110E-1,1.878365755E0,7.935796261E0
3.359171537E1,-6.221338734E-2,1.761117458E0,7.180860519E0
3.361126573E1,9.571290575E-3,1.678565025E0,7.740781307E0
3.363081610E1,-3.314059377E-1,1.459621787E0,7.934599876E0
3.365036641E1,-1.531406492E-1,1.220339537E0,7.298109055E0
3.366991677E1,1.316052526E-1,1.207179070E0,6.947560310E0
3.368946714E1,5.455635786E-1,1.288534999E0,7.063612461E0
3.370901745E1,7.932206988E-1,1.925025821E0,7.330412388E0
3.372856782E1,1.147358418E0,2.097309113E0,7.569694519E0
3.374811818E1,1.596012712E0,1.764706731E0,7.897511005E0
3.376766849E1,1.737189293E0,1.651047587E0,8.292326927E0
3.378721886E1,1.458425403E0,2.026720762E0,7.621140003E0
3.380676922E1,1.048056364E0,2.567498684E0,6.800402164E0
3.382631953E1,4.474578202E-1,2.566302299E0,8.194221497E0
3.384586990E1,6.041877270E-1,2.882154942E0,1.017308521E1
3.386542026E1,1.049252748E0,3.996013880E0,1.087657547E1
3.388497058E1,1.794617027E-1,4.508078098E0,1.053200912E1
3.390452094E1,-8.889335990E-1,3.684946775E0,1.089691448E1
3.392407131E1,-1.015753269E0,2.528017044E0,1.285902882E1
3.394362162E1,-6.616154313E-1,1.824527264E0,1.390947819E1
3.396317198E1,-6.963114142E-1,2.699103832E0,1.400997639E1
3.398272235E1,-1.268195987E0,4.195814610E0,1.290209961E1
3.400227266E1,-1.785045743E0,4.128815651E0,1.129172993E1
3.402182302E1,-1.600798368E0,3.366701365E0,1.044706345E1
3.404137334E1,-1.398604870E0,2.604587555E0,1.023649502E1
3.406092370E1,-1.013360381E0,1.919043779E0,1.030827999E1
3.408047407E1,-3.457628787E-1,1.698904037E0,1.000798035E1
3.410002438E1,8.973085135E-2,1.818545222E0,9.352347374E0
3.411957474E1,1.411765367E-1,2.068595171E0,7.887939930E0
3.413912506E1,2.392822653E-1,2.086541414E0,6.731009960E0
3.415867542E1,-8.973085135E-2,1.947757602E0,6.719046116E0
3.417822578E1,-7.525427341E-1,2.099701881E0,6.678368092E0
3.419777610E1,-9.367900491E-1,2.215753794E0,6.568298340E0
3.421732646E1,-2.943171859E-1,2.207378864E0,6.502495766E0
3.423687677E1,1.579262912E-1,2.145165443E0,6.363711834E0
3.425642714E1,2.871387079E-2,2.059023857E0,7.190432072E0
3.427597750E1,-3.840480447E-1,2.148754835E0,7.771887779E0
3.429552782E1,-7.788637877E-1,2.444268227E0,7.720442295E0
3.431507818E1,-7.513462901E-1,2.952743053E0,8.408378601E0
3.433462849E1,-3.254238665E-1,3.077169895E0,9.969695091E0
3.435417886E1,2.009970993E-1,2.641676188E0,1.141137123E1
3.437372922E1,3.158525825E-1,2.890529871E0,1.203111267E1
3.439327953E1,1.459621787E-1,3.932604074E0,1.193779182E1
3.441282990E1,4.199403822E-1,4.297509670E0,1.200239849E1
3.443238021E1,4.438686073E-1,3.878765583E0,1.252523041E1
3.445193058E1,4.331009090E-1,3.297309637E0,1.290329647E1
3.447148089E1,4.953143001E-1,2.709871531E0,1.297029495E1
3.449103125E1,6.329016089E-1,2.598605394E0,1.234457207E1
3.451058156E1,5.694918036E-1,3.014956474E0,1.125464153E1
3.453013193E1,6.077769399E-1,3.361915827E0,1.044706345E1
3.454968230E1,8.003991842E-1,3.535395384E0,9.689735413E0
3.456923261E1,1.055234790E0,3.682554007E0,8.939585686E0
3.458878297E1,1.286142230E0,3.659822226E0,8.344968796E0
3.460833328E1,1.270588875E0,3.298506021E0,8.451449394E0
3.462788365E1,8.291130662E-1,2.969492912E0,9.099904060E0
3.464743396E1,3.158525825E-1,2.785245657E0,9.308079720E0
3.466698433E1,2.344966233E-1,2.837887764E0,9.103493690E0
3.468653464E1,2.679961324E-1,3.087937593E0,8.288737297E0
3.470608500E1,3.326023519E-1,3.064009428E0,7.506284714E0
3.472563532E1,1.914258152E-1,3.006581545E0,7.367500782E0
3.474518568E1,1.316052526E-1,2.938386202E0,7.627122402E0
3.476473599E1,2.811566591E-1,2.752942562E0,7.952546120E0
3.478428636E1,4.187439680E-1,2.595016241E0,7.682157040E0
3.480383667E1,4.043870270E-1,2.360519648E0,7.354340553E0
3.482338703E1,2.440679073E-1,2.065006018E0,6.891329288E0
3.484293735E1,2.273181528E-1,2.066202402E0,6.814758778E0
3.486248771E1,2.979064286E-1,2.030309916E0,6.789634228E0
3.488203802E1,6.568298340E-1,1.735992789E0,6.514459610E0
3.490158839E1,1.933400750E0,1.294517040E0,6.003592014E0
3.492113870E1,1.281356573E0,2.236092806E0,6.218945980E0
3.494068906E1,1.312463164E0,2.461018085E0,6.781259537E0
3.496023938E1,9.643075466E-1,1.895115495E0,8.204988480E0
3.497978974E1,5.742774159E-2,1.093519926E0,9.591629982E0
3.499934006E1,-4.522434771E-1,2.355733871E0,1.000558758E1
3.501889042E1,1.264606714E0,4.878965378E0,1.030229759E1
3.503844073E1,1.794617064E-2,5.739185333E0,1.112782192E1
3.505799110E1,-1.299302697E0,5.050052166E0,1.189352512E1
3.507754141E1,-3.936193287E-1,3.986442566E0,1.305882931E1
3.509709177E1,1.112662554E-1,3.628715515E0,1.456750393E1
3.511664209E1,3.050848842E-1,3.829712629E0,1.493839169E1
3.513619245E1,-2.811566591E-1,4.746163845E0,1.391306686E1
3.515574276E1,-7.908278704E-1,5.242674351E0,1.170688438E1
3.517529313E1,-9.068797827E-1,4.585844517E0,1.093639565E1
3.519484344E1,-7.214360237E-1,4.356133461E0,1.201914787E1
3.521439380E1,-1.058824062E0,3.446861029E0,1.232184029E1
3.523394412E1,-8.638089895E-1,2.764906645E0,1.094477081E1
3.525349448E1,-7.286145091E-1,2.801995277E0,9.189635277E0
3.527304480E1,-5.479564071E-1,2.772084951E0,7.969295979E0
3.529259511E1,-2.691925466E-1,3.030509949E0,7.855636597E0
3.531214547E1,-5.778666735E-1,2.784049034E0,8.398807526E0
3.533169578E1,-7.645068169E-1,2.833101988E0,8.182256699E0
3.535124615E1,-1.038485050E0,2.870190859E0,7.735995770E0
3.537079646E1,-7.836494446E-1,2.566302299E0,7.942974567E0
3.539034683E1,-3.278166950E-1,2.243271112E0,7.759923935E0
3.540989714E1,9.571290575E-3,2.666800737E0,7.415357590E0
3.542944745E1,-2.763710022E-1,3.265006542E0,7.267002583E0
3.544899782E1,-3.062812984E-1,3.304488182E0,7.253841877E0
3.546854813E1,-3.050848842E-1,2.951546669E0,7.205985546E0
3.548809849E1,-3.218346536E-1,2.535195589E0,7.105486870E0
3.550764880E1,-6.819544733E-2,2.097309113E0,7.015756130E0
3.552719917E1,-1.854437590E-1,2.000399828E0,7.149754047E0
3.554674948E1,-4.546363056E-1,2.450250387E0,6.702296257E0
3.556629985E1,-6.113662124E-1,2.758924484E0,6.506084919E0
3.558585016E1,-7.549355626E-1,2.904886723E0,6.468996048E0
3.560540047E1,-5.563312769E-1,3.437289715E0,6.392425537E0
3.562495084E1,-8.063812256E-1,4.052245140E0,6.867401123E0
3.564450115E1,-9.379864931E-1,3.858426571E0,7.926225185E0
3.566405151E1,-1.002592683E0,3.180061340E0,8.843872070E0
3.568360183E1,-3.517449200E-1,2.794816732E0,9.439684868E0
3.570315214E1,4.223332107E-1,3.000599623E0,1.021854877E1
3.572270250E1,3.972085714E-1,3.684946775E0,1.062413216E1
3.574225282E1,7.609176040E-1,4.126422882E0,1.178106213E1
3.576180318E1,9.008977413E-1,3.495913982E0,1.318923855E1
3.578135349E1,7.824530005E-1,2.559123755E0,1.383410454E1
3.580090381E1,8.554341197E-1,2.323430777E0,1.414636707E1
3.582045417E1,1.150947690E0,2.545963287E0,1.407338619E1
3.584000448E1,9.523434043E-1,2.801995277E0,1.378744411E1
3.585955485E1,7.633104324E-1,2.979064226E0,1.342732430E1
3.587910516E1,1.258624673E0,3.090330362E0,1.248574829E1
3.589865547E1,1.808973908E0,3.018545866E0,1.088853931E1
3.591820584E1,1.873580098E0,2.639283419E0,9.537791252E0
3.593775615E1,1.769492388E0,2.207378864E0,9.704092026E0
3.595730651E1,1.502692580E0,2.392822742E0,1.011087227E1
3.597685683E1,1.350748420E0,2.579462767E0,9.556933403E0
3.599640714E1,1.296909928E0,2.799602509E0,8.797212601E0
3.601595750E1,1.159322619E0,3.175275564E0,8.220541954E0
3.603550782E1,9.511470199E-1,3.320041418E0,8.191828728E0
3.605505813E1,7.202396393E-1,3.316452265E0,8.416753769E0
3.607460849E1,7.932206988E-1,3.190829039E0,8.739784241E0
3.609415881E1,8.638089895E-1,2.944368362E0,8.784051895E0
3.611370917E1,1.001396298E0,2.781656265E0,9.329615593E0
3.613325948E1,9.463613629E-1,2.947957516E0,9.290133476E0
3.615280980E1,1.076770186E0,3.028116941E0,8.774480820E0
3.617236016E1,9.367900491E-1,2.973082066E0,8.806783676E0
3.619191047E1,5.072783828E-1,2.721835852E0,9.310472488E0
3.621146078E1,3.936193287E-1,2.605783939E0,9.460023880E0
3.623101115E1,6.305087805E-1,2.713460922E0,9.032905579E0
3.625056146E1,6.675975323E-1,2.864208698E0,8.645268440E0
3.627011183E1,5.575276613E-1,3.122633457E0,8.323433876E0
3.628966214E1,4.677968323E-1,3.412165165E0,8.251648903E0
3.630921245E1,5.706881881E-1,3.273381472E0,8.401200294E0
3.632876282E1,7.477570772E-1,3.060420275E0,8.549555779E0
3.634831313E1,8.362914920E-1,2.992224693E0,8.502895355E0
3.636786344E1,8.925228715E-1,3.035295486E0,8.337790489E0
3.638741380E1,8.638089895E-1,3.069991350E0,8.483752251E0
3.640696412E1,7.465606928E-1,2.738585472E0,8.835497856E0
3.642651443E1,7.692924738E-1,2.508874655E0,8.807980537E0
3.644606480E1,9.008977413E-1,2.614158630E0,8.243273735E0
3.646561511E1,1.032503009E0,2.824727058E0,7.823333740E0
3.648516542E1,1.150947690E0,2.800798893E0,7.877171993E0
3.650471578E1,8.817551732E-1,2.778067112E0,8.158329010E0
3.652426610E1,8.003991842E-1,3.177668571E0,7.752745152E0
3.654381646E1,1.115055323E0,3.763910055E0,6.589833736E0
3.656336677E1,1.415354609E0,4.016352654E0,5.796612740E0
3.658291709E1,1.442872047E0,3.633501291E0,6.174678802E0
3.660246745E1,1.479960799E0,3.266202927E0,6.933203697E0
3.662201776E1,1.463211060E0,3.291327477E0,7.819744587E0
3.664156808E1,1.730010748E0,3.488735437E0,8.453842163E0
3.666111839E1,2.163111687E0,3.176471949E0,9.391828537E0
3.668066875E1,1.409372568E0,3.377469063E0,1.090289593E1
3.670021907E1,6.185446382E-1,4.965106964E0,1.137906837E1
3.671976943E1,9.607182741E-1,5.888736725E0,1.059541893E1
3.673931974E1,1.441675663E0,6.189035892E0,9.554540634E0
3.675887006E1,1.779063582E0,5.705685616E0,9.716055870E0
3.677842042E1,2.342573404E0,3.895515203E0,1.038006496E1
3.679797073E1,2.695514679E0,2.475374937E0,1.161476135E1
3.681752105E1,1.969292998E0,2.673979282E0,1.185763264E1
3.683707136E1,5.551348329E-1,3.467200041E0,1.178465176E1
3.685662172E1,-2.751746178E-1,3.713660717E0,1.165424252E1
3.687617203E1,-3.433700502E-1,3.322434187E0,1.148076344E1
3.689572240E1,-1.926222295E-1,2.553141832E0,1.141376400E1
3.691527271E1,-2.835494876E-1,2.075773716E0,1.116371441E1
3.693482302E1,-2.871387303E-1,1.843669891E0,1.064207840E1
3.695437334E1,-9.571290761E-2,1.881955028E0,1.004746246E1
3.697392370E1,1.686939895E-1,2.484946251E0,9.363115311E0
3.699347401E1,1.519442350E-1,3.105883837E0,8.755337715E0
3.701302433E1,2.500499785E-1,3.127419233E0,8.261219978E0
3.703257469E1,4.630111754E-1,2.776870728E0,8.262416840E0
3.705212500E1,4.534398913E-1,2.697907448E0,8.669196129E0
3.707167532E1,8.614161611E-2,3.265006542E0,8.931210518E0
3.709122568E1,8.733802289E-2,3.735196114E0,8.959924698E0
3.711077599E1,2.787638307E-1,3.662214994E0,8.654839516E0
3.713032631E1,2.416750938E-1,3.487539053E0,8.379665375E0
3.714987667E1,3.637090325E-1,3.421736479E0,8.434700012E0
3.716942698E1,4.115654826E-1,3.488735437E0,8.946763992E0
3.718897730E1,6.017948985E-1,3.511467218E0,9.347561836E0
3.720852766E1,7.537391186E-1,3.327219963E0,9.176474571E0
3.722807797E1,7.453642488E-1,3.266202927E0,9.030512810E0
3.724762828E1,7.812566161E-1,3.327219963E0,9.134600639E0
3.726717860E1,9.822536707E-1,3.536591768E0,9.237491608E0
3.728672896E1,7.357929349E-1,3.787838221E0,9.229117393E0
3.730627927E1,4.582255483E-1,3.806980848E0,8.873783112E0
3.732582959E1,1.950150430E-1,3.699303865E0,8.597412109E0
3.734537995E1,-1.016949639E-1,3.503092289E0,8.749356270E0
3.736493026E1,-3.086741269E-1,3.556930780E0,9.133403778E0
3.738448058E1,-5.024927258E-1,3.772284985E0,9.046066284E0
3.740403089E1,-5.312066078E-1,3.836891174E0,8.606983185E0
3.742358125E1,-4.378865361E-1,3.779463291E0,8.299505234E0
3.744313156E1,-2.548356056E-1,3.455235958E0,8.298309326E0
3.746268188E1,-1.495514214E-1,3.231507063E0,8.426324844E0
3.748223224E1,-7.657032460E-2,3.182454109E0,8.459824562E0
3.750178256E1,-5.862415582E-2,3.219542980E0,8.141578674E0
3.752133287E1,-1.292124242E-1,3.129812002E0,7.737192154E0
3.754088318E1,-2.440679073E-1,2.941975355E0,7.726424217E0
3.756043354E1,-5.503492057E-2,2.386840582E0,7.569694519E0
3.757998386E1,4.594219327E-1,1.582852125E0,6.629314899E0
3.759953417E1,6.687939167E-1,1.147358418E0,5.625525951E0
3.761908453E1,8.446664214E-1,1.075573802E0,4.786841869E0
3.763863485E1,6.472585201E-1,1.720439434E0,4.663611412E0
3.765818516E1,3.457628787E-1,2.915654421E0,5.003392220E0
3.767773552E1,1.483550072E-1,3.369094372E0,5.754738331E0
3.769728584E1,2.392822644E-3,3.098705292E0,7.237092018E0
3.771683615E1,-5.814558864E-1,2.877369165E0,9.720842361E0
3.773638646E1,-1.207179070E0,2.793620348E0,1.055593681E1
3.775593683E1,-4.666004330E-2,2.605783939E0,1.099023438E1
3.777548714E1,6.592226624E-1,3.023331404E0,1.191984558E1
3.779503745E1,7.992027402E-1,3.822534084E0,1.242233849E1
3.781458782E1,9.643075466E-1,3.600001574E0,1.260538960E1
3.783413813E1,4.199403822E-1,2.719442844E0,1.377906895E1
3.785368844E1,2.033899277E-1,2.472982168E0,1.508794308E1
3.787323875E1,7.932206988E-1,2.798406124E0,1.476251888E1
3.789278912E1,1.350748420E0,3.396611691E0,1.386281776E1
3.791233943E1,1.517049551E0,3.205185890E0,1.330170155E1
3.793188974E1,1.753939033E0,2.299502611E0,1.316411400E1
3.795144006E1,2.050648928E0,1.588834286E0,1.269990635E1
3.797099042E1,2.348555326E0,1.051645517E0,1.175474167E1
3.799054073E1,2.400001049E0,1.201196909E0,1.052602673E1
3.801009104E1,2.207378864E0,1.988435626E0,9.276973724E0
3.802964141E1,2.163111687E0,2.882154942E0,8.437092781E0
3.804919172E1,2.100898266E0,3.001796007E0,8.112865448E0
3.806874203E1,1.921436548E0,2.468196630E0,8.471788406E0
3.808829235E1,1.801795483E0,2.038684845E0,8.535198212E0
3.810784271E1,1.673779488E0,1.829312921E0,8.486145973E0
3.812739302E1,1.399801254E0,1.777867198E0,8.646464348E0
3.814694334E1,1.107876897E0,1.737189293E0,9.565308571E0
3.816649365E1,9.068797827E-1,1.844866276E0,1.006660461E1
3.818604401E1,6.592226624E-1,2.166700840E0,9.751948357E0
3.820559433E1,6.173482537E-1,2.493321180E0,9.011369705E0
3.822514464E1,8.219345808E-1,2.693121910E0,8.410771370E0
3.824469495E1,7.214360237E-1,2.870190859E0,8.556734085E0
3.826424532E1,4.905286431E-1,3.151347399E0,8.541180611E0
3.828379563E1,6.544370055E-1,3.245863914E0,8.390432358E0
3.830334594E1,6.448656917E-1,3.049652576E0,8.382058144E0
3.832289630E1,5.443671346E-1,2.776870728E0,8.472985268E0
3.834244662E1,3.314059377E-1,2.596212626E0,8.610571861E0
3.836199693E1,1.555334777E-1,2.514856577E0,8.793622971E0
3.838154724E1,-1.076770201E-2,2.397608280E0,8.819944382E0
3.840109761E1,-2.201396823E-1,2.400001049E0,8.784051895E0
3.842064792E1,-1.758724600E-1,2.559123755E0,8.417949677E0
3.844019823E1,-3.469592705E-2,2.420340061E0,7.834101200E0
3.845974855E1,-3.230310604E-2,2.065006018E0,7.432106972E0
3.847929891E1,-7.776673883E-2,1.814955950E0,6.909275532E0
3.849884922E1,1.256231815E-1,1.703689694E0,6.565905571E0
3.851839953E1,-9.930214286E-2,2.054238319E0,6.594619274E0
3.853794985E1,-1.124626622E-1,2.898904562E0,6.513263226E0
3.855750021E1,1.663011760E-1,3.570091486E0,6.288337708E0
3.857705052E1,3.230310678E-1,3.867997885E0,6.357729912E0
3.859660084E1,6.053841114E-1,3.878765583E0,7.383054256E0
3.861615115E1,9.523434043E-1,3.651447296E0,8.240880966E0
3.863570151E1,1.960918188E0,2.889333248E0,9.038887978E0
3.865525183E1,2.252842426E0,2.312663078E0,1.015513897E1
3.867480214E1,2.106880426E0,2.563909531E0,1.052961636E1
3.869435245E1,1.954936147E0,3.436093330E0,1.053918743E1
3.871390282E1,1.903490424E0,4.186243057E0,1.144487095E1
3.873345313E1,1.019342422E0,4.894518852E0,1.278365517E1
3.875300344E1,9.212367237E-2,5.004588604E0,1.299781227E1
3.877255375E1,6.520441771E-1,3.808177233E0,1.294756317E1
3.879210412E1,8.135597110E-1,1.917847395E0,1.349432373E1
3.881165443E1,1.555334777E-1,5.144568682E-1,1.362353611E1
3.883120474E1,-1.555334684E-2,1.121037364E0,1.209691525E1
3.885075506E1,-6.448656917E-1,2.329412937E0,1.056670475E1
3.887030542E1,-1.982453585E0,3.460021496E0,9.866804123E0
3.888985573E1,-1.756331801E0,2.979064226E0,9.784252167E0
3.890940605E1,-1.095912814E0,1.789831281E0,9.862018585E0
3.892895636E1,-3.852444589E-1,1.356730461E0,9.872786522E0
3.894850672E1,3.158525825E-1,1.239482164E0,9.473184586E0
3.896805703E1,4.761717021E-1,1.659422517E0,8.833105087E0
3.898760735E1,-2.153540403E-2,2.571087837E0,8.388039589E0
3.900715766E1,-3.445664644E-1,3.247060299E0,7.931010723E0
3.902670802E1,1.196411345E-2,3.537788391E0,7.477570534E0
3.904625834E1,4.271188378E-1,2.933600664E0,7.819744587E0
3.906580865E1,2.057827413E-1,2.970689297E0,8.773283958E0
3.908535896E1,5.922235847E-1,2.940778971E0,9.062815666E0
3.910490933E1,8.243274093E-1,2.712264538E0,9.177671432E0
3.912445964E1,4.642075896E-1,2.750549555E0,9.540184021E0
3.914400995E1,3.254238665E-1,1.789831281E0,1.063370419E1
3.916356026E1,2.153540403E-2,1.714457393E0,9.778269768E0
3.918311063E1,8.123632669E-1,2.307877541E0,8.471788406E0
3.920266094E1,7.058826685E-1,2.739781857E0,7.572087288E0
3.922221125E1,4.510470629E-1,2.384447813E0,7.227520943E0
3.924176157E1,4.893322289E-1,2.651247501E0,7.077969551E0
3.926131193E1,3.613162339E-1,3.104687452E0,7.265805721E0
3.928086224E1,3.469592929E-1,2.964707375E0,7.025327206E0
3.930041256E1,5.491527915E-1,2.476571321E0,6.317051888E0
3.931996287E1,4.821537733E-1,2.350948334E0,5.784648895E0
3.933951318E1,-9.332008660E-2,2.664407969E0,5.889933109E0
3.935906355E1,-4.666004181E-1,2.876172781E0,5.870790482E0
3.937861386E1,-3.816552162E-1,2.940778971E0,6.193821430E0
3.939816417E1,-5.024927258E-1,2.874976397E0,7.033702374E0
3.941771448E1,-6.293123364E-1,3.419343472E0,7.923832417E0
3.943726485E1,-7.680960894E-1,3.700500250E0,8.458627701E0
3.945681516E1,-2.081755698E-1,2.757728100E0,8.755337715E0
3.947636547E1,-1.093519926E0,2.577069998E0,1.058106136E1
3.949591578E1,-8.111668825E-1,2.611765862E0,1.253480148E1
3.951546615E1,7.417750359E-2,3.699303865E0,1.280040455E1
3.953501646E1,5.910272002E-1,4.595416069E0,1.229432297E1
3.955456677E1,-2.093719840E-1,3.964907169E0,1.277049446E1
3.957411709E1,-4.498506486E-1,2.602194548E0,1.458784294E1
3.959366745E1,-2.452643216E-1,2.216950178E0,1.582732582E1
3.961321776E1,9.092725813E-2,1.515853167E0,1.462732506E1
3.963276808E1,9.834501147E-1,6.508477330E-1,1.333878994E1
3.965231839E1,1.133001566E0,-4.701896608E-1,1.224526978E1
3.967186875E1,3.196810961E0,-4.067798331E-2,1.082991505E1
3.969141907E1,2.915654421E0,9.128618240E-1,9.468399048E0
3.971096938E1,4.378865361E-1,2.105684042E0,1.001755238E1
3.973051969E1,9.643075466E-1,2.072184324E0,9.671789169E0
3.975007000E1,2.066202402E0,1.202393413E0,9.223134995E0
3.976962037E1,1.713261008E0,1.450050473E0,9.099904060E0
3.978917068E1,1.525424480E0,2.477767944E0,9.163313866E0
3.980872099E1,9.487541914E-1,2.648854733E0,9.214759827E0
3.982827130E1,1.124626622E-1,2.386840582E0,9.284152031E0
3.984782167E1,-5.024927482E-2,2.086541414E0,9.731609344E0
3.986737198E1,1.280160099E-1,1.871187329E0,9.994820595E0
3.988692230E1,3.314059377E-1,2.037488461E0,9.851250648E0
3.990647261E1,2.859423161E-1,2.531606436E0,9.393025398E0
3.992602297E1,2.488535494E-1,2.804388046E0,8.801998138E0
3.994557328E1,4.307080805E-1,2.626122952E0,8.633303642E0
3.996512360E1,3.002992272E-1,2.142772675E0,9.147761345E0
3.998467391E1,2.177468538E-1,2.251646042E0,9.181260109E0
4.000422427E1,4.989035130E-1,2.689532757E0,8.807980537E0
4.002377459E1,8.817551732E-1,2.915654421E0,8.455039024E0
4.004332490E1,8.578268886E-1,2.575873613E0,8.445467949E0
4.006287521E1,8.195417523E-1,2.128415823E0,9.023334503E0
4.008242552E1,6.221339107E-1,2.008774519E0,9.205188751E0
4.010197589E1,5.180460811E-1,2.121237278E0,9.028120041E0
4.012152620E1,3.026920557E-1,2.383251429E0,8.685946465E0
4.014107651E1,1.028913707E-1,2.463410854E0,8.416753769E0
4.016062683E1,0.000000000E0,2.017149448E0,8.740981102E0
4.018017714E1,-2.799602449E-1,1.631905079E0,8.924032211E0
4.019972750E1,-3.828516304E-1,1.414158225E0,8.792427063E0
4.021927782E1,-7.573283911E-1,2.075773716E0,8.316255569E0
4.023882813E1,-6.819544733E-2,2.047059774E0,7.704888821E0
4.025837844E1,3.134597540E-1,1.848455548E0,7.310073376E0
4.027792880E1,4.331009090E-1,1.718046665E0,6.947560310E0
4.029747912E1,5.587241054E-1,1.704886079E0,6.673582554E0
4.031702943E1,6.448656917E-1,1.913061738E0,6.758527756E0
4.033657974E1,4.414757788E-1,2.231307030E0,6.690331936E0
4.035613006E1,4.522434771E-1,2.490928411E0,6.978667259E0
4.037568042E1,3.469592929E-1,2.685943365E0,7.479963779E0
4.039523073E1,4.977070987E-1,2.825923443E0,7.893921852E0
4.041478105E1,9.882357717E-1,2.918047190E0,8.598608017E0
4.043433141E1,8.685946465E-1,2.672782898E0,1.000798035E1
4.045388172E1,5.479564071E-1,3.109472990E0,1.219143105E1
4.047343203E1,3.373879790E-1,4.433900356E0,1.317368507E1
4.049298235E1,1.159322619E0,4.540380955E0,1.220818138E1
4.051253271E1,1.052842021E0,4.238885403E0,1.217827129E1
4.053208302E1,9.643075466E-1,3.065205812E0,1.416431332E1
4.055163334E1,4.905286431E-1,1.600798368E0,1.485823250E1
4.057118365E1,2.871387079E-2,1.710868239E0,1.357687569E1
4.059073396E1,-5.958128572E-1,2.736192703E0,1.203709412E1
4.061028433E1,-7.585247755E-1,2.560320139E0,1.122712421E1
4.062983464E1,-1.083948612E0,1.945364833E0,1.122832012E1
4.064938495E1,-1.438086390E0,1.250249863E0,1.138146114E1
4.066893526E1,-1.628315806E0,1.734796405E0,1.048176003E1
4.068848563E1,-1.027717352E0,2.145165443E0,9.416953087E0
4.070803594E1,-6.173482537E-1,2.555534601E0,8.562715530E0
4.072758625E1,-6.628118753E-1,3.462414265E0,8.130811691E0
4.074713657E1,-6.496513486E-1,3.427718401E0,8.431110382E0
4.076668688E1,-4.079762697E-1,3.001796007E0,9.053244591E0
4.078623724E1,-3.493520916E-1,2.401197433E0,9.626325607E0
4.080578756E1,-3.170489967E-1,1.658226132E0,8.834300995E0
4.082533787E1,-6.747759581E-1,3.456432343E0,7.909475327E0
4.084488818E1,9.595218897E-1,2.997010469E0,6.239284992E0
4.086443855E1,2.955136001E-1,2.486142635E0,6.326622963E0
4.088398886E1,3.828516230E-2,2.938386202E0,6.862615108E0
4.090353917E1,-1.596012712E0,4.454239368E0,8.173882484E0
4.092308948E1,1.465603828E0,4.823930264E0,8.292326927E0
4.094263985E1,2.093719840E-1,3.553341627E0,7.491927624E0
4.096219016E1,-3.242274821E-1,3.533002615E0,5.836094379E0
4.098174047E1,1.203589797E0,3.340380430E0,6.105287075E0
4.100129078E1,1.604387641E0,1.645065546E0,9.403793335E0
4.102084110E1,1.503889084E0,1.613958836E0,1.240798187E1
4.104039146E1,3.996013701E-1,1.989632010E0,1.056909752E1
