"Time (s)","Acceleration x (m/s^2)","Acceleration y (m/s^2)","Acceleration z (m/s^2)"
1.959648400E-2,-4.006050110E0,5.964000225E0,7.408050537E0
3.949411800E-2,-1.690050125E0,5.500950336E0,8.710950851E0
5.939186000E-2,6.250500083E-1,4.876049995E0,1.072605038E1
7.928969500E-2,8.479500413E-1,4.251000404E0,1.230195045E1
9.918729500E-2,-4.920000136E-1,4.354050159E0,1.196595097E1
1.190848770E-1,-2.323950052E0,5.262000084E0,1.086405087E1
1.389827420E-1,-3.298950195E0,5.707050323E0,1.037400055E1
1.588805010E-1,-2.347950220E0,5.118000031E0,1.030395031E1
1.787781350E-1,-8.779500127E-1,4.405050278E0,1.023000050E1
1.986759530E-1,-3.100500107E-1,4.444950104E0,1.038105011E1
2.185735820E-1,-9.705000371E-2,4.527000427E0,1.067295074E1
2.384714380E-1,3.520500064E-1,4.627050400E0,1.060800076E1
2.583692220E-1,6.709500551E-1,4.560000420E0,9.624000549E0
2.782668830E-1,4.530000091E-1,4.267950058E0,8.164950371E0
2.981646450E-1,1.129500046E-1,3.969000101E0,7.131000519E0
3.180622430E-1,-2.140500098E-1,3.868050098E0,7.023000240E0
3.379599720E-1,-1.930500120E-1,3.826950073E0,6.949050426E0
3.578576180E-1,6.300000548E-1,3.655050278E0,6.568050385E0
3.777554390E-1,1.957050085E0,3.211950064E0,5.638950348E0
3.976532050E-1,2.529000044E0,2.416950226E0,5.382000446E0
4.175508440E-1,5.505000427E-2,2.002050161E0,7.329000473E0
4.374486160E-1,-2.799000025E0,2.632050037E0,9.316950798E0
4.573462240E-1,-2.716950178E0,2.517000198E0,9.928050041E0
4.772439810E-1,-2.260050058E0,2.107950211E0,1.102305031E1
4.971416090E-1,-2.344050169E0,1.231050014E0,9.580950737E0
5.170394240E-1,-1.504950047E0,-8.160000443E-1,8.677950859E0
5.369369740E-1,-1.924950123E0,-1.004999995E0,1.003605080E1
5.568348180E-1,-4.504050255E0,8.310000300E-1,1.031805038E1
5.767323340E-1,-4.930050373E0,1.756050110E0,1.050495052E1
5.966301450E-1,-5.356950283E0,8.220000267E-1,1.014795017E1
6.165279050E-1,-6.817950249E0,1.537950039E0,1.075200081E1
6.364254880E-1,-3.694050074E0,-6.289500594E-1,1.027095032E1
6.563232500E-1,-3.157950163E0,-2.157000065E0,7.822950363E0
6.762208300E-1,-6.637950420E0,-9.280500412E-1,9.097050667E0
6.961186260E-1,-8.797950745E0,-5.329500437E-1,1.177200031E1
7.160162340E-1,-8.130000114E0,-8.950500488E-1,9.324000359E0
7.359139910E-1,-8.323950768E0,7.740000486E-1,6.388050079E0
7.558118330E-1,-6.382050514E0,1.114050031E0,7.882950306E0
7.757093640E-1,-2.542050123E0,1.387050033E0,5.806050301E0
7.956072170E-1,-2.910000086E-1,8.050500154E-1,5.239050388E0
8.155048390E-1,-2.790000141E-1,4.069500268E-1,6.592050076E0
8.354026400E-1,-1.347000122E0,-1.140000075E-1,7.686000347E0
8.553002720E-1,-2.880000114E0,-1.369050026E0,7.243050575E0
8.751980490E-1,-3.541050196E0,-1.479000092E0,6.325950146E0
8.950956950E-1,-3.366000175E0,-1.299000025E0,5.988000393E0
9.149934620E-1,-2.194950104E0,-1.594050050E0,6.952950478E0
9.348911080E-1,-7.920000553E-1,-1.615950108E0,7.357950211E0
9.547889140E-1,-7.605000585E-2,-1.765950084E0,7.260000229E0
9.746865650E-1,-3.919500113E-1,-1.429050088E0,7.593000412E0
9.945843560E-1,-1.431000113E0,-1.330950022E0,7.828050137E0
1.014481964E0,-9.349500537E-1,-1.074000001E0,9.681000710E0
1.034379789E0,5.490000248E-1,-1.479000092E0,9.514050484E0
1.054277324E0,-4.009500146E-1,-4.369500279E-1,1.016295052E1
1.074175183E0,-2.137950182E0,1.084950089E0,1.182705021E1
1.094072723E0,-1.065000057E0,1.401000023E0,1.221300030E1
1.113970586E0,9.889500737E-1,1.885050058E0,1.141305065E1
1.133868347E0,2.350500077E-1,4.419000149E0,9.954000473E0
1.153765939E0,-3.000000119E-2,5.149050236E0,8.920050621E0
1.173663697E0,-2.239500135E-1,4.753950119E0,9.235950470E0
1.193561305E0,-2.505000122E-2,4.455000401E0,9.988050461E0
1.213459163E0,5.130000114E-1,4.048050404E0,9.576000214E0
1.233356751E0,5.080500245E-1,4.162950039E0,9.693000793E0
1.253254529E0,1.000950098E0,3.745950222E0,1.107000065E1
1.273152151E0,2.160000086E0,3.103950262E0,1.134300041E1
1.293049899E0,3.331950188E0,2.626950026E0,1.054605007E1
1.312947488E0,3.375000238E0,2.496000051E0,9.661950111E0
1.332845240E0,2.119950056E0,3.175950050E0,8.860050201E0
1.352742882E0,1.243050098E0,3.637950182E0,7.942950249E0
1.372640644E0,1.192950010E0,3.904050112E0,7.626000404E0
1.392538490E0,1.720050097E0,4.021049976E0,8.035950661E0
1.412436118E0,2.152950048E0,3.838950157E0,7.987950325E0
1.432333875E0,1.510950089E0,3.904050112E0,7.725000381E0
1.452231492E0,7.279500365E-1,4.051949978E0,7.660050392E0
1.472129284E0,4.140000343E-1,4.251000404E0,8.134050369E0
1.492026906E0,5.490000248E-1,4.282050133E0,8.802000046E0
1.511924692E0,7.780500650E-1,4.038000107E0,9.460950851E0
1.531822320E0,9.270000458E-1,3.898950100E0,1.037100029E1
1.551720067E0,1.189950109E0,4.093050003E0,1.120005035E1
1.571617660E0,1.701000094E0,4.249050140E0,1.125195026E1
1.591515414E0,2.460000038E0,4.390050411E0,1.090800095E1
1.611413045E0,1.593000054E0,4.867050171E0,9.909000397E0
1.631310850E0,9.580500722E-1,4.399950027E0,1.028700066E1
1.651208497E0,1.437000036E0,3.684000254E0,1.162095070E1
1.671106259E0,2.584050179E0,3.601950169E0,1.232805061E1
1.691003887E0,2.890950203E0,3.499050140E0,1.136295033E1
1.710901639E0,1.665000081E0,4.098000050E0,8.959950447E0
1.730799256E0,3.450000286E-1,5.002950191E0,7.059000492E0
1.750697023E0,2.470500171E-1,5.140050411E0,6.415050507E0
1.770594651E0,1.819500029E-1,4.639050007E0,6.855000496E0
1.790492403E0,6.780000329E-1,4.012050152E0,7.935000420E0
1.810390031E0,1.036949992E0,3.637950182E0,7.861050606E0
1.830287803E0,5.680500269E-1,3.720000267E0,7.039950371E0
1.850185410E0,1.630500108E-1,3.961050272E0,6.811950207E0
1.870083168E0,3.190500140E-1,4.081050396E0,6.621000290E0
1.889980790E0,7.230000496E-1,4.087950230E0,6.697050095E0
1.909878658E0,1.104000092E0,4.123950005E0,7.203000546E0
1.929776204E0,1.188000083E0,4.239000320E0,7.693050385E0
1.949674043E0,9.700500369E-1,4.359000206E0,7.557000160E0
1.969571583E0,4.240500331E-1,4.711050034E0,7.036950111E0
1.989469366E0,3.019500077E-1,5.011050224E0,7.351050377E0
2.009367212E0,7.020000219E-1,4.981950283E0,8.853000641E0
2.029264848E0,5.650500059E-1,5.227950096E0,9.970950127E0
2.049162616E0,3.619500101E-1,6.045000076E0,1.027800083E1
2.069060170E0,1.213950038E0,6.730050087E0,9.601950645E0
2.088957790E0,1.501950026E0,7.293000221E0,9.025050163E0
2.108855620E0,2.040000111E-1,8.311050415E0,8.319000244E0
2.128753385E0,-2.959500253E-1,7.837050438E0,8.220000267E0
2.148651007E0,3.619500101E-1,6.907050133E0,9.580950737E0
2.168548779E0,1.456050038E0,6.136050224E0,1.178205013E1
2.188446405E0,2.299050093E0,5.286000252E0,1.168395042E1
2.208344188E0,1.882950068E0,5.379000187E0,9.817950249E0
2.228241776E0,1.261950016E0,5.623950481E0,7.849050522E0
2.248139310E0,1.416000009E0,5.371950150E0,7.102050304E0
2.268037140E0,1.795950055E0,4.872000217E0,7.495050430E0
2.287934914E0,1.969050050E0,4.504950047E0,7.783950329E0
2.307832531E0,1.849050045E0,4.393050194E0,7.248000145E0
2.327730265E0,1.255050063E0,4.681950092E0,6.297000408E0
2.347627863E0,6.870000362E-1,5.020050049E0,5.494950294E0
2.367525630E0,1.099500060E-1,5.260050297E0,5.290950298E0
2.387423238E0,2.595000155E-2,5.263950348E0,5.734050274E0
2.407320991E0,2.950500250E-1,5.146950245E0,6.562950134E0
2.427218594E0,4.309500158E-1,5.203950405E0,7.744050503E0
2.447116347E0,4.909500182E-1,5.293050289E0,8.315999985E0
2.467013964E0,1.390500069E-1,5.455950260E0,8.295000076E0
2.486911712E0,-1.590000093E-1,5.542050362E0,8.653950691E0
2.506809339E0,4.099500179E-1,5.326950073E0,9.267000198E0
2.526707169E0,1.272000074E0,5.494050026E0,9.427050591E0
2.546604719E0,1.180950046E0,6.225000381E0,9.034950256E0
2.566502549E0,5.989500284E-1,6.907050133E0,8.413949966E0
2.586400318E0,-3.919500113E-1,8.124000549E0,7.678950310E0
2.606297859E0,-6.619500518E-1,8.455050468E0,7.167000294E0
2.626195693E0,7.189500332E-1,7.093950272E0,7.399050236E0
2.646093261E0,1.552050114E0,6.406950474E0,8.545949936E0
2.665990872E0,2.035950184E0,5.406000137E0,9.538050652E0
2.685888731E0,1.450950027E0,4.989000320E0,9.130949974E0
2.705786266E0,1.489500105E-1,5.302950382E0,8.059950829E0
2.725684106E0,0.000000000E0,5.454000473E0,7.380000114E0
2.745581904E0,7.740000486E-1,5.164050102E0,7.090050220E0
2.765479526E0,1.255050063E0,4.977000237E0,6.865050316E0
2.785377279E0,9.720000625E-1,5.113050461E0,6.775950432E0
2.805274920E0,8.910000324E-1,5.296050072E0,6.604050159E0
2.825172663E0,1.231050014E0,5.298000336E0,6.415050507E0
2.845070271E0,1.614000082E0,4.969950199E0,6.544050217E0
2.864968034E0,1.783950090E0,4.669950008E0,6.694950104E0
2.884865671E0,1.569000125E0,4.594050407E0,6.481950283E0
2.904763209E0,1.245000005E0,4.776000023E0,5.896950245E0
2.924660981E0,9.130500555E-1,5.227950096E0,5.718000412E0
2.944558837E0,7.999500632E-1,5.533050060E0,6.441000462E0
2.964456364E0,1.059000015E0,5.782050133E0,7.947000504E0
2.984353993E0,1.368000031E0,6.523950100E0,8.995950699E0
3.004251742E0,1.255050063E0,7.567950249E0,8.436000824E0
3.024149359E0,9.940500259E-1,8.173950195E0,7.684050560E0
3.044047154E0,4.309500158E-1,9.147000313E0,8.062050819E0
3.063944768E0,4.860000312E-1,9.391050339E0,8.635050774E0
3.083842530E0,1.638000131E0,8.100000381E0,8.539050102E0
3.103740153E0,2.053050041E0,7.294950485E0,9.193050385E0
3.123637871E0,1.831950068E0,6.526950359E0,9.604950905E0
3.143535488E0,1.320000052E0,6.169950485E0,8.632050514E0
3.163433256E0,9.919500351E-1,5.917950153E0,7.351050377E0
3.183331093E0,1.006049991E0,5.563950062E0,6.606000423E0
3.203228613E0,1.128000021E0,5.215950012E0,6.610950470E0
3.223126448E0,1.369950056E0,5.073000431E0,6.400050163E0
3.243023965E0,1.642950058E0,5.209050179E0,6.072000504E0
3.262921760E0,1.806000113E0,5.439000130E0,5.884950161E0
3.282819272E0,1.605000019E0,5.506050110E0,5.863950253E0
3.302716882E0,9.889500737E-1,5.467950344E0,5.991000175E0
3.322614750E0,2.160000056E-1,5.662050247E0,6.418950081E0
3.342512529E0,1.609500051E-1,5.779050350E0,7.291050434E0
3.362410122E0,9.030000567E-1,5.635950089E0,8.587050438E0
3.382307637E0,1.171050072E0,5.367000103E0,9.552000046E0
3.402205462E0,5.220000148E-1,5.659950256E0,9.262050629E0
3.422102978E0,-6.795000285E-2,6.486000538E0,8.484000206E0
3.442000789E0,3.070500195E-1,6.934050560E0,8.592000008E0
3.461898659E0,9.720000625E-1,7.027050495E0,9.178050041E0
3.481796261E0,7.950000167E-1,7.176000118E0,9.028050423E0
3.501693975E0,3.400500119E-1,7.309950352E0,8.055000305E0
3.521591492E0,1.059000015E0,6.526950359E0,8.029050827E0
3.541489331E0,1.480050087E0,5.893950462E0,8.958000183E0
3.561386964E0,1.411050081E0,5.503950119E0,9.111000061E0
3.581284775E0,8.550000191E-1,5.548950195E0,8.282999992E0
3.601182426E0,4.930500090E-1,5.587950230E0,7.959000587E0
3.621080165E0,2.230500132E-1,5.548950195E0,8.296950340E0
3.640977772E0,5.505000427E-2,5.575950146E0,8.140950203E0
3.660875306E0,2.779500186E-1,5.547000408E0,7.579050541E0
3.680773141E0,6.780000329E-1,5.595000267E0,7.288950443E0
3.700670938E0,1.138050079E0,5.430000305E0,7.660050392E0
3.720568474E0,1.530000091E0,5.145000458E0,8.002050400E0
3.740466343E0,1.662000060E0,5.038950443E0,7.449000359E0
3.760363883E0,1.645050049E0,5.311950207E0,6.403050423E0
3.780261489E0,1.723950028E0,5.458050251E0,5.926050186E0
3.800159265E0,1.666950107E0,5.485050201E0,6.625050545E0
3.820056954E0,1.234050035E0,5.638050079E0,7.710000515E0
3.839954804E0,1.000950098E0,6.157950401E0,7.861050606E0
3.859852349E0,6.469500065E-1,7.140000343E0,7.107000351E0
3.879750082E0,3.379500210E-1,8.043000221E0,6.649050236E0
3.899647685E0,2.440500110E-1,8.524050713E0,7.258050442E0
3.919545452E0,7.980000377E-1,8.256000519E0,8.308950424E0
3.939443088E0,1.528050065E0,7.626000404E0,8.710950851E0
3.959340822E0,1.813050032E0,7.089000225E0,8.517000198E0
3.979238435E0,1.260000110E0,6.474000454E0,8.242050171E0
3.999136206E0,3.880500197E-1,6.273000240E0,7.807950497E0
4.019033810E0,3.259500265E-1,6.045000076E0,6.906000137E0
4.038931601E0,5.389500260E-1,5.889000416E0,6.534000397E0
4.058829209E0,1.059000015E0,5.650050163E0,7.204950333E0
4.078726947E0,1.441950083E0,5.470050335E0,8.164950371E0
4.098624550E0,1.459050059E0,5.491950035E0,7.813050270E0
4.118522066E0,1.150050044E0,5.695050240E0,6.352050304E0
4.138419885E0,9.100500345E-1,5.674050331E0,5.694000244E0
4.158317674E0,5.770500302E-1,5.406000137E0,6.472050190E0
4.178215296E0,2.869500220E-1,5.317050457E0,7.417950153E0
4.198113096E0,3.090000153E-1,5.475000381E0,7.522950172E0
4.218010652E0,5.820000172E-1,5.683950424E0,7.131000519E0
4.237908496E0,8.530500531E-1,5.644950390E0,7.336950302E0
4.257806036E0,5.149500370E-1,5.584950447E0,8.239950180E0
4.277703924E0,4.020000100E-1,5.367000103E0,8.659049988E0
4.297601455E0,4.789500237E-1,5.157000065E0,8.977050781E0
4.317499065E0,-3.340500295E-1,5.592000484E0,8.937000275E0
4.337396814E0,-1.182000041E0,6.127050400E0,8.476950645E0
4.357294416E0,-6.379500031E-1,6.558000088E0,7.983000278E0
4.377192159E0,1.050000042E-1,7.015050411E0,7.339050293E0
4.397089777E0,9.130500555E-1,6.117000103E0,8.041049957E0
4.416987530E0,8.689500690E-1,4.251000404E0,9.472949982E0
4.436885186E0,-2.220000178E-1,4.246050358E0,9.130949974E0
4.456782958E0,-6.105000153E-2,5.056050301E0,7.401000500E0
4.476680565E0,-6.289500594E-1,5.695050240E0,7.150050163E0
4.496578347E0,-4.350000322E-1,5.485050201E0,6.735000134E0
4.516475950E0,6.040500402E-1,4.408950329E0,6.751950264E0
4.536373727E0,1.570950031E0,2.728050232E0,8.266050339E0
4.556271330E0,1.930050135E0,2.587050200E0,9.667050362E0
4.576169092E0,8.359500170E-1,3.532950163E0,8.575050354E0
4.596066709E0,-4.200000316E-2,3.267000198E0,6.879000187E0
4.615964468E0,-4.300500154E-1,3.030000210E0,8.328000069E0
4.635861998E0,3.880500197E-1,2.563050032E0,1.076205063E1
4.655759847E0,1.225950003E0,2.599050045E0,1.191105080E1
4.675657388E0,1.722000122E0,3.310050249E0,1.067295074E1
4.695555027E0,6.679500341E-1,3.802950144E0,8.412000656E0
4.715452890E0,1.315050006E0,3.850950241E0,8.953050613E0
4.735350431E0,1.783950090E0,3.327000141E0,8.934000015E0
4.755248155E0,1.351050019E0,3.994950294E0,8.422050476E0
4.775145763E0,1.030050039E0,4.255949974E0,9.001049995E0
4.795043525E0,1.236000061E0,4.438050270E0,9.379950523E0
4.814941113E0,1.938000083E0,4.905000210E0,8.866950035E0
4.834838891E0,2.122050047E0,4.627050400E0,8.014050484E0
4.854736473E0,2.376000166E0,3.034950256E0,6.300000191E0
4.874634017E0,1.084950089E0,3.813000202E0,1.147500038E1
4.894531861E0,-7.129500508E-1,5.679000378E0,1.579800034E1
4.914429367E0,7.690500617E-1,3.799050093E0,1.060605049E1
4.934327241E0,1.498950124E0,2.119950056E0,8.934000015E0
4.954224824E0,1.920000017E-1,2.476950169E0,9.279000282E0
4.974122634E0,-4.440000355E-1,4.777950287E0,9.423000336E0
4.994020257E0,1.729500145E-1,6.330000401E0,8.520000458E0
5.013918019E0,8.550000191E-1,5.851050377E0,6.400050163E0
5.033815593E0,-6.310500503E-1,5.803050041E0,7.042050362E0
5.053713370E0,-2.914050102E0,5.679000378E0,7.969050407E0
5.073611007E0,-3.250950098E0,4.642050266E0,8.282999992E0
5.093508817E0,-1.618050098E0,3.868050098E0,8.743050575E0
5.113406454E0,-7.369500399E-1,4.483950138E0,8.128950119E0
5.133304250E0,-1.371000051E0,5.077950478E0,7.207050323E0
5.153201776E0,-1.768950105E0,5.274000168E0,7.782000542E0
5.173099404E0,-1.450050116E0,4.299000263E0,8.223000526E0
5.192997177E0,-1.801950097E0,3.751050234E0,8.425950050E0
5.212895010E0,-2.668950081E0,4.183950424E0,8.902950287E0
5.232792564E0,-3.249000072E0,4.963050365E0,9.163949966E0
5.252690190E0,-2.362950087E0,4.735050201E0,9.121050835E0
5.272587915E0,-4.900500178E-1,4.069050312E0,9.444000244E0
5.292485517E0,3.709500134E-1,4.009050369E0,9.990000725E0
5.312383275E0,-5.595000088E-2,4.546050072E0,9.877950668E0
5.332280897E0,-8.779500127E-1,4.735050201E0,9.528000832E0
5.352178697E0,-1.126950026E0,4.417050362E0,9.175950050E0
5.372076324E0,-1.411950111E0,4.773000240E0,8.563050270E0
5.391973901E0,-1.357050061E0,5.614050388E0,7.720050335E0
5.411871716E0,-7.050000429E-1,5.137050152E0,7.606950283E0
5.431769266E0,-8.350500464E-1,4.893000126E0,7.909050465E0
5.451667009E0,-1.555950046E0,5.686050415E0,7.756050587E0
5.471564632E0,-2.101950169E0,5.779050350E0,7.332000256E0
5.491462380E0,-2.025000095E0,5.098950386E0,7.545000553E0
5.511360011E0,-2.085000038E0,4.977000237E0,7.983000278E0
5.531257803E0,-2.113950014E0,5.209050179E0,8.392950058E0
5.551155435E0,-1.339950085E0,4.999050140E0,8.551050186E0
5.571053187E0,-2.550000250E-1,4.474050045E0,8.890950203E0
5.590950762E0,-3.769500256E-1,4.378050327E0,8.709000587E0
5.610848606E0,-1.369050026E0,5.038950443E0,7.926000595E0
5.630746185E0,-1.917000055E0,5.350950241E0,7.416000366E0
5.650643800E0,-1.893000126E0,5.050950050E0,8.059950829E0
5.670541582E0,-1.446000099E0,4.840050220E0,8.728050232E0
5.690439180E0,-9.379500151E-1,4.945950031E0,8.680050850E0
5.710336928E0,-1.105050087E0,5.254950047E0,8.215950012E0
5.730234482E0,-2.238000154E0,5.869950294E0,8.254050255E0
5.750132342E0,-2.262000084E0,6.028050423E0,8.938950539E0
5.770029988E0,-1.519500017E-1,5.188050270E0,9.916050911E0
5.789927532E0,1.150500029E-1,5.461050034E0,9.978000641E0
5.809825323E0,-1.594050050E0,6.129000187E0,9.916050911E0
5.829722930E0,-2.358000040E0,5.443950176E0,1.018905067E1
5.849620712E0,-2.253000021E0,4.885950089E0,9.667050362E0
5.869518344E0,-1.917000055E0,4.776000023E0,8.560050011E0
5.889416120E0,-1.668000102E0,4.912050247E0,7.849050522E0
5.909313733E0,-1.465050101E0,5.086950302E0,7.756050587E0
5.929211266E0,-8.590500355E-1,4.780950069E0,8.138999939E0
5.949109091E0,-3.799500167E-1,4.354050159E0,8.271000862E0
5.969006627E0,-4.830000103E-1,4.519950390E0,7.774950504E0
5.988904399E0,-9.259500504E-1,4.903050423E0,7.210050106E0
6.008802031E0,-1.549050093E0,5.239950180E0,7.231050491E0
6.028699793E0,-1.539000034E0,5.200050354E0,7.702950478E0
6.048597410E0,-1.021950006E0,5.145000458E0,8.151000023E0
6.068494920E0,-7.680000067E-1,5.170950413E0,8.299050331E0
6.088392726E0,-1.417050123E0,5.227950096E0,8.256000519E0
6.108290490E0,-2.194950104E0,5.038950443E0,8.629950523E0
6.128188108E0,-2.389050007E0,4.969950199E0,9.061050415E0
6.148085899E0,-1.618050098E0,4.696950436E0,9.133049965E0
6.167983421E0,-1.033950090E0,4.318050385E0,8.716050148E0
6.187881024E0,-1.777950048E0,4.540950298E0,8.371050835E0
6.207778779E0,-2.265000105E0,4.756950378E0,8.460000038E0
6.227676383E0,-1.513050079E0,4.408950329E0,9.030000687E0
6.247574131E0,-2.100000083E-1,3.705000162E0,9.451050758E0
6.267471743E0,-1.450500041E-1,4.108050346E0,9.235950470E0
6.287369482E0,-1.333050013E0,5.178000450E0,8.455050468E0
6.307267003E0,-1.675050020E0,5.011050224E0,8.398050308E0
6.327164602E0,-1.219950080E0,4.495950222E0,8.625000000E0
6.347062410E0,-1.635000110E0,4.960050106E0,8.605950356E0
6.366959969E0,-2.023050070E0,5.266950130E0,8.079000473E0
6.386857737E0,-2.296050072E0,5.215950012E0,7.464000225E0
6.406755368E0,-2.341050148E0,4.905000210E0,7.497000217E0
6.426653102E0,-2.140050173E0,4.981950283E0,8.171999931E0
6.446550622E0,-1.489050031E0,4.953000069E0,8.737950325E0
6.466448216E0,-9.859500527E-1,4.741950035E0,8.332950592E0
6.486345991E0,-1.644000053E0,4.773000240E0,7.464000225E0
6.506243593E0,-2.370000124E0,4.879050255E0,7.581000328E0
6.526141360E0,-1.975050092E0,5.032050133E0,8.665950775E0
6.546038969E0,-1.192050099E0,4.965000153E0,9.480000496E0
6.565936740E0,-8.059500456E-1,4.905000210E0,9.198000908E0
6.585834271E0,-1.006950021E0,5.347950459E0,8.242050171E0
6.605732178E0,-7.819500566E-1,5.647950172E0,8.389950752E0
6.625629795E0,-9.589500427E-1,5.475000381E0,9.985950470E0
6.645527329E0,-2.281050205E0,5.784000397E0,1.069905090E1
6.665425067E0,-1.932000041E0,5.734050274E0,9.994950294E0
6.685322713E0,-8.179500103E-1,5.628000259E0,9.520950317E0
6.705220491E0,-9.210000634E-1,5.662050247E0,1.041900063E1
6.725117997E0,-2.170950174E0,5.326950073E0,1.089300060E1
6.745015870E0,-2.787000179E0,5.193000317E0,9.909000397E0
6.764913420E0,-2.374950171E0,5.379000187E0,8.271000862E0
6.784811031E0,-2.449050188E0,5.739000320E0,6.859950542E0
6.804708827E0,-1.987050056E0,5.439000130E0,8.323050499E0
6.824606449E0,-1.774050117E0,5.188050270E0,8.886000633E0
6.866844451E0,-2.539950132E0,7.044000149E0,7.243050575E0
6.886742062E0,-7.200000286E-1,6.463950157E0,8.472000122E0
6.906639581E0,8.400000632E-2,6.310950279E0,9.526050568E0
6.926537155E0,-5.760000348E-1,6.471000195E0,9.247950554E0
6.946434604E0,-1.477050066E0,6.486000538E0,8.164950371E0
6.966332177E0,-1.977000117E0,6.366000175E0,7.344000340E0
6.986229748E0,-2.029950142E0,6.117000103E0,7.210050106E0
7.006127090E0,-1.801950097E0,5.803050041E0,7.399050236E0
7.026024608E0,-1.663050056E0,5.712000370E0,7.552050591E0
7.045922142E0,-1.644000053E0,5.581050396E0,7.624050140E0
7.065819613E0,-1.984050035E0,5.626050472E0,7.495050430E0
7.085717128E0,-2.323950052E0,5.727000237E0,7.459050179E0
7.105614691E0,-2.449050188E0,5.857950211E0,7.380000114E0
7.125512007E0,-2.389050007E0,5.905950069E0,7.441950321E0
7.145409564E0,-2.296050072E0,5.944950104E0,7.420050144E0
7.165307106E0,-2.200050116E0,6.093000412E0,7.461000443E0
7.185204636E0,-1.941000104E0,6.069000244E0,7.138050556E0
7.205102078E0,-1.915050149E0,6.142950058E0,6.918000221E0
7.224999634E0,-1.992000103E0,6.115050316E0,6.985050201E0
7.244897158E0,-2.346000195E0,6.073950291E0,7.522950172E0
7.264794478E0,-2.703000069E0,6.076050282E0,8.208000183E0
7.284692015E0,-2.499000072E0,6.208050251E0,8.424000740E0
7.304589449E0,-2.116050005E0,5.776950359E0,8.653950691E0
7.324486947E0,-2.089950085E0,5.410050392E0,8.878950119E0
7.344384538E0,-2.284050226E0,5.575950146E0,8.617950439E0
7.364281872E0,-1.723050117E0,5.334000111E0,8.128950119E0
7.384179418E0,-8.370000124E-1,4.576950073E0,7.750950336E0
7.404076886E0,-5.279999971E-1,4.587000370E0,7.219050407E0
7.423974409E0,-4.990500212E-1,5.329050064E0,6.937050343E0
7.443871995E0,-2.359500080E-1,5.863050461E0,6.877050400E0
7.463769500E0,4.960500300E-1,5.722050190E0,6.922050476E0
7.483666833E0,1.380000114E0,5.061000347E0,7.132950306E0
7.503564370E0,1.600050092E0,4.615050316E0,7.068000317E0
7.523461938E0,1.035000086E0,4.848000050E0,6.807000160E0
7.543359411E0,5.080500245E-1,4.993950367E0,6.718950272E0
7.563256938E0,2.110500038E-1,4.728000164E0,6.568050385E0
7.583154477E0,1.200000048E-1,4.407000065E0,6.477000237E0
7.603051772E0,3.760500252E-1,3.705000162E0,6.682950497E0
7.622949356E0,8.530500531E-1,2.701950073E0,6.273000240E0
7.642846933E0,8.260500431E-1,2.311050177E0,5.149950027E0
7.662744358E0,1.770000011E-1,3.051000118E0,4.851000309E0
7.682641866E0,-2.839500010E-1,3.849000216E0,5.064000130E0
7.702539171E0,-2.100000083E-1,4.159950256E0,4.896000385E0
7.722436707E0,-1.090500057E-1,4.249050140E0,5.385000229E0
7.742334210E0,-6.000000052E-3,4.323000431E0,6.703950405E0
7.762231697E0,5.719500184E-1,4.218000412E0,7.545000553E0
7.782129022E0,9.559500217E-1,4.135950089E0,7.626000404E0
7.802026505E0,-7.304999977E-2,4.219950199E0,8.128950119E0
7.821924025E0,-1.275000095E0,4.618050098E0,8.946000099E0
7.841821533E0,-1.462050080E0,5.203950405E0,9.400950432E0
7.861719024E0,-7.219500542E-1,5.485050201E0,9.681000710E0
7.881616478E0,2.179500163E-1,5.298000336E0,1.070595074E1
7.901514009E0,5.340000391E-1,5.173050404E0,1.180305099E1
7.921411319E0,-7.995000482E-2,5.185050011E0,1.211895084E1
7.941308850E0,-4.159500301E-1,5.185050011E0,1.200195026E1
7.961206300E0,8.400000632E-2,4.891050339E0,1.180605030E1
7.981103826E0,1.750500053E-1,4.963050365E0,1.133595085E1
8.001001418E0,1.905000024E-2,5.134950161E0,1.092705059E1
8.020898704E0,1.939500123E-1,4.776000023E0,1.064700031E1
8.040796240E0,4.189500213E-1,4.414050102E0,1.009605026E1
8.060693670E0,3.430500031E-1,4.258049965E0,9.175950050E0
8.080591206E0,6.195000187E-2,3.882000208E0,8.315999985E0
8.100488511E0,-3.340500295E-1,3.396000147E0,7.476000309E0
8.120386283E0,-7.530000210E-1,3.097050190E0,6.735000134E0
8.140283598E0,-9.829500318E-1,2.841000080E0,5.686050415E0
8.160181124E0,-1.182000041E0,2.386050224E0,5.341950417E0
8.180078617E0,-1.162950039E0,2.041050196E0,5.887950420E0
8.199976149E0,-1.053000093E0,2.223000050E0,6.631950378E0
8.219873692E0,-4.180500209E-1,2.806950092E0,7.720050335E0
8.239770992E0,7.519500256E-1,2.838000059E0,9.265050888E0
8.259668519E0,1.252950072E0,2.848050117E0,1.048395061E1
8.279565978E0,1.216950059E0,4.048050404E0,1.105800056E1
8.299463528E0,2.077050209E0,4.594050407E0,1.290705109E1
8.319360776E0,3.901950121E0,3.319950104E0,1.467300034E1
8.339258322E0,4.462050438E0,2.236950159E0,1.450305080E1
8.359155870E0,3.753000259E0,2.304000139E0,1.308195019E1
8.379053338E0,2.488050222E0,3.283950090E0,1.070205021E1
8.398950889E0,1.416000009E0,4.167000294E0,8.671050072E0
8.418848428E0,6.630000472E-1,4.467000008E0,7.614000320E0
8.438745970E0,3.550500274E-1,4.084050179E0,7.476000309E0
8.458643266E0,6.610500216E-1,3.196950197E0,7.876050472E0
8.478540808E0,1.156949997E0,2.484000206E0,8.419050217E0
8.498438322E0,8.959500194E-1,2.251049995E0,8.698950768E0
8.518335771E0,-3.150000274E-1,2.818950176E0,8.938950539E0
8.538233322E0,-6.550500393E-1,3.475050211E0,8.890950203E0
8.558130646E0,3.040500283E-1,3.529950142E0,8.874000549E0
8.578028138E0,7.900500298E-1,3.649950266E0,9.351000786E0
8.597925617E0,-4.110000134E-1,4.419000149E0,9.708000183E0
8.617823138E0,-1.534050107E0,5.338950157E0,1.033305073E1
8.637720458E0,-1.207950115E0,4.966950417E0,1.095105076E1
8.657618029E0,-1.182000041E0,4.435950279E0,1.076400089E1
8.677515576E0,-2.188050032E0,4.681950092E0,1.046505070E1
8.697413035E0,-2.734050035E0,4.747050285E0,1.032300091E1
8.717310562E0,-2.197950125E0,4.335000038E0,9.775050163E0
8.737207872E0,-1.651050091E0,3.961050272E0,8.344950676E0
8.757105390E0,-1.467000127E0,3.715050220E0,6.766950130E0
8.777002966E0,-1.383000016E0,3.538050175E0,5.212050438E0
8.796900411E0,-1.072050095E0,3.090000153E0,3.924000263E0
8.816797742E0,-1.042950034E0,2.457000017E0,3.018000126E0
8.836695322E0,-2.253000021E0,2.392950058E0,2.593950033E0
8.856592836E0,-3.661050081E0,3.624000072E0,3.411000252E0
8.876490379E0,-2.974050045E0,3.906000137E0,5.706000328E0
8.896387868E0,-7.270500064E-1,2.623050213E0,6.249000072E0
8.916285403E0,-8.400000334E-1,2.119950056E0,7.945050240E0
8.936182713E0,-1.563000083E0,2.637000084E0,1.146795082E1
8.956080288E0,3.160500228E-1,2.376000166E0,1.381005096E1
8.975977733E0,3.166050196E0,8.980500698E-1,1.518795109E1
8.995875249E0,4.405050278E0,-2.719500065E-1,1.541505051E1
9.015772807E0,2.467050076E0,-5.595000088E-2,1.381005096E1
9.035670108E0,5.130000114E-1,4.819500148E-1,1.151100063E1
9.055567648E0,-1.090500057E-1,9.199500680E-1,1.031100082E1
9.075465127E0,-7.489500642E-1,1.963950038E0,1.003800011E1
9.095362615E0,-1.510050058E0,2.968050241E0,8.922000885E0
9.115259939E0,-1.587000132E0,2.565000057E0,9.073050499E0
9.135157470E0,-1.471950054E0,1.581000090E0,9.838950157E0
9.155054976E0,-3.117000103E0,2.746950150E0,1.077600098E1
9.174952473E0,-5.404050350E0,4.692000389E0,1.212405014E1
9.194849995E0,-4.759950161E0,5.554050446E0,1.188705063E1
9.214747319E0,-2.668950081E0,4.852050304E0,1.078800011E1
9.234644855E0,-2.895000219E0,3.765000105E0,9.346050262E0
9.254542314E0,-5.184000015E0,4.351950169E0,9.106950760E0
9.274439817E0,-5.971950054E0,5.257050037E0,8.388000488E0
9.294337360E0,-4.256999969E0,4.432950020E0,8.074049950E0
9.314234670E0,-2.407950163E0,3.078000069E0,7.156950474E0
9.334132163E0,-1.539000034E0,2.929050207E0,5.533050060E0
9.354029656E0,-1.339950085E0,2.991000175E0,5.056950092E0
9.373927225E0,-1.623000026E0,3.061050177E0,4.978050232E0
9.393824545E0,-2.473050117E0,3.063000202E0,5.695950508E0
9.413722116E0,-2.413050175E0,3.003000259E0,7.135050297E0
9.433619688E0,-1.113000035E0,2.469000101E0,8.447999954E0
9.453517157E0,1.219500080E-1,2.151000023E0,9.135000229E0
9.473414473E0,7.429500222E-1,1.911000133E0,9.652950287E0
9.493312236E0,2.167950153E0,1.597950101E0,1.010505009E1
9.513209560E0,3.913950205E0,8.220000267E-1,1.115400028E1
9.533106977E0,3.387000084E0,2.490000129E-1,1.092705059E1
9.553004524E0,1.303050041E0,1.106999993E0,1.006500053E1
9.572902063E0,-3.030000031E-1,2.007000208E0,9.997050285E0
9.592799383E0,-1.105050087E0,2.698950052E0,9.745950699E0
9.612696914E0,-2.194950104E0,3.990000248E0,1.000695038E1
9.632594434E0,-3.436050177E0,5.779050350E0,9.993000031E0
9.652491921E0,-5.020950317E0,6.754050255E0,1.120905018E1
9.672389453E0,-6.135000229E0,5.806050301E0,1.227495098E1
9.692286715E0,-5.979000092E0,4.098000050E0,1.173600101E1
9.712184275E0,-6.352950096E0,3.324000120E0,1.065105057E1
9.732081734E0,-6.648000240E0,2.899950027E0,1.056300068E1
9.751979265E0,-5.836050510E0,3.625950098E0,1.043100071E1
9.771876698E0,-3.714000225E0,3.406050205E0,7.629000187E0
9.791774026E0,-2.997000217E0,3.051000118E0,5.157000065E0
9.811671544E0,-4.200000286E0,2.842950106E0,4.477050304E0
9.831569087E0,-4.441950321E0,2.115000010E0,6.666000366E0
9.851466334E0,-3.606000185E0,2.059950113E0,9.219000816E0
9.871363871E0,-2.395950079E0,3.031950235E0,1.032105064E1
9.891261348E0,2.610000074E-1,2.425950050E0,1.068000031E1
9.911158900E0,3.046950102E0,1.390500069E-1,1.016505051E1
9.931056423E0,3.490050077E0,-2.611950159E0,9.484950066E0
9.950953986E0,7.110000253E-1,-3.615000248E0,1.102695084E1
9.970851296E0,-2.827050209E0,-4.060500264E-1,1.049100018E1
9.990748736E0,-1.210950017E0,2.469000101E0,9.624000549E0
1.001064627E1,2.541000128E0,1.545000076E0,9.087000847E0
1.003054379E1,2.220000029E0,-6.289500594E-1,8.520000458E0
1.005044112E1,-1.743000031E0,-6.049500108E-1,9.219000816E0
1.007033864E1,-6.861000538E0,2.532000065E0,1.069905090E1
1.009023619E1,-6.679050446E0,5.425050259E0,1.080495071E1
1.011013372E1,-2.883000135E0,5.389050484E0,1.167405033E1
1.013003102E1,-2.578050137E0,4.591050148E0,1.168095016E1
1.014992858E1,-7.062000275E0,1.789050102E0,1.236600018E1
1.016982615E1,-1.108995056E1,1.270500124E-1,1.029405022E1
1.018972359E1,-1.072605038E1,2.227050066E0,9.733950615E0
1.020962111E1,-6.370050430E0,3.865950108E0,1.006905079E1
1.022951864E1,-1.323000073E0,2.613000154E0,7.962000370E0
1.024941596E1,1.866000056E0,3.859500289E-1,5.923950195E0
1.026931343E1,1.846950054E0,-2.310000062E-1,5.551950455E0
1.028921097E1,-8.520000577E-1,9.820500612E-1,4.999050140E0
1.030910830E1,-3.850050211E0,2.824050188E0,5.301000118E0
1.032900586E1,-2.956950188E0,2.638950109E0,4.816950321E0
1.034890330E1,-2.500500083E-1,5.869500041E-1,5.125950336E0
1.036880083E1,7.279500365E-1,6.000000238E-2,6.895950317E0
1.038869834E1,-8.200500607E-1,6.400500536E-1,7.597950459E0
1.040859566E1,-1.692000031E0,1.219500080E-1,9.957000732E0
1.042849311E1,-6.550500393E-1,-1.072050095E0,1.101105022E1
1.044839066E1,7.710000277E-1,-4.540500343E-1,1.017195034E1
1.046828818E1,8.100000620E-1,1.750500053E-1,1.086705017E1
1.048818546E1,-1.108050108E0,3.405000269E-2,1.027500057E1
1.050808300E1,-3.366000175E0,-4.279500246E-1,8.689949989E0
1.052798048E1,-4.189949989E0,2.950500250E-1,1.186605072E1
1.054787779E1,-4.669050217E0,2.629950047E0,1.214595032E1
1.056777530E1,-2.526000023E0,3.861000299E0,1.440000057E1
1.058767282E1,4.960500300E-1,2.077050209E0,1.425105095E1
1.060757031E1,-2.800950050E0,1.059000015E0,1.294605064E1
1.062746783E1,-7.998000145E0,1.594950080E0,1.173105049E1
1.064736536E1,-9.691950798E0,1.885050058E0,1.240005016E1
1.066726268E1,-6.820050240E0,1.116000056E0,1.469895077E1
1.068716014E1,-4.039050102E0,-1.050000079E-3,1.543695068E1
1.070705771E1,-4.390950203E0,7.069500089E-1,1.402095032E1
1.072695524E1,-5.404050350E0,1.725000024E0,1.097505093E1
1.074685254E1,-4.618950367E0,2.065050125E0,8.002050400E0
1.076674998E1,-3.510000229E0,1.962000132E0,6.115050316E0
1.078664749E1,-3.009000063E0,2.047950029E0,5.061000347E0
1.080654502E1,-2.707950115E0,2.244000196E0,4.113000393E0
1.082644235E1,-2.523000002E0,2.338050127E0,3.349050045E0
1.084633989E1,-2.566050053E0,2.176950216E0,2.949000120E0
1.086623735E1,-2.380050182E0,1.899000049E0,4.288050175E0
1.088613490E1,-9.709500670E-1,1.708050132E0,6.922050476E0
1.090603243E1,1.186050057E0,1.195050001E0,9.226050377E0
1.092592970E1,1.935000062E0,4.980000257E-1,1.139595032E1
1.094582718E1,-5.430000424E-1,7.260000110E-1,1.357305050E1
1.096572474E1,-2.602050066E0,1.732050061E0,1.515900040E1
1.098562228E1,3.210000098E-1,8.460000157E-1,1.485195065E1
1.100551958E1,3.667050123E0,-3.730500042E-1,1.418595028E1
1.102541710E1,3.106050253E0,1.104000092E0,1.419405079E1
1.104531458E1,3.280500174E-1,3.520950079E0,1.363995075E1
1.106521215E1,-3.270000219E-1,4.087950230E0,1.177200031E1
1.108510945E1,3.349500299E-1,4.033050060E0,1.012695026E1
1.110500700E1,6.630000472E-1,5.122950077E0,9.721950531E0
1.112490447E1,1.792050123E0,5.314950466E0,1.003800011E1
1.114480197E1,3.517950058E0,3.051000118E0,9.660000801E0
1.116469953E1,4.129050255E0,1.189950109E0,8.171999931E0
1.118459684E1,-3.460500240E-1,4.096050262E0,7.216950417E0
1.120449441E1,-6.319050312E0,9.091950417E0,8.878950119E0
1.122439189E1,-3.904950142E0,6.763950348E0,1.032600021E1
1.124428944E1,4.690500200E-1,3.837000132E0,1.006905079E1
1.126418673E1,-1.039500013E-1,5.800950050E0,9.222000122E0
1.128408426E1,-2.213999987E0,6.937950134E0,9.102000237E0
1.130398174E1,-3.169950247E0,5.595000267E0,1.033800030E1
1.132387928E1,-3.169950247E0,4.960050106E0,9.460950851E0
1.134377683E1,-2.479950190E0,5.554050446E0,7.498950481E0
1.136367412E1,-1.546050072E0,5.322000027E0,6.577050209E0
1.138357156E1,-1.765950084E0,4.864050388E0,6.340050220E0
1.140346914E1,-2.574000120E0,5.803050041E0,5.719950199E0
1.142336645E1,-2.497050047E0,6.562050343E0,5.215050220E0
1.144326399E1,-2.188050032E0,6.091050148E0,5.514000416E0
1.146316146E1,-2.277000189E0,5.668950081E0,5.655000210E0
1.148305899E1,-2.641050100E0,5.785950184E0,5.631000042E0
1.150295652E1,-2.590050220E0,5.581050396E0,6.345000267E0
1.152285379E1,-2.734050035E0,4.965000153E0,6.529950142E0
1.154275124E1,-4.915950298E0,5.554050446E0,2.941950083E0
1.156264879E1,-4.606950283E0,6.586050510E0,5.542950153E0
1.158254613E1,-4.582950115E0,6.475950241E0,7.690950394E0
1.160682075E1,-2.935050249E0,5.515950203E0,8.457000732E0
1.162671829E1,-2.344050169E0,5.377050400E0,8.773950577E0
1.164661560E1,-1.884000063E0,5.149050236E0,9.613950729E0
1.166651318E1,-1.314000010E0,4.836000443E0,1.026105022E1
1.168641065E1,-1.026000023E0,4.993950367E0,9.964050293E0
1.170630796E1,-1.134000063E0,5.494050026E0,8.974950790E0
1.172620556E1,-1.072050095E0,5.362950325E0,8.455050468E0
1.174610306E1,-9.670500755E-1,5.050950050E0,8.560050011E0
1.176600059E1,-8.059500456E-1,4.867050171E0,9.097050667E0
1.178589812E1,-2.359500080E-1,4.615050316E0,9.406050682E0
1.180579544E1,9.300000221E-2,4.414050102E0,9.352950096E0
1.182569293E1,2.400000095E-1,4.177050114E0,9.090000153E0
1.184559048E1,3.880500197E-1,4.219950199E0,9.022950172E0
1.186548779E1,9.100500345E-1,4.051949978E0,9.016050339E0
1.188538533E1,1.336050034E0,3.990000248E0,9.229050636E0
1.190528286E1,1.428000093E0,4.237050056E0,9.303000450E0
1.192518033E1,1.425000072E0,4.394999981E0,9.471000671E0
1.194507767E1,1.657050133E0,4.287000179E0,9.966000557E0
1.196497522E1,1.846950054E0,4.093050003E0,1.042395020E1
1.198487266E1,1.831950068E0,3.946950197E0,1.034700012E1
1.200477012E1,1.894950032E0,3.897000074E0,1.007895088E1
1.202466744E1,2.167950153E0,3.835050106E0,9.334050179E0
1.204456498E1,2.208000183E0,3.925950289E0,8.431050301E0
1.206446244E1,2.208000183E0,4.062000275E0,7.813050270E0
1.208436001E1,2.256000042E0,4.146000385E0,7.825050354E0
1.210425758E1,2.005050182E0,4.162950039E0,7.923000336E0
1.212415489E1,1.377000093E0,4.162950039E0,7.822950363E0
1.214405233E1,8.479500413E-1,4.174950123E0,7.681950569E0
1.216394968E1,4.020000100E-1,4.330049992E0,7.453950405E0
1.218384718E1,1.290000081E-1,4.495950222E0,7.401000500E0
1.220374468E1,2.779500186E-1,4.270050049E0,7.332000256E0
1.222364223E1,1.395000052E-2,4.387950420E0,7.249950409E0
1.224353952E1,-5.279999971E-1,4.777950287E0,7.107000351E0
1.226343703E1,-9.469500184E-1,4.884000301E0,6.862050533E0
1.228333453E1,-1.150950074E0,4.773000240E0,6.514950275E0
1.230323202E1,-1.285050035E0,4.644000053E0,5.731950283E0
1.232312963E1,-1.680000067E0,4.632000446E0,4.903050423E0
1.234302694E1,-1.932000041E0,4.543050289E0,4.156050205E0
1.236292445E1,-1.716000080E0,4.183950424E0,3.670050144E0
1.238282164E1,-1.243950009E0,3.568950176E0,3.526050091E0
1.240271918E1,-1.150950074E0,2.929050207E0,3.900000095E0
1.242261661E1,-1.771050096E0,3.253050089E0,4.141950130E0
1.244251416E1,-2.202000141E0,4.042950153E0,4.968000412E0
1.246241173E1,-1.522050023E0,4.582050323E0,6.625050545E0
1.248230899E1,2.470500171E-1,4.504950047E0,8.635050774E0
1.250220656E1,1.843950033E0,3.978000164E0,1.108995056E1
1.252210402E1,2.335050106E0,3.681000233E0,1.304595089E1
1.254200152E1,2.581950188E0,3.304950237E0,1.340805054E1
1.256189884E1,1.974000096E0,4.207950115E0,1.157805061E1
1.258179635E1,8.500500321E-1,5.602050304E0,1.009095001E1
1.260169383E1,5.680500269E-1,5.857950211E0,9.280950546E0
1.262159109E1,1.012950063E0,5.017950058E0,9.043950081E0
1.264148859E1,1.106999993E0,3.672000170E0,8.826000214E0
1.266138607E1,5.410500169E-1,2.826000214E0,8.437950134E0
1.268128359E1,-6.105000153E-2,2.862000227E0,7.998000145E0
1.270118094E1,-6.790500283E-1,3.328950167E0,7.339050293E0
1.272107838E1,-1.893000126E0,4.102950096E0,7.309950352E0
1.274097592E1,-2.977950096E0,5.014950275E0,8.244000435E0
1.276087348E1,-3.190950155E0,6.160050392E0,8.850000381E0
1.278077079E1,-3.421050072E0,7.021950245E0,9.411000252E0
1.280066827E1,-3.096000195E0,6.768000126E0,1.074495029E1
1.282056578E1,-2.863050222E0,6.238950253E0,1.230405045E1
1.284046304E1,-3.817050219E0,6.462000370E0,1.334100056E1
1.286036057E1,-3.762000084E0,6.442950249E0,1.268505096E1
1.288025802E1,-2.839050055E0,6.459000111E0,1.044300079E1
1.290015559E1,-1.680000067E0,5.893950462E0,7.837050438E0
1.292005292E1,-5.689499974E-1,4.696950436E0,5.731950283E0
1.293995046E1,-5.400000140E-2,3.781950235E0,4.270950317E0
1.295984795E1,3.600000218E-2,3.217050076E0,3.634050131E0
1.297974525E1,9.300000221E-2,3.087000132E0,3.478050232E0
1.299964280E1,1.219500080E-1,3.073050261E0,3.223950148E0
1.301954023E1,1.270500124E-1,2.869050026E0,3.544950247E0
1.303943776E1,1.560000032E-1,2.826000214E0,5.119050026E0
1.305933510E1,-7.995000482E-2,3.159000158E0,6.759000301E0
1.307923252E1,-6.979500055E-1,3.937950134E0,8.457000732E0
1.309913004E1,-3.850500286E-1,4.551000118E0,1.035195065E1
1.311902758E1,6.130500436E-1,4.896000385E0,1.192995071E1
1.313892491E1,1.425000072E0,4.174950123E0,1.348005104E1
1.315882242E1,1.453950047E0,3.295950174E0,1.451700115E1
1.317871974E1,2.830500007E-1,4.576950073E0,1.331205082E1
1.319861729E1,3.405000269E-2,5.250000477E0,1.266600037E1
1.321851472E1,8.359500170E-1,4.420950413E0,1.189005089E1
1.323841224E1,1.236000061E0,4.000050068E0,1.065600014E1
1.325830980E1,1.257000089E0,3.657000065E0,9.115950584E0
1.327820708E1,5.890500546E-1,3.526050091E0,8.119950294E0
1.329810461E1,-5.380499959E-1,4.186950207E0,7.921050549E0
1.331800209E1,-6.000000238E-1,4.809000015E0,8.521950722E0
1.333789945E1,5.010000467E-1,4.969950199E0,9.928050041E0
1.335779698E1,1.921050072E0,5.101950169E0,1.049595070E1
1.337769440E1,1.396050096E0,5.827050209E0,9.334050179E0
1.339759173E1,-8.505000174E-2,6.586050510E0,8.395050049E0
1.341748926E1,-4.249500334E-1,6.601050377E0,7.810950279E0
1.343738679E1,-4.950000346E-1,6.531000137E0,7.260000229E0
1.345728424E1,-7.920000553E-1,6.613050461E0,7.099950314E0
1.347718156E1,-5.670000315E-1,6.459000111E0,7.116000175E0
1.349707903E1,7.905000448E-2,5.698050499E0,6.726000309E0
1.351697657E1,5.800500512E-1,4.483950138E0,6.199050426E0
1.353687389E1,5.460000038E-1,3.547050238E0,5.583000183E0
1.355677141E1,8.595000207E-2,3.721950293E0,5.260050297E0
1.357666885E1,7.905000448E-2,4.111950397E0,5.590950489E0
1.359656641E1,6.109500527E-1,3.946950197E0,6.070050240E0
1.361646369E1,6.990000606E-1,3.937950134E0,6.747000217E0
1.363636113E1,7.050000131E-3,3.988050222E0,8.171999931E0
1.365625863E1,-6.049500108E-1,3.681000233E0,1.035705090E1
1.367615595E1,-1.177050114E0,3.231000185E0,1.192800045E1
1.369605351E1,-1.675050020E0,2.959950209E0,1.250295067E1
1.371595096E1,-1.588950038E0,2.479050159E0,1.332900047E1
1.373584852E1,-6.190500259E-1,1.855950117E0,1.339800072E1
1.375574582E1,-1.590000093E-1,1.747950077E0,1.281195068E1
1.377564329E1,-6.795000285E-2,2.271000147E0,1.251000023E1
1.379554080E1,4.240500331E-1,3.327000141E0,1.189005089E1
1.381543808E1,9.270000458E-1,4.440000057E0,1.112805080E1
1.383533554E1,1.393950105E0,3.925950289E0,1.155405045E1
1.385523305E1,1.573950052E0,2.581950188E0,1.129305077E1
1.387513038E1,9.480000734E-1,2.104950190E0,9.643050194E0
1.389502786E1,-1.090500057E-1,2.539050102E0,7.830000401E0
1.391492539E1,-9.330000281E-1,3.310050249E0,6.367050171E0
1.393482294E1,-1.387950063E0,4.054950237E0,6.124950409E0
1.395472027E1,-1.158000112E0,3.909000158E0,7.198050499E0
1.397461772E1,-8.830500245E-1,3.043950081E0,8.905050278E0
1.399451526E1,-1.479000092E0,2.701950073E0,1.020105076E1
1.401441260E1,-2.509050131E0,2.824050188E0,1.048095036E1
1.403431013E1,-3.589050055E0,3.406050205E0,1.045005035E1
1.405420762E1,-3.342000246E0,4.195950031E0,1.068495083E1
1.407410492E1,-1.660950065E0,3.985050201E0,1.102995014E1
1.409400245E1,-9.709500670E-1,3.573000193E0,1.086195087E1
1.411389996E1,-1.630050063E0,4.239000320E0,1.022505093E1
1.413379744E1,-1.555950046E0,4.594050407E0,9.547050476E0
1.415369499E1,-8.370000124E-1,3.835050106E0,9.219000816E0
1.417359230E1,-1.299000025E0,3.226050138E0,9.415950775E0
1.419348976E1,-2.610000134E0,3.631050110E0,9.808050156E0
1.421338707E1,-2.638050079E0,3.918000221E0,9.741000175E0
1.423328460E1,-1.564950109E0,3.364950180E0,9.030000687E0
1.425318206E1,-1.054949999E0,3.015000105E0,8.352000237E0
1.427307936E1,-1.453050017E0,3.075000048E0,7.416000366E0
1.429297692E1,-2.101950169E0,3.091950178E0,6.550950527E0
1.431287437E1,-2.305050135E0,2.790000200E0,6.039000511E0
1.433277189E1,-2.430000067E0,2.505000114E0,5.554950237E0
1.435266921E1,-2.929950237E0,2.637000084E0,5.209950447E0
1.437256663E1,-3.436050177E0,2.706000090E0,5.545050144E0
1.439246418E1,-4.019999981E0,2.668050051E0,6.082050323E0
1.441236148E1,-4.651950359E0,2.793000221E0,7.212000370E0
1.443225906E1,-4.963950157E0,2.656050205E0,8.340000153E0
1.445215651E1,-5.064000130E0,3.214050055E0,9.420000076E0
1.447205407E1,-3.309000254E0,3.589950085E0,1.157805061E1
1.449195139E1,-2.770500183E-1,2.746950150E0,1.336995029E1
1.451184886E1,7.330500484E-1,2.577000141E0,1.382205105E1
1.453174643E1,-6.790500283E-1,2.671050072E0,1.409805107E1
1.455164376E1,-1.849950075E0,2.553000212E0,1.260795021E1
1.457154125E1,-1.881000042E0,2.589000225E0,1.034700012E1
1.459143877E1,-1.591950059E0,3.145050049E0,8.350049973E0
1.461133611E1,-1.636950135E0,3.633000135E0,7.579050541E0
1.463123364E1,-1.489050031E0,3.484950066E0,7.725000381E0
1.465113110E1,-9.619500637E-1,3.058950186E0,8.047950745E0
1.467102865E1,-8.299500346E-1,3.111000061E0,7.879950523E0
1.469092599E1,-1.443000078E0,3.442050219E0,7.768050194E0
1.471082349E1,-2.320050001E0,3.616950274E0,7.950000286E0
1.473072082E1,-2.806050062E0,3.868050098E0,8.304000854E0
1.475061833E1,-2.359950066E0,4.345050335E0,8.565000534E0
1.477051588E1,-1.495950103E0,4.708950043E0,8.746950150E0
1.479041331E1,-1.719000101E0,5.014950275E0,8.719050407E0
1.481031087E1,-2.130000114E0,5.142000198E0,8.653950691E0
1.483020818E1,-2.104050159E0,5.049000263E0,8.218050003E0
1.485010561E1,-2.506950140E0,5.209050179E0,8.725950241E0
1.487000313E1,-2.875050068E0,5.128050327E0,1.020105076E1
1.488990042E1,-3.040950060E0,4.747050285E0,1.180095100E1
1.490979789E1,-2.659950018E0,4.129050255E0,1.241400051E1
1.492969540E1,-1.864950061E0,3.348000050E0,1.144605064E1
1.494959296E1,-1.738050103E0,3.523050070E0,9.942000389E0
1.496949026E1,-2.071050167E0,4.290000439E0,8.227950096E0
1.498938772E1,-2.049000025E0,4.378050327E0,7.416000366E0
1.500928501E1,-1.564950109E0,3.697950125E0,7.119000435E0
1.502918250E1,-1.383000016E0,3.150000095E0,6.793050289E0
1.504907994E1,-1.860000134E0,3.079950094E0,6.177000523E0
1.506897750E1,-2.763000250E0,3.348000050E0,6.010050297E0
1.508887504E1,-3.393000126E0,3.480000257E0,6.568050385E0
1.510877227E1,-3.751950264E0,3.657000065E0,7.537950516E0
1.512866978E1,-3.793050289E0,3.765000105E0,8.671050072E0
1.514856710E1,-3.613050222E0,3.832050085E0,9.075000763E0
1.516846464E1,-4.003050327E0,4.384950161E0,8.560050011E0
1.518836209E1,-3.418950081E0,4.462050438E0,9.739050865E0
1.520825962E1,-2.041949987E0,3.708000183E0,1.072605038E1
1.522815693E1,-2.176050186E0,3.562050104E0,1.244505024E1
1.524805436E1,-2.334000111E0,3.178050041E0,1.355400085E1
1.526795192E1,-1.675050020E0,2.721000195E0,1.257000065E1
1.528784924E1,-1.414050102E0,3.412950277E0,1.023900032E1
1.530774676E1,-1.752000093E0,4.464000225E0,8.203949928E0
1.532764422E1,-1.792950034E0,4.587000370E0,7.353000164E0
1.534754176E1,-1.534050107E0,4.309050083E0,7.156950474E0
1.536743911E1,-1.534050107E0,4.190999985E0,6.961050510E0
1.538733654E1,-1.759050131E0,4.122000217E0,6.811950207E0
1.540723385E1,-2.065950155E0,3.897000074E0,6.774000168E0
1.542713144E1,-2.301000118E0,3.655050278E0,6.939000130E0
1.544702887E1,-2.277000189E0,3.612000227E0,7.246050358E0
1.546692619E1,-2.001000166E0,3.496950150E0,7.867950439E0
1.548682374E1,-1.731000066E0,3.159000158E0,8.617950439E0
1.550672119E1,-1.804950118E0,3.085050106E0,9.190050125E0
1.552661850E1,-2.281050205E0,3.741000175E0,9.169050217E0
1.554651602E1,-2.209950209E0,4.342050076E0,8.695050240E0
1.556641348E1,-1.812000036E0,4.657950401E0,8.026050568E0
1.558631076E1,-1.861950040E0,5.454000473E0,7.846950531E0
1.560620828E1,-1.611000061E0,5.722050190E0,8.171999931E0
1.562610573E1,-9.949500561E-1,5.149050236E0,9.135000229E0
1.564600326E1,-1.774050117E0,5.077950478E0,9.885000229E0
1.566590056E1,-2.899050236E0,5.086950302E0,1.083105087E1
1.568579808E1,-2.956950188E0,4.642050266E0,1.098405075E1
1.570569556E1,-2.503950119E0,4.239000320E0,1.035000038E1
1.572559309E1,-2.008050203E0,4.366050243E0,9.328950882E0
1.574549036E1,-1.849950075E0,4.678050041E0,8.374050140E0
1.576538784E1,-1.752000093E0,4.761000156E0,7.879950523E0
1.578528536E1,-1.510050058E0,4.519950390E0,7.710000515E0
1.580518264E1,-1.315950036E0,4.203000069E0,7.768050194E0
1.582508022E1,-1.252050042E0,3.990000248E0,7.891950607E0
1.584497769E1,-1.369050026E0,3.993000269E0,7.468050480E0
1.586487500E1,-1.503000021E0,3.985050201E0,7.150050163E0
1.588477249E1,-1.527000070E0,3.820050240E0,7.272000313E0
1.590467006E1,-1.759050131E0,4.213050365E0,7.843950272E0
1.592456738E1,-1.872000098E0,4.567049980E0,8.917050362E0
1.594446494E1,-1.596000075E0,4.285050392E0,9.775050163E0
1.596436240E1,-1.180050015E0,4.183950424E0,9.753000259E0
1.598425995E1,-1.207950115E0,4.711050034E0,9.492000580E0
1.600415726E1,-1.000050068E0,4.977000237E0,9.720000267E0
1.602405472E1,-2.170500159E-1,4.696950436E0,1.023000050E1
1.604395223E1,2.440500110E-1,4.407000065E0,1.061505032E1
1.606384954E1,2.730000019E-1,4.348950386E0,1.049100018E1
1.608374702E1,2.059500068E-1,4.190999985E0,1.066605091E1
1.610364454E1,-1.879500151E-1,3.985050201E0,1.095300007E1
1.612354188E1,-8.040000200E-1,3.949950218E0,1.134300041E1
1.614343939E1,-4.110000134E-1,3.957000256E0,1.065900040E1
1.616333684E1,3.330000043E-1,4.239000320E0,9.147000313E0
1.618323416E1,5.029500127E-1,5.070000172E0,7.732050419E0
1.620313171E1,5.050500035E-1,5.965950489E0,6.666000366E0
1.622302917E1,7.690500617E-1,5.656950474E0,6.688050270E0
1.624292647E1,5.629500151E-1,4.600950241E0,7.321950436E0
1.626282393E1,-1.469999999E-1,4.155000210E0,7.324950218E0
1.628272139E1,-5.400000215E-1,4.539000034E0,6.963000298E0
1.630261869E1,-2.670000196E-1,4.764000416E0,6.726000309E0
1.632251623E1,2.040000111E-1,4.357050419E0,6.967950344E0
1.634241371E1,3.090000153E-1,4.222949982E0,7.413000584E0
1.636231127E1,4.140000343E-1,4.692000389E0,7.725000381E0
1.638220859E1,6.010500193E-1,4.963050365E0,7.501950264E0
1.640210607E1,5.130000114E-1,5.166000366E0,7.498950481E0
1.642200360E1,-1.330500096E-1,5.797950268E0,7.885050297E0
1.644190090E1,-2.479500175E-1,6.328050137E0,8.764050484E0
1.646179842E1,6.850500107E-1,6.270000458E0,8.977050781E0
1.648169594E1,7.879500389E-1,6.820950508E0,8.488950729E0
1.650159323E1,-3.340500295E-1,7.719000340E0,8.067000389E0
1.652149073E1,-4.399500191E-1,7.231050491E0,8.077050209E0
1.654138818E1,-1.570500135E-1,6.298950195E0,8.769000053E0
1.656128548E1,-6.619500518E-1,6.487950325E0,9.358050346E0
1.658118311E1,-6.720000505E-1,6.330000401E0,9.729000092E0
1.660108066E1,-1.189500093E-1,5.727000237E0,9.271950722E0
1.662097793E1,-1.260000020E-1,5.620950222E0,8.131950378E0
1.664087546E1,-4.080000222E-1,5.731050491E0,7.060950279E0
1.666077291E1,-3.559500277E-1,5.584950447E0,6.604050159E0
1.668067046E1,2.400000021E-2,5.137050152E0,6.883950233E0
1.670056777E1,1.099500060E-1,4.703999996E0,7.392000198E0
1.672046529E1,-1.090500057E-1,4.788000107E0,7.734000206E0
1.674036276E1,-2.740500271E-1,5.002950191E0,7.710000515E0
1.676026006E1,-4.369500279E-1,4.966950417E0,7.276950359E0
1.678015760E1,-7.770000100E-1,4.800000191E0,7.183050156E0
1.680005503E1,-1.078950047E0,4.929000378E0,7.749000549E0
1.681995234E1,-1.306950092E0,5.236050129E0,8.098050117E0
1.683984981E1,-1.479000092E0,5.509050369E0,7.831950188E0
1.685974735E1,-1.647000074E0,5.821950436E0,7.729050159E0
1.687964467E1,-1.588950038E0,5.892000198E0,8.077050209E0
1.689954213E1,-1.249050021E0,5.581050396E0,8.956050873E0
1.691943967E1,-1.057950020E0,5.545050144E0,9.222000122E0
1.693933697E1,-1.114950061E0,5.983050346E0,8.443050385E0
1.695923442E1,-1.459950089E0,6.567000389E0,7.492050171E0
1.697913194E1,-1.992000103E0,6.823950291E0,7.159050465E0
1.699902925E1,-1.339950085E0,5.889000416E0,8.398050308E0
1.701892677E1,-9.469500184E-1,5.298000336E0,9.660000801E0
1.703882422E1,-1.455000043E0,5.731050491E0,9.511050224E0
1.705872179E1,-1.527000070E0,6.244050503E0,8.187000275E0
1.707861909E1,-1.216050029E0,6.727950096E0,6.982050419E0
1.709851656E1,-1.002000093E0,6.948000431E0,6.481950283E0
1.711841406E1,-7.200000286E-1,6.502950191E0,6.709050179E0
1.713831138E1,-8.850000501E-1,6.057000160E0,6.847950459E0
1.715820883E1,-1.522050023E0,5.971050262E0,6.918000221E0
1.717810617E1,-1.927050114E0,5.925000191E0,6.685050488E0
1.719800371E1,-2.236050129E0,5.418000221E0,6.757050514E0
1.721790113E1,-2.815050125E0,4.819050312E0,7.504050255E0
1.723779866E1,-3.151050091E0,4.809000015E0,8.223000526E0
1.725769596E1,-2.928000212E0,5.128050327E0,8.328000069E0
1.727759351E1,-2.953950167E0,5.523000240E0,8.413949966E0
1.729749095E1,-3.180000067E0,5.755050182E0,8.617950439E0
1.731738825E1,-3.414000273E0,5.989950180E0,8.865000725E0
1.733728570E1,-3.009000063E0,6.535950184E0,8.842950821E0
1.735718324E1,-2.313000202E0,7.318950176E0,8.443050385E0
1.737708051E1,-2.398950100E0,7.930050373E0,8.392950058E0
1.739697800E1,-2.619000196E0,7.663950443E0,8.569950104E0
1.741687554E1,-2.811000109E0,7.258950233E0,9.412950516E0
1.743677311E1,-2.650050163E0,6.996000290E0,1.019895077E1
1.745667038E1,-2.523000002E0,6.586050510E0,1.074705029E1
1.747656793E1,-2.394000053E0,5.860950470E0,1.058205032E1
1.749646520E1,-2.238000154E0,5.560950279E0,9.645000458E0
1.751636273E1,-2.193000078E0,5.772000313E0,8.797950745E0
1.753626021E1,-2.097000122E0,5.923050404E0,8.710950851E0
1.755615774E1,-1.740000129E0,5.901000500E0,8.947950363E0
1.757605505E1,-1.474050045E0,5.727000237E0,9.046950340E0
1.759595251E1,-1.540950060E0,5.724000454E0,8.587050438E0
1.761585008E1,-1.812000036E0,5.983050346E0,7.630950451E0
1.763574738E1,-2.302950144E0,5.983050346E0,7.119000435E0
1.765564495E1,-2.620950222E0,5.758050442E0,7.128000259E0
1.767554244E1,-2.679000139E0,5.604000092E0,7.224000454E0
1.769543977E1,-3.055050135E0,5.683950424E0,6.240000248E0
1.771533723E1,-3.868950129E0,5.833950043E0,6.343050480E0
1.773523480E1,-3.523950100E0,5.566050053E0,8.647050858E0
1.775513233E1,-3.402000189E0,5.434050083E0,9.576000214E0
1.777502963E1,-3.781050205E0,5.422050476E0,8.512949944E0
1.779987044E1,-3.520050049E0,5.763000488E0,7.540050507E0
1.781976791E1,-3.414000273E0,5.188050270E0,7.567050457E0
1.783966525E1,-3.211050034E0,4.783050060E0,7.722000599E0
1.785956267E1,-3.202950239E0,4.771050453E0,8.171999931E0
1.787945996E1,-2.815050125E0,4.338000298E0,8.793000221E0
1.789935746E1,-2.356050014E0,3.964050293E0,8.850000381E0
1.791925478E1,-2.563950062E0,4.237050056E0,8.500950813E0
1.793915226E1,-2.787000179E0,4.611000061E0,8.290050507E0
1.795904955E1,-2.443950176E0,4.612950325E0,8.326050758E0
1.797894706E1,-1.965000153E0,4.567049980E0,8.215950012E0
1.799884437E1,-1.765950084E0,4.644000053E0,8.005050659E0
1.801874185E1,-1.828950047E0,4.833000183E0,7.725000381E0
1.803863921E1,-2.056050062E0,5.142000198E0,7.702950478E0
1.805853668E1,-2.146950006E0,5.215950012E0,8.011950493E0
1.807843400E1,-2.017950058E0,4.993950367E0,8.395050049E0
1.809833141E1,-1.879050136E0,4.703999996E0,8.352000237E0
1.811822870E1,-1.927050114E0,4.546050072E0,7.903950214E0
1.813812611E1,-2.049000025E0,4.606050014E0,7.345950127E0
1.815802338E1,-1.963050127E0,4.548000336E0,6.961050510E0
1.817792086E1,-1.834050059E0,4.394999981E0,6.769050121E0
1.819781816E1,-1.687050104E0,4.266000271E0,6.811950207E0
1.821771559E1,-1.491000056E0,4.302000046E0,6.655950546E0
1.823761289E1,-1.198950052E0,4.323000431E0,6.529950142E0
1.825751036E1,-9.090000391E-1,4.171950340E0,6.501000404E0
1.827740769E1,-7.870500088E-1,4.063950062E0,6.409950256E0
1.829730514E1,-1.050000072E0,4.210950375E0,6.331050396E0
1.831720249E1,-1.255950093E0,4.612950325E0,6.208950520E0
1.833709995E1,-6.769500375E-1,4.596000195E0,6.276000500E0
1.835699722E1,4.620000124E-1,3.916050196E0,6.169950485E0
1.837689469E1,6.900000572E-1,3.279000044E0,5.691000462E0
1.839679199E1,-7.609500289E-1,3.403050184E0,5.361000061E0
1.841668924E1,-2.533050060E0,4.042950153E0,5.626950264E0
1.843658679E1,-2.892000198E0,3.928050280E0,6.184950352E0
1.845648405E1,-1.843050122E0,2.671050072E0,7.213950157E0
1.847638158E1,-2.383949995E0,2.260950089E0,1.030605030E1
1.849627881E1,-4.399050236E0,3.085050106E0,1.385100079E1
1.851617628E1,-5.196000099E0,1.831950068E0,1.203300095E1
1.853607358E1,-4.987950325E0,-4.695000127E-2,1.300095081E1
1.855597105E1,-7.330050468E0,1.260000110E0,1.430400085E1
1.857586835E1,-8.815050125E0,2.338050127E0,1.153500080E1
1.859576583E1,-7.287000179E0,2.187000036E0,1.320195103E1
1.861566316E1,-7.300950527E0,2.067000151E0,1.201605034E1
1.863556063E1,-8.275950432E0,2.532000065E0,1.097895050E1
1.865545789E1,-6.961050510E0,1.914000034E0,1.017495060E1
1.867535545E1,-4.092000008E0,1.396050096E0,8.380949974E0
1.869525267E1,-2.134950161E0,1.072950006E0,7.480050564E0
1.871514996E1,-9.330000281E-1,6.180000305E-1,6.115050316E0
1.873504741E1,-1.564950109E0,1.042050004E0,5.197950363E0
1.875494472E1,-2.856000185E0,2.760000229E-1,4.402950287E0
1.877484221E1,-3.271050215E0,-5.400000140E-2,4.669050217E0
1.879473948E1,-2.722050190E0,1.489500105E-1,4.996950150E0
1.881463693E1,-2.205000162E0,3.589500189E-1,5.161950111E0
1.883453423E1,-2.302950144E0,1.890000105E-1,6.522000313E0
1.885443171E1,-2.013000011E0,-1.956000090E0,7.887000561E0
1.887432899E1,-4.474950314E0,-2.929950237E0,7.447050571E0
1.889422641E1,-9.676950455E0,-1.429050088E0,9.250050545E0
1.891412369E1,-1.175400066E1,-1.830000132E-1,9.291000366E0
1.893402114E1,-4.305000305E0,-1.992000103E0,1.304895020E1
1.895391842E1,1.867950082E0,-3.523950100E0,1.471305084E1
1.897381584E1,4.605000094E-2,-2.815050125E0,1.576695061E1
1.899371314E1,-1.774050117E0,-2.497050047E0,1.340805054E1
1.901361062E1,-1.539000034E0,-2.289000034E0,1.224600029E1
1.903350794E1,5.869500041E-1,-2.145000219E0,1.156905079E1
1.905340540E1,1.710000038E0,-1.402050018E0,9.889950752E0
1.907330274E1,1.044000030E0,1.005000062E-2,8.649000168E0
1.909319995E1,-6.599999964E-2,4.960500300E-1,8.541000366E0
1.911309755E1,-7.489500642E-1,3.330000043E-1,8.659049988E0
1.913299476E1,-1.004999995E0,6.349500418E-1,8.596050262E0
1.915289228E1,-7.890000343E-1,1.225950003E0,7.413000584E0
1.917278950E1,1.395000052E-2,1.353000045E0,6.586950302E0
1.919268705E1,1.054050088E0,1.486950040E0,7.080000401E0
1.921258430E1,4.669500291E-1,2.236950159E0,9.013050079E0
1.923248177E1,-9.349500537E-1,3.886950254E0,9.564000130E0
1.925237907E1,-7.939500213E-1,4.524000168E0,9.222000122E0
1.927227653E1,-6.220500469E-1,4.819050312E0,9.073050499E0
1.929217384E1,-1.680000067E0,6.129000187E0,9.712050438E0
1.931207130E1,-1.161000013E0,6.553050518E0,1.053195095E1
1.933196859E1,1.129500046E-1,6.297000408E0,1.044795036E1
1.935186607E1,6.109500527E-1,6.613050461E0,9.841950417E0
1.937176339E1,5.700000525E-1,6.382950306E0,9.745950699E0
1.939166079E1,1.129500046E-1,5.794050217E0,8.794950485E0
1.941155809E1,-4.200000316E-2,5.635950089E0,8.206049919E0
1.943145553E1,-3.705000132E-2,5.272050381E0,9.384000778E0
1.945135286E1,-4.200000316E-2,4.752000332E0,1.005300045E1
1.947125011E1,9.600000083E-2,4.111950397E0,9.861000061E0
1.949114763E1,2.639999986E-1,2.697000027E0,8.850000381E0
1.951104490E1,1.390500069E-1,1.999950051E0,8.290050507E0
1.953094236E1,-5.640000105E-1,2.413950205E0,8.412000656E0
1.955083966E1,-8.179500103E-1,3.049050093E0,8.335050583E0
1.957073715E1,4.549500346E-1,3.181050062E0,7.750950336E0
1.959063444E1,1.744050026E0,3.162000179E0,7.297950268E0
1.961053189E1,1.732050061E0,3.597000122E0,6.823950291E0
1.963042921E1,9.150000215E-1,4.315950394E0,6.831000328E0
1.965032669E1,2.320500165E-1,5.065950394E0,7.399050236E0
1.967022396E1,7.830000520E-1,5.796000481E0,7.662000179E0
1.969012118E1,1.588050127E0,6.208050251E0,8.280000687E0
1.971001873E1,1.906950116E0,6.570000172E0,9.222000122E0
1.972991600E1,1.696050048E0,6.733050346E0,9.825000763E0
1.974981354E1,4.410000145E-1,7.044000149E0,9.784050941E0
1.976971076E1,8.205000311E-2,6.655950546E0,9.823050499E0
1.978960821E1,6.660000086E-1,6.106950283E0,9.964050293E0
1.980950576E1,8.190000653E-1,6.045000076E0,9.495000839E0
1.982940301E1,1.111050010E0,6.103050232E0,8.647050858E0
1.984930032E1,1.678950071E0,5.920950413E0,7.624050140E0
1.986919778E1,7.519500256E-1,5.752950191E0,7.044000149E0
1.988909507E1,-6.460500360E-1,5.419950485E0,7.284000397E0
1.990899256E1,-1.033950090E0,5.032050133E0,7.666950226E0
1.992888990E1,-4.009500146E-1,4.519950390E0,7.332000256E0
1.994878714E1,-9.000000544E-3,4.177050114E0,7.107000351E0
1.996868457E1,-2.530499995E-1,4.303950310E0,7.060950279E0
1.998858190E1,-2.980500162E-1,4.275000095E0,7.341000557E0
2.000847938E1,1.699500084E-1,4.081050396E0,7.473000526E0
2.002837670E1,6.130500436E-1,3.954000235E0,7.261950493E0
2.004827411E1,3.739500046E-1,4.153050423E0,7.059000492E0
2.006817143E1,4.800000042E-2,4.444950104E0,6.769050121E0
2.008806891E1,-1.140000075E-1,4.552950382E0,6.489000320E0
2.010796624E1,-6.405000389E-2,4.861950397E0,6.862050533E0
2.012786374E1,5.839500427E-1,5.011050224E0,7.534950256E0
2.014776103E1,8.910000324E-1,5.086950302E0,8.067000389E0
2.016765850E1,3.709500134E-1,5.490000248E0,8.505000114E0
2.018755580E1,-5.400000140E-2,6.663000107E0,9.090000153E0
2.020745325E1,-3.495000303E-2,7.291050434E0,9.544950485E0
2.022735046E1,1.890000105E-1,7.273950577E0,9.934950829E0
2.024724772E1,-1.309500039E-1,7.137000561E0,1.045005035E1
2.026714520E1,-4.950000346E-1,6.984000206E0,1.037100029E1
2.028704252E1,-3.460500240E-1,6.651000500E0,9.964050293E0
2.030694001E1,-1.999500096E-1,6.406950474E0,1.016505051E1
2.032683732E1,5.820000172E-1,5.995050430E0,1.074195004E1
2.034673479E1,1.333950043E0,5.296050072E0,1.056495094E1
2.036663210E1,1.011000037E0,4.987050056E0,9.577950478E0
2.038652956E1,4.459500313E-1,4.852050304E0,8.447999954E0
2.040642687E1,4.339500070E-1,4.645950317E0,7.770000458E0
2.042632434E1,7.069500089E-1,4.572000027E0,7.546950340E0
2.044622162E1,1.128000021E0,4.363950253E0,6.709050179E0
2.046611906E1,1.245000005E0,4.270050049E0,5.614950180E0
2.048601635E1,1.084950089E0,4.155000210E0,5.341950417E0
2.050591360E1,8.500500321E-1,4.029000282E0,6.097950459E0
2.052581106E1,3.450000286E-1,3.928050280E0,6.574950218E0
2.054570838E1,-3.799500167E-1,4.189050198E0,6.163050175E0
2.056560588E1,-4.830000103E-1,4.816950321E0,6.127050400E0
2.058550314E1,7.039500475E-1,4.948050022E0,7.380000114E0
2.060540060E1,1.044000030E0,4.884000301E0,9.202050209E0
2.062529784E1,1.410000026E-1,5.238000393E0,1.008600044E1
2.064519529E1,-8.505000174E-2,5.487000465E0,9.520950317E0
2.066509263E1,3.900000155E-1,5.575950146E0,9.031949997E0
2.068499012E1,2.869500220E-1,5.985000134E0,9.340950012E0
2.070488736E1,4.995000362E-2,6.069000244E0,9.517950058E0
2.072478464E1,7.050000131E-3,6.151050091E0,9.535050392E0
2.074468208E1,-2.650500238E-1,6.594000340E0,9.544950485E0
2.076457939E1,-3.649500310E-1,6.646050453E0,9.724050522E0
2.078447685E1,1.128000021E0,5.463000298E0,9.862950325E0
2.080437418E1,1.413000107E0,5.221050262E0,9.721950531E0
2.082427163E1,1.006049991E0,5.307000160E0,9.439050674E0
2.084416894E1,7.500000596E-1,5.260050297E0,8.125050545E0
2.086406641E1,1.530000120E-1,5.652000427E0,6.631950378E0
2.088396363E1,1.990500093E-1,5.760000229E0,5.737050056E0
2.090386120E1,7.140000463E-1,5.449050426E0,5.548050404E0
2.092375852E1,1.003950000E0,5.008050442E0,5.920950413E0
2.094365577E1,7.549500465E-1,4.558050156E0,6.177000523E0
2.096355322E1,4.069500268E-1,4.516950130E0,6.427050114E0
2.098345050E1,7.279500365E-1,4.630050182E0,6.520050526E0
2.100334795E1,1.144950032E0,4.669950008E0,6.517950535E0
2.102324525E1,1.248000026E0,4.632000446E0,6.574950218E0
2.104314271E1,1.171050072E0,4.596000195E0,6.874050140E0
2.106303999E1,1.092000008E0,4.780950069E0,7.665000439E0
2.108293744E1,1.204950094E0,4.942950249E0,8.569950104E0
2.110283474E1,9.220500588E-1,5.202000141E0,9.157050133E0
2.112273196E1,1.729500145E-1,6.334950447E0,9.448950768E0
2.114262946E1,5.340000391E-1,7.426950455E0,1.009800053E1
2.116252670E1,2.223000050E0,7.318950176E0,1.090305042E1
2.118242414E1,2.649000168E0,6.985950470E0,1.172400093E1
2.120232147E1,2.062050104E0,6.622050285E0,1.153695011E1
2.122221893E1,1.344000101E0,6.607950211E0,1.032300091E1
2.124211617E1,1.222050071E0,6.337050438E0,9.370050430E0
2.126201373E1,1.309950113E0,6.076050282E0,9.495000839E0
2.128191095E1,1.138050079E0,5.608950138E0,9.901950836E0
2.130180849E1,7.549500465E-1,5.130000114E0,9.595050812E0
2.132170579E1,6.870000362E-1,4.825950146E0,8.857050896E0
2.134160303E1,1.104000092E0,4.732950211E0,8.356950760E0
2.136150060E1,1.582950115E0,4.824000359E0,7.915950298E0
2.138139783E1,1.863000035E0,4.795050144E0,6.714000225E0
2.140129531E1,1.798950076E0,4.623000145E0,5.500050068E0
2.142119267E1,1.396050096E0,4.563000202E0,4.891050339E0
2.144109014E1,1.042050004E0,4.438050270E0,5.041950226E0
2.146098740E1,6.559500098E-1,4.290000439E0,5.404050350E0
2.148088494E1,3.499500155E-1,4.464000225E0,5.526000500E0
2.150078219E1,4.960500300E-1,4.759050369E0,5.734050274E0
2.152067949E1,5.629500151E-1,5.134950161E0,6.594000340E0
2.154057694E1,4.120500088E-1,5.389050484E0,7.665000439E0
2.156047446E1,9.600000083E-2,5.377050400E0,9.061050415E0
2.158037168E1,-1.095000096E-2,5.430000305E0,1.002900028E1
2.160026902E1,-4.005000368E-2,5.614050388E0,1.021995068E1
2.162016649E1,-7.095000148E-2,5.755050182E0,1.005000019E1
2.164006381E1,-2.670000196E-1,5.821950436E0,9.784050941E0
2.165996126E1,-5.279999971E-1,5.664000034E0,9.655050278E0
2.167985855E1,-9.259500504E-1,5.596950054E0,9.789000511E0
2.169975605E1,-1.719000101E0,5.944950104E0,9.199950218E0
2.171965326E1,-1.800000072E0,5.856000423E0,9.098999977E0
2.173955076E1,2.179500163E-1,4.417050362E0,9.613950729E0
2.175944806E1,1.468050122E0,3.910950184E0,1.048095036E1
2.177934525E1,8.170500398E-1,4.345050335E0,1.000905037E1
2.179924271E1,-1.469999999E-1,4.462050438E0,8.401950836E0
2.181914002E1,-2.340000123E-1,4.575000286E0,7.119000435E0
2.183903746E1,9.199500680E-1,4.459950447E0,6.706950188E0
2.185893476E1,1.939950109E0,4.234950066E0,7.288950443E0
2.187883221E1,1.489950061E0,4.468950272E0,7.315050125E0
2.189872946E1,1.131000042E0,4.644000053E0,6.189000130E0
2.191862701E1,1.570950031E0,4.504950047E0,5.622000217E0
2.193852421E1,2.278050184E0,3.832050085E0,6.153000355E0
2.195842174E1,2.344950199E0,3.868050098E0,6.787950516E0
2.197831899E1,2.625000238E0,4.567049980E0,6.871950150E0
2.199821631E1,2.947950125E0,4.603050232E0,7.273950577E0
2.201811375E1,2.323050022E0,4.342050076E0,7.738950253E0
2.203801105E1,1.573950052E0,4.828050137E0,7.911000252E0
2.205790853E1,1.516050100E0,5.487000465E0,7.894950390E0
2.207780586E1,1.648050070E0,6.109950066E0,7.614000320E0
2.209770334E1,1.030050039E0,6.406950474E0,7.966950417E0
2.211760065E1,6.319500208E-1,6.057000160E0,9.055950165E0
2.213749811E1,4.789500237E-1,5.620950222E0,1.009800053E1
2.215739540E1,7.470000386E-1,5.415000439E0,1.127400017E1
2.217729287E1,1.231050014E0,5.116050243E0,1.096305084E1
2.219719023E1,1.837050080E0,5.053950310E0,1.122105026E1
2.221708743E1,1.939950109E0,5.050950050E0,1.142295074E1
2.223698494E1,1.657050133E0,4.714050293E0,1.062000084E1
2.225688220E1,9.049500227E-1,4.857000351E0,1.264905071E1
2.227677965E1,-2.500500083E-1,4.942950249E0,1.167195034E1
2.229667694E1,-3.630000055E-1,4.681950092E0,7.887000561E0
2.231657442E1,1.920000017E-1,4.795050144E0,7.962000370E0
2.233647164E1,3.810000122E-1,4.740000248E0,7.534950256E0
2.235636923E1,5.029500127E-1,4.383000374E0,5.907000065E0
2.237626644E1,3.550500274E-1,4.297049999E0,6.406950474E0
2.239616375E1,-2.530499995E-1,4.354050159E0,7.225950241E0
2.241606121E1,-7.990500331E-1,4.552950382E0,7.552050591E0
2.243595850E1,-6.480000019E-1,4.642050266E0,7.672050476E0
2.245585598E1,2.539499998E-1,4.468950272E0,7.588050365E0
2.247575328E1,5.290500522E-1,4.162950039E0,7.852050304E0
2.249565053E1,-4.009500146E-1,4.435950279E0,8.376000404E0
2.251554804E1,-1.495950103E0,5.104050159E0,8.560050011E0
2.253544527E1,-1.654050112E0,5.461050034E0,8.826000214E0
2.255534274E1,-6.220500469E-1,5.274000168E0,9.388950348E0
2.257524005E1,4.549500346E-1,5.118000031E0,1.007700062E1
2.259513752E1,3.469500244E-1,5.286000252E0,1.031400013E1
2.261503482E1,-4.710000157E-1,5.691000462E0,9.883050919E0
2.263493226E1,-1.129050016E0,6.024000168E0,9.504000664E0
2.265482956E1,-6.499500275E-1,5.527950287E0,9.898950577E0
2.267472701E1,3.210000098E-1,4.648950100E0,1.007700062E1
2.269462432E1,1.770000011E-1,4.783050060E0,1.006200027E1
2.271452153E1,-1.095000096E-2,4.831050396E0,9.978000641E0
2.273441900E1,1.200000048E-1,4.432950020E0,9.396000862E0
2.275431630E1,-3.799500167E-1,4.765950203E0,8.683050156E0
2.277421375E1,-1.102950096E0,5.499000072E0,7.710000515E0
2.279411106E1,-1.077000022E0,5.322000027E0,7.078050137E0
2.281400851E1,-5.260500312E-1,4.563000202E0,6.775950432E0
2.283390582E1,-4.320000112E-1,4.135950089E0,6.747000217E0
2.285380330E1,-7.129500508E-1,4.017000198E0,6.688050270E0
2.287370053E1,-9.310500622E-1,4.074000359E0,6.618000507E0
2.289359807E1,-6.310500503E-1,4.024050236E0,6.589050293E0
2.291349530E1,-2.430000156E-1,4.062000275E0,6.565050125E0
2.293339284E1,2.040000111E-1,4.183950424E0,6.915000439E0
2.295329016E1,6.300000548E-1,4.384950161E0,7.066050529E0
2.297318740E1,2.400000021E-2,4.845000267E0,7.420050144E0
2.299308482E1,-5.710500479E-1,5.458050251E0,8.364000320E0
2.301298214E1,7.395000011E-2,5.782050133E0,9.190050125E0
2.303287962E1,8.809500337E-1,5.809950352E0,9.547050476E0
2.305277686E1,7.690500617E-1,6.325050354E0,9.439050674E0
2.307267443E1,3.739500046E-1,7.149000168E0,9.454050064E0
2.309257165E1,5.130000114E-1,6.972000122E0,9.432000160E0
2.311246896E1,7.519500256E-1,6.121950150E0,9.835050583E0
2.313236640E1,5.629500151E-1,5.911050320E0,9.952050209E0
2.315226372E1,1.339500099E-1,6.559950352E0,9.303000450E0
2.317216117E1,1.890000105E-1,6.850050449E0,9.207000732E0
2.319205848E1,8.119500279E-1,6.193950176E0,9.418050766E0
2.321195591E1,1.260000110E0,5.569050312E0,9.142050743E0
2.323185320E1,1.345950007E0,5.473050117E0,8.479050636E0
2.325175064E1,1.198050022E0,5.584950447E0,7.660050392E0
2.327164789E1,1.152000070E0,5.370000362E0,7.024950504E0
2.329154545E1,1.200000048E0,4.917000294E0,6.616050243E0
2.331144270E1,1.027950048E0,4.753950119E0,6.433950424E0
2.333134000E1,4.669500291E-1,4.930950165E0,6.424050331E0
2.335123746E1,6.000000238E-2,5.154000282E0,6.285000324E0
2.337113475E1,1.390500069E-1,5.154000282E0,6.352050304E0
2.339103193E1,6.319500208E-1,5.248050213E0,6.763950348E0
2.341092949E1,1.162050009E0,5.413050175E0,6.871950150E0
2.343082674E1,1.128000021E0,5.602050304E0,6.810000420E0
2.345072432E1,5.839500427E-1,5.928000450E0,7.282050133E0
2.347062179E1,1.680000126E-1,5.973000050E0,8.308950424E0
2.349051904E1,1.950000064E-3,5.554050446E0,9.360000610E0
2.351041634E1,-6.599999964E-2,5.014950275E0,9.862950325E0
2.353031381E1,-4.369500279E-1,4.681950092E0,1.012905025E1
2.355021114E1,-9.550500512E-1,4.783050060E0,1.025895023E1
2.357010862E1,-1.411950111E0,5.245050430E0,1.027500057E1
2.359000592E1,-1.771050096E0,5.812950134E0,1.045695019E1
2.360990313E1,-7.390500307E-1,5.518050194E0,1.069905090E1
2.362980066E1,8.260500431E-1,5.038950443E0,9.928050041E0
2.364969790E1,1.048950076E0,5.218950272E0,8.818950653E0
2.366959539E1,5.010000467E-1,5.446050167E0,7.846950531E0
2.368949271E1,-4.005000368E-2,6.012000084E0,7.071000099E0
2.370939019E1,-3.049500287E-1,6.796950340E0,6.417000294E0
2.372928750E1,-3.610500097E-1,7.165950298E0,6.429000378E0
2.374918493E1,-3.970500231E-1,6.763950348E0,6.778950214E0
2.376908214E1,-5.470499992E-1,5.854050159E0,7.234050274E0
2.378897942E1,-8.869500160E-1,5.250000477E0,7.132950306E0
2.380887687E1,-1.386000037E0,5.140050411E0,6.679950237E0
2.382877421E1,-1.764000058E0,5.463000298E0,6.241950512E0
2.384867168E1,-1.855050087E0,5.688000202E0,6.216000080E0
2.386856900E1,-1.543950081E0,5.509050369E0,6.550950527E0
2.388846622E1,-1.004999995E0,5.254950047E0,7.222050190E0
2.390836368E1,-9.640500546E-1,5.245050430E0,7.758000374E0
2.392826097E1,-1.624950051E0,5.821950436E0,7.801050186E0
2.394815845E1,-2.398950100E0,6.879000187E0,7.753050327E0
2.396805594E1,-2.005950212E0,7.374000549E0,8.125050545E0
2.398795315E1,-1.230000019E0,7.207050323E0,8.709000587E0
2.400785046E1,-1.560000062E0,7.486950397E0,8.695050240E0
2.402774792E1,-2.377050161E0,8.340000153E0,8.508000374E0
2.404764524E1,-1.905000091E0,7.987950325E0,8.865000725E0
2.406754246E1,-1.210950017E0,7.092000484E0,9.267000198E0
2.408743993E1,-1.537050128E0,6.550050259E0,9.732000351E0
2.410733726E1,-1.680000067E0,5.965950489E0,9.418050766E0
2.412723474E1,-2.061000109E0,5.971050262E0,8.623050690E0
2.414713203E1,-2.413050175E0,6.390000343E0,7.468050480E0
2.416702950E1,-2.326950073E0,6.400050163E0,6.513000488E0
2.418692679E1,-1.848000050E0,6.037950516E0,6.289950371E0
2.420682424E1,-1.213050008E0,5.676000118E0,6.525000095E0
2.422672155E1,-8.950500488E-1,5.374950409E0,6.409950256E0
2.424661881E1,-1.314000010E0,5.391000271E0,6.004950523E0
2.426651624E1,-2.200050116E0,5.679000378E0,5.595000267E0
2.428641359E1,-2.683950186E0,5.992050171E0,5.607000351E0
2.430631106E1,-2.322000027E0,6.172050476E0,5.979000092E0
2.432620837E1,-1.707000136E0,5.884950161E0,6.568050385E0
2.434610584E1,-1.660950065E0,5.695050240E0,7.377000332E0
2.436600312E1,-1.683000088E0,5.806050301E0,8.103000641E0
2.438590060E1,-1.606050134E0,5.928000450E0,8.314050674E0
2.440579783E1,-2.050950050E0,5.929950237E0,8.232000351E0
2.442569535E1,-2.617050171E0,6.004050255E0,7.974000454E0
2.444559258E1,-2.842050076E0,6.076050282E0,8.116950035E0
2.446548987E1,-3.208050251E0,6.358950138E0,8.464950562E0
2.448538731E1,-3.661050081E0,6.652950287E0,8.860050201E0
2.450528463E1,-3.976950169E0,6.589050293E0,9.492000580E0
2.452518211E1,-4.285950184E0,6.426000118E0,9.459000587E0
2.454507942E1,-3.987000227E0,6.246000290E0,9.292950630E0
2.456497688E1,-3.579000235E0,6.093000412E0,7.522950172E0
2.458487412E1,-3.820950270E0,6.313050270E0,8.308950424E0
2.460477144E1,-3.940950155E0,5.806050301E0,9.933000565E0
2.462466891E1,-4.051050186E0,5.478000164E0,9.388950348E0
2.466628015E1,-3.559950113E0,4.630050182E0,8.095950127E0
2.468617746E1,-2.526000023E0,3.769950151E0,8.428950310E0
2.470607493E1,-2.154000044E0,3.348000050E0,8.922000885E0
2.472597219E1,-1.980000138E0,3.721950293E0,9.067950249E0
2.474586945E1,-1.845000029E0,4.315950394E0,8.902950287E0
2.476576678E1,-1.522050023E0,4.528950214E0,8.689949989E0
2.478566400E1,-1.074000001E0,4.387950420E0,8.457000732E0
2.480556128E1,-7.819500566E-1,4.426050186E0,8.091000557E0
2.482545852E1,-6.289500594E-1,4.696950436E0,7.906950474E0
2.484535598E1,-6.379500031E-1,4.833000183E0,8.223000526E0
2.486525324E1,-1.048050046E0,5.146950245E0,8.905050278E0
2.488515058E1,-1.186950088E0,5.077950478E0,9.544950485E0
2.490504786E1,-1.183950067E0,4.582050323E0,9.885000229E0
2.492494513E1,-1.338000059E0,4.138950348E0,1.024695015E1
2.494484261E1,-1.294950008E0,3.628950119E0,9.516000748E0
2.496473982E1,-1.663050056E0,3.850950241E0,8.469000816E0
2.498463704E1,-1.845000029E0,4.270050049E0,7.717050552E0
2.500453424E1,-1.527000070E0,4.182000160E0,7.236000538E0
2.502443153E1,-1.366050124E0,3.925950289E0,6.919950485E0
2.504432874E1,-1.429050088E0,3.811050177E0,7.048950195E0
2.506422594E1,-1.492950082E0,3.679050207E0,7.200000286E0
2.508412316E1,-1.570050120E0,3.637950182E0,7.236000538E0
2.510402063E1,-1.537050128E0,3.592950106E0,7.099950314E0
2.512391784E1,-1.333050013E0,3.504000187E0,6.973050117E0
2.514381520E1,-1.017000079E0,3.379050255E0,6.700050354E0
2.516371242E1,-8.869500160E-1,3.456000090E0,6.381000519E0
2.518360965E1,-7.080000043E-1,3.508950233E0,6.133950233E0
2.520350707E1,-4.540500343E-1,3.447000265E0,5.586000443E0
2.522340426E1,-3.439500034E-1,3.466050148E0,5.221950054E0
2.524330149E1,-2.340000123E-1,3.550050259E0,4.927050114E0
2.526319872E1,-4.470000267E-1,3.796050072E0,4.728000164E0
2.528309602E1,-9.670500755E-1,4.048050404E0,4.843050003E0
2.530299328E1,-1.275000095E0,4.030950069E0,5.155050278E0
2.532289053E1,-1.201050043E0,4.054950237E0,5.284050465E0
2.534278776E1,-1.266000032E0,4.603050232E0,6.015000343E0
2.536268523E1,-1.393050075E0,5.566050053E0,7.528050423E0
2.538258250E1,-4.950000346E-1,6.490950108E0,1.010805035E1
2.540247980E1,1.690950036E0,6.541050434E0,1.399695110E1
2.542237700E1,1.279050112E0,5.619000435E0,1.590795040E1
2.544227427E1,-3.508050203E0,6.499950409E0,1.478805065E1
2.546217148E1,-6.100950241E0,7.731000423E0,1.245495033E1
2.548206896E1,-5.124000072E0,7.222950459E0,1.015800095E1
2.550196621E1,-5.191050053E0,7.003050327E0,8.532000542E0
2.552186346E1,-6.211950302E0,6.322950363E0,9.483000755E0
2.554176067E1,-6.208950520E0,4.984050274E0,1.110900021E1
2.556165797E1,-5.194050312E0,4.165050030E0,1.103895092E1
2.558155521E1,-4.152000427E0,3.889950275E0,1.017195034E1
2.560145266E1,-3.829050064E0,3.538050175E0,9.444000244E0
2.562134964E1,-3.784950256E0,3.150000095E0,9.267000198E0
2.564124712E1,-3.364050150E0,2.637000084E0,9.315000534E0
2.566114435E1,-2.679000139E0,1.950000048E0,9.217050552E0
2.568104151E1,-2.209950209E0,1.377000093E0,8.962950706E0
2.570093878E1,-2.250000000E0,1.222050071E0,8.149050713E0
2.572083602E1,-2.454000235E0,1.213950038E0,6.937050343E0
2.574073324E1,-2.437050104E0,1.210050106E0,5.920950413E0
2.576063066E1,-2.499000072E0,1.327050090E0,5.478000164E0
2.578052765E1,-2.775000095E0,1.320000052E0,5.188050270E0
2.580042509E1,-2.883000135E0,1.116000056E0,5.397000313E0
2.582032230E1,-2.983050108E0,9.799500704E-1,6.345000267E0
2.584021959E1,-2.803050041E0,9.079500437E-1,7.228950500E0
2.586011685E1,-2.236050129E0,5.820000172E-1,8.806950569E0
2.588001408E1,-1.606050134E0,-1.095000096E-2,1.125495052E1
2.589991129E1,-2.362950087E0,3.105000220E-2,1.281900024E1
2.591980853E1,-4.875000000E0,1.020000100E0,1.341300106E1
2.593970602E1,-5.610000134E0,8.430000544E-1,1.260105038E1
2.595960324E1,-3.655950069E0,-3.270000219E-1,1.057695007E1
2.597950046E1,-1.491000056E0,-5.860500336E-1,1.074495029E1
2.599939782E1,-1.731000066E0,-4.200000167E-1,1.143000031E1
2.601929506E1,-2.650050163E0,-4.350000322E-1,1.067805004E1
2.603919230E1,-3.132000208E0,-2.380500138E-1,9.693000793E0
2.605908958E1,-2.422950029E0,-1.930500120E-1,9.367950439E0
2.607898702E1,-1.261050105E0,-1.639500111E-1,9.502050400E0
2.609888424E1,-3.460500240E-1,9.600000083E-2,9.478050232E0
2.611878148E1,1.319999993E-1,2.419500053E-1,9.379950523E0
2.613867871E1,-8.295000345E-2,1.729500145E-1,9.186000824E0
2.615857602E1,-2.910000086E-1,-3.010500073E-1,8.869050026E0
2.617847323E1,-5.980500579E-1,-4.009500146E-1,8.743050575E0
2.619837049E1,-6.529500484E-1,1.695000008E-2,8.563050270E0
2.621826796E1,-2.939999998E-1,1.939500123E-1,8.545949936E0
2.623816518E1,9.300000221E-2,-1.140000075E-1,8.218050003E0
2.625806237E1,3.105000220E-2,-4.129500091E-1,7.689000130E0
2.627795958E1,-3.799500167E-1,-5.400000215E-1,7.509000301E0
2.629785682E1,-6.739500165E-1,-6.550500393E-1,7.710000515E0
2.631775415E1,-9.379500151E-1,-7.459500432E-1,8.437950134E0
2.633765136E1,-1.114950061E0,-7.870500088E-1,8.842950821E0
2.635754860E1,-9.640500546E-1,-1.108050108E0,9.193050385E0
2.637744581E1,-9.949500561E-1,-1.258950114E0,1.012395000E1
2.639734329E1,-1.723050117E0,-7.290000319E-1,1.102305031E1
2.641724053E1,-2.775000095E0,-1.429500133E-1,1.174800014E1
2.643713782E1,-3.450000048E0,2.560500205E-1,1.211700058E1
2.645703506E1,-3.799950123E0,1.104000092E0,1.066305065E1
2.647693227E1,-2.479950190E0,1.171050072E0,1.054395008E1
2.649682950E1,-6.600000262E-1,-6.100500226E-1,1.194495010E1
2.651672695E1,-1.635000110E0,-4.470000267E-1,1.218705082E1
2.653662419E1,-3.211050034E0,5.050500035E-1,1.304400063E1
2.655652142E1,-2.775000095E0,2.080500126E-1,1.277805042E1
2.657641875E1,-1.798050046E0,4.605000094E-2,1.092195034E1
2.659631589E1,-1.144050002E0,3.405000269E-2,1.001205063E1
2.661621320E1,-3.370500207E-1,-5.350500345E-1,1.018395042E1
2.663611041E1,4.950000439E-3,-6.480000019E-1,1.041405010E1
2.665600791E1,-4.990500212E-1,-2.805000171E-2,9.407999992E0
2.667590512E1,-1.042950034E0,6.010500193E-1,8.043000221E0
2.669580234E1,-1.045950055E0,7.900500298E-1,6.831000328E0
2.671569957E1,-6.979500055E-1,4.669500291E-1,6.628050327E0
2.673559680E1,-8.730000257E-1,7.639500499E-1,6.616050243E0
2.675549404E1,-1.327950120E0,1.590000033E0,6.501000404E0
2.677539134E1,-1.603950024E0,1.957050085E0,6.690000534E0
2.679528861E1,-1.330950022E0,2.101050138E0,7.389000416E0
2.681518607E1,-4.879500270E-1,1.762950063E0,8.557950020E0
2.683508306E1,6.559500098E-1,7.110000253E-1,1.051995087E1
2.685498052E1,8.809500337E-1,3.229500055E-1,1.257000065E1
2.687487777E1,1.050000042E-1,2.280000150E-1,1.328295040E1
2.689477496E1,-4.800000191E-1,3.000000026E-3,1.225800037E1
2.691467219E1,-1.309050083E0,2.950500250E-1,1.227495098E1
2.693456948E1,-2.455950022E0,1.393950105E0,1.178895092E1
2.695446696E1,-1.987050056E0,1.810950041E0,1.095600033E1
2.697436396E1,1.729500145E-1,6.040500402E-1,1.102305031E1
2.699426142E1,8.119500279E-1,3.190500140E-1,1.064700031E1
2.701415865E1,-6.000000052E-3,1.336950064E0,1.035195065E1
2.703405588E1,-8.470500112E-1,2.110050201E0,1.011705017E1
2.705395318E1,-1.120050073E0,1.990050077E0,9.610050201E0
2.707385041E1,-1.114950061E0,1.602000117E0,8.901000023E0
2.709374763E1,-1.335000038E0,1.999950051E0,7.969050407E0
2.711364483E1,-1.551000118E0,2.476950169E0,7.428000450E0
2.713354208E1,-1.267950058E0,2.314050198E0,7.573950291E0
2.715343931E1,-7.819500566E-1,1.969050050E0,7.633950233E0
2.717333672E1,-8.779500127E-1,2.009999990E0,7.999950409E0
2.719323395E1,-1.162950039E0,1.983000040E0,8.838000298E0
2.721313122E1,-8.590500355E-1,1.626000047E0,9.367950439E0
2.723302848E1,-5.190000534E-1,1.452000022E0,9.259950638E0
2.725292572E1,-3.439500034E-1,1.602000117E0,9.181050301E0
2.727282302E1,-1.605000161E-2,1.713000059E0,9.756000519E0
2.729272024E1,-4.990500212E-1,2.407050133E0,1.017000008E1
2.731261745E1,-9.589500427E-1,3.732000113E0,1.038300037E1
2.733251471E1,-1.810500026E-1,4.141050339E0,1.075905037E1
2.735241222E1,5.839500427E-1,4.183950424E0,1.039995003E1
2.737230948E1,-2.820000052E-1,5.233050346E0,9.508950233E0
2.739220670E1,-6.310500503E-1,5.443950176E0,9.231000900E0
2.741210393E1,-1.710000038E-1,4.620000362E0,8.902950287E0
2.743200127E1,-4.900500178E-1,4.476000309E0,9.175950050E0
2.745189849E1,-1.098000050E0,4.752000332E0,9.957000732E0
2.747179598E1,-1.195950031E0,4.515000343E0,1.067295074E1
2.749169325E1,-7.510500550E-1,3.990000248E0,1.072305012E1
2.751159047E1,-2.599500120E-1,3.624000072E0,1.024395084E1
2.753148769E1,-1.140000075E-1,3.493950129E0,9.559050560E0
2.755138491E1,-1.605000161E-2,3.487050056E0,8.970000267E0
2.757128225E1,1.950000064E-3,3.382050276E0,8.371050835E0
2.759117948E1,-3.100500107E-1,3.298050165E0,8.031000137E0
2.761107672E1,-8.560500145E-1,3.556950092E0,7.806000233E0
2.763097420E1,-9.589500427E-1,3.787050247E0,7.777050495E0
2.765087120E1,-5.430000424E-1,3.756000280E0,7.602000237E0
2.767076863E1,-4.609500170E-1,3.949950218E0,7.393950462E0
2.769066586E1,-7.369500399E-1,4.135950089E0,7.597950459E0
2.771056312E1,-7.729500532E-1,4.157999992E0,7.954950333E0
2.773046043E1,-7.609500289E-1,4.287000179E0,8.581950188E0
2.775035763E1,-7.369500399E-1,4.345050335E0,9.256950378E0
2.777025487E1,-6.259500384E-1,4.462050438E0,9.583050728E0
2.779015210E1,-7.320000529E-1,4.632000446E0,9.595050812E0
2.781004934E1,-1.146000028E0,5.022000313E0,9.487050056E0
2.782994681E1,-1.465050101E0,5.350950241E0,9.097050667E0
2.784984404E1,-1.992000103E0,6.001950264E0,8.491050720E0
2.786974127E1,-1.279950023E0,6.037950516E0,8.584050179E0
2.788963846E1,8.479500413E-1,4.843050003E0,8.908050537E0
2.790953578E1,1.465950012E0,4.546050072E0,8.793000221E0
2.792943323E1,4.810500145E-1,4.954950333E0,8.941050529E0
2.794933022E1,-2.980500162E-1,4.954950333E0,8.464950562E0
2.796922767E1,-2.740500271E-1,4.708950043E0,7.605000496E0
2.798912493E1,-1.140000075E-1,4.876049995E0,6.894000530E0
2.800902215E1,-2.170500159E-1,5.214000225E0,6.799950123E0
2.802891934E1,-2.550000250E-1,4.987050056E0,7.012950420E0
2.804881664E1,-1.069500074E-1,4.564949989E0,7.135050297E0
2.806871382E1,-7.995000482E-2,4.390050411E0,7.372950554E0
2.808861113E1,-4.440000355E-1,4.450050354E0,7.837050438E0
2.810850835E1,-6.100500226E-1,4.375950336E0,8.224950790E0
2.812840578E1,-2.359500080E-1,3.861000299E0,8.203949928E0
2.814830299E1,6.195000187E-2,3.640950203E0,8.014050484E0
2.816820023E1,-2.290500104E-1,4.099950314E0,8.275050163E0
2.818809746E1,-7.099500299E-1,5.094000340E0,8.527050018E0
2.820799473E1,-8.560500145E-1,6.097950459E0,8.668050766E0
2.822789204E1,-1.909500062E-1,6.670050144E0,8.740050316E0
2.824778927E1,4.840500355E-1,6.988950253E0,8.653950691E0
2.826768650E1,5.989500284E-1,7.231050491E0,8.848050117E0
2.828758373E1,7.020000219E-1,6.982050419E0,9.075000763E0
2.830748091E1,4.429500103E-1,6.831000328E0,9.391950607E0
2.832737835E1,-2.119500041E-1,6.733050346E0,9.826950073E0
2.834727558E1,-5.950500369E-1,6.349050522E0,9.883050919E0
2.836717282E1,-4.830000103E-1,5.698050499E0,9.628950119E0
2.838707009E1,-4.200000316E-2,5.154000282E0,9.223950386E0
2.840696723E1,1.440000087E-1,4.929000378E0,8.838000298E0
2.842686455E1,2.400000021E-2,5.149050236E0,8.674950600E0
2.844676180E1,9.795000404E-2,5.158950329E0,8.388000488E0
2.846665902E1,3.160500228E-1,4.703999996E0,7.653000355E0
2.848655624E1,2.539499998E-1,4.309050083E0,6.798000336E0
2.850645371E1,-1.469999999E-1,4.048050404E0,6.187050343E0
2.852635097E1,-9.430500269E-1,4.218000412E0,6.012000084E0
2.854624820E1,-1.435950041E0,4.591050148E0,6.112950325E0
2.856614544E1,-1.096050024E0,4.690050125E0,6.550950527E0
2.858604265E1,-7.150500417E-1,4.800000191E0,7.210050106E0
2.860593999E1,-1.102950096E0,5.209050179E0,7.828050137E0
2.862583721E1,-1.252050042E0,5.494050026E0,8.977050781E0
2.864573445E1,-1.270950079E0,5.604000092E0,1.029195023E1
2.866563171E1,-1.603950024E0,5.896950245E0,1.094595051E1
2.868552894E1,-2.073000193E0,6.172050476E0,1.070595074E1
2.870542643E1,-2.587950230E0,6.364050388E0,9.772050858E0
2.872532365E1,-2.947050095E0,6.436050415E0,9.193050385E0
2.874522095E1,-2.188050032E0,6.100050449E0,9.559050560E0
2.876511811E1,-6.190500259E-1,5.305050373E0,1.031100082E1
2.878501542E1,-3.250500262E-1,5.274000168E0,1.124805069E1
2.880491263E1,-7.290000319E-1,5.239950180E0,1.109400082E1
2.882480987E1,-9.040500522E-1,5.110950470E0,9.372000694E0
2.884470706E1,-7.960500121E-1,5.125050068E0,7.389000416E0
2.886460454E1,-7.009500265E-1,5.014950275E0,6.205950260E0
2.888450176E1,-9.589500427E-1,5.137050152E0,5.998050213E0
2.890439901E1,-1.018950105E0,5.077950478E0,6.574950218E0
2.892429622E1,-3.820500076E-1,4.323000431E0,7.104000568E0
2.894419355E1,2.595000155E-2,3.600000143E0,7.171050549E0
2.896409081E1,-7.200000286E-1,3.400950193E0,7.155000210E0
2.898398803E1,-1.480950117E0,3.394050121E0,7.071000099E0
2.900388527E1,-1.213050008E0,3.142050266E0,7.219050407E0
2.902378248E1,-4.920000136E-1,3.463050127E0,7.114050388E0
2.904367999E1,1.579500139E-1,4.108050346E0,6.862050533E0
2.906357723E1,5.650500059E-1,4.227000237E0,6.883950233E0
2.908347434E1,3.190500140E-1,4.411950111E0,7.107000351E0
2.910337166E1,-2.460000068E-1,4.981950283E0,7.783950329E0
2.912326895E1,-5.160000324E-1,5.695050240E0,9.019950867E0
2.914316615E1,-1.279500127E-1,6.433050156E0,1.012200069E1
2.916306336E1,3.379500210E-1,6.721050262E0,1.038105011E1
2.918296083E1,-1.069500074E-1,7.132050514E0,9.676950455E0
2.920285809E1,-1.198950052E0,8.185950279E0,8.788050652E0
2.922275531E1,-7.800000310E-1,8.124000549E0,8.599050522E0
2.924265253E1,6.750000119E-1,6.618000507E0,9.346050262E0
2.926254982E1,2.400000095E-1,6.370950222E0,1.066095066E1
2.928244696E1,-8.350500464E-1,6.618000507E0,1.177005100E1
2.930234426E1,-4.249500334E-1,5.710050106E0,1.168605042E1
2.932224148E1,4.950000439E-3,4.941000462E0,1.092195034E1
2.934213873E1,-2.650500238E-1,4.929000378E0,9.823050499E0
2.936203615E1,-2.070000172E-1,4.749000072E0,8.685000420E0
2.938193340E1,-5.400000140E-2,4.474050045E0,7.579050541E0
2.940183074E1,-2.290500104E-1,4.591050148E0,6.661050320E0
2.942172796E1,-2.839500010E-1,4.740000248E0,5.887950420E0
2.944162515E1,1.950000064E-3,4.618050098E0,5.361000061E0
2.946152246E1,2.179500163E-1,4.411950111E0,5.173950195E0
2.948141974E1,-2.029500157E-1,4.431000233E0,5.449050426E0
2.950131696E1,-9.810000658E-1,4.575000286E0,6.160950184E0
2.952121417E1,-1.081050038E0,4.483950138E0,6.726000309E0
2.954111140E1,-9.229500294E-1,4.443000317E0,6.976950169E0
2.956100865E1,-1.102950096E0,4.776000023E0,7.102050304E0
2.958090590E1,-1.242000103E0,4.942950249E0,7.392000198E0
2.960080338E1,-1.254000068E0,5.017950058E0,8.010000229E0
2.962070062E1,-1.204050064E0,5.145000458E0,8.929050446E0
2.964059786E1,-9.019500613E-1,5.140050411E0,9.801000595E0
2.966049508E1,-4.759500325E-1,5.106000423E0,1.042905045E1
2.968039235E1,-4.009500146E-1,5.355000019E0,1.060605049E1
2.970028966E1,-9.520500302E-1,5.832000256E0,1.055805016E1
2.972018692E1,-1.264050007E0,6.057000160E0,1.027800083E1
2.974008419E1,-1.596000075E0,6.658050537E0,9.697950363E0
2.975998142E1,-1.687050104E0,7.543950558E0,9.262050629E0
2.977987888E1,3.780000210E-1,6.819000244E0,9.277050018E0
2.979977609E1,1.660050035E0,6.172050476E0,9.556950569E0
2.981967331E1,9.940500259E-1,6.322950363E0,1.037595081E1
2.983957054E1,5.805000290E-2,6.057000160E0,1.054605007E1
2.985946786E1,-5.070000291E-1,5.820000172E0,9.660000801E0
2.987936507E1,-7.369500399E-1,5.751000404E0,8.789999962E0
2.989926229E1,-3.340500295E-1,5.596950054E0,8.086050034E0
2.991915950E1,8.595000207E-2,5.307000160E0,7.612050533E0
2.993905696E1,7.005000114E-2,5.058000088E0,7.336950302E0
2.995895419E1,-4.905000329E-2,4.684950352E0,6.937050343E0
2.997885142E1,-2.410500050E-1,4.246050358E0,6.264000416E0
2.999874862E1,-4.440000355E-1,3.853950262E0,6.000000477E0
3.001864583E1,-5.089499950E-1,3.484950066E0,5.875950336E0
3.003854313E1,-5.980500579E-1,3.370050192E0,5.806050301E0
3.005844034E1,-6.220500469E-1,3.459000111E0,5.662950039E0
3.007833759E1,-3.289500177E-1,3.511050224E0,5.425050259E0
3.009823483E1,-1.860000044E-1,3.745950222E0,5.358000278E0
3.011813205E1,-1.740000099E-1,4.290000439E0,5.515950203E0
3.013802950E1,-1.305000018E-2,4.881000042E0,6.007050514E0
3.015792672E1,3.070500195E-1,5.274000168E0,7.339050293E0
3.017782396E1,7.740000486E-1,5.619000435E0,9.065999985E0
3.019772119E1,7.159500122E-1,6.322950363E0,1.029405022E1
3.021761851E1,1.950000064E-3,7.222950459E0,1.035195065E1
3.023751575E1,-3.940500319E-1,8.080950737E0,9.709950447E0
3.025741300E1,-4.729500115E-1,8.778000832E0,8.709000587E0
3.027731023E1,-1.995000057E-2,8.746950150E0,8.377950668E0
3.029720745E1,9.600000381E-1,8.023050308E0,8.752050400E0
3.031710469E1,1.248000026E0,7.555950165E0,9.913950920E0
3.033700192E1,4.459500313E-1,7.690950394E0,1.094805050E1
3.035689939E1,5.680500269E-1,6.922050476E0,1.106100082E1
3.037679665E1,1.092000008E0,5.772000313E0,9.826950073E0
3.039669387E1,7.639500499E-1,5.245050430E0,8.728050232E0
3.041659115E1,7.200000435E-2,4.884000301E0,8.074049950E0
3.043648837E1,-2.430000156E-1,4.804950237E0,7.765050411E0
3.045638560E1,6.495000422E-2,4.297049999E0,7.708050251E0
3.047628283E1,5.320500135E-1,3.661950111E0,7.420050144E0
3.049618006E1,7.380000353E-1,3.394050121E0,7.204950333E0
3.051607729E1,3.930000067E-1,3.472950220E0,6.763950348E0
3.053597473E1,-3.820500076E-1,3.784050226E0,5.943000317E0
3.055587194E1,-9.499500394E-1,4.159950256E0,5.293950081E0
3.057576915E1,-8.779500127E-1,4.627050400E0,4.993950367E0
3.059566638E1,-2.310000062E-1,4.941000462E0,5.212050438E0
3.061556360E1,1.729500145E-1,4.756950378E0,5.670000076E0
3.063546090E1,-4.279500246E-1,5.113050461E0,6.168000221E0
3.065535809E1,-1.513050079E0,5.611950397E0,7.510950565E0
3.067525529E1,-1.072050095E0,5.365050316E0,9.019950867E0
3.069515249E1,-1.429500133E-1,5.046000004E0,9.918000221E0
3.071504995E1,-2.980500162E-1,5.266950130E0,1.031400013E1
3.073494721E1,-4.129500091E-1,5.454000473E0,1.044105053E1
3.075484444E1,-1.519500017E-1,5.403000355E0,1.051500034E1
3.077474169E1,-4.395000264E-2,5.770050049E0,1.053195095E1
3.079463892E1,-1.800000109E-2,6.250950336E0,1.046700096E1
3.081453622E1,5.340000391E-1,6.093000412E0,1.046700096E1
3.083443345E1,7.660500407E-1,5.937000275E0,9.576000214E0
3.085433070E1,-1.279500127E-1,6.826050282E0,8.773950577E0
3.087422789E1,-8.295000345E-2,6.682050228E0,8.926950455E0
3.089412536E1,9.270000458E-1,5.415000439E0,9.199950218E0
3.091402261E1,5.290500522E-1,5.379000187E0,9.238050461E0
3.093391984E1,-5.470499992E-1,5.901000500E0,9.748050690E0
3.095381706E1,-7.200000286E-1,5.818050385E0,1.007400036E1
3.097371434E1,-4.399500191E-1,5.616000175E0,9.789000511E0
3.099361158E1,-3.630000055E-1,5.691000462E0,9.256950378E0
3.101350879E1,-3.030000031E-1,5.712000370E0,8.817000389E0
3.103340608E1,-2.119500041E-1,5.394000053E0,8.569950104E0
3.105330323E1,-7.995000482E-2,4.776000023E0,8.307000160E0
3.107320054E1,-1.860000044E-1,4.186950207E0,7.557000160E0
3.109309777E1,-6.070500016E-1,3.945000172E0,6.676050186E0
3.111299520E1,-8.059500456E-1,3.801000118E0,6.022050381E0
3.113289245E1,-5.230500102E-1,3.619050264E0,5.718000412E0
3.115278970E1,-6.100500226E-1,3.640950203E0,5.551950455E0
3.117268692E1,-1.057950020E0,3.868050098E0,5.725050449E0
3.119258419E1,-9.859500527E-1,4.207950115E0,6.225000381E0
3.121248145E1,-2.790000141E-1,4.314000130E0,6.690000534E0
3.123237875E1,-1.810500026E-1,4.455000401E0,7.212000370E0
3.125227601E1,-6.529500484E-1,4.972050190E0,8.022000313E0
3.127217324E1,-4.639500082E-1,5.134950161E0,8.917050362E0
3.129207068E1,2.830500007E-1,5.266950130E0,9.769950867E0
3.131196768E1,3.499500155E-1,6.117000103E0,1.028295040E1
3.133186514E1,3.090000153E-1,6.961950302E0,1.035195065E1
3.135176238E1,1.092000008E0,7.108950138E0,9.973950386E0
3.137165961E1,1.152000070E0,7.041000366E0,9.231000900E0
3.139155693E1,5.530500412E-1,6.763950348E0,9.661950111E0
3.141145415E1,2.320500165E-1,6.606000423E0,1.030200005E1
3.143135140E1,-3.000000119E-2,6.555000305E0,1.018905067E1
3.145124863E1,1.819500029E-1,6.154950142E0,9.624000549E0
3.147114608E1,4.549500346E-1,6.093000412E0,8.686950684E0
3.149104309E1,6.000000238E-2,6.033000469E0,8.733000755E0
3.151094057E1,-5.110500455E-1,5.692950249E0,8.992050171E0
3.153083777E1,-8.760000467E-1,5.419950485E0,8.812050819E0
3.155073502E1,-7.030500174E-1,4.936050415E0,8.295000076E0
3.157063226E1,-4.830000103E-1,4.703999996E0,7.653000355E0
3.159052959E1,-6.960000396E-1,4.516950130E0,7.537950516E0
3.161042684E1,-1.084050059E0,4.639050007E0,7.915950298E0
3.163032407E1,-1.278000116E0,4.879050255E0,7.983000278E0
3.165022136E1,-1.294950008E0,4.623000145E0,7.449000359E0
3.167011860E1,-1.195950031E0,4.423950195E0,6.457950115E0
3.169001607E1,-1.371000051E0,4.564949989E0,5.686050415E0
3.170991309E1,-1.387950063E0,4.777950287E0,5.892000198E0
3.172981056E1,-1.012050033E0,4.756950378E0,6.180000305E0
3.174970781E1,-9.589500427E-1,5.109000206E0,6.441000462E0
3.176960512E1,-1.299000025E0,5.590050220E0,7.261950493E0
3.178950226E1,-1.599000096E0,5.575950146E0,7.609950542E0
3.180939956E1,-2.146950006E0,5.559000492E0,7.593000412E0
3.182929672E1,-2.535000086E0,5.557050228E0,7.963950157E0
3.184919396E1,-2.104050159E0,5.595000267E0,8.447999954E0
3.186909115E1,-1.908000112E0,5.796000481E0,8.854949951E0
3.188898834E1,-2.461050034E0,6.165000439E0,8.965050697E0
3.190888577E1,-3.189000130E0,6.474000454E0,8.653950691E0
3.192878297E1,-3.856950283E0,6.538950443E0,7.981050491E0
3.194868021E1,-4.947000027E0,6.843000412E0,7.204950333E0
3.196857739E1,-4.810950279E0,7.056000233E0,8.452950478E0
3.198847472E1,-3.271050215E0,6.673050404E0,1.067295074E1
3.200837195E1,-2.538000107E0,5.856000423E0,1.251705074E1
3.202826916E1,-3.180000067E0,5.596950054E0,1.181100082E1
3.204816638E1,-3.726000071E0,6.037950516E0,1.006005001E1
3.206806358E1,-3.226950169E0,6.685050488E0,8.829000473E0
3.208796081E1,-2.461050034E0,6.643950462E0,8.914950371E0
3.210785828E1,-2.430000067E0,6.088050365E0,9.487050056E0
3.212775553E1,-2.542050123E0,5.434050083E0,9.157050133E0
3.214765282E1,-2.511000156E0,5.215950012E0,7.813050270E0
3.216755004E1,-2.454000235E0,5.269050121E0,6.838050365E0
3.218744730E1,-2.169000149E0,5.161050320E0,6.907950401E0
3.220734458E1,-1.867050052E0,4.933950424E0,7.672050476E0
3.222724190E1,-1.813950062E0,4.795050144E0,7.891950607E0
3.224713917E1,-1.908000112E0,4.917000294E0,7.200000286E0
3.226703641E1,-1.927050114E0,5.230950356E0,6.766950130E0
3.228693386E1,-1.819050074E0,5.509050369E0,7.191000462E0
3.230683107E1,-1.957950115E0,5.515950203E0,8.035950661E0
3.232672831E1,-2.302950144E0,5.545050144E0,8.457000732E0
3.234662556E1,-2.104050159E0,5.923050404E0,8.503050804E0
3.236652281E1,-1.483950019E0,6.198000431E0,8.668050766E0
3.238642006E1,-1.663050056E0,6.534000397E0,8.374050140E0
3.240631727E1,-2.197950125E0,6.844950199E0,7.795950413E0
3.242621459E1,-2.253000021E0,6.982050419E0,7.369950294E0
3.244611184E1,-3.208050251E0,7.209000111E0,4.708950043E0
3.246600909E1,-3.211050034E0,6.766050339E0,6.939000130E0
3.248590633E1,-2.764950037E0,5.872950077E0,9.753000259E0
3.250580356E1,-3.223050117E0,5.473050117E0,8.593950272E0
3.253360283E1,-2.530050039E0,6.376050472E0,6.412050247E0
3.255350004E1,-3.249000072E0,6.579000473E0,6.012000084E0
3.257339704E1,-3.136050224E0,6.309000492E0,6.252000332E0
3.259329428E1,-2.728950024E0,5.940000057E0,6.961050510E0
3.261319147E1,-2.317050219E0,5.509050369E0,7.927950382E0
3.263308882E1,-2.212050200E0,5.094000340E0,8.650950432E0
3.265298600E1,-2.638050079E0,5.011050224E0,8.968050003E0
3.267288323E1,-3.181950092E0,5.197050095E0,9.010950089E0
3.269278048E1,-3.457050085E0,5.401050091E0,8.857050896E0
3.271267748E1,-3.376050234E0,5.442000389E0,8.697000504E0
3.273257496E1,-3.205950260E0,5.383950233E0,8.656050682E0
3.275247199E1,-3.148050070E0,5.403000355E0,8.668050766E0
3.277236922E1,-2.908950090E0,5.307000160E0,8.551050186E0
3.279226639E1,-2.302950144E0,5.262000084E0,8.256000519E0
3.281216369E1,-1.960050106E0,5.560950279E0,7.902000427E0
3.283206082E1,-1.864950061E0,5.875050068E0,7.428000450E0
3.285195798E1,-1.812000036E0,6.094950199E0,7.114050388E0
3.287185498E1,-1.672950029E0,6.193950176E0,7.080000401E0
3.289175243E1,-1.813950062E0,6.370950222E0,6.891000271E0
3.291164941E1,-2.197950125E0,6.610050201E0,6.853050232E0
3.293154658E1,-2.257050037E0,6.493050098E0,7.036950111E0
3.295144372E1,-2.205000162E0,6.292050362E0,7.191000462E0
3.297134098E1,-2.284050226E0,6.385050297E0,7.279050350E0
3.299123814E1,-2.089950085E0,6.124050140E0,7.285950184E0
3.301113540E1,-2.161950111E0,5.925000191E0,6.964950562E0
3.303103262E1,-2.487000227E0,5.928000450E0,6.747000217E0
3.305092963E1,-2.370000124E0,5.857950211E0,6.694950104E0
3.307082686E1,-1.981950045E0,5.797950268E0,6.826050282E0
3.309072411E1,-1.599000096E0,5.740950108E0,6.940950394E0
3.311062124E1,-1.366050124E0,5.604000092E0,7.162050247E0
3.313051849E1,-1.474050045E0,5.461050034E0,7.461000443E0
3.315041574E1,-2.032050133E0,5.551950455E0,7.614000320E0
3.317031303E1,-2.695950031E0,5.836950302E0,7.636050224E0
3.319021025E1,-2.836950064E0,6.148050308E0,7.864050388E0
3.321010726E1,-2.217000008E0,6.145950317E0,8.176950455E0
3.323000449E1,-1.399950027E0,5.770050049E0,8.587050438E0
3.324990175E1,-1.078950047E0,5.299950123E0,8.829000473E0
3.326979898E1,-1.414050102E0,5.109000206E0,8.653950691E0
3.328969617E1,-1.644000053E0,5.128050327E0,8.565000534E0
3.330959339E1,-1.455000043E0,4.857000351E0,8.661000252E0
3.332949038E1,-1.186950088E0,4.669950008E0,8.719050407E0
3.334938762E1,-1.390050054E0,4.729950428E0,8.704050064E0
3.336928485E1,-1.765950084E0,4.869000435E0,8.754000664E0
3.338918209E1,-1.702050090E0,4.833000183E0,8.854949951E0
3.340907927E1,-1.407000065E0,4.759050369E0,8.992050171E0
3.342897655E1,-9.739500284E-1,4.728000164E0,9.154050827E0
3.344887378E1,-7.369500399E-1,4.740000248E0,8.994000435E0
3.346877102E1,-8.950500488E-1,4.837950230E0,8.608050346E0
3.348866800E1,-1.029000044E0,4.918950081E0,8.146050453E0
3.350856526E1,-9.450000525E-1,4.812000275E0,7.846950531E0
3.352846248E1,-9.040500522E-1,4.455000401E0,7.686000347E0
3.354835964E1,-1.321050048E0,4.495950222E0,7.641000271E0
3.356825686E1,-1.756950140E0,5.062950134E0,7.681950569E0
3.358815410E1,-1.666050076E0,5.185050011E0,7.854000568E0
3.360805133E1,-1.479000092E0,5.116050243E0,8.086050034E0
3.362794834E1,-1.864950061E0,5.371950150E0,8.383049965E0
3.364784557E1,-2.190000057E0,5.523000240E0,8.512949944E0
3.366774280E1,-2.056050062E0,5.233050346E0,8.515049934E0
3.368763993E1,-1.780950069E0,4.879050255E0,8.314050674E0
3.370753718E1,-1.699050069E0,4.708950043E0,7.998000145E0
3.372743440E1,-1.881000042E0,4.558050156E0,7.552050591E0
3.374733159E1,-2.116050005E0,4.426050186E0,7.345950127E0
3.376722858E1,-2.130000114E0,4.246050358E0,7.662000179E0
3.378712578E1,-2.049000025E0,4.114950180E0,7.981050491E0
3.380702293E1,-1.795050144E0,4.287000179E0,7.879950523E0
3.382692024E1,-1.546050072E0,4.452000141E0,7.441950321E0
3.384681740E1,-1.306950092E0,4.620000362E0,7.123050213E0
3.386671464E1,-1.036050081E0,4.741950035E0,6.805050373E0
3.388661188E1,-8.520000577E-1,4.752000332E0,6.649050236E0
3.390650909E1,-7.369500399E-1,4.551000118E0,6.634950161E0
3.392640606E1,-7.290000319E-1,4.444950104E0,6.526950359E0
3.394630330E1,-7.440000176E-1,4.548000336E0,6.252000332E0
3.396620044E1,-7.560000420E-1,4.723050117E0,5.848950386E0
3.398609763E1,-6.769500375E-1,4.873950005E0,5.631000042E0
3.400599486E1,-5.260500312E-1,4.921950340E0,5.785050392E0
3.402589206E1,-3.030000031E-1,4.977000237E0,6.429000378E0
3.404578930E1,-2.530499995E-1,5.061000347E0,7.092000484E0
3.406568630E1,-4.489500225E-1,5.226000309E0,7.606950283E0
3.408558354E1,-5.070000291E-1,5.371950150E0,7.923000336E0
3.410548070E1,-6.499500275E-1,5.467950344E0,8.629950523E0
3.412537802E1,-8.659500480E-1,5.740950108E0,9.645000458E0
3.414527516E1,-1.503000021E0,6.124050140E0,1.072305012E1
3.416517239E1,-1.975050092E0,6.093000412E0,1.179105091E1
3.418506940E1,-2.422950029E0,5.619000435E0,1.284495068E1
3.420496661E1,-3.289950132E0,5.158950329E0,1.315200043E1
3.422486387E1,-3.843000174E0,4.972050190E0,1.240395069E1
3.424476112E1,-3.666000128E0,4.423950195E0,1.192995071E1
3.426465830E1,-3.814050198E0,4.198950291E0,1.162905025E1
3.428455557E1,-4.341000080E0,4.129050255E0,1.186605072E1
3.430445260E1,-4.377000332E0,3.427050114E0,1.197795010E1
3.432435006E1,-4.200000286E0,2.926950216E0,1.170000076E1
3.434424705E1,-4.291050434E0,3.274050236E0,1.097700024E1
3.436414426E1,-4.245000362E0,3.451050282E0,1.020600033E1
3.438404144E1,-3.916950226E0,3.073050261E0,9.598050117E0
3.440393850E1,-3.699000120E0,2.800050020E0,8.956050873E0
3.442383575E1,-3.715950251E0,2.668050051E0,8.151000023E0
3.444373295E1,-3.847950220E0,2.824050188E0,7.567050457E0
3.446362995E1,-3.690000057E0,2.899950027E0,7.248000145E0
3.448352718E1,-3.144000053E0,2.785950184E0,7.084950447E0
3.450342439E1,-2.587950230E0,2.601000071E0,7.087950230E0
3.452332157E1,-2.254950047E0,2.527050018E0,7.012950420E0
3.454321880E1,-2.119050026E0,2.568000078E0,6.877050400E0
3.456311602E1,-2.097000122E0,2.680050135E0,6.706950188E0
3.458301322E1,-2.038950205E0,2.713950157E0,6.549000263E0
3.460291020E1,-2.161950111E0,2.788050175E0,6.558000088E0
3.462280742E1,-2.416050196E0,3.097050190E0,6.718950272E0
3.464270469E1,-2.301000118E0,3.283950090E0,6.903000355E0
3.466260186E1,-2.053950071E0,3.265050173E0,6.939000130E0
3.468249908E1,-2.277000189E0,3.547050238E0,6.793050289E0
3.470239629E1,-2.590050220E0,3.805950165E0,6.631950378E0
3.472229344E1,-2.617050171E0,3.715050220E0,6.462000370E0
3.474219065E1,-2.559000015E0,3.696000099E0,6.211050510E0
3.476208788E1,-2.563950062E0,3.717000246E0,6.084000111E0
3.478198511E1,-2.743950129E0,3.631050110E0,5.992950439E0
3.480188227E1,-2.892000198E0,3.427050114E0,6.201000214E0
3.482177949E1,-2.953950167E0,3.358050108E0,6.616050243E0
3.484167672E1,-2.839050055E0,3.541950226E0,7.411050320E0
3.486157372E1,-2.595000029E0,3.688050270E0,8.446050644E0
3.488147092E1,-2.518050194E0,3.697950125E0,9.637950897E0
3.490136809E1,-2.434950113E0,3.958950281E0,1.078305054E1
3.492126536E1,-2.302950144E0,4.516950130E0,1.167600060E1
3.494116256E1,-2.278950214E0,4.954950333E0,1.185600090E1
3.496105980E1,-2.899050236E0,5.062950134E0,1.189395046E1
3.498095703E1,-4.104000092E0,4.966950417E0,1.199700069E1
3.500085427E1,-4.782000065E0,5.137050152E0,1.155705070E1
3.502075129E1,-4.698000431E0,4.966950417E0,1.107795048E1
3.504064853E1,-5.040000439E0,4.675050259E0,1.128600025E1
3.506054575E1,-5.349000454E0,4.504950047E0,1.186095047E1
3.508044292E1,-4.546950340E0,3.853950262E0,1.252200031E1
3.510034022E1,-3.508050203E0,3.034950256E0,1.271100044E1
3.512023737E1,-3.334950209E0,2.647050142E0,1.189005089E1
3.514013463E1,-3.963000298E0,2.889000177E0,1.076895046E1
3.516003160E1,-4.369950294E0,2.896050215E0,9.886950493E0
3.517992908E1,-3.924000263E0,2.520000219E0,9.006000519E0
3.519982610E1,-3.283050060E0,2.254050016E0,7.975950241E0
3.521972336E1,-3.108000040E0,2.508000135E0,7.591050148E0
3.523962053E1,-3.294000149E0,2.701950073E0,7.321950436E0
3.525951771E1,-3.469050169E0,2.805000067E0,6.903000355E0
3.527941489E1,-3.493050098E0,2.970000029E0,6.367050171E0
3.529931212E1,-3.322950125E0,3.010950089E0,6.249000072E0
3.531920912E1,-3.591000080E0,3.061050177E0,6.192000389E0
3.533910635E1,-4.102050304E0,3.286050081E0,6.145950317E0
3.535900350E1,-4.636050224E0,3.352950096E0,6.160950184E0
3.537890084E1,-4.861050129E0,3.268950224E0,6.391050339E0
3.539879798E1,-4.803000450E0,3.150000095E0,6.738000393E0
3.541869523E1,-4.614000320E0,3.184950113E0,6.774000168E0
3.543859245E1,-4.510950089E0,3.411000252E0,6.718950272E0
3.545848944E1,-4.261950016E0,3.226050138E0,6.807000160E0
3.547838671E1,-4.019999981E0,2.734950066E0,6.811950207E0
3.549828389E1,-4.261950016E0,2.709000111E0,6.697050095E0
3.551818115E1,-4.482000351E0,3.078000069E0,6.457950115E0
3.553807826E1,-4.138050079E0,3.286050081E0,6.289950371E0
3.555797551E1,-3.465000153E0,3.286050081E0,6.168000221E0
3.557787277E1,-2.964000225E0,3.232950211E0,6.124950409E0
3.559777003E1,-2.992950201E0,3.517950058E0,6.003000259E0
3.561766705E1,-3.019050121E0,3.685950279E0,6.355050087E0
3.563756432E1,-2.719950199E0,2.986950159E0,7.384950161E0
3.565746153E1,-2.425050020E0,2.179949999E0,8.674950600E0
3.567735878E1,-2.929950237E0,2.191950083E0,9.981000900E0
3.569725589E1,-4.240950108E0,3.082950115E0,1.111095047E1
3.571715311E1,-5.677950382E0,4.405050278E0,1.134300041E1
3.573705011E1,-6.517950535E0,5.527950287E0,1.105095005E1
3.575694735E1,-6.147000313E0,5.667000294E0,1.161405087E1
3.577684459E1,-4.401000023E0,5.230950356E0,1.208100033E1
3.579674180E1,-3.120000124E0,5.086950302E0,1.167195034E1
3.581663905E1,-3.196050167E0,5.470050335E0,1.166400051E1
3.583653619E1,-4.114050388E0,5.371950150E0,1.131195068E1
3.585643342E1,-4.621050358E0,4.736999989E0,1.271100044E1
3.587633062E1,-3.871950150E0,3.550050259E0,1.339395046E1
3.589622763E1,-3.202950239E0,2.071950197E0,1.189005089E1
3.591612485E1,-3.655950069E0,1.032000065E0,1.216500092E1
3.593602206E1,-4.861050129E0,1.072950006E0,1.199295044E1
3.595591927E1,-5.104950428E0,1.321950078E0,1.035900021E1
3.597581651E1,-4.339050293E0,1.138050079E0,8.877000809E0
3.599571365E1,-3.663000107E0,9.130500555E-1,7.452000141E0
3.601561088E1,-3.490950108E0,8.719500303E-1,6.156000137E0
3.603550789E1,-3.280050039E0,9.610500336E-1,5.550000191E0
3.605540534E1,-3.249000072E0,1.128000021E0,5.730000496E0
3.607530236E1,-3.226950169E0,1.192950010E0,6.225000381E0
3.609519951E1,-2.920950174E0,9.049500227E-1,6.280050278E0
3.611509677E1,-2.851050138E0,7.159500122E-1,5.851950169E0
3.613499401E1,-3.103050232E0,8.929500580E-1,5.646000385E0
3.615489122E1,-3.168000221E0,1.144950032E0,5.683950424E0
3.617478824E1,-2.902050257E0,1.255050063E0,5.313000202E0
3.619468547E1,-2.437050104E0,1.207050085E0,4.840950012E0
3.621458271E1,-2.497050047E0,1.435050011E0,4.587000370E0
3.623447994E1,-2.848950148E0,1.576050043E0,4.630050182E0
3.625437708E1,-2.764950037E0,1.519050121E0,5.145000458E0
3.627427429E1,-2.370000124E0,1.465950012E0,5.269950390E0
3.629417131E1,-2.038950205E0,1.360050082E0,5.257950306E0
3.631406877E1,-2.226000071E0,1.329000115E0,5.473050117E0
3.633396577E1,-2.710050106E0,1.486950040E0,6.637050152E0
3.635386300E1,-3.069000244E0,1.729050040E0,9.037050247E0
3.637376016E1,-3.289950132E0,2.128950119E0,1.194900036E1
3.639365744E1,-3.301950216E0,2.347050190E0,1.405005074E1
3.641355463E1,-3.321000099E0,1.674000025E0,1.469205093E1
3.643345184E1,-5.191050053E0,1.531050086E0,1.466505051E1
3.645334882E1,-7.855050564E0,2.380950212E0,1.426500034E1
3.647324630E1,-9.007050514E0,2.613000154E0,1.438005066E1
3.649314328E1,-8.986950874E0,3.111000061E0,1.428195095E1
3.651304051E1,-7.428000450E0,3.897000074E0,1.312305069E1
3.653293765E1,-5.128950119E0,3.964050293E0,1.114005089E1
3.655283491E1,-2.782050133E0,3.063000202E0,9.307950020E0
3.657273216E1,-1.311000109E0,1.855950117E0,8.377950668E0
3.659262943E1,-1.465050101E0,9.220500588E-1,8.401950836E0
3.661252642E1,-3.196050167E0,8.929500580E-1,9.243000031E0
3.663242367E1,-4.264050007E0,1.171050072E0,9.592950821E0
3.665232090E1,-3.984000206E0,9.439500570E-1,8.485950470E0
3.667221814E1,-3.475950241E0,4.530000091E-1,7.498950481E0
3.669211530E1,-3.268050194E0,2.040000111E-1,7.660050392E0
3.671201252E1,-3.517050266E0,1.003950000E0,7.444050312E0
3.673190971E1,-3.361950159E0,2.089050055E0,7.465950489E0
3.675180696E1,-2.101950169E0,2.148000002E0,7.983000278E0
3.677170422E1,-7.080000043E-1,2.032950163E0,8.071949959E0
3.679160120E1,-7.410000563E-1,2.701950073E0,7.464000225E0
3.681149842E1,-1.819050074E0,3.487050056E0,6.831000328E0
3.683139567E1,-2.451000214E0,3.787050247E0,6.493950367E0
3.685129292E1,-2.614050150E0,3.922950268E0,7.000950336E0
3.687119008E1,-2.314950228E0,4.036050320E0,7.906950474E0
3.689108730E1,-1.941000104E0,4.030950069E0,8.254050255E0
3.691098451E1,-2.011049986E0,4.213050365E0,8.035950661E0
3.693088153E1,-2.085000038E0,4.387950420E0,7.914000511E0
3.695077876E1,-1.302000046E0,4.338000298E0,7.995000362E0
3.697067599E1,-4.420500100E-1,4.375950336E0,8.260950089E0
3.699057322E1,-3.370500207E-1,4.681950092E0,8.425950050E0
3.701047043E1,-4.009500146E-1,4.809000015E0,8.668050766E0
3.703036759E1,-2.170500159E-1,4.567049980E0,9.043950081E0
3.705026481E1,1.050000042E-1,4.444950104E0,8.989050865E0
3.707016178E1,-1.469999999E-1,4.576950073E0,9.102000237E0
3.709005903E1,-9.139500260E-1,5.221050262E0,9.705000877E0
3.710995628E1,-1.704000115E0,6.462000370E0,1.086405087E1
3.712985354E1,-1.228050113E0,6.618000507E0,1.215795040E1
3.714975077E1,-6.405000389E-2,5.683950424E0,1.279005051E1
3.716964791E1,-3.649500310E-1,5.539950371E0,1.309200096E1
3.718954511E1,-1.378050089E0,6.358950138E0,1.263000107E1
3.720944232E1,-1.540950060E0,7.006050110E0,1.184205055E1
3.722933956E1,-8.160000443E-1,6.463950157E0,1.108500099E1
3.724923653E1,-7.200000286E-1,5.710050106E0,1.058700085E1
3.726913375E1,-1.354950070E0,5.121000290E0,9.994950294E0
3.728903099E1,-1.953000069E0,4.464000225E0,8.971950531E0
3.730892812E1,-2.236050129E0,3.925950289E0,7.983000278E0
3.732882538E1,-2.395950079E0,3.934950113E0,7.167000294E0
3.734872263E1,-2.049000025E0,4.189050198E0,6.544050217E0
3.736861965E1,-1.254000068E0,4.060050011E0,6.361950397E0
3.738851691E1,-9.450000525E-1,3.766950130E0,6.349950314E0
3.740841410E1,-1.038000107E0,3.724050283E0,6.537000179E0
3.742831131E1,-9.280500412E-1,3.925950289E0,6.604050159E0
3.744820844E1,-6.000000238E-1,4.085999966E0,6.594000340E0
3.746810567E1,-3.220500052E-1,4.036050320E0,6.361950397E0
3.748800289E1,-2.140500098E-1,4.057050228E0,5.872950077E0
3.750789988E1,-4.200000316E-2,4.239000320E0,5.428050041E0
3.752779714E1,3.795000166E-2,4.543050289E0,5.052000046E0
3.754769437E1,3.795000166E-2,4.966950417E0,4.735949993E0
3.756759164E1,4.860000312E-1,4.903050423E0,4.921950340E0
3.758748880E1,5.560500026E-1,4.795050144E0,5.065950394E0
3.760738603E1,-6.070500016E-1,5.173050404E0,5.212050438E0
3.762728328E1,-1.684950113E0,5.635950089E0,5.290950298E0
3.764718050E1,-1.390050054E0,5.875050068E0,5.610000134E0
3.766707748E1,-3.580500185E-1,6.025950432E0,6.822000504E0
3.768697474E1,-1.789500117E-1,6.333000183E0,8.686950684E0
3.770687197E1,-1.134000063E0,7.257000446E0,1.047900009E1
3.772676912E1,-1.549050093E0,7.996950150E0,1.140795040E1
3.774666634E1,-9.379500151E-1,8.196000099E0,1.099905014E1
3.776656357E1,-8.130000234E-1,8.557950020E0,1.023000050E1
3.778646078E1,-1.879050136E0,8.632050514E0,9.454050064E0
3.780635780E1,-3.132000208E0,8.220000267E0,9.039000511E0
3.782625501E1,-3.843000174E0,7.975950241E0,8.854949951E0
3.784615222E1,-3.751950264E0,8.134050369E0,8.869050026E0
3.786604947E1,-2.740950108E0,7.777050495E0,9.363000870E0
3.788594658E1,-1.231950045E0,6.832950115E0,1.033500004E1
3.790584380E1,-3.169500232E-1,6.201000214E0,1.081395054E1
3.792574081E1,-6.019500494E-1,6.028050423E0,1.043805027E1
3.794563804E1,-1.072050095E0,5.770050049E0,9.604950905E0
3.796553529E1,-8.730000257E-1,5.662050247E0,8.527050018E0
3.798543257E1,-1.830000132E-1,5.623950481E0,7.557000160E0
3.800532968E1,1.770000011E-1,5.611950397E0,7.006050110E0
3.802522692E1,1.270500124E-1,5.707050323E0,6.745050430E0
3.804512415E1,-3.870000243E-1,5.631000042E0,6.751950264E0
3.806502140E1,-9.349500537E-1,5.302950382E0,6.703950405E0
3.808491845E1,-1.218000054E0,4.966950417E0,6.244950294E0
3.810481570E1,-1.338000059E0,4.966950417E0,5.557050228E0
3.812471294E1,-1.441050053E0,5.109000206E0,5.406000137E0
3.814461019E1,-1.608000040E0,5.061000347E0,5.878050327E0
3.816450736E1,-1.834050059E0,5.074950218E0,6.484050274E0
3.818440457E1,-1.834050059E0,5.089950085E0,7.000950336E0
3.820430180E1,-1.549050093E0,5.044050217E0,7.255050182E0
3.822419883E1,-1.254000068E0,5.182950020E0,7.252950191E0
3.824409630E1,-8.710500598E-1,5.214000225E0,7.059000492E0
3.826399330E1,-5.689499974E-1,5.053950310E0,6.594000340E0
3.828389049E1,-5.190000534E-1,4.957950115E0,6.094050407E0
3.830378760E1,-2.670000196E-1,4.929000378E0,5.602950096E0
3.832368482E1,-1.095000096E-2,4.788000107E0,5.131050110E0
3.834358206E1,2.059500068E-1,4.552950382E0,4.767000198E0
3.836347934E1,-3.100500107E-1,4.303950310E0,4.519950390E0
3.838337633E1,-1.009950042E0,4.423950195E0,4.483950138E0
3.840327355E1,-1.465050101E0,5.334000111E0,4.771950245E0
3.842317072E1,-1.144050002E0,6.301050186E0,6.769050121E0
3.844306800E1,-3.439500034E-1,6.094950199E0,1.047405052E1
3.846296516E1,-1.084050059E0,6.141000271E0,1.341000080E1
3.848286238E1,-2.932950258E0,7.249950409E0,1.396605110E1
3.850275963E1,-3.400050163E0,7.782000542E0,1.333395100E1
3.852265664E1,-2.254950047E0,6.984000206E0,1.374600029E1
3.854255385E1,-1.834050059E0,6.225000381E0,1.474695110E1
3.856245106E1,-1.258950114E0,5.370000362E0,1.568295097E1
3.858234829E1,-6.960000396E-1,4.699050426E0,1.492605114E1
3.860224547E1,-9.450000525E-1,5.290950298E0,1.277295017E1
3.862214271E1,-1.297050118E0,6.214950085E0,1.065600014E1
3.864203996E1,-9.349500537E-1,6.601050377E0,9.499050140E0
3.866193695E1,1.905000024E-2,5.949000359E0,8.866950035E0
3.868183418E1,3.430500031E-1,5.098950386E0,7.593000412E0
3.870173142E1,-5.520000458E-1,4.840050220E0,6.501000404E0
3.872162853E1,-1.534050107E0,5.046000004E0,6.136950493E0
3.874152573E1,-1.378050089E0,4.849950314E0,6.184950352E0
3.876142294E1,-4.320000112E-1,4.315950394E0,6.253950119E0
3.878131996E1,2.205000073E-2,4.102950096E0,6.003000259E0
3.880121742E1,-4.609500170E-1,4.267950058E0,5.742000103E0
3.882111441E1,-7.840500474E-1,4.318050385E0,5.533050060E0
3.884101166E1,-5.670000315E-1,4.099950314E0,5.325000286E0
3.886090881E1,-1.909500062E-1,4.029000282E0,5.386950493E0
3.888080611E1,7.905000448E-2,4.294050217E0,5.788950443E0
3.890070326E1,2.130000144E-1,4.480950356E0,6.501000404E0
3.892060049E1,2.080500126E-1,4.363950253E0,7.027950287E0
3.894049749E1,-2.295000106E-2,4.476000309E0,6.793050289E0
3.896039472E1,-3.610500097E-1,4.989000320E0,6.300000191E0
3.898029194E1,-6.120000482E-1,5.394000053E0,5.938050270E0
3.900018914E1,-4.990500212E-1,5.263950348E0,5.859000206E0
3.902008636E1,-2.890500128E-1,5.125050068E0,5.797050476E0
3.903998353E1,-5.140500069E-1,5.434050083E0,5.799000263E0
3.905988080E1,-8.230500221E-1,5.763000488E0,6.022050381E0
3.907977783E1,-5.860500336E-1,5.643000126E0,6.652050495E0
3.909967527E1,-7.800000161E-2,5.584950447E0,7.725000381E0
3.911957225E1,6.970500350E-1,5.983050346E0,9.175950050E0
3.913946946E1,1.483050108E0,6.730050087E0,9.978000641E0
3.915936666E1,2.056950092E0,7.185000420E0,1.023000050E1
3.917926381E1,2.304000139E0,7.393950462E0,9.841950417E0
3.919916104E1,1.612050056E0,7.911000252E0,9.118950844E0
3.921905828E1,5.920500159E-1,7.935000420E0,8.890950203E0
3.923895528E1,4.000500143E-1,7.176000118E0,9.436950684E0
3.925885251E1,-2.190000117E-1,6.924000263E0,1.052895069E1
3.927874976E1,-1.371000051E0,7.213950157E0,1.176300049E1
3.929864702E1,-1.078950047E0,6.766050339E0,1.267305088E1
3.931854420E1,1.319999993E-1,6.037950516E0,1.286205101E1
3.933844142E1,7.470000386E-1,5.683950424E0,1.238805103E1
3.935833867E1,4.860000312E-1,5.554050446E0,1.120905018E1
3.937823581E1,0.000000000E0,5.482050419E0,9.705000877E0
3.939813282E1,-1.429500133E-1,5.398050308E0,8.220000267E0
3.941803006E1,-1.995000057E-2,5.329050064E0,7.150050163E0
3.943792729E1,1.270500124E-1,5.203950405E0,6.604050159E0
3.945782453E1,-9.000000544E-3,5.118000031E0,6.300000191E0
3.947772170E1,-3.150000274E-1,5.260050297E0,6.196950436E0
3.949761893E1,-2.220000178E-1,5.347950459E0,6.244950294E0
3.951751617E1,-1.050000079E-3,5.118000031E0,6.405000210E0
3.953741316E1,-1.690500081E-1,4.917000294E0,6.616050243E0
3.955731037E1,-4.440000355E-1,4.953000069E0,6.673050404E0
3.957720760E1,-6.100500226E-1,5.032050133E0,6.622950077E0
3.959710480E1,-6.480000019E-1,5.025000095E0,6.489000320E0
3.961700193E1,-7.390500307E-1,5.070000172E0,6.381000519E0
3.963689912E1,-5.740500093E-1,5.046000004E0,6.678000450E0
3.965679613E1,-3.370500207E-1,4.684950352E0,6.925050259E0
3.967669356E1,-4.249500334E-1,4.348950386E0,6.807000160E0
3.969659063E1,-4.540500343E-1,4.207950115E0,6.441000462E0
3.971648785E1,-3.490500152E-1,4.171950340E0,5.923950195E0
3.973638500E1,-4.180500209E-1,4.203000069E0,5.560050488E0
3.975628227E1,-2.620500028E-1,4.036050320E0,5.658000469E0
3.977617951E1,-2.670000196E-1,4.123950005E0,5.992950439E0
3.979607673E1,-5.520000458E-1,4.776000023E0,6.370950222E0
3.981597373E1,-1.830000132E-1,5.178000450E0,6.955950260E0
3.983587098E1,1.530000120E-1,5.638050079E0,8.392950058E0
3.985576824E1,3.405000269E-2,6.559950352E0,1.033995056E1
3.987566546E1,-8.440500498E-1,7.654950142E0,1.151100063E1
3.989556261E1,-1.825950146E0,8.602950096E0,1.181805038E1
3.991545987E1,-1.996050119E0,8.512050629E0,1.182000065E1
3.993535689E1,-1.527000070E0,8.220000267E0,1.152300072E1
3.995525437E1,-4.800000191E-1,7.819950581E0,1.155705070E1
3.997515158E1,-4.320000112E-1,7.552050591E0,1.182705021E1
3.999504861E1,-1.086000085E0,7.125000477E0,1.222500038E1
4.001494583E1,-1.572000027E0,6.718050480E0,1.164300060E1
4.003484304E1,-2.122950077E0,6.820950508E0,1.019595051E1
4.005474016E1,-2.089950085E0,6.868950367E0,8.789999962E0
4.007463738E1,-1.738050103E0,6.442950249E0,7.983000278E0
4.009453461E1,-1.695000052E0,5.803050041E0,7.842000484E0
4.011443186E1,-1.912950039E0,5.185050011E0,7.935000420E0
4.013432887E1,-2.158950090E0,4.675050259E0,7.758000374E0
4.015422609E1,-2.371950150E0,4.321050167E0,7.344000340E0
4.017412333E1,-2.383949995E0,3.961050272E0,6.738000393E0
4.019402058E1,-2.293050051E0,3.697950125E0,5.950050354E0
4.021391775E1,-2.260050058E0,3.523050070E0,5.305950165E0
4.023381497E1,-2.265000105E0,3.523050070E0,4.981950283E0
4.025371223E1,-2.305050135E0,3.660000086E0,4.791000366E0
4.027360922E1,-2.065950155E0,3.769950151E0,4.912950039E0
4.029350647E1,-1.654050112E0,3.813000202E0,5.254950047E0
4.031340368E1,-1.519950032E0,3.882000208E0,5.353950024E0
4.033330085E1,-1.692000031E0,3.796050072E0,4.951050282E0
4.035319812E1,-1.885950089E0,3.712050200E0,4.530000210E0
4.037309539E1,-1.774050117E0,3.799050093E0,4.587000370E0
4.039299261E1,-1.848000050E0,4.195950031E0,4.788000107E0
4.041288960E1,-2.346000195E0,4.651050091E0,5.713050365E0
4.043278672E1,-1.852950096E0,4.351950169E0,7.000950336E0
4.045268395E1,-1.242000103E0,4.138950348E0,8.071949959E0
4.047258120E1,-1.792950034E0,5.190000057E0,9.109050751E0
4.049247842E1,-2.751000166E0,7.096950531E0,1.063905048E1
4.051237557E1,-2.728950024E0,8.437950134E0,1.190205097E1
4.053227278E1,-1.240050077E0,9.051000595E0,1.254600048E1
4.055217000E1,-3.049500287E-1,9.253950119E0,1.289505100E1
4.057206720E1,-5.140500069E-1,8.835000038E0,1.279005051E1
4.059196421E1,-6.739500165E-1,8.253000259E0,1.193295097E1
4.061186144E1,-8.419500589E-1,8.203050613E0,1.096500015E1
4.063175861E1,-9.780000448E-1,8.296050072E0,1.034700012E1
4.065165589E1,-4.780500233E-1,7.795950413E0,1.005300045E1
4.067155304E1,2.205000073E-2,7.149000168E0,9.550050735E0
4.069145002E1,1.699500084E-1,6.615000248E0,9.102000237E0
4.071134726E1,2.590500116E-1,6.043050289E0,8.491050720E0
4.073124474E1,2.010000050E-1,5.590050220E0,7.621950150E0
4.075114184E1,-1.995000057E-2,5.449050426E0,6.742950439E0
4.077103907E1,2.680500150E-1,5.418000221E0,6.136950493E0
4.079093618E1,7.039500475E-1,5.250000477E0,5.727000237E0
4.081083340E1,4.810500145E-1,5.193000317E0,5.536050320E0
4.083073067E1,1.695000008E-2,5.254950047E0,5.344050407E0
4.085062789E1,-1.159500033E-1,5.176050186E0,5.221950054E0
4.087052490E1,-1.950000077E-1,4.957950115E0,5.119050026E0
4.089042212E1,-3.889500201E-1,4.891050339E0,5.008950233E0
4.091031933E1,-5.430000424E-1,5.116050243E0,4.900950432E0
4.093021655E1,-5.350500345E-1,5.245050430E0,5.040000439E0
4.095011377E1,-5.110500455E-1,5.341050148E0,5.409000397E0
4.097001104E1,-6.000000238E-1,5.278950214E0,5.926050186E0
4.098990821E1,-6.480000019E-1,5.257050037E0,6.313950062E0
4.100980545E1,-5.140500069E-1,5.431950092E0,6.201000214E0
4.102970268E1,-3.850500286E-1,5.815050125E0,6.106050491E0
4.104959966E1,-4.230000079E-1,6.109950066E0,6.462000370E0
4.106949689E1,-7.579500079E-1,6.081000328E0,7.200000286E0
4.108939412E1,-1.210950017E0,5.959050179E0,7.999950409E0
4.110929130E1,-1.120050073E0,5.872950077E0,8.467050552E0
4.112918850E1,-1.261050105E0,6.165000439E0,8.716050148E0
4.114908573E1,-1.812000036E0,6.787950516E0,9.211950302E0
4.116898298E1,-1.965000153E0,7.033950329E0,9.550050735E0
4.118888018E1,-1.599000096E0,7.269000530E0,9.684000015E0
4.120877722E1,-1.066950083E0,7.267050266E0,9.997050285E0
4.122867445E1,-9.640500546E-1,7.015050411E0,1.054095078E1
4.124857170E1,-1.141050100E0,6.924000263E0,1.075395012E1
4.126846896E1,-1.294950008E0,6.982050419E0,1.017705059E1
4.128836608E1,-1.026000023E0,7.183050156E0,9.277050018E0
4.130826329E1,-5.230500102E-1,7.270950317E0,8.476950645E0
4.132816051E1,-1.710000038E-1,7.123050213E0,7.834950447E0
4.134805773E1,-1.669500023E-1,6.804000378E0,7.387050152E0
4.136795500E1,-8.950500488E-1,6.661050320E0,7.023000240E0
4.138785204E1,-1.723050117E0,6.802050114E0,6.718950272E0
4.140774926E1,-1.270950079E0,6.535950184E0,6.501000404E0
4.142764647E1,-5.209500194E-1,5.911050320E0,6.550950527E0
4.144754371E1,-4.249500334E-1,5.739000320E0,6.781050205E0
4.146744084E1,-7.650000453E-1,5.679000378E0,6.846000195E0
4.148733808E1,-8.350500464E-1,5.133000374E0,6.666000366E0
4.150723535E1,-7.150500417E-1,4.548000336E0,6.187050343E0
4.152713256E1,-5.809500217E-1,4.431000233E0,5.880000114E0
4.154702959E1,-3.150000274E-1,4.522050381E0,5.821050167E0
4.156692682E1,-2.839500010E-1,4.599000454E0,5.706000328E0
4.158682402E1,-5.929500461E-1,4.558050156E0,5.686050415E0
4.160672128E1,-1.273050070E0,4.714050293E0,5.629050255E0
4.162661845E1,-1.594050050E0,5.049000263E0,5.878050327E0
4.164651566E1,-1.183950067E0,5.419950485E0,6.489000320E0
4.166641290E1,-8.970000148E-1,5.947050095E0,7.389000416E0
4.168631010E1,-5.260500312E-1,6.379950523E0,8.533950806E0
4.170620730E1,1.905000024E-2,6.960000515E0,9.592950821E0
4.172610453E1,3.430500031E-1,7.546950340E0,1.014105034E1
