"Time (s)","Acceleration x (m/s^2)","Acceleration y (m/s^2)","Acceleration z (m/s^2)"
1.289391900E-2,1.077368379E0,4.162314892E0,8.949156761E0
3.300376200E-2,5.611169338E-1,4.389034748E0,8.962317467E0
5.311355400E-2,8.422735929E-1,4.047459602E0,9.049654961E0
7.322334600E-2,8.219345808E-1,3.962514400E0,9.303893089E0
9.333313700E-2,7.034898400E-1,4.109074593E0,9.318847656E0
1.134429290E-1,7.585247755E-1,4.128217220E0,8.986245155E0
1.335527210E-1,6.909275651E-1,4.177868366E0,8.819944382E0
1.536625640E-1,6.556333899E-1,4.217947960E0,8.812766075E0
1.737723560E-1,6.675975323E-1,4.178466320E0,8.808578491E0
1.938821480E-1,5.264210105E-1,4.132404804E0,8.779864311E0
2.139919390E-1,2.907279432E-1,4.143770695E0,8.778069496E0
2.341017310E-1,2.039881349E-1,4.108476639E0,8.858229637E0
2.542115750E-1,1.896311939E-1,4.063013077E0,9.004789352E0
2.743213660E-1,1.633101404E-1,4.072584152E0,9.148957253E0
2.944311580E-1,1.375873089E-1,4.085146427E0,9.232706070E0
3.145409500E-1,1.304088384E-1,4.037888050E0,9.208179474E0
3.346507940E-1,1.854437590E-1,3.991228104E0,9.094520569E0
3.547605850E-1,2.404786795E-1,4.006183147E0,9.052047729E0
3.748703770E-1,1.214357466E-1,3.984049797E0,9.123234749E0
3.949801690E-1,2.213360928E-2,3.899104595E0,9.180662155E0
4.150899600E-1,4.366901144E-2,3.908077478E0,9.159725189E0
4.351997520E-1,1.405783296E-1,3.969094515E0,9.080761909E0
4.553095960E-1,2.787638307E-1,3.986442566E0,9.023334503E0
4.754193870E-1,3.714857101E-1,4.020540237E0,8.922835350E0
4.955291790E-1,4.265206456E-1,4.048655987E0,8.854640007E0
5.156389710E-1,4.019941986E-1,4.031308174E0,8.838488579E0
5.357488140E-1,2.895315289E-1,3.960121393E0,8.823533058E0
5.558586060E-1,1.645065546E-1,3.982254982E0,8.836693764E0
5.759683980E-1,1.507478207E-1,3.993621111E0,8.828917503E0
5.960781890E-1,1.800599098E-1,3.918246984E0,8.833105087E0
6.161879810E-1,1.130608693E-1,3.945166349E0,8.937192917E0
6.362978250E-1,1.112662554E-1,4.001397610E0,9.090332985E0
6.564076160E-1,2.213360965E-1,3.922434568E0,9.056235313E0
6.765174080E-1,1.914258152E-1,3.896711588E0,8.921639442E0
6.966272000E-1,6.101697683E-2,3.902095556E0,8.773882866E0
7.167369910E-1,7.776673418E-3,3.912265062E0,8.778668404E0
7.368468350E-1,9.631111473E-2,3.850649834E0,8.917451859E0
7.569566270E-1,1.214357466E-1,3.694518089E0,9.132805824E0
7.770664190E-1,-1.974078640E-2,3.674777269E0,9.373882294E0
7.971762100E-1,1.280160099E-1,3.648456335E0,9.443274498E0
8.172860540E-1,2.703889608E-1,3.699902058E0,9.428917885E0
8.373958460E-1,1.980060786E-1,3.690330744E0,9.452845573E0
8.575056370E-1,7.956135273E-2,3.572484255E0,9.488140106E0
8.776154290E-1,-9.631111473E-2,3.540181160E0,9.452845573E0
8.977252210E-1,-3.876372576E-1,3.538386583E0,9.493523598E0
9.178350640E-1,-4.067798555E-1,3.498904943E0,9.615557671E0
9.379448560E-1,-3.834498227E-1,3.497110367E0,9.714262009E0
9.580546480E-1,-5.736792088E-1,3.482753277E0,9.501300812E0
9.781644390E-1,-1.428515077E0,3.461217880E0,8.955139160E0
9.982742830E-1,-4.941178858E-1,3.223132133E0,9.206384659E0
1.018384075E0,-1.178465188E-1,3.372085333E0,9.438488960E0
1.038493866E0,-1.860419661E-1,3.424129248E0,9.720842361E0
1.058603658E0,-2.901297510E-1,3.284747362E0,9.773484230E0
1.078713450E0,-3.565305769E-1,3.105883837E0,9.738788605E0
1.098823294E0,-4.773681164E-1,3.165106058E0,9.698708534E0
1.118933085E0,-4.887340367E-1,3.231507063E0,9.649655342E0
1.139042877E0,-3.481557071E-1,3.249453068E0,9.499505997E0
1.159152669E0,1.914258115E-2,3.449253798E0,9.364909172E0
1.179262512E0,2.632104978E-2,3.614956856E0,9.335597992E0
1.199372304E0,1.609173268E-1,3.510869026E0,9.129815102E0
1.219482096E0,7.238288224E-2,3.566502094E0,9.116056442E0
1.239591887E0,-8.434699476E-2,3.654438496E0,8.766703606E0
1.259701731E0,-2.374876440E-1,3.751945972E0,8.588438988E0
1.279811523E0,-9.092725813E-2,3.812364578E0,8.718847275E0
1.299921314E0,1.214357466E-1,3.809373617E0,9.041878700E0
1.320031106E0,1.501496136E-1,3.708276987E0,9.062217712E0
1.340140898E0,-4.067798331E-2,3.711267948E0,9.064610481E0
1.360250741E0,-1.842473447E-1,3.755535126E0,9.177671432E0
1.380360533E0,-2.512463741E-2,3.813561201E0,9.202795982E0
1.400470325E0,2.153540403E-2,3.845864296E0,9.096315384E0
1.420580116E0,-2.751746178E-1,3.924229145E0,9.135198593E0
1.440689960E0,-3.804588020E-1,3.998406649E0,9.346963882E0
1.460799752E0,-1.962114573E-1,3.879961967E0,9.485149384E0
1.480909544E0,2.931207791E-2,3.999004841E0,9.416355133E0
1.501019335E0,1.202393398E-1,4.207778454E0,9.257830620E0
1.521129179E0,2.997010350E-1,4.317250252E0,8.872586250E0
1.541238971E0,-1.226321608E-1,4.289134502E0,8.474779129E0
1.561348762E0,-1.920240223E-1,4.264009953E0,8.332406998E0
1.581458554E0,-2.344966233E-1,4.354937077E0,8.382058144E0
1.601568346E0,-1.172483116E-1,4.309473515E0,8.580063820E0
1.621678189E0,-4.785645381E-2,4.171288013E0,8.839086533E0
1.641787981E0,-2.039881349E-1,4.234697819E0,9.152546883E0
1.661897773E0,-2.566302419E-1,4.196412563E0,9.437292099E0
1.682007564E0,-2.189432681E-1,4.001996040E0,9.180662155E0
1.702117408E0,-3.924229145E-1,3.990031719E0,8.562117577E0
1.722227200E0,-5.832505226E-1,4.418945312E0,8.464012146E0
1.742336991E0,-2.859423161E-1,4.657031059E0,8.848059654E0
1.762446783E0,2.243271172E-1,4.470390797E0,8.980861664E0
1.782556627E0,3.601198196E-1,4.428516388E0,9.099904060E0
1.802666419E0,4.606183469E-1,4.375874519E0,8.952147484E0
1.822776210E0,-8.135596663E-2,4.448855400E0,8.688937187E0
1.842886054E0,-6.149554253E-1,4.499702930E0,8.464012146E0
1.862995846E0,-7.830511928E-1,4.152145386E0,8.439485550E0
1.883105637E0,-1.532602906E0,3.789034605E0,9.138788223E0
1.903215429E0,-1.620539188E0,4.337589264E0,9.856635094E0
1.923325221E0,-1.129412293E0,3.814757586E0,9.666405678E0
1.943435064E0,1.561316848E-1,4.465006828E0,9.444471359E0
1.963544856E0,1.340578914E0,4.880760193E0,8.963513374E0
1.983654648E0,1.135992527E0,4.923830986E0,8.252845764E0
2.003764439E0,2.201396823E-1,4.532604218E0,8.018946648E0
2.023874283E0,-2.973082066E-1,4.749154568E0,7.953144073E0
2.043984075E0,-6.658028960E-1,4.975874901E0,8.008777618E0
2.064093866E0,-1.806581169E-1,4.938187599E0,8.420342445E0
2.084203658E0,5.270192027E-1,4.784449100E0,8.247461319E0
2.104313502E0,3.086741269E-1,4.685146809E0,8.094919205E0
2.124423294E0,-3.828516304E-1,4.326821327E0,8.548956871E0
2.144533085E0,-2.603390932E0,4.076771736E0,9.239286423E0
2.164642877E0,-3.080759048E-1,3.019144058E0,9.407979965E0
2.184752721E0,-1.680957973E-1,3.580859184E0,9.470193863E0
2.204862512E0,-8.775677085E-1,4.770689964E0,9.638887405E0
2.224972304E0,3.122633696E-1,4.177269936E0,9.625128746E0
2.245082148E0,-3.852444589E-1,3.985844374E0,9.436694145E0
2.265191939E0,-1.304686546E0,3.714258909E0,8.825926781E0
2.285301731E0,-1.441675663E0,3.598805189E0,8.714061737E0
2.305411523E0,-1.134197950E0,3.471387386E0,9.040681839E0
2.325521314E0,-9.379864931E-1,3.466003656E0,9.257830620E0
2.345631158E0,-8.135597110E-1,3.424727440E0,9.057432175E0
2.365740950E0,-9.720842242E-1,3.425923824E0,8.916254997E0
2.385850741E0,-1.326820135E0,3.533600807E0,9.114859581E0
2.405960533E0,-1.307079315E0,3.515056372E0,9.184849739E0
2.426070377E0,-9.439685345E-1,3.440280676E0,8.821739197E0
2.446180169E0,-4.271188378E-1,3.522833109E0,8.523234367E0
2.466289960E0,2.177468538E-1,3.683152199E0,8.685347557E0
2.486399804E0,2.315055877E-1,3.680759430E0,9.417551994E0
2.506509596E0,-5.563312769E-2,3.594617844E0,1.004806042E1
2.526619387E0,-2.769692242E-1,3.658027649E0,1.021256733E1
2.546729179E0,-1.393819153E-1,3.655036688E0,9.988240242E0
2.566839023E0,2.273181453E-2,3.713660717E0,9.778269768E0
2.586948814E0,2.404786795E-1,3.733999729E0,9.712467194E0
2.607058606E0,1.070788130E-1,3.678366661E0,9.799206734E0
2.627168398E0,5.383851007E-3,3.608376503E0,9.853045464E0
2.647278241E0,-2.632104978E-2,3.649054527E0,9.784252167E0
2.667388033E0,-3.170489892E-2,3.579064369E0,9.882955551E0
2.687497825E0,1.435693540E-2,3.563511133E0,9.970293999E0
2.707607616E0,3.050848842E-2,3.568296671E0,9.936196327E0
2.727717460E0,5.742774606E-1,3.401995659E0,1.012582684E1
2.747827252E0,-1.178465188E-1,3.753740549E0,9.878767967E0
2.767937044E0,-6.819544733E-2,3.632902861E0,8.989236832E0
2.788046887E0,7.896314561E-2,3.613162279E0,8.793025017E0
2.808156679E0,-1.154536903E-1,3.829114437E0,8.733204842E0
2.828266471E0,-2.009970993E-1,3.756133318E0,8.534600258E0
2.848376262E0,-1.501496136E-1,3.722035646E0,8.586046219E0
2.868486106E0,-2.751746029E-2,3.742374659E0,8.928219795E0
2.888595898E0,2.261217386E-1,3.747160196E0,8.833105087E0
2.908705689E0,8.075776696E-2,3.786641836E0,8.820542336E0
2.928815481E0,-1.351944804E-1,3.720839262E0,8.857631683E0
2.948925325E0,-3.254238665E-1,3.706482172E0,8.877969742E0
2.969035116E0,-3.080759048E-1,3.742972851E0,8.979066849E0
2.989144908E0,-1.722832322E-1,3.783650875E0,9.169894218E0
3.009254700E0,0.000000000E0,3.806382656E0,9.230911255E0
3.029364544E0,1.052841991E-1,3.817748547E0,9.269196510E0
3.049474335E0,6.819544733E-2,3.827918053E0,9.300303459E0
3.069584127E0,-6.879365444E-2,3.845266104E0,9.223134995E0
3.089693971E0,-1.363908947E-1,3.872185230E0,9.129216194E0
3.109803762E0,-6.101697683E-2,3.890729666E0,9.034700394E0
3.129913554E0,1.794616925E-3,3.905086517E0,9.099306107E0
3.150023346E0,-1.202393398E-1,3.869792461E0,9.328418732E0
3.170133189E0,-1.968096644E-1,3.818944931E0,9.451649666E0
3.190242981E0,-1.950150430E-1,3.821337700E0,9.500701904E0
3.210352773E0,-2.027917206E-1,3.776472330E0,9.437891006E0
3.230462616E0,-1.986042857E-1,3.792623997E0,9.499505997E0
3.250572408E0,-6.580262631E-2,3.844667673E0,9.754940033E0
3.270682200E0,-4.905286431E-2,3.827918053E0,9.714262009E0
3.290791991E0,-9.810572863E-2,3.842873096E0,9.459425926E0
3.310901835E0,-3.092723191E-1,3.933800459E0,8.924630165E0
3.331011627E0,-3.337987661E-1,4.039084435E0,8.655437469E0
3.351121419E0,-1.513460279E-1,4.087539196E0,8.754141808E0
3.371231262E0,-4.725824669E-2,4.102494240E0,8.838488579E0
3.391341054E0,2.632104978E-2,4.221537113E0,8.570492744E0
3.411450846E0,7.178467698E-3,4.314259052E0,8.346763611E0
3.431560637E0,-5.982056609E-4,4.255635262E0,8.606983185E0
3.451670481E0,7.836493850E-2,4.210171223E0,8.936594009E0
3.471780273E0,5.024927482E-2,4.244269371E0,8.982656479E0
3.491890064E0,-2.991028363E-3,4.316053867E0,8.896514893E0
3.511999908E0,1.794616925E-3,4.335794449E0,8.779266357E0
3.532109700E0,6.759724021E-2,4.351946354E0,8.717651367E0
3.552219491E0,1.872383654E-1,4.383052826E0,8.712266922E0
3.572329283E0,1.968096644E-1,4.391427994E0,8.681758881E0
3.592439127E0,1.136590727E-2,4.317848682E0,8.538188934E0
3.612548919E0,-2.356930375E-1,4.262813568E0,8.601000786E0
3.632658710E0,-4.169493318E-1,4.117449760E0,8.981459618E0
3.652768554E0,-5.036891699E-1,3.921238184E0,9.605986595E0
3.672878346E0,-5.443671346E-1,3.838685751E0,9.989436150E0
3.692988137E0,-6.011967063E-1,3.910470486E0,9.879366875E0
3.713097929E0,-6.855437160E-1,3.977469444E0,9.495318413E0
3.733207773E0,-6.209374666E-1,4.010969162E0,9.336195946E0
3.753317564E0,-4.235295951E-1,3.989433527E0,9.529416084E0
3.773427356E0,-3.182454109E-1,3.965505362E0,9.549755096E0
3.793537200E0,-3.290131092E-1,3.974478483E0,9.180064201E0
3.813646991E0,-3.379862010E-1,3.993022680E0,8.823533058E0
3.833756783E0,-2.949153781E-1,4.104289055E0,8.679366112E0
3.853866575E0,-1.872383654E-1,4.146761417E0,8.669196129E0
3.873976419E0,-1.351944804E-1,4.125824451E0,8.650651932E0
3.894086210E0,-2.315055877E-1,4.068396568E0,8.723034859E0
3.914196002E0,-4.313062727E-1,4.000201225E0,8.952147484E0
3.934305846E0,-5.365904570E-1,3.977469444E0,8.988637924E0
3.954415637E0,-4.935196638E-1,3.937987804E0,8.745168686E0
3.974525429E0,-3.583251834E-1,4.074976921E0,8.634500504E0
3.994635221E0,-3.002992272E-1,4.122833252E0,8.788239479E0
4.014745064E0,-2.715853751E-1,4.009174347E0,9.068798065E0
4.034854856E0,-3.284149170E-1,3.957130432E0,9.212965012E0
4.054964648E0,-3.696911037E-1,3.950550079E0,9.171091080E0
4.075074491E0,-3.343969584E-1,3.972085476E0,9.090931892E0
4.095184283E0,-3.032902777E-1,3.993022680E0,9.110671997E0
4.115294075E0,-3.050848842E-1,3.977469444E0,9.209974289E0
4.135403919E0,-2.440679073E-1,3.964308977E0,9.260223389E0
4.155513710E0,-1.698904037E-1,3.970889091E0,9.227322578E0
4.175623502E0,-1.573280841E-1,4.025325775E0,9.119645119E0
4.195733294E0,-1.477568001E-1,4.028914928E0,9.037691116E0
4.215843137E0,-1.441675574E-1,4.036691666E0,9.046066284E0
4.235952929E0,-1.202393398E-1,4.064807415E0,9.075378418E0
4.256062721E0,-1.262213886E-1,4.070789337E0,9.043673515E0
4.276172564E0,-1.567298770E-1,4.019941807E0,9.047262192E0
4.296282356E0,-2.039881349E-1,4.025924206E0,9.068199158E0
4.316392148E0,-2.787638307E-1,4.036691666E0,8.992227554E0
4.336501939E0,-2.925225794E-1,4.046861172E0,8.949156761E0
4.356611783E0,-3.158525825E-1,4.089334011E0,8.974879265E0
4.376721575E0,-3.266202807E-1,4.040280819E0,8.986245155E0
4.396831366E0,-3.260220885E-1,4.011567116E0,8.991629601E0
4.416941210E0,-3.332005441E-1,4.043870449E0,9.061619759E0
4.437051002E0,-2.901297510E-1,4.039682865E0,9.092725754E0
4.457160794E0,-2.596212626E-1,4.015156269E0,9.106484413E0
4.477270637E0,-2.309073806E-1,4.009772778E0,9.101698875E0
4.497380429E0,-2.368894368E-1,4.028316975E0,8.960522652E0
4.517490221E0,-2.458625287E-1,4.045664787E0,8.940781593E0
4.537600064E0,-1.339980662E-1,4.007977962E0,9.053244591E0
4.557709856E0,-6.400800496E-2,3.959523201E0,9.069993973E0
4.577819648E0,-9.272187948E-2,3.845864296E0,8.880363464E0
4.597929439E0,-4.426721931E-1,3.967898130E0,8.876773834E0
4.618039283E0,-4.175475538E-1,3.915256023E0,9.058628082E0
4.638149075E0,-4.396811724E-1,3.833899975E0,9.123832703E0
4.658258866E0,-5.467599630E-1,3.845864296E0,9.097511292E0
4.678368710E0,-5.216353536E-1,3.909872293E0,9.025727272E0
4.698478502E0,-4.654040039E-1,3.834498405E0,8.987442017E0
4.718588294E0,-4.055834413E-1,3.743571043E0,9.114261627E0
4.738698085E0,-4.049852192E-1,3.774677753E0,9.244071960E0
4.758807929E0,-4.336991012E-1,3.902095556E0,9.246464729E0
4.778917721E0,-2.739782035E-1,3.876971006E0,9.182456970E0
4.799027512E0,-1.130608693E-1,3.816552162E0,9.159127235E0
4.819137356E0,-4.007977992E-2,3.906881094E0,9.169296265E0
4.839247148E0,8.733802289E-2,3.938585997E0,9.226723671E0
4.859356939E0,2.428714931E-1,3.933202267E0,9.349356651E0
4.879466731E0,2.350948304E-1,3.951148272E0,9.466006279E0
4.899576575E0,2.656033039E-1,3.943371773E0,9.463015556E0
4.919686366E0,3.026920557E-1,3.988835335E0,9.262616158E0
4.939796158E0,2.177468538E-1,4.064807415E0,8.921639442E0
4.959906002E0,7.896314561E-2,4.061816216E0,8.727222443E0
4.980015794E0,-6.101697683E-2,4.034298897E0,9.005986214E0
5.000125585E0,-1.579262912E-1,3.952943087E0,9.309874535E0
5.020235429E0,-2.590230405E-1,3.895515203E0,9.458827972E0
5.040345221E0,-3.882354796E-1,3.875774384E0,9.311071396E0
5.060455012E0,-3.786641955E-1,3.860819340E0,9.126225471E0
5.080564856E0,-1.112662554E-1,3.811168194E0,8.963513374E0
5.100674648E0,-1.184447184E-1,3.875176191E0,8.850452423E0
5.120784439E0,-2.602194548E-1,3.902693748E0,8.733204842E0
5.140894283E0,-2.530409992E-1,3.879961967E0,8.705088615E0
5.161004075E0,-1.842473447E-1,3.862015724E0,8.931210518E0
5.181113866E0,-6.999006122E-2,3.856033802E0,9.165108681E0
5.201223710E0,-6.640082598E-2,3.870988846E0,9.118449211E0
5.221333502E0,-1.214357466E-1,3.945764542E0,8.940183640E0
5.241443294E0,-7.357929647E-2,3.985844374E0,8.891729355E0
5.261553137E0,2.099701911E-1,4.016951084E0,8.758927345E0
5.281662929E0,4.420739710E-1,4.080360889E0,8.817551613E0
5.301772721E0,5.144568682E-1,4.119842529E0,8.912666321E0
5.321882512E0,3.798605800E-1,4.191627026E0,9.079565048E0
5.341992356E0,3.248256743E-1,4.169493675E0,9.195617676E0
5.362102148E0,2.398804724E-1,4.302295208E0,9.087342262E0
5.382211939E0,2.464607358E-1,4.447061062E0,8.799605370E0
5.402321783E0,3.248256743E-1,4.552943230E0,8.626125336E0
5.422431575E0,3.260220885E-1,4.599603176E0,8.783453941E0
5.442541366E0,2.632105052E-1,4.537988186E0,9.001798630E0
5.462651210E0,1.142572835E-1,4.521238327E0,8.977272034E0
5.482761002E0,-5.204389244E-2,4.555335999E0,8.748159409E0
5.502870794E0,-1.339980662E-1,4.655834675E0,8.503493309E0
5.522980637E0,-9.930214286E-2,4.780261517E0,8.375477791E0
5.543090429E0,-2.871387079E-2,4.852046013E0,8.243273735E0
5.563200221E0,2.392822644E-3,4.835296154E0,8.075178146E0
5.583310064E0,-1.100698411E-1,4.829912663E0,8.222934723E0
5.603419856E0,-2.063809484E-1,4.786841869E0,8.550153732E0
5.623529648E0,-2.440679073E-1,4.785645485E0,8.615956306E0
5.643639491E0,-2.207378894E-1,4.861617565E0,8.495717049E0
5.663749283E0,-8.195417374E-2,4.823332310E0,8.397610664E0
5.683859075E0,-6.460621208E-2,4.752744198E0,8.442476273E0
5.703968866E0,-1.585244983E-1,4.788636208E0,8.453244209E0
5.724078710E0,-1.704886109E-1,4.796412945E0,8.304290771E0
5.744188502E0,-1.274178028E-1,4.799404144E0,8.179863930E0
5.764298294E0,-1.627119333E-1,4.872983456E0,8.225327492E0
5.784408137E0,-1.818545163E-1,4.968098164E0,8.245666504E0
5.804517929E0,-1.429711580E-1,5.016552448E0,8.196015358E0
5.824627721E0,-4.426721856E-2,5.107480049E0,8.240283012E0
5.844737564E0,-5.982056609E-4,5.169693470E0,8.318049431E0
5.864847356E0,2.931207791E-2,5.251049519E0,8.114061356E0
5.884957148E0,-1.184447184E-1,5.606383324E0,7.855636597E0
5.905066991E0,-2.219343036E-1,5.983253002E0,7.764111042E0
5.925176783E0,-2.907279432E-1,6.295516491E0,7.960920811E0
5.945286575E0,-2.769692242E-1,6.455237389E0,8.613563538E0
5.965396419E0,3.888336942E-2,6.457031727E0,9.617950439E0
5.985506210E0,4.432703853E-1,6.342774391E0,1.040997505E1
6.005616002E0,4.803591371E-1,6.216553211E0,1.077368355E1
6.025725794E0,-5.802594870E-2,6.317051888E0,1.117089272E1
6.045835637E0,-3.732803464E-1,6.011368752E0,1.142931747E1
6.065945429E0,-2.662015259E-1,5.332405090E0,1.191506004E1
6.086055221E0,-2.063809484E-1,4.969294548E0,1.236790180E1
6.106165064E0,-2.081755698E-1,4.573880672E0,1.212383366E1
6.126274856E0,-2.309073806E-1,3.726821184E0,1.195573807E1
6.146384648E0,-6.334998012E-1,3.105883837E0,1.184447193E1
6.166494491E0,-1.402194023E0,2.992822886E0,1.104826069E1
6.186604283E0,-1.949552298E0,3.053839922E0,9.494720459E0
6.206714075E0,-1.905883193E0,3.052643538E0,8.325227737E0
6.226823919E0,-1.455434322E0,3.024527788E0,8.175078392E0
6.246933710E0,-1.114457130E0,3.224926710E0,8.523832321E0
6.267043554E0,-8.859425783E-1,3.383451223E0,8.407182693E0
6.287153346E0,-1.878365725E-1,3.177070379E0,8.067999840E0
6.307263137E0,3.684946895E-1,2.906681299E0,8.393424034E0
6.327372929E0,2.309073806E-1,2.761915445E0,8.776873589E0
6.347482773E0,-4.893322289E-1,2.819343328E0,7.876574039E0
6.367592564E0,-9.798609018E-1,3.036491871E0,6.110671043E0
6.387702356E0,-8.416753411E-1,3.256631613E0,4.699503899E0
6.407812200E0,-5.395814776E-1,3.579064369E0,4.631308079E0
6.427921991E0,-2.027917206E-1,3.926023722E0,5.637490273E0
6.448031783E0,-8.554340899E-2,4.395615101E0,6.506682873E0
6.468141627E0,7.896314561E-2,4.801198483E0,6.664609432E0
6.488251419E0,9.152546525E-2,5.101497650E0,6.501897335E0
6.508361210E0,2.572284266E-2,5.401797295E0,6.895516872E0
6.528471054E0,-1.974078640E-2,5.780461311E0,7.671987534E0
6.548580846E0,-4.785645381E-2,6.158527374E0,8.609973907E0
6.568690637E0,1.854437590E-2,6.308676720E0,9.376873970E0
6.588800481E0,-7.537391037E-2,6.424728870E0,9.888937950E0
6.608910273E0,-1.615155339E-1,6.382256031E0,1.009591675E1
6.629020064E0,-1.046859920E-1,6.071787357E0,1.031486034E1
6.649129908E0,1.268195957E-1,5.433502197E0,1.096211910E1
6.669239700E0,4.127618968E-1,4.573282242E0,1.204846001E1
6.689349491E0,-6.245267391E-1,4.578666210E0,1.264068413E1
6.709459335E0,-1.217348576E0,4.789832592E0,1.128395367E1
6.729569127E0,2.123630047E-1,4.471587181E0,8.846264839E0
6.749678919E0,2.063809633E0,3.565305710E0,7.851449490E0
6.769788762E0,2.409572363E0,2.733201742E0,9.758528709E0
6.789898554E0,1.201196909E0,2.404188633E0,1.238225937E1
6.810008346E0,1.663011760E-1,2.501696110E0,1.331605816E1
6.830118189E0,-4.785645287E-3,3.303889751E0,1.186062336E1
6.850227981E0,7.597211599E-1,4.241278172E0,9.540781975E0
6.870337773E0,1.815554142E0,4.429712772E0,8.202595711E0
6.890447616E0,1.866999865E0,3.984049797E0,8.006982803E0
6.910557408E0,8.105686903E-1,3.417548895E0,8.064410210E0
6.930667200E0,-3.008974493E-1,3.159722328E0,7.435098171E0
6.950777044E0,-1.001396298E0,3.066402197E0,6.090929985E0
6.970886835E0,-1.120439172E0,3.232105255E0,5.058426857E0
6.990996627E0,-8.189435601E-1,3.490530014E0,4.941178799E0
7.011106419E0,-6.897311211E-1,3.626322746E0,5.361717224E0
7.031216262E0,-8.476574421E-1,3.639483213E0,6.059823513E0
7.051326054E0,-7.268198729E-1,3.693321705E0,7.032505512E0
7.071435898E0,-5.060819983E-1,4.037290096E0,7.904689789E0
7.091545689E0,-4.612165689E-1,4.593621254E0,8.674580574E0
7.111655481E0,-8.153542876E-1,5.145765305E0,9.303893089E0
7.131765325E0,-1.460219979E0,5.526822090E0,9.463015556E0
7.151875116E0,-1.624128342E0,5.678766251E0,9.381659508E0
7.171984908E0,-9.272187948E-1,5.782256126E0,9.711270332E0
7.192094700E0,-2.075773627E-1,6.031707764E0,1.025563812E1
7.212204544E0,-8.913264424E-2,6.452246189E0,1.101894855E1
7.232314335E0,-3.696911037E-1,6.579065800E0,1.237627697E1
7.252424127E0,-8.949156404E-1,6.174678802E0,1.310728455E1
7.272533971E0,-1.508076429E0,6.342774391E0,1.216989613E1
7.292643762E0,-2.000399828E0,6.608976364E0,1.136351490E1
7.312753554E0,-1.263410330E0,5.603392601E0,1.204008579E1
7.332863398E0,-5.766702294E-1,4.791627407E0,1.261615753E1
7.352973189E0,-8.656035662E-1,4.240679741E0,1.163569832E1
7.373083033E0,-3.918247223E-1,3.583850145E0,1.010488987E1
7.393192825E0,3.720839322E-1,3.471387386E0,8.827720642E0
7.413302616E0,6.628118753E-1,3.403192043E0,7.492526054E0
7.433412408E0,3.014956415E-1,3.151347399E0,6.490531445E0
7.453522252E0,7.178468257E-2,2.675175667E0,6.657430649E0
7.473632044E0,3.649054468E-2,2.328814745E0,8.002795219E0
7.493741835E0,-5.264209956E-2,2.203191519E0,8.478966713E0
7.513851679E0,-4.582255483E-1,2.404188633E0,7.150950432E0
7.533961471E0,-8.512466550E-1,2.679961443E0,5.285745144E0
7.554071262E0,-7.896314859E-1,2.851646423E0,3.966701746E0
7.574181106E0,-7.034898400E-1,3.171686411E0,4.526622295E0
7.594290898E0,-1.333998591E-1,3.669393539E0,5.961119175E0
7.614400689E0,-2.273181528E-1,4.415356159E0,6.288936138E0
7.634510533E0,-6.358926296E-1,4.890929699E0,5.203791142E0
7.654620325E0,-8.105686903E-1,5.233701229E0,5.128417015E0
7.674730116E0,-1.932204217E-1,5.230710506E0,6.973283291E0
7.694839960E0,-2.632104978E-2,5.355735302E0,9.849455833E0
7.714949752E0,-8.267202377E-1,6.272784710E0,1.143769264E1
7.735059544E0,-1.859223247E0,7.194021225E0,1.031186962E1
7.755169387E0,-1.811964989E0,7.318448067E0,7.654639721E0
7.775279179E0,-4.624129832E-1,6.664011002E0,7.011568546E0
7.795388971E0,1.669592023E0,5.448457241E0,1.006241703E1
7.815498814E0,3.063411236E0,4.535595417E0,1.457886982E1
7.835608606E0,1.801795483E0,4.935794830E0,1.518066502E1
7.855718450E0,1.495514158E-2,5.147559643E0,1.115354443E1
7.875828241E0,-4.301098585E-1,4.237689018E0,7.402794838E0
7.895938033E0,-7.070791125E-1,3.631706476E0,6.638886452E0
7.916047825E0,-9.613165259E-1,3.703491211E0,8.260024071E0
7.936157669E0,-1.230509043E0,3.602394581E0,9.617352486E0
7.956267460E0,3.678964674E-1,2.703291416E0,1.173380375E1
7.976377252E0,2.123031855E0,2.411366940E0,1.441855145E1
7.996487096E0,2.568096876E0,2.831307411E0,1.416371536E1
8.016596887E0,1.681556106E0,3.132802963E0,1.068754196E1
8.036706679E0,1.010369420E0,2.908475876E0,7.950153351E0
8.056816523E0,5.198407173E-1,2.849851847E0,7.960322857E0
8.076926314E0,3.822534084E-1,2.916850805E0,9.067003250E0
8.097036106E0,3.409772217E-1,2.853441000E0,8.258827209E0
8.117145950E0,1.148554832E-1,3.018545866E0,5.926423550E0
8.137255741E0,5.503492057E-2,3.384647608E0,3.770490170E0
8.157365533E0,-7.836493850E-2,4.041477680E0,3.037090063E0
8.177475377E0,7.896314561E-2,4.465006828E0,3.944568157E0
8.197585169E0,1.417747438E-1,4.819743156E0,5.579464436E0
8.217694960E0,-2.153540403E-2,5.302495003E0,7.281957626E0
8.237804804E0,3.559323549E-1,5.339583874E0,8.845666885E0
8.257914596E0,1.116251707E0,5.045266628E0,9.923633575E0
8.278024439E0,1.502094388E0,4.971687317E0,1.030708313E1
8.298134231E0,6.047859192E-1,5.487340450E0,9.793225288E0
8.318244023E0,-9.882357717E-1,6.260820389E0,9.528220177E0
8.338353814E0,-1.779661894E0,6.757331371E0,1.040459061E1
8.358463658E0,-1.670788407E0,6.675975323E0,1.150768185E1
8.378573450E0,-9.326026440E-1,6.101099491E0,1.213998604E1
8.398683241E0,-8.081758618E-1,6.372684956E0,1.194497108E1
8.418793085E0,-6.909275651E-1,6.585646152E0,1.124447155E1
8.438902877E0,-1.052841991E-1,5.622535229E0,1.114277649E1
8.459012669E0,-3.900300860E-1,4.431507587E0,1.260718441E1
8.479122512E0,-1.742573142E0,4.206582069E0,1.286441231E1
8.499232304E0,-3.242872953E0,4.025325775E0,1.130608654E1
8.519342148E0,-3.323630571E0,3.005385160E0,1.001037312E1
8.539451939E0,-1.783251047E0,2.237289190E0,9.914062500E0
8.559561731E0,-1.166501045E-1,2.356930256E0,9.611370087E0
8.579671523E0,1.292124242E-1,2.746362209E0,8.603393555E0
8.599781366E0,-1.399801224E-1,2.654238462E0,7.319644451E0
8.619891158E0,1.758724600E-1,2.347957134E0,6.110072613E0
8.640001002E0,5.832505226E-1,2.273779631E0,5.513063431E0
8.660110794E0,5.539384484E-1,2.475973129E0,5.947360516E0
8.680220585E0,1.555334684E-2,2.718844652E0,6.145366669E0
8.700330429E0,-9.451649338E-2,2.956332445E0,5.702096462E0
8.720440221E0,4.307080805E-2,3.552743435E0,4.829912663E0
8.740550012E0,2.386840582E-1,4.192225456E0,4.460819721E0
8.760659856E0,6.885347366E-1,4.381856441E0,5.444868088E0
8.780769648E0,6.269195080E-1,4.332803726E0,7.655836105E0
8.800879439E0,1.196411322E-3,4.499702930E0,9.649057388E0
8.820989283E0,-6.574280262E-1,5.187041283E0,9.622735977E0
8.841099075E0,-5.401797295E-1,6.037091732E0,7.671389580E0
8.861208866E0,-1.274178028E-1,6.613761902E0,6.961319447E0
8.881318658E0,3.343969584E-1,6.681358814E0,8.627920151E0
8.901428502E0,5.078766346E-1,6.038886070E0,1.078744221E1
8.921538294E0,1.190429211E0,5.064409256E0,1.228235817E1
8.941648137E0,2.874976397E0,4.051048756E0,1.318385410E1
8.961757929E0,3.299104214E0,3.565305710E0,1.286560917E1
8.981867721E0,2.945564747E0,2.478366137E0,1.116849995E1
9.001977564E0,1.649851203E0,8.997012973E-1,1.044407272E1
9.022087356E0,-4.618147612E-1,1.530210137E0,1.123908806E1
9.042197148E0,-3.248256743E-1,3.300898790E0,1.009232807E1
9.062306991E0,1.569691658E0,4.185046673E0,6.941578388E0
9.082416783E0,3.398406267E0,4.338785648E0,5.882754326E0
9.102526575E0,4.211966038E0,4.308875561E0,9.386445045E0
9.122636419E0,3.457030535E0,4.399802685E0,1.310070419E1
9.142746210E0,2.199602127E0,3.918845177E0,1.428993702E1
9.162856002E0,8.620143533E-1,3.394218922E0,1.299003601E1
9.182965846E0,-2.063809484E-1,3.334996462E0,1.006780148E1
9.203075637E0,-6.544370055E-1,3.294916868E0,7.142575741E0
9.223185429E0,-1.001994491E0,3.043072224E0,4.842474937E0
9.243295273E0,-1.484148264E0,3.058027267E0,3.829712629E0
9.263405064E0,-1.946561217E0,3.419941664E0,5.030909538E0
9.283514856E0,-2.124228239E0,3.823730469E0,7.318448067E0
9.303624700E0,-1.904088616E0,4.394418716E0,8.609375954E0
9.323734491E0,-8.751748800E-1,5.032704353E0,8.115258217E0
9.343844283E0,1.154536903E-1,5.729613781E0,6.534798622E0
9.363954127E0,4.779663086E-1,5.909673691E0,6.026922226E0
9.384063919E0,2.590230405E-1,5.702694416E0,6.927819729E0
9.404173710E0,-3.649054468E-1,5.782256126E0,8.713463783E0
9.424283554E0,-7.130611539E-1,5.880959988E0,1.010847950E1
9.444393346E0,-1.001994491E0,6.160920143E0,9.573683739E0
9.464503137E0,-6.478567123E-1,6.262016773E0,8.780462265E0
9.484612981E0,3.774677813E-1,5.724229813E0,1.027597713E1
9.504722773E0,1.812563092E-1,5.264808178E0,1.287817192E1
9.524832564E0,-1.960918188E0,5.854040623E0,1.278066349E1
9.544942408E0,-2.563311338E0,5.916254044E0,1.119960594E1
9.565052200E0,-1.104885817E0,4.838885784E0,1.243549919E1
9.585161991E0,3.774677813E-1,3.975076675E0,1.500060558E1
9.605271835E0,7.722834945E-1,3.272184849E0,1.499761391E1
9.625381627E0,1.235892892E0,2.166102648E0,1.273878956E1
9.645491419E0,1.369890928E0,2.077568293E0,9.681360245E0
9.665601262E0,1.188634634E0,2.659622431E0,7.467999458E0
9.685711054E0,9.607182741E-1,2.922234535E0,6.124429703E0
9.705820846E0,3.445664644E-1,2.924029350E0,5.859424591E0
9.725930689E0,-2.093719877E-2,2.785843849E0,6.980462074E0
9.746040481E0,-6.939185411E-2,2.678166628E0,7.279564857E0
9.766150273E0,-1.848455518E-1,2.630310297E0,5.840281963E0
9.786260064E0,-5.216353536E-1,2.757129908E0,4.599603176E0
9.806369908E0,-9.684949517E-1,2.984447956E0,4.725824833E0
9.826479700E0,-1.115653515E0,3.086741209E0,5.793023586E0
9.846589544E0,-1.123430252E0,3.536591768E0,6.939185619E0
9.866699335E0,-8.829515576E-1,4.289732933E0,6.876972198E0
9.886809127E0,-7.836494446E-1,5.147559643E0,5.804987907E0
9.906918919E0,-7.728816867E-1,5.651248932E0,5.432305813E0
9.927028762E0,-6.472585201E-1,5.816353798E0,6.496513367E0
9.947138554E0,-4.253242314E-1,6.168696880E0,8.310273170E0
9.967248398E0,-2.404786795E-1,6.608377934E0,9.610772133E0
9.987358189E0,-3.954139352E-1,6.783053875E0,9.879366875E0
1.000746798E1,-6.281159073E-2,6.571289062E0,9.177671432E0
1.002757777E1,1.197009563E0,5.924628735E0,9.461818695E0
1.004768762E1,2.880958557E0,4.962714195E0,1.190668583E1
1.006779741E1,3.284149170E0,5.246263504E0,1.459861088E1
1.008790720E1,2.303091764E0,5.784050465E0,1.259462166E1
1.010801704E1,2.630310297E0,5.328815937E0,9.048459053E0
1.012812684E1,3.158525944E0,5.240281582E0,7.752745152E0
1.014823663E1,3.297309637E0,3.762713671E0,1.067617607E1
1.016834647E1,2.416152716E0,1.974676847E0,1.510888004E1
1.018845626E1,9.128618240E-1,1.599601984E0,1.639322853E1
1.020856605E1,-5.300102234E-1,1.976471543E0,1.225304699E1
1.022867590E1,-6.502495408E-1,2.208575249E0,7.718647480E0
1.024878569E1,2.823530734E-1,2.348555326E0,6.418746948E0
1.026889548E1,9.894321561E-1,2.799004316E0,8.192426682E0
1.028900532E1,4.259224236E-1,2.984447956E0,9.068199158E0
1.030911512E1,-8.201399446E-1,2.955734253E0,7.552944660E0
1.032922491E1,-1.554138303E0,2.900699139E0,5.513661385E0
1.034933475E1,-1.570888042E0,2.985046148E0,4.584050179E0
1.036944454E1,-1.287338614E0,3.241676569E0,5.363512039E0
1.038955434E1,-1.332203984E0,3.621536970E0,6.063412666E0
1.040966418E1,-1.707278967E0,4.004388809E0,5.813362598E0
1.042977397E1,-1.570289850E0,4.372285366E0,5.959324837E0
1.044988376E1,-1.221535921E0,4.913063049E0,6.968497753E0
1.046999361E1,-4.767699242E-1,5.433502197E0,8.139185905E0
1.049010340E1,4.313062727E-1,5.800201893E0,8.679366112E0
1.051021319E1,7.088736892E-1,5.950950146E0,9.034700394E0
1.053032298E1,3.547359705E-1,6.061019897E0,9.669396400E0
1.055043283E1,-2.315055877E-1,6.102894306E0,1.003848934E1
1.057054262E1,-6.939185411E-2,5.907878876E0,1.022154045E1
1.059065241E1,8.297112584E-1,5.573482037E0,1.080060291E1
1.061076225E1,1.113858938E0,5.271986485E0,1.107996559E1
1.063087204E1,-9.571290612E-1,5.145166874E0,1.080598736E1
1.065098184E1,-3.793820381E0,4.086342812E0,1.155434227E1
1.067109168E1,-5.090131760E0,3.414557934E0,1.319521999E1
1.069120147E1,-4.849653244E0,4.584648132E0,1.271486092E1
1.071131126E1,-2.910270452E0,4.359124660E0,1.051825047E1
1.073142111E1,1.627119422E0,3.092125177E0,1.086401272E1
1.075153090E1,5.067399979E0,2.929413080E0,1.344826126E1
1.077164069E1,4.004388809E0,3.081955671E0,1.326401424E1
1.079175053E1,1.219741344E0,2.784049034E0,1.014437199E1
1.081186033E1,-7.238288224E-2,2.224128723E0,7.745566845E0
1.083197012E1,-3.828516304E-1,2.060220242E0,6.588038921E0
1.085207991E1,-1.848455518E-1,2.120639086E0,5.853442192E0
1.087218975E1,3.182454109E-1,2.289333105E0,5.052444935E0
1.089229954E1,6.107679605E-1,2.709871531E0,4.727021217E0
1.091240934E1,6.005984545E-1,3.125026464E0,4.855635166E0
1.093251918E1,1.016949639E-1,3.643670797E0,5.099703312E0
1.095262897E1,-5.395814776E-1,4.256233215E0,5.733801365E0
1.097273876E1,-8.829515576E-1,4.713262558E0,6.835696220E0
1.099284861E1,-1.016351461E0,5.123631477E0,7.599604607E0
1.101295840E1,-1.077966571E0,5.370690346E0,8.165507317E0
1.103306819E1,-8.285148144E-1,5.171487808E0,8.538787842E0
1.105317798E1,-5.246263742E-1,5.130809784E0,8.924630165E0
1.107328783E1,-1.136590764E-1,5.312066078E0,9.814162254E0
1.109339762E1,-2.422732860E-1,5.498108387E0,1.028853893E1
1.111350741E1,-6.113662124E-1,5.340780258E0,9.779465675E0
1.113361725E1,5.862415582E-2,4.701896667E0,9.792626381E0
1.115372704E1,1.269990563E0,3.514458179E0,1.115294647E1
1.117383684E1,1.879562140E0,2.222932339E0,1.261256790E1
1.119394668E1,-1.615155339E-1,3.079562664E0,1.278245831E1
1.121405647E1,-2.378465652E0,5.075775146E0,1.076830006E1
1.123416626E1,-1.504487276E0,4.957928658E0,7.569694519E0
1.125427605E1,3.625126362E0,2.709273338E0,6.928418159E0
1.127438590E1,8.554939270E0,1.901097536E0,1.250489140E1
1.129449569E1,8.188837051E0,1.953141451E0,1.884108543E1
1.131460548E1,3.174677372E0,1.934597135E0,1.747598076E1
1.133471533E1,-4.073780477E-1,2.187039852E0,1.120738316E1
1.135482512E1,-4.737788737E-1,2.615953445E0,6.172883987E0
1.137493491E1,1.453041553E0,3.145365477E0,5.507679462E0
1.139504475E1,2.935993433E0,3.455235958E0,8.338987350E0
1.141515454E1,2.522035122E0,3.486342669E0,8.914461136E0
1.143526434E1,9.918249846E-1,3.310470104E0,6.353542328E0
1.145537413E1,9.451649338E-2,3.074178934E0,3.806382656E0
1.147548397E1,-5.138586760E-1,3.469592810E0,3.019144058E0
1.149559376E1,-4.217349887E-1,4.063013077E0,4.420141697E0
1.151570355E1,-2.787638307E-1,4.622933388E0,5.942574978E0
1.153581340E1,-4.683950245E-1,5.141577721E0,6.876972198E0
1.155592319E1,-6.305087805E-1,5.455635548E0,7.329813957E0
1.157603298E1,-9.547362328E-1,5.687141418E0,8.162516594E0
1.159614283E1,-4.719842672E-1,5.770890236E0,9.570094109E0
1.161625262E1,6.041877270E-1,5.636891842E0,1.089571762E1
1.163636241E1,1.084546804E0,5.413163185E0,1.120379353E1
1.165647220E1,1.639083475E-1,5.593223095E0,1.075454140E1
1.167658204E1,-7.280163169E-1,5.464608669E0,1.043450165E1
1.169669184E1,-1.148554921E0,5.099703312E0,1.107817078E1
1.171680163E1,-1.974676847E0,5.346762180E0,1.196949673E1
1.173691147E1,-1.579262972E0,4.255036831E0,1.359721470E1
1.175702126E1,-1.244267747E-1,2.969492912E0,1.505863094E1
1.177713105E1,-1.076770201E-2,3.544966698E0,1.422473240E1
1.179724085E1,5.144568533E-2,3.533600807E0,1.221655560E1
1.181735069E1,5.844469070E-1,2.815155745E0,1.181934738E1
1.183746048E1,4.743770957E-1,2.565105915E0,1.230748367E1
1.185757027E1,-1.854437590E-2,2.400001049E0,1.100219822E1
1.187768012E1,1.758724600E-1,1.995614052E0,9.296115875E0
1.189778991E1,5.856433511E-1,2.007578135E0,8.889336586E0
1.191789970E1,3.409772217E-1,2.156531334E0,8.426922798E0
1.193800949E1,-1.405783296E-1,2.148156643E0,7.224529743E0
1.195811934E1,-6.257231236E-1,2.185245275E0,5.653641701E0
1.197822913E1,-1.078564763E0,2.341377020E0,4.237689018E0
1.199833892E1,-1.280160069E0,2.373081923E0,3.521038532E0
1.201844876E1,-8.847461939E-1,2.645863533E0,4.158127785E0
1.203855855E1,-5.563312769E-1,3.285943747E0,4.901697159E0
1.205866835E1,-9.026923180E-1,3.763910055E0,4.823332310E0
1.207877814E1,-1.302293777E0,4.022335052E0,5.188836098E0
1.209888798E1,-1.342971683E0,4.536193371E0,6.529414654E0
1.211899777E1,-1.080359459E0,5.139782906E0,7.561319351E0
1.213910756E1,-7.357929349E-1,5.604588985E0,7.628916740E0
1.215921741E1,-4.773681164E-1,5.825326920E0,7.327421188E0
1.217932720E1,-1.381855011E-1,5.960521221E0,7.791030407E0
1.219943699E1,1.489532143E-1,6.243472576E0,8.740383148E0
1.221954678E1,1.890329868E-1,6.592226505E0,9.787242889E0
1.223965663E1,4.713860750E-1,6.564708710E0,1.047517967E1
1.225976642E1,1.370489120E0,5.771488190E0,1.138804150E1
1.227987621E1,2.850450039E0,4.448257446E0,1.296491146E1
1.229998600E1,2.715853691E0,4.049253941E0,1.370549011E1
1.232009585E1,3.960121572E-1,5.632704735E0,1.212024498E1
1.234020564E1,7.543373108E-1,5.317450047E0,9.698708534E0
1.236031543E1,2.952743053E0,4.500301361E0,8.698508263E0
1.238042527E1,4.019343853E0,4.249652863E0,9.546764374E0
1.240053506E1,3.390629768E0,3.354737282E0,1.144487095E1
1.242064486E1,1.785643935E0,2.136790514E0,1.277886963E1
1.244075470E1,5.593222976E-1,1.838286042E0,1.305224895E1
1.246086449E1,-4.187439755E-2,2.152942181E0,1.124806118E1
1.248097428E1,3.290131092E-1,2.660818815E0,8.575278282E0
1.250108408E1,1.505683661E0,2.964707375E0,7.192824841E0
1.252119392E1,2.241476536E0,3.466601849E0,7.290930748E0
1.254130371E1,1.578066587E0,3.644268990E0,7.159325123E0
1.256141350E1,4.163511395E-1,3.461217880E0,6.110671043E0
1.258152329E1,-7.292127013E-1,3.194418192E0,4.956732273E0
1.260163314E1,-1.483550072E0,3.157329559E0,4.737190723E0
1.262174293E1,-1.384846091E0,3.334398270E0,5.657230854E0
1.264185272E1,-8.787640929E-1,3.569493294E0,6.419943333E0
1.266196251E1,-4.402793646E-1,3.899702787E0,6.991229534E0
1.268207236E1,-3.678964674E-1,4.342374802E0,7.360920429E0
1.270218215E1,-5.443671346E-1,4.630111694E0,7.985447407E0
1.272229194E1,-3.290131092E-1,4.761716843E0,8.907281876E0
1.274240178E1,-3.667000830E-1,5.289334297E0,9.581459999E0
1.276251158E1,-5.521438122E-1,5.810371399E0,9.487542152E0
1.278262137E1,-7.076773047E-1,6.164509296E0,8.672785759E0
1.280273116E1,-2.506481707E-1,6.128018856E0,8.712865829E0
1.282284100E1,7.387840152E-1,5.553143024E0,1.026999474E1
1.284295079E1,1.460818172E0,4.724030018E0,1.214357471E1
1.286306059E1,7.884350419E-1,4.250251293E0,1.226501083E1
1.288317038E1,-1.813161373E0,5.534598827E0,1.034596729E1
1.290328022E1,-3.262015581E0,6.229115486E0,8.226524353E0
1.292339001E1,-3.404388428E0,5.883950710E0,8.782855988E0
1.294349980E1,-1.512263894E0,4.188635826E0,1.227099228E1
1.296360965E1,2.062014818E0,2.012363911E0,1.645663834E1
1.298371944E1,3.413361549E0,1.114457130E0,1.909412575E1
1.300382923E1,9.702895880E-1,1.566700578E0,1.587458324E1
1.302393902E1,-1.929213285E0,2.533401012E0,1.009531879E1
1.304404887E1,-2.203789711E0,2.515454769E0,6.473183632E0
1.306415866E1,-5.395814776E-1,2.234896421E0,5.973083496E0
1.308426845E1,8.129615188E-1,2.530410051E0,8.620741844E0
1.310437829E1,1.137787223E0,2.507079840E0,1.046022415E1
1.312448809E1,3.972085714E-1,2.248655081E0,9.077771187E0
1.314459788E1,-1.944168359E-1,2.176870346E0,6.526423931E0
1.316470767E1,-2.344966233E-1,2.472383976E0,4.697110653E0
1.318481751E1,1.615155339E-1,3.069393158E0,4.075575352E0
1.320492730E1,3.337987661E-1,3.614956856E0,4.429114819E0
1.322503710E1,9.092725813E-2,3.935595036E0,5.164907455E0
1.324514689E1,-2.967100143E-1,4.319643021E0,5.751149178E0
1.326525673E1,-7.184450030E-1,4.624129772E0,6.269793510E0
1.328536652E1,-8.644071817E-1,4.670789719E0,6.848258495E0
1.330547631E1,-7.118647099E-1,4.788636208E0,7.652246952E0
1.332558611E1,-2.440679073E-1,4.969892502E0,8.438887596E0
1.334569595E1,-8.673982322E-2,5.414957523E0,9.134002686E0
1.336580574E1,-4.211367965E-1,6.150750637E0,8.770891190E0
1.338591553E1,-7.130611539E-1,6.432505608E0,8.230711937E0
1.340602533E1,4.881358147E-1,5.552545071E0,9.006584167E0
1.342613517E1,2.154736757E0,4.281956196E0,1.137308598E1
1.344624496E1,2.070389748E0,4.617549419E0,1.299541950E1
1.346635475E1,7.633104324E-1,5.390431404E0,1.201795197E1
1.348646460E1,9.002995491E-1,4.829912663E0,1.049731255E1
1.350657439E1,1.158126116E0,4.086342812E0,1.000977516E1
1.352668418E1,1.896910191E0,3.020340443E0,1.226381397E1
1.354679402E1,3.291925669E0,1.989033818E0,1.569571972E1
1.356690381E1,3.672384501E0,1.508076429E0,1.560120392E1
1.358701361E1,2.954537868E0,1.805982947E0,1.275733376E1
1.360712340E1,2.187039852E0,2.581257343E0,1.002114105E1
1.362723319E1,2.054238319E0,3.069991350E0,8.507680893E0
1.364734303E1,2.224726915E0,3.419941664E0,7.576274872E0
1.366745283E1,2.023131609E0,3.625724554E0,6.117250919E0
1.368756262E1,1.557129383E0,3.604189157E0,4.450650215E0
1.370767246E1,1.100698471E0,3.493520975E0,3.719642878E0
1.372778225E1,5.437689424E-1,3.527020693E0,4.392624378E0
1.374789204E1,-2.392822690E-2,3.661018610E0,5.464010715E0
1.376800184E1,-5.587241054E-1,3.866203070E0,6.390631199E0
1.378811168E1,-7.004988194E-1,3.955934048E0,7.204190731E0
1.380822147E1,-5.330012441E-1,4.021736622E0,8.006384850E0
1.382833126E1,-3.098705411E-1,4.130012035E0,8.674580574E0
1.384844105E1,-3.080759048E-1,4.429712772E0,9.093922615E0
1.386855090E1,-4.707878530E-1,4.749752998E0,9.079565048E0
1.388866069E1,-7.686942816E-1,5.144568920E0,8.738588333E0
1.390877048E1,-1.170090318E0,5.749952793E0,8.797212601E0
1.392888033E1,-1.409372568E0,6.082555294E0,9.425926208E0
1.394899012E1,-1.673181176E0,6.038288116E0,1.038664532E1
1.396909991E1,-2.189432621E0,5.757729530E0,1.178524971E1
1.398920970E1,-2.495115757E0,5.203192711E0,1.289252853E1
1.400931954E1,-2.768495798E0,5.666203976E0,1.264606762E1
1.402942934E1,-2.897708178E0,5.919245243E0,1.138564873E1
1.404953913E1,-1.825723648E0,3.887140274E0,1.193779182E1
1.406964892E1,-2.415554523E0,3.776472330E0,1.352602863E1
1.408975876E1,-4.366901398E0,4.839483738E0,1.261735344E1
1.410986855E1,-5.010570526E0,3.460619688E0,1.109492016E1
1.412997835E1,-2.593221426E0,1.797009826E0,1.202213955E1
1.415008819E1,6.233302951E-1,1.787438512E0,1.435573959E1
1.417019798E1,1.482353687E0,2.488535643E0,1.399143219E1
1.419030777E1,1.710868180E-1,3.116053343E0,1.029691410E1
1.421041756E1,-8.973085321E-3,3.067598581E0,7.179066181E0
1.423052741E1,5.509474277E-1,3.048455954E0,5.436492920E0
1.425063720E1,9.511470199E-1,3.051447153E0,4.366901398E0
1.427074699E1,9.696913958E-1,2.834298372E0,3.458226919E0
1.429085678E1,7.615157962E-1,2.846262455E0,3.386442184E0
1.431096663E1,7.992027402E-1,2.904288530E0,4.128815651E0
1.433107642E1,8.141579032E-1,3.017947674E0,4.372883320E0
1.435118621E1,1.111466169E0,2.748754978E0,3.979862213E0
1.437129600E1,9.942178130E-1,3.530609846E0,5.010570526E0
1.439140585E1,9.786644578E-1,4.993222713E0,4.903491974E0
1.441151564E1,6.251249313E-1,5.506483078E0,4.813162804E0
1.443162543E1,2.219343036E-1,5.966503143E0,6.080162525E0
1.445173522E1,-1.387837082E-1,6.235097408E0,7.746763229E0
1.447184506E1,-7.369893789E-1,6.466603279E0,9.241679192E0
1.449195486E1,-5.676971674E-1,6.573083878E0,1.045005512E1
1.451206465E1,-7.357929349E-1,6.908677101E0,1.013898754E1
1.453217444E1,-6.664010882E-1,7.145566463E0,9.055637360E0
1.455228428E1,-3.601198196E-1,7.001399040E0,9.188439369E0
1.457239408E1,5.898307562E-1,5.931807518E0,1.093579769E1
1.459250387E1,1.080359459E0,5.784050465E0,1.282014561E1
1.461261366E1,1.219741344E0,5.606383324E0,1.280997562E1
1.463272350E1,2.155933142E0,4.439284325E0,1.219202995E1
1.465283329E1,1.534397483E0,4.907081127E0,1.142154026E1
1.467294309E1,-2.213360928E-2,5.382654667E0,1.070130062E1
1.469305293E1,-9.690931439E-2,3.812364578E0,1.076411247E1
1.471316272E1,1.939382792E0,2.308475733E0,1.250369453E1
1.473327251E1,2.416750908E0,2.854039192E0,1.336211967E1
1.475338230E1,7.561319470E-1,4.018147469E0,1.106201935E1
1.477349215E1,-3.044866920E-1,3.859622955E0,8.154739380E0
1.479360194E1,-2.063809484E-1,3.397209883E0,6.945167542E0
1.481371173E1,-1.136590727E-2,3.323032379E0,6.547959328E0
1.483382152E1,2.691925503E-2,3.044866800E0,5.649454117E0
1.485393137E1,-1.525424421E-1,2.798406124E0,4.316651821E0
1.487404116E1,-3.631108403E-1,2.743969440E0,3.407977581E0
1.489415095E1,-8.458628058E-1,3.011367321E0,3.733999729E0
1.491426074E1,-1.477568030E0,3.159722328E0,4.754538536E0
1.493437059E1,-2.057827473E0,3.388834953E0,5.515456200E0
1.495448038E1,-1.738983870E0,3.856631994E0,5.980860233E0
1.497459017E1,-1.233500123E0,4.756333351E0,7.168896675E0
1.499469996E1,-6.221339107E-1,5.387440205E0,8.726624489E0
1.501480980E1,-4.247260094E-1,5.714658737E0,9.384650230E0
1.503491960E1,-4.115654826E-1,5.982655048E0,9.117850304E0
1.505502939E1,-4.791627228E-1,6.253642082E0,8.661419868E0
1.507513918E1,-5.138586760E-1,6.422934055E0,8.860024452E0
1.509524902E1,-2.679961324E-1,6.336792469E0,9.818349838E0
1.511535881E1,1.944168359E-1,5.749354839E0,1.117627621E1
1.513546861E1,2.177468538E-1,5.200201988E0,1.296191978E1
1.515557840E1,-9.242277741E-1,5.698507309E0,1.393759346E1
1.517568824E1,-2.408974171E0,6.133402824E0,1.255932808E1
1.519579803E1,-2.201995134E0,4.773082733E0,1.222433281E1
1.521590782E1,-1.543370605E0,3.986442566E0,1.360259819E1
1.523601762E1,-2.294118643E0,4.848456860E0,1.278186035E1
1.525612746E1,-2.272583246E0,3.806980848E0,1.050568771E1
1.527623725E1,-1.085145116E0,2.464009047E0,1.022931671E1
1.529634704E1,-6.233302951E-1,2.627917528E0,1.215374470E1
1.531645684E1,-1.124626637E0,2.982055187E0,1.284527016E1
1.533656668E1,-1.475773335E0,2.720041037E0,1.125224876E1
1.535667647E1,-8.793623447E-1,2.517249346E0,9.575477600E0
1.537678626E1,1.381855011E-1,2.533999205E0,7.867002487E0
1.539689605E1,1.129412293E0,2.351546526E0,5.499304771E0
1.541700590E1,1.667199135E0,2.164308071E0,2.997010469E0
1.543711569E1,1.884347796E0,2.411965132E0,2.346162558E0
1.545722548E1,1.904686809E0,2.941975355E0,4.604389191E0
1.547733527E1,1.145563841E0,3.741178274E0,6.762714863E0
1.549744512E1,4.307080805E-2,4.194019794E0,6.422336102E0
1.551755491E1,-4.450650215E-1,4.060619831E0,4.782055855E0
1.553766470E1,-4.295116663E-1,4.610371113E0,4.056432724E0
1.555777449E1,7.896314561E-2,5.367101192E0,4.891527653E0
1.557788428E1,9.260223508E-1,5.534598827E0,6.409175396E0
1.559799413E1,1.336391449E0,5.599205017E0,7.589435101E0
1.561810392E1,1.373480201E0,5.944967747E0,8.770293236E0
1.563821371E1,8.015955687E-1,6.471388817E0,9.379864693E0
1.565832355E1,-2.871387079E-2,6.680162430E0,8.704490662E0
1.567843335E1,-7.058826834E-2,6.419344902E0,8.096115112E0
1.569854314E1,8.171489239E-1,5.895316601E0,9.312865257E0
1.571865293E1,1.589432478E0,6.342176437E0,1.140239811E1
1.573876272E1,2.762513638E0,6.056832314E0,1.273639679E1
1.575887256E1,4.514657974E0,3.374478102E0,1.445205021E1
1.577898236E1,3.322434187E0,2.439482689E0,1.666481400E1
1.579909215E1,8.961120844E-1,2.755933523E0,1.665883064E1
1.581920194E1,-4.815555513E-1,2.568695068E0,1.386521053E1
1.583931178E1,2.279163599E-1,2.139781713E0,1.016112137E1
1.585942158E1,2.048256159E0,2.096710920E0,8.666205406E0
1.587953137E1,2.636292458E0,2.652443886E0,1.042552853E1
1.589964116E1,1.618146300E0,2.742174864E0,1.190608692E1
1.591975100E1,2.937189937E-1,2.499303341E0,1.120499039E1
1.593986079E1,-3.870390654E-1,2.599801779E0,9.486943245E0
1.595997058E1,-5.952146053E-1,3.001197815E0,7.681559086E0
1.598008038E1,-5.138586760E-1,3.209971666E0,5.613562107E0
1.600019017E1,-4.522434771E-1,3.180061340E0,3.652045488E0
1.602030001E1,-5.629115105E-1,3.223730326E0,2.924029350E0
1.604040980E1,-5.330012441E-1,3.262613773E0,4.042674065E0
1.606051960E1,-5.150550604E-1,3.293720484E0,5.767300606E0
1.608062939E1,-4.127618968E-1,3.433700562E0,6.823731899E0
1.610073923E1,-1.710868180E-1,3.815953970E0,7.156932354E0
1.612084902E1,-2.512463629E-1,4.413561344E0,7.128218651E0
1.614095881E1,-2.027917206E-1,4.720440865E0,7.340581894E0
1.616106861E1,3.320041299E-1,4.741976261E0,8.245666504E0
1.618117845E1,9.296116233E-1,4.788636208E0,9.190233231E0
1.620128824E1,8.243274093E-1,5.013561726E0,9.673583984E0
1.622139803E1,-1.561316848E-1,5.258227825E0,9.220144272E0
1.624150782E1,-9.661021233E-1,5.134997368E0,8.863613129E0
1.626161762E1,-9.314061999E-1,4.709074974E0,9.841081619E0
1.628172746E1,-8.183453679E-1,4.925027370E0,1.117448139E1
1.630183725E1,-1.195214868E0,5.714658737E0,1.134676456E1
1.632194704E1,-4.821537733E-1,4.449453831E0,1.248814106E1
1.634205684E1,7.902296782E-1,2.670988321E0,1.493360615E1
1.636216668E1,2.446661144E-1,3.104687452E0,1.501556015E1
1.638227647E1,-1.477568030E0,3.632304668E0,1.215374470E1
1.640238626E1,-1.990828395E0,2.997010469E0,1.008275604E1
1.642249605E1,-7.058826685E-1,1.866401672E0,1.169791126E1
1.644260585E1,4.103690982E-1,1.414756417E0,1.435274887E1
1.646271569E1,3.529413417E-2,1.490130305E0,1.436112309E1
1.648282548E1,-7.244270444E-1,1.668395638E0,1.157468128E1
1.650293527E1,-6.442674994E-1,1.768894196E0,8.934800148E0
1.652304506E1,-2.225325108E-1,2.063211441E0,6.940382004E0
1.654315491E1,-4.725824669E-2,2.304288149E0,5.184648514E0
1.656326470E1,-3.170489892E-2,2.315654039E0,3.948755503E0
1.658337449E1,-4.666004330E-2,2.440080881E0,3.920639992E0
1.660348428E1,5.144568533E-2,2.776870728E0,5.243272781E0
1.662359408E1,2.069791555E-1,3.062813044E0,6.314060688E0
1.664370392E1,1.866401732E-1,3.318246841E0,6.762714863E0
1.666381371E1,4.773681164E-1,3.328416348E0,6.865606308E0
1.668392350E1,7.639086246E-1,3.446262836E0,6.924828529E0
1.670403329E1,6.807580590E-1,3.934996843E0,7.417750359E0
1.672414308E1,2.763710022E-1,4.163511276E0,8.175078392E0
1.674425293E1,1.339980662E-1,4.018147469E0,8.850452423E0
1.676436272E1,5.425725579E-1,4.147958279E0,9.534201622E0
1.678447251E1,1.240678549E0,4.502694130E0,9.879964828E0
1.680458230E1,1.579262972E0,5.021936417E0,9.396016121E0
1.682469215E1,1.576870084E0,5.368297577E0,8.482556343E0
1.684480194E1,1.860419631E0,5.245665550E0,8.601000786E0
1.686491173E1,2.129612207E0,4.859822750E0,1.023769188E1
1.688502152E1,1.992024899E0,4.643272400E0,1.181456184E1
1.690513131E1,9.278169870E-1,5.775675774E0,1.174217892E1
1.692524116E1,1.518844128E0,5.420341492E0,1.162612724E1
1.694535095E1,3.342773199E0,3.958925009E0,1.340937805E1
1.696546074E1,4.845465660E0,3.209373474E0,1.477508163E1
1.698557053E1,3.936193228E0,2.283350945E0,1.452263927E1
1.700568032E1,1.476371527E0,1.554736495E0,1.395434380E1
1.702579017E1,-2.997010350E-1,1.252642632E0,1.339382458E1
1.704589996E1,-1.890329868E-1,1.201196909E0,1.158963680E1
1.706600975E1,1.460219979E0,1.349551916E0,8.935398102E0
1.708611954E1,2.901895761E0,1.808375716E0,7.378866673E0
1.710622934E1,2.777468920E0,2.256431818E0,7.546962738E0
1.712633918E1,1.366301775E0,2.397010088E0,8.126624107E0
1.714644897E1,1.944168359E-1,2.267797709E0,7.968697548E0
1.716655876E1,-7.740781307E-1,2.321636200E0,7.471588612E0
1.718666855E1,-7.052844763E-1,2.513062000E0,7.092924595E0
1.720677835E1,1.627119333E-1,2.801995277E0,6.698108673E0
1.722688814E1,6.113662124E-1,3.094517946E0,6.400202274E0
1.724699798E1,5.096712112E-1,3.260220766E0,6.527021885E0
1.726710777E1,8.614161611E-2,3.503690481E0,7.542775154E0
1.728721756E1,-2.153540403E-2,3.600599766E0,8.502895355E0
1.730732736E1,2.985046208E-1,3.577867985E0,9.197412491E0
1.732743720E1,8.039883971E-1,3.513261795E0,9.492327690E0
1.734754699E1,3.397808075E-1,3.149552822E0,8.434700012E0
1.736765678E1,-6.000002623E-1,3.665206194E0,8.002197266E0
1.738776658E1,-6.885347366E-1,3.578466177E0,8.306683540E0
1.740787637E1,-2.697907388E-1,3.392424345E0,9.068798065E0
1.742798616E1,-1.124626622E-1,3.513859987E0,9.672985077E0
1.744809600E1,-5.084748194E-2,3.484548092E0,1.031785107E1
1.746820579E1,-5.090730190E-1,3.534198999E0,1.044706345E1
1.748831559E1,-1.210170031E0,5.140979290E0,9.461220741E0
1.750842538E1,-1.098305583E0,5.626722336E0,9.486345291E0
1.752853517E1,8.416753411E-1,3.318246841E0,1.280160141E1
1.754864501E1,2.239681959E0,1.864008784E0,1.658226013E1
1.756875480E1,1.648654819E0,1.248455167E0,1.698904037E1
1.758886460E1,4.965107143E-2,3.864408433E-1,1.392203999E1
1.760897439E1,-8.715856671E-1,7.004988194E-1,1.025085258E1
1.762908418E1,-6.257231236E-1,1.487737536E0,7.802396297E0
1.764919402E1,-3.756731451E-1,2.056631088E0,7.065407276E0
1.766930381E1,-1.734796464E-1,2.255235434E0,8.341380119E0
1.768941361E1,3.026920557E-1,2.159522533E0,1.029033375E1
1.770952340E1,4.486542568E-2,1.914258122E0,1.089272690E1
1.772963319E1,-3.559323549E-1,1.800599098E0,1.019342422E1
1.774974298E1,-2.327020019E-1,2.085943222E0,8.835497856E0
1.776985282E1,-2.811566554E-2,2.303689957E0,7.912466049E0
1.778996262E1,8.434699476E-2,2.407179594E0,7.774280548E0
1.781007241E1,3.750749528E-1,2.458027124E0,8.105687141E0
1.783018220E1,7.118647099E-1,2.578266382E0,8.624929428E0
1.785029199E1,6.221339107E-1,2.700300455E0,8.978468895E0
1.787040178E1,4.336991012E-1,2.762513638E0,9.427721024E0
1.789051163E1,3.493520916E-1,2.782852650E0,9.973882675E0
1.791062142E1,-6.640082598E-2,2.895913601E0,9.147162437E0
1.793073121E1,2.608176768E-1,2.831905603E0,9.327820778E0
1.795084100E1,6.293123364E-1,3.038884640E0,9.497711182E0
1.797095079E1,6.023930907E-1,3.328416348E0,8.943773270E0
1.799106058E1,1.860419661E-1,3.415754318E0,8.558527946E0
1.801117043E1,1.597209126E-1,3.364308596E0,8.812167168E0
1.803128022E1,4.013960063E-1,3.330210924E0,9.470193863E0
1.805139001E1,5.431707501E-1,3.270988464E0,9.896116257E0
1.807149980E1,3.242274821E-1,3.337389469E0,9.765707016E0
1.809160960E1,1.052841991E-1,3.346960783E0,9.203991890E0
1.811171939E1,4.247260094E-2,3.332005501E0,8.676973343E0
1.813182918E1,9.870393574E-2,3.393022537E0,8.400003433E0
1.815193902E1,4.845465720E-2,3.524627686E0,8.537590981E0
1.817204881E1,2.273181453E-2,3.620938778E0,8.793622971E0
1.819215861E1,3.888336942E-2,3.662813187E0,8.625527382E0
1.821226840E1,2.135594189E-1,3.701098442E0,8.505288124E0
1.823237819E1,5.060819983E-1,3.627519131E0,8.868997574E0
1.825248803E1,6.831508875E-1,3.535993576E0,9.482157707E0
1.827259783E1,4.199403822E-1,3.577867985E0,9.655039787E0
1.829270762E1,1.076770201E-1,3.526422262E0,9.154341698E0
1.831281741E1,4.366901144E-2,3.534198999E0,8.770891190E0
1.833292720E1,8.853443712E-2,3.621536970E0,8.952746391E0
1.835303699E1,1.674975902E-1,3.640679598E0,9.288937569E0
1.837314678E1,1.507478207E-1,3.608376503E0,9.318249702E0
1.839325658E1,9.032905847E-2,3.713062525E0,9.219545364E0
1.841336642E1,6.580262631E-2,3.749552965E0,9.456435204E0
1.843347621E1,5.084748194E-2,3.764508247E0,9.610772133E0
1.845358600E1,-6.281159073E-2,3.839283943E0,9.486345291E0
1.847369579E1,-1.429711580E-1,3.768695593E0,9.347561836E0
1.849380558E1,-1.597209126E-1,3.708276987E0,9.223732948E0
1.851391538E1,-6.340979785E-2,3.717848301E0,9.118449211E0
1.853402517E1,7.178468257E-2,3.693919897E0,9.131608963E0
1.855413501E1,1.298106313E-1,3.766302824E0,9.329615593E0
1.857424480E1,9.930214286E-2,3.796213150E0,9.391230583E0
1.859435460E1,5.503492057E-2,3.684946775E0,9.448060036E0
1.861446439E1,9.272187948E-2,3.655634880E0,9.427721024E0
1.863457418E1,1.465603858E-1,3.614956856E0,9.166903496E0
1.865468397E1,2.907279432E-1,3.556332588E0,9.274580956E0
1.867479376E1,3.050848842E-1,3.647259951E0,9.401400566E0
1.869490361E1,1.268195957E-1,3.680759430E0,9.342776299E0
1.871501340E1,5.383851007E-2,3.672384501E0,9.269196510E0
1.873512319E1,7.238288224E-2,3.658027649E0,9.120243073E0
1.875523298E1,1.028913707E-1,3.646661758E0,9.079565048E0
1.877534277E1,1.615155339E-1,3.687937975E0,9.221938133E0
1.879545256E1,1.417747438E-1,3.740580082E0,9.317651749E0
1.881556236E1,9.750752151E-2,3.705285788E0,9.303893089E0
1.883567215E1,2.632104978E-2,3.662214994E0,9.405587196E0
1.885578199E1,9.870393574E-2,3.575475216E0,9.436096191E0
1.887589178E1,1.208375469E-1,3.513261795E0,9.345767021E0
1.889600158E1,1.884347796E-1,3.491726398E0,9.370293617E0
1.891611137E1,2.231307179E-1,3.541975737E0,9.371489525E0
1.893622116E1,1.022931710E-1,3.593421459E0,9.337990761E0
1.895633095E1,7.357929647E-2,3.614956856E0,9.117252350E0
1.897644074E1,9.750752151E-2,3.610769272E0,9.021539688E0
1.899655053E1,8.853443712E-2,3.521038532E0,9.114859581E0
1.901666038E1,1.124626622E-1,3.553939819E0,9.257830620E0
1.903677017E1,1.052841991E-1,3.591028690E0,9.318847656E0
1.905687996E1,3.170489892E-2,3.534198999E0,9.323035240E0
1.907698975E1,4.785645287E-3,3.484548092E0,9.376873970E0
1.909709954E1,4.187439755E-2,3.485744476E0,9.379864693E0
1.911720934E1,2.333002165E-2,3.443271875E0,9.309276581E0
1.913731913E1,1.674975827E-2,3.425325632E0,9.349356651E0
1.915742892E1,9.810572863E-2,3.462414265E0,9.282357216E0
1.917753871E1,8.135596663E-2,3.492324591E0,9.175278664E0
1.919764850E1,5.204389244E-2,3.552743435E0,9.242876053E0
1.921775835E1,1.022931710E-1,3.528217077E0,9.308079720E0
1.923786814E1,1.328016520E-1,3.543770313E0,9.339186668E0
1.925797793E1,6.281159073E-2,3.562314749E0,9.364909172E0
1.927808772E1,5.623133108E-2,3.558127165E0,9.429515839E0
1.929819751E1,1.076770201E-2,3.597010612E0,9.383454323E0
1.931830730E1,-2.811566554E-2,3.600001574E0,9.400203705E0
1.933841710E1,-4.247260094E-2,3.593421459E0,9.370293617E0
1.935852689E1,-1.022931710E-1,3.578466177E0,9.450452805E0
1.937863668E1,-1.142572835E-1,3.541975737E0,9.617950439E0
1.939874647E1,-1.166501045E-1,3.552743435E0,9.525827408E0
1.941885631E1,-8.195417374E-2,3.577269793E0,9.417551994E0
1.943896611E1,-8.374879137E-3,3.653840065E0,9.178867340E0
1.945907590E1,5.623133108E-2,3.692125320E0,9.127422333E0
1.947918569E1,4.965107143E-2,3.716053486E0,9.152546883E0
1.949929548E1,6.340979785E-2,3.739383698E0,9.000003815E0
1.951940527E1,1.387837082E-1,3.724428415E0,8.800801277E0
1.953951506E1,2.709871531E-1,3.660420418E0,8.776873589E0
1.955962486E1,2.524427772E-1,3.671188116E0,8.948558807E0
1.957973465E1,1.046859920E-1,3.745365620E0,9.020941734E0
1.959984444E1,3.649054468E-2,3.769293785E0,8.959924698E0
1.961995423E1,1.333998591E-1,3.753740549E0,9.092127800E0
1.964006402E1,1.322034448E-1,3.725026608E0,9.107681274E0
1.966017387E1,8.255238086E-2,3.679563046E0,9.165707588E0
1.968028366E1,4.785645287E-3,3.693321705E0,9.229117393E0
1.970039345E1,-1.016949583E-2,3.647259951E0,9.242277145E0
1.972050324E1,-1.256231871E-2,3.595814228E0,9.214759827E0
1.974061303E1,3.589234129E-2,3.608974695E0,9.116056442E0
1.976072283E1,9.451649338E-2,3.647259951E0,9.166305542E0
1.978083262E1,1.710868180E-1,3.627519131E0,9.332606316E0
1.980094241E1,1.345962733E-1,3.675973892E0,9.330811501E0
1.982105220E1,4.486542568E-2,3.700500250E0,9.150752068E0
1.984116199E1,2.033899166E-2,3.695714474E0,9.084949493E0
1.986127178E1,6.340979785E-2,3.682554007E0,9.188439369E0
1.988138158E1,5.682953820E-2,3.681955814E0,9.303294182E0
1.990149137E1,5.264209956E-2,3.674777269E0,9.388239861E0
1.992160116E1,6.699903309E-2,3.689134359E0,9.379864693E0
1.994171100E1,1.854437590E-2,3.697509289E0,9.347561836E0
1.996182074E1,1.016949583E-2,3.664009571E0,9.366703987E0
1.998193058E1,7.776673883E-2,3.684946775E0,9.321240425E0
2.000204038E1,9.511470050E-2,3.675375462E0,9.247661591E0
2.002215017E1,1.375873089E-1,3.641875982E0,9.265008926E0
2.004225996E1,1.692921966E-1,3.664009571E0,9.355937004E0
2.006236975E1,1.286142170E-1,3.683152199E0,9.290133476E0
2.008247954E1,7.716853172E-2,3.681955814E0,9.113663673E0
2.010258934E1,1.519442350E-1,3.647858143E0,9.125627518E0
2.012269913E1,2.279163599E-1,3.653840065E0,9.184849739E0
2.014280892E1,1.896311939E-1,3.734597921E0,9.225527763E0
2.016291871E1,1.226321608E-1,3.695116282E0,9.290133476E0
2.018302850E1,7.058826834E-2,3.622733593E0,9.316454887E0
2.020313829E1,5.742774159E-2,3.625724554E0,9.321838379E0
2.022324808E1,5.682953820E-2,3.625126362E0,9.238688469E0
2.024335788E1,5.682953820E-2,3.610769272E0,9.154341698E0
2.026346767E1,7.417750359E-2,3.625724554E0,9.192625999E0
2.028357746E1,1.639083475E-1,3.654438496E0,9.360722542E0
2.030368725E1,3.948157281E-2,3.655634880E0,9.274580956E0
2.032379704E1,3.529413417E-2,3.598805189E0,9.166903496E0
2.034390684E1,1.304088384E-1,3.615555048E0,9.193822861E0
2.036401663E1,1.154536903E-1,3.653840065E0,9.213563919E0
2.038412642E1,7.716853172E-2,3.623331785E0,9.187840462E0
2.040423621E1,1.310070455E-1,3.641875982E0,9.306285858E0
2.042434605E1,1.369891018E-1,3.651447296E0,9.287142754E0
2.044445585E1,6.580262631E-2,3.641875982E0,9.084949493E0
2.046456564E1,8.913264424E-2,3.672982693E0,9.139386177E0
2.048467543E1,9.810572863E-2,3.680161238E0,9.235696793E0
2.050478522E1,7.357929647E-2,3.659224033E0,9.260223389E0
2.052489501E1,9.032905847E-2,3.681357622E0,9.356534958E0
2.054500480E1,9.212367237E-2,3.675973892E0,9.368498802E0
2.056511460E1,9.212367237E-2,3.662214994E0,9.345169067E0
2.058522439E1,1.088734269E-1,3.670589924E0,9.236893654E0
2.060533418E1,9.212367237E-2,3.644867182E0,9.255437851E0
2.062544397E1,8.913264424E-2,3.663411379E0,9.353543282E0
2.064555376E1,1.022931710E-1,3.697509289E0,9.330213547E0
2.066566355E1,1.070788130E-1,3.601198196E0,9.255437851E0
2.068577335E1,2.512463741E-2,3.592225075E0,9.277571678E0
2.070588314E1,2.691925503E-2,3.661018610E0,9.201599121E0
2.072599293E1,1.854437590E-2,3.617947817E0,9.207581520E0
2.074610272E1,-8.973085321E-3,3.554538012E0,9.244669914E0
2.076621251E1,-1.196411322E-3,3.527020693E0,9.162117958E0
2.078632230E1,4.366901144E-2,3.503092289E0,9.134600639E0
2.080643210E1,1.076770201E-2,3.520440340E0,9.164510727E0
2.082654189E1,7.178467698E-3,3.520440340E0,9.239884377E0
2.084665168E1,5.443671346E-2,3.596412420E0,9.302696228E0
2.086676147E1,9.272187948E-2,3.605385542E0,9.291330338E0
2.088687126E1,1.256231815E-1,3.557528973E0,9.325428009E0
2.090698105E1,8.315058798E-2,3.559921980E0,9.247062683E0
2.092709085E1,-1.794616925E-3,3.624528170E0,9.216554642E0
2.094720064E1,-2.512463741E-2,3.639483213E0,9.243474007E0
2.096731043E1,2.333002165E-2,3.647858143E0,9.271589279E0
2.098742022E1,5.204389244E-2,3.657429457E0,9.352945328E0
2.100753001E1,2.632104978E-2,3.613162279E0,9.290732384E0
2.102763980E1,1.974078640E-2,3.646063566E0,9.326624870E0
2.104774960E1,5.204389244E-2,3.647259951E0,9.419346809E0
2.106785939E1,5.503492057E-2,3.632902861E0,9.412167549E0
2.108796918E1,3.230310604E-2,3.669393539E0,9.323035240E0
2.110807897E1,-9.032905847E-2,3.618546009E0,9.272188187E0
2.112818876E1,-1.441675574E-1,3.426522017E0,9.316454887E0
2.114829855E1,-5.682953820E-2,3.591028690E0,9.446265221E0
2.116840835E1,1.184447184E-1,3.602992773E0,9.311669350E0
2.118851814E1,9.032905847E-2,3.611367464E0,9.140582085E0
2.120862793E1,1.298106313E-1,3.672982693E0,9.156734467E0
2.122873772E1,2.051845491E-1,3.652045488E0,9.102297783E0
2.124884751E1,2.249253243E-1,3.684946775E0,8.943174362E0
2.126895725E1,2.327020019E-1,3.716651678E0,8.964710236E0
2.128906704E1,1.603191197E-1,3.684946775E0,9.113064766E0
2.130917684E1,3.948157281E-2,3.696312666E0,9.042476654E0
2.132928663E1,-5.443671346E-2,3.683152199E0,9.074181557E0
2.134939642E1,-2.512463741E-2,3.625126362E0,9.147761345E0
2.136950621E1,-2.691925503E-2,3.617349625E0,9.272786140E0
2.138961600E1,-8.554340899E-2,3.622135162E0,9.345169067E0
2.140972579E1,-1.483550072E-1,3.648456335E0,9.282357216E0
2.142983559E1,-9.092725813E-2,3.701098442E0,9.183054924E0
2.144994538E1,1.022931710E-1,3.728615999E0,9.302696228E0
2.147005517E1,1.680957973E-1,3.757329702E0,9.476176262E0
2.149016496E1,2.153540403E-1,3.620340586E0,9.139386177E0
2.151027475E1,2.697907388E-1,3.760320902E0,9.391828537E0
2.153038454E1,1.585244983E-1,3.759722471E0,9.549755096E0
2.155049434E1,-4.426721856E-2,3.707678795E0,9.576674461E0
2.157060413E1,-2.572284266E-2,3.721437454E0,9.285347939E0
2.159071392E1,-1.495514158E-2,3.790230989E0,8.977870941E0
2.161082371E1,2.027917206E-1,3.797409534E0,8.978468895E0
2.163093350E1,2.201396823E-1,3.860819340E0,9.198010445E0
2.165104329E1,9.272187948E-2,3.846462488E0,9.338588715E0
2.167115308E1,5.742774159E-2,3.799204111E0,9.377471924E0
2.169126283E1,1.914258115E-2,3.802195072E0,9.323035240E0
2.171137262E1,-1.734796353E-2,3.770490170E0,9.171091080E0
2.173148241E1,-4.606183618E-2,3.819543123E0,9.085547447E0
2.175159220E1,-5.503492057E-2,3.816552162E0,9.203991890E0
2.177170199E1,-6.939185411E-2,3.783052683E0,9.334401131E0
2.179181178E1,-7.477571070E-2,3.778865099E0,9.408578873E0
2.181192158E1,-4.366901144E-2,3.823132277E0,9.133403778E0
2.183203137E1,2.931207791E-2,3.836891174E0,8.981459618E0
2.185214116E1,-2.991028363E-3,3.904488325E0,9.071190834E0
2.187225095E1,-1.034895778E-1,3.960719585E0,8.874979019E0
2.189236074E1,3.828516230E-2,3.886542082E0,8.922835350E0
2.191247053E1,1.686939895E-1,3.952344894E0,8.926424980E0
2.193258032E1,1.920240223E-1,4.013361931E0,8.960522652E0
2.195269012E1,1.633101404E-1,4.007379532E0,9.008976936E0
2.197279986E1,1.082752272E-1,4.073780537E0,9.019146919E0
2.199290965E1,1.010967568E-1,4.050450325E0,9.055637360E0
2.201301944E1,9.451649338E-2,4.024129391E0,8.975478172E0
2.203312923E1,2.213360928E-2,4.001397610E0,8.931210518E0
2.205323902E1,7.178467698E-3,3.961317778E0,9.038289070E0
2.207334881E1,-8.973085321E-3,3.930211306E0,9.203991890E0
2.209345861E1,5.383851007E-3,3.908675671E0,9.134002686E0
2.211356840E1,1.316052526E-1,3.881756544E0,9.158528328E0
2.213367819E1,1.806581169E-1,3.914657831E0,9.386445045E0
2.215378798E1,7.357929647E-2,3.905086517E0,9.565308571E0
2.217389777E1,-8.374879137E-3,3.909872293E0,9.375677109E0
2.219400751E1,-2.213360928E-2,3.989433527E0,9.043673515E0
2.221411730E1,-3.948157281E-2,4.031308174E0,8.877969742E0
2.223422710E1,-3.649054468E-2,4.083351612E0,8.906683922E0
2.225433689E1,1.196411345E-2,4.100101471E0,8.845068932E0
2.227444668E1,-1.196411345E-2,4.114458561E0,8.984451294E0
2.229455647E1,-5.742774159E-2,4.132404804E0,9.163912773E0
2.231466626E1,-2.452643216E-2,4.128217220E0,9.056235313E0
2.233477605E1,-3.349951655E-2,4.116253376E0,8.928817749E0
2.235488585E1,7.058826834E-2,4.119244099E0,8.783453941E0
2.237499564E1,1.262213886E-1,4.137190342E0,8.922835350E0
2.239510538E1,1.333998591E-1,4.081557274E0,9.196813583E0
2.241521517E1,6.819544733E-2,4.071985722E0,9.250652313E0
2.243532496E1,5.563312769E-2,4.036093712E0,9.263215065E0
2.245543475E1,1.423729509E-1,3.966701746E0,9.065806389E0
2.247554454E1,1.459621787E-1,3.958925009E0,9.044869423E0
2.249565434E1,1.375873089E-1,3.950550079E0,9.173483849E0
2.251576413E1,9.152546525E-2,4.016951084E0,9.128618240E0
2.253587387E1,6.340979785E-2,4.015754700E0,8.991629601E0
2.255598366E1,-9.690931439E-2,4.015156269E0,8.996415138E0
2.257609345E1,-1.968096644E-1,4.047459602E0,9.066405296E0
2.259620324E1,1.064806059E-1,4.059423447E0,8.763712883E0
2.261631303E1,3.349951804E-1,4.127020836E0,8.710473061E0
2.263642282E1,2.147558331E-1,4.174279213E0,8.933005333E0
2.265653262E1,1.573280841E-1,4.096512318E0,8.998807907E0
2.267664241E1,1.477568001E-1,4.157529354E0,9.012566566E0
2.269675215E1,1.543370634E-1,4.178466320E0,9.120841980E0
2.271686194E1,1.932204217E-1,4.089931965E0,9.169894218E0
2.273697173E1,1.603191197E-1,4.115654945E0,9.145368576E0
2.275708152E1,1.292124242E-1,4.116253376E0,9.029315948E0
2.277719131E1,1.740778536E-1,4.088137627E0,8.952147484E0
2.279730111E1,1.788634956E-1,4.153341770E0,8.992227554E0
2.281741090E1,1.764706671E-1,4.133601189E0,9.186644554E0
2.283752064E1,1.405783296E-1,4.121038914E0,9.236295700E0
2.285763043E1,2.279163599E-1,4.142574310E0,9.065208435E0
2.287774022E1,5.443671346E-2,4.121038914E0,9.096913338E0
2.289785001E1,-1.004985496E-1,4.179663181E0,9.159725189E0
2.291795980E1,-1.435693540E-2,4.243072987E0,9.079565048E0
2.293806960E1,2.338984162E-1,4.207180500E0,8.906085968E0
2.295817934E1,2.554338276E-1,4.195216179E0,8.855836868E0
2.297828913E1,2.841476798E-1,4.222733974E0,8.941978455E0
2.299839892E1,2.321037948E-1,4.149154663E0,8.928817749E0
2.301850871E1,2.787638307E-1,4.142574310E0,8.679366112E0
2.303861850E1,2.458625287E-1,4.182055950E0,8.598608017E0
2.305872829E1,2.895315289E-1,4.126422882E0,8.711071014E0
2.307883803E1,5.156532526E-1,4.031906128E0,7.768298626E0
2.309894782E1,3.128615618E-1,3.977469444E0,8.273183823E0
2.311905762E1,1.597209126E-1,4.042075634E0,9.760323524E0
2.313916741E1,2.931207791E-2,3.976273060E0,1.021256733E1
2.315927720E1,1.393819153E-1,3.897907972E0,1.031186962E1
2.317938699E1,3.290131092E-1,4.064807415E0,1.015394306E1
2.319949673E1,2.554338276E-1,4.141377926E0,8.861220360E0
