"Time (s)","Gyroscope x (rad/s)","Gyroscope y (rad/s)","Gyroscope z (rad/s)"
3.049042900E-2,3.771981969E-2,6.604786217E-2,-1.093416587E-1
5.060022100E-2,-4.764608666E-2,6.497887522E-2,-7.314895838E-2
7.071001200E-2,-3.497100621E-2,1.981435865E-1,-7.605048269E-2
9.081985600E-2,3.237490356E-2,2.109713703E-1,-6.612421572E-2
1.109296480E-1,7.437065244E-2,1.582857966E-1,-7.773031294E-2
1.310394390E-1,6.536065787E-2,1.077381819E-1,-9.865183383E-2
1.511492310E-1,4.016320780E-2,7.429429889E-2,-1.030804738E-1
1.712590230E-1,2.764083818E-2,8.742751181E-2,-1.233911440E-1
1.913688660E-1,1.756185852E-2,1.158319116E-1,-1.466033459E-1
2.114786580E-1,-7.024743594E-3,1.286597103E-1,-1.377460510E-1
2.315884500E-1,-3.878879920E-2,1.181225851E-1,-1.090362370E-1
2.516982410E-1,-5.696150661E-2,9.659022093E-2,-8.582404256E-2
2.718080330E-1,-5.283828825E-2,9.994988143E-2,-6.398624927E-2
2.919178770E-1,-2.672456764E-2,9.796462953E-2,-4.886778072E-2
3.120276690E-1,5.497625098E-3,6.452073902E-2,-3.787253052E-2
3.321374600E-1,2.382304333E-2,1.611109637E-2,-2.122694254E-2
3.522472520E-1,7.635590620E-3,-6.795675959E-3,-2.183778957E-2
3.723570960E-1,-1.038440317E-2,1.168245357E-2,-1.847812906E-2
3.924668870E-1,4.581354442E-4,3.306210786E-2,1.145338640E-2
4.125766790E-1,2.779355086E-2,1.198787708E-2,4.504998401E-2
4.326864710E-1,4.367557913E-2,-1.298050396E-3,6.429167092E-2
4.527962620E-1,4.978405312E-2,1.259872504E-2,6.490252167E-2
4.729061060E-1,4.657710344E-2,-1.756185899E-3,5.344913527E-2
4.930158980E-1,2.107422985E-2,-5.879404955E-3,2.748812735E-2
5.131256890E-1,-1.343864016E-2,-9.239064530E-3,-1.527118147E-3
5.332354810E-1,-4.657710344E-2,1.977618039E-2,-2.321219631E-2
5.533452730E-1,-6.642963737E-2,6.131379306E-2,-2.000524849E-2
5.734551160E-1,-8.261708915E-2,6.726955622E-2,-1.527118124E-2
5.935649080E-1,-9.895725548E-2,6.879667193E-2,-1.557660475E-2
6.136747000E-1,-1.137702987E-1,8.345700800E-2,-1.023169141E-2
6.337844910E-1,-1.015533581E-1,9.994988143E-2,5.497625098E-3
6.538942830E-1,-8.704573661E-2,9.872818738E-2,-7.330167107E-3
6.740041270E-1,-1.084253863E-1,1.010188684E-1,-3.603998944E-2
6.941139190E-1,-1.944021434E-1,1.011715755E-1,-4.902049154E-2
7.142237100E-1,-2.988570333E-1,9.933903813E-2,-2.794626169E-2
7.343335020E-1,-3.755183518E-1,1.072800532E-1,-1.817270555E-2
7.544432940E-1,-3.910949528E-1,1.416402012E-1,-1.924168877E-2
7.745531370E-1,-3.652866483E-1,1.248419061E-1,-1.450762246E-2
7.946629290E-1,-2.974826097E-1,1.318666488E-1,-6.108472589E-4
8.147727210E-1,-2.385358512E-1,1.202605516E-1,-3.878879920E-2
8.348825120E-1,-1.960819662E-1,1.210241169E-1,-8.338065445E-2
8.549923560E-1,-1.478250325E-1,9.765920788E-2,-1.096470803E-1
8.751021480E-1,-1.000262350E-1,1.104869992E-1,-1.230857223E-1
8.952119390E-1,-7.437065244E-2,1.511083394E-1,-1.053711548E-1
9.153217310E-1,-3.512371704E-2,2.102078199E-1,-6.841489673E-2
9.354315750E-1,-5.192201585E-3,2.770955861E-1,-4.062134400E-2
9.555413660E-1,1.786728203E-2,2.876327038E-1,-3.038965166E-2
9.756511580E-1,-8.704573661E-2,3.725404739E-1,2.336490750E-1
9.957609500E-1,-2.443388999E-1,2.257844210E-1,3.246653080E-1
1.015870741E0,-3.080197275E-1,1.356844455E-1,1.945548505E-1
1.035980585E0,-2.806843221E-1,1.080436110E-1,9.727742523E-2
1.056090377E0,-1.730224788E-1,5.719057471E-2,6.597150117E-2
1.076200169E0,-1.328592747E-2,-1.824906096E-2,5.467082933E-2
1.096309960E0,1.675248593E-1,-1.068219170E-1,5.589252338E-2
1.116419752E0,3.425326049E-1,-1.734042615E-1,8.353336155E-2
1.136529596E0,4.743228853E-1,-2.241045833E-1,1.072036922E-1
1.156639387E0,4.787515402E-1,-2.372378111E-1,4.550812021E-2
1.176749179E0,4.202629030E-1,-2.590755820E-1,-3.665083554E-3
1.196858971E0,3.744493723E-1,-1.396549493E-1,-2.458660305E-2
1.216968814E0,3.436015844E-1,-5.138752609E-2,-5.207473040E-2
1.237078606E0,2.825168669E-1,-4.039227590E-2,-6.734590977E-2
1.257188398E0,1.756185889E-1,-2.405211143E-2,-3.115320951E-2
1.277298189E0,7.330167294E-2,-5.413633958E-2,1.679830020E-3
1.297408033E0,5.696150661E-2,-1.049893722E-1,-1.985253580E-2
1.317517825E0,8.796200156E-2,-1.091125906E-1,-6.673506647E-2
1.337627616E0,9.040539712E-2,-8.391514421E-2,-8.353336155E-2
1.357737408E0,7.696675509E-2,-4.497363046E-2,-4.504998401E-2
1.377847252E0,7.131642103E-2,2.603736520E-2,-1.969982497E-2
1.397957044E0,6.139015034E-2,1.216349602E-1,-3.863608837E-2
1.418066835E0,6.093201414E-2,1.010188684E-1,-5.192201585E-3
1.438176627E0,1.235438585E-1,8.399150101E-4,5.833591148E-2
1.458286419E0,2.330382317E-1,-2.359397523E-2,1.064401343E-1
1.478396262E0,3.709369898E-1,4.146125913E-2,1.113269106E-1
1.498506054E0,4.705050886E-1,2.634278871E-2,6.139015034E-2
1.518615846E0,4.446968138E-1,-5.459447205E-2,-7.925742865E-2
1.538725689E0,3.278722763E-1,-1.234675050E-1,-1.466033459E-1
1.558835481E0,1.756185889E-1,-2.695363574E-2,-1.201841980E-1
1.578945273E0,1.847812906E-2,1.061347127E-2,-9.712471068E-2
1.599055064E0,-9.315420687E-2,-2.664821222E-2,-9.391776472E-2
1.619164856E0,-1.204896197E-1,-1.916533336E-2,-1.064401343E-1
1.639274700E0,-5.344913527E-2,1.122431830E-2,-1.072036922E-1
1.659384491E0,7.757759839E-2,-4.146125913E-2,-1.032331884E-1
1.679494283E0,2.214321345E-1,4.352286924E-3,-9.025268257E-2
1.699604075E0,2.338017821E-1,9.827005118E-2,-6.474980712E-2
1.719713919E0,9.071081877E-2,1.063637808E-1,3.252761811E-2
1.739823710E0,-1.542389300E-2,-2.519744914E-3,1.015533581E-1
1.759933502E0,-4.260659590E-2,-2.710634656E-2,9.009997360E-3
1.780043294E0,1.099525020E-2,-5.764871091E-2,-1.331647038E-1
1.800153137E0,1.223221645E-1,-1.381278336E-1,-2.806843221E-1
1.820262929E0,1.618745178E-1,-1.947839260E-1,-3.868190348E-1
1.840372721E0,9.223793447E-2,-1.723352820E-1,-3.501681983E-1
1.860482512E0,-3.909422457E-2,-1.022405624E-1,-2.426590770E-1
1.880592356E0,-1.166718230E-1,3.328354061E-1,9.620844387E-3
1.900702148E0,6.933116168E-2,2.706816792E-1,3.651339412E-1
1.920811939E0,3.135173619E-1,-7.750124484E-2,6.943806410E-1
1.940921731E0,4.243861437E-1,-2.711398304E-1,7.044596076E-1
1.961031523E0,4.175141156E-1,-4.207974076E-1,4.083513916E-1
1.981141366E0,3.034383655E-1,-2.625879645E-1,3.802524135E-2
2.001251158E0,9.407047927E-2,3.442887962E-1,-5.757235363E-2
2.021360950E0,-1.108687744E-1,6.443675160E-1,7.330167107E-3
2.041470794E0,-2.733541429E-1,5.892385244E-1,4.031591862E-2
2.061580585E0,-3.700207174E-1,4.853945076E-1,5.726693198E-2
2.081690377E0,-4.312581718E-1,4.015557170E-1,-4.947862774E-2
2.101800169E0,-5.135698318E-1,2.610608339E-1,-2.156290859E-1
2.121910012E0,-5.972558856E-1,1.773747802E-1,-2.620534599E-1
2.142019804E0,-5.934380889E-1,3.841465712E-1,-6.261184346E-3
2.162129596E0,-5.871769190E-1,5.895439386E-1,3.443651497E-1
2.182239387E0,-5.413633585E-1,6.158103943E-1,1.041494608E-1
2.202349231E0,-4.731011987E-1,6.877376437E-1,1.291942000E-1
2.222459023E0,-3.471139669E-1,5.079958439E-1,-3.481829539E-2
2.242568814E0,-1.551551968E-1,6.971294433E-2,-2.739650011E-1
2.262678606E0,-8.506047726E-2,-2.357106805E-1,-2.816005945E-1
2.282788450E0,-1.466033459E-1,-3.096232116E-1,-1.647760421E-1
2.302898241E0,-2.116585821E-1,-2.158581465E-1,-7.223268598E-2
2.323008033E0,-2.131856978E-1,5.421269219E-3,-2.428117767E-2
2.343117825E0,-1.772984117E-1,6.818582863E-2,1.527118147E-3
2.363227669E0,-1.288887709E-1,-1.040730998E-1,3.130592033E-2
2.383337460E0,-3.894151375E-2,-4.282802939E-1,1.133121699E-1
2.403447252E0,1.050657257E-1,-7.561525702E-1,2.215848416E-1
2.423557044E0,1.151447073E-1,-8.612182736E-1,2.921377122E-1
2.443666887E0,3.512371797E-3,-5.872532725E-1,3.651339412E-1
2.463776679E0,-2.518217862E-1,-2.835094929E-1,3.101576865E-1
2.483886471E0,-3.938437700E-1,-5.581616983E-2,1.904316396E-1
2.503996314E0,-3.608580232E-1,5.001311749E-2,1.285833418E-1
2.524106106E0,-2.354816198E-1,-1.168245357E-2,1.154501289E-1
2.544215898E0,-9.987352788E-2,-1.249946207E-1,1.221694499E-1
2.564325689E0,-1.664558798E-2,-2.457896620E-1,1.068982705E-1
2.584435481E0,2.122694254E-2,-2.874799967E-1,5.100574717E-2
2.604545325E0,2.000524849E-2,-2.045574784E-1,2.596100792E-3
2.624655116E0,1.801999472E-2,-9.399411827E-2,-1.252236869E-2
2.644764908E0,1.756185852E-2,-1.702736691E-2,-2.641914412E-2
2.664874752E0,1.863084175E-2,3.031329438E-2,-2.229592577E-2
2.684984544E0,6.077930331E-2,3.581092134E-2,-1.893626526E-2
2.705094335E0,1.378987730E-1,-1.603474026E-3,-2.748812735E-2
2.725204127E0,2.147128135E-1,-6.436803192E-2,-6.948387623E-2
2.745313971E0,3.889569938E-1,1.962346770E-2,-1.493521482E-1
2.765423762E0,3.935383558E-1,2.893888950E-2,-8.887827396E-2
2.785533554E0,3.263451457E-1,-3.894151188E-3,-9.804098308E-2
2.805643346E0,2.857238054E-1,-3.886515647E-2,-1.110214889E-1
2.825753189E0,2.139492482E-1,-5.489989743E-2,-1.012479365E-1
2.845862981E0,1.238492802E-1,-7.505785674E-2,-8.124268800E-2
2.865972773E0,7.498150319E-2,-6.696412712E-2,-8.276980370E-2
2.886082616E0,6.566607952E-2,9.720107168E-2,-9.926267713E-2
2.906192408E0,4.489727318E-2,1.456107199E-1,-1.250709742E-1
2.926302200E0,1.160609815E-2,1.100288630E-1,-1.279724985E-1
2.946411991E0,-1.649287529E-2,7.597412914E-2,-7.971556485E-2
2.966521835E0,-4.566083103E-2,4.848600179E-2,-2.382304333E-2
2.986631627E0,-4.566083103E-2,2.832804248E-2,1.420219894E-2
3.006741419E0,-3.710897267E-2,-6.337540224E-3,1.817270555E-2
3.026851262E0,-3.115320951E-2,-1.870719716E-2,-1.221694518E-3
3.046961054E0,-2.305948362E-2,1.076618303E-2,-2.657185495E-2
3.067070846E0,-9.773556143E-3,3.764346242E-2,-3.512371704E-2
3.087180637E0,-3.817795310E-3,2.191414498E-2,-2.687728032E-2
3.107290481E0,-1.328592747E-2,-1.122431830E-2,-3.069507517E-2
3.127400273E0,-4.077405483E-2,-2.145601064E-2,-5.222744122E-2
3.147510064E0,-4.031591862E-2,-7.559234742E-3,-6.994201243E-2
3.167619856E0,-1.023169141E-2,-1.962346770E-2,-6.459710002E-2
3.187729700E0,2.779355086E-2,-4.023956135E-2,-5.451811850E-2
3.207839491E0,5.741964281E-2,-5.077667907E-2,-4.825693369E-2
3.227949283E0,8.002099395E-2,-4.756972939E-2,-2.977880463E-2
3.248059127E0,1.491994411E-1,-5.825955793E-2,-3.359659761E-2
3.268168919E0,2.603736520E-1,-5.123481527E-2,-5.329642445E-2
3.288278710E0,3.587200642E-1,-8.864920586E-2,-5.772506446E-2
3.308388502E0,3.851391971E-1,-7.750124484E-2,-3.344388679E-2
3.328498346E0,3.373403847E-1,-1.136939451E-1,4.734066315E-3
3.348608137E0,2.878617644E-1,-2.005869746E-1,1.267508045E-2
3.368717929E0,2.707580328E-1,-1.859266311E-1,1.206423342E-2
3.388827773E0,2.498365343E-1,-1.208714023E-1,-1.298050396E-2
3.408937564E0,1.539335102E-1,-9.323056042E-2,-4.917320609E-2
3.429047356E0,5.558710173E-2,-5.566345528E-2,-6.322269142E-2
3.449157148E0,2.153236605E-2,-1.534753758E-2,-6.658235192E-2
3.469266991E0,2.473931387E-2,2.206685767E-2,-6.856760383E-2
3.489376783E0,2.183778957E-2,2.405211143E-2,-6.123743951E-2
3.509486575E0,2.748812549E-3,-7.864658721E-3,-5.635065958E-2
3.529596366E0,-3.527642787E-2,-3.588727675E-3,-5.405998230E-2
3.549706210E0,-8.872556686E-2,3.321481869E-2,-7.421794534E-2
3.569816002E0,-1.394258887E-1,7.994463295E-2,-1.200314835E-1
3.589925794E0,-2.099787444E-1,1.092653051E-1,-1.635543555E-1
3.610035637E0,-3.060344756E-1,1.083490327E-1,-1.800472289E-1
3.630145429E0,-3.759764731E-1,9.338327497E-2,-1.685938388E-1
3.650255221E0,-3.535278440E-1,8.895463496E-2,-1.331647038E-1
3.670365064E0,-2.249445021E-1,1.081963181E-1,-9.437590092E-2
3.690474856E0,-7.360709459E-2,1.561478376E-1,-6.291726977E-2
3.710584648E0,1.527118147E-3,1.306449622E-1,-3.603998944E-2
3.730694439E0,-1.374406274E-3,4.924955964E-2,2.443389036E-3
3.750804283E0,2.137965523E-3,2.496838197E-2,2.382304333E-2
3.770914075E0,6.077930331E-2,4.940227047E-2,2.092151903E-2
3.791023866E0,1.032331884E-1,7.658497244E-2,2.260134928E-2
3.811133658E0,1.032331884E-1,8.819106966E-2,3.985778242E-2
3.831243502E0,7.711946964E-2,7.291989028E-2,3.665083647E-2
3.851353294E0,5.100574717E-2,5.092938989E-2,2.137965336E-2
3.871463085E0,2.611372061E-2,1.412584260E-2,-7.024743594E-3
3.891572929E0,-7.941014133E-3,-6.795675959E-3,-2.412846684E-2
3.911682721E0,-1.175880991E-2,2.771719359E-2,-7.024743594E-3
3.931792512E0,2.122694254E-2,5.673243850E-2,3.283303976E-2
3.951902356E0,2.122694254E-2,6.788039953E-2,7.727217674E-2
3.972012148E0,-2.015795931E-2,5.291464552E-2,9.559759498E-2
3.992121939E0,-5.986303091E-2,-6.337540224E-3,8.124268800E-2
4.012231731E0,-6.276455522E-2,-5.169294775E-2,6.749862432E-2
4.032341575E0,-4.016320780E-2,-3.917058185E-2,6.627693027E-2
4.052451366E0,-1.695101149E-2,-8.322793990E-3,7.788302749E-2
4.072561158E0,-1.114796288E-2,-1.565296017E-2,8.307522535E-2
4.092671002E0,-1.756185852E-2,-2.069245093E-2,7.742489129E-2
4.112780794E0,-1.404948719E-2,-2.191414498E-2,7.375980914E-2
4.132890585E0,3.054236295E-4,-2.298312820E-2,7.192726433E-2
4.153000377E0,1.878355257E-2,6.872031372E-4,6.215370819E-2
4.173110221E0,2.199050039E-2,1.030804776E-2,4.902049154E-2
4.193220012E0,1.298050396E-2,6.184828468E-3,3.191677108E-2
4.213329804E0,1.985253533E-3,1.076618303E-2,1.878355257E-2
4.233439648E0,-6.108472589E-4,1.626380906E-2,1.985253533E-3
4.253549439E0,4.581354442E-4,1.152974181E-2,-2.336490713E-2
4.273659231E0,-3.359660041E-3,1.534753758E-2,-3.268032894E-2
4.293769023E0,2.443389036E-3,2.680092305E-2,-3.787253052E-2
4.313878866E0,4.428642802E-3,3.413109109E-2,-3.710897267E-2
4.333988658E0,-5.650337320E-3,3.046600707E-2,-2.977880463E-2
4.354098450E0,-1.359135192E-2,1.320957206E-2,-3.283303976E-2
4.374208294E0,-1.832541823E-2,4.352286924E-3,-3.038965166E-2
4.394318085E0,-2.550287358E-2,7.253811229E-3,-2.397575416E-2
4.414427877E0,-2.809897438E-2,-9.926267667E-4,-1.542389300E-2
4.434537721E0,-2.199050039E-2,-1.565296017E-2,-1.420219894E-2
4.454647512E0,-1.557660475E-2,-2.817532979E-2,-1.542389300E-2
4.474757304E0,-2.137965523E-3,-2.435753495E-2,-1.817270555E-2
4.494867148E0,1.527118147E-4,-2.130329795E-2,-3.161134571E-2
4.514976939E0,-2.183778957E-2,-6.253548712E-2,-4.611896724E-2
4.535086731E0,-2.687728032E-2,-1.181225851E-1,-6.917845458E-2
4.555196523E0,-1.832541823E-2,-1.387386769E-1,-1.032331884E-1
4.575306366E0,-3.527642787E-2,-1.220930964E-1,-1.507265568E-1
4.595416158E0,-8.582404256E-2,-7.979192585E-2,-1.455343664E-1
4.615525950E0,-1.114796251E-1,-4.863871261E-2,-1.191152185E-1
4.635635794E0,-1.130067408E-1,-2.344126441E-2,-1.204896197E-1
4.655745585E0,-9.254335612E-2,-3.550549597E-2,-1.009425074E-1
4.675855377E0,-7.207997888E-2,-6.329904497E-2,-7.941014320E-2
4.695965221E0,-8.017370105E-2,-8.712209016E-2,-6.963659078E-2
4.716075012E0,-9.559759498E-2,-9.735377878E-2,-5.573981255E-2
4.736184804E0,-8.414421231E-2,-8.070819080E-2,-3.359659761E-2
4.756294596E0,-4.688252881E-2,-5.383091420E-2,-4.886778072E-3
4.776404439E0,-2.611372061E-2,-3.275668249E-2,2.275406010E-2
4.796514231E0,-2.809897438E-2,-4.940227047E-2,2.428117767E-2
4.816624023E0,-3.222219273E-2,-7.185091078E-2,2.046338283E-2
4.836733866E0,-4.902049154E-2,-1.030041203E-1,7.788302377E-3
4.856843658E0,-5.604523420E-2,-1.091125906E-1,-1.114796288E-2
4.876953450E0,-3.695625812E-2,-1.182752997E-1,-3.176405653E-2
4.897063294E0,4.275931045E-3,-1.346154660E-1,-4.275930673E-2
4.917173085E0,4.230117425E-2,-1.278961450E-1,-6.368082762E-2
4.937282877E0,4.428642616E-2,-1.231620759E-1,-9.468132257E-2
4.957392669E0,-1.817270555E-2,-1.153737754E-1,-1.185043678E-1
4.977502512E0,-7.314895838E-2,-1.133885235E-1,-1.241547018E-1
4.997612304E0,-6.826218218E-2,-1.202605516E-1,-1.185043678E-1
5.017722096E0,-2.214321308E-2,-1.011715755E-1,-9.788827598E-2
5.037831939E0,2.687728032E-2,-9.674293548E-2,-6.826218218E-2
5.057941731E0,4.413371533E-2,-1.008661538E-1,-1.817270555E-2
5.078051523E0,3.054236248E-2,-7.627955079E-2,3.054236295E-3
5.098161366E0,1.588202827E-2,-1.809635013E-2,-1.527118147E-3
5.118271158E0,-1.221694518E-3,-1.000262424E-2,1.221694518E-3
5.138380950E0,-2.825168520E-2,-3.321481869E-2,2.092151903E-2
5.158490794E0,-4.489727318E-2,-4.665346071E-2,3.878879920E-2
5.178600585E0,-1.801999472E-2,-3.153498843E-2,5.543438718E-2
5.198710377E0,3.512371704E-2,-1.473669056E-2,6.963659078E-2
5.218820169E0,6.230641901E-2,-1.794363745E-2,9.391776472E-2
5.238930012E0,6.780404598E-2,-5.978667364E-2,1.177408099E-1
5.259039804E0,4.352286831E-2,-7.490514219E-2,1.181989461E-1
5.279149596E0,-1.527118124E-2,-2.451024577E-2,9.071081877E-2
5.299259439E0,-7.162184268E-2,3.229855001E-2,3.619270027E-2
5.319369231E0,-1.017060652E-1,6.009209901E-2,1.527118147E-3
5.339479023E0,-8.231166750E-2,7.566870749E-2,-8.246437646E-3
5.359588866E0,-3.252761811E-2,1.001025960E-1,-5.344913341E-3
5.379698658E0,-5.803049076E-3,6.910209358E-2,-8.246437646E-3
5.399808450E0,-3.619270027E-2,3.153498843E-2,-3.283303976E-2
5.419918294E0,-8.567132801E-2,4.390464723E-2,-6.062658876E-2
5.440028085E0,-8.994726092E-2,6.650599837E-2,-8.490777016E-2
5.460137877E0,-5.711421743E-2,8.666395396E-2,-9.116895497E-2
5.480247721E0,-1.893626526E-2,9.536852688E-2,-7.192726433E-2
5.500357512E0,-1.267508045E-2,7.933378965E-2,-4.596625641E-2
5.520467304E0,-1.939439960E-2,6.482616812E-2,-3.054236248E-2
5.540577096E0,-3.695625812E-2,5.627430230E-2,-3.481829539E-2
5.560686939E0,-9.284878522E-2,4.848600179E-2,-5.864133686E-2
5.580796731E0,-1.609582454E-1,5.764871091E-2,-6.933116168E-2
5.600906523E0,-1.663031727E-1,6.940752268E-2,-6.322269142E-2
5.621016366E0,-1.232384369E-1,8.574768156E-2,-4.077405483E-2
5.641126158E0,-8.658760041E-2,6.956022978E-2,-2.535016090E-2
5.661235950E0,-7.834116369E-2,2.909160033E-2,-2.687728032E-2
5.681345794E0,-6.581879407E-2,9.391776286E-3,-3.451287001E-2
5.701455585E0,-2.535016090E-2,-1.855448633E-2,-3.344388679E-2
5.721565377E0,1.359135192E-2,-4.695888236E-2,-2.840439789E-2
5.741675221E0,2.107422985E-2,-6.788039953E-2,-2.672456764E-2
5.761785012E0,2.458660305E-2,-9.765920788E-2,-2.367033064E-2
5.781894804E0,4.001049697E-2,-1.309503764E-1,-1.450762246E-2
5.802004648E0,5.421269313E-2,-1.333937645E-1,5.955760833E-3
5.822114439E0,5.436540768E-2,-1.091125906E-1,2.351761982E-2
5.842224231E0,7.834116369E-2,-5.154023692E-2,3.038965166E-2
5.862334075E0,1.134648770E-1,3.474193811E-2,3.573456407E-2
5.882443866E0,1.140757278E-1,1.139993668E-1,3.542914242E-2
5.902553658E0,7.773031294E-2,1.191915721E-1,3.374931216E-2
5.922663502E0,-1.023169141E-2,4.023956135E-2,1.695101149E-2
5.942773294E0,-1.435490996E-1,-2.145601064E-2,1.695101149E-2
5.962883085E0,-2.252499312E-1,-5.825955793E-2,2.748812549E-3
5.982992929E0,-2.389939874E-1,-2.893888950E-2,-7.146912813E-2
6.003102721E0,-2.446443290E-1,5.322006717E-2,-1.698155403E-1
6.023212512E0,-2.728960216E-1,1.123195365E-1,-2.360924631E-1
6.043322356E0,-3.045073450E-1,1.091125906E-1,-2.354816198E-1
6.063432148E0,-3.494046330E-1,8.192989230E-2,-1.759240031E-1
6.083541939E0,-2.773246467E-1,2.108186632E-1,-1.247655526E-1
6.103651731E0,-1.505738497E-1,2.207449228E-1,-1.307213157E-1
6.123761575E0,-4.932591692E-2,1.408766508E-1,-1.209477559E-1
6.143871366E0,1.546970755E-1,2.042520493E-1,-5.803048983E-2
6.163981158E0,4.756973088E-1,3.410818279E-1,6.505523622E-2
6.184091002E0,7.125533223E-1,2.948101461E-1,2.199050188E-1
6.204200794E0,7.073611021E-1,4.451549426E-2,3.674246371E-1
6.224310585E0,5.882459283E-1,-1.631725729E-1,4.706578255E-1
6.244420429E0,5.351021886E-1,-2.279223800E-1,5.019637346E-1
6.264530221E0,5.318952799E-1,-2.983225286E-1,4.981459379E-1
6.284640012E0,4.059080184E-1,-3.992650509E-1,4.611896873E-1
6.304749856E0,2.183778882E-1,-3.025984466E-1,3.831539452E-1
6.324859648E0,2.376195788E-1,2.817532979E-2,3.080197275E-1
6.344969439E0,4.680617154E-1,3.247416615E-1,2.919849753E-1
6.365079283E0,6.363501549E-1,3.189386129E-1,3.420744538E-1
6.385189075E0,5.619794726E-1,7.337802649E-2,3.884988427E-1
6.405298866E0,3.051182032E-1,-1.037676781E-1,3.975088596E-1
6.425408710E0,1.333174109E-1,-4.329380020E-2,3.764346242E-1
6.445518502E0,1.036913246E-1,1.161373332E-1,3.258870244E-1
6.465628294E0,1.429382563E-1,2.540360987E-1,2.609844804E-1
6.485738085E0,8.215895295E-2,2.138728946E-1,1.623326540E-1
6.505847929E0,-6.627693027E-2,9.139802307E-2,9.620844573E-2
6.525957721E0,-2.014268786E-1,-3.122956678E-2,3.344388679E-2
6.546067564E0,-2.903051674E-1,-5.719057471E-2,-9.926267900E-3
6.566177356E0,-3.051182032E-1,2.939702384E-2,-5.512896553E-2
6.586287148E0,-2.764083743E-1,8.101361990E-2,-8.719844371E-2
6.606396991E0,-2.417428046E-1,3.367295489E-2,-8.353336155E-2
6.626506783E0,-2.435753495E-1,-3.168770298E-2,-5.497625470E-2
6.646616575E0,-2.922904193E-1,-1.122431830E-2,-1.343864016E-2
6.666726419E0,-3.069507480E-1,1.440836042E-1,-2.596100792E-3
6.686836210E0,-6.994201243E-2,4.349996150E-1,6.902574003E-2
6.706946002E0,3.162661791E-1,4.537831545E-1,2.916795611E-1
6.727055794E0,3.107685447E-1,-5.268557463E-3,3.460449576E-1
6.747165637E0,-2.272351831E-1,-3.027511835E-1,1.232384369E-1
6.767275429E0,-7.618792653E-1,-1.793600321E-1,-1.936385781E-1
6.787385273E0,-7.867712975E-1,-1.373642832E-1,-3.813214004E-1
6.807495064E0,-3.431434333E-1,-1.199551299E-1,-2.941229641E-1
6.827604856E0,1.550024897E-1,-1.834832430E-1,-1.183516532E-1
6.847714648E0,2.707580328E-1,-3.696389496E-1,-5.100574717E-2
6.867824491E0,6.047387794E-2,-4.272113144E-1,-1.921114624E-1
6.887934283E0,-1.853921413E-1,-1.853157878E-1,-4.472928941E-1
6.908044075E0,-2.095206082E-1,2.117349356E-1,-5.883986354E-1
6.928153919E0,5.344913341E-3,4.324035048E-1,-5.670189857E-1
6.948263710E0,2.264716178E-1,3.116084635E-1,-4.527905285E-1
6.968373502E0,2.606790662E-1,5.612159148E-2,-3.164188862E-1
6.988483346E0,1.861557066E-1,-3.184041381E-2,-2.538070381E-1
7.008593137E0,9.483403713E-2,2.527380548E-2,-2.699944973E-1
7.028702929E0,2.932066843E-2,1.245364845E-1,-2.435753495E-1
7.048812773E0,3.603998944E-2,1.410293579E-1,-1.475196183E-1
7.068922564E0,1.111742035E-1,1.253000498E-1,-7.437065244E-2
7.089032356E0,1.606528312E-1,1.248419061E-1,-4.932591692E-2
7.109142200E0,1.997470558E-1,1.982962936E-1,-5.405998230E-2
7.129251991E0,2.141019702E-1,2.331145853E-1,-1.404948719E-2
7.149361783E0,1.316375881E-1,2.311293334E-1,1.038440317E-1
7.169471627E0,3.206948051E-3,1.790546030E-1,2.050919682E-1
7.189581419E0,-1.123958975E-1,1.266744435E-1,1.933331639E-1
7.209691210E0,-2.112004459E-1,9.506310523E-2,1.345391124E-1
7.229801054E0,-1.498102844E-1,2.190651000E-1,8.704573661E-2
7.249910846E0,1.711899489E-1,5.153260231E-1,1.166718230E-1
7.270020637E0,4.697415531E-1,8.016606569E-1,1.831014603E-1
7.290130481E0,5.109737515E-1,6.148941517E-1,2.420482337E-1
7.310240273E0,5.242596865E-1,1.318666488E-1,3.045073450E-1
7.330350064E0,7.530219555E-1,-1.469851285E-1,2.721324563E-1
7.350459908E0,9.880454540E-1,-3.925457299E-1,2.544178963E-1
7.370569700E0,9.900307059E-1,-6.941515803E-1,3.165715933E-1
7.390679491E0,7.611156702E-1,-6.274164915E-1,2.999260128E-1
7.410789335E0,4.483618736E-1,-2.607554197E-1,1.852394342E-1
7.430899127E0,7.986827940E-2,-5.031854287E-2,5.894676223E-2
7.451008919E0,-2.898470163E-1,-1.459161341E-1,5.650337320E-3
7.471118762E0,-4.202629030E-1,-2.154000103E-1,1.725643501E-2
7.491228554E0,-1.441599578E-1,-1.071273386E-1,4.138490185E-2
7.511338346E0,2.331909388E-1,3.031329438E-2,6.276455522E-2
7.531448189E0,4.269822240E-1,-1.962346770E-2,1.130067408E-1
7.551557981E0,3.200839758E-1,-2.676274478E-1,1.493521482E-1
7.571667773E0,2.840439789E-2,-4.556156993E-1,2.000524700E-1
7.591777616E0,-3.756710514E-2,-3.847574294E-1,2.115058601E-1
7.611887408E0,7.406523079E-2,-1.776801944E-1,1.249182671E-1
7.631997200E0,-1.786728203E-2,9.170344472E-2,8.689302206E-2
7.652107044E0,-4.601207078E-1,2.604500055E-1,1.172826737E-1
7.672216835E0,-8.733588457E-1,3.939201236E-1,1.394258887E-1
7.692326627E0,-8.231166601E-1,3.363477588E-1,8.399149776E-2
7.712436471E0,-2.331909388E-1,-5.306735635E-2,3.787253052E-2
7.732546262E0,4.005630910E-1,-5.028036237E-1,4.413371533E-2
7.752656054E0,4.361449480E-1,-7.706601620E-1,1.140757278E-1
7.772765898E0,-2.192941606E-1,-7.700493336E-1,2.093679011E-1
7.792875689E0,-9.352071285E-1,-5.122717619E-1,2.356343269E-1
7.812985481E0,-9.280297160E-1,5.031854287E-2,1.363716573E-1
7.833095325E0,-1.203369126E-1,6.947624087E-1,-4.703523964E-2
7.853205116E0,5.111264586E-1,6.657471657E-1,-7.406523079E-2
7.873314908E0,3.490992188E-1,1.604237556E-1,-1.024696305E-1
7.893424752E0,-2.896943092E-1,8.628217503E-3,-5.955760926E-2
7.913534544E0,-7.692093849E-1,1.711135954E-1,-3.237490356E-2
7.933644335E0,-1.021183848E0,7.429429889E-2,4.871506989E-2
7.953754179E0,-1.293010950E0,-1.961583197E-1,1.939440072E-1
7.973863971E0,-1.189014196E0,-2.267770469E-2,1.768402755E-1
7.993973762E0,-6.404733658E-1,5.440358520E-1,-2.458660305E-2
8.014083606E0,-2.481566966E-1,8.832087517E-1,-2.214321345E-1
8.034193398E0,-3.042019308E-1,8.057838678E-1,-2.745758295E-1
8.054303241E0,-4.068242610E-1,5.443412662E-1,-2.299840003E-1
8.074413033E0,-7.223268598E-2,2.105132341E-1,-1.505738497E-1
8.094522825E0,5.563291311E-1,5.398362502E-2,-1.116323397E-1
8.114632616E0,9.465078115E-1,8.513683826E-2,-6.704048812E-2
8.134742460E0,9.145910740E-1,2.018086612E-1,-4.611896724E-2
8.154852252E0,5.732801557E-1,2.028776407E-1,-4.672981426E-2
8.174962044E0,2.298312783E-1,3.352024406E-2,-7.146912813E-2
8.195071887E0,3.985778242E-2,-2.143310308E-1,-1.255291104E-1
8.215181679E0,-1.649287529E-2,-4.637094140E-1,-1.562241912E-1
8.235291523E0,8.551862091E-3,-6.652890444E-1,-1.609582454E-1
8.255401314E0,4.749337584E-2,-5.770215988E-1,-1.948602796E-1
8.275511106E0,9.972081333E-2,-2.062373012E-1,-2.912214398E-1
8.295620898E0,1.128540337E-1,1.879118830E-1,-4.008685052E-1
8.315730741E0,4.306473210E-2,1.587439328E-1,-3.891097009E-1
8.335840533E0,6.062658876E-2,-3.337516785E-1,-2.583884001E-1
8.355950325E0,1.896680743E-1,-8.798491359E-1,-1.149920002E-1
8.376060169E0,3.019112647E-1,-9.166526794E-1,4.138490185E-2
8.396169960E0,2.832804024E-1,-4.091913104E-1,1.641651988E-1
8.416279752E0,7.406523079E-2,2.102078199E-1,2.171562016E-1
8.436389596E0,-3.171824515E-1,5.160895586E-1,1.143811494E-1
8.456499387E0,-4.847072959E-1,6.093965173E-1,-6.413896102E-3
8.476609179E0,-1.800472289E-1,5.883222818E-1,-9.498675168E-2
8.496719023E0,6.642963737E-2,2.158581465E-1,-5.176930502E-2
8.516828814E0,1.878355257E-2,-2.471640706E-1,2.052446753E-1
8.536938606E0,-1.368297935E-1,-3.806341887E-1,5.149442554E-1
8.557048450E0,-1.003316641E-1,-7.017108053E-2,6.270347238E-1
8.577158241E0,1.786728203E-2,2.459423840E-1,5.262449384E-1
8.597268033E0,1.763821393E-1,3.218401372E-1,4.868452549E-1
8.617377877E0,2.649549842E-1,1.188861504E-1,4.618005157E-1
8.637487669E0,1.956238300E-1,-2.557922900E-2,4.007157981E-1
8.657597512E0,1.470614821E-1,1.243837699E-1,3.159607351E-1
8.677707304E0,2.351761907E-1,3.343625069E-1,2.913741469E-1
8.697817096E0,3.833066523E-1,3.675009906E-1,3.616215885E-1
8.717926887E0,3.987305462E-1,1.532463133E-1,3.671191931E-1
8.738036731E0,1.721062213E-1,-1.752368063E-1,2.990097404E-1
8.758146523E0,-1.934858710E-1,-3.986541927E-1,1.453816444E-1
8.778256366E0,-4.448495209E-1,-3.759001195E-1,4.581354442E-4
8.798366158E0,-3.223746419E-1,-1.544679999E-1,-2.092151903E-2
8.818475950E0,5.772506446E-2,1.025459841E-1,9.162709117E-2
8.838585741E0,1.995943487E-1,1.011715755E-1,1.672194302E-1
8.858695585E0,-9.712471068E-2,-1.034622565E-1,1.409530044E-1
8.878805377E0,-4.017847776E-1,-3.566584289E-1,3.374931216E-2
8.898915221E0,-4.048390090E-1,-5.837408900E-1,-2.015795931E-2
8.919025012E0,-2.183778882E-1,-6.819345951E-1,5.115845799E-2
8.939134804E0,-7.330167107E-3,-4.597389102E-1,1.236965731E-1
8.959244648E0,2.643441558E-1,1.789018959E-1,2.550287358E-2
8.979354439E0,3.994941115E-1,2.399866134E-1,-1.779092699E-1
8.999464231E0,2.594573796E-1,-4.162160456E-1,-3.636068404E-1
9.019574075E0,2.837385535E-1,-7.938723564E-1,-1.455343664E-1
9.039683866E0,5.154023767E-1,-8.025769591E-1,1.801999360E-1
9.059793658E0,1.922641695E-1,-8.332720399E-1,2.116585821E-1
9.079903502E0,-8.687775135E-1,-6.562790275E-1,-4.046862945E-2
9.100013294E0,-1.725719810E0,-1.396549493E-1,-4.037700295E-1
9.120123085E0,-1.721443892E0,3.779617324E-2,-8.134958148E-1
9.140232929E0,-1.155264854E0,-3.046600707E-2,-1.028514028E0
9.160342721E0,-4.103366435E-1,-2.237228118E-2,-1.055467725E0
9.180452512E0,1.803526580E-1,6.803311408E-2,-9.535325766E-1
9.200562356E0,4.731011987E-1,1.732515544E-1,-8.683193922E-1
9.220672148E0,4.868452549E-1,2.599918544E-1,-8.105943203E-1
9.240781939E0,2.263189107E-1,2.062373012E-1,-7.404996157E-1
9.260891783E0,-8.460234851E-2,1.025459841E-1,-6.053496599E-1
9.281001575E0,-4.184303805E-2,6.497887522E-2,-4.057552814E-1
9.301111366E0,3.503209054E-1,-1.298050396E-3,-1.524063945E-1
9.321221210E0,7.785248160E-1,3.474193811E-2,4.291202128E-2
9.341331002E0,8.585458398E-1,8.971819282E-2,-1.450762246E-2
9.361440794E0,5.830537081E-1,3.184041381E-2,-1.924168915E-1
9.381550637E0,2.644968629E-1,-3.687990457E-2,-3.290939629E-1
9.401660429E0,8.292251825E-2,-5.734328553E-2,-3.191677034E-1
9.421770221E0,2.035648525E-1,6.467345357E-2,-1.907370538E-1
9.441880012E0,3.478775024E-1,2.270061076E-1,-4.153761268E-2
9.461989856E0,1.437018216E-1,1.902025640E-1,7.757759839E-2
9.482099648E0,-2.582356930E-1,2.112767994E-1,9.223793447E-2
9.502209491E0,-3.048127890E-1,6.064949632E-1,3.573456407E-2
9.522319283E0,3.344388679E-2,1.050886393E0,1.340809762E-1
9.542429075E0,2.412846684E-2,7.413395047E-1,3.898732662E-1
9.562538919E0,-2.292204350E-1,4.558447748E-2,5.885513425E-1
9.582648710E0,-9.788827598E-2,-3.015294671E-1,6.024481058E-1
9.602758502E0,2.872509360E-1,-4.313345253E-1,5.070032477E-1
9.622868346E0,5.612159371E-1,-2.488439083E-1,5.141806602E-1
9.642978137E0,5.326588154E-1,1.396549493E-1,5.053234100E-1
9.663087929E0,2.464768738E-1,5.284592509E-1,4.419479966E-1
9.683197773E0,-7.024743408E-2,6.497124434E-1,2.649549842E-1
9.703307564E0,-3.787252903E-1,5.083012581E-1,9.956810623E-2
9.723417356E0,-3.950654566E-1,3.442887962E-1,5.207473040E-2
9.743527200E0,-2.840439789E-2,2.144837379E-1,2.855710872E-2
9.763636991E0,2.875563502E-1,1.144575030E-1,9.162708884E-4
9.783746783E0,2.773246467E-1,1.004080176E-1,-9.162709117E-3
9.803856627E0,1.188097894E-1,8.131904155E-2,2.901524538E-3
9.823966419E0,6.597150117E-2,1.336228382E-2,7.146912813E-2
9.844076210E0,2.368560284E-1,-4.772244394E-2,1.861557066E-1
9.864186002E0,5.210527182E-1,-1.161373332E-1,2.699944973E-1
9.884295846E0,5.622848868E-1,-1.724879891E-1,2.583884001E-1
9.904405637E0,2.965663373E-1,-2.557159364E-1,2.052446753E-1
9.924515429E0,-5.344913527E-2,-3.013767600E-1,1.690519750E-1
9.944625273E0,-2.571666837E-1,-1.631725729E-1,1.843231618E-1
9.964735064E0,-2.626643181E-1,6.788039953E-2,1.977618039E-1
9.984844856E0,-1.540862173E-1,1.795127392E-1,2.276933193E-1
1.000495470E1,-1.116323397E-1,-7.711946499E-3,2.738122940E-1
1.002506449E1,-2.793098986E-1,-3.580328524E-1,2.689255178E-1
1.004517428E1,-4.196520746E-1,-5.215871930E-1,2.394521236E-1
1.006528413E1,-1.023169141E-2,1.290414855E-2,1.719534993E-1
1.008539392E1,6.409314871E-1,5.446466804E-1,5.024218559E-2
1.010550371E1,5.586197972E-1,3.339043856E-1,-1.238492802E-1
1.012561355E1,-2.188360244E-1,-7.811209559E-2,-4.553866386E-1
1.014572335E1,-1.062416077E0,-4.785224795E-1,-8.596147895E-1
1.016583314E1,-1.223221660E0,-6.965949535E-1,-1.036989570E0
1.018594298E1,-5.199837089E-1,-5.008183718E-1,-9.448279738E-1
1.020605277E1,1.441599578E-1,-2.844257653E-1,-7.258392572E-1
1.022616256E1,3.115320951E-2,-2.294494957E-1,-4.749337435E-1
1.024627241E1,-5.885513425E-1,-1.460688561E-1,-3.481829464E-1
1.026638220E1,-9.040539265E-1,1.486649513E-1,-4.260659516E-1
1.028649199E1,-5.662553906E-1,3.803287745E-1,-6.019899845E-1
1.030660184E1,-2.473931387E-2,3.297811747E-1,-6.276455522E-1
1.032671163E1,2.663294077E-1,-1.320957206E-2,-4.934118688E-1
1.034682142E1,2.255553454E-1,-3.021403253E-1,-3.397837877E-1
1.036693126E1,1.146865711E-1,-2.850365937E-1,-2.257080674E-1
1.038704105E1,2.032594234E-1,-4.711159319E-2,-1.866138428E-1
1.040715085E1,2.698417902E-1,8.681666851E-2,-9.773556143E-2
1.042726069E1,2.092151791E-1,3.611634299E-2,7.727217674E-2
1.044737048E1,1.472141892E-1,-1.886754483E-1,2.266243398E-1
1.046748027E1,1.856975704E-1,-3.734567463E-1,3.034383655E-1
1.048759006E1,2.418955117E-1,-3.728458881E-1,2.347180545E-1
1.050769991E1,1.852394342E-1,-2.680855989E-1,9.254335612E-2
1.052780970E1,1.072036922E-1,-1.173590273E-1,-2.443389036E-3
1.054791949E1,6.872031838E-2,-3.077143058E-2,4.734066315E-3
1.056802934E1,-9.315420873E-3,-2.512109280E-2,9.636115283E-2
1.058813913E1,-1.211004704E-1,1.219403818E-1,1.386623234E-1
1.060824892E1,-1.846285909E-1,5.515187383E-1,-2.137965336E-2
1.062835876E1,-2.454078794E-1,9.380323291E-1,-2.829749882E-1
1.064846855E1,-3.310792148E-1,7.109498382E-1,-2.153236568E-1
1.066857835E1,-1.128540337E-1,3.146626949E-1,3.480302393E-1
1.068868819E1,3.016058207E-1,7.841751724E-2,9.002361298E-1
1.070879798E1,2.683146596E-1,-5.826719403E-1,1.276823521E0
1.072890777E1,-4.065188468E-1,-1.066921115E0,1.399603724E0
1.074901762E1,-7.672241330E-1,-4.375956953E-1,9.793408513E-1
1.076912741E1,-5.378510356E-1,5.298336148E-1,3.213056624E-1
1.078923720E1,-3.217637837E-1,9.142093062E-1,4.886778072E-2
1.080934699E1,-2.522799075E-1,8.192225099E-1,1.282779276E-1
1.082945684E1,-1.511846930E-1,4.766899347E-1,2.898470163E-1
1.084956663E1,2.336490713E-2,1.546207070E-1,4.372139275E-1
1.086967642E1,1.324011385E-1,3.413109109E-2,5.034908652E-1
1.088978626E1,1.120904684E-1,1.243837699E-1,4.847072959E-1
1.090989605E1,9.254335612E-2,2.625879645E-1,4.031592011E-1
1.093000585E1,6.719319522E-2,3.035147190E-1,3.086305857E-1
1.095011569E1,4.092676565E-2,2.060845941E-1,2.753393948E-1
1.097022548E1,7.956285775E-2,-7.406522986E-3,2.846548259E-1
1.099033527E1,1.829487532E-1,-2.109713703E-1,2.735068500E-1
1.101044512E1,2.160872221E-1,-2.870218456E-1,2.721324563E-1
1.103055491E1,1.768402755E-1,-3.050418496E-1,2.881672084E-1
1.105066470E1,3.619270027E-2,-2.390703410E-1,3.272614181E-1
1.107077449E1,-1.024696305E-1,-1.091889478E-2,3.293993771E-1
1.109088434E1,-8.750387281E-2,2.500655949E-1,2.982461751E-1
1.111099413E1,-1.001789495E-1,1.915769726E-1,3.278722763E-1
1.113110392E1,-2.269297540E-1,-7.635590737E-5,4.178195298E-1
1.115121376E1,-2.932066917E-1,-4.695888236E-2,4.485146105E-1
1.117132355E1,-7.757759839E-2,2.577011883E-1,4.239279926E-1
1.119143335E1,4.396573007E-1,7.969266176E-1,5.063923597E-1
1.121154319E1,9.228374958E-1,7.080483437E-1,8.281561732E-1
1.123165298E1,8.541171551E-1,-4.386646748E-1,1.091431379E0
1.125176277E1,-2.174616307E-1,-1.897902489E0,1.041647315E0
1.127187256E1,-1.446104527E0,-2.020377398E0,4.749337435E-1
1.129198241E1,-1.376697063E0,-7.182800174E-1,-5.021164417E-1
1.131209220E1,-3.397837877E-1,6.859050989E-1,-1.039585710E0
1.133220199E1,3.038965166E-1,1.177942634E0,-8.057075143E-1
1.135231184E1,8.231166750E-2,6.950678229E-1,-3.671191931E-1
1.137242163E1,-6.235223413E-1,1.451525837E-1,-2.070772201E-1
1.139253142E1,-7.302678823E-1,2.004342526E-1,-3.652866483E-1
1.141264126E1,-6.200099736E-2,3.627669215E-1,-7.186617851E-1
1.143275105E1,5.578562617E-1,3.630723357E-1,-8.837432861E-1
1.145286085E1,6.662816405E-1,1.805817187E-1,-8.538117409E-1
1.147297064E1,3.523061574E-1,8.322793990E-3,-7.478297353E-1
1.149308048E1,6.352811307E-2,-1.488940232E-2,-6.314633489E-1
1.151319027E1,6.642963737E-2,2.909160033E-2,-6.358919740E-1
1.153330006E1,2.194468826E-1,-3.932329267E-2,-6.580352187E-1
1.155340991E1,3.345915973E-1,-2.622825503E-1,-6.835380793E-1
1.157351970E1,3.391729295E-1,-5.812975168E-1,-6.291726828E-1
1.159362949E1,3.106158376E-1,-8.192225099E-1,-5.457920432E-1
1.161373928E1,3.281776905E-1,-6.458946466E-1,-5.358657837E-1
1.163384913E1,3.556658030E-1,-1.350736022E-1,-6.219952106E-1
1.165395892E1,3.019112647E-1,3.972797990E-1,-6.668924689E-1
1.167406871E1,1.557660550E-1,5.258631110E-1,-6.058077812E-1
1.169417855E1,1.634016447E-2,5.099810958E-1,-4.819584787E-1
1.171428835E1,-3.497100621E-2,3.649048805E-1,-3.417690396E-1
1.173439814E1,-5.115845799E-2,-1.384332627E-1,-9.132166207E-2
1.175450793E1,1.785201132E-1,-2.644205093E-1,1.327065676E-1
1.177461777E1,4.656183124E-1,-1.404185146E-1,1.747023165E-1
1.179472756E1,3.620797098E-1,-2.891598344E-1,1.433963925E-1
1.181483736E1,-2.031067200E-2,-4.475219846E-1,8.597674966E-2
1.183494720E1,-1.120904684E-1,-3.565057218E-1,5.146388337E-2
1.185505699E1,9.009997360E-3,-3.215347230E-1,4.581354558E-2
1.187516678E1,-1.319430023E-1,-3.294757307E-1,1.241547018E-1
1.189527663E1,-3.035911024E-1,-3.138227761E-2,1.395785958E-1
1.191538642E1,-2.429644912E-1,3.531460762E-1,9.055810422E-2
1.193549621E1,-2.596100792E-3,5.446466804E-1,5.482354015E-2
1.195560600E1,2.512109280E-1,4.640148580E-1,5.482354015E-2
1.197571585E1,3.768927455E-1,1.674485058E-1,8.475505561E-2
1.199582564E1,3.048127890E-1,-1.249946207E-1,1.811162084E-1
1.201593543E1,1.750077456E-1,-1.358371526E-1,3.022166789E-1
1.203604527E1,2.141019702E-1,9.002361447E-2,3.096995652E-1
1.205615506E1,2.339545041E-1,2.011978179E-1,2.577775419E-1
1.207626486E1,8.979454637E-2,1.379751265E-1,3.009949923E-1
1.209637465E1,1.068982668E-2,-3.703261539E-2,3.826957941E-1
1.211648449E1,1.010952219E-1,-1.796654463E-1,4.208737612E-1
1.213659428E1,2.012741715E-1,-1.921878159E-1,3.888042867E-1
1.215670408E1,1.055238619E-1,-1.651578248E-1,3.324536085E-1
1.217681387E1,-1.433963925E-1,-1.553842723E-1,3.032856584E-1
1.219692371E1,-3.637595475E-1,-1.141520813E-1,2.622061968E-1
1.221703350E1,-4.740174711E-1,-5.062396824E-2,2.127275616E-1
1.223714329E1,-4.810422063E-1,-1.176644564E-1,1.776038408E-1
1.225725314E1,-4.813476503E-1,-3.461213410E-1,1.708845198E-1
1.227736293E1,-3.471139669E-1,-4.652365446E-1,1.285833418E-1
1.229747272E1,5.283828825E-2,-1.688229144E-1,3.756710514E-2
1.231758251E1,4.902049303E-1,1.095707268E-1,9.239064902E-2
1.233769236E1,4.799732268E-1,-2.844257653E-1,2.799207568E-1
1.235780215E1,4.856235534E-2,-5.235724449E-1,2.313583940E-1
1.237791194E1,-4.981459379E-1,-2.709871233E-1,-1.107160673E-1
1.239802178E1,-7.692093849E-1,-1.092653051E-1,-5.709894896E-1
1.241813158E1,-6.896465421E-1,-2.874799967E-1,-7.447755337E-1
1.243824137E1,-3.191677034E-1,-3.977379203E-1,-6.026008129E-1
1.245835116E1,1.101052165E-1,-3.233672678E-1,-3.362714052E-1
1.247846100E1,1.635543555E-1,-2.369323820E-1,-1.122431830E-1
1.249857079E1,-1.455343664E-1,1.756185899E-3,-3.756710514E-2
1.251868058E1,-3.875826001E-1,4.349996150E-1,-1.913478971E-1
1.253879038E1,-2.961082160E-1,7.549308538E-1,-4.637857676E-1
1.255890022E1,-9.468132257E-2,7.126296759E-1,-6.404733658E-1
1.257901001E1,-2.809897438E-2,4.342360497E-1,-6.478035450E-1
1.259911980E1,-1.556133330E-1,1.839413792E-1,-5.001311898E-1
1.261922965E1,-2.246390730E-1,2.103605270E-1,-2.870981991E-1
1.263933944E1,-1.688992679E-1,3.259633780E-1,-1.623326540E-1
1.265944923E1,-6.215370819E-2,4.091913104E-1,-9.987352788E-2
1.267955902E1,4.367557913E-2,2.911450863E-1,-1.123958975E-1
1.269966887E1,1.003316641E-1,-1.061347127E-2,-9.009996802E-2
1.271977866E1,1.748550236E-1,-1.914242655E-1,-3.558185324E-2
1.273988845E1,2.973299026E-1,-8.101361990E-2,-4.581354442E-4
1.275999829E1,4.187358022E-1,1.254527569E-1,2.336490713E-2
1.278010808E1,3.585673273E-1,1.952420622E-1,4.443913698E-2
1.280021788E1,6.734590977E-2,1.286597103E-1,7.421794534E-2
1.282032767E1,-2.092151791E-1,1.048366576E-1,5.665608495E-2
1.284043751E1,-1.669140160E-1,3.699443638E-1,1.771457121E-2
1.286054730E1,2.559449971E-1,9.135984182E-1,8.704573847E-3
1.288065710E1,6.562026739E-1,1.336457491E0,8.872556686E-2
1.290076689E1,5.077667832E-1,7.654679418E-1,2.539597452E-1
1.292087673E1,-8.994726092E-2,-2.558686435E-1,3.573456407E-1
1.294098652E1,-5.602996349E-1,-1.215815067E0,4.657710493E-1
1.296109631E1,-8.157865405E-1,-1.860640764E0,3.410054743E-1
1.298120616E1,-4.711159468E-1,-1.055162311E0,6.963659078E-2
1.300131595E1,2.502946556E-1,4.087331593E-1,-1.363716573E-1
1.302142574E1,4.182776511E-1,9.940775633E-1,-1.985253533E-3
1.304153553E1,1.435491070E-2,7.318713665E-1,3.356605768E-1
1.306164538E1,-6.024481058E-1,1.239256412E-1,5.222744346E-1
1.308175517E1,-8.557969928E-1,-1.036149636E-1,4.882196784E-1
1.310186496E1,-3.648285270E-1,1.947075687E-2,3.089359999E-1
1.312197475E1,3.506263196E-1,1.327829212E-1,2.116585821E-1
1.314208460E1,7.656970620E-1,6.604786217E-2,2.800734639E-1
1.316219439E1,8.005153537E-1,-7.750124484E-2,3.684936166E-1
1.318230418E1,6.117635369E-1,-8.651123941E-2,3.732276857E-1
1.320241402E1,3.839175105E-1,4.039227590E-2,2.634278834E-1
1.322252381E1,2.588465214E-1,1.582857966E-1,1.458397806E-1
1.324263361E1,2.168507725E-1,1.314085126E-1,6.902574003E-2
1.326274340E1,1.815743446E-1,-5.230379477E-2,3.222219273E-2
1.328285324E1,1.027750522E-1,-2.741940618E-1,4.627167806E-2
1.330296303E1,2.473931387E-2,-3.668901324E-1,9.865183383E-2
1.332307282E1,-3.283303976E-2,-2.569376230E-1,1.287360638E-1
1.334318262E1,-1.023169141E-2,2.680092305E-2,1.322484314E-1
1.336329246E1,5.436540768E-2,1.645469815E-1,1.090362370E-1
1.338340225E1,-5.268557742E-2,-4.466820508E-2,1.430909634E-1
1.340351204E1,-2.780882120E-1,-3.794125021E-1,1.985253543E-1
1.342362184E1,-3.658975065E-1,-4.802022874E-1,1.921114624E-1
1.344373168E1,-8.460234851E-2,1.028514057E-1,1.389677525E-1
1.346384147E1,2.449497581E-1,5.330405831E-1,1.343863904E-1
1.348395126E1,2.035648525E-1,3.088596463E-1,1.143811494E-1
1.350406111E1,-1.801999360E-1,-2.291440815E-1,4.642439261E-2
1.352417090E1,-6.902574301E-1,-9.181798100E-1,-7.635590737E-4
1.354428069E1,-6.629219651E-1,-1.155493975E0,-5.955760926E-2
1.356439048E1,-2.757975459E-1,-7.016344070E-1,-1.727170646E-1
1.358450032E1,-8.093725890E-2,1.132358089E-1,-1.643179059E-1
1.360461012E1,-1.513374150E-1,5.414397120E-1,-1.203369126E-1
1.362471991E1,-2.052446753E-1,5.689278841E-1,-1.023169160E-1
1.364482970E1,-4.474456236E-2,4.172850251E-1,-1.882936656E-1
1.366493954E1,2.044811249E-1,1.243837699E-1,-3.849864900E-1
1.368504934E1,2.386885732E-1,-1.343100369E-1,-5.789304972E-1
1.370515913E1,9.926267900E-3,-1.617981642E-1,-7.302678823E-1
1.372526897E1,-2.567085624E-1,2.313583903E-2,-8.287670016E-1
1.374537876E1,-3.686463237E-1,2.149418741E-1,-8.725953102E-1
1.376548855E1,-3.497100472E-1,2.761793137E-1,-8.383878469E-1
1.378559835E1,-2.502946556E-1,1.129303873E-1,-7.563816309E-1
1.380570819E1,-1.185043678E-1,-1.471378356E-1,-6.723901033E-1
1.382581798E1,3.817795310E-3,-2.358634025E-1,-5.995466113E-1
1.384592777E1,1.178935245E-1,-1.056002229E-1,-5.283828974E-1
1.386603756E1,1.982199401E-1,9.063446522E-2,-4.556920528E-1
1.388614741E1,1.864611208E-1,2.386122048E-1,-3.823903799E-1
1.390625720E1,8.093725890E-2,2.651840746E-1,-3.150444627E-1
1.392636699E1,-2.473931387E-2,2.073062956E-1,-2.860292196E-1
1.394647678E1,-1.055238619E-1,1.504974961E-1,-2.646495700E-1
1.396658663E1,-6.887302548E-2,1.798181683E-1,-1.522536725E-1
1.398669642E1,1.481304616E-1,2.774010003E-1,9.651386738E-2
1.400680621E1,4.323271513E-1,6.471163034E-1,3.655920923E-1
1.402691600E1,4.249969721E-1,6.753680110E-1,4.732539058E-1
1.404702585E1,1.418692768E-1,5.095229745E-1,5.085303187E-1
1.406713564E1,2.214321345E-1,8.451835513E-1,5.117372870E-1
1.408724543E1,5.450284481E-1,8.431982994E-1,4.995203316E-1
1.410735527E1,5.346440673E-1,-4.543176666E-2,6.601731777E-1
1.412746506E1,1.188097894E-1,-8.732824922E-1,1.028208613E0
1.414757486E1,-4.230117425E-2,-4.375956953E-1,1.149919987E0
1.416768465E1,2.727433145E-1,6.168794036E-1,9.045121074E-1
1.418779449E1,5.338805318E-1,1.215815067E0,7.327113152E-1
1.420790428E1,5.253286362E-1,1.191839337E0,7.718055248E-1
1.422801408E1,4.921901822E-1,9.015341997E-1,7.518002391E-1
1.424812387E1,5.053234100E-1,5.615977049E-1,6.398624778E-1
1.426823371E1,4.437805414E-1,2.219666243E-1,5.031854510E-1
1.428834350E1,2.484621257E-1,8.452598751E-2,4.482091665E-1
1.430845329E1,1.685938388E-1,1.291178465E-1,4.239279926E-1
1.432856308E1,2.255553454E-1,1.466796994E-1,3.874298632E-1
1.434867293E1,1.501157135E-1,1.137703005E-2,3.141281903E-1
1.436878272E1,1.249182671E-1,-8.017370477E-3,3.532224298E-1
1.438889251E1,2.489202619E-1,-1.900498569E-1,1.818797737E-1
1.440900236E1,5.818320066E-2,-4.760790765E-1,1.404948719E-2
1.442911215E1,-2.153236568E-1,-5.044834614E-1,-7.879929990E-2
1.444922194E1,-3.730749488E-1,-5.136461854E-1,-1.363716573E-1
1.446933173E1,-4.159869850E-1,-3.523825109E-1,-7.192726433E-2
1.448944158E1,-2.499892414E-1,-9.842276573E-2,5.344913527E-2
1.450955137E1,-5.344913341E-3,-2.664821222E-2,8.796200156E-2
1.452966116E1,7.482878864E-3,-1.483595222E-1,1.113269106E-1
1.454977095E1,-1.985253543E-1,-3.183277845E-1,7.070557028E-2
1.456988079E1,-3.608580232E-1,-3.392492831E-1,6.856760383E-2
1.458999058E1,-2.338017821E-1,-1.168245357E-2,6.688777357E-2
1.461010038E1,5.115845799E-2,1.851630807E-1,4.993676394E-2
1.463021017E1,1.551551968E-1,2.103605270E-1,-1.114796288E-2
1.465031996E1,1.745496094E-1,2.163162827E-1,-2.480039895E-1
1.467042980E1,7.589777559E-2,-1.908134073E-1,-4.523324072E-1
1.469053960E1,-2.435753495E-1,-9.592592716E-1,-4.358395338E-1
1.471064939E1,-5.564818382E-1,-1.146178484E0,-3.104631305E-1
1.473075923E1,-4.442386627E-1,-3.084014952E-1,-3.961344361E-1
1.475086902E1,-1.733279079E-1,4.197284281E-1,-5.980194807E-1
1.477097881E1,-1.797417998E-1,5.153260231E-1,-6.166502833E-1
1.479108861E1,-2.502946556E-1,3.468848765E-1,-5.665608048E-1
1.481119845E1,-1.206423342E-1,1.306449622E-1,-5.619794726E-1
1.483130824E1,1.165191159E-1,-3.245126083E-2,-6.055023670E-1
1.485141803E1,2.000524700E-1,-7.536327839E-2,-6.282563806E-1
1.487152783E1,4.443913698E-2,2.145601064E-2,-6.339067221E-1
1.489163767E1,-1.930277348E-1,2.062373012E-1,-6.380299330E-1
1.491174746E1,-2.615953386E-1,2.906869352E-1,-5.943543911E-1
1.493185725E1,-1.571404636E-1,1.802763045E-1,-4.198047817E-1
1.495196710E1,-1.131594554E-1,-1.511083394E-1,-1.870719790E-1
1.497207689E1,-1.757712960E-1,-3.586437106E-1,-3.420744836E-2
1.499218668E1,-1.061347127E-1,-3.247416615E-1,1.618745178E-2
1.501229647E1,6.719319522E-2,-2.267006934E-1,-5.039489828E-3
1.503240631E1,1.870719790E-1,-1.347681731E-1,7.024743594E-3
1.505251611E1,1.253764033E-1,-1.737096906E-1,1.175880991E-2
1.507262590E1,-8.154810965E-2,-2.154000103E-1,2.305948362E-2
1.509273569E1,-3.083251417E-1,-1.796654463E-1,2.015795931E-2
1.511284553E1,-4.912739098E-1,-1.840177365E-2,-9.468132630E-3
1.513295533E1,-4.732539058E-1,2.842730284E-1,-1.985253533E-3
1.515306512E1,-8.139539510E-2,6.283327341E-1,3.726168349E-2
1.517317491E1,3.335226178E-1,4.620296061E-1,1.020114943E-1
1.519328475E1,3.481829464E-1,-4.739411175E-1,1.942494214E-1
1.521339454E1,4.587462842E-1,-8.796964288E-1,2.948864996E-1
1.523350434E1,6.968240142E-1,-8.183062673E-1,2.302894145E-1
1.525361413E1,4.581354558E-1,-8.308286071E-1,2.321219593E-1
1.527372392E1,-2.831276953E-1,-5.444939733E-1,2.936648130E-1
1.529383376E1,-8.127322793E-1,2.401393354E-1,3.061871827E-1
1.531394355E1,-6.730009913E-1,7.645516992E-1,2.675510943E-1
1.533405335E1,-2.780882120E-1,6.793385148E-1,3.623851240E-1
1.535416314E1,1.363716573E-1,2.966426909E-1,5.459447503E-1
1.537427298E1,5.919110179E-1,-1.349208951E-1,6.520794630E-1
1.539438277E1,9.068027735E-1,-3.989596069E-1,5.978667736E-1
1.541449256E1,7.679877281E-1,-4.534777403E-1,4.378247857E-1
1.543460236E1,1.995943487E-1,-2.315874696E-1,2.707580328E-1
1.545471220E1,-1.136175916E-1,-1.750840992E-1,8.857285231E-2
1.547482199E1,2.255553454E-1,-6.710920930E-1,-1.385096163E-1
1.549493178E1,7.064448595E-1,-1.035309792E0,-2.615953386E-1
1.551504158E1,7.253811359E-1,-8.534299731E-1,-1.847812980E-1
1.553515142E1,2.841966748E-1,-3.991123140E-1,-3.512371704E-2
1.555526121E1,-2.426590770E-1,3.260397166E-2,6.505523622E-2
1.557537100E1,-4.986040890E-1,1.666849405E-1,4.703523964E-2
1.559548079E1,-5.312843919E-1,5.268557463E-3,-1.954711229E-2
1.561559064E1,-4.387410581E-1,-2.460950911E-1,-8.887827396E-2
1.563570043E1,-2.202104330E-1,-4.064424932E-1,-1.794363856E-1
1.565581022E1,-1.185043678E-1,-4.059843719E-1,-2.000524700E-1
1.567592001E1,-3.642176688E-1,-3.418453932E-1,-9.254335612E-2
1.569602986E1,-7.412631512E-1,-1.807344258E-1,5.696150661E-2
1.571613965E1,-8.861866593E-1,7.902836055E-2,1.185043678E-1
1.573624944E1,-8.754968047E-1,2.038702741E-2,-2.519745007E-2
1.575635923E1,-8.990144730E-1,-7.246175408E-2,-3.180987239E-1
1.577646908E1,-5.712949038E-1,3.221455812E-1,-5.746545792E-1
1.579657887E1,1.366770715E-1,4.258368909E-1,-6.485670805E-1
1.581668866E1,7.470661998E-1,-6.681142002E-2,-5.008947253E-1
1.583679845E1,6.985038519E-1,-6.210026145E-1,-2.961082160E-1
1.585690829E1,-6.444438547E-2,-6.489488482E-1,-3.087832928E-1
1.587701809E1,-7.973083854E-1,-1.637834162E-1,-5.468609929E-1
1.589712788E1,-9.148964882E-1,3.849101365E-1,-7.852441669E-1
1.591723767E1,-6.372663975E-1,7.013289928E-1,-7.829535007E-1
1.593734746E1,-2.536543310E-1,7.217923999E-1,-6.200099587E-1
1.595745730E1,1.420219839E-1,5.018873811E-1,-4.656183124E-1
1.597756710E1,4.065188468E-1,2.896179557E-1,-3.851391971E-1
1.599767689E1,3.581092060E-1,1.810398549E-1,-3.704788685E-1
1.601778668E1,3.283303976E-2,2.045574784E-1,-3.501681983E-1
1.603789652E1,-2.454078794E-1,2.063900232E-1,-3.058817685E-1
1.605800631E1,-2.229592502E-1,1.500393599E-1,-2.493783981E-1
1.607811611E1,6.872031838E-3,1.763821393E-2,-1.667613089E-1
1.609822590E1,2.257080674E-1,-1.259108931E-1,-1.154501289E-1
1.611833574E1,2.929012477E-1,-2.002815455E-1,-9.055810422E-2
1.613844553E1,1.798945218E-1,-2.350998372E-1,-3.878879920E-2
1.615855533E1,3.909422457E-2,-1.734042615E-1,2.229592577E-2
1.617866512E1,-3.512371797E-3,2.405211143E-2,2.000524849E-2
1.619877491E1,7.406523079E-2,2.964899838E-1,-5.451811850E-2
1.621888475E1,1.866138428E-1,3.346679509E-1,-1.053711548E-1
1.623899454E1,1.226275861E-1,6.940752268E-2,-5.207473040E-2
1.625910434E1,-4.963133857E-2,-1.184280142E-1,9.284878522E-2
1.627921413E1,-1.049130186E-1,5.993938819E-2,2.541124523E-1
1.629932397E1,-1.756185889E-1,2.757211924E-1,3.197785318E-1
1.631943376E1,-3.860554695E-1,3.077143058E-2,3.735330999E-1
1.633954355E1,-3.151971996E-1,-9.949174523E-2,4.158342779E-1
1.635965335E1,2.078407854E-1,8.727480471E-2,2.977880239E-1
1.637976314E1,4.947862923E-1,-1.095707268E-1,1.609582454E-1
1.639987298E1,1.024696305E-1,-6.458946466E-1,1.550024897E-1
1.641998277E1,-5.847335458E-1,-8.787801266E-1,2.619007528E-1
1.644009256E1,-8.011261821E-1,-3.997231722E-1,2.580829561E-1
1.646020236E1,-4.798205197E-1,2.442625463E-1,2.292204350E-1
1.648031220E1,-1.113269106E-1,4.994439781E-1,3.200839758E-1
1.650042199E1,8.735115826E-2,4.030828476E-1,4.779879749E-1
1.652053178E1,2.322746664E-1,2.468586415E-1,5.500679612E-1
1.654064158E1,2.739650011E-1,6.757497787E-2,5.178457499E-1
1.656075137E1,1.178935245E-1,-9.414683282E-2,4.741701782E-1
1.658086121E1,-1.635543555E-1,-1.405712217E-1,4.779879749E-1
1.660097100E1,-3.089359999E-1,-9.827005118E-2,5.050179958E-1
1.662108079E1,-2.026485801E-1,-9.704835713E-2,4.975350797E-1
1.664119058E1,-1.542389300E-2,-2.201340795E-1,4.877615273E-1
1.666130038E1,1.180462316E-1,-3.862845302E-1,4.585935771E-1
1.668141022E1,9.819369763E-2,-4.325562119E-1,3.814741075E-1
1.670152001E1,-5.192201585E-3,-2.922140658E-1,2.718270421E-1
1.672162980E1,-5.787777901E-2,-1.749313772E-1,1.956238300E-1
1.674173960E1,-5.283828825E-2,-1.973800212E-1,2.325800955E-1
1.676184944E1,7.941014133E-3,-2.083752751E-1,3.362714052E-1
1.678195923E1,1.409530044E-1,-1.682120711E-1,3.804051280E-1
1.680206902E1,2.588465214E-1,-1.204132661E-1,3.098522723E-1
1.682217881E1,1.861557066E-1,-2.183015347E-1,1.940967143E-1
1.684228861E1,-1.058292910E-1,-4.200338423E-1,7.925742865E-2
1.686239845E1,-3.300102353E-1,-4.418716431E-1,-5.344913341E-3
1.688250824E1,-2.858765125E-1,-2.439571172E-1,-4.963133857E-2
1.690261803E1,-1.337755471E-1,-6.971294433E-2,-5.558710173E-2
1.692272783E1,-2.971771955E-1,-3.470376134E-1,-1.114796288E-2
1.694283762E1,-5.404471159E-1,-3.786489367E-1,-2.687728032E-2
1.696294746E1,-5.166240931E-1,1.130831018E-1,-2.614426315E-1
1.698305725E1,-3.058817685E-1,5.286119580E-1,-7.146912813E-1
1.700316704E1,-3.603998944E-2,4.091913104E-1,-8.736643195E-1
1.702327684E1,3.552076817E-1,-4.161396995E-2,-6.607840061E-1
1.704338663E1,7.214106321E-1,-3.891860545E-1,-2.725905776E-1
1.706349647E1,6.852179170E-1,-3.809396327E-1,-9.697200358E-2
1.708360626E1,1.800472289E-1,3.458922729E-2,-2.307475507E-1
1.710371605E1,-3.339807391E-1,6.034407616E-1,-5.352548957E-1
1.712382585E1,-4.572191834E-1,8.909971118E-1,-7.444701195E-1
1.714393564E1,-2.751866877E-1,8.645779490E-1,-7.676823139E-1
1.716404548E1,-3.176405653E-2,5.464792252E-1,-6.140542030E-1
1.718415527E1,1.472141892E-1,1.634780020E-1,-3.594835997E-1
1.720426506E1,2.110477239E-1,5.505260825E-2,-2.275405973E-1
1.722437486E1,1.334701329E-1,2.132620513E-1,-2.328855246E-1
1.724448465E1,-4.214845970E-2,3.543677628E-1,-2.710634768E-1
1.726459449E1,-1.261399537E-1,3.345152438E-1,-2.512109280E-1
1.728470428E1,-4.367557913E-2,1.292705536E-1,-1.708845198E-1
1.730481408E1,9.086353332E-2,-5.627430230E-2,-7.207997888E-2
1.732492387E1,2.385358512E-1,-8.269345015E-2,-2.168507688E-2
1.734503366E1,2.715215981E-1,6.772769243E-2,2.794626169E-2
1.736514350E1,1.643179059E-1,2.425827235E-1,1.872246861E-1
1.738525329E1,9.498675168E-2,2.799971104E-1,3.139754832E-1
1.740536308E1,8.674030751E-2,2.830513418E-1,3.680354655E-1
1.742547288E1,1.650814712E-1,1.941730678E-1,3.541387022E-1
1.744558267E1,2.728960216E-1,1.550024934E-2,3.067980409E-1
1.746569246E1,4.052971601E-1,-3.275668249E-2,2.910687327E-1
1.748580230E1,3.900259733E-1,1.794363745E-2,2.463241518E-1
1.750591210E1,-4.504998401E-2,-4.143835008E-1,1.641651988E-1
1.752602189E1,-6.623111367E-1,-1.042487144E0,2.150182426E-1
1.754613168E1,-8.825215697E-1,-9.586484432E-1,2.982461751E-1
1.756624147E1,-5.439594984E-1,-2.070008665E-1,3.457395434E-1
1.758635131E1,-2.137965523E-3,5.269321203E-1,4.364503622E-1
1.760646111E1,4.059080184E-1,8.946621418E-1,5.430431962E-1
1.762657090E1,5.471664071E-1,7.019398808E-1,5.050179958E-1
1.764668069E1,3.579564989E-1,1.431673318E-1,3.356605768E-1
1.766679048E1,-6.612421572E-2,-3.126774430E-1,2.438807636E-1
1.768690032E1,-3.336753249E-1,-2.911450863E-1,2.261662036E-1
1.770701012E1,-2.652604282E-1,6.452073902E-2,2.310529798E-1
1.772711991E1,2.596100792E-3,3.968216479E-1,3.293993771E-1
1.774722970E1,3.391729295E-1,4.253787696E-1,3.539859951E-1
1.776733949E1,5.473191738E-1,1.676012129E-1,2.909159958E-1
1.778744928E1,5.563291311E-1,-1.511083394E-1,2.018850148E-1
1.780755908E1,4.005630910E-1,-3.174115121E-1,1.432436854E-1
1.782766892E1,1.417165697E-1,-1.773747802E-1,9.727742523E-2
1.784777871E1,-5.696150661E-2,1.449998617E-1,4.123219103E-2
1.786788850E1,-1.043021679E-1,3.332935274E-1,-1.328592747E-2
1.788799829E1,9.941539168E-2,3.201603293E-1,-7.773031294E-2
1.790810809E1,2.405211031E-1,1.412584260E-2,-7.956285775E-2
1.792821793E1,2.623589039E-1,-2.674747407E-1,-8.383878320E-2
1.794832772E1,2.614426315E-1,-2.117349356E-1,-1.253764033E-1
1.796843751E1,2.052446753E-1,4.115583375E-2,-2.034121305E-1
1.798854730E1,1.004843712E-1,1.515664756E-1,-2.451024652E-1
1.800865710E1,3.771981969E-2,5.344913807E-4,-2.594573796E-1
1.802876689E1,-2.382304333E-2,-1.688229144E-1,-2.637332976E-1
1.804887673E1,-4.321744293E-2,-1.488176584E-1,-2.915268540E-1
1.806898652E1,-4.886778072E-2,1.641651988E-2,-3.096995652E-1
1.808909631E1,-5.161659420E-2,1.581330895E-1,-3.034383655E-1
1.810920611E1,-4.963133857E-2,1.617981642E-1,-2.677038014E-1
1.812931590E1,-3.054236248E-2,6.864395738E-2,-2.241809368E-1
1.814942569E1,9.162708884E-4,-3.718532622E-2,-1.847812980E-1
1.816953553E1,6.520794332E-2,-8.696937561E-2,-1.464506239E-1
1.818964532E1,8.948912472E-2,-1.020878479E-1,-1.159082651E-1
1.820975512E1,6.261184346E-3,-1.008661538E-1,-9.987352788E-2
1.822986491E1,-1.453816444E-1,-1.266744435E-1,-1.053711548E-1
1.824997470E1,-2.357870489E-1,-7.368344814E-2,-1.136175916E-1
1.827008449E1,-1.876828223E-1,2.344126441E-2,-1.224748790E-1
1.829019428E1,-9.727742523E-2,5.352549255E-2,-9.834641218E-2
1.831030413E1,-6.780404598E-2,-7.711946499E-3,-5.787777901E-2
1.833041392E1,-7.910472155E-2,-1.034622565E-1,-3.512371704E-2
1.835052371E1,-9.315420687E-2,-1.208714023E-1,-2.962609194E-2
1.837063350E1,-1.238492802E-1,-4.054498672E-2,-1.893626526E-2
1.839074329E1,-1.762294322E-1,6.238277629E-2,-8.551862091E-3
1.841085308E1,-2.191414535E-1,1.213295385E-1,8.093725890E-3
1.843096288E1,-1.875301152E-1,1.353790164E-1,2.305948362E-2
1.845107272E1,-1.180462316E-1,9.353598952E-2,3.313846514E-2
1.847118251E1,-5.054761097E-2,2.435753495E-2,4.398100078E-2
1.849129230E1,-9.773556143E-3,-1.519482583E-2,6.352811307E-2
1.851140210E1,-1.542389300E-2,8.780929260E-3,7.727217674E-2
1.853151189E1,-6.184828654E-2,4.512634128E-2,8.017370105E-2
1.855162168E1,-1.036913246E-1,7.857023180E-2,7.803573459E-2
1.857173147E1,-1.014006436E-1,7.093463838E-2,6.826218218E-2
1.859184131E1,-8.460234851E-2,4.268295318E-2,7.345438004E-2
1.861195111E1,-3.497100621E-2,4.222481698E-2,8.002099395E-2
1.863206090E1,-1.847812906E-2,2.573194169E-2,7.101099193E-2
1.865217069E1,-6.123743951E-2,3.825430945E-2,6.077930331E-2
1.867228048E1,-8.215895295E-2,8.437328041E-2,3.329117596E-2
1.869239027E1,-7.314895838E-2,9.552124143E-2,1.740914769E-2
1.871250006E1,-4.428642616E-2,5.657972768E-2,1.817270555E-2
1.873260986E1,-1.832541823E-2,1.901262067E-2,2.290677279E-2
1.875271970E1,-2.840439789E-2,3.741439432E-3,2.809897438E-2
1.877282949E1,-5.008947477E-2,1.641651988E-2,2.764083818E-2
1.879293928E1,-5.528167635E-2,3.061871976E-2,1.908897609E-2
1.881304908E1,-5.146388337E-2,2.405211143E-2,1.160609815E-2
1.883315887E1,-4.504998401E-2,-1.305686031E-2,1.435491070E-2
1.885326866E1,-2.718270384E-2,-2.802261710E-2,2.000524849E-2
1.887337845E1,-2.214321308E-2,-1.763821393E-2,1.740914769E-2
1.889348824E1,-4.031591862E-2,-4.810422193E-3,1.832541823E-2
1.891359808E1,-5.039490014E-2,3.000787087E-2,5.650337320E-3
1.893370788E1,-4.092676565E-2,5.474718660E-2,1.527118147E-4
1.895381767E1,-1.313321572E-2,4.146125913E-2,3.054236295E-4
1.897392746E1,2.443389036E-3,7.711946499E-3,-2.748812549E-3
1.899403725E1,3.817795310E-3,-3.000787087E-2,-2.443389036E-3
1.901414704E1,-1.374406274E-3,-1.641651988E-2,1.832541777E-3
1.903425684E1,-9.773556143E-3,7.253811229E-3,-1.985253533E-3
1.905436663E1,-2.061609551E-2,1.748550311E-2,-3.206948051E-3
1.907447642E1,-3.542914242E-2,9.697199799E-3,4.123218823E-3
1.909458626E1,-4.199574888E-2,2.176143415E-2,9.468132630E-3
1.911469605E1,-5.268557742E-2,2.176143415E-2,8.399149403E-3
1.913480585E1,-6.551336497E-2,2.451024577E-2,1.572931744E-2
1.915491564E1,-5.115845799E-2,4.543176666E-2,1.771457121E-2
1.917502543E1,-3.130592033E-2,5.948125198E-2,1.282779220E-2
1.919513522E1,-8.551862091E-3,3.458922729E-2,7.941014133E-3
1.921524501E1,1.298050396E-2,-9.697199799E-3,-6.108472589E-4
1.923535480E1,1.740914769E-2,-1.336228382E-2,-1.282779220E-2
1.925546460E1,4.581354558E-3,5.421269219E-3,-2.672456764E-2
1.927557439E1,-9.009997360E-3,2.710634656E-2,-2.779355086E-2
1.929568423E1,-1.908897609E-2,3.794888780E-2,-3.237490356E-2
1.931579402E1,-1.725643501E-2,3.932329267E-2,-2.458660305E-2
1.933590381E1,7.788302377E-3,3.336753324E-2,-1.634016447E-2
1.935601361E1,4.382828996E-2,1.595838554E-2,-4.581354558E-3
1.937612340E1,1.148392856E-1,-8.780929260E-3,1.068982668E-2
1.939623319E1,1.708845198E-1,-2.832804248E-2,2.336490713E-2
1.941634298E1,1.805053651E-1,-3.749075159E-2,3.176405653E-2
1.943645277E1,1.424801201E-1,-2.313583903E-2,2.702999115E-2
1.945656256E1,8.185353130E-2,1.672194339E-2,1.466033421E-2
1.947667236E1,5.467082933E-2,6.207735091E-2,6.413896102E-3
1.949678220E1,7.864658535E-2,4.879142344E-2,1.527118147E-3
1.951689199E1,1.009425074E-1,-1.916533336E-2,-3.359660041E-3
1.953700178E1,6.398624927E-2,-8.513683826E-2,-1.328592747E-2
1.955711158E1,-3.817795310E-3,-5.505260825E-2,-2.535016090E-2
1.957722137E1,-3.710897267E-2,-2.519744914E-3,-3.619270027E-2
1.959733116E1,-5.039490014E-2,-3.741439432E-3,-3.466558084E-2
1.961744095E1,-5.329642445E-2,-2.451024577E-2,-3.038965166E-2
1.963755074E1,-5.039490014E-2,-3.779617324E-2,-3.848337755E-2
1.965766053E1,-6.352811307E-2,-3.092414327E-2,-3.313846514E-2
1.967777032E1,-6.642963737E-2,-3.321481869E-2,-3.237490356E-2
1.969788012E1,-4.963133857E-2,-4.359922186E-2,-2.840439789E-2
1.971798991E1,-2.825168520E-2,-5.551074445E-2,-1.969982497E-2
1.973809975E1,-1.710372418E-2,-5.535803363E-2,-1.084253844E-2
1.975820954E1,-3.130592033E-2,-4.253023863E-2,-9.620844387E-3
1.977831934E1,-3.084778599E-2,-3.657447919E-2,-1.404948719E-2
1.979842913E1,-1.695101149E-2,-3.657447919E-2,-2.336490713E-2
1.981853892E1,-7.482878864E-3,-3.184041381E-2,-3.298575059E-2
1.983864871E1,-2.031067200E-2,-2.802261710E-2,-3.206948191E-2
1.985875850E1,-4.489727318E-2,-2.359397523E-2,-3.558185324E-2
1.987886829E1,-6.139015034E-2,-4.352286924E-3,-3.894151375E-2
1.989897808E1,-6.108472496E-2,5.879404955E-3,-3.558185324E-2
1.991908788E1,-5.176930502E-2,1.076618303E-2,-2.916795574E-2
1.993919767E1,-3.420744836E-2,9.086352773E-3,-2.015795931E-2
1.995930746E1,-1.618745178E-2,-4.199574701E-3,-5.344913341E-3
1.997941725E1,-1.679830020E-3,2.977880416E-3,6.566607859E-3
1.999952704E1,-1.221694518E-3,2.214321401E-3,7.330167107E-3
2.001963684E1,-1.252236869E-2,-2.061609412E-3,5.192201585E-3
2.003974663E1,-1.267508045E-2,6.490251981E-3,-2.443389036E-3
2.005985642E1,8.551862091E-3,1.290414855E-2,-8.551862091E-3
2.007996621E1,1.282779220E-2,7.864658721E-3,-3.970507067E-3
2.010007605E1,9.773556143E-3,-7.711946499E-3,4.428642802E-3
2.012018585E1,2.901524538E-3,-2.084516361E-2,2.748812549E-3
2.014029564E1,-9.773556143E-3,-1.763821393E-2,-2.596100792E-3
2.016040543E1,-1.542389300E-2,-3.588727675E-3,-5.803049076E-3
2.018051522E1,-9.468132630E-3,-5.421269219E-3,-1.374406274E-3
2.020062501E1,5.192201585E-3,-4.046862945E-3,9.162709117E-3
2.022073480E1,1.084253844E-2,-7.559234742E-3,1.145338640E-2
2.024084460E1,-3.512371797E-3,1.580567285E-2,1.298050396E-2
2.026095439E1,-1.679829881E-2,2.924431302E-2,1.389677543E-2
2.028106418E1,-1.832541777E-3,2.786990628E-2,3.206948051E-3
2.030117397E1,2.092151903E-2,8.628217503E-3,5.344913341E-3
2.032128376E1,2.290677279E-2,-2.069245093E-2,1.481304597E-2
2.034139355E1,5.497625098E-3,3.588727675E-3,1.954711229E-2
2.036150335E1,-1.068982761E-3,3.917058185E-2,1.053711493E-2
2.038161314E1,-7.330167107E-3,2.817532979E-2,9.009997360E-3
2.040172293E1,-6.719320081E-3,5.573981442E-3,1.236965694E-2
2.042183272E1,2.153236605E-2,1.382041909E-2,6.719320081E-3
2.044194251E1,2.137965336E-2,8.475505747E-3,6.413896102E-3
2.046205230E1,-1.145338640E-2,-4.352286924E-3,9.773556143E-3
2.048216210E1,-2.840439789E-2,1.382041909E-2,2.137965523E-3
2.050227189E1,-3.436015919E-2,2.603736520E-2,-3.054236295E-3
2.052238168E1,-2.535016090E-2,1.977618039E-2,-3.512371797E-3
2.054249147E1,-1.832541777E-3,9.926267667E-4,-5.497625098E-3
2.056260126E1,2.000524849E-2,-1.748550311E-2,-7.788302377E-3
2.058271105E1,1.924168877E-2,-7.406522986E-3,-1.130067464E-2
2.060282085E1,3.359660041E-3,1.473669056E-2,-1.450762246E-2
2.062293064E1,2.596100792E-3,2.405211143E-2,-1.404948719E-2
2.064304043E1,1.450762246E-2,1.488940232E-2,-1.939439960E-2
2.066315022E1,2.000524849E-2,-3.436015919E-3,-2.412846684E-2
2.068326001E1,2.962609194E-2,-9.239064530E-3,-1.618745178E-2
2.070336986E1,4.245388508E-2,-1.046075951E-2,-1.481304597E-2
2.072347960E1,3.726168349E-2,-1.229330152E-2,-1.817270555E-2
2.074358939E1,3.405473381E-2,-2.283041552E-2,-1.801999472E-2
2.076369918E1,2.611372061E-2,-2.130329795E-2,-1.527118124E-2
2.078380902E1,-9.162709117E-3,4.352286924E-3,-1.374406368E-2
2.080391881E1,-3.924693540E-2,3.855973482E-2,-1.038440317E-2
2.082402855E1,-4.443913698E-2,3.535278514E-2,-1.527118147E-4
2.084413835E1,-1.985253580E-2,1.519482583E-2,7.024743594E-3
2.086424819E1,5.497625098E-3,-1.397313084E-2,5.803049076E-3
2.088435793E1,2.153236605E-2,-1.626380906E-2,3.512371797E-3
2.090446777E1,2.611372061E-2,2.214321401E-3,-1.221694518E-3
2.092457756E1,8.857285604E-3,7.101099472E-3,-6.566607859E-3
2.094468730E1,1.679830020E-3,7.711946499E-3,-7.635590620E-3
2.096479715E1,-6.719320081E-3,-1.030804776E-2,-9.315420873E-3
2.098490689E1,-7.788302377E-3,-2.519744914E-3,-1.404948719E-2
2.100501668E1,-2.748812549E-3,9.086352773E-3,-1.756185852E-2
2.102512647E1,-1.679830020E-3,8.933641016E-3,-1.557660475E-2
2.104523626E1,1.771457121E-2,-1.275143679E-2,-1.588202827E-2
2.106534605E1,3.894151375E-2,-2.664821222E-2,-1.511846948E-2
2.108545585E1,5.711421743E-2,-1.259872504E-2,-1.450762246E-2
2.110556564E1,6.505523622E-2,-1.672194339E-2,-5.192201585E-3
2.112567543E1,6.551336497E-2,-2.634278871E-2,2.305948362E-2
2.114578522E1,7.681404054E-2,-5.268557463E-3,4.275930673E-2
2.116589501E1,7.284353673E-2,2.817532979E-2,1.252236869E-2
2.118600480E1,6.230641901E-2,9.697199799E-3,-1.007897966E-2
2.120611460E1,5.955760926E-2,-3.703261539E-2,-2.473931387E-2
2.122622439E1,5.619794875E-2,-2.909160033E-2,-3.191677108E-2
2.124633418E1,3.084778599E-2,1.450762269E-3,-3.939964995E-2
2.126644397E1,-6.261184346E-3,1.855448633E-2,-4.474456236E-2
2.128655376E1,-8.704573847E-3,4.810422193E-3,-5.497625470E-2
2.130666355E1,4.734066315E-3,-8.628217503E-3,-5.558710173E-2
2.132677335E1,3.359660041E-3,-3.122956678E-2,-4.428642616E-2
2.134688314E1,-1.695101149E-2,-4.527905211E-2,-4.062134400E-2
2.136699293E1,-5.146388337E-2,-1.885990985E-2,-3.787253052E-2
2.138710272E1,-6.765133142E-2,2.649549954E-2,-3.512371704E-2
2.140721251E1,-5.085303262E-2,3.962871432E-2,-2.214321308E-2
2.142732230E1,-1.572931744E-2,-9.086352773E-3,-7.330167107E-3
2.144743210E1,1.618745178E-2,-6.375718117E-2,2.443389036E-3
2.146754189E1,6.459710002E-2,-8.299887180E-2,-5.192201585E-3
2.148765168E1,5.024218559E-2,-7.704310864E-2,7.941014133E-3
2.150776147E1,2.901524538E-3,-4.046862945E-3,-1.511846948E-2
2.152787126E1,1.740914769E-2,4.405735806E-2,-3.252761811E-2
2.154798105E1,7.498150319E-2,2.863346599E-2,-2.672456764E-2
2.156809085E1,1.259872466E-1,-2.603736520E-2,-1.603474095E-2
2.158820059E1,9.865183383E-2,-4.191939160E-2,2.596100792E-3
2.160831038E1,2.596100792E-2,-7.559234742E-3,4.275931045E-3
2.162842017E1,-6.872031838E-3,5.016583204E-2,-2.061609551E-2
2.164852996E1,3.817795310E-3,6.177192926E-2,-3.115320951E-2
2.166863975E1,2.840439789E-2,2.451024577E-2,-2.443389036E-2
2.168874954E1,5.222744122E-2,-4.810422193E-3,-1.634016447E-2
2.170885934E1,5.283828825E-2,-2.367033157E-3,-4.428642802E-3
2.172896913E1,3.726168349E-2,5.879404955E-3,8.246437646E-3
2.174907892E1,4.199574888E-2,5.573981442E-3,1.908897609E-2
2.176918871E1,8.093725890E-2,1.145338640E-3,2.764083818E-2
2.178929850E1,1.363716573E-1,-1.718007959E-2,3.970507160E-2
2.180940829E1,1.647760421E-1,-3.581092134E-2,4.825693369E-2
2.182951808E1,1.227803007E-1,-3.046600707E-2,4.443913698E-2
2.184962788E1,8.689302206E-2,3.588727675E-3,3.466558084E-2
2.186973767E1,4.917320609E-2,1.687465608E-2,3.787253052E-2
2.188984741E1,1.756185852E-2,1.870719716E-2,3.863608837E-2
2.190995720E1,9.620844387E-3,1.473669056E-2,1.985253580E-2
2.193006699E1,6.261184346E-3,1.473669056E-2,4.275931045E-3
2.195017678E1,1.801999472E-2,-5.268557463E-3,-1.175880991E-2
2.197028658E1,2.779355086E-2,-1.320957206E-2,-1.740914769E-2
2.199039637E1,2.321219631E-2,-2.099787444E-2,-2.076880634E-2
2.201050616E1,-7.024743594E-3,-1.565296017E-2,-2.596100792E-2
2.203061595E1,-5.360184610E-2,-2.672456671E-3,-2.199050039E-2
2.205072574E1,-8.063183725E-2,5.573981442E-3,-1.084253844E-2
2.207083553E1,-5.451811850E-2,8.399150101E-4,-9.315420873E-3
2.209094532E1,-1.542389300E-2,-1.748550311E-2,-5.192201585E-3
2.211105512E1,-7.330167107E-3,-2.328855172E-2,-1.038440317E-2
2.213116486E1,1.511846948E-2,-8.628217503E-3,-2.916795574E-2
2.215127465E1,8.964183182E-2,-1.046075951E-2,-3.802524135E-2
2.217138444E1,1.598892659E-1,-3.749075159E-2,-2.550287358E-2
2.219149423E1,1.605001241E-1,-5.215108395E-2,-1.084253844E-2
2.221160402E1,9.101624042E-2,-2.863346599E-2,4.275931045E-3
2.223171381E1,2.412846684E-2,1.107160654E-2,1.466033421E-2
2.225182361E1,4.581354442E-4,1.992889121E-2,1.007897966E-2
2.227193340E1,1.634016447E-2,-5.726693198E-3,-0.000000000E0
2.229204319E1,6.474980712E-2,-4.222481698E-2,-1.985253533E-3
2.231215298E1,8.750387281E-2,-4.527905211E-2,-1.191152167E-2
2.233226272E1,6.337540597E-2,-1.412584260E-2,-7.788302377E-3
2.235237251E1,3.665083554E-3,2.160872146E-2,-1.236965694E-2
2.237248230E1,-6.490252167E-2,2.557922900E-2,-1.969982497E-2
2.239259210E1,-8.154810965E-2,2.695363574E-2,-2.382304333E-2
2.241270189E1,-5.421269313E-2,3.199312463E-2,-1.435491070E-2
2.243281168E1,-1.710372418E-2,3.061871976E-2,7.330167107E-3
2.245292147E1,3.665083554E-3,1.992889121E-2,5.039489828E-3
2.247303126E1,6.566607859E-3,2.374668792E-2,-2.290677279E-3
2.249314105E1,2.382304333E-2,1.336228382E-2,-1.313321572E-2
2.251325079E1,5.085303262E-2,4.963133950E-3,-1.359135192E-2
2.253336058E1,6.856760383E-2,-6.642963737E-3,-1.466033421E-2
2.255347038E1,9.071081877E-2,-3.199312463E-2,-6.108472589E-4
2.257358017E1,1.546970755E-1,-1.161373332E-1,4.459185153E-2
2.259368996E1,1.933331639E-1,-2.015032321E-1,7.192726433E-2
2.261379975E1,1.180462316E-1,-1.479013860E-1,5.909947306E-2
2.263390954E1,2.382304333E-2,-3.367295489E-2,2.641914412E-2
2.265401928E1,-4.230117425E-2,5.902311578E-2,1.374406368E-2
2.267412908E1,-7.956285775E-2,7.918107510E-2,6.566607859E-3
2.269423887E1,-7.070557028E-2,3.153498843E-2,-3.054236295E-4
2.271434866E1,-3.649812192E-2,-1.061347127E-2,-2.596100792E-3
2.273445845E1,-8.551862091E-3,1.908897655E-3,3.054236295E-3
2.275456824E1,-4.734066315E-3,2.939702384E-2,8.704573847E-3
2.277467803E1,-1.817270555E-2,5.092938989E-2,1.313321572E-2
2.279478777E1,-2.412846684E-2,5.154023692E-2,8.246437646E-3
2.281489756E1,7.941014133E-3,3.046600707E-2,-3.054236295E-3
2.283500736E1,6.001574174E-2,3.588727675E-3,-9.162709117E-3
2.285511715E1,8.735115826E-2,-5.115845706E-3,-2.107422985E-2
2.287522694E1,9.452861547E-2,6.642963737E-3,-1.817270555E-2
2.289533673E1,1.026223376E-1,-6.795675959E-3,1.068982668E-2
2.291544647E1,1.033858955E-1,-7.261446863E-2,3.649812192E-2
2.293555626E1,8.002099395E-2,-1.318666488E-1,3.909422457E-2
2.295566605E1,4.230117425E-2,-1.211768240E-1,3.680354729E-2
2.297577585E1,8.704573847E-3,-6.131379306E-2,2.809897438E-2
2.299588564E1,-5.955760833E-3,-8.322793990E-3,3.130592033E-2
2.301599543E1,-4.489727318E-2,2.191414498E-2,4.184303805E-2
2.303610522E1,-1.114796251E-1,2.130329795E-2,3.374931216E-2
2.305621496E1,-1.575985998E-1,1.259872504E-2,2.244863659E-2
2.307632475E1,-2.084516287E-1,4.955498502E-2,-6.108472589E-3
2.309643454E1,-4.297310412E-1,2.494547516E-1,-4.581354558E-2
2.311654434E1,-3.124483824E-1,2.674747407E-1,-5.573981255E-2
2.313665413E1,-2.932066843E-2,1.094180122E-1,-5.100574717E-2
2.315676392E1,2.333436459E-1,-1.486649513E-1,-6.261184346E-3
2.317687366E1,4.341596961E-1,-3.607816696E-1,-1.084253844E-2
2.319698345E1,4.100312293E-1,-3.168006539E-1,-1.328592747E-2
