"Time (s)","Acceleration x (m/s^2)","Acceleration y (m/s^2)","Acceleration z (m/s^2)"
1.633990100E-2,2.799602449E-1,4.107280254E0,9.448657990E0
3.645000500E-2,2.620140910E-1,4.056432724E0,9.366106033E0
5.656016100E-2,2.584248483E-1,4.042674065E0,9.327820778E0
7.667026500E-2,1.956132501E-1,4.234697819E0,8.849854469E0
9.678036900E-2,3.194418252E-1,4.380061626E0,8.365905762E0
1.168905260E-1,5.000999570E-1,4.443471432E0,8.520243645E0
1.370006300E-1,5.156532526E-1,4.457230568E0,9.008976936E0
1.571107860E-1,4.540380836E-1,4.339982033E0,9.170493126E0
1.772208900E-1,3.320041299E-1,4.279563427E0,9.020342827E0
1.973310460E-1,2.327020019E-1,4.258625984E0,8.861220360E0
2.174411510E-1,3.104687333E-1,4.247260094E0,8.895915985E0
2.375513070E-1,1.998006850E-1,4.239483356E0,8.766105652E0
2.576614110E-1,7.477571070E-2,4.258625984E0,8.646464348E0
2.777715670E-1,1.214357466E-1,4.314857483E0,8.627920151E0
2.978816710E-1,5.862415582E-2,4.302295208E0,8.708079338E0
3.179918280E-1,-4.785645287E-3,4.156930923E0,8.798408508E0
3.381019320E-1,-8.135596663E-2,4.042075634E0,8.901898384E0
3.582120880E-1,1.316052489E-2,3.990031719E0,9.020342827E0
3.783221920E-1,8.075776696E-2,3.990031719E0,8.954540253E0
3.984322960E-1,4.905286431E-2,4.072584152E0,8.770891190E0
4.185424530E-1,-5.324030295E-2,4.112663746E0,8.682954788E0
4.386525570E-1,-2.021935135E-1,4.060619831E0,8.694919586E0
4.587627130E-1,-1.692921966E-1,4.018745422E0,8.884550095E0
4.788728170E-1,-1.196411345E-2,4.050450325E0,9.223134995E0
4.989829730E-1,9.152546525E-2,4.067200184E0,9.530612946E0
5.190930780E-1,5.443671346E-2,4.013361931E0,9.589237213E0
5.392032340E-1,-1.615155302E-2,3.934398651E0,9.367302895E0
5.593133380E-1,2.213360928E-2,3.955934048E0,9.052047729E0
5.794234940E-1,1.734796464E-1,3.927220106E0,9.021539688E0
5.995335980E-1,2.027917206E-1,3.862015724E0,9.201599121E0
6.196437550E-1,2.650051117E-1,3.821337700E0,9.348159790E0
6.397538590E-1,2.757728100E-1,3.740580082E0,9.489934921E0
6.598640150E-1,1.866401732E-1,3.658625841E0,9.589835167E0
6.799741190E-1,7.238288224E-2,3.645465374E0,9.446864128E0
7.000842760E-1,-4.426721856E-2,3.676572084E0,8.883952141E0
7.201943800E-1,2.991028363E-3,3.738785267E0,8.568697929E0
7.403045360E-1,2.488535494E-1,3.832703590E0,8.857631683E0
7.604146400E-1,3.726821244E-1,3.771088600E0,9.208778381E0
7.805247960E-1,3.164508045E-1,3.702294827E0,9.414560318E0
8.006349010E-1,2.261217386E-1,3.661616802E0,9.498309135E0
8.207450570E-1,1.788634956E-1,3.626920938E0,9.343374252E0
8.408551610E-1,2.907279432E-1,3.654438496E0,9.239286423E0
8.609653170E-1,3.074777126E-1,3.655036688E0,9.264410973E0
8.810754210E-1,2.452643216E-1,3.602992773E0,9.300303459E0
9.011855780E-1,1.142572835E-1,3.629313707E0,9.370293617E0
9.212956820E-1,1.322034448E-1,3.629911900E0,9.373882294E0
9.414058380E-1,2.195414752E-1,3.648456335E0,9.374481201E0
9.615159420E-1,3.002992272E-1,3.630510092E0,9.528220177E0
9.816260980E-1,2.039881349E-1,3.576671600E0,9.394820213E0
1.001736203E0,1.543370634E-1,3.576073408E0,9.200403214E0
1.021846359E0,3.852444589E-1,3.576073408E0,9.231510162E0
1.041956515E0,4.456632137E-1,3.602394581E0,9.273384094E0
1.062066619E0,4.552344978E-1,3.625126362E0,9.222537041E0
1.082176723E0,5.443671346E-1,3.641875982E0,9.105886459E0
1.102286880E0,5.054838061E-1,3.684946775E0,9.067601204E0
1.122397036E0,4.540380836E-1,3.674777269E0,9.096913338E0
1.142507140E0,4.534398913E-1,3.639483213E0,9.021539688E0
1.162617296E0,5.527420044E-1,3.650849104E0,8.943174362E0
1.182727401E0,6.334998012E-1,3.653840065E0,9.054440498E0
1.202837557E0,7.537391186E-1,3.657429457E0,9.291928291E0
1.222947661E0,7.351947427E-1,3.653241873E0,9.541379929E0
1.243057817E0,6.729813814E-1,3.626322746E0,9.527621269E0
1.263167921E0,6.095715761E-1,3.640679598E0,9.288937569E0
1.283278078E0,5.862415433E-1,3.644268990E0,9.170493126E0
1.303388234E0,5.485545993E-1,3.665804386E0,9.078369141E0
1.323498338E0,3.744767308E-1,3.610769272E0,9.039485931E0
1.343608494E0,4.157529473E-1,3.534797192E0,9.129815102E0
1.363718598E0,5.419743061E-1,3.533002615E0,9.208179474E0
1.383828755E0,5.724828243E-1,3.519243956E0,9.325428009E0
1.403938859E0,6.203392744E-1,3.560520172E0,9.500701904E0
1.424049015E0,5.401797295E-1,3.592225075E0,9.435498238E0
1.444159171E0,4.707878530E-1,3.616153240E0,9.240483284E0
1.464269276E0,5.389832854E-1,3.583850145E0,9.187840462E0
1.484379432E0,4.947160780E-1,3.530011654E0,9.192028046E0
1.504489536E0,4.504488707E-1,3.541975737E0,9.198608398E0
1.524599692E0,4.983053207E-1,3.558127165E0,9.497711182E0
1.544709796E0,5.216353536E-1,3.487539053E0,9.595218658E0
1.564819953E0,4.253242314E-1,3.470789194E0,9.376275063E0
1.584930109E0,3.804588020E-1,3.435495138E0,9.229117393E0
1.605040213E0,1.902294010E-1,3.421138287E0,9.326025963E0
1.625150369E0,9.810572863E-2,3.452843189E0,9.422337532E0
1.645260473E0,2.530409992E-1,3.460021496E0,9.300901413E0
1.665370630E0,3.391826153E-1,3.451646566E0,9.234500885E0
1.685480786E0,3.888336718E-1,3.409173965E0,9.383454323E0
1.705590890E0,3.403790295E-1,3.357130051E0,9.469595909E0
1.725701046E0,1.974078715E-1,3.317648649E0,9.368498802E0
1.745811151E0,1.076770201E-1,3.312264681E0,9.242876053E0
1.765921307E0,1.686939895E-1,3.297907829E0,9.120243073E0
1.786031463E0,2.847459018E-1,3.305684566E0,9.039485931E0
1.806141567E0,2.889333367E-1,3.317050457E0,9.038289070E0
1.826251723E0,2.626122832E-1,3.285345554E0,9.136395454E0
1.846361880E0,2.823530734E-1,3.217748165E0,9.290732384E0
1.866471984E0,2.506481707E-1,3.165704250E0,9.286544800E0
1.886582140E0,1.866401732E-1,3.175275564E0,9.256035805E0
1.906692244E0,1.704886109E-1,3.160320520E0,9.320044518E0
1.926802401E0,1.028913707E-1,3.113062143E0,9.268598557E0
1.946912557E0,-4.905286431E-2,3.159124136E0,9.144171715E0
1.967022661E0,-4.366901144E-2,3.149552822E0,9.220742226E0
1.987132817E0,-2.991028363E-3,3.093919754E0,9.477372169E0
2.007242973E0,5.204389244E-2,3.039483070E0,9.879366875E0
2.027353078E0,1.657029688E-1,3.013760090E0,1.011805058E1
2.047463234E0,1.441675574E-1,3.084946632E0,9.934999466E0
2.067573390E0,1.022931710E-1,3.168695450E0,9.471389771E0
2.087683494E0,1.651047617E-1,3.237488985E0,9.287740707E0
2.107793651E0,2.374876440E-1,3.332005501E0,9.355338097E0
2.127903807E0,2.775674164E-1,3.376870871E0,9.292527199E0
2.148013911E0,2.237289101E-1,3.375076294E0,9.257232666E0
2.168124067E0,2.075773627E-1,3.342773199E0,9.477372169E0
2.188234223E0,2.638086975E-1,3.314657450E0,9.702896118E0
2.208344328E0,2.560320199E-1,3.308077335E0,9.736993790E0
2.228454484E0,2.009970993E-1,3.281756163E0,9.668199539E0
2.248564640E0,1.890329868E-1,3.273381472E0,9.618548393E0
2.268674744E0,2.344966233E-1,3.271586657E0,9.672387123E0
2.288784901E0,3.571287692E-1,3.302095175E0,9.657432556E0
2.308895057E0,4.827519655E-1,3.380460262E0,9.460622787E0
2.329005161E0,6.005984545E-1,3.445664644E0,9.262018204E0
2.349115317E0,6.574280262E-1,3.421736479E0,9.300303459E0
2.369225473E0,6.245267391E-1,3.360719442E0,9.393623352E0
2.389335578E0,5.174478889E-1,3.320041418E0,9.372088432E0
2.409445734E0,5.264210105E-1,3.332603693E0,9.312865257E0
2.429555890E0,5.174478889E-1,3.354139090E0,9.265008926E0
2.449666046E0,4.899304509E-1,3.341576815E0,9.182456970E0
2.469776151E0,4.630111754E-1,3.369692564E0,9.075976372E0
2.489886307E0,4.923232496E-1,3.367897987E0,9.049057007E0
2.509996463E0,5.156532526E-1,3.328416348E0,9.131608963E0
2.530106567E0,3.661018610E-1,3.332005501E0,9.097511292E0
2.550216723E0,2.237289101E-1,3.327818155E0,9.033503532E0
2.570326880E0,3.050848842E-1,3.305684566E0,9.177073479E0
2.590437036E0,2.691925466E-1,3.331407309E0,9.360722542E0
2.610547140E0,2.709871531E-1,3.344567776E0,9.261420250E0
2.630657296E0,2.817548811E-1,3.399004459E0,9.092127800E0
2.650767453E0,2.057827413E-1,3.415754318E0,9.193224907E0
2.670877609E0,8.255238086E-2,3.323032379E0,9.382855415E0
2.690987713E0,-7.776673418E-3,3.256631613E0,9.401400566E0
2.711097869E0,-3.649054468E-2,3.260818958E0,9.320044518E0
2.731208026E0,1.734796353E-2,3.212962627E0,9.336195946E0
2.751318182E0,2.093719877E-2,3.202793121E0,9.543174744E0
2.771428286E0,-6.400800496E-2,3.195016384E0,9.640682220E0
2.791538442E0,-1.256231815E-1,3.223132133E0,9.522835732E0
2.811648598E0,-1.531406492E-1,3.210569859E0,9.364909172E0
2.831758755E0,-8.554340899E-2,3.164507866E0,9.449256897E0
2.851868859E0,-4.007977992E-2,3.107678413E0,9.684949875E0
2.871979015E0,-1.058823988E-1,3.047259569E0,9.744770050E0
2.892089171E0,-1.423729509E-1,3.072384357E0,9.488140106E0
2.912199328E0,-1.010967568E-1,3.126821041E0,9.160921097E0
2.932309484E0,-3.409772366E-2,3.180061340E0,9.060422897E0
2.952419588E0,3.888336942E-2,3.153740168E0,9.231510162E0
2.972529744E0,1.262213886E-1,3.079562664E0,9.444471359E0
2.992639901E0,1.740778536E-1,3.034697294E0,9.537193298E0
3.012750057E0,2.189432681E-1,3.040679455E0,9.622735977E0
3.032860213E0,2.949153781E-1,3.031706333E0,9.626325607E0
3.052970317E0,2.440679073E-1,3.028715372E0,9.531210899E0
3.073080473E0,2.255235314E-1,3.028715372E0,9.324232101E0
3.093190630E0,3.038884699E-1,3.117249727E0,9.202795982E0
3.113300786E0,3.972085714E-1,3.152543783E0,9.319445610E0
3.133410942E0,3.732803464E-1,3.087937593E0,9.592227936E0
3.153521046E0,3.487538993E-1,2.989233732E0,9.946963310E0
3.173631203E0,3.403790295E-1,2.955136061E0,9.994820595E0
3.193741359E0,3.086741269E-1,2.997608662E0,9.774680138E0
3.213851515E0,3.738785386E-1,3.041875839E0,9.413962364E0
3.233961671E0,4.037888348E-1,3.164507866E0,9.206983566E0
3.254071776E0,3.924229145E-1,3.269792080E0,9.245866776E0
3.274181932E0,3.942175210E-1,3.254837036E0,9.513862610E0
3.294292088E0,5.353940725E-1,3.191427231E0,9.856635094E0
3.314402244E0,6.113662124E-1,3.157329559E0,9.997213364E0
3.334512401E0,5.880361795E-1,3.118446112E0,9.713663101E0
3.354622557E0,6.071787477E-1,3.101696253E0,9.269794464E0
3.374732713E0,6.406782866E-1,3.125624657E0,9.114859581E0
3.394842817E0,6.658028960E-1,3.141776085E0,9.223732948E0
3.414952973E0,6.005984545E-1,3.093321562E0,9.242876053E0
3.435063130E0,5.377869010E-1,3.127419233E0,9.092127800E0
3.455173286E0,5.012963414E-1,3.215355396E0,9.055637360E0
3.475283442E0,5.054838061E-1,3.244667530E0,9.044271469E0
3.495393598E0,5.437689424E-1,3.260818958E0,9.083752632E0
3.515503755E0,5.778666735E-1,3.256033421E0,9.201001167E0
3.535613859E0,6.029912829E-1,3.307479143E0,9.212965012E0
3.555724015E0,6.927221417E-1,3.419343472E0,8.999405861E0
3.575834171E0,8.165507317E-1,3.458226919E0,8.791230202E0
3.595944328E0,8.416753411E-1,3.455834150E0,8.880961418E0
3.616054484E0,7.788637877E-1,3.435495138E0,9.241081238E0
3.636164640E0,7.399803996E-1,3.389433384E0,9.561718941E0
3.656274796E0,7.178468108E-1,3.394218922E0,9.705886841E0
3.676384953E0,6.364908218E-1,3.404388428E0,9.516255379E0
3.696495057E0,5.479564071E-1,3.436093330E0,9.344570160E0
3.716605213E0,5.808576941E-1,3.459423304E0,9.215357780E0
3.736715369E0,5.946164131E-1,3.495913982E0,9.074181557E0
3.756825526E0,6.023930907E-1,3.504288673E0,8.998807907E0
3.776935682E0,7.076773047E-1,3.467200041E0,9.068798065E0
3.797045838E0,6.849454641E-1,3.350549936E0,9.400203705E0
3.817155994E0,5.228317380E-1,3.270988464E0,9.719645500E0
3.837266151E0,4.959124923E-1,3.337389469E0,9.912267685E0
3.857376307E0,4.731806815E-1,3.383451223E0,9.908080101E0
3.877486463E0,6.131607890E-1,3.370888948E0,9.872187614E0
3.897596619E0,6.640082598E-1,3.342175007E0,9.841081619E0
3.917706723E0,6.502495408E-1,3.305684566E0,9.686145782E0
3.937816880E0,4.797609448E-1,3.333201885E0,9.510871887E0
3.957927036E0,4.719842672E-1,3.336193085E0,9.422935486E0
3.978037192E0,5.665007830E-1,3.330809116E0,9.586843491E0
3.998147348E0,4.899304509E-1,3.320041418E0,9.736993790E0
4.018257505E0,3.924229145E-1,3.338585854E0,9.422337532E0
4.038367661E0,3.810569942E-1,3.409173965E0,8.943174362E0
4.058477817E0,4.402793646E-1,3.473181963E0,8.870193481E0
4.078587973E0,4.707878530E-1,3.430111170E0,9.132805824E0
4.098698130E0,4.091726840E-1,3.358924866E0,9.355937004E0
4.118808286E0,3.619144261E-1,3.321835995E0,9.337990761E0
4.138918442E0,3.768695593E-1,3.336193085E0,9.293125153E0
4.159028598E0,4.205385745E-1,3.347558975E0,9.415159225E0
4.179138755E0,4.516452849E-1,3.338585854E0,9.488140106E0
4.199248911E0,4.085744619E-1,3.376272678E0,9.357132912E0
4.219359067E0,3.164508045E-1,3.376870871E0,9.205188751E0
4.239469223E0,2.554338276E-1,3.376870871E0,9.163912773E0
4.259579380E0,2.362912297E-1,3.402593851E0,9.095717430E0
4.279689536E0,2.039881349E-1,3.430709362E0,9.027522087E0
4.299799640E0,1.537388563E-1,3.456432343E0,8.973683357E0
4.319909796E0,8.494520187E-2,3.434298754E0,9.022137642E0
4.340019953E0,-2.153540403E-2,3.428914785E0,9.147761345E0
4.360130109E0,-9.870393574E-2,3.406781197E0,9.382257462E0
4.380240265E0,-1.058823988E-1,3.385843992E0,9.495916367E0
4.400350421E0,-4.666004330E-2,3.404986620E0,9.409774780E0
4.420460578E0,2.273181453E-2,3.453441381E0,9.363115311E0
4.440570734E0,1.513460279E-1,3.436093330E0,9.464810371E0
4.460680890E0,1.495514214E-1,3.460619688E0,9.626923561E0
4.480791046E0,1.423729509E-1,3.499503136E0,9.472586632E0
4.500901203E0,2.147558331E-1,3.546761274E0,9.087940216E0
4.521011359E0,2.578266263E-1,3.550948858E0,8.932407379E0
4.541121515E0,2.829512656E-1,3.521636724E0,9.120243073E0
4.561231671E0,2.865405083E-1,3.512663603E0,9.326025963E0
4.581341828E0,2.392822653E-1,3.495315790E0,9.354142189E0
4.601451984E0,2.273181528E-1,3.515654564E0,9.277571678E0
4.621562192E0,2.763710022E-1,3.534797192E0,9.158528328E0
4.641672348E0,2.973082066E-1,3.556930780E0,9.117850304E0
4.661782505E0,2.763710022E-1,3.592823267E0,9.174081802E0
4.681892609E0,2.811566591E-1,3.602992773E0,9.265607834E0
4.702002817E0,3.014956415E-1,3.565903902E0,9.384650230E0
4.722112973E0,3.481557071E-1,3.548556089E0,9.428318977E0
4.742223130E0,3.577269912E-1,3.551547050E0,9.334999084E0
4.762333286E0,3.445664644E-1,3.584448338E0,9.231510162E0
4.782443442E0,4.211367965E-1,3.648456335E0,9.164510727E0
4.802553598E0,4.384847581E-1,3.661018610E0,9.378069878E0
4.822663755E0,5.150550604E-1,3.654438496E0,9.762716293E0
4.842773911E0,4.301098585E-1,3.564707518E0,9.663414001E0
4.862884067E0,2.715853751E-1,3.598206997E0,9.205188751E0
4.882994223E0,3.254238665E-1,3.723232031E0,8.881559372E0
4.903104380E0,5.060819983E-1,3.723830223E0,8.693124771E0
4.923214536E0,4.725824594E-1,3.746562004E0,8.747561455E0
4.943324692E0,4.277170599E-1,3.796811342E0,8.910871506E0
4.963434848E0,4.809573591E-1,3.793222189E0,9.065806389E0
4.983545005E0,6.005984545E-1,3.782454491E0,9.421140671E0
5.003655161E0,5.581258535E-1,3.671188116E0,9.668199539E0
5.023765317E0,3.349951804E-1,3.592823267E0,9.502496719E0
5.043875473E0,2.907279432E-1,3.586242914E0,9.234500885E0
5.063985682E0,3.894318938E-1,3.660420418E0,9.174081802E0
5.084095838E0,4.540380836E-1,3.706482172E0,9.241081238E0
5.104205994E0,3.972085714E-1,3.712464333E0,9.152546883E0
5.124316151E0,3.020938635E-1,3.751347780E0,8.980861664E0
5.144426307E0,3.403790295E-1,3.774079561E0,8.931210518E0
5.164536463E0,4.073780477E-1,3.751945972E0,8.943174362E0
5.184646619E0,4.247260094E-1,3.687339783E0,9.074779510E0
5.204756776E0,3.397808075E-1,3.628117323E0,9.360722542E0
5.224866932E0,2.440679073E-1,3.610171080E0,9.567103386E0
5.244977088E0,2.446661144E-1,3.622135162E0,9.344570160E0
5.265087244E0,3.290131092E-1,3.722035646E0,8.928817749E0
5.285197401E0,3.804588020E-1,3.767499208E0,8.710473061E0
5.305307609E0,3.194418252E-1,3.707080364E0,8.777471542E0
5.325417765E0,2.045863420E-1,3.604787350E0,9.157332420E0
5.345527921E0,1.393819153E-1,3.492922783E0,9.626923561E0
5.365638078E0,1.022931710E-1,3.417548895E0,9.710672379E0
5.385748234E0,4.127619043E-2,3.454039574E0,9.397810936E0
5.405858390E0,1.004985496E-1,3.556332588E0,9.012566566E0
5.425968546E0,2.733799815E-1,3.589233875E0,8.790632248E0
5.446078703E0,3.828516304E-1,3.519842148E0,8.868398666E0
5.466188911E0,3.098705411E-1,3.387638569E0,9.100502968E0
5.486299067E0,1.716850251E-1,3.278765202E0,9.169296265E0
5.506409223E0,1.124626622E-1,3.265604734E0,9.064610481E0
5.526519380E0,1.405783296E-1,3.279363394E0,9.037093163E0
5.546629536E0,2.374876440E-1,3.315255880E0,9.217751503E0
5.566739692E0,3.816552162E-1,3.372085333E0,9.446864128E0
5.586849848E0,5.102694035E-1,3.521038532E0,9.486345291E0
5.606960005E0,6.652047038E-1,3.625126362E0,9.336195946E0
5.627070161E0,8.009973764E-1,3.654438496E0,9.236295700E0
5.647180369E0,8.488538265E-1,3.662214994E0,9.397810936E0
5.667290526E0,7.872386575E-1,3.655036688E0,9.634101868E0
5.687400682E0,6.628118753E-1,3.639483213E0,9.623932838E0
5.707510838E0,6.358926296E-1,3.642474174E0,9.477970123E0
5.727620994E0,7.489534616E-1,3.671786308E0,9.400203705E0
5.747731151E0,8.303094506E-1,3.696911097E0,9.384052277E0
5.767841359E0,7.519445419E-1,3.660420418E0,9.312267303E0
5.787951515E0,5.880361795E-1,3.628117323E0,9.331410408E0
5.808061671E0,5.389832854E-1,3.622135162E0,9.458827972E0
5.828171828E0,6.586244106E-1,3.596412420E0,9.479764938E0
5.848281984E0,7.256234884E-1,3.638885021E0,9.400801659E0
5.868392140E0,8.333004713E-1,3.698705673E0,9.342177391E0
5.888502348E0,7.884350419E-1,3.664607763E0,9.186046600E0
5.908612505E0,5.551348329E-1,3.598206997E0,9.072985649E0
5.928722661E0,4.283152521E-1,3.567698479E0,9.141778946E0
5.948832817E0,4.881358147E-1,3.619742393E0,9.098708153E0
5.968942973E0,6.281159520E-1,3.677170277E0,8.852247238E0
5.989053130E0,6.933203340E-1,3.667598963E0,8.648857117E0
6.009163338E0,6.723831892E-1,3.615555048E0,8.614161491E0
6.029273494E0,5.874379873E-1,3.588037491E0,8.711668968E0
6.049383651E0,5.383850932E-1,3.551547050E0,8.883952141E0
6.069493807E0,5.515456200E-1,3.513859987E0,9.011968613E0
6.089603963E0,5.216353536E-1,3.558127165E0,9.113663673E0
6.109714119E0,5.150550604E-1,3.531806231E0,9.144769669E0
6.129824328E0,5.377869010E-1,3.528815269E0,9.431908607E0
6.149934484E0,6.059823632E-1,3.509672642E0,9.815957069E0
6.170044640E0,4.695914388E-1,3.424129248E0,9.624530792E0
6.190154796E0,3.972085714E-1,3.454637766E0,9.058030128E0
6.210265005E0,4.342973232E-1,3.557528973E0,8.553742409E0
6.230375161E0,4.181457460E-1,3.541377544E0,8.373085022E0
6.250485317E0,3.930211067E-1,3.498306751E0,8.647063255E0
6.270595473E0,4.265206456E-1,3.464209080E0,9.156734467E0
6.290705630E0,5.318048596E-1,3.385843992E0,9.728618622E0
6.310815786E0,4.067798555E-1,3.317648649E0,9.873982430E0
6.330925994E0,2.656033039E-1,3.367897987E0,9.404391289E0
6.351036151E0,3.978067636E-1,3.442075491E0,8.882756233E0
6.371146307E0,5.736792088E-1,3.583850145E0,8.986245155E0
6.391256463E0,8.871390224E-1,3.703491211E0,9.375677109E0
6.411366671E0,1.249651670E0,3.756133318E0,9.623932838E0
6.431476828E0,1.308874011E0,3.728615999E0,9.628120422E0
6.451586984E0,1.039083242E0,3.460619688E0,9.518648148E0
6.471697140E0,3.613162339E-1,3.111865759E0,9.346963882E0
6.491807348E0,-2.889333367E-1,2.904886723E0,9.128618240E0
6.511917505E0,-5.276173949E-1,2.943770170E0,8.888139725E0
6.532027661E0,-2.991028428E-1,3.087339401E0,8.510073662E0
6.552137817E0,1.836491376E-1,3.189034462E0,8.021938324E0
6.572247973E0,4.671986103E-1,3.252444267E0,7.900502205E0
6.592358182E0,4.713860750E-1,3.188436270E0,7.973483086E0
6.612468338E0,1.322034448E-1,3.097508907E0,7.953742504E0
6.632578494E0,-5.383851007E-3,3.004786968E0,7.727022648E0
6.652688651E0,1.591227055E-1,3.044268608E0,7.440482140E0
6.672798859E0,5.383850932E-1,3.033500910E0,7.391428947E0
6.692909015E0,7.956135273E-1,2.897109985E0,7.591827869E0
6.713019171E0,7.070791125E-1,2.792423964E0,7.531409264E0
6.733129328E0,5.982056856E-1,2.761317253E0,7.069594383E0
6.753239536E0,7.932206988E-1,2.709273338E0,6.527021885E0
6.773349692E0,1.201795220E0,2.732005358E0,6.357131481E0
6.793459848E0,1.622931957E0,2.602194548E0,6.503093719E0
6.813570005E0,1.499701619E0,2.335394859E0,6.698108673E0
6.833680213E0,5.437689424E-1,2.262413740E0,6.856633186E0
6.853790369E0,-2.656033039E-1,2.404188633E0,6.731009960E0
6.873900526E0,-1.095314622E0,3.265604734E0,7.080362320E0
6.894010682E0,-2.086541414E0,4.788038254E0,8.697312355E0
6.914120890E0,-2.951546669E0,6.230910301E0,9.801599503E0
6.934231046E0,-2.041077614E0,5.660222054E0,9.602396965E0
6.954341203E0,-3.266202807E-1,4.822135925E0,1.060738277E1
6.974451411E0,1.429711580E-1,5.577071190E0,1.408594894E1
6.994561567E0,-4.319044948E-1,6.004190445E0,1.619342804E1
7.014671723E0,-1.148554921E0,6.110671043E0,1.479482269E1
7.034781932E0,-7.304090858E-1,6.556932449E0,1.252642632E1
7.054892088E0,6.143572330E-1,6.507281303E0,1.165065384E1
7.075002244E0,1.390229940E0,5.998208046E0,1.222552872E1
7.095112401E0,9.828519225E-1,5.307280540E0,1.303250885E1
7.115222609E0,3.080759048E-1,4.691727161E0,1.269392395E1
7.135332765E0,6.281159073E-2,4.284348965E0,1.118943691E1
7.155442921E0,3.272185028E-1,3.884747505E0,9.881759644E0
7.175553078E0,5.868397355E-1,3.510270834E0,9.180662155E0
7.195663286E0,4.971089065E-1,3.171088219E0,9.002995491E0
7.215773442E0,2.183450609E-1,2.617748022E0,8.728418350E0
7.235883598E0,-2.931207716E-1,2.206780672E0,8.250452042E0
7.255993807E0,-5.258227587E-1,2.215155602E0,7.974081516E0
7.276103963E0,2.584248483E-1,2.438286304E0,7.556533813E0
7.296214119E0,7.872386575E-1,2.941975355E0,6.577271461E0
7.316324276E0,8.769695163E-1,3.349951744E0,5.310869694E0
7.336434484E0,1.003190875E0,3.575475216E0,4.466203690E0
7.356544640E0,1.083350420E0,3.805784464E0,4.561318398E0
7.376654796E0,1.137787223E0,3.811766386E0,5.495117188E0
7.396765005E0,1.240080357E0,3.546761274E0,6.865008354E0
7.416875161E0,1.252044439E0,3.354139090E0,8.032705307E0
7.436985317E0,8.650053740E-1,3.366701365E0,8.306085587E0
7.457095526E0,4.558327198E-1,3.413361549E0,8.026124954E0
7.477205682E0,5.844469070E-1,3.297907829E0,8.082955360E0
7.497315838E0,9.385846853E-1,3.236292601E0,9.381659508E0
7.517426046E0,9.409775138E-1,3.468994617E0,1.104646587E1
7.537536203E0,3.655036688E-1,4.207778454E0,1.171226883E1
7.557646359E0,6.933203340E-1,4.186243057E0,1.062353420E1
7.577756567E0,1.743769526E0,4.033102512E0,9.795618057E0
7.597866723E0,2.766701221E0,4.013959885E0,1.121635628E1
7.617976880E0,2.961117983E0,3.806382656E0,1.341715431E1
7.638087036E0,1.679761529E0,3.692723513E0,1.413081455E1
7.658197244E0,9.529415965E-1,3.657429457E0,1.322393417E1
7.678307401E0,9.224331379E-1,3.781257868E0,1.179123211E1
7.698417557E0,9.678967595E-1,4.037290096E0,1.095194912E1
7.718527765E0,1.217348576E0,4.043870449E0,1.109372425E1
7.738637921E0,1.432702541E0,3.684946775E0,1.093759251E1
7.758748078E0,1.309472203E0,3.403790236E0,9.800403595E0
7.778858286E0,9.182456732E-1,3.253640652E0,8.796614647E0
7.798968442E0,5.288137794E-1,3.042474031E0,8.212765694E0
7.819078598E0,5.742774159E-2,2.813959360E0,7.849654675E0
7.839188807E0,-2.081755698E-1,2.694318295E0,7.923832417E0
7.859298963E0,-1.914258152E-1,2.574079037E0,8.386244774E0
7.879409119E0,-1.106680483E-1,2.333600283E0,8.821739197E0
7.899519328E0,-1.740778536E-1,2.090130568E0,8.693722725E0
7.919629484E0,-2.871387303E-1,2.118246317E0,7.825128078E0
7.939739692E0,-2.201396823E-1,2.234896421E0,6.803991318E0
7.959849848E0,-1.375873014E-2,2.306082726E0,6.165705681E0
7.979960005E0,1.710868180E-1,2.355733871E0,6.126822472E0
8.000070213E0,1.046859920E-1,2.507678032E0,6.403791428E0
8.020180369E0,2.297109663E-1,2.766701221E0,6.552744865E0
8.040290526E0,8.805587292E-1,2.558525562E0,6.494120598E0
8.060400734E0,1.223330617E0,2.248655081E0,6.697510719E0
8.080510890E0,1.481755376E0,2.382055044E0,7.575676441E0
8.100621046E0,1.646261930E0,2.852842808E0,9.285347939E0
8.120731255E0,8.757730722E-1,3.460619688E0,1.000618649E1
8.140841411E0,-1.746760458E-1,4.375276089E0,9.140582085E0
8.160951567E0,-2.470589429E-1,4.825725079E0,9.535996437E0
8.181061776E0,9.020941257E-1,4.241278172E0,1.284885979E1
8.201171932E0,1.567298889E0,3.765106440E0,1.583988762E1
8.221282140E0,8.835497499E-1,3.564109325E0,1.621974754E1
8.241392296E0,-1.716850251E-1,3.851248026E0,1.463749409E1
8.261502453E0,-6.903293133E-1,4.299902439E0,1.269212914E1
8.281612661E0,-5.258227587E-1,4.205385685E0,1.084606647E1
8.301722817E0,-3.290131316E-2,3.973282099E0,9.527621269E0
8.321832973E0,4.929214716E-1,3.721437454E0,9.525827408E0
8.341943182E0,5.521438122E-1,3.502494097E0,1.032144070E1
8.362053338E0,1.561316848E-1,3.157329559E0,1.057507992E1
8.382163546E0,-2.249253243E-1,2.827120066E0,9.774082184E0
8.402273703E0,-2.344966233E-1,2.697907448E0,8.679366112E0
8.422383859E0,8.913264424E-2,2.702095032E0,8.029714584E0
8.442494067E0,5.778666735E-1,2.656631231E0,7.877770424E0
8.462604223E0,8.105686903E-1,2.526820660E0,7.669594765E0
8.482714380E0,3.744767308E-1,2.428116798E0,7.186244488E0
8.502824588E0,-4.965107143E-2,2.482553482E0,6.769893646E0
8.522934744E0,2.003988922E-1,2.393420935E0,6.480361938E0
8.543044953E0,9.349954724E-1,2.459821701E0,6.174080849E0
8.563155109E0,8.662018180E-1,2.941377163E0,5.704489231E0
8.583265265E0,-3.260220885E-1,2.936591625E0,5.816951752E0
8.603375473E0,-1.522433400E0,2.441875458E0,6.404389858E0
8.623485630E0,-1.478764415E0,2.227119684E0,7.487740040E0
8.643595838E0,-1.734796353E-2,2.195414782E0,9.077172279E0
8.663705994E0,1.658226132E0,2.331207514E0,1.056311512E1
8.683816151E0,2.389233351E0,2.385046005E0,1.110209846E1
8.703926359E0,1.741974831E0,2.248056889E0,1.079940701E1
8.724036515E0,3.493520916E-1,2.586043119E0,9.690333366E0
8.744146723E0,-5.832505226E-1,3.570689678E0,7.725227833E0
8.764256880E0,5.676971674E-1,4.013959885E0,7.658228874E0
8.784367036E0,2.739781857E0,3.841676712E0,1.158604717E1
8.804477244E0,4.484747887E0,3.582653761E0,1.601815224E1
8.824587401E0,3.999603033E0,3.267997503E0,1.696032715E1
8.844697609E0,2.047059774E0,3.512065411E0,1.497787380E1
8.864807765E0,1.467398524E0,3.665206194E0,1.322572899E1
8.884917921E0,1.642074585E0,3.739981890E0,1.209452248E1
8.905028130E0,1.551147223E0,3.720241070E0,1.083709335E1
8.925138286E0,1.366301775E0,3.559921980E0,9.525228500E0
8.945248494E0,1.037288666E0,3.435495138E0,8.618947029E0
8.965358651E0,8.500502706E-1,3.206980467E0,7.728816986E0
8.985468859E0,7.734799385E-1,2.930609465E0,7.071987152E0
9.005579015E0,9.870393276E-1,2.704487801E0,7.415955544E0
9.025689171E0,1.171286702E0,2.627319336E0,7.871788502E0
9.045799380E0,8.338986635E-1,2.562713146E0,7.492526054E0
9.065909536E0,3.469592929E-1,2.358724833E0,6.724429607E0
9.086019744E0,6.041877270E-1,2.001596212E0,5.987440586E0
9.106129901E0,3.834498227E-1,1.960319996E0,5.642275810E0
9.126240057E0,3.810569942E-1,2.113460541E0,5.481956482E0
9.146350265E0,1.018146038E0,2.337787628E0,4.889732838E0
9.166460421E0,1.858624935E0,2.605783939E0,4.547559261E0
9.186570630E0,2.055434704E0,2.823530674E0,4.462016106E0
9.206680786E0,1.217348576E0,2.665604353E0,5.644668579E0
9.226790994E0,2.733799815E-1,2.327019930E0,8.255836487E0
9.246901151E0,2.662015259E-1,2.064407825E0,1.138804150E1
9.267011359E0,5.629115105E-1,2.827718258E0,1.382991695E1
9.287121515E0,1.848455518E-1,4.322634220E0,1.350568962E1
9.307231671E0,-3.170489892E-2,4.245465755E0,1.298405361E1
9.327341880E0,7.519445419E-1,3.349353552E0,1.468654728E1
9.347452036E0,1.068395257E0,3.065804005E0,1.689751625E1
9.367562244E0,3.756731451E-1,3.002394199E0,1.650210190E1
9.387672401E0,6.759724021E-2,3.059223652E0,1.487976742E1
9.407782609E0,6.604190469E-1,3.023929596E0,1.450289822E1
9.427892765E0,1.211366415E0,3.201596737E0,1.381974697E1
9.448002973E0,9.314061999E-1,3.409173965E0,1.172303677E1
9.468113130E0,3.918247223E-1,3.440280676E0,9.012566566E0
9.488223286E0,6.340979785E-2,3.412763357E0,7.243672371E0
9.508333494E0,1.746760458E-1,3.450450182E0,7.000202656E0
9.528443651E0,4.121637046E-1,3.382254839E0,7.251449108E0
9.548553859E0,2.925225794E-1,3.279961586E0,7.198208809E0
9.568664015E0,7.417750359E-2,3.100499868E0,7.078567505E0
9.588774223E0,-3.110669367E-2,2.761915445E0,7.457231998E0
9.608884380E0,2.021935135E-1,2.541177750E0,8.263612747E0
9.628994536E0,6.215356588E-1,2.309073925E0,8.772088051E0
9.649104744E0,6.879364848E-1,2.231307030E0,8.032107353E0
9.669214901E0,4.396811724E-1,2.226521492E0,6.725028038E0
9.689325109E0,2.817548811E-1,2.250449657E0,6.039484501E0
9.709435265E0,1.172483116E-1,2.387438774E0,6.123233318E0
9.729545473E0,-2.219343036E-1,2.544168711E0,6.405586243E0
9.749655630E0,-1.974078715E-1,2.747558594E0,6.346364021E0
9.769765838E0,7.052844763E-1,2.682952404E0,6.749554634E0
9.789875994E0,1.898704767E0,2.611167669E0,8.663812637E0
9.809986203E0,1.769492388E0,3.315255880E0,1.051406288E1
9.830096359E0,9.637092948E-1,3.855435371E0,1.073360443E1
9.850206515E0,8.733802438E-1,3.546163082E0,1.011326504E1
9.870316723E0,1.649253011E0,3.317648649E0,1.134676456E1
9.890426880E0,2.725425005E0,3.235096216E0,1.405663681E1
9.910537088E0,3.005983353E0,3.030509949E0,1.582612896E1
9.930647244E0,2.318047047E0,3.007179976E0,1.511246967E1
9.950757453E0,1.512862086E0,3.154338360E0,1.306182098E1
9.970867609E0,1.338784218E0,3.443271875E0,1.166501045E1
9.990977817E0,1.886740685E0,3.589233875E0,1.116790104E1
1.001108797E1,2.554338217E0,3.493520975E0,1.106979561E1
1.003119818E1,2.550748825E0,3.337987661E0,1.107637596E1
1.005130834E1,1.790429592E0,3.138785124E0,1.062891865E1
1.007141855E1,1.021735311E0,2.854637384E0,9.471988678E0
1.009152870E1,5.335994363E-1,2.673979282E0,8.413763046E0
1.011163891E1,5.330012441E-1,2.470589399E0,8.078767776E0
1.013174907E1,7.633104324E-1,2.197807550E0,8.231907845E0
1.015185922E1,9.535398483E-1,2.041077614E0,8.090731621E0
1.017196943E1,9.756734371E-1,2.033899307E0,7.557730198E0
1.019207964E1,1.073779106E0,2.185245275E0,6.882954121E0
1.021218980E1,8.847461939E-1,2.307877541E0,6.318248272E0
1.023229995E1,4.995017350E-1,2.342573404E0,5.982655048E0
1.025241016E1,1.483550072E-1,2.416152716E0,6.119643688E0
1.027252032E1,4.067798331E-2,2.355135679E0,6.449853420E0
1.029263053E1,2.602194548E-1,2.264806747E0,7.112067223E0
1.031274068E1,8.243274093E-1,2.151745796E0,8.084749222E0
1.033285089E1,8.811569214E-1,2.173879385E0,9.062217712E0
1.035296105E1,5.653043389E-1,2.027917147E0,9.888937950E0
1.037307126E1,3.433700502E-1,1.747956991E0,1.063609695E1
1.039318141E1,4.504488707E-1,2.026720762E0,1.117448139E1
1.041329162E1,4.540380836E-1,2.861217737E0,1.057926750E1
1.043340178E1,-4.677968323E-1,4.386641979E0,8.106285095E0
1.045351198E1,-4.109672904E-1,4.903491974E0,7.648059368E0
1.047362214E1,1.842473388E0,3.806382656E0,1.158425236E1
1.049373235E1,3.346362352E0,3.212364435E0,1.742513275E1
1.051384251E1,2.828316450E0,2.973082066E0,1.871845245E1
1.053395271E1,8.668000102E-1,3.014956474E0,1.395075417E1
1.055406287E1,4.055834413E-1,3.402593851E0,8.989834785E0
1.057417308E1,1.354337573E0,3.760919094E0,7.424330235E0
1.059428323E1,2.529811859E0,3.826123476E0,8.694919586E0
1.061439344E1,2.525026083E0,3.646661758E0,1.033699417E1
1.063450360E1,1.337587833E0,3.251846075E0,1.069292641E1
1.065461381E1,7.908278704E-1,2.810370207E0,1.019940662E1
1.067472396E1,1.064207911E0,2.589632273E0,9.483354568E0
1.069483417E1,1.441077471E0,2.514856577E0,9.106484413E0
1.071494433E1,1.517647743E0,2.519642353E0,8.722436905E0
1.073505454E1,1.329811215E0,2.565704107E0,7.741379261E0
1.075516469E1,1.080359459E0,2.607578516E0,6.711867332E0
1.077527490E1,1.191027522E0,2.732603550E0,6.464210510E0
1.079538506E1,1.393819213E0,2.900100946E0,7.345367432E0
1.081549527E1,1.364507079E0,2.843271494E0,8.121239662E0
1.083560542E1,9.326026440E-1,2.729612350E0,7.267600536E0
1.085571563E1,5.102694035E-1,2.681157827E0,5.839085579E0
1.087582579E1,4.007977843E-1,2.760719061E0,5.312664509E0
1.089593599E1,3.978067636E-1,3.009572744E0,5.892923832E0
1.091604615E1,7.609176040E-1,2.822932482E0,7.314858913E0
1.093615636E1,1.371685624E0,2.426322222E0,8.947361946E0
1.095626652E1,1.372283816E0,2.424527645E0,9.952945709E0
1.097637672E1,6.795616150E-1,2.462812662E0,9.557532310E0
1.099648688E1,-1.633101404E-1,2.553141832E0,8.434700012E0
1.101659709E1,2.033899166E-2,2.630310297E0,8.681758881E0
1.103670724E1,1.190429211E0,2.732005358E0,1.007019424E1
1.105681745E1,1.809572101E0,3.562912941E0,1.077547836E1
1.107692761E1,1.725823283E0,4.032504559E0,1.009172916E1
1.109703782E1,1.460818172E0,3.526422262E0,9.881759644E0
1.111714797E1,1.182652593E0,3.241676569E0,1.179601765E1
1.113725818E1,1.121037364E0,2.952144861E0,1.454895973E1
1.115736834E1,1.365105271E0,2.866003275E0,1.568973827E1
1.117747855E1,1.645065546E0,3.492922783E0,1.352602863E1
1.119758870E1,1.889133453E0,4.067200184E0,1.051466084E1
1.121769891E1,2.492124796E0,3.988835335E0,9.609575272E0
1.123780907E1,2.760719061E0,3.692723513E0,1.123789120E1
1.125791928E1,2.229512453E0,3.341576815E0,1.280399418E1
1.127802943E1,1.460818172E0,3.140579700E0,1.211127186E1
1.129813964E1,9.397810698E-1,3.121437073E0,1.008335495E1
1.131824980E1,8.315058947E-1,3.096312523E0,8.423334122E0
1.133836000E1,5.904290080E-1,3.267399311E0,7.947760582E0
1.135847016E1,2.536391914E-1,3.091526747E0,8.287541389E0
1.137858037E1,-6.819544733E-2,2.801995277E0,8.455039024E0
1.139869053E1,-1.280160099E-1,2.673381090E0,8.032705307E0
1.141880073E1,-3.768695518E-2,2.640479803E0,7.293921471E0
1.143891089E1,1.555334684E-2,2.617149830E0,6.337390900E0
1.145902110E1,-1.016949583E-2,2.480758905E0,5.469992638E0
1.147913126E1,-1.716850251E-1,2.162513494E0,5.309673309E0
1.149924146E1,-3.206382394E-1,1.891526341E0,6.349354744E0
1.151935162E1,-3.631108403E-1,1.938186288E0,7.811369419E0
1.153946183E1,-5.862415582E-2,2.057229280E0,8.415556908E0
1.155957198E1,4.504488707E-1,2.099103689E0,7.976474285E0
1.157968219E1,7.220342159E-1,2.398804665E0,7.918448448E0
1.159979235E1,7.417750359E-1,3.063411236E0,8.910273552E0
1.161990256E1,6.723831892E-1,3.249453068E0,1.022034359E1
1.164001271E1,6.029912829E-1,2.872583628E0,1.156092262E1
1.166012292E1,2.422732860E-1,3.461217880E0,1.199522018E1
1.168023313E1,2.650051117E-1,4.317250252E0,1.094058323E1
1.170034329E1,1.747956991E0,3.991228104E0,1.026939678E1
1.172045349E1,2.737987280E0,3.964907169E0,1.100339508E1
1.174056365E1,2.253440619E0,4.362115860E0,1.252582836E1
1.176067386E1,4.217349887E-1,4.107280254E0,1.302413368E1
1.178078402E1,-6.957131624E-1,3.765704632E0,1.243729401E1
1.180089422E1,-2.165504545E-1,3.765106440E0,1.187557888E1
1.182100438E1,7.112665176E-1,3.615555048E0,1.219741344E1
1.184111459E1,9.391828775E-1,3.253640652E0,1.258445263E1
1.186122474E1,2.889333367E-1,3.032902718E0,1.212742329E1
1.188133495E1,-9.391828626E-2,2.989233732E0,1.098724365E1
1.190144511E1,-1.046859920E-1,3.126222849E0,9.654440880E0
1.192155532E1,1.591227055E-1,3.100499868E0,8.136793137E0
1.194166547E1,4.534398913E-1,3.062813044E0,7.076174736E0
1.196177568E1,4.791627228E-1,2.965903759E0,7.284948349E0
1.198188584E1,1.142572835E-1,2.681157827E0,8.417351723E0
1.200199605E1,-3.044866920E-1,2.415554523E0,8.906085968E0
1.202210620E1,-4.725824594E-1,2.310270309E0,8.012965202E0
1.204221641E1,-4.899304509E-1,2.408375978E0,6.662216663E0
1.206232662E1,-1.435693540E-2,2.540579557E0,6.027520180E0
1.208243678E1,6.305087805E-1,2.869592667E0,6.456433773E0
1.210254698E1,7.100701332E-1,3.095714331E0,6.878767014E0
1.212265714E1,4.187439755E-2,3.125624657E0,6.958328247E0
1.214276735E1,-4.121637046E-1,3.104089260E0,7.037291527E0
1.216287750E1,-1.262213886E-1,3.098705292E0,7.398009300E0
1.218298771E1,4.384847581E-1,3.090330362E0,8.007580757E0
1.220309787E1,6.083751321E-1,3.175873756E0,8.358727455E0
1.222320808E1,5.934200287E-1,3.348755360E0,8.902496338E0
1.224331823E1,3.134597540E-1,3.391227961E0,9.284152031E0
1.226342844E1,-4.187439755E-2,3.372683525E0,9.602995872E0
1.228353860E1,4.426721856E-2,3.344567776E0,1.007856941E1
1.230364881E1,5.078766346E-1,3.407379389E0,1.046201897E1
1.232375902E1,5.318048596E-1,3.873381615E0,1.047757244E1
1.234386917E1,1.692921966E-1,3.868596077E0,1.026461124E1
1.236397938E1,3.954139352E-1,3.525824070E0,1.100399303E1
1.238408954E1,4.043870270E-1,3.798605919E0,1.212682533E1
1.240419974E1,2.913261652E-1,3.613760471E0,1.260060406E1
1.242430990E1,6.520441771E-1,3.113660574E0,1.289611721E1
1.244442011E1,1.155733347E0,3.287738323E0,1.298166084E1
1.246453026E1,1.049252748E0,3.632902861E0,1.231226921E1
1.248464047E1,4.336991012E-1,3.941577196E0,1.094836044E1
1.250475063E1,2.775674164E-1,4.125824451E0,1.013779163E1
1.252486084E1,6.993024349E-1,3.949951887E0,1.048654556E1
1.254497099E1,1.100100160E0,3.445664644E0,1.132822037E1
1.256508120E1,9.152546525E-1,3.144767046E0,1.149990559E1
1.258519141E1,5.832505226E-1,3.105285645E0,1.075932693E1
1.260530157E1,5.694918036E-1,3.114856958E0,9.563513756E0
1.262541178E1,6.442674994E-1,3.177070379E0,8.408378601E0
1.264552193E1,7.166503668E-1,3.145365477E0,7.659425259E0
1.266563214E1,7.567301393E-1,2.997608662E0,7.353742123E0
1.268574230E1,7.974081635E-1,2.882753134E0,7.198208809E0
1.270585251E1,7.423732281E-1,2.834896564E0,6.902695179E0
1.272596266E1,5.850451589E-1,2.787638426E0,6.558128834E0
1.274607287E1,5.330012441E-1,2.789433002E0,6.381059647E0
1.276618303E1,3.661018610E-1,2.857030153E0,6.586842537E0
1.278629323E1,2.889333367E-1,2.792423964E0,6.662216663E0
1.280640344E1,3.110669553E-1,2.633301258E0,6.519245148E0
1.282651360E1,5.593222976E-1,2.624328136E0,6.619743824E0
1.284662381E1,5.802595019E-1,2.776272535E0,7.024130821E0
1.286673396E1,4.654040039E-1,2.899502754E0,7.369893551E0
1.288684417E1,4.043870270E-1,3.040081263E0,7.889734268E0
1.290695433E1,5.676971674E-1,3.025724173E0,8.907880783E0
1.292706454E1,8.368897438E-1,3.144168854E0,1.014496994E1
1.294717469E1,7.519445419E-1,3.897309780E0,1.071805096E1
1.296728490E1,7.908278704E-1,4.333401680E0,1.034058285E1
1.298739511E1,6.592226624E-1,4.587040901E0,1.048654556E1
1.300750526E1,-3.571287692E-1,5.617749214E0,1.101595688E1
1.302761547E1,-5.587241054E-1,5.273182869E0,1.172423267E1
1.304772563E1,6.233302951E-1,3.823730469E0,1.328255844E1
1.306783584E1,1.365105271E0,3.793820381E0,1.459143257E1
1.308794599E1,6.263213158E-1,4.054039955E0,1.379342651E1
1.310805620E1,-8.027920127E-1,4.185046673E0,1.122114182E1
1.312816636E1,-8.344969153E-1,4.152743816E0,9.672387123E0
1.314827657E1,-2.189432681E-1,4.030709743E0,1.017488003E1
1.316838678E1,-2.392822690E-2,3.722035646E0,1.191386414E1
1.318849693E1,-3.708875179E-1,3.340380430E0,1.248873997E1
1.320860714E1,-6.370890141E-1,3.166302681E0,1.159202957E1
1.322871730E1,-5.072783828E-1,3.299702406E0,1.009472084E1
1.324882751E1,-3.840480447E-1,3.386442184E0,8.584849358E0
1.326893766E1,-2.123630047E-1,3.336791277E0,7.514061451E0
1.328904787E1,-6.281159073E-2,3.295515060E0,7.534400463E0
1.330915803E1,-9.571290575E-3,3.058625460E0,8.462815285E0
1.332926823E1,-7.776673883E-2,2.832503796E0,9.253045082E0
1.334937839E1,-2.386840582E-1,2.712862730E0,9.378668785E0
1.336948860E1,-3.738785386E-1,2.705684185E0,8.912068367E0
1.338959881E1,-2.279163599E-1,2.805584431E0,8.659027100E0
1.340970896E1,2.392822690E-2,2.758326292E0,9.403194427E0
1.342981917E1,1.238285750E-1,2.767299414E0,1.054756260E1
1.344992933E1,-3.050848842E-2,2.868994236E0,1.070608711E1
1.347003954E1,-8.434699476E-2,3.026920557E0,9.367900848E0
1.349014969E1,3.230310604E-2,3.242274761E0,8.351549149E0
1.351025990E1,2.656033039E-1,3.419941664E0,8.395816803E0
1.353037006E1,5.802594870E-2,3.619742393E0,8.910871506E0
1.355048027E1,2.991028363E-3,3.329612732E0,9.308079720E0
1.357059047E1,3.828516230E-2,3.173480988E0,9.408578873E0
1.359070063E1,-2.632105052E-1,3.429512978E0,9.127422333E0
1.361081084E1,-4.211367965E-1,3.466003656E0,8.928219795E0
1.363092099E1,-3.074777126E-1,3.364906788E0,9.062217712E0
1.365103120E1,-2.548356056E-1,3.261417150E0,9.796813965E0
1.367114136E1,-3.272185028E-1,3.198007345E0,1.049671459E1
1.369125157E1,-4.049852192E-1,3.264408350E0,1.021854877E1
1.371136172E1,-3.050848842E-1,3.446262836E0,9.129216194E0
1.373147193E1,-1.950150430E-1,3.635295868E0,8.350353241E0
1.375158214E1,-2.141576260E-1,3.740580082E0,8.133204460E0
1.377169230E1,-3.445664644E-1,3.699303865E0,8.581260681E0
1.379180251E1,-5.072783828E-1,3.567100286E0,9.192625999E0
1.381191266E1,-5.000999570E-1,3.446262836E0,9.378069878E0
1.383202287E1,-4.534398913E-1,3.474378586E0,9.608977318E0
1.385213303E1,-2.703889608E-1,3.504288673E0,9.830911636E0
1.387224323E1,-1.106680483E-1,3.482155085E0,9.833304405E0
1.389235339E1,1.136590727E-2,3.475574970E0,9.757930756E0
1.391246360E1,-9.332008660E-2,3.548556089E0,9.405587196E0
1.393257381E1,-2.727817893E-1,3.596412420E0,8.807980537E0
1.395268396E1,-2.656033039E-1,3.597010612E0,8.562117577E0
1.397279417E1,-1.196411327E-1,3.588037491E0,8.742177963E0
1.399290433E1,-1.268195957E-1,3.604787350E0,9.051449776E0
1.401301454E1,-2.877369225E-1,3.645465374E0,9.137591362E0
1.403312474E1,-2.309073806E-1,3.550350666E0,9.115457535E0
1.405323490E1,-1.914258115E-2,3.552145243E0,9.345169067E0
1.407334511E1,2.452643216E-2,3.607180119E0,9.406784058E0
1.409345527E1,7.477571070E-2,3.567100286E0,9.367302895E0
1.411356547E1,2.159522474E-1,3.582653761E0,9.364311218E0
1.413367563E1,2.721835673E-1,3.544966698E0,9.519845009E0
1.415378584E1,2.709871531E-1,3.540779352E0,9.605388641E0
1.417389599E1,3.355933726E-1,3.601198196E0,9.342177391E0
1.419400620E1,3.990031779E-1,3.610769272E0,8.941379547E0
1.421411636E1,5.042873621E-1,3.645465374E0,8.806783676E0
1.423422657E1,5.898307562E-1,3.691527128E0,8.950352669E0
1.425433678E1,5.515456200E-1,3.646661758E0,9.134002686E0
1.427444693E1,4.468596280E-1,3.659224033E0,9.146564484E0
1.429455714E1,3.846462369E-1,3.647858143E0,9.169296265E0
1.431466730E1,4.719842672E-1,3.640679598E0,9.232706070E0
1.433477751E1,4.480560422E-1,3.677170277E0,9.160323143E0
1.435488766E1,4.139583111E-1,3.652643681E0,9.053244591E0
1.437499787E1,3.607180119E-1,3.632304668E0,9.112466812E0
1.439510803E1,3.176472187E-1,3.605385542E0,9.300901413E0
1.441521823E1,2.285145670E-1,3.565903902E0,9.323633194E0
1.443532844E1,2.045863420E-1,3.520440340E0,9.187242508E0
1.445543860E1,2.751746178E-1,3.495315790E0,9.175876617E0
1.447554881E1,3.008974493E-1,3.464807272E0,9.453444481E0
1.449565896E1,2.685943544E-1,3.398406267E0,9.570094109E0
1.451576917E1,1.573280841E-1,3.425325632E0,9.555737495E0
1.453587933E1,1.405783296E-1,3.419343472E0,9.607182503E0
1.455598954E1,1.405783296E-1,3.423531055E0,9.421739578E0
1.457609969E1,2.033899277E-1,3.434298754E0,9.204590797E0
1.459620990E1,2.464607358E-1,3.407977581E0,9.236893654E0
1.461632011E1,1.615155339E-1,3.510869026E0,9.387641907E0
1.463643027E1,1.651047617E-1,3.534198999E0,9.318847656E0
1.465654047E1,2.434697002E-1,3.540181160E0,9.217751503E0
1.467665063E1,3.762713671E-1,3.560520172E0,9.209974289E0
1.469676084E1,4.193421602E-1,3.510869026E0,9.242876053E0
1.471687099E1,3.894318938E-1,3.468994617E0,9.594620705E0
1.473698120E1,3.170489967E-1,3.400201082E0,9.778269768E0
1.475709136E1,1.902294010E-1,3.419343472E0,9.902098656E0
1.477720157E1,1.363908947E-1,3.471985579E0,9.852447510E0
1.479731178E1,1.465603858E-1,3.524627686E0,9.310472488E0
1.481742193E1,2.488535494E-1,3.595814228E0,8.767302513E0
1.483753214E1,4.426721931E-1,3.613162279E0,8.678169250E0
1.485764230E1,4.947160780E-1,3.597010612E0,8.916853905E0
1.487775250E1,3.834498227E-1,3.586242914E0,9.117850304E0
1.489786266E1,2.297109663E-1,3.554538012E0,9.068199158E0
1.491797287E1,1.549352705E-1,3.571886063E0,8.964112282E0
1.493808308E1,1.950150430E-1,3.604189157E0,8.998807907E0
1.495819323E1,2.626122832E-1,3.603590965E0,9.074779510E0
1.497830344E1,2.667997181E-1,3.593421459E0,9.202795982E0
1.499841360E1,2.703889608E-1,3.569493294E0,9.299106598E0
1.501852381E1,2.859423161E-1,3.555136204E0,9.382257462E0
1.503863396E1,3.194418252E-1,3.521038532E0,9.458827972E0
1.505874417E1,2.249253243E-1,3.493520975E0,9.539586067E0
1.507885433E1,1.417747438E-1,3.501895905E0,9.400801659E0
1.509896454E1,1.435693651E-1,3.497110367E0,9.231510162E0
1.511907474E1,1.902294010E-1,3.468994617E0,9.250652313E0
1.513918490E1,1.322034448E-1,3.521038532E0,9.251250267E0
1.515929511E1,2.877369225E-1,3.524627686E0,9.199206352E0
1.517940527E1,4.031906128E-1,3.532404423E0,9.141180992E0
1.519951547E1,4.145565331E-1,3.589832067E0,9.114859581E0
1.521962563E1,4.001995921E-1,3.610769272E0,9.050851822E0
1.523973584E1,3.403790295E-1,3.567698479E0,8.986844063E0
1.525984599E1,2.703889608E-1,3.482155085E0,9.131011009E0
1.527995620E1,2.159522474E-1,3.431307554E0,9.379266739E0
1.530006641E1,1.842473447E-1,3.392424345E0,9.441479683E0
1.532017657E1,1.549352705E-1,3.421736479E0,9.283554077E0
1.534028678E1,1.220339537E-1,3.468994617E0,9.176474571E0
1.536039693E1,2.153540403E-1,3.457030535E0,9.220144272E0
1.538050714E1,2.751746178E-1,3.451646566E0,9.494122505E0
1.540061730E1,3.020938635E-1,3.427718401E0,9.621540070E0
1.542072750E1,2.225325108E-1,3.424129248E0,9.465408325E0
1.544083766E1,2.338984162E-1,3.461217880E0,9.296115875E0
1.546094787E1,3.385843933E-1,3.463610888E0,9.245268822E0
1.548105808E1,3.984049559E-1,3.450450182E0,9.311071396E0
1.550116823E1,4.181457460E-1,3.463012457E0,9.467801094E0
1.552127844E1,4.067798555E-1,3.440878868E0,9.507282257E0
1.554138860E1,4.528416991E-1,3.428316593E0,9.409176826E0
1.556149881E1,5.120640397E-1,3.470191002E0,9.348159790E0
1.558160896E1,4.390829504E-1,3.512663603E0,9.319445610E0
1.560171917E1,3.972085714E-1,3.503092289E0,9.087940216E0
1.562182933E1,4.402793646E-1,3.498904943E0,8.943174362E0
1.564193954E1,3.762713671E-1,3.545564890E0,8.971888542E0
1.566204974E1,2.961117923E-1,3.546761274E0,8.992227554E0
1.568215990E1,3.194418252E-1,3.461217880E0,9.136993408E0
1.570227011E1,2.255235314E-1,3.388834953E0,9.333803177E0
1.572238027E1,9.690931439E-2,3.352344513E0,9.561120987E0
1.574249047E1,5.862415582E-2,3.336791277E0,9.678967476E0
1.576260063E1,5.922235921E-2,3.357728481E0,9.595218658E0
1.578271084E1,1.333998591E-1,3.390031576E0,9.387641907E0
1.580282099E1,2.362912297E-1,3.405584812E0,9.383454323E0
1.582293120E1,2.159522474E-1,3.426522017E0,9.419944763E0
1.584304141E1,1.184447184E-1,3.455834150E0,9.248259544E0
1.586315157E1,1.645065546E-1,3.434896946E0,9.110671997E0
1.588326178E1,3.170489967E-1,3.411566973E0,9.297910690E0
1.590337193E1,3.846462369E-1,3.388834953E0,9.599406242E0
1.592348214E1,2.673979402E-1,3.386442184E0,9.669994354E0
1.594359230E1,2.123630047E-1,3.375076294E0,9.463015556E0
1.596370250E1,2.650051117E-1,3.400201082E0,9.254241943E0
1.598381266E1,3.361915946E-1,3.394817114E0,9.203991890E0
1.600392287E1,3.086741269E-1,3.373281717E0,9.305686951E0
1.602403308E1,2.416750938E-1,3.349951744E0,9.467203140E0
1.604414323E1,2.045863420E-1,3.311666489E0,9.489336014E0
1.606425344E1,2.243271172E-1,3.268595695E0,9.450452805E0
1.608436360E1,2.494517565E-1,3.296113253E0,9.407979965E0
1.610447381E1,2.195414752E-1,3.334398270E0,9.234500885E0
1.612458396E1,2.662015259E-1,3.293122053E0,9.186046600E0
1.614469417E1,2.368894368E-1,3.333201885E0,9.374481201E0
1.616480438E1,1.944168359E-1,3.381656647E0,9.373882294E0
1.618491454E1,2.799602449E-1,3.327219963E0,9.133403778E0
1.620502474E1,3.810569942E-1,3.332603693E0,9.152546883E0
1.622513490E1,4.085744619E-1,3.299702406E0,9.440283775E0
1.624524511E1,3.493520916E-1,3.241078377E0,9.652647018E0
1.626535526E1,2.775674164E-1,3.250649452E0,9.682557106E0
1.628546547E1,3.254238665E-1,3.305684566E0,9.587442398E0
1.630557563E1,4.773681164E-1,3.304488182E0,9.384650230E0
1.632568584E1,5.551348329E-1,3.314059258E0,9.230911255E0
1.634579599E1,5.114658475E-1,3.367897987E0,9.165707588E0
1.636590620E1,3.996013701E-1,3.377469063E0,9.188439369E0
1.638601641E1,3.577269912E-1,3.350549936E0,9.242876053E0
1.640612657E1,3.858426511E-1,3.348157167E0,9.283554077E0
1.642623678E1,4.761717021E-1,3.351148129E0,9.242277145E0
1.644634693E1,5.485545993E-1,3.377469063E0,9.214759827E0
1.646645714E1,5.515456200E-1,3.402593851E0,9.291928291E0
1.648656730E1,5.234299302E-1,3.390629768E0,9.491130829E0
1.650667751E1,4.588237405E-1,3.353540897E0,9.618548393E0
1.652678771E1,4.815555513E-1,3.340978622E0,9.512067795E0
1.654689787E1,6.005984545E-1,3.343969584E0,9.381061554E0
1.656700808E1,6.143572330E-1,3.343371391E0,9.388239861E0
1.658711823E1,5.533402562E-1,3.326621771E0,9.516854286E0
1.660722844E1,4.827519655E-1,3.317648649E0,9.676574707E0
1.662733860E1,5.952146053E-1,3.248854876E0,9.604789734E0
1.664744881E1,6.711867452E-1,3.244069338E0,9.311669350E0
1.666755896E1,6.161518097E-1,3.382853031E0,8.980861664E0
1.668766917E1,6.173482537E-1,3.413361549E0,8.743971825E0
1.670777933E1,6.490531564E-1,3.349951744E0,8.907880783E0
1.672788954E1,5.629115105E-1,3.302693367E0,9.370293617E0
1.674799974E1,4.420739710E-1,3.257229805E0,9.567701340E0
1.676810990E1,3.960121572E-1,3.255435228E0,9.445667267E0
1.678822011E1,4.594219327E-1,3.270988464E0,9.306285858E0
1.680833027E1,5.306084156E-1,3.248256683E0,9.292527199E0
1.682844047E1,5.060819983E-1,3.243471146E0,9.497113228E0
1.684855063E1,4.121637046E-1,3.275176048E0,9.528818130E0
1.686866084E1,3.738785386E-1,3.277568817E0,9.363115311E0
1.688877099E1,4.660021961E-1,3.278765202E0,9.334999084E0
1.690888120E1,4.654040039E-1,3.273381472E0,9.367900848E0
1.692899136E1,3.445664644E-1,3.274577856E0,9.282955170E0
1.694910157E1,3.236292601E-1,3.284747362E0,9.183054924E0
1.696921178E1,4.325026870E-1,3.310470104E0,9.242876053E0
1.698932193E1,5.036891699E-1,3.302693367E0,9.396614075E0
1.700943214E1,4.791627228E-1,3.294318676E0,9.432506561E0
1.702954230E1,4.953143001E-1,3.278765202E0,9.400801659E0
1.704965250E1,5.712863803E-1,3.270988464E0,9.436096191E0
1.706976266E1,5.593222976E-1,3.275774240E0,9.510273933E0
1.708987287E1,4.899304509E-1,3.259622574E0,9.507881165E0
1.710998303E1,4.749752879E-1,3.267997503E0,9.482755661E0
1.713009323E1,5.036891699E-1,3.322434187E0,9.401400566E0
1.715020339E1,5.688936114E-1,3.286541939E0,9.290133476E0
1.717031360E1,4.899304509E-1,3.251846075E0,9.326025963E0
1.719042381E1,3.894318938E-1,3.323032379E0,9.289535522E0
1.721053396E1,4.145565331E-1,3.287140131E0,9.242277145E0
1.723064417E1,4.845465720E-1,3.259024382E0,9.420542717E0
1.725075433E1,4.749752879E-1,3.229712248E0,9.711869240E0
1.727086454E1,4.594219327E-1,3.163909674E0,9.763913155E0
1.729097469E1,3.726821244E-1,3.187239647E0,9.605986595E0
1.731108490E1,3.702892959E-1,3.226721287E0,9.373284340E0
1.733119506E1,4.582255483E-1,3.250051260E0,9.199805260E0
1.735130526E1,6.143572330E-1,3.266801119E0,9.211171150E0
1.737141547E1,5.952146053E-1,3.329612732E0,9.225527763E0
1.739152563E1,5.024927258E-1,3.343969584E0,9.177671432E0
1.741163584E1,5.114658475E-1,3.306282759E0,9.231510162E0
1.743174599E1,5.371887088E-1,3.259024382E0,9.395418167E0
1.745185620E1,5.389832854E-1,3.235096216E0,9.510871887E0
1.747196636E1,4.785645306E-1,3.266801119E0,9.570094109E0
1.749207657E1,4.420739710E-1,3.286541939E0,9.457631111E0
1.751218672E1,4.384847581E-1,3.287738323E0,9.263215065E0
1.753229693E1,4.749752879E-1,3.294318676E0,9.268000603E0
1.755240709E1,4.965106845E-1,3.251247883E0,9.428917885E0
1.757251730E1,4.606183469E-1,3.220141172E0,9.540184021E0
1.759262750E1,4.498506486E-1,3.229114056E0,9.494720459E0
1.761273766E1,4.833501875E-1,3.231507063E0,9.430712700E0
1.763284787E1,4.947160780E-1,3.245863914E0,9.366703987E0
1.765295803E1,4.761717021E-1,3.244069338E0,9.298508644E0
1.767306823E1,4.749752879E-1,3.196810961E0,9.334401131E0
1.769317839E1,4.085744619E-1,3.263211966E0,9.332008362E0
1.771328860E1,4.277170599E-1,3.305684566E0,9.248857498E0
1.773339876E1,5.144568682E-1,3.256033421E0,9.265008926E0
1.775350896E1,5.557330847E-1,3.221337557E0,9.454640388E0
1.777361917E1,5.108676553E-1,3.187838078E0,9.548559189E0
1.779372933E1,4.271188378E-1,3.171088219E0,9.519845009E0
1.781383948E1,4.402793646E-1,3.218346357E0,9.430712700E0
1.783394969E1,5.527420044E-1,3.244667530E0,9.323035240E0
1.785405990E1,6.305087805E-1,3.241676569E0,9.233304024E0
1.787417006E1,5.982056856E-1,3.291327477E0,9.193822861E0
1.789428027E1,5.850451589E-1,3.330809116E0,9.233304024E0
1.791439042E1,5.838487148E-1,3.290131092E0,9.304491043E0
1.793450063E1,5.204389095E-1,3.269193888E0,9.339784622E0
1.795461079E1,4.917250574E-1,3.251247883E0,9.299705505E0
1.797472099E1,5.216353536E-1,3.254837036E0,9.311669350E0
1.799483115E1,5.198407173E-1,3.259622574E0,9.424730301E0
1.801494136E1,4.456632137E-1,3.229712248E0,9.523433685E0
1.803505152E1,4.103690982E-1,3.223730326E0,9.560523033E0
1.805516172E1,4.689932466E-1,3.181855917E0,8.514261246E0
1.807527188E1,5.078766346E-1,3.223132133E0,7.701299667E0
1.809538209E1,2.183450609E-1,3.049054146E0,1.171286678E1
1.811549230E1,2.003988922E-1,3.023331404E0,1.128275681E1
