"Time (s)","Acceleration x (m/s^2)","Acceleration y (m/s^2)","Acceleration z (m/s^2)"
0.000000000E0,-4.560000300E-1,3.070950031E0,9.124050140E0
1.380797900E-2,-1.189050078E0,2.980050087E0,7.969950199E0
3.373842700E-2,-1.524000049E0,2.884050131E0,9.994950294E0
5.367317400E-2,-6.430500150E-1,2.145000219E0,1.167105103E1
7.360649400E-2,-2.809500098E-1,2.293050051E0,1.143705082E1
9.354459500E-2,-3.529500067E-1,2.877000093E0,9.538050652E0
1.134812790E-1,-2.569500208E-1,3.136050224E0,8.299950600E0
1.334171510E-1,-2.700000070E-2,2.899050236E0,8.413050652E0
1.533532370E-1,1.300500035E-1,2.740950108E0,9.439949989E0
1.732891020E-1,9.795000404E-2,2.616000175E0,9.976050377E0
1.932250210E-1,-2.620500028E-1,2.728950024E0,1.000995064E1
2.131551200E-1,-5.449500084E-1,2.803050041E0,9.945000648E0
2.330869000E-1,-3.049500287E-1,2.596950054E0,9.415950775E0
2.530173210E-1,-2.190000117E-1,2.743050098E0,8.971050262E0
2.729481360E-1,-1.930500120E-1,2.833950043E0,9.142950058E0
2.928835780E-1,-1.519500017E-1,2.748000145E0,9.949950218E0
3.128176680E-1,-1.605000161E-2,2.539950132E0,1.041405010E1
3.327523980E-1,-8.700000495E-2,2.524950027E0,9.973950386E0
3.526869230E-1,-2.839500010E-1,2.683050156E0,9.136050224E0
3.726254880E-1,-5.179499984E-1,2.824950218E0,8.616000175E0
3.925628600E-1,-6.330000162E-1,2.925000191E0,8.797950745E0
4.124959270E-1,-4.510500133E-1,2.856000185E0,9.136050224E0
4.324302520E-1,-2.089500129E-1,2.748000145E0,9.315000534E0
4.523651010E-1,-7.800000161E-2,2.698050022E0,9.076050758E0
4.722997930E-1,-1.620000005E-1,2.749950171E0,8.701950073E0
4.922306800E-1,-3.889500201E-1,2.817000151E0,8.500950813E0
5.121626650E-1,-3.990000188E-1,2.740950108E0,8.358000755E0
5.320917840E-1,-2.479500175E-1,2.568000078E0,7.840950489E0
5.520217420E-1,-3.000000119E-1,2.608950138E0,7.278000355E0
5.719508330E-1,-3.559500277E-1,2.607000113E0,7.105050564E0
5.918801890E-1,-3.150000274E-1,2.398050070E0,7.242000580E0
6.118116670E-1,-3.820500076E-1,2.359950066E0,7.438050270E0
6.317425430E-1,-4.350000322E-1,2.310000181E0,7.231950283E0
6.516771190E-1,-5.140500069E-1,2.302950144E0,6.895050526E0
6.716106150E-1,-7.150500417E-1,2.310000181E0,6.603000164E0
6.915401470E-1,-8.989500403E-1,2.298000097E0,6.532950401E0
7.114708430E-1,-8.869500160E-1,2.257050037E0,6.784950256E0
7.314057640E-1,-7.840500474E-1,2.281050205E0,7.434000492E0
7.513394510E-1,-5.179499984E-1,2.202000141E0,8.430000305E0
7.712725860E-1,-4.150500298E-1,2.137050152E0,9.574050903E0
7.912058960E-1,-3.670500219E-1,2.106000185E0,1.051500034E1
8.111380770E-1,-4.200000167E-1,2.140050173E0,1.105605030E1
8.310705880E-1,-7.549500465E-1,2.282999992E0,1.145100021E1
8.510105860E-1,-1.074000001E0,2.479950190E0,1.190400028E1
8.709484080E-1,-1.119000077E0,2.475000143E0,1.287600040E1
8.908943650E-1,-1.024049997E0,2.341050148E0,1.376205063E1
9.108379420E-1,-7.650000453E-1,2.620950222E0,1.507800102E1
9.307884530E-1,2.639999986E-1,2.824950218E0,1.668000031E1
9.507369370E-1,1.055999994E0,2.587950230E0,1.734600067E1
9.706762250E-1,1.342950106E0,2.044049978E0,1.612500000E1
9.906182230E-1,1.012950063E0,2.044049978E0,1.361595058E1
1.010561654E0,5.050500035E-1,2.371950150E0,1.134600067E1
1.030504672E0,9.289500713E-1,2.062950134E0,8.820000648E0
1.050448236E0,-1.234050035E0,2.073000193E0,8.206950188E0
1.070391654E0,-1.432950020E0,1.548000097E0,7.885950565E0
1.090327829E0,-1.095000029E0,1.311000109E0,7.489050388E0
1.110266122E0,-1.894950032E0,1.570050120E0,7.000050545E0
1.130198820E0,-2.194050074E0,1.599000096E0,6.426000118E0
1.150133174E0,-2.247000217E0,1.551000118E0,6.049950123E0
1.170065722E0,-2.356950045E0,1.699050069E0,5.947050095E0
1.189998795E0,-2.212949991E0,1.771050096E0,6.208050251E0
1.209934705E0,-1.588950038E0,1.524000049E0,6.588000298E0
1.229869788E0,-9.400500655E-1,1.246950030E0,6.816000462E0
1.249802387E0,-7.219500542E-1,1.129050016E0,6.892050266E0
1.269735713E0,-7.099500299E-1,1.108050108E0,7.045950413E0
1.289669652E0,-7.840500474E-1,1.263000011E0,7.261050224E0
1.309603408E0,-8.820000291E-1,1.572000027E0,7.539000511E0
1.329541605E0,-6.640500426E-1,1.651050091E0,7.941000462E0
1.349478494E0,-4.110000134E-1,1.489050031E0,8.701950073E0
1.369414668E0,-2.410500050E-1,1.144050002E0,9.835050583E0
1.389351045E0,-4.560000300E-1,1.062000036E0,1.116600037E1
1.409283195E0,-8.730000257E-1,1.357050061E0,1.266495037E1
1.429216583E0,-8.539500237E-1,1.441050053E0,1.311000061E1
1.449149106E0,-8.629500270E-1,1.831050038E0,1.253805065E1
1.469081886E0,-8.869500160E-1,2.467950106E0,1.112100029E1
1.489021687E0,-1.093050003E0,3.130950212E0,1.032300091E1
1.508959428E0,-1.050000072E0,3.382050276E0,1.123305035E1
1.528902353E0,-6.550500393E-1,2.659050226E0,1.303905106E1
1.548843750E0,-8.220000267E-1,1.726050138E0,1.461195087E1
1.568784227E0,-1.711050034E0,1.302000046E0,1.516905117E1
1.588724977E0,-2.572950125E0,1.330950022E0,1.369695091E1
1.608662650E0,-2.743050098E0,1.381050110E0,1.187295055E1
1.628601218E0,-2.737950087E0,1.512000084E0,1.054095078E1
1.648535916E0,-2.743050098E0,1.977000117E0,9.138000488E0
1.668471752E0,-2.419050217E0,2.191950083E0,8.058000565E0
1.688412840E0,-1.945050120E0,2.092050076E0,7.555950165E0
1.708352379E0,-1.668000102E0,1.833000064E0,7.285050392E0
1.728287728E0,-1.665000081E0,1.663050056E0,7.060050488E0
1.748224305E0,-1.680000067E0,1.456950068E0,6.904050350E0
1.768159890E0,-1.548000097E0,1.219950080E0,6.576000214E0
1.788095766E0,-1.375050068E0,1.093050003E0,6.193050385E0
1.808035516E0,-1.191000104E0,9.760500193E-1,5.820000172E0
1.827974139E0,-1.047000051E0,8.590500355E-1,5.701950073E0
1.847914020E0,-1.012050033E0,7.390500307E-1,5.812950134E0
1.867853529E0,-9.589500427E-1,6.049500108E-1,6.334950447E0
1.887799246E0,-7.939500213E-1,5.569500327E-1,7.279950142E0
1.907743144E0,-5.449500084E-1,6.120000482E-1,8.058000565E0
1.927680859E0,-1.350000054E-1,7.339500189E-1,8.473050117E0
1.947620382E0,2.440500110E-1,9.210000634E-1,8.941950798E0
1.967560759E0,6.900000572E-1,1.102950096E0,9.733950615E0
1.987500899E0,1.284000039E0,1.362000108E0,1.114005089E1
2.007441812E0,1.879950047E0,1.455000043E0,1.305795097E1
2.027382505E0,2.470950127E0,1.350000024E0,1.503300095E1
2.047319864E0,2.587950230E0,1.207950115E0,1.641705132E1
2.067258199E0,2.428050041E0,1.225050092E0,1.685295105E1
2.087193939E0,2.617050171E0,1.267950058E0,1.666604996E1
2.107130435E0,3.181950092E0,1.309050083E0,1.677795029E1
2.127061709E0,3.757050276E0,1.122000098E0,1.671899986E1
2.146994512E0,3.915000200E0,7.320000529E-1,1.598100090E1
2.166930805E0,3.594000101E0,5.430000424E-1,1.455405045E1
2.186866097E0,2.884950161E0,7.390500307E-1,1.252395058E1
2.206804056E0,2.152950048E0,1.090950012E0,1.037595081E1
2.226741241E0,1.534950018E0,1.347000122E0,8.427000046E0
2.246679025E0,1.047000051E0,1.510050058E0,6.835050106E0
2.266616630E0,6.060000062E-1,1.570050120E0,5.674050331E0
2.286553257E0,2.730000019E-1,1.624950051E0,4.753950119E0
2.306490171E0,-1.639500111E-1,1.680000067E0,4.189050198E0
2.326417692E0,-6.430500150E-1,1.705950022E0,3.957000256E0
2.346347954E0,-8.749500513E-1,1.644000053E0,3.877950191E0
2.366288754E0,-9.660000205E-1,1.504950047E0,4.194000244E0
2.386226477E0,-8.890500665E-1,1.351950049E0,4.809000015E0
2.406164835E0,-6.979500055E-1,1.230000019E0,5.614050388E0
2.426103010E0,-3.319500089E-1,1.065000057E0,6.351000309E0
2.446039044E0,7.695000619E-2,1.117050052E0,7.057950497E0
2.465975705E0,5.820000172E-1,1.278000116E0,7.393050194E0
2.485909969E0,8.770500422E-1,1.474050045E0,7.429050446E0
2.505844936E0,8.809500337E-1,1.747050047E0,7.474050522E0
2.525779446E0,8.500500321E-1,1.963050127E0,7.510050297E0
2.545714090E0,9.240000248E-1,2.026950121E0,7.690050602E0
2.565650000E0,9.340500236E-1,1.897950053E0,8.062950134E0
2.585585543E0,5.650500059E-1,1.813950062E0,8.815050125E0
2.605522897E0,5.505000427E-2,1.773000121E0,9.924000740E0
2.625459711E0,-3.960000277E-1,1.843050122E0,1.129305077E1
2.645392454E0,-3.580500185E-1,1.881000042E0,1.301700020E1
2.665326396E0,1.729500145E-1,1.954950094E0,1.466205025E1
2.685258649E0,8.599500656E-1,1.929000139E0,1.615395164E1
2.705191396E0,1.413000107E0,1.600950122E0,1.735995102E1
2.725128266E0,1.389000058E0,1.216050029E0,1.813605118E1
2.745063962E0,7.039500475E-1,9.670500755E-1,1.819799995E1
2.765001772E0,-9.000000358E-2,8.350500464E-1,1.690800095E1
2.784938962E0,-6.000000238E-1,9.400500655E-1,1.451100063E1
2.804871889E0,-8.539500237E-1,1.411950111E0,1.177200031E1
2.824806055E0,-7.189500332E-1,1.924050093E0,9.552000046E0
2.844738600E0,-4.180500209E-1,2.250000000E0,8.080050468E0
2.864671609E0,-3.220500052E-1,2.485050201E0,7.204050541E0
2.884611761E0,-4.129500091E-1,2.596950054E0,6.837000370E0
2.904549828E0,-7.219500542E-1,2.509050131E0,6.694050312E0
2.924488903E0,-1.026000023E0,2.269050121E0,6.531000137E0
2.944427679E0,-1.258050084E0,2.065950155E0,6.277050495E0
2.964375625E0,-1.327950120E0,1.884000063E0,6.009000301E0
2.984320895E0,-1.366050124E0,1.696950078E0,5.734050274E0
3.004265520E0,-1.440000057E0,1.572000027E0,5.559000492E0
3.024210344E0,-1.363950014E0,1.548000097E0,5.458050251E0
3.044153467E0,-1.222050071E0,1.702050090E0,5.848050117E0
3.064097099E0,-8.659500480E-1,1.552950025E0,6.648000240E0
3.084036836E0,-4.939500093E-1,1.252050042E0,7.407000542E0
3.103977714E0,-4.420500100E-1,1.194000006E0,7.912050247E0
3.123916347E0,-3.720000088E-1,1.165050030E0,8.134950638E0
3.143855637E0,-1.140000075E-1,1.225050092E0,8.070000648E0
3.163810298E0,1.609500051E-1,1.429050088E0,7.996050358E0
3.183760467E0,4.240500331E-1,1.738050103E0,8.224050522E0
3.203702919E0,8.740500212E-1,1.848000050E0,8.596950531E0
3.223647628E0,1.260000110E0,1.908000112E0,9.157050133E0
3.243592227E0,1.603950024E0,1.896000147E0,1.041000080E1
3.263536858E0,1.702950120E0,1.824000120E0,1.251195049E1
3.283482029E0,1.510950089E0,1.704000115E0,1.482495117E1
3.303427029E0,1.437000036E0,1.471950054E0,1.635195160E1
3.323373521E0,1.695000052E0,1.299000025E0,1.722600174E1
3.343319573E0,2.128950119E0,5.670000315E-1,1.749705124E1
3.363259650E0,1.935000062E0,-1.549500078E-1,1.730504990E1
3.383201454E0,1.315050006E0,-4.789500237E-1,1.689300156E1
3.403138125E0,3.670500219E-1,-6.409500241E-1,1.578000069E1
3.423076300E0,-7.030500174E-1,-7.279500365E-1,1.410900021E1
3.443015725E0,-1.510050058E0,-5.170500278E-1,1.184895039E1
3.462954774E0,-1.528950095E0,-4.330500066E-1,9.931050301E0
3.482892595E0,-1.464000106E0,-2.730000019E-1,8.377050400E0
3.502830776E0,-1.585950017E0,4.110000134E-1,6.828000546E0
3.522766402E0,-1.474050045E0,1.017000079E0,5.913000107E0
3.542702776E0,-1.189050078E0,1.359000087E0,5.656950474E0
3.562641910E0,-9.919500351E-1,1.548000097E0,5.917950153E0
3.582580236E0,-8.920500278E-1,1.612950087E0,6.105000496E0
3.602525400E0,-8.200500607E-1,1.468950033E0,6.322950363E0
3.622468554E0,-6.070500016E-1,1.287000060E0,6.955050468E0
3.642410551E0,-3.649500310E-1,1.129050016E0,7.596000195E0
3.662352877E0,-1.279500127E-1,1.065000057E0,8.125050545E0
3.682294480E0,6.195000187E-2,9.120000601E-1,8.206950188E0
3.702236281E0,-9.000000358E-2,8.470500112E-1,7.951050282E0
3.722176693E0,-1.399500072E-1,8.089500666E-1,7.618050575E0
3.742117512E0,5.100000277E-2,7.969500422E-1,7.323000431E0
3.762065657E0,1.770000011E-1,1.045950055E0,7.273050308E0
3.782011659E0,4.170000255E-1,1.192050099E0,7.833000183E0
3.801961097E0,8.119500279E-1,1.170000076E0,7.507950306E0
3.821909519E0,8.290500641E-1,9.760500193E-1,7.414050579E0
3.841856031E0,-8.700000495E-2,1.323000073E0,7.893000603E0
3.861803117E0,-8.680500388E-1,1.987050056E0,8.908050537E0
3.881750182E0,-3.820500076E-1,1.987050056E0,1.035195065E1
3.901697261E0,5.269500017E-1,1.993950129E0,1.176000023E1
3.921653154E0,1.055999994E0,2.134950161E0,1.301505089E1
3.941606476E0,2.124000072E0,1.680000067E0,1.387200069E1
3.961553370E0,7.714950562E0,2.362050056E0,1.431000042E1
3.981502156E0,6.244950294E0,3.150000095E0,1.487700081E1
4.001441023E0,-5.659500360E-1,8.059500456E-1,1.851705170E1
4.021382785E0,1.819500029E-1,1.004999995E0,1.680195045E1
4.041329997E0,3.900000080E-2,1.663050056E0,1.487505054E1
4.061275620E0,9.100500345E-1,2.002950191E0,1.292595100E1
4.081219869E0,-2.620500028E-1,1.582050085E0,1.241100025E1
4.101164531E0,-1.216950059E0,4.180500209E-1,9.949950218E0
4.121112611E0,2.830500007E-1,3.349500299E-1,8.644950867E0
4.141059687E0,2.433000088E0,1.951050043E0,5.959050179E0
4.161008031E0,1.867950082E0,1.729950070E0,4.419000149E0
4.180956000E0,9.679500461E-1,1.579950094E0,4.141050339E0
4.200901433E0,6.079500318E-1,2.443950176E0,4.720950127E0
4.220847612E0,-1.420500129E-1,2.701950073E0,6.325050354E0
4.240794332E0,-3.870000243E-1,2.458050013E0,6.267000198E0
4.260740904E0,3.600000218E-2,2.134950161E0,7.639050484E0
4.280684833E0,5.505000427E-2,1.534050107E0,7.963050365E0
4.300629530E0,5.650500059E-1,1.647000074E0,7.560000420E0
4.320574806E0,1.770000011E-1,1.813950062E0,7.438050270E0
4.340519913E0,-3.199500144E-1,2.073000193E0,7.419000149E0
4.360461241E0,-6.400500536E-1,2.266950130E0,7.635000229E0
4.380403679E0,-1.231950045E0,1.837950110E0,8.845950127E0
4.400345208E0,-5.899500251E-1,2.236050129E0,7.668000221E0
4.420286997E0,-4.990500212E-1,2.058000088E0,8.974950790E0
4.440226555E0,-1.059000015E0,2.044049978E0,8.527950287E0
4.460166766E0,-6.480000019E-1,2.817000151E0,8.359950066E0
4.480097552E0,-7.360500097E-1,3.076050043E0,8.620950699E0
4.500031088E0,-9.060000181E-1,2.506050110E0,9.676950455E0
4.519970723E0,-1.930500120E-1,2.180999994E0,1.131900024E1
4.539908562E0,-9.705000371E-2,2.293050051E0,1.289205074E1
4.559849158E0,-6.795000285E-2,2.896050215E0,1.339305019E1
4.579788947E0,1.390500069E-1,3.355950117E0,1.330395031E1
4.599735121E0,3.600000218E-2,3.457050085E0,1.318695068E1
4.619679418E0,-2.260500044E-1,3.433050156E0,1.220505047E1
4.639620064E0,-7.095000148E-2,3.505050182E0,1.108005047E1
4.659561790E0,6.349500418E-1,3.631050110E0,1.093905067E1
4.679499746E0,1.027050018E0,3.154950142E0,1.224795055E1
4.699438800E0,6.250500083E-1,2.188050032E0,1.319205093E1
4.719370325E0,6.010500193E-1,1.330950022E0,1.279005051E1
4.739304045E0,9.940500259E-1,9.139500260E-1,1.143195057E1
4.759237742E0,1.195050001E0,1.204050064E0,9.837000847E0
4.779171439E0,9.630000591E-1,1.905000091E0,8.584950447E0
4.799110878E0,6.559500098E-1,2.547000170E0,7.627050400E0
4.819048648E0,4.260000288E-1,2.791050196E0,7.366050243E0
4.838985212E0,3.790500164E-1,2.692950010E0,7.462050438E0
4.858922122E0,3.949500322E-1,2.331000090E0,7.666050434E0
4.878861443E0,4.669500291E-1,1.984050035E0,7.777950287E0
4.898800052E0,6.850500107E-1,1.987050056E0,7.696950436E0
4.918741003E0,6.370500326E-1,2.122950077E0,7.711050510E0
4.938681274E0,7.020000219E-1,2.128050089E0,7.675050259E0
4.958621039E0,6.160500050E-1,2.118000031E0,7.462050438E0
4.978560959E0,4.669500291E-1,1.942950130E0,7.321050167E0
4.998496971E0,4.789500237E-1,1.780950069E0,7.252050400E0
5.018434121E0,6.079500318E-1,1.720950127E0,7.797000408E0
5.038372112E0,5.410500169E-1,1.539000034E0,8.302950859E0
5.058309870E0,2.680500150E-1,1.354050040E0,8.394000053E0
5.078246796E0,1.249500066E-1,1.240050077E0,8.394000053E0
5.098183959E0,2.560500205E-1,1.222950101E0,8.559000015E0
5.118112550E0,4.309500158E-1,1.501050115E0,8.707050323E0
5.138043651E0,4.410000145E-1,1.642050028E0,8.937000275E0
5.157974943E0,7.810500264E-1,1.630050063E0,9.133049965E0
5.177906183E0,5.869500041E-1,1.759050131E0,9.648000717E0
5.197839783E0,-4.780500233E-1,1.800000072E0,1.069905090E1
5.217772672E0,-8.130000234E-1,2.176050186E0,1.216695023E1
5.237713537E0,3.105000220E-2,2.620950222E0,1.319205093E1
5.257652062E0,1.249500066E-1,2.889000177E0,1.397700024E1
5.277591941E0,-9.210000634E-1,2.892000198E0,1.355805111E1
5.297531433E0,-1.119000077E0,3.121050119E0,1.298100090E1
5.317466430E0,-6.790500283E-1,2.974950075E0,1.313400078E1
5.337402743E0,-5.970000029E-1,2.530050039E0,1.356795025E1
5.357336390E0,-1.126049995E0,2.182950020E0,1.319895077E1
5.377270819E0,-1.504950047E0,1.942950130E0,1.206600094E1
5.397205992E0,-1.368000031E0,1.855050087E0,1.086705017E1
5.417140957E0,-9.679500461E-1,2.158950090E0,9.624000549E0
5.437081790E0,-7.030500174E-1,2.415000200E0,8.430000305E0
5.457020894E0,-4.969500303E-1,2.487000227E0,7.429050446E0
5.476962890E0,-3.030000031E-1,2.511000156E0,6.991050243E0
5.496904043E0,3.000000026E-3,2.488950014E0,7.285050392E0
5.516845792E0,3.000000119E-1,2.286000013E0,7.884000301E0
5.536787360E0,3.810000122E-1,1.953000069E0,8.548950195E0
5.556727152E0,3.040500283E-1,1.837950110E0,9.085950851E0
5.576667454E0,1.219500080E-1,1.960050106E0,9.097949982E0
5.596607727E0,-1.780500114E-1,2.166000128E0,9.004050255E0
5.616548002E0,-6.240000129E-1,2.571000099E0,9.016050339E0
5.636488670E0,-8.970000148E-1,2.628000021E0,9.294000626E0
5.656429226E0,-1.035000086E0,2.182950020E0,9.363000870E0
5.676371848E0,-9.610500336E-1,1.699050069E0,9.106950760E0
5.696313855E0,-9.109500647E-1,1.756950140E0,8.563950539E0
5.716257341E0,-7.699500322E-1,2.026950121E0,7.867050171E0
5.736200394E0,-7.770000100E-1,2.176050186E0,7.290000439E0
5.756147981E0,-8.940000534E-1,2.206950188E0,6.651000500E0
5.776094240E0,-8.389500380E-1,2.370000124E0,5.947050095E0
5.796034194E0,-5.590500236E-1,2.647050142E0,5.884050369E0
5.815976002E0,-6.619500518E-1,2.656950235E0,6.397050381E0
5.835919852E0,-7.890000343E-1,2.427000046E0,7.350000381E0
5.855863124E0,-6.160500050E-1,2.226000071E0,8.716950417E0
5.875807379E0,-4.050000105E-3,2.440950155E0,9.736950874E0
5.895751350E0,3.810000122E-1,2.797950029E0,1.071105003E1
5.915685323E0,1.530000120E-1,2.896050215E0,1.158300018E1
5.935622214E0,-4.695000127E-2,2.989950180E0,1.200405025E1
5.955565405E0,-1.540500075E-1,3.564000130E0,1.234395027E1
5.975506750E0,-7.099500299E-1,4.005000114E0,1.232505035E1
5.995447051E0,-1.552950025E0,4.000050068E0,1.255500031E1
6.015387665E0,-1.905000091E0,3.697950125E0,1.415400028E1
6.035321310E0,-1.810950041E0,2.758050203E0,1.569600105E1
6.055256987E0,-1.990950108E0,2.001000166E0,1.582995033E1
6.075193898E0,-1.894950032E0,1.656000137E0,1.419495106E1
6.095130447E0,-1.629000068E0,1.735050082E0,1.161600018E1
6.115064727E0,-1.444950104E0,2.080049992E0,9.247950554E0
6.134999675E0,-1.122000098E0,2.443950176E0,7.893000603E0
6.154933502E0,-1.074000001E0,2.463000059E0,7.108050346E0
6.174867665E0,-1.246050000E0,2.377050161E0,6.727050304E0
6.194801262E0,-1.555050015E0,2.358000040E0,6.631050110E0
6.214735035E0,-1.876050115E0,2.282999992E0,6.531000137E0
6.234668943E0,-1.747050047E0,1.873950124E0,6.576000214E0
6.254602808E0,-1.090950012E0,1.611000061E0,6.502050400E0
6.274537386E0,-5.950500369E-1,1.386000037E0,6.379950523E0
6.294471745E0,-6.499500275E-1,1.117050052E0,6.126000404E0
6.314416869E0,-8.269500136E-1,1.266000032E0,5.523000240E0
6.334358832E0,-7.720500231E-1,1.608000040E0,4.951050282E0
6.354298140E0,-6.520500183E-1,1.936050057E0,4.837950230E0
6.374238223E0,-6.570000052E-1,2.317050219E0,4.960050106E0
6.394177307E0,-6.000000238E-1,2.530050039E0,5.793000221E0
6.414116684E0,-6.240000129E-1,2.548950195E0,7.576950550E0
6.434053857E0,-5.929500461E-1,2.872050047E0,9.784950256E0
6.453991679E0,-6.280500293E-1,3.102000237E0,1.188000011E1
6.473932833E0,-7.189500332E-1,3.112050056E0,1.360800076E1
6.493873000E0,-4.780500233E-1,2.896050215E0,1.472895050E1
6.513808786E0,1.319999993E-1,2.452950001E0,1.530600071E1
6.533745852E0,5.820000172E-1,2.307000160E0,1.483200073E1
6.553686550E0,8.839500546E-1,2.643000126E0,1.377600098E1
6.573626173E0,1.473000050E0,2.977950096E0,1.361100101E1
6.593562508E0,1.564050078E0,2.491950035E0,1.492305088E1
6.613499800E0,9.079500437E-1,1.453050017E0,1.632795143E1
6.633434297E0,-1.330500096E-1,1.036050081E0,1.649805069E1
6.653369627E0,-1.111950040E0,1.402050018E0,1.530405045E1
6.673312165E0,-1.936050057E0,1.824000120E0,1.331100082E1
6.693252605E0,-2.211000204E0,2.142000198E0,1.106595039E1
6.713197216E0,-1.953000069E0,2.142000198E0,8.962950706E0
6.733140605E0,-1.708050132E0,1.977000117E0,7.150950432E0
6.753086372E0,-1.492950082E0,1.965000153E0,5.761950493E0
6.773031446E0,-1.141050100E0,1.954950094E0,4.849950314E0
6.792971255E0,-7.699500322E-1,1.939050078E0,4.407000065E0
6.812912636E0,-6.120000482E-1,1.789950132E0,4.294950008E0
6.832853990E0,-5.260500312E-1,1.623000026E0,4.354050159E0
6.852795343E0,-5.710500479E-1,1.624950051E0,4.524000168E0
6.872737669E0,-7.429500222E-1,1.861950040E0,4.780950069E0
6.892679716E0,-8.800500631E-1,2.125050068E0,5.152050018E0
6.912621140E0,-1.111950040E0,2.260050058E0,5.425050259E0
6.932562767E0,-1.240950108E0,2.386050224E0,5.560950279E0
6.952506803E0,-1.291950107E0,2.470050097E0,6.382050514E0
6.972450140E0,-1.453950047E0,2.394000053E0,7.659000397E0
6.992387931E0,-1.411050081E0,2.451000214E0,8.566050529E0
7.012327358E0,-1.251000047E0,2.520000219E0,9.672000885E0
7.032262034E0,-1.225050092E0,2.599950075E0,1.092000008E1
7.052198112E0,-1.138050079E0,2.821950197E0,1.138605022E1
7.072131720E0,-7.150500417E-1,3.262950182E0,1.126695061E1
7.092066045E0,-5.779500008E-1,3.223950148E0,1.172895050E1
7.111998158E0,-6.600000262E-1,2.797950029E0,1.268400097E1
7.131930940E0,-5.329500437E-1,2.592000008E0,1.405095100E1
7.151861359E0,-1.800000109E-2,2.602050066E0,1.584495068E1
7.171792473E0,6.540000439E-1,2.097000122E0,1.749405098E1
7.191726236E0,5.650500059E-1,1.611000061E0,1.765695000E1
7.211659230E0,-1.780500114E-1,1.855050087E0,1.629000092E1
7.231600117E0,-8.680500388E-1,2.367000103E0,1.380900097E1
7.251538692E0,-1.129050016E0,2.689950228E0,1.114695072E1
7.271477283E0,-1.117050052E0,2.800950050E0,9.126000404E0
7.291415860E0,-1.219950080E0,2.892000198E0,7.957950592E0
7.311359881E0,-1.201050043E0,2.908050060E0,7.282950401E0
7.331302313E0,-8.770500422E-1,2.941950083E0,6.754050255E0
7.351250352E0,-4.849500358E-1,2.986950159E0,6.370050430E0
7.371196759E0,-2.550000250E-1,2.832000017E0,6.102000237E0
7.391145939E0,-5.895000324E-2,2.512950182E0,5.974950314E0
7.411094303E0,4.605000094E-2,2.278950214E0,5.932050228E0
7.431041711E0,1.300500035E-1,2.299950123E0,5.962950230E0
7.450989392E0,1.680000126E-1,2.524950027E0,6.007050514E0
7.470933646E0,3.829500079E-1,2.583000183E0,5.968050480E0
7.490878915E0,6.439500451E-1,2.479950190E0,6.279000282E0
7.510813004E0,6.319500208E-1,2.334000111E0,6.985950470E0
7.530750372E0,4.909500182E-1,2.401050091E0,7.647000313E0
7.550688980E0,5.700000525E-1,2.635050058E0,8.109000206E0
7.570627221E0,5.580000281E-1,2.911050081E0,8.920050621E0
7.590566307E0,2.370000184E-1,3.202950239E0,1.045305061E1
7.610505145E0,1.750500053E-1,3.093000174E0,1.172205067E1
7.630447476E0,8.290500641E-1,2.743050098E0,1.240905094E1
7.650388774E0,1.396050096E0,2.580000162E0,1.283295059E1
7.670328252E0,9.769500494E-1,2.748000145E0,1.323495102E1
7.690268253E0,2.280000150E-1,3.121050119E0,1.305105019E1
7.710209684E0,1.459500045E-1,3.459000111E0,1.264800072E1
7.730150703E0,2.160000056E-1,3.244050264E0,1.317000103E1
7.750092125E0,3.600000218E-2,2.683050156E0,1.401105022E1
7.770033415E0,-2.670000196E-1,2.449050188E0,1.377795029E1
7.789971793E0,-4.510500133E-1,2.580000162E0,1.231800079E1
7.809911027E0,-5.179499984E-1,2.904000044E0,1.051305008E1
7.829857827E0,-7.000500560E-1,3.190950155E0,9.118950844E0
7.849802410E0,-7.000500560E-1,3.235950232E0,8.334000587E0
7.869744263E0,-4.470000267E-1,2.950950146E0,7.897950172E0
7.889686930E0,-1.300500035E-1,2.656950235E0,7.498050213E0
7.909630603E0,-1.300500035E-1,2.596950054E0,7.255950451E0
7.929573991E0,-3.960000277E-1,2.596950054E0,6.976050377E0
7.949510031E0,-1.024049997E0,2.520000219E0,7.278000355E0
7.969448224E0,-1.039950013E0,3.088050127E0,6.784950256E0
7.989379721E0,1.849500090E-1,3.279000044E0,5.616000175E0
8.009313166E0,-1.759500057E-1,3.114000082E0,5.803050041E0
8.029249604E0,-6.280500293E-1,3.022950172E0,6.154950142E0
8.049185165E0,-8.080500364E-1,3.169050217E0,6.502050400E0
8.069133670E0,-1.024049997E0,3.166950226E0,6.739050388E0
8.089078356E0,-1.273050070E0,3.211950064E0,7.029000282E0
8.109016472E0,-1.203000069E0,3.102000237E0,7.540950298E0
8.128956512E0,-1.198050022E0,2.713950157E0,8.379000664E0
8.148894397E0,-9.589500427E-1,2.329050064E0,9.166950226E0
8.168832907E0,-7.339500189E-1,2.359950066E0,9.604950905E0
8.188772454E0,-6.240000129E-1,2.536950111E0,9.909000397E0
8.208711688E0,-4.470000267E-1,2.704950094E0,1.081200027E1
8.228650334E0,-3.649500310E-1,3.319950104E0,1.208805084E1
8.248589152E0,-5.400000215E-1,4.120050430E0,1.287795067E1
8.268528843E0,-1.047000051E0,4.375950336E0,1.335195065E1
8.288468289E0,-1.677000046E0,4.303950310E0,1.346205044E1
8.308404420E0,-2.155950069E0,4.381050110E0,1.341000080E1
8.328341522E0,-2.668050051E0,4.510050297E0,1.295700073E1
8.348283258E0,-2.791050196E0,4.536000252E0,1.185600090E1
8.368223620E0,-2.458050013E0,4.456950188E0,1.054095078E1
8.388162833E0,-2.263950109E0,4.255949974E0,9.291000366E0
8.408102386E0,-1.663050056E0,4.146000385E0,8.937000275E0
8.428042467E0,-3.846000195E0,3.876000166E0,1.389105034E1
8.447982389E0,-1.443000078E0,3.295950174E0,9.511950493E0
8.467927657E0,-7.270500064E-1,2.674050093E0,6.154950142E0
8.487871371E0,-1.774950027E0,2.836950064E0,4.989000320E0
8.507817742E0,-1.705950022E0,3.117000103E0,4.681950092E0
8.527763318E0,-1.282050014E0,3.289050102E0,5.467950344E0
8.547709996E0,-1.749000072E0,3.124050140E0,6.088050365E0
8.567656337E0,-1.963950038E0,2.647050142E0,7.383000374E0
8.587603554E0,-1.953000069E0,2.455950022E0,7.771050453E0
8.607550505E0,-1.378050089E0,2.608950138E0,6.319950104E0
8.627490931E0,-8.629500270E-1,2.752950191E0,5.314950466E0
8.647433271E0,-1.090950012E0,3.351000071E0,5.251950264E0
8.667376248E0,-1.300950050E0,3.751050234E0,6.367950439E0
8.687319038E0,-1.579050064E0,3.651000261E0,8.158950806E0
8.707262921E0,-1.288950086E0,3.540000200E0,9.286950111E0
8.727206490E0,-7.770000100E-1,3.610050201E0,1.005795002E1
8.747148227E0,-5.419500470E-1,3.655050278E0,1.016805077E1
8.767090497E0,-6.049500108E-1,3.250950098E0,1.067505074E1
8.787028485E0,-1.285050035E0,3.622050285E0,1.356495094E1
8.806967728E0,-1.267950058E0,5.020050049E0,1.445595074E1
8.826902085E0,-5.809500217E-1,5.640000343E0,1.406295109E1
8.846837877E0,1.030500084E-1,4.987050056E0,1.510995102E1
8.866782893E0,2.250000089E-1,4.081950188E0,1.622805023E1
8.886725197E0,-1.069500074E-1,3.919050217E0,1.548495102E1
8.906666620E0,-5.850000381E-1,3.949950218E0,1.366095066E1
8.926608291E0,-1.186050057E0,3.907050133E0,1.191600037E1
8.946543543E0,-1.600950122E0,3.720000267E0,1.048605061E1
8.966480675E0,-1.962000132E0,3.688950062E0,9.712950706E0
8.986415710E0,-1.668000102E0,3.691050291E0,9.351000786E0
9.006351363E0,-7.099500299E-1,3.318000078E0,8.628000259E0
9.026289999E0,-1.800000109E-2,2.947050095E0,8.676000595E0
9.046227754E0,4.605000094E-2,2.803050041E0,8.452950478E0
9.066167068E0,-3.409500122E-1,2.869950056E0,7.395000458E0
9.086105918E0,-8.370000124E-1,3.114000082E0,6.583950520E0
9.106041214E0,-1.267950058E0,3.136050224E0,6.303000450E0
9.125977545E0,-1.263000011E0,3.037950039E0,6.837000370E0
9.145920172E0,-9.450000525E-1,2.820000172E0,6.811050415E0
9.165860976E0,-8.940000534E-1,2.686050177E0,6.667050362E0
9.185805479E0,-1.363950014E0,3.052050114E0,4.809000015E0
9.205748899E0,-2.392950058E0,3.496950150E0,8.546999931E0
9.225688693E0,-2.446050167E0,3.205050230E0,1.003800011E1
9.245629535E0,-2.779050112E0,3.286950111E0,9.564000130E0
9.251567693E0,-2.271000147E0,2.632950068E0,1.046505070E1
9.256853741E0,-2.734950066E0,3.247950077E0,8.158950806E0
9.276788047E0,-1.651050091E0,3.078000069E0,6.556950092E0
9.296721662E0,2.539499998E-1,1.825950146E0,8.086950302E0
9.316655508E0,-1.504950047E0,1.551000118E0,1.028805065E1
9.336587750E0,-1.900050044E0,2.343000174E0,1.067295074E1
9.356520451E0,-2.050950050E0,2.764950037E0,1.053705025E1
9.376459679E0,-1.902000070E0,2.781000137E0,1.003605080E1
9.396396992E0,-1.323000073E0,2.841000080E0,9.262950897E0
9.416337662E0,-1.021050096E0,2.808000088E0,8.784000397E0
9.436277328E0,-1.131000042E0,2.710050106E0,8.949000359E0
9.456215819E0,-1.282050014E0,2.679000139E0,9.628950119E0
9.476154648E0,-1.372950077E0,2.563950062E0,1.040505028E1
9.496091614E0,-1.504950047E0,2.403000116E0,1.100805092E1
9.516029119E0,-1.474050045E0,2.298000097E0,1.062000084E1
9.535966243E0,-9.520500302E-1,2.410050154E0,9.982950211E0
9.555903489E0,-7.699500322E-1,2.572950125E0,9.318000793E0
9.575841617E0,-9.420000315E-1,2.403000116E0,8.773950577E0
9.595779487E0,-6.000000238E-1,2.547000170E0,8.640000343E0
9.615719201E0,-7.390500307E-1,2.449050188E0,9.046950340E0
9.635658357E0,-1.038000107E0,2.419950008E0,9.427950859E0
9.655605526E0,-1.246050000E0,2.656950235E0,9.535950661E0
9.675550352E0,-1.768050075E0,2.865000248E0,9.499950409E0
9.695499964E0,-2.134050131E0,2.989950180E0,9.624000549E0
9.715448184E0,-2.050950050E0,2.860050201E0,9.663000107E0
9.735394304E0,-1.747050047E0,2.475000143E0,9.499950409E0
9.755341036E0,-1.399050117E0,2.130000114E0,9.294000626E0
9.775280602E0,-1.098000050E0,1.933950067E0,9.019050598E0
9.795222267E0,-8.490000367E-1,1.960050106E0,8.572950363E0
9.815160574E0,-7.099500299E-1,2.073000193E0,8.002950668E0
9.835099872E0,-6.720000505E-1,2.098950148E0,7.491000175E0
9.855035491E0,-6.930000186E-1,2.092050076E0,7.158000469E0
9.874972185E0,-6.259500384E-1,2.026950121E0,6.694050312E0
9.894908542E0,-4.609500170E-1,1.930950046E0,6.214950085E0
9.914845012E0,-2.380500138E-1,1.900050044E0,5.869950294E0
9.934787279E0,-5.400000140E-2,1.939050078E0,5.881950378E0
9.954727852E0,9.405000508E-2,1.933950067E0,6.148050308E0
9.974668655E0,1.650000066E-1,2.041949987E0,6.696000099E0
9.994609390E0,1.005000062E-2,2.122950077E0,7.165050507E0
1.001454638E1,4.800000042E-2,2.037000179E0,7.618050575E0
1.003448446E1,1.319999993E-1,1.966950059E0,8.221050262E0
1.005442348E1,1.200000010E-2,2.089950085E0,9.301050186E0
1.007436223E1,-6.400500536E-1,2.209050179E0,1.069905090E1
1.009430104E1,-1.299000025E0,2.592000008E0,1.220805073E1
1.011423983E1,-1.138050079E0,3.004050255E0,1.400805092E1
1.013417498E1,-9.610500336E-1,2.788950205E0,1.549305058E1
1.015411120E1,-1.548000097E0,2.008050203E0,1.583505058E1
1.017404564E1,-1.792050123E0,1.977000117E0,1.514805031E1
1.019398063E1,-1.099950075E0,2.643000126E0,1.430505085E1
1.021391697E1,-7.480500340E-1,3.001950026E0,1.337400055E1
1.023385292E1,-1.320000052E0,2.893950224E0,1.231500053E1
1.025378278E1,-1.738950133E0,2.572950125E0,1.194000053E1
1.027371444E1,-1.351950049E0,2.152050018E0,1.206600094E1
1.029364487E1,-6.930000186E-1,1.687050104E0,1.183395100E1
1.031357566E1,-6.450000405E-1,1.362000108E0,1.102995014E1
1.033351026E1,-8.010000587E-1,1.371000051E0,9.684000015E0
1.035344374E1,-5.640000105E-1,1.459950089E0,7.876050472E0
1.037337510E1,-1.570500135E-1,1.522050023E0,6.117000103E0
1.039330710E1,-7.800000161E-2,1.536000013E0,5.221050262E0
1.041323818E1,-3.340500295E-1,1.395000100E0,5.302950382E0
1.043316955E1,-8.490000367E-1,1.182000041E0,6.109050274E0
1.045309859E1,-1.360950112E0,1.242000103E0,6.835050106E0
1.047302831E1,-1.525950074E0,1.579950094E0,6.742050171E0
1.049296155E1,-1.507050037E0,1.893000126E0,6.235950470E0
1.051289377E1,-1.693950057E0,1.860000134E0,5.905950069E0
1.053282722E1,-1.786950111E0,1.813950062E0,6.172050476E0
1.055276031E1,-1.486050129E0,2.025000095E0,6.616950512E0
1.057269807E1,-1.296000004E0,2.086950064E0,7.150950432E0
1.059263446E1,-1.294050097E0,1.848000050E0,7.885950565E0
1.061257537E1,-1.050000072E0,1.912050128E0,9.523950577E0
1.063251497E1,-1.368000031E0,1.711050034E0,1.192500019E1
1.065244603E1,-1.783050060E0,1.468950033E0,1.382100105E1
1.067237959E1,-1.191000104E0,1.960050106E0,1.414500046E1
1.069231132E1,-6.070500016E-1,2.451000214E0,1.391505051E1
1.071224358E1,-9.850500226E-1,2.475000143E0,1.393200111E1
1.073217288E1,-1.792050123E0,2.667000055E0,1.413000107E1
1.075210305E1,-2.284950018E0,3.187950134E0,1.392000103E1
1.077203122E1,-2.848050117E0,3.664950132E0,1.342905045E1
1.079195997E1,-3.319950104E0,3.712950230E0,1.324200058E1
1.081189110E1,-3.412950277E0,3.141000032E0,1.319895077E1
1.083182153E1,-3.193050146E0,2.503950119E0,1.241805077E1
1.085174966E1,-2.785950184E0,2.260050058E0,1.068705082E1
1.087167846E1,-2.304000139E0,2.302950144E0,8.953950882E0
1.089160938E1,-1.941000104E0,2.194950104E0,7.564950466E0
1.091153968E1,-1.440000057E0,1.885950089E0,6.454050541E0
1.093147019E1,-9.490500689E-1,1.600950122E0,5.832000256E0
1.095140063E1,-7.170000076E-1,1.479000092E0,5.836950302E0
1.097133722E1,-7.030500174E-1,1.489050031E0,5.920050144E0
1.099127201E1,-6.619500518E-1,1.596000075E0,5.785950184E0
1.101120355E1,-3.240000010E-1,1.663050056E0,5.664000034E0
1.103113603E1,4.605000094E-2,1.777950048E0,5.836950302E0
1.105106542E1,-7.950000465E-3,1.819050074E0,6.112050056E0
1.107099572E1,-5.730000138E-1,2.073000193E0,6.715050220E0
1.109092747E1,-1.342050076E0,2.226000071E0,7.584000587E0
1.111085879E1,-1.957050085E0,2.098950148E0,8.932050705E0
1.113078335E1,-2.335950136E0,1.953000069E0,1.011000061E1
1.115070988E1,-2.340000153E0,1.927050114E0,9.909000397E0
1.117063758E1,-2.292000055E0,1.989000082E0,9.133049965E0
1.119056494E1,-2.247000217E0,1.833000064E0,8.628000259E0
1.121049432E1,-2.022000074E0,1.656000137E0,8.580000877E0
1.123042311E1,-1.543050051E0,1.606050134E0,8.959050179E0
1.125034878E1,-1.327950120E0,1.671000123E0,9.271950722E0
1.127027536E1,-1.093050003E0,1.807050109E0,9.271950722E0
1.129020701E1,-1.063950062E0,1.917000055E0,9.588000298E0
1.131013718E1,-1.222050071E0,1.797000051E0,1.157295036E1
1.133006649E1,-1.603050113E0,1.347000122E0,1.495200062E1
1.134999604E1,-1.585950017E0,9.910500646E-1,1.767405128E1
1.136992734E1,-9.160500169E-1,7.849500179E-1,1.771695137E1
1.138985813E1,-5.830500126E-1,7.540500164E-1,1.547400093E1
1.140979398E1,-9.250500202E-1,1.326000094E0,1.293600082E1
1.142972836E1,-1.615050077E0,2.194950104E0,1.152105045E1
1.144966321E1,-1.849950075E0,2.716950178E0,1.129995060E1
1.146959791E1,-1.669950128E0,2.449050188E0,1.128600025E1
1.148953397E1,-1.090950012E0,1.920000076E0,1.043595028E1
1.150946962E1,-5.779500008E-1,1.611000061E0,9.118950844E0
1.152940635E1,-3.510000110E-1,1.534050107E0,7.411950588E0
1.154934277E1,-3.150000274E-1,1.762050033E0,5.628000259E0
1.156927765E1,-4.560000300E-1,2.026950121E0,4.311000347E0
1.158921299E1,-6.280500293E-1,2.164050102E0,3.402000189E0
1.160914348E1,-7.219500542E-1,2.274000168E0,3.235950232E0
1.162907539E1,-9.610500336E-1,2.341050148E0,4.275000095E0
1.164901065E1,-1.267950058E0,2.226000071E0,5.719050407E0
1.166894492E1,-1.291950107E0,1.978950143E0,6.763050556E0
1.168887388E1,-1.098000050E0,1.941000104E0,7.048050404E0
1.170880439E1,-6.910500526E-1,1.893000126E0,7.161000252E0
1.172873625E1,-6.310500503E-1,1.599000096E0,7.789950371E0
1.174866774E1,-8.700000644E-1,1.486050129E0,8.188050270E0
1.176860211E1,-9.610500336E-1,1.879050136E0,8.904000282E0
1.178853565E1,-1.111950040E0,2.137050152E0,1.075395012E1
1.180847298E1,-1.510050058E0,1.747050047E0,1.286400032E1
1.182840919E1,-1.596000075E0,1.555950046E0,1.418505096E1
1.184834335E1,-1.639050126E0,1.795050144E0,1.506405067E1
1.186827811E1,-2.247000217E0,1.792950034E0,1.603095055E1
1.188821509E1,-3.331950188E0,1.693950057E0,1.694099998E1
1.190815142E1,-3.741000175E0,1.756950140E0,1.785795021E1
1.192809238E1,-3.616950274E0,1.524000049E0,1.804695129E1
1.194803197E1,-3.171000242E0,1.213050008E0,1.665900040E1
1.196796775E1,-2.752050161E0,1.390050054E0,1.386495113E1
1.198790465E1,-2.728050232E0,1.873950124E0,1.123995018E1
1.200783846E1,-2.770950079E0,2.212050200E0,9.403950691E0
1.202777319E1,-2.524950027E0,2.180999994E0,8.398050308E0
1.204770651E1,-1.687050104E0,1.843050122E0,7.896000385E0
1.206764025E1,-6.930000186E-1,1.405050039E0,7.539000511E0
1.208757217E1,-6.599999964E-2,1.060050011E0,7.254000187E0
1.210750462E1,-1.605000161E-2,1.030950069E0,7.207950115E0
1.212743145E1,-2.719500065E-1,1.195950031E0,6.772950172E0
1.214735993E1,-4.369500279E-1,1.551000118E0,5.904000282E0
1.216728826E1,-4.300500154E-1,1.869000077E0,5.200050354E0
1.218721663E1,-4.560000300E-1,1.941000104E0,5.242950439E0
1.220714704E1,-6.790500283E-1,1.833000064E0,5.887050152E0
1.222707686E1,-8.680500388E-1,1.741950035E0,6.667050362E0
1.224700584E1,-1.251000047E0,1.828950047E0,7.453050137E0
1.226693508E1,-1.813950062E0,1.881000042E0,7.948050499E0
1.228686357E1,-2.307000160E0,1.893000126E0,8.121000290E0
1.230679229E1,-2.497950077E0,1.941000104E0,8.149050713E0
1.232672485E1,-2.427000046E0,1.984050035E0,8.029950142E0
1.234665629E1,-2.403000116E0,1.972050071E0,7.678050518E0
1.236659311E1,-2.398050070E0,2.173050165E0,7.443000317E0
1.238652833E1,-2.260950089E0,2.379000187E0,7.699050426E0
1.240646482E1,-2.212949991E0,2.274000168E0,8.781000137E0
1.242640094E1,-2.290050030E0,1.920000076E0,9.784950256E0
1.244633638E1,-2.395050049E0,2.053950071E0,1.006695080E1
1.246627202E1,-2.553000212E0,2.596950054E0,1.044795036E1
1.248620484E1,-2.326050043E0,2.904000044E0,1.143405056E1
1.250613848E1,-2.194050074E0,2.626050234E0,1.368000031E1
1.252606967E1,-2.212949991E0,2.515950203E0,1.560495090E1
1.254600157E1,-2.470050097E0,2.548950195E0,1.576305103E1
1.256594079E1,-2.913000107E0,2.530050039E0,1.477395058E1
1.258587787E1,-2.656050205E0,2.391000032E0,1.414005089E1
1.260582035E1,-1.905000091E0,2.017950058E0,1.372800064E1
1.262576125E1,-1.213050008E0,1.678050041E0,1.241400051E1
1.264570091E1,-1.047000051E0,1.768950105E0,1.037100029E1
1.266564094E1,-1.183950067E0,2.082000017E0,8.329050064E0
1.268557785E1,-1.191000104E0,2.410050154E0,6.808950424E0
1.270551565E1,-1.158000112E0,2.623050213E0,6.088050365E0
1.272545747E1,-1.255950093E0,2.530050039E0,6.070950508E0
1.274539811E1,-1.519050121E0,2.293050051E0,6.451950073E0
1.276533943E1,-1.609950066E0,2.118000031E0,7.144050121E0
1.278528056E1,-1.569000125E0,1.951050043E0,8.053950310E0
1.280521519E1,-1.584000111E0,1.611000061E0,8.584950447E0
1.282515172E1,-1.480950117E0,1.351950049E0,8.365050316E0
1.284508924E1,-1.318050027E0,1.309050083E0,7.456950188E0
1.286502648E1,-1.312950015E0,1.363950014E0,6.619050503E0
1.288496444E1,-1.348950028E0,1.333050013E0,6.298950195E0
1.290490218E1,-9.760500193E-1,1.299000025E0,5.881950378E0
1.292483876E1,-5.179499984E-1,1.386000037E0,5.443950176E0
1.294477567E1,-3.120000064E-1,1.666050076E0,5.551950455E0
1.296471047E1,-2.479500175E-1,1.717950106E0,5.944050312E0
1.298464589E1,-4.905000329E-2,1.369050026E0,6.997950554E0
1.300457803E1,-1.999500096E-1,1.137000084E0,8.857950211E0
1.302451112E1,-7.170000076E-1,1.519950032E0,1.119705009E1
1.304444055E1,-1.456950068E0,1.750050068E0,1.363200092E1
1.306437105E1,-1.477950096E0,1.465050101E0,1.531605053E1
1.308429935E1,-7.360500097E-1,1.240050077E0,1.624394989E1
1.310422829E1,-4.230000079E-1,1.515000105E0,1.624005127E1
1.312415610E1,-1.167000055E0,1.945950150E0,1.593300056E1
1.314408426E1,-1.495050073E0,2.322000027E0,1.606500053E1
1.316401463E1,-9.420000315E-1,2.125050068E0,1.650795174E1
1.318394434E1,-3.630000055E-1,1.410000086E0,1.590195084E1
1.320387459E1,-1.540500075E-1,1.078950047E0,1.392000103E1
1.322380466E1,-3.049500287E-1,1.315950036E0,1.124505043E1
1.324373750E1,-7.770000100E-1,1.771050096E0,8.875050545E0
1.326366952E1,-1.288950086E0,2.176050186E0,7.528950214E0
1.328359833E1,-1.830000043E0,2.475000143E0,7.435950279E0
1.330352807E1,-2.070000172E0,2.554050207E0,7.246950150E0
1.332346351E1,-1.840050101E0,2.263950109E0,6.805950165E0
1.334339728E1,-1.225050092E0,1.723050117E0,6.457050323E0
1.336333383E1,-3.580500185E-1,1.339950085E0,6.193050385E0
1.338326958E1,4.600500166E-1,1.216050029E0,6.196050167E0
1.340319963E1,7.159500122E-1,1.263000011E0,6.325050354E0
1.342313135E1,5.340000391E-1,1.398000121E0,6.367950439E0
1.344305942E1,3.400500119E-1,1.527000070E0,6.495000362E0
1.346298857E1,1.180500090E-1,1.467000127E0,6.871050358E0
1.348292053E1,-2.020500153E-1,1.318950057E0,7.480950356E0
1.350285166E1,-5.400000215E-1,1.369050026E0,7.840950489E0
1.352278169E1,-8.610000610E-1,1.548000097E0,7.921950340E0
1.354271205E1,-1.182000041E0,1.543950081E0,8.215950012E0
1.356264270E1,-1.432950020E0,1.177050114E0,8.723999977E0
1.358257327E1,-1.684050083E0,9.190500379E-1,9.117000580E0
1.360250138E1,-1.818000078E0,1.074000001E0,8.995050430E0
1.362243020E1,-1.906950116E0,1.287000060E0,8.800950050E0
1.364236469E1,-1.713000059E0,1.287000060E0,9.244050026E0
1.366229752E1,-1.548000097E0,1.113000035E0,1.019700050E1
1.368222934E1,-1.561950088E0,8.590500355E-1,1.135800076E1
1.370216148E1,-1.701000094E0,8.950500488E-1,1.263900089E1
1.372210064E1,-1.636050105E0,9.910500646E-1,1.354905033E1
1.374203776E1,-1.608000040E0,1.089000106E0,1.367505074E1
1.376197312E1,-2.259000063E0,8.880000710E-1,1.326795101E1
1.378190896E1,-2.733000040E0,8.710500598E-1,1.353195095E1
1.380184253E1,-2.443050146E0,7.320000529E-1,1.426695061E1
1.382177682E1,-1.768050075E0,2.149500102E-1,1.463805103E1
1.384171292E1,-1.162050009E0,-2.509500086E-1,1.407000065E1
1.386164850E1,-5.950500369E-1,7.605000585E-2,1.254300022E1
1.388158840E1,-4.990500212E-1,8.010000587E-1,1.070205021E1
1.390152703E1,-7.189500332E-1,1.354050040E0,8.904000282E0
1.392146973E1,-7.050000429E-1,1.744950056E0,7.587000370E0
1.394141125E1,-6.330000162E-1,1.927050114E0,6.933000565E0
1.396135372E1,-6.480000019E-1,1.927050114E0,6.688950539E0
1.398129593E1,-7.480500340E-1,1.905000091E0,6.739050388E0
1.400124093E1,-9.210000634E-1,1.762050033E0,7.185000420E0
1.402118510E1,-8.389500380E-1,1.639050126E0,7.540950298E0
1.404112691E1,-7.860000134E-1,1.600950122E0,8.086950302E0
1.406106941E1,-8.770500422E-1,1.551000118E0,8.476950645E0
1.408100736E1,-6.570000052E-1,1.410000086E0,8.406000137E0
1.410094664E1,-1.740000099E-1,1.266000032E0,7.929000378E0
1.412088826E1,3.070500195E-1,1.362000108E0,7.350000381E0
1.414082919E1,4.720500112E-1,1.411950111E0,7.318950176E0
1.416077580E1,3.210000098E-1,1.423950076E0,7.608000278E0
1.418072077E1,3.469500244E-1,1.576950073E0,7.788000584E0
1.420066857E1,1.369500011E-1,1.927050114E0,8.293050766E0
1.422061554E1,-4.180500209E-1,2.037000179E0,9.784950256E0
1.424056785E1,-9.250500202E-1,1.744950056E0,1.186995029E1
1.426051861E1,-9.400500655E-1,1.702050090E0,1.286400032E1
1.428046402E1,-1.042950034E0,1.908000112E0,1.315095043E1
1.430041099E1,-1.675050020E0,2.122950077E0,1.364700031E1
1.432035503E1,-2.158050060E0,2.257050037E0,1.446105099E1
1.434029989E1,-2.211000204E0,2.097000122E0,1.460895061E1
1.436024450E1,-2.119950056E0,1.671000123E0,1.449405098E1
1.438018919E1,-1.963950038E0,1.395000100E0,1.472895050E1
1.440013301E1,-1.399050117E0,1.354050040E0,1.520505047E1
1.442007710E1,-7.980000377E-1,1.134000063E0,1.504695034E1
1.444002134E1,-2.740500271E-1,8.209500313E-1,1.372800064E1
1.445996552E1,1.819500029E-1,7.300500274E-1,1.131195068E1
1.447990515E1,3.790500164E-1,7.440000176E-1,8.521050453E0
1.449984612E1,-9.705000371E-2,1.105050087E0,6.877950191E0
1.451978844E1,-5.140500069E-1,1.644000053E0,6.514050484E0
1.453973036E1,-7.840500474E-1,1.587000132E0,6.391950130E0
1.455966624E1,-5.470499992E-1,1.291950107E0,5.875050068E0
1.457960390E1,-7.800000161E-2,1.195950031E0,5.037000179E0
1.459954089E1,3.210000098E-1,1.165050030E0,4.489050388E0
1.461947807E1,6.280500293E-1,1.234950066E0,4.318950176E0
1.463942437E1,7.279500365E-1,1.351950049E0,4.398000240E0
1.465936799E1,8.329500556E-1,1.255950093E0,4.666050434E0
1.467931687E1,8.809500337E-1,1.041000009E0,5.271000385E0
1.469926422E1,4.339500070E-1,9.139500260E-1,6.315000534E0
1.471921201E1,-1.999500096E-1,8.779500127E-1,7.522050381E0
1.473915967E1,-8.419500589E-1,1.029000044E0,8.248050690E0
1.475910246E1,-1.285050035E0,1.192050099E0,8.215950012E0
1.477904668E1,-1.146000028E0,1.270950079E0,8.323950768E0
1.479898691E1,-1.098000050E0,1.036050081E0,8.884050369E0
1.481892831E1,-7.720500231E-1,7.579500079E-1,9.495000839E0
1.483887341E1,-6.599999964E-2,1.219950080E0,9.772950172E0
1.485881744E1,-1.450500041E-1,1.704000115E0,1.021995068E1
1.487875969E1,-2.689500153E-1,1.933950067E0,1.100100040E1
1.489870245E1,8.895000070E-2,1.909950137E0,1.257195091E1
1.491863872E1,2.209500074E-1,1.660950065E0,1.416600037E1
1.493857690E1,-3.700500131E-1,1.411950111E0,1.505895042E1
1.495851752E1,-9.130500555E-1,1.471950054E0,1.596900082E1
1.497845742E1,-9.490500689E-1,1.414050102E0,1.650495148E1
1.499840092E1,-9.829500318E-1,1.302000046E0,1.567695045E1
1.501834336E1,-1.191000104E0,1.560000062E0,1.360395050E1
1.503828327E1,-1.524000049E0,1.960050106E0,1.166205025E1
1.505822391E1,-1.645950079E0,2.248050213E0,1.049595070E1
1.507816116E1,-1.488000035E0,2.263950109E0,9.964050293E0
1.509809939E1,-1.476000071E0,2.118000031E0,9.568950653E0
1.511803984E1,-1.395000100E0,2.137050152E0,8.655000687E0
1.513797964E1,-1.315950036E0,2.295000076E0,7.468950272E0
1.515791611E1,-1.392000079E0,2.422049999E0,6.694050312E0
1.517785356E1,-1.531050086E0,2.403000116E0,6.415950298E0
1.519779111E1,-1.324950099E0,2.154000044E0,6.342000484E0
1.521772863E1,-9.799500704E-1,1.905000091E0,6.331950188E0
1.523766613E1,-7.219500542E-1,1.762050033E0,6.129000187E0
1.525760363E1,-5.299500227E-1,1.744950056E0,5.760000229E0
1.527754177E1,-2.770500183E-1,1.807050109E0,5.784000397E0
1.529747971E1,-6.300000101E-2,1.738050103E0,6.385050297E0
1.531741809E1,-3.510000110E-1,1.422000051E0,7.252050400E0
1.533735633E1,-5.590500236E-1,1.387950063E0,7.659000397E0
1.535730128E1,-4.420500100E-1,1.600950122E0,8.227950096E0
1.537724426E1,-3.960000277E-1,1.426050067E0,1.006005001E1
1.539719032E1,-6.979500055E-1,1.261050105E0,1.203105068E1
1.541713558E1,-1.062000036E0,1.492950082E0,1.376205063E1
1.543706887E1,-1.054949999E0,1.752000093E0,1.482000065E1
1.545700566E1,-6.930000186E-1,1.984050035E0,1.554795074E1
1.547694430E1,-6.640500426E-1,2.073000193E0,1.538700104E1
1.549688238E1,-8.920500278E-1,2.170950174E0,1.482495117E1
1.551682302E1,-9.589500427E-1,2.137050152E0,1.496805096E1
1.553676292E1,-6.570000052E-1,1.716000080E0,1.555305099E1
1.555670551E1,3.105000220E-2,1.110000014E0,1.445100021E1
1.557664731E1,2.370000184E-1,8.730000257E-1,1.134600067E1
1.559658612E1,-9.559500217E-1,1.186950088E0,8.548950195E0
1.561652579E1,-2.212949991E0,2.001000166E0,7.723050594E0
1.563645738E1,-2.587050200E0,2.347950220E0,7.447950363E0
1.565639134E1,-1.833000064E0,1.920000076E0,7.173000336E0
1.567632301E1,-9.450000525E-1,9.450000525E-1,7.516950130E0
1.569625535E1,-3.000000119E-1,2.220000178E-1,7.953000546E0
1.571618488E1,2.400000095E-1,2.029500157E-1,8.026950836E0
1.573611525E1,5.029500127E-1,6.000000238E-1,7.635000229E0
1.575604282E1,5.340000391E-1,9.310500622E-1,6.949950218E0
1.577597123E1,4.620000124E-1,1.054949999E0,6.418050289E0
1.579590150E1,1.180500090E-1,1.078950047E0,6.199950218E0
1.581583123E1,-2.550000250E-1,1.291950107E0,6.046950340E0
1.583577052E1,-3.630000055E-1,1.510050058E0,5.626050472E0
1.585570701E1,-2.980500162E-1,1.675050020E0,5.740950108E0
1.587564738E1,-8.509500623E-1,1.654050112E0,6.706050396E0
1.589558662E1,-1.536000013E0,1.527000070E0,7.615050316E0
1.591551900E1,-1.749000072E0,1.630050063E0,8.953950882E0
1.593545339E1,-1.750950098E0,1.711050034E0,1.089105034E1
1.595539151E1,-1.576950073E0,1.732950091E0,1.218105030E1
1.597532854E1,-1.050000072E0,1.831050038E0,1.161900043E1
1.599527248E1,-3.580500185E-1,2.166000128E0,1.080495071E1
1.601521440E1,-1.930500120E-1,2.322000027E0,1.216695023E1
1.603515330E1,-6.640500426E-1,2.097000122E0,1.381695080E1
1.605509299E1,-1.567050099E0,2.250000000E0,1.433595085E1
1.607502939E1,-2.427000046E0,2.632950068E0,1.414905071E1
1.609496676E1,-2.302050114E0,2.815050125E0,1.461195087E1
1.611489749E1,-1.308000088E0,2.133000135E0,1.554795074E1
1.613483016E1,-7.410000563E-1,1.213050008E0,1.549995041E1
1.615476245E1,-7.980000377E-1,8.110500574E-1,1.412100029E1
1.617469485E1,-1.062000036E0,9.810000658E-1,1.216695023E1
1.619463863E1,-1.480950117E0,1.453050017E0,1.049100018E1
1.621457908E1,-1.890000105E0,1.825950146E0,9.438000679E0
1.623452079E1,-1.881000042E0,1.942950130E0,8.257050514E0
1.625446214E1,-1.431000113E0,1.924050093E0,7.195950508E0
1.627440430E1,-9.300000668E-1,1.692000031E0,6.190950394E0
1.629434622E1,-5.830500126E-1,1.386000037E0,5.386050224E0
1.631428349E1,-3.150000274E-1,1.342950106E0,4.990950108E0
1.633422213E1,-4.990500212E-1,1.644000053E0,5.065950394E0
1.635416002E1,-6.790500283E-1,1.969950080E0,5.286000252E0
1.637409813E1,-7.290000319E-1,2.122950077E0,5.707050323E0
1.639403847E1,-6.930000186E-1,2.109000206E0,6.235950470E0
1.641397814E1,-2.689500153E-1,2.085000038E0,6.859050274E0
1.643391734E1,-3.495000303E-2,2.166000128E0,7.491000175E0
1.645385668E1,-2.170500159E-1,2.245050192E0,7.498050213E0
1.647379284E1,-1.050000079E-3,2.511000156E0,7.840950489E0
1.649372993E1,5.080500245E-1,2.511000156E0,8.985000610E0
1.651366480E1,6.490500569E-1,2.394000053E0,1.077105045E1
1.653360032E1,3.330000043E-1,2.595000029E0,1.249500084E1
1.655353970E1,3.640500307E-1,3.133050203E0,1.392900085E1
1.657347794E1,6.630000472E-1,3.322950125E0,1.471500111E1
1.659341644E1,3.619500101E-1,2.925000191E0,1.442505074E1
1.661335486E1,-1.780500114E-1,2.983050108E0,1.424295044E1
1.663329530E1,-4.540500343E-1,3.235950232E0,1.438695049E1
1.665323515E1,-7.939500213E-1,2.935050249E0,1.442205048E1
1.667316756E1,-1.275000095E0,2.427000046E0,1.335000038E1
1.669310215E1,-1.714950085E0,2.524950027E0,1.136505032E1
1.671303895E1,-1.368000031E0,3.061950207E0,9.627000809E0
1.673297513E1,-6.910500526E-1,2.833950043E0,8.662050247E0
1.675290730E1,-3.169500232E-1,2.101050138E0,7.813950539E0
1.677284065E1,1.200000010E-2,1.797000051E0,6.895050526E0
1.679277561E1,1.699500084E-1,1.816950083E0,6.265050411E0
1.681271011E1,1.270500124E-1,1.845000029E0,6.018000126E0
1.683264063E1,2.400000095E-1,1.879050136E0,5.997000217E0
1.685257233E1,3.979500234E-1,1.849950075E0,6.100050449E0
1.687250599E1,4.120500088E-1,1.809000134E0,6.136050224E0
1.689243908E1,1.729500145E-1,1.945950150E0,6.133050442E0
1.691237175E1,-2.239500135E-1,2.206950188E0,6.061950207E0
1.693230454E1,-5.590500236E-1,2.563950062E0,5.899050236E0
1.695223952E1,-8.370000124E-1,2.740950108E0,5.947050095E0
1.697217386E1,-1.126049995E0,2.772000074E0,6.825000286E0
1.699210456E1,-1.366050124E0,2.607000113E0,7.728000164E0
1.701203632E1,-1.407000065E0,2.395950079E0,8.431950569E0
1.703196385E1,-1.287000060E0,2.463000059E0,9.118950844E0
1.705189262E1,-9.919500351E-1,2.491950035E0,9.387000084E0
1.707182044E1,-6.120000482E-1,2.319000006E0,9.687000275E0
1.709174854E1,-4.129500091E-1,2.134950161E0,1.043805027E1
1.711167830E1,-1.420500129E-1,2.073000193E0,1.184400082E1
1.713160759E1,1.920000017E-1,2.025000095E0,1.307205105E1
1.715153519E1,1.099500060E-1,2.180999994E0,1.384995079E1
1.717146329E1,-8.320500255E-1,2.422049999E0,1.405905056E1
1.719139687E1,-2.271000147E0,2.425050020E0,1.463805103E1
1.721132887E1,-3.067950249E0,2.556000233E0,1.610295105E1
1.723125524E1,-2.704050064E0,2.133000135E0,1.734600067E1
1.725118326E1,-1.726950049E0,1.483950019E0,1.688100052E1
1.727111090E1,-1.063950062E0,1.402050018E0,1.461600113E1
1.729103865E1,-1.207950115E0,1.801950097E0,1.149705029E1
1.731097090E1,-1.726950049E0,2.358000040E0,9.022950172E0
1.733090181E1,-1.632000089E0,2.923050165E0,7.663050175E0
1.735083490E1,-1.462050080E0,3.025950193E0,7.869000435E0
1.737076732E1,-1.492950082E0,2.575950146E0,8.381999969E0
1.739069296E1,-1.146000028E0,2.161050081E0,8.050950050E0
1.741062060E1,-8.539500237E-1,1.933950067E0,7.015050411E0
1.743055301E1,-7.050000429E-1,1.965000153E0,6.102000237E0
1.745048401E1,-7.789500356E-1,2.149049997E0,5.736000061E0
1.747041402E1,-7.000500560E-1,2.275950193E0,5.800950050E0
1.749034432E1,-6.570000052E-1,2.200050116E0,5.916000366E0
1.751027808E1,-7.120500207E-1,2.158950090E0,6.052050114E0
1.753021081E1,-4.540500343E-1,2.282999992E0,6.145050526E0
1.755013672E1,-1.740000099E-1,2.482050180E0,6.595950127E0
1.757006464E1,-5.140500069E-1,2.548950195E0,7.702050209E0
1.759000089E1,-1.093050003E0,2.499000072E0,8.748000145E0
1.760993471E1,-1.243950009E0,2.515950203E0,9.025950432E0
1.762986644E1,-1.203000069E0,2.686050177E0,8.722050667E0
1.764979879E1,-1.167000055E0,2.839050055E0,9.070950508E0
1.766973542E1,-1.126049995E0,2.781000137E0,1.029495049E1
1.768967080E1,-8.509500623E-1,2.539950132E0,1.143405056E1
1.770960615E1,-3.220500052E-1,2.170950174E0,1.243005085E1
1.772954150E1,2.419500053E-1,1.945950150E0,1.309605026E1
1.774947442E1,2.760000229E-1,2.130000114E0,1.376595020E1
1.776940804E1,-6.120000482E-1,2.713950157E0,1.368495083E1
1.778934060E1,-1.402050018E0,3.205050230E0,1.320900059E1
1.780927349E1,-1.681950092E0,3.088050127E0,1.387395096E1
1.782920715E1,-1.572000027E0,2.353049994E0,1.517205048E1
1.784914058E1,-8.700000644E-1,1.762050033E0,1.508595085E1
1.786906643E1,-1.500000060E-1,1.630050063E0,1.295205021E1
1.788899450E1,5.805000290E-2,1.927050114E0,9.994950294E0
1.790891991E1,-4.390500188E-1,2.430000067E0,8.182950020E0
1.792884611E1,-1.816050053E0,2.881950140E0,9.670050621E0
1.794877661E1,-1.195950031E0,3.090000153E0,6.931050301E0
1.796870586E1,-1.038000107E0,3.567000151E0,7.366050243E0
1.798864368E1,-1.842000127E0,3.337050200E0,7.522050381E0
1.800857900E1,-6.840000153E-1,3.090000153E0,7.333050251E0
1.802851048E1,-3.670500219E-1,2.689950228E0,7.168050289E0
1.804844308E1,-8.029500246E-1,2.961000204E0,7.354050159E0
1.806837546E1,-9.730500579E-1,3.070950031E0,7.821000576E0
1.808830792E1,-8.970000148E-1,2.848950148E0,8.749950409E0
1.810824054E1,-7.770000100E-1,2.632950068E0,9.246000290E0
1.812817313E1,-8.440500498E-1,2.692950010E0,9.058950424E0
1.814810573E1,-6.430500150E-1,2.827050209E0,8.880000114E0
1.816803834E1,-5.110500455E-1,2.805000067E0,9.355950356E0
1.818797171E1,-7.909500599E-1,2.764950037E0,9.988050461E0
1.820790509E1,-1.432950020E0,2.716950178E0,1.071105003E1
1.822783361E1,-1.806000113E0,2.596950054E0,1.102995014E1
1.824776356E1,-1.488000035E0,2.542050123E0,1.063005066E1
1.826769451E1,-8.820000291E-1,2.359950066E0,1.007400036E1
1.828762517E1,-9.709500670E-1,2.227950096E0,9.861000061E0
1.830755706E1,-1.500000119E0,2.062950134E0,1.016505051E1
1.832748857E1,-2.042999983E0,1.963050127E0,8.803050041E0
1.834741650E1,-2.860050201E0,1.945950150E0,1.189605045E1
1.836734549E1,-2.580000162E0,1.891050100E0,1.067505074E1
1.838038062E1,-9.300000668E-1,3.033000231E0,1.050300026E1
1.839033434E1,-8.509500623E-1,3.166950226E0,8.419950485E0
1.841026156E1,-1.330500096E-1,2.334000111E0,7.114950180E0
1.843019125E1,-8.320500255E-1,2.157000065E0,7.836000443E0
1.845012011E1,-1.407000065E0,2.692950010E0,9.538050652E0
1.847005423E1,-2.167950153E0,2.949000120E0,9.778050423E0
1.848998680E1,-1.797000051E0,2.797950029E0,1.011795044E1
1.850992182E1,-1.240950108E0,2.547000170E0,1.039995003E1
1.852985612E1,-9.679500461E-1,2.383949995E0,9.670050621E0
1.854978179E1,-6.739500165E-1,2.608950138E0,9.007050514E0
1.856970998E1,-5.020500422E-1,2.736000061E0,9.076050758E0
1.858963416E1,-5.209500194E-1,2.515950203E0,9.160050392E0
1.860955952E1,-5.089499950E-1,2.379000187E0,9.355950356E0
1.862948329E1,-5.470499992E-1,2.311950207E0,9.865950584E0
1.864940752E1,-6.019500494E-1,2.146950006E0,1.049805069E1
1.866933055E1,-7.170000076E-1,2.002950191E0,1.069695091E1
1.868925392E1,-8.970000148E-1,2.154000044E0,1.053405094E1
1.870918223E1,-1.246050000E0,2.407950163E0,1.037595081E1
1.872910908E1,-1.234050035E0,2.467950106E0,1.010595036E1
1.874903749E1,-8.610000610E-1,2.254950047E0,9.631050110E0
1.876896542E1,-8.200500607E-1,2.020050049E0,9.628950119E0
1.878889232E1,-1.099950075E0,1.939050078E0,1.002900028E1
1.880881951E1,-1.186050057E0,2.046000004E0,9.897000313E0
1.882874267E1,-1.170000076E0,2.074949980E0,9.222000122E0
1.884866699E1,-1.141050100E0,2.053950071E0,8.362050056E0
1.886859420E1,-8.299500346E-1,2.109000206E0,7.644000530E0
1.888852054E1,-5.449500084E-1,2.017950058E0,7.297050476E0
1.890845150E1,-5.520000458E-1,1.860000134E0,7.186950207E0
1.892838109E1,-4.990500212E-1,1.860000134E0,7.180050373E0
1.894830938E1,-2.089500129E-1,2.038950205E0,7.371000290E0
1.896823807E1,-5.100000277E-2,2.164050102E0,7.642050266E0
1.898816373E1,-1.350000054E-1,2.221050024E0,7.465050220E0
1.900809029E1,-3.000000119E-1,2.406000137E0,7.120050430E0
1.902801173E1,-2.260500044E-1,2.631000042E0,7.042950153E0
1.904793467E1,-7.304999977E-2,2.619000196E0,7.174950123E0
1.906785122E1,4.095000029E-2,2.365050077E0,7.480950356E0
1.908776966E1,4.020000100E-1,2.146950006E0,7.828950405E0
1.910768872E1,7.900500298E-1,1.990950108E0,8.367000580E0
1.912760759E1,6.010500193E-1,1.720950127E0,9.150000572E0
1.914752544E1,1.270500124E-1,1.660950065E0,1.019400024E1
1.916744358E1,1.530000120E-1,1.720950127E0,1.157295036E1
1.918737380E1,-1.540500075E-1,1.696950078E0,1.292100048E1
1.920730049E1,-6.930000186E-1,1.551000118E0,1.406805038E1
1.922723247E1,-1.159950018E0,1.735050082E0,1.478595066E1
1.924716292E1,-1.974000096E0,1.977000117E0,1.417800045E1
1.926709279E1,-2.647050142E0,2.109000206E0,1.220295048E1
1.928702284E1,-2.343000174E0,2.668950081E0,1.070895004E1
1.930694218E1,-1.536000013E0,2.908050060E0,1.033800030E1
1.932686467E1,-1.348950028E0,2.728950024E0,1.098195076E1
1.934678680E1,-1.444950104E0,2.532000065E0,1.195905018E1
1.936670904E1,-1.869000077E0,2.467950106E0,1.280895042E1
1.938663728E1,-2.103000164E0,2.539950132E0,1.319895077E1
1.940656378E1,-1.701000094E0,2.434050083E0,1.214100075E1
1.942649473E1,-9.660000205E-1,2.262000084E0,9.970950127E0
1.944642438E1,-7.819500566E-1,2.218950033E0,7.708950520E0
1.946635065E1,-1.179000020E0,2.491950035E0,6.232050419E0
1.948627791E1,-1.440000057E0,2.913000107E0,5.668950081E0
1.950620673E1,-1.459050059E0,2.983050108E0,5.839050293E0
1.952613511E1,-1.300950050E0,2.749950171E0,6.325050354E0
1.954606226E1,-1.276950002E0,2.499000072E0,6.888000488E0
1.956598979E1,-1.689000130E0,2.467950106E0,7.780950546E0
1.958591680E1,-1.881000042E0,2.449050188E0,8.017950058E0
1.960584395E1,-1.552950025E0,2.403000116E0,7.134000301E0
1.962577029E1,-1.336950064E0,2.427000046E0,6.294000149E0
1.964569687E1,-1.483050108E0,2.563950062E0,5.973000050E0
1.966561971E1,-1.573950052E0,2.755050182E0,5.947050095E0
1.968554368E1,-1.576950073E0,2.961000204E0,6.085950375E0
1.970547254E1,-1.564950109E0,3.073950052E0,6.301050186E0
1.972539998E1,-1.624050021E0,2.985000134E0,7.615050316E0
1.974532933E1,-1.774950027E0,3.004050255E0,9.739050865E0
1.976525812E1,-2.146050215E0,3.010950089E0,1.179105091E1
1.978518869E1,-2.332950115E0,2.947050095E0,1.288500023E1
1.980511874E1,-1.912050128E0,2.781000137E0,1.294800091E1
1.982504616E1,-1.713000059E0,2.700000048E0,1.292100048E1
1.984497436E1,-1.651050091E0,2.725950241E0,1.295700073E1
1.986490305E1,-1.522050023E0,2.731050014E0,1.309605026E1
1.988483159E1,-1.452000022E0,2.772000074E0,1.246605015E1
1.990476206E1,-1.507050037E0,2.977950096E0,1.114500046E1
1.992469197E1,-1.519050121E0,3.241050243E0,1.061100006E1
1.994462339E1,-1.540950060E0,3.114000082E0,1.123305035E1
1.996455436E1,-1.189050078E0,2.713950157E0,1.272000027E1
1.998448188E1,-7.000500560E-1,2.281050205E0,1.357500076E1
2.000441042E1,-7.720500231E-1,2.092050076E0,1.307700062E1
2.002434357E1,-1.047000051E0,2.188050032E0,1.156605053E1
2.004427536E1,-1.395000100E0,2.379000187E0,9.876000404E0
2.006420843E1,-1.459050059E0,2.455950022E0,8.350950241E0
2.008414113E1,-1.210050106E0,2.293050051E0,7.278000355E0
2.010407466E1,-9.540000558E-1,1.908000112E0,7.077000141E0
2.012400796E1,-6.379500031E-1,1.765950084E0,7.005000114E0
2.014394113E1,-4.800000191E-1,1.929000139E0,6.799050331E0
2.016387434E1,-4.369500279E-1,2.070000172E0,6.490050316E0
2.018380596E1,-3.720000088E-1,2.020050049E0,6.112050056E0
2.020373804E1,-2.740500271E-1,1.987050056E0,5.899050236E0
2.022366485E1,-1.639500111E-1,1.984050035E0,5.947050095E0
2.024359320E1,-1.740000099E-1,1.948050141E0,6.313050270E0
2.026352564E1,-4.369500279E-1,1.990950108E0,7.149000168E0
2.028345689E1,-9.450000525E-1,2.137050152E0,7.692000389E0
2.030339603E1,-1.765950084E0,2.440950155E0,7.642050266E0
2.032333284E1,-2.625000238E0,2.746050119E0,7.905000210E0
2.034326312E1,-3.207000256E0,2.986950159E0,8.619000435E0
2.036319531E1,-3.193050146E0,3.019050121E0,9.093000412E0
2.038312353E1,-2.974950075E0,2.781000137E0,9.478050232E0
2.040305292E1,-2.746950150E0,2.559000015E0,9.900000572E0
2.042298244E1,-2.532000065E0,2.595000029E0,1.009395027E1
2.044291192E1,-2.461950064E0,2.631000042E0,1.010805035E1
2.046283480E1,-2.319000006E0,2.583000183E0,1.047900009E1
2.048275961E1,-2.002950191E0,2.461050034E0,1.146105099E1
2.050268258E1,-1.729950070E0,2.227950096E0,1.268205070E1
2.052260608E1,-1.540950060E0,2.248050213E0,1.271100044E1
2.054253670E1,-2.038950205E0,2.218950033E0,1.217400074E1
2.056246524E1,-2.461950064E0,2.142000198E0,1.298295021E1
2.058239314E1,-2.830950022E0,2.005950212E0,1.465200043E1
2.060232123E1,-2.889000177E0,1.969950080E0,1.507605076E1
2.062225266E1,-2.688000202E0,1.857000113E0,1.368000031E1
2.064218309E1,-2.236950159E0,1.726050138E0,1.168095016E1
2.066211193E1,-2.011950016E0,1.969950080E0,9.604950905E0
2.068204124E1,-1.801950097E0,2.452950001E0,8.194950104E0
2.070196792E1,-1.621950030E0,2.668950081E0,7.801950455E0
2.072189538E1,-1.680000067E0,2.473050117E0,7.732950211E0
2.074181624E1,-1.534050107E0,2.263950109E0,7.450050354E0
2.076173902E1,-1.227000117E0,2.166000128E0,7.042950153E0
2.078166269E1,-1.392000079E0,2.221050024E0,6.913950443E0
2.080158610E1,-1.873050094E0,2.446050167E0,7.054950237E0
2.082151722E1,-2.125050068E0,2.563950062E0,7.126950264E0
2.084144609E1,-1.914000034E0,2.439000130E0,6.961950302E0
2.086137436E1,-1.768050075E0,2.359950066E0,6.615000248E0
2.088130280E1,-1.453950047E0,2.260050058E0,5.925000191E0
2.090122676E1,-1.093050003E0,2.213999987E0,5.331000328E0
2.092115203E1,-8.629500270E-1,2.166000128E0,5.499000072E0
2.094107182E1,-8.010000587E-1,1.951050043E0,6.351000309E0
2.096099320E1,-8.440500498E-1,1.660950065E0,7.339950562E0
2.098091428E1,-1.062000036E0,1.579950094E0,8.473050117E0
2.100083545E1,-1.486050129E0,1.648950100E0,9.514050484E0
2.102075181E1,-1.960050106E0,2.011049986E0,1.032300091E1
2.104066959E1,-2.428950071E0,2.326950073E0,1.161405087E1
2.106059105E1,-2.722950220E0,2.307000160E0,1.323705101E1
2.108051143E1,-2.637000084E0,2.527950048E0,1.390500069E1
2.110043098E1,-2.611050129E0,2.539950132E0,1.403895092E1
2.112035076E1,-2.191950083E0,2.230950117E0,1.483395100E1
2.114027840E1,-1.597950101E0,2.092050076E0,1.434795094E1
2.116020375E1,-1.504950047E0,2.310000181E0,1.208595085E1
2.118012968E1,-1.648050070E0,2.584950209E0,1.078995037E1
2.120005544E1,-1.953000069E0,2.734050035E0,1.149900055E1
2.121997821E1,-1.821000099E0,2.434050083E0,1.352205086E1
2.123990184E1,-1.396950126E0,1.467000127E0,1.521495056E1
2.125983228E1,-8.080500364E-1,8.250000477E-1,1.479795074E1
2.127976070E1,-2.809500098E-1,9.400500655E-1,1.206405067E1
2.129968608E1,-3.220500052E-1,1.206000090E0,9.106950760E0
2.131961234E1,-4.470000267E-1,1.387950063E0,7.162950516E0
2.133953962E1,-4.579500258E-1,1.465050101E0,5.968050480E0
2.135946658E1,-3.240000010E-1,1.465050101E0,5.547000408E0
2.137939165E1,-3.705000132E-2,1.375950098E0,5.686050415E0
2.139931727E1,2.970000207E-1,1.299000025E0,6.093000412E0
2.141924860E1,5.440500379E-1,1.326000094E0,6.322950363E0
2.143917827E1,6.510000229E-1,1.395000100E0,6.448950291E0
2.145910472E1,5.749500394E-1,1.423950076E0,6.640950203E0
2.147903212E1,4.099500179E-1,1.564950109E0,6.865950108E0
2.149896104E1,2.280000150E-1,1.708950043E0,6.934950352E0
2.151888954E1,-1.039500013E-1,1.872000098E0,7.414050579E0
2.153882831E1,-5.610000491E-1,2.008050203E0,7.929000378E0
2.155876407E1,-9.730500579E-1,1.948050141E0,8.262000084E0
2.157870401E1,-1.404000044E0,1.975050092E0,8.413050652E0
2.159864274E1,-1.893000126E0,2.110949993E0,8.664000511E0
2.161857934E1,-2.364000082E0,2.271000147E0,9.331950188E0
2.163851658E1,-2.623050213E0,2.401050091E0,9.745950699E0
2.165844964E1,-2.351999998E0,2.491950035E0,9.451950073E0
2.167838394E1,-2.185050011E0,2.680950165E0,9.052050591E0
2.169830839E1,-2.929050207E0,2.644950151E0,9.931050301E0
2.171823572E1,-4.227000237E0,2.383949995E0,1.315095043E1
2.173816538E1,-4.048050404E0,2.365050077E0,1.620600128E1
2.175809438E1,-2.710950136E0,1.879050136E0,1.620600128E1
2.177803380E1,-1.465950012E0,6.240000129E-1,1.440795040E1
2.179797016E1,-6.430500150E-1,-9.495000541E-2,1.337595081E1
2.181791092E1,9.105000645E-2,-8.295000345E-2,1.362300110E1
2.183785039E1,1.054050088E0,-9.795000404E-2,1.395600033E1
2.185778181E1,1.525050044E0,6.000000052E-3,1.335495090E1
2.187771561E1,1.059000015E0,2.269500047E-1,1.180095100E1
2.189764320E1,2.560500205E-1,6.529500484E-1,1.007700062E1
2.191757261E1,-4.939500093E-1,1.242000103E0,8.430000305E0
2.193749531E1,-9.660000205E-1,1.764000058E0,7.113000393E0
2.195741998E1,-1.143000007E0,2.157000065E0,6.007050514E0
2.197735012E1,-1.251000047E0,2.461050034E0,5.293050289E0
2.199727867E1,-1.492950082E0,2.674050093E0,5.536950111E0
2.201721078E1,-1.512000084E0,2.614050150E0,6.133050442E0
2.203714183E1,-1.057050109E0,2.194950104E0,6.933000565E0
2.205707071E1,-6.979500055E-1,1.852050066E0,7.647000313E0
2.207700022E1,-4.849500358E-1,1.933950067E0,7.693950176E0
2.209693396E1,-3.240000010E-1,2.058000088E0,7.395000458E0
2.211686646E1,-2.500500083E-1,1.984050035E0,6.967050552E0
2.213680127E1,-1.710000038E-1,1.816950083E0,6.769950390E0
2.215673539E1,-7.500000298E-2,1.738050103E0,6.715050220E0
2.217666592E1,-3.495000303E-2,1.857000113E0,6.892050266E0
2.219659748E1,-9.900000691E-2,1.920000076E0,7.588950157E0
2.221652474E1,-3.270000219E-1,1.977000117E0,8.140049934E0
2.223645326E1,-5.400000215E-1,2.194950104E0,9.109950066E0
2.225638725E1,-6.310500503E-1,2.370000124E0,1.036905003E1
2.227631964E1,-1.086000085E0,2.479950190E0,1.150905037E1
2.229625740E1,-1.972050071E0,2.587950230E0,1.265295029E1
2.231619358E1,-2.482050180E0,2.736000061E0,1.386900043E1
2.233612516E1,-2.671050072E0,2.968050241E0,1.486995029E1
2.235605810E1,-2.572950125E0,2.925000191E0,1.594800091E1
2.237598350E1,-2.311950207E0,2.758050203E0,1.579395103E1
2.239591110E1,-2.098950148E0,2.566050053E0,1.420200062E1
2.241583966E1,-1.822950125E0,2.443950176E0,1.316505051E1
2.243576794E1,-1.591050029E0,2.026950121E0,1.328805065E1
2.245570043E1,-1.375050068E0,1.426050067E0,1.391505051E1
2.247563170E1,-1.258050084E0,1.102950096E0,1.366800022E1
2.249556816E1,-1.165050030E0,1.038000107E0,1.233705044E1
2.251550309E1,-1.098000050E0,1.186950088E0,1.006500053E1
2.253543926E1,-1.093050003E0,1.395000100E0,7.855050564E0
2.255537508E1,-1.000050068E0,1.465050101E0,6.090000153E0
2.257530967E1,-8.850000501E-1,1.468950033E0,4.942950249E0
2.259524462E1,-8.320500255E-1,1.552950025E0,4.492950439E0
2.261517792E1,-7.150500417E-1,1.663050056E0,4.750050068E0
2.263511171E1,-4.819500148E-1,1.675050020E0,5.070000172E0
2.265504930E1,-3.820500076E-1,1.680000067E0,5.140050411E0
2.267498578E1,-5.329500437E-1,1.603050113E0,5.527950287E0
2.269491614E1,-6.640500426E-1,1.702050090E0,6.469050407E0
2.271484831E1,-5.779500008E-1,1.861950040E0,7.012050152E0
2.273477430E1,-6.810000539E-1,1.989000082E0,7.504950523E0
2.275470209E1,-1.057050109E0,1.999050140E0,8.731050491E0
2.277463284E1,-1.492950082E0,1.969950080E0,1.017705059E1
2.279456271E1,-1.723050117E0,2.026950121E0,1.033800030E1
2.281449434E1,-1.744050026E0,2.094000101E0,9.196050644E0
2.283442546E1,-1.773000121E0,2.145000219E0,8.050950050E0
2.285435388E1,-1.914000034E0,2.224050045E0,7.693950176E0
2.287428308E1,-2.098950148E0,2.365050077E0,7.936050415E0
2.289420991E1,-2.163000107E0,2.274000168E0,8.674050331E0
2.291413745E1,-1.962000132E0,2.125050068E0,9.712950706E0
2.293406520E1,-1.579050064E0,2.250000000E0,1.080705070E1
2.295399302E1,-1.644000053E0,2.374050140E0,1.196595097E1
2.297392102E1,-2.491050005E0,2.326950073E0,1.384800053E1
2.299384896E1,-3.007950068E0,1.945950150E0,1.620105171E1
2.301377644E1,-2.671050072E0,1.933950067E0,1.646700096E1
2.303370405E1,-2.235000134E0,2.359950066E0,1.392900085E1
2.305363721E1,-2.260950089E0,2.542050123E0,1.126395035E1
2.307356874E1,-2.422049999E0,2.683050156E0,1.007205009E1
2.309350258E1,-2.376000166E0,2.652000189E0,1.116405010E1
2.311343574E1,-2.190000057E0,2.133000135E0,1.280400085E1
2.313337027E1,-1.725000024E0,1.510050058E0,1.281600094E1
2.315330441E1,-1.087950110E0,1.402050018E0,1.081200027E1
2.317324000E1,-8.299500346E-1,1.623000026E0,8.524950027E0
2.319317517E1,-1.086000085E0,1.881000042E0,7.335000515E0
2.321310946E1,-1.548000097E0,2.002950191E0,7.492950439E0
2.323304401E1,-1.846950054E0,2.050950050E0,7.630050182E0
2.325297094E1,-1.969050050E0,2.134950161E0,7.291950226E0
2.327290010E1,-2.089050055E0,2.152050018E0,7.182000160E0
2.329282982E1,-2.182049990E0,2.176050186E0,7.438050270E0
2.331275939E1,-2.448000193E0,2.233050108E0,7.750050545E0
2.333268370E1,-2.515050173E0,2.233050108E0,7.693950176E0
2.335260955E1,-2.248950005E0,2.206950188E0,7.411950588E0
2.337253356E1,-1.864050031E0,2.056050062E0,6.912000179E0
2.339245813E1,-1.474050045E0,1.915050149E0,6.564000130E0
2.341238371E1,-1.249050021E0,1.972050071E0,6.595950127E0
2.343230899E1,-1.114950061E0,1.941000104E0,6.805950165E0
2.345223651E1,-1.081050038E0,1.972050071E0,6.945000172E0
2.347216337E1,-1.189050078E0,2.161050081E0,7.243950367E0
2.349208598E1,-1.363950014E0,2.295000076E0,8.282999992E0
2.351200984E1,-1.717950106E0,2.359950066E0,9.766050339E0
2.353192864E1,-1.864050031E0,2.343000174E0,1.109700012E1
2.355184892E1,-2.017050028E0,2.269050121E0,1.200705051E1
2.357177144E1,-2.209050179E0,2.386050224E0,1.222200012E1
2.359169314E1,-2.379000187E0,2.692950010E0,1.219800091E1
2.361161624E1,-2.284950018E0,2.985000134E0,1.203795052E1
2.363153896E1,-1.849950075E0,2.956050158E0,1.232700062E1
2.365146390E1,-1.507050037E0,2.962950230E0,1.239405060E1
2.367138819E1,-1.294050097E0,2.872050047E0,1.196805096E1
2.369131864E1,-1.435050011E0,2.626050234E0,1.171200085E1
2.371124728E1,-1.761000037E0,2.520000219E0,1.279005051E1
2.373117696E1,-1.648050070E0,2.370000124E0,1.458300114E1
2.375110634E1,-1.135950089E0,1.929000139E0,1.490805054E1
2.377103285E1,-8.029500246E-1,1.666050076E0,1.312500095E1
2.379096020E1,-9.850500226E-1,1.819050074E0,1.050495052E1
2.381088206E1,-1.222050071E0,2.089950085E0,8.425050735E0
2.383080552E1,-1.111950040E0,2.224050045E0,7.066950321E0
2.385073300E1,-8.460000157E-1,2.190000057E0,6.093000412E0
2.387065929E1,-4.900500178E-1,2.082000017E0,5.722050190E0
2.389057590E1,-2.500500083E-1,2.109000206E0,6.177000523E0
2.391049536E1,4.305000231E-2,2.032050133E0,6.744000435E0
2.393042586E1,3.349500299E-1,1.828950047E0,7.036050320E0
2.395035312E1,4.339500070E-1,1.765950084E0,7.351950169E0
2.397028688E1,3.570000231E-1,1.837950110E0,7.608000278E0
2.399021874E1,3.469500244E-1,1.860000134E0,7.702050209E0
2.401014857E1,4.099500179E-1,1.905000091E0,7.939050198E0
2.403007898E1,2.320500165E-1,1.960050106E0,8.667000771E0
2.405000771E1,-2.980500162E-1,1.948050141E0,9.289050102E0
2.406993692E1,-8.580000401E-1,1.942950130E0,9.178950310E0
2.408986629E1,-1.095000029E0,1.969950080E0,8.254950523E0
2.410979561E1,-1.324950099E0,2.085000038E0,7.120050430E0
2.412972700E1,-1.714950085E0,2.140050173E0,7.065000534E0
2.414965777E1,-2.142000198E0,2.254950047E0,7.528950214E0
2.416957989E1,-2.544000149E0,2.446050167E0,8.449049950E0
2.418950454E1,-2.709000111E0,2.719050169E0,1.010805035E1
2.420942812E1,-2.412000179E0,2.704950094E0,1.098900032E1
2.422935200E1,-2.191950083E0,2.532000065E0,1.127595043E1
2.424927673E1,-1.954950094E0,2.298000097E0,1.171005058E1
2.426920119E1,-1.579050064E0,2.134950161E0,1.279200077E1
2.428912768E1,-1.435050011E0,2.389050007E0,1.366305065E1
2.430905357E1,-1.806000113E0,2.463000059E0,1.323195076E1
2.432897382E1,-2.304000139E0,2.515950203E0,1.217895031E1
2.434889572E1,-2.548950195E0,2.548950195E0,1.203795052E1
2.436882225E1,-2.221050024E0,2.331000090E0,1.315305042E1
2.438874742E1,-1.938000083E0,1.861950040E0,1.364895058E1
2.440867912E1,-1.657950044E0,1.717950106E0,1.249005032E1
2.442860889E1,-1.131000042E0,1.920000076E0,1.064700031E1
2.444854113E1,-7.099500299E-1,1.893000126E0,9.670050621E0
2.446847265E1,-5.020500422E-1,1.687050104E0,8.949000359E0
2.448840671E1,-3.289500177E-1,1.711050034E0,7.987050533E0
2.450834003E1,-2.910000086E-1,2.020050049E0,7.065000534E0
2.452826585E1,-6.019500494E-1,2.329050064E0,6.351000309E0
2.454819388E1,-1.240950108E0,2.512950182E0,6.271950245E0
2.456812242E1,-1.657950044E0,2.640000105E0,6.220050335E0
2.458805080E1,-1.704000115E0,2.851050138E0,6.382050514E0
2.460797851E1,-1.428000093E0,2.719050169E0,7.069950104E0
2.462790642E1,-9.679500461E-1,2.338950157E0,7.594050407E0
2.464783462E1,-3.319500089E-1,1.897950053E0,7.579950333E0
2.466776273E1,2.230500132E-1,1.612950087E0,7.479000568E0
2.468768317E1,5.080500245E-1,1.519950032E0,7.252050400E0
2.470760587E1,3.550500274E-1,1.705950022E0,6.888000488E0
2.472752955E1,-1.180500090E-1,1.845000029E0,7.086000443E0
2.474745294E1,-3.790500164E-1,1.879050136E0,7.903050423E0
2.476737867E1,-5.260500312E-1,1.776000142E0,8.913000107E0
2.478730371E1,-9.540000558E-1,1.845000029E0,9.988050461E0
2.480722983E1,-1.609950066E0,2.226000071E0,1.123605061E1
2.482715563E1,-1.818000078E0,2.491950035E0,1.222005081E1
2.484708365E1,-1.524000049E0,2.487000227E0,1.257195091E1
2.486701102E1,-1.444950104E0,2.077950001E0,1.353705025E1
2.488693608E1,-1.573950052E0,1.788000107E0,1.492995071E1
2.490686180E1,-1.414050102E0,1.881000042E0,1.539195061E1
2.492678410E1,-1.213050008E0,2.209050179E0,1.383300018E1
2.494670741E1,-1.159950018E0,2.282999992E0,1.181295013E1
2.496663363E1,-1.459050059E0,2.346000195E0,1.129305077E1
2.498655901E1,-1.440000057E0,2.242950201E0,1.302195072E1
2.500648657E1,-9.709500670E-1,1.512000084E0,1.479105091E1
2.502641348E1,-3.630000055E-1,9.349500537E-1,1.452495098E1
2.504633885E1,-3.000000119E-2,1.096050024E0,1.213605022E1
2.506626465E1,-3.169500232E-1,1.431000113E0,9.502050400E0
2.508618491E1,-5.730000138E-1,1.618050098E0,7.612950325E0
2.510610680E1,-4.920000136E-1,1.675050020E0,6.454050541E0
2.512603136E1,-3.940500319E-1,1.702050090E0,5.908050060E0
2.514595512E1,-4.395000264E-2,1.594050050E0,5.668950081E0
2.516587593E1,2.350500077E-1,1.474050045E0,5.998950481E0
2.518579760E1,3.400500119E-1,1.467000127E0,6.484950542E0
2.520572210E1,2.130000144E-1,1.584000111E0,6.721950531E0
2.522564580E1,-8.295000345E-2,1.723050117E0,6.768000126E0
2.524557111E1,-2.839500010E-1,1.945950150E0,6.907050133E0
2.526549595E1,-3.840000033E-1,2.077950001E0,7.120050430E0
2.528542833E1,-6.550500393E-1,2.137050152E0,7.467000484E0
2.530535850E1,-9.949500561E-1,2.046000004E0,7.687050343E0
2.532528772E1,-1.195950031E0,2.073000193E0,7.503000259E0
2.534521720E1,-1.375050068E0,2.227950096E0,7.273050308E0
2.536514369E1,-1.636050105E0,2.401050091E0,7.206000328E0
2.538507105E1,-1.821000099E0,2.547000170E0,6.958950520E0
2.540499682E1,-1.837950110E0,2.652000189E0,6.921000481E0
2.542492305E1,-1.834950089E0,2.740950108E0,7.837950230E0
2.544485048E1,-1.852050066E0,2.772000074E0,9.799050331E0
2.546477757E1,-1.567050099E0,2.695050240E0,1.232700062E1
2.548470860E1,-1.075950027E0,2.374050140E0,1.421205044E1
2.550463849E1,-4.300500154E-1,2.073000193E0,1.508295059E1
2.552456850E1,-2.290500104E-1,2.382000208E0,1.444200039E1
2.554449848E1,-9.730500579E-1,2.725950241E0,1.339500046E1
2.556443336E1,-1.548000097E0,2.875050068E0,1.385700035E1
2.558436680E1,-1.288950086E0,2.494050026E0,1.528005028E1
2.560430301E1,-7.480500340E-1,1.849950075E0,1.559805107E1
2.562423841E1,-4.510500133E-1,1.777950048E0,1.434795094E1
2.564416627E1,-6.310500503E-1,2.185050011E0,1.225605011E1
2.566409634E1,-9.880500436E-1,2.467950106E0,1.024005032E1
2.568402788E1,-1.143000007E0,2.497050047E0,8.928000450E0
2.570395901E1,-1.111950040E0,2.386050224E0,8.200050354E0
2.572388888E1,-9.060000181E-1,2.212050200E0,7.744950294E0
2.574381910E1,-6.190500259E-1,2.029950142E0,7.150950432E0
2.576375591E1,-6.049500108E-1,1.857000113E0,6.502050400E0
2.578369079E1,-6.570000052E-1,1.738050103E0,6.058950424E0
2.580362549E1,-6.979500055E-1,1.764000058E0,5.947050095E0
2.582356024E1,-7.789500356E-1,1.876050115E0,5.772000313E0
2.584349270E1,-7.579500079E-1,2.044049978E0,5.358000278E0
2.586342581E1,-5.539500117E-1,2.085000038E0,5.245050430E0
2.588336291E1,-4.680000246E-1,2.068050146E0,5.755050182E0
2.590329882E1,-5.590500236E-1,2.044049978E0,6.619050503E0
2.592323192E1,-5.279999971E-1,1.942950130E0,7.522050381E0
2.594316584E1,-5.400000215E-1,2.053950071E0,8.037000656E0
2.596309676E1,-7.510500550E-1,2.226000071E0,8.214000702E0
2.598302858E1,-1.270050049E0,2.406000137E0,8.788949966E0
2.600296191E1,-1.773000121E0,2.619000196E0,1.009800053E1
2.602289480E1,-2.166000128E0,2.689950228E0,1.168800068E1
2.604282786E1,-2.263950109E0,2.643000126E0,1.282305050E1
2.606276087E1,-1.957050085E0,2.607000113E0,1.341405106E1
2.608269960E1,-1.603050113E0,2.602050066E0,1.421895027E1
2.610263665E1,-1.876050115E0,2.520000219E0,1.470000076E1
2.612257548E1,-2.380950212E0,2.899050236E0,1.389300060E1
2.614251380E1,-2.589000225E0,3.313050270E0,1.261995029E1
2.616244633E1,-2.596950054E0,3.241050243E0,1.240395069E1
2.618238056E1,-2.143949986E0,2.719050169E0,1.354605103E1
2.620231456E1,-1.471050024E0,2.154000044E0,1.397700024E1
2.622224863E1,-9.210000634E-1,1.975050092E0,1.247295094E1
2.624218384E1,-7.860000134E-1,2.262000084E0,1.002900028E1
2.626211871E1,-9.679500461E-1,2.568000078E0,8.185050011E0
2.628205046E1,-1.083000064E0,2.623050213E0,7.672950268E0
2.630198311E1,-1.038000107E0,2.506050110E0,7.732950211E0
2.632191986E1,-9.679500461E-1,2.371950150E0,7.837950230E0
2.634185542E1,-6.330000162E-1,2.215950012E0,7.900050163E0
2.636178482E1,-8.505000174E-2,1.912050128E0,7.852950573E0
2.638171603E1,1.440000087E-1,1.752000093E0,7.570050240E0
2.640164294E1,1.560000032E-1,1.837950110E0,7.050000191E0
2.642157110E1,6.495000422E-2,1.972050071E0,6.756000519E0
2.644149831E1,-2.140500098E-1,2.056050062E0,6.796950340E0
2.646142580E1,-3.270000219E-1,2.158950090E0,6.912000179E0
2.648135226E1,-2.020500153E-1,2.166000128E0,6.856050491E0
2.650127902E1,-2.790000141E-1,2.082000017E0,6.895050526E0
2.652120853E1,-4.560000300E-1,2.050950050E0,7.162950516E0
2.654113724E1,-6.600000262E-1,2.239950180E0,7.399950504E0
2.656106128E1,-9.900000691E-1,2.434050083E0,7.405050278E0
2.658098669E1,-1.239000082E0,2.523000002E0,7.366050243E0
2.660091194E1,-1.428000093E0,2.580000162E0,7.627050400E0
2.662083723E1,-1.276950002E0,2.511000156E0,7.921950340E0
2.664076116E1,-8.800500631E-1,2.554050207E0,8.434050560E0
2.666068548E1,-7.720500231E-1,2.547000170E0,9.265050888E0
2.668061055E1,-4.849500358E-1,2.427000046E0,1.036905003E1
2.670053540E1,-2.620500028E-1,2.311950207E0,1.171005058E1
2.672046318E1,-2.140500098E-1,2.200050116E0,1.347705078E1
2.674039009E1,-4.230000079E-1,2.182950020E0,1.498305035E1
2.676031526E1,-9.010500312E-1,2.370000124E0,1.488705063E1
2.678024094E1,-1.672050118E0,2.607000113E0,1.447005081E1
2.680016678E1,-1.885050058E0,2.644950151E0,1.523400116E1
2.682009256E1,-1.456950068E0,2.130000114E0,1.605495071E1
2.684001719E1,-8.010000587E-1,1.824000120E0,1.555305099E1
2.685994217E1,-7.050000429E-1,2.001000166E0,1.333095074E1
2.687986486E1,-1.093050003E0,2.374050140E0,1.105395031E1
2.689978823E1,-1.507050037E0,2.667000055E0,9.736950874E0
2.691971103E1,-1.603050113E0,2.797950029E0,9.085950851E0
2.693963403E1,-1.372950077E0,2.749950171E0,8.839050293E0
2.695955622E1,-1.051950097E0,2.446050167E0,8.619000435E0
2.697947864E1,-7.770000100E-1,2.164050102E0,7.752000332E0
2.699940290E1,-6.120000482E-1,2.137050152E0,6.556950092E0
2.701932663E1,-5.350500345E-1,2.281050205E0,5.992050171E0
2.703925613E1,-6.090000272E-1,2.286000013E0,5.839050293E0
2.705918394E1,-6.790500283E-1,2.271000147E0,5.761950493E0
2.707911484E1,-7.939500213E-1,2.347950220E0,5.752950191E0
2.709904485E1,-6.979500055E-1,2.422049999E0,6.054000378E0
2.711897678E1,-5.350500345E-1,2.422049999E0,6.571950436E0
2.713890815E1,-3.720000088E-1,2.331000090E0,6.604950428E0
2.715883544E1,-2.959500253E-1,2.347950220E0,6.709950447E0
2.717876393E1,-3.480000198E-1,2.355000019E0,7.125000477E0
2.719869522E1,-9.090000391E-1,2.322000027E0,9.106950760E0
2.721862570E1,-1.612950087E0,3.106950045E0,1.128600025E1
2.723855725E1,-3.390000165E-1,3.117000103E0,7.447950363E0
2.725848848E1,-2.209500074E-1,2.089950085E0,8.523000717E0
2.727841217E1,-9.000000358E-2,2.341050148E0,1.077105045E1
2.729833808E1,-8.130000234E-1,2.647050142E0,1.151100063E1
2.731825833E1,-4.270500243E-1,3.166950226E0,1.047405052E1
2.733818023E1,-4.030500054E-1,2.887050152E0,1.040700054E1
2.735809698E1,-8.010000587E-1,2.977950096E0,1.191300011E1
2.737801524E1,-1.816050053E0,3.379950047E0,1.378800106E1
2.739794078E1,-1.909050107E0,3.694050074E0,1.372305107E1
2.741786418E1,-1.737000108E0,3.531000137E0,1.196595097E1
2.743778811E1,-1.701000094E0,3.399000168E0,1.253805065E1
2.745771191E1,-2.295000076E0,3.499950171E0,1.384800053E1
2.747763285E1,-2.494050026E0,3.378000259E0,1.421700096E1
2.749755462E1,-1.957050085E0,3.033000231E0,1.290405083E1
2.751748032E1,-1.440000057E0,2.956050158E0,1.078995037E1
2.753740486E1,-1.464000106E0,3.057000160E0,8.929950714E0
2.755733019E1,-1.726950049E0,3.177000046E0,8.029950142E0
2.757725527E1,-1.849950075E0,3.330000162E0,7.702050209E0
2.759718922E1,-1.459050059E0,3.142950058E0,7.455000401E0
2.761712058E1,-9.799500704E-1,2.989950180E0,7.186950207E0
2.763704723E1,-1.138050079E0,3.001950026E0,7.347000122E0
2.765697527E1,-1.296000004E0,3.082950115E0,7.702050209E0
2.767689772E1,-1.453950047E0,3.223950148E0,7.996050358E0
2.769682181E1,-1.348950028E0,3.190950155E0,7.965000153E0
2.771674396E1,-1.081050038E0,2.959050179E0,7.951050282E0
2.773666667E1,-1.069050074E0,2.647050142E0,7.833000183E0
2.775659167E1,-1.893000126E0,2.743050098E0,6.604950428E0
2.777651599E1,-2.419050217E0,2.941950083E0,1.051695061E1
2.781835554E1,-1.809000134E0,3.265050173E0,8.985000610E0
2.783829529E1,-1.918950081E0,3.097950220E0,7.323000431E0
2.785821761E1,-2.032050133E0,2.917950153E0,7.471950531E0
2.787814638E1,-1.615050077E0,2.652000189E0,1.020405006E1
2.789807300E1,-1.015950084E0,2.485050201E0,1.182195091E1
2.791800178E1,-7.120500207E-1,2.583000183E0,1.114005089E1
2.793792992E1,-1.171950102E0,2.875050068E0,9.250950813E0
2.795786038E1,-1.765950084E0,3.097950220E0,7.716000557E0
2.797779016E1,-1.432950020E0,3.061950207E0,8.008049965E0
2.799772998E1,-1.170000076E0,2.824950218E0,9.202950478E0
2.801766686E1,-1.026000023E0,2.698050022E0,9.955050468E0
2.803759762E1,-9.420000315E-1,2.719050169E0,9.322950363E0
2.805753017E1,-1.462050080E0,2.881950140E0,8.329050064E0
2.807745834E1,-1.747050047E0,2.881950140E0,8.082000732E0
2.809738779E1,-1.569000125E0,2.820000172E0,8.743050575E0
2.811731246E1,-1.383000016E0,2.800950050E0,9.631050110E0
2.813723855E1,-1.170000076E0,2.785950184E0,1.028505039E1
2.815716779E1,-1.210050106E0,2.692950010E0,1.023000050E1
2.817709610E1,-1.407000065E0,2.655000210E0,9.370050430E0
2.819703090E1,-1.581000090E0,2.638050079E0,8.499000549E0
2.821696380E1,-1.701000094E0,2.650050163E0,8.353050232E0
2.823690030E1,-1.648050070E0,2.643000126E0,8.644950867E0
2.825683573E1,-1.443000078E0,2.602050066E0,8.701950073E0
2.827677694E1,-1.261050105E0,2.503950119E0,8.578050613E0
2.829671644E1,-1.423050046E0,2.458050013E0,8.212050438E0
2.831665254E1,-1.600950122E0,2.440950155E0,7.800000191E0
2.833658962E1,-1.585950017E0,2.455950022E0,7.522050381E0
2.835652872E1,-1.464000106E0,2.467950106E0,7.371000290E0
2.837646723E1,-1.222050071E0,2.527950048E0,7.204050541E0
2.839640421E1,-1.110000014E0,2.652000189E0,7.093950272E0
2.841634166E1,-1.086000085E0,2.734050035E0,7.230000496E0
2.843627934E1,-1.177050114E0,2.788950205E0,7.551000595E0
2.845621696E1,-1.131000042E0,2.755050182E0,7.873950481E0
2.847615700E1,-1.240950108E0,2.784000158E0,8.260050774E0
2.849609633E1,-1.279950023E0,2.803050041E0,8.923050880E0
2.851603774E1,-1.071000099E0,2.797950029E0,9.700950623E0
2.853597854E1,-8.770500422E-1,2.791050196E0,1.045695019E1
2.855591024E1,-5.299500227E-1,2.851050138E0,1.114695072E1
2.857584461E1,9.600000083E-2,3.025950193E0,1.210200024E1
2.859577672E1,6.130500436E-1,3.028050184E0,1.306695080E1
2.861570951E1,1.020000100E0,2.781000137E0,1.393605042E1
2.863564389E1,1.090050101E0,2.314950228E0,1.378305054E1
2.865557781E1,9.649500251E-1,2.070000172E0,1.326600075E1
2.867551203E1,7.879500389E-1,2.142000198E0,1.293105030E1
2.869544618E1,8.119500279E-1,1.987050056E0,1.288800049E1
2.871538065E1,1.144950032E0,1.696950078E0,1.302900028E1
2.873531502E1,1.396050096E0,1.534050107E0,1.266495037E1
2.875524972E1,1.363050103E0,1.444950104E0,1.120005035E1
2.877518432E1,8.239500523E-1,1.623000026E0,9.450000763E0
2.879512066E1,4.120500088E-1,1.716000080E0,8.331000328E0
2.881505652E1,4.120500088E-1,1.600950122E0,7.915050507E0
2.883499564E1,1.300500035E-1,1.644000053E0,7.702050209E0
2.885493381E1,-1.260000020E-1,1.773000121E0,7.687050343E0
2.887486956E1,-3.030000031E-1,1.747050047E0,7.840950489E0
2.889480603E1,-3.840000033E-1,1.594050050E0,8.074950218E0
2.891474067E1,-5.160000324E-1,1.468950033E0,8.334000587E0
2.893467586E1,-6.210000515E-1,1.426050067E0,8.464950562E0
2.895461600E1,-6.600000262E-1,1.534050107E0,8.381999969E0
2.897455470E1,-6.330000162E-1,1.684950113E0,8.383950233E0
2.899449617E1,-5.520000458E-1,1.702050090E0,8.020050049E0
2.901443683E1,-5.329500437E-1,1.711050034E0,7.455000401E0
2.903437418E1,-6.160500050E-1,1.768950105E0,6.907050133E0
2.905431248E1,-5.520000458E-1,1.765950084E0,6.531000137E0
2.907425332E1,-5.610000491E-1,1.837950110E0,6.334950447E0
2.909419341E1,-5.520000458E-1,1.969950080E0,6.259950161E0
2.911413483E1,-3.870000243E-1,1.981950045E0,6.475950241E0
2.913407587E1,-2.050500065E-1,1.897950053E0,7.434000492E0
2.915401521E1,-7.360500097E-1,2.134950161E0,8.041950226E0
2.917395503E1,-1.648050070E0,2.389050007E0,8.947050095E0
2.919389216E1,-1.275000095E0,2.038950205E0,9.949950218E0
2.921383006E1,-6.499500275E-1,1.543950081E0,1.064205074E1
2.923377228E1,-3.700500131E-1,1.546050072E0,1.085700035E1
2.925371322E1,-8.970000148E-1,2.362050056E0,1.070895004E1
2.927366171E1,-1.311000109E0,3.105000257E0,1.094595051E1
2.929360799E1,-7.429500222E-1,2.856000185E0,1.205400085E1
2.931355140E1,-1.095000096E-2,2.134950161E0,1.325895023E1
2.933349563E1,5.100000277E-2,1.989000082E0,1.408995056E1
2.935343904E1,5.100000277E-2,2.104050159E0,1.497795105E1
2.937338270E1,1.009500027E-1,1.981950045E0,1.588995075E1
2.939333090E1,-1.469999999E-1,1.750050068E0,1.570305061E1
2.941327778E1,-3.529500067E-1,1.744950056E0,1.417305088E1
2.943322814E1,-7.500000298E-2,1.696950078E0,1.228695011E1
2.945317747E1,3.930000067E-1,1.527000070E0,1.104195023E1
2.947312450E1,4.260000288E-1,1.314000010E0,1.054800034E1
2.949307222E1,-4.695000127E-2,1.414050102E0,1.075005054E1
2.951301473E1,-1.879500151E-1,1.402050018E0,1.106595039E1
2.953295876E1,1.770000011E-1,1.228050113E0,1.065900040E1
2.955290134E1,5.505000427E-2,1.242000103E0,9.373050690E0
2.957284432E1,-1.620000005E-1,1.366050124E0,7.932000160E0
2.959278697E1,-4.420500100E-1,1.422000051E0,6.652950287E0
2.961272975E1,-1.038000107E0,1.515000105E0,5.889000416E0
2.963266695E1,-1.432950020E0,1.516950130E0,5.676000118E0
2.965260577E1,-1.536000013E0,1.242000103E0,5.274000168E0
2.967254276E1,-1.693950057E0,1.089000106E0,4.869000435E0
2.969248030E1,-1.849950075E0,1.153050065E0,4.740000248E0
2.971241778E1,-1.713000059E0,1.237050056E0,4.726050377E0
2.973235529E1,-1.549950123E0,1.242000103E0,5.080050468E0
2.975229252E1,-1.668000102E0,1.291950107E0,5.719050407E0
2.977222983E1,-2.017050028E0,1.345050097E0,6.339000225E0
2.979216718E1,-2.203950167E0,1.335000038E0,6.865950108E0
2.981210452E1,-2.166000128E0,1.242000103E0,7.350000381E0
2.983204464E1,-2.107950211E0,1.134000063E0,8.169000626E0
2.985198396E1,-2.103000164E0,1.093050003E0,9.961950302E0
2.987192762E1,-1.692000031E0,1.125000000E0,1.256400013E1
2.989187002E1,-3.079500198E-1,1.017000079E0,1.476000023E1
2.991180462E1,5.010000467E-1,9.240000248E-1,1.610099983E1
2.993174150E1,-6.599999964E-2,1.108050108E0,1.634700012E1
2.995167874E1,-2.929500043E-1,1.062000036E0,1.589505100E1
2.997161587E1,4.000500143E-1,5.910000205E-1,1.431705093E1
2.999155335E1,2.880000174E-1,9.520500302E-1,1.319895077E1
3.001149072E1,4.800000042E-2,1.266000032E0,1.371105099E1
3.003142987E1,-5.595000088E-2,5.569500327E-1,1.476195049E1
3.005136849E1,-5.490000248E-1,-1.530000120E-1,1.478895092E1
3.007130158E1,-9.760500193E-1,-4.260000288E-1,1.323705101E1
3.009123628E1,-1.300950050E0,-4.005000368E-2,1.085700035E1
3.011117447E1,-1.177050114E0,4.060500264E-1,8.712000847E0
3.013111161E1,-8.730000257E-1,7.680000067E-1,7.503000259E0
3.015105036E1,-6.400500536E-1,1.014000058E0,7.218000412E0
3.017098863E1,-5.329500437E-1,1.137000084E0,7.339950562E0
3.019093484E1,-5.209500194E-1,1.225050092E0,7.323000431E0
3.021087871E1,-6.430500150E-1,1.297050118E0,7.048050404E0
3.023082607E1,-8.580000401E-1,1.357050061E0,6.667050362E0
3.025077237E1,-1.075950027E0,1.423950076E0,6.610050201E0
3.027071807E1,-1.147950053E0,1.441050053E0,7.189050198E0
3.029066396E1,-1.066950083E0,1.333050013E0,8.026950836E0
3.031061019E1,-1.003950000E0,1.177050114E0,8.491950035E0
3.033055633E1,-1.170000076E0,1.255950093E0,8.736000061E0
3.035049974E1,-1.273050070E0,1.198950052E0,8.688000679E0
3.037044395E1,-1.243950009E0,1.078950047E0,8.295000076E0
3.039038770E1,-1.368000031E0,1.287000060E0,8.206950188E0
3.041033161E1,-1.042950034E0,1.419000030E0,8.544000626E0
3.043027219E1,-6.019500494E-1,1.378050089E0,8.470050812E0
3.045021375E1,-6.360000372E-1,1.503000021E0,8.214000702E0
3.047015568E1,-7.669500113E-1,1.519950032E0,8.074950218E0
3.049009747E1,-9.610500336E-1,1.453050017E0,8.038949966E0
3.051003698E1,-1.045050025E0,1.575000048E0,8.282999992E0
3.052997716E1,-8.509500623E-1,1.642050028E0,8.667000771E0
3.054992113E1,-7.579500079E-1,1.675050020E0,9.189000130E0
3.056986399E1,-7.939500213E-1,1.611000061E0,9.985950470E0
3.058981052E1,-7.860000134E-1,1.600950122E0,1.135995007E1
3.060975599E1,-5.779500008E-1,1.456950068E0,1.277295017E1
3.062969843E1,-4.270500243E-1,1.393050075E0,1.358700085E1
3.064964176E1,-1.330500096E-1,1.534050107E0,1.391205025E1
3.066957439E1,4.740000367E-1,1.459950089E0,1.341900063E1
3.068951015E1,7.860000134E-1,1.594050050E0,1.234395027E1
3.070944905E1,1.180950046E0,1.608000040E0,1.217895031E1
3.072938705E1,1.393950105E0,1.441050053E0,1.319205093E1
3.074932467E1,1.377000093E0,9.589500427E-1,1.413495064E1
3.076926242E1,1.068000078E0,5.020500422E-1,1.414905071E1
3.078919932E1,7.540500164E-1,3.850500286E-1,1.319895077E1
3.080913648E1,5.749500394E-1,6.649500132E-1,1.148895073E1
3.082907299E1,4.410000145E-1,1.101000071E0,9.835050583E0
3.084900970E1,5.490000248E-1,1.387950063E0,8.650050163E0
3.086894467E1,7.300500274E-1,1.524000049E0,8.013000488E0
3.088888016E1,7.380000353E-1,1.551000118E0,7.716000557E0
3.090882225E1,5.700000525E-1,1.615050077E0,7.483950138E0
3.092876240E1,3.709500134E-1,1.714050055E0,7.393050194E0
3.094870366E1,3.469500244E-1,1.740000129E0,7.264050484E0
3.096864458E1,2.760000229E-1,1.708950043E0,7.090950489E0
3.098858728E1,1.180500090E-1,1.740000129E0,6.811050415E0
3.100852944E1,-4.695000127E-2,1.785000086E0,6.562050343E0
3.102846896E1,-2.670000196E-1,1.795050144E0,6.343950272E0
3.104840924E1,-5.089499950E-1,1.825950146E0,6.235950470E0
3.106834631E1,-7.170000076E-1,1.908000112E0,6.409050465E0
3.108828432E1,-6.739500165E-1,1.948050141E0,6.892050266E0
3.110821847E1,-4.080000222E-1,1.785000086E0,7.357050419E0
3.112815376E1,-3.720000088E-1,1.762050033E0,7.714050293E0
3.114808814E1,-4.680000246E-1,1.795050144E0,8.310000420E0
3.116802278E1,-4.660500288E-1,1.860000134E0,9.117000580E0
3.118796691E1,-7.800000161E-2,1.795050144E0,9.873000145E0
3.120790825E1,3.949500322E-1,1.705950022E0,1.075395012E1
3.122785001E1,6.349500418E-1,1.716000080E0,1.155900097E1
3.124779164E1,7.330500484E-1,1.717950106E0,1.213605022E1
3.126772758E1,5.250000358E-1,1.717950106E0,1.267905045E1
3.128766518E1,1.849500090E-1,1.624950051E0,1.310805035E1
3.130760360E1,2.895000204E-2,1.570050120E0,1.332600021E1
3.132754179E1,1.560000032E-1,1.456950068E0,1.326795101E1
3.134748594E1,2.659500241E-1,1.351950049E0,1.284705067E1
3.136742834E1,1.609500051E-1,1.338000059E0,1.236105061E1
3.138737766E1,1.150500029E-1,1.303950071E0,1.223895073E1
3.140732495E1,8.205000311E-2,1.237050056E0,1.234905052E1
3.142726750E1,-1.090500057E-1,1.062000036E0,1.204995060E1
3.144721143E1,-4.510500133E-1,1.041000009E0,1.099605083E1
3.146715346E1,-7.669500113E-1,1.275000095E0,9.679050446E0
3.148709604E1,-8.560500145E-1,1.528950095E0,8.668950081E0
3.150703175E1,-8.340000510E-1,1.702050090E0,8.190000534E0
3.152696949E1,-6.739500165E-1,1.792950034E0,8.110950470E0
3.154690687E1,-5.520000458E-1,1.893000126E0,8.094000816E0
3.156684435E1,-5.040000081E-1,1.869000077E0,8.074950218E0
3.158677918E1,-5.539500117E-1,1.714050055E0,7.978950500E0
3.160671479E1,-6.910500526E-1,1.603050113E0,7.920000553E0
3.162665458E1,-8.130000234E-1,1.522050023E0,7.735050201E0
3.164659316E1,-8.440500498E-1,1.503000021E0,7.551000595E0
3.166653396E1,-7.819500566E-1,1.507950068E0,7.495950222E0
3.168647410E1,-5.110500455E-1,1.467000127E0,7.492950439E0
3.170641930E1,-2.239500135E-1,1.447950125E0,7.363950253E0
3.172636302E1,-7.800000161E-2,1.504950047E0,7.240050316E0
3.174630297E1,1.650000066E-1,1.390050054E0,7.062000275E0
3.176624402E1,4.099500179E-1,1.333050013E0,6.925950527E0
3.178618216E1,6.060000062E-1,1.395000100E0,7.207950115E0
3.180612116E1,6.229500175E-1,1.507950068E0,7.933950424E0
3.182606118E1,5.050500035E-1,1.477050066E0,8.788949966E0
3.184600091E1,3.349500299E-1,1.455000043E0,9.375000000E0
3.186593820E1,2.730000019E-1,1.498050094E0,9.421050072E0
3.188587621E1,1.939500123E-1,1.837950110E0,9.805950165E0
3.190581330E1,1.339500099E-1,1.972050071E0,1.081695080E1
3.192575066E1,4.260000288E-1,1.579950094E0,1.212600040E1
3.194569298E1,6.160500050E-1,8.920500278E-1,1.306695080E1
3.196563383E1,7.399500608E-1,5.449500084E-1,1.358205032E1
3.198557147E1,8.359500170E-1,6.169500351E-1,1.449195099E1
3.200551006E1,6.439500451E-1,6.360000372E-1,1.568205070E1
3.202544905E1,5.509500504E-1,3.229500055E-1,1.622504997E1
3.204538791E1,7.759500146E-1,9.000000358E-2,1.551195049E1
3.206532324E1,9.940500259E-1,2.749500275E-1,1.392405033E1
3.208525961E1,9.750000238E-1,7.420500517E-1,1.236600018E1
3.210519175E1,8.599500656E-1,1.144050002E0,1.090995026E1
3.212512514E1,7.620000243E-1,1.417050123E0,9.583950043E0
3.214506142E1,6.540000439E-1,1.603050113E0,8.379000664E0
3.216499684E1,5.599500537E-1,1.792950034E0,7.369050503E0
3.218493274E1,6.870000362E-1,1.972050071E0,6.684000492E0
3.220486851E1,5.320500135E-1,1.966950059E0,6.124050140E0
3.222480042E1,-1.305000018E-2,1.867050052E0,5.740950108E0
3.224473345E1,-4.780500233E-1,1.656000137E0,5.599050045E0
3.226466654E1,-7.360500097E-1,1.362000108E0,5.659050465E0
3.228459961E1,-9.450000525E-1,1.230000019E0,6.010950089E0
3.230453214E1,-1.083000064E0,1.105050087E0,6.615000248E0
3.232446484E1,-1.059000015E0,8.970000148E-1,7.062000275E0
3.234439838E1,-1.075950027E0,7.870500088E-1,7.218000412E0
3.236433168E1,-1.086000085E0,8.010000587E-1,7.228050232E0
3.238426738E1,-9.949500561E-1,8.299500346E-1,7.371000290E0
3.240420238E1,-7.410000563E-1,8.710500598E-1,8.008049965E0
3.242413014E1,-4.900500178E-1,8.250000477E-1,8.944050789E0
3.244406001E1,-2.190000117E-1,8.419500589E-1,9.849000931E0
3.246398570E1,1.650000066E-1,7.540500164E-1,1.033305073E1
3.248391262E1,5.250000358E-1,7.489500642E-1,1.067295074E1
3.250384136E1,9.960000515E-1,7.510500550E-1,1.118805027E1
3.252376956E1,1.573050022E0,5.879999995E-1,1.222200012E1
3.254369749E1,1.995000124E0,3.150000274E-1,1.343400097E1
3.256362549E1,2.280000210E0,1.530000120E-1,1.509495068E1
3.258355656E1,2.506950140E0,-1.890000105E-1,1.712805176E1
3.260348672E1,2.425950050E0,-7.039500475E-1,1.810004997E1
3.262342090E1,2.284050226E0,-7.990500331E-1,1.723305130E1
3.264335390E1,2.338950157E0,-3.709500134E-1,1.503795052E1
3.266328845E1,2.280000210E0,3.349500299E-1,1.253595066E1
3.268322253E1,2.062050104E0,7.609500289E-1,1.073505020E1
3.270315885E1,1.576050043E0,9.120000601E-1,9.508950233E0
3.272309452E1,9.480000734E-1,1.078950047E0,8.452950478E0
3.274302592E1,4.020000100E-1,1.279950023E0,7.333050251E0
3.276295855E1,-1.095000096E-2,1.447950125E0,6.330000401E0
3.278289346E1,-4.060500264E-1,1.666050076E0,5.743050098E0
3.280282770E1,-6.810000539E-1,1.885950089E0,5.664000034E0
3.282275717E1,-8.970000148E-1,2.011049986E0,6.186000347E0
3.284268802E1,-1.042950034E0,1.762050033E0,6.754050255E0
3.286261863E1,-1.138050079E0,1.363950014E0,7.098000526E0
3.288254932E1,-1.414050102E0,1.162950039E0,7.057950497E0
3.290247959E1,-1.564950109E0,1.168050051E0,7.069950104E0
3.292240996E1,-1.600950122E0,1.194000006E0,7.342950344E0
3.294233992E1,-1.452000022E0,1.090950012E0,7.780950546E0
3.296226998E1,-1.159950018E0,1.041000009E0,8.281050682E0
3.298219799E1,-8.370000124E-1,9.709500670E-1,8.815050125E0
3.300212660E1,-7.150500417E-1,7.990500331E-1,9.235950470E0
3.302205180E1,-9.040500522E-1,7.800000310E-1,9.684000015E0
3.304197799E1,-1.110000014E0,7.630500197E-1,1.003395081E1
3.306190393E1,-1.069050074E0,5.310000181E-1,1.018200016E1
3.308182993E1,-1.117050052E0,7.990500331E-1,1.034505081E1
3.310175432E1,-1.000050068E0,1.254000068E0,1.121400070E1
3.312167918E1,-3.120000064E-1,1.371000051E0,1.243995094E1
3.314160381E1,5.940000415E-1,1.146000028E0,1.307895088E1
3.316152850E1,1.542000055E0,8.280000687E-1,1.354095078E1
3.318146408E1,1.908000112E0,1.004999995E0,1.462095070E1
3.320139648E1,1.719000101E0,9.469500184E-1,1.598595047E1
3.322133450E1,1.189950109E0,6.310500503E-1,1.659600067E1
3.324127087E1,1.126049995E0,3.820500076E-1,1.527705097E1
3.326120266E1,1.138050079E0,7.320000529E-1,1.268205070E1
3.328113579E1,1.204950094E0,1.318950057E0,1.050300026E1
3.330106870E1,1.398000121E0,1.588950038E0,9.391950607E0
3.332100169E1,1.425000072E0,1.747050047E0,9.262950897E0
3.334093710E1,1.401000023E0,1.648950100E0,9.330000877E0
3.336087178E1,1.141950011E0,1.519950032E0,8.923050880E0
3.338080473E1,7.260000110E-1,1.504950047E0,8.032050133E0
3.340073822E1,4.339500070E-1,1.459950089E0,7.101000309E0
3.342067052E1,2.610000074E-1,1.447950125E0,6.403950214E0
3.344060315E1,1.890000105E-1,1.489050031E0,6.021000385E0
3.346053974E1,2.280000150E-1,1.527000070E0,5.644950390E0
3.348047516E1,1.650000066E-1,1.690050125E0,5.209050179E0
3.350041438E1,-4.050000105E-3,1.909950137E0,5.013000011E0
3.352035248E1,-1.279500127E-1,2.032050133E0,5.154000282E0
3.354028196E1,-2.959500253E-1,2.017950058E0,5.628000259E0
3.356021399E1,-3.340500295E-1,1.807050109E0,6.454050541E0
3.358014717E1,-3.220500052E-1,1.692000031E0,7.429050446E0
3.360008004E1,-1.639500111E-1,1.642050028E0,8.583000183E0
3.362001190E1,1.905000024E-2,1.696950078E0,9.588000298E0
3.363994405E1,2.010000050E-1,1.864050031E0,1.024005032E1
3.365988017E1,4.579500258E-1,1.893000126E0,1.064700031E1
3.367981516E1,7.570500374E-1,1.891050100E0,1.102995014E1
3.369975163E1,1.048950076E0,1.999050140E0,1.139100075E1
3.371968768E1,1.269000053E0,1.996050119E0,1.184100056E1
3.373962726E1,1.525050044E0,1.726050138E0,1.242795086E1
3.375956582E1,1.561050057E0,1.527000070E0,1.317495060E1
3.377950484E1,1.336050034E0,1.387950063E0,1.427205086E1
3.379944373E1,1.120950103E0,8.610000610E-1,1.464705086E1
3.381937905E1,7.759500146E-1,4.810500145E-1,1.390995026E1
3.383931542E1,6.900000572E-1,4.849500358E-1,1.248300076E1
3.385924665E1,5.130000114E-1,8.659500480E-1,1.133895016E1
3.387917940E1,2.880000174E-1,1.137000084E0,1.090500069E1
3.389910984E1,1.319999993E-1,1.168050051E0,1.107300091E1
3.391904095E1,-5.895000324E-2,1.161000013E0,1.088400078E1
3.393897796E1,-4.320000112E-1,1.279950023E0,9.888000488E0
3.395891325E1,-6.120000482E-1,1.402050018E0,8.737950325E0
3.397885081E1,-6.310500503E-1,1.432950020E0,7.717950344E0
3.399878771E1,-8.250000477E-1,1.560000062E0,7.069950104E0
3.401872735E1,-1.150050044E0,1.678050041E0,6.816000462E0
3.403866618E1,-1.411050081E0,1.692000031E0,6.937950134E0
3.405860342E1,-1.468950033E0,1.615050077E0,7.198950291E0
3.407854114E1,-1.443000078E0,1.536000013E0,7.290000439E0
3.409848048E1,-1.368000031E0,1.570050120E0,7.302000523E0
3.411841936E1,-1.177050114E0,1.594050050E0,7.459950447E0
3.413835396E1,-9.540000558E-1,1.575000048E0,7.714050293E0
3.415828981E1,-7.939500213E-1,1.528950095E0,7.951050282E0
3.417822349E1,-7.050000429E-1,1.447950125E0,8.233050346E0
3.419815780E1,-7.150500417E-1,1.438050032E0,8.710050583E0
3.421810254E1,-7.980000377E-1,1.534050107E0,9.438000679E0
3.423804421E1,-7.840500474E-1,1.510050058E0,1.009605026E1
3.425799113E1,-7.549500465E-1,1.479000092E0,1.022505093E1
3.427793651E1,-8.059500456E-1,1.536000013E0,1.001505089E1
3.429789131E1,-8.320500255E-1,1.611000061E0,1.006500053E1
3.431784332E1,-7.219500542E-1,1.587000132E0,1.069500065E1
3.433779442E1,-3.000000119E-1,1.531950116E0,1.237095070E1
3.435774578E1,3.859500289E-1,1.291950107E0,1.396500111E1
3.437769722E1,1.008000016E0,8.880000710E-1,1.403895092E1
3.439764864E1,1.486950040E0,8.659500480E-1,1.352700043E1
3.441760795E1,1.426950097E0,1.069950104E0,1.387695026E1
3.443756494E1,9.079500437E-1,9.330000281E-1,1.456095028E1
3.445752256E1,3.139500022E-1,6.550500393E-1,1.461195087E1
3.447747997E1,1.440000087E-1,4.729500115E-1,1.308195019E1
3.449742708E1,-1.605000161E-2,9.160500169E-1,1.075905037E1
3.451737720E1,1.609500051E-1,1.417050123E0,8.971050262E0
3.453732433E1,5.820000172E-1,1.716000080E0,8.140049934E0
3.455727234E1,9.840000272E-1,1.872000098E0,8.161050797E0
3.457722017E1,1.011000037E0,1.840950131E0,8.272050858E0
3.459716804E1,7.260000110E-1,1.873950124E0,8.001000404E0
3.461711405E1,4.099500179E-1,1.905000091E0,7.527000427E0
3.463706063E1,1.819500029E-1,1.792950034E0,7.006950378E0
3.465701316E1,-7.950000465E-3,1.771050096E0,6.663000107E0
3.467696394E1,-1.570500135E-1,1.809000134E0,6.421050072E0
3.469691494E1,-2.380500138E-1,1.813950062E0,6.193050385E0
3.471686587E1,-3.510000110E-1,1.908000112E0,5.869950294E0
3.473681608E1,-4.750500321E-1,2.077950001E0,5.863050461E0
3.475676650E1,-5.760000348E-1,2.029950142E0,6.066000462E0
3.477670719E1,-5.659500360E-1,1.888050079E0,6.532950401E0
3.479665073E1,-4.350000322E-1,1.861950040E0,7.246950150E0
3.481659234E1,-1.810500026E-1,1.929000139E0,8.439000130E0
3.483653451E1,2.899500132E-1,1.867050052E0,9.892050743E0
3.485647949E1,7.690500617E-1,1.714050055E0,1.108695030E1
3.487642366E1,8.929500580E-1,1.726050138E0,1.172400093E1
3.489637703E1,7.759500146E-1,1.756950140E0,1.203495026E1
3.491632772E1,5.370000005E-1,1.915050149E0,1.237995052E1
3.493627580E1,4.170000255E-1,1.924050093E0,1.269600105E1
3.495622464E1,7.039500475E-1,1.618050098E0,1.236300087E1
3.497617390E1,9.460500479E-1,1.672950029E0,1.179600048E1
3.499612303E1,8.959500194E-1,2.011049986E0,1.226295090E1
3.501607972E1,7.980000377E-1,1.753950119E0,1.384800053E1
3.503603419E1,5.490000248E-1,1.122000098E0,1.536105061E1
3.505598667E1,1.459500045E-1,7.770000100E-1,1.520295048E1
3.507593973E1,-3.700500131E-1,9.120000601E-1,1.314900017E1
3.509589226E1,-7.030500174E-1,1.354050040E0,1.065405083E1
3.511584495E1,-7.120500207E-1,1.612950087E0,8.855999947E0
3.513579792E1,-7.069500089E-1,1.681950092E0,7.776000500E0
3.515575080E1,-8.629500270E-1,1.825950146E0,7.081950188E0
3.517569976E1,-1.057050109E0,1.936050057E0,6.640950203E0
3.519564987E1,-1.273050070E0,2.008050203E0,6.435000420E0
3.521560182E1,-1.501950026E0,2.053950071E0,6.556950092E0
3.523555324E1,-1.756050110E0,1.903050065E0,7.156050205E0
3.525550440E1,-1.854000092E0,1.752000093E0,7.714050293E0
3.527545563E1,-1.885050058E0,1.647000074E0,7.924050331E0
3.529540973E1,-1.761000037E0,1.702050090E0,7.900050163E0
3.531536300E1,-1.531050086E0,1.783050060E0,7.773000240E0
3.533531588E1,-1.135950089E0,1.788000107E0,7.666050434E0
3.535526886E1,-7.459500432E-1,1.752000093E0,7.563000202E0
3.537522287E1,-4.030500054E-1,1.681950092E0,7.444950581E0
3.539517660E1,-2.430000156E-1,1.768950105E0,7.299000263E0
3.541512794E1,-1.759500057E-1,1.989000082E0,7.555950165E0
3.543507999E1,-1.900500059E-1,2.227950096E0,8.295000076E0
3.545503595E1,-3.079500198E-1,2.290950060E0,8.796000481E0
3.547499076E1,-7.030500174E-1,2.499000072E0,9.088050842E0
3.549494967E1,-8.890500665E-1,2.772000074E0,9.970950127E0
3.551490737E1,-5.879999995E-1,2.905950069E0,1.237095070E1
3.553485930E1,-8.295000345E-2,2.535000086E0,1.584195042E1
3.555481291E1,4.810500145E-1,2.029950142E0,1.739595032E1
3.557475939E1,8.170500398E-1,1.704000115E0,1.640999985E1
3.559470798E1,4.530000091E-1,1.795050144E0,1.478895092E1
3.561465857E1,7.905000448E-2,1.596000075E0,1.394100094E1
3.563460858E1,2.205000073E-2,1.386000037E0,1.344105053E1
3.565456392E1,4.800000042E-2,1.611000061E0,1.259295082E1
3.567451772E1,3.259500265E-1,1.942950130E0,1.153005028E1
3.569447233E1,5.490000248E-1,2.213999987E0,1.036200047E1
3.571442670E1,5.220000148E-1,2.439000130E0,9.346950531E0
3.573438041E1,4.240500331E-1,2.503950119E0,8.488950729E0
3.575433432E1,2.830500007E-1,2.485050201E0,7.732950211E0
3.577428584E1,5.100000277E-2,2.515950203E0,7.168050289E0
3.579423807E1,-6.599999964E-2,2.503950119E0,6.901950359E0
3.581419540E1,-1.279500127E-1,2.427000046E0,6.775050163E0
3.583415123E1,-2.359500080E-1,2.379000187E0,6.652950287E0
3.585411021E1,-3.630000055E-1,2.335950136E0,6.457050323E0
3.587406825E1,-5.730000138E-1,2.370000124E0,6.181050301E0
3.589400316E1,-8.320500255E-1,2.394000053E0,5.911050320E0
3.591394482E1,-1.002000093E0,2.377050161E0,5.857950211E0
3.593388136E1,-1.147950053E0,2.386050224E0,5.913000107E0
3.595381938E1,-1.500000119E0,2.317050219E0,6.118950367E0
3.597375270E1,-1.629000068E0,2.524950027E0,6.538050175E0
3.599368739E1,-1.500000119E0,2.644950151E0,7.588950157E0
3.601362110E1,-1.287000060E0,2.590050220E0,8.808000565E0
3.603355510E1,-1.114950061E0,2.509050131E0,9.876000404E0
3.605349018E1,-1.012050033E0,2.512950182E0,1.043400097E1
3.607342494E1,-1.189050078E0,2.916000128E0,1.038300037E1
3.609335771E1,-1.443000078E0,3.367950201E0,1.059900093E1
3.611329108E1,-1.537950039E0,3.484950066E0,1.134795094E1
3.613321848E1,-1.536000013E0,3.286950111E0,1.252395058E1
3.615314762E1,-1.536000013E0,3.054000139E0,1.318695068E1
3.617307038E1,-1.735050082E0,3.100050211E0,1.299795055E1
3.619299500E1,-1.806000113E0,3.211950064E0,1.332300091E1
3.621293049E1,-1.525950074E0,2.746050119E0,1.396305084E1
3.623286278E1,-1.347000122E0,2.458050013E0,1.421895027E1
3.625279580E1,-1.134000063E0,2.419950008E0,1.342605019E1
3.627272861E1,-1.165050030E0,2.584950209E0,1.145595074E1
3.629266101E1,-1.375050068E0,2.889000177E0,9.552000046E0
3.631259353E1,-1.474050045E0,2.953950167E0,8.323950768E0
3.633251314E1,-1.593000054E0,2.824950218E0,7.378050327E0
3.635243653E1,-1.948050141E0,2.748000145E0,6.646050453E0
3.637236569E1,-2.416950226E0,2.725950241E0,6.178950310E0
3.639229316E1,-2.854950190E0,2.743050098E0,6.076050282E0
3.641222394E1,-3.006000042E0,2.793000221E0,6.325050354E0
3.643215376E1,-3.253050089E0,2.527950048E0,6.639000416E0
3.645208133E1,-3.253050089E0,2.596950054E0,6.877950191E0
3.647200955E1,-3.130050182E0,2.467950106E0,7.290000439E0
3.649194253E1,-3.042000055E0,2.500950098E0,7.720950603E0
3.651187413E1,-2.829000235E0,2.511000156E0,7.821000576E0
3.653180703E1,-2.640000105E0,2.566050053E0,7.654050350E0
3.655173957E1,-2.709000111E0,2.749950171E0,7.383000374E0
3.657166699E1,-2.520000219E0,2.881950140E0,7.335000515E0
3.659159593E1,-2.272950172E0,2.956050158E0,7.462050438E0
3.661153040E1,-2.314050198E0,3.076050043E0,8.050950050E0
3.663146325E1,-2.398050070E0,2.977950096E0,8.928000450E0
3.665139568E1,-2.692050219E0,2.889000177E0,9.787050247E0
3.667132824E1,-2.829000235E0,2.722050190E0,1.020600033E1
3.669126231E1,-3.010950089E0,2.817000151E0,1.004295063E1
3.671119594E1,-3.079950094E0,3.090000153E0,1.029495049E1
3.673112837E1,-3.094950199E0,3.247950077E0,1.110405064E1
3.675106116E1,-2.944050074E0,3.295950174E0,1.203300095E1
3.677100006E1,-2.053050041E0,2.758050203E0,1.325895023E1
3.679093717E1,-1.524000049E0,2.595000029E0,1.455195045E1
3.681087856E1,-1.645950079E0,2.049000025E0,1.597605038E1
3.683081870E1,-2.355000019E0,1.422000051E0,1.592805099E1
3.685076009E1,-2.611050129E0,1.086000085E0,1.409700108E1
3.687070110E1,-2.428950071E0,1.402050018E0,1.161900043E1
3.689063860E1,-2.034000158E0,1.729950070E0,1.005795002E1
3.691057712E1,-1.857000113E0,2.026950121E0,9.463950157E0
3.693051757E1,-2.082000017E0,2.037000179E0,9.459000587E0
3.695045745E1,-2.494050026E0,1.963050127E0,8.761950493E0
3.697040042E1,-2.628000021E0,1.797000051E0,7.893000603E0
3.699034246E1,-2.479050159E0,1.611000061E0,7.624950409E0
3.701028139E1,-2.671050072E0,1.510050058E0,7.419000149E0
3.703022124E1,-2.794950247E0,1.443000078E0,7.234950542E0
3.705015876E1,-2.548950195E0,1.512000084E0,8.544000626E0
3.707009695E1,-3.400950193E0,2.065950155E0,9.160050392E0
3.710650346E1,-2.167950153E0,2.479950190E0,8.916000366E0
3.712643850E1,-1.648050070E0,2.140050173E0,8.833950043E0
3.714637753E1,-1.620000124E0,2.370000124E0,9.454050064E0
3.716631537E1,-1.689000130E0,2.592000008E0,9.988050461E0
3.718625829E1,-1.444950104E0,2.628000021E0,9.916050911E0
3.720619970E1,-1.183950067E0,2.680950165E0,9.499950409E0
3.722614199E1,-7.750500441E-1,2.716950178E0,9.454050064E0
3.724608402E1,-8.370000124E-1,2.712000132E0,9.523950577E0
3.726602030E1,-1.249050021E0,2.580000162E0,9.550050735E0
3.728595826E1,-1.222050071E0,2.430000067E0,9.334950447E0
3.730589412E1,-1.171950102E0,2.464950085E0,8.829000473E0
3.732583058E1,-1.234050035E0,2.607000113E0,8.671050072E0
3.734577027E1,-1.239000082E0,2.755050182E0,9.169050217E0
3.736570899E1,-9.880500436E-1,2.796000242E0,9.598050117E0
3.738563987E1,-7.980000377E-1,2.857950211E0,9.775050163E0
3.740557306E1,-5.370000005E-1,2.686050177E0,9.901950836E0
3.742551004E1,-5.950500369E-1,2.769000053E0,9.982950211E0
3.744544590E1,-8.320500255E-1,2.832000017E0,9.912000656E0
3.746537472E1,-7.939500213E-1,2.679000139E0,9.531000137E0
3.748530560E1,-9.160500169E-1,2.724000216E0,9.058950424E0
3.750523711E1,-9.850500226E-1,2.824950218E0,8.748000145E0
3.752516844E1,-1.054949999E0,2.848950148E0,8.628000259E0
3.754509925E1,-1.057050109E0,2.880000114E0,8.692950249E0
3.756503021E1,-9.250500202E-1,2.755050182E0,8.977950096E0
3.758496097E1,-7.480500340E-1,2.676000118E0,9.294000626E0
3.760489177E1,-7.240500450E-1,2.632950068E0,9.052050591E0
3.762482254E1,-8.419500589E-1,2.728950024E0,8.608950615E0
3.764475332E1,-7.579500079E-1,2.805000067E0,8.467950821E0
3.766467961E1,-3.289500177E-1,2.683050156E0,8.374050140E0
3.768460723E1,-2.880000174E-1,2.680950165E0,8.452950478E0
3.770453528E1,-3.240000010E-1,2.530050039E0,8.358000755E0
3.772446321E1,-3.990000188E-1,2.263950109E0,7.896000385E0
3.774440004E1,-7.360500097E-1,2.350050211E0,7.423950195E0
3.776433428E1,-8.800500631E-1,2.485050201E0,7.264050484E0
3.778426638E1,-7.050000429E-1,2.463000059E0,7.213050365E0
3.780419915E1,-5.659500360E-1,2.455950022E0,7.177050114E0
3.782412867E1,-4.849500358E-1,2.407950163E0,7.168050289E0
3.784405914E1,-4.990500212E-1,2.379000187E0,7.170000553E0
3.786398720E1,-5.419500470E-1,2.431950092E0,7.165050507E0
3.788391597E1,-4.819500148E-1,2.485050201E0,7.330950260E0
3.790383733E1,-4.579500258E-1,2.530050039E0,7.570050240E0
3.792376088E1,-4.900500178E-1,2.623050213E0,8.068050385E0
3.794368464E1,-6.070500016E-1,2.512950182E0,9.081000328E0
3.796360834E1,-6.790500283E-1,2.242950201E0,1.054605007E1
3.798353233E1,-1.021050096E0,2.218950033E0,1.159995079E1
3.800345625E1,-1.443000078E0,2.307000160E0,1.209300041E1
3.802338315E1,-1.207950115E0,2.358000040E0,1.287795067E1
3.804330918E1,-2.050500065E-1,2.350050211E0,1.401495075E1
3.806322743E1,4.669500291E-1,2.443950176E0,1.494705105E1
3.808314796E1,5.530500412E-1,2.242950201E0,1.526505089E1
3.810307289E1,4.459500313E-1,2.065950155E0,1.525800037E1
3.812299655E1,4.789500237E-1,1.975050092E0,1.461405087E1
3.814292229E1,5.100000501E-1,1.929000139E0,1.341000080E1
3.816284741E1,4.699500203E-1,1.930950046E0,1.192005062E1
3.818277478E1,2.040000111E-1,2.169000149E0,1.076595020E1
3.820270149E1,5.805000290E-2,2.185050011E0,9.958950043E0
3.822262596E1,-1.399500072E-1,1.969950080E0,8.820000648E0
3.824255109E1,-4.630500078E-1,1.969950080E0,7.618050575E0
3.826247663E1,-7.909500599E-1,1.942950130E0,6.634050369E0
3.828240206E1,-1.141050100E0,1.975050092E0,6.342000484E0
3.830233289E1,-1.359000087E0,1.872000098E0,6.946950436E0
3.832226214E1,-1.390050054E0,1.591950059E0,7.801950455E0
3.834218899E1,-1.408950090E0,1.267950058E0,8.389050484E0
3.836211654E1,-1.363950014E0,1.042950034E0,8.566050529E0
3.838204340E1,-1.183950067E0,9.589500427E-1,8.323950768E0
3.840197046E1,-8.770500422E-1,1.110000014E0,7.812000275E0
3.842189651E1,-5.539500117E-1,1.303950071E0,7.081950188E0
3.844182282E1,-2.530499995E-1,1.444950104E0,6.643050194E0
3.846175220E1,3.600000218E-2,1.405050039E0,6.520950317E0
3.848168068E1,7.905000448E-2,1.306950092E0,6.526050091E0
3.850161418E1,-1.260000020E-1,1.267950058E0,6.736950397E0
3.852154621E1,-1.660500020E-1,1.177050114E0,6.937950134E0
3.854147929E1,-2.359500080E-1,1.141050100E0,7.006950378E0
3.856141206E1,-3.120000064E-1,1.210950017E0,7.279950142E0
3.858134356E1,-4.230000079E-1,1.321050048E0,8.086950302E0
3.860127544E1,-6.690000296E-1,1.480950117E0,9.141000748E0
3.862120764E1,-9.180000424E-1,1.681950092E0,1.040700054E1
3.864113975E1,-8.820000291E-1,1.765950084E0,1.192995071E1
3.866107587E1,-7.720500231E-1,1.855050087E0,1.355595112E1
3.868101082E1,-3.319500089E-1,1.528950095E0,1.480995083E1
3.870094068E1,1.695000008E-2,1.192050099E0,1.469100094E1
3.872087204E1,-7.500000298E-2,1.362000108E0,1.368495083E1
3.874079873E1,2.880000174E-1,1.575000048E0,1.388895035E1
3.876072680E1,5.580000281E-1,1.647000074E0,1.568895054E1
3.878065509E1,4.260000288E-1,9.910500646E-1,1.729995155E1
3.880058332E1,1.099500060E-1,4.849500358E-1,1.672305107E1
3.882051595E1,-1.159500033E-1,5.839500427E-1,1.453995037E1
3.884044731E1,-1.305000018E-2,1.174950004E0,1.177005100E1
3.886037981E1,4.650000334E-1,1.552950025E0,9.382050514E0
3.888031198E1,6.660000086E-1,1.957950115E0,8.056050301E0
3.890025040E1,7.260000110E-1,2.130000114E0,7.801950455E0
3.892018699E1,5.370000005E-1,1.888050079E0,7.981950283E0
3.894011803E1,9.105000645E-2,1.528950095E0,8.212050438E0
3.896005069E1,-3.790500164E-1,1.275000095E0,8.145000458E0
3.897998798E1,-5.710500479E-1,1.030950069E0,7.891050339E0
3.899992392E1,-5.329500437E-1,8.710500598E-1,7.431000233E0
3.901986953E1,-5.089499950E-1,9.310500622E-1,6.901950359E0
3.903981230E1,-4.270500243E-1,1.120050073E0,6.366000175E0
3.905975159E1,-2.790000141E-1,1.318950057E0,6.222000122E0
3.907969190E1,-2.209500074E-1,1.479000092E0,6.343950272E0
3.909962846E1,-3.649500310E-1,1.486050129E0,6.727050304E0
3.911956613E1,-5.539500117E-1,1.263000011E0,7.170000553E0
3.913948953E1,-7.819500566E-1,1.017000079E0,7.237050533E0
3.915941712E1,-1.131000042E0,9.120000601E-1,6.829950333E0
3.917933550E1,-1.567050099E0,1.090950012E0,6.330000401E0
3.919925658E1,-1.798950076E0,1.369050026E0,6.232050419E0
3.921918020E1,-1.615050077E0,1.395000100E0,6.720000267E0
3.923910306E1,-1.123950005E0,1.455000043E0,7.809000492E0
3.925903225E1,-7.770000100E-1,1.492950082E0,9.160050392E0
3.927895959E1,-2.929500043E-1,1.531950116E0,1.082595062E1
3.929889220E1,3.640500307E-1,1.558050036E0,1.267905045E1
3.931882328E1,7.740000486E-1,1.546050072E0,1.422105026E1
3.933874661E1,6.109500527E-1,1.663050056E0,1.496400070E1
3.935867220E1,3.070500195E-1,1.515000105E0,1.492800045E1
3.937859330E1,1.530000120E-1,1.519950032E0,1.387200069E1
3.939851569E1,4.480500221E-1,1.750050068E0,1.248300076E1
3.941843619E1,9.529500604E-1,2.113049984E0,1.231305027E1
3.943835724E1,1.366950035E0,2.082000017E0,1.363500023E1
3.945828264E1,1.285950065E0,1.495950103E0,1.525995064E1
3.947820677E1,8.550000191E-1,7.579500079E-1,1.562400055E1
3.949813706E1,3.310500085E-1,4.639500082E-1,1.439595032E1
3.951806555E1,-1.605000161E-2,6.000000238E-1,1.212900066E1
3.953799576E1,-2.430000156E-1,9.709500670E-1,9.877950668E0
3.955792547E1,-2.209500074E-1,1.270950079E0,8.152050018E0
3.957785195E1,-2.500500083E-1,1.426050067E0,6.949950218E0
3.959777938E1,-4.579500258E-1,1.594050050E0,6.102000237E0
3.961770418E1,-8.820000291E-1,1.776000142E0,5.752950191E0
3.963762975E1,-1.086000085E0,1.873950124E0,5.947050095E0
3.965755695E1,-1.126049995E0,1.762050033E0,6.724950314E0
3.967748368E1,-9.730500579E-1,1.644000053E0,7.792950153E0
3.969741528E1,-8.629500270E-1,1.579950094E0,8.671050072E0
3.971734545E1,-7.819500566E-1,1.647000074E0,9.009000778E0
3.973727037E1,-7.390500307E-1,1.603050113E0,8.899050713E0
3.975719683E1,-8.659500480E-1,1.393050075E0,8.559000015E0
3.977712946E1,-1.204950094E0,1.345050097E0,8.298000336E0
3.979706029E1,-1.275000095E0,1.275000095E0,7.915050507E0
3.981698650E1,-1.203000069E0,1.318950057E0,7.591950417E0
3.983691406E1,-1.240950108E0,1.450050116E0,7.531950474E0
3.985683888E1,-1.234050035E0,1.647000074E0,7.623000145E0
3.987676451E1,-1.143000007E0,1.807050109E0,7.785000324E0
3.989668646E1,-1.059000015E0,1.942950130E0,8.190000534E0
3.991660949E1,-1.039950013E0,2.068050146E0,8.509050369E0
3.993653524E1,-1.155000091E0,2.154000044E0,8.674050331E0
3.995646019E1,-1.204950094E0,2.269050121E0,9.102000237E0
3.997638711E1,-1.162050009E0,2.548950195E0,9.925950050E0
3.999631344E1,-8.989500403E-1,2.596950054E0,1.108200073E1
4.001623707E1,-6.280500293E-1,2.542050123E0,1.244700050E1
4.003616150E1,-4.060500264E-1,2.461050034E0,1.339305019E1
4.005608539E1,-9.900000691E-2,2.302950144E0,1.401495075E1
4.007600943E1,1.750500053E-1,1.999050140E0,1.396500111E1
4.009592801E1,1.390500069E-1,1.876050115E0,1.278705025E1
4.011584820E1,-1.305000018E-2,2.046000004E0,1.129095078E1
4.013577722E1,9.405000508E-2,2.257050037E0,1.042395020E1
4.015570366E1,3.229500055E-1,2.236050129E0,1.061595058E1
4.017563658E1,8.239500523E-1,1.816950083E0,1.165905094E1
4.019556759E1,1.185000062E0,1.291950107E0,1.225995064E1
4.021549941E1,1.075049996E0,1.165050030E0,1.215495014E1
4.023543098E1,9.000000358E-1,1.326000094E0,1.147305012E1
4.025536003E1,8.500500321E-1,1.522050023E0,1.041405010E1
4.027528982E1,8.310000300E-1,1.752000093E0,9.421050072E0
4.029522324E1,7.140000463E-1,1.920000076E0,8.578050613E0
4.031515560E1,5.820000172E-1,2.001000166E0,7.975050449E0
4.033508289E1,5.130000114E-1,1.993950129E0,7.639050484E0
4.035501167E1,4.810500145E-1,1.945950150E0,7.510050297E0
4.037494278E1,3.949500322E-1,1.869000077E0,7.419000149E0
4.039487321E1,1.560000032E-1,1.795050144E0,7.267950535E0
4.041480225E1,4.305000231E-2,1.678050041E0,7.078950405E0
4.043473169E1,-6.105000153E-2,1.648950100E0,6.757950306E0
4.045465886E1,-1.740000099E-1,1.671000123E0,6.568950176E0
4.047458669E1,-1.810500026E-1,1.600950122E0,6.679050446E0
4.049451652E1,-1.930500120E-1,1.539000034E0,7.162950516E0
4.051444577E1,-1.930500120E-1,1.443000078E0,7.828950405E0
4.053437483E1,-2.190000117E-1,1.291950107E0,8.237999916E0
4.055430394E1,-2.599500120E-1,1.290000081E0,8.403000832E0
4.057423173E1,-1.069500074E-1,1.278000116E0,8.194950104E0
4.059415992E1,2.895000204E-2,1.459950089E0,7.872000217E0
4.061408864E1,1.920000017E-1,1.776000142E0,7.960050583E0
4.063401722E1,3.469500244E-1,2.020050049E0,8.611950874E0
4.065394490E1,6.370500326E-1,2.185050011E0,9.640950203E0
4.067387284E1,1.477950096E0,2.013000011E0,1.092900085E1
4.069380155E1,2.494950056E0,1.702050090E0,1.241805077E1
4.071373005E1,2.635950089E0,1.785000086E0,1.367100048E1
4.073366301E1,2.032950163E0,2.116050005E0,1.435305023E1
4.075359467E1,1.540050030E0,2.169000149E0,1.384995079E1
4.077352817E1,1.393950105E0,2.092050076E0,1.188705063E1
4.079346113E1,1.195050001E0,2.446050167E0,9.904050827E0
4.081338741E1,8.530500531E-1,2.652000189E0,8.614050865E0
4.083331565E1,2.850000262E-1,3.295950174E0,8.554050446E0
4.085324128E1,4.120500088E-1,3.325050116E0,1.037805080E1
4.087316766E1,1.180950046E0,2.461050034E0,1.338105106E1
4.089309559E1,1.233000040E0,1.339950085E0,1.638795090E1
4.091302306E1,5.340000391E-1,6.700500250E-1,1.618004990E1
4.093294935E1,-2.170500159E-1,7.870500088E-1,1.296405029E1
4.095287599E1,-3.289500177E-1,1.161000013E0,9.337050438E0
4.097280763E1,-1.210500076E-1,1.563000083E0,6.769950390E0
4.099273782E1,-1.350000054E-1,2.058000088E0,5.560950279E0
4.101267013E1,-2.689500153E-1,2.269050121E0,5.410050392E0
4.103260182E1,-4.819500148E-1,2.206950188E0,6.049950123E0
4.105253060E1,-7.510500550E-1,2.128050089E0,7.242000580E0
4.107246022E1,-7.099500299E-1,1.896000147E0,8.068050385E0
4.109239210E1,-5.400000215E-1,1.680000067E0,8.227950096E0
4.111232331E1,-6.310500503E-1,1.716000080E0,7.881000519E0
4.113225059E1,-6.930000186E-1,1.668000102E0,7.338000298E0
4.115217902E1,-6.960000396E-1,1.857000113E0,7.120050430E0
4.117210699E1,-7.410000563E-1,2.002950191E0,7.516950130E0
4.119203509E1,-7.290000319E-1,1.987050056E0,8.134950638E0
4.121196161E1,-4.750500321E-1,2.106000185E0,8.731050491E0
4.123188857E1,-3.529500067E-1,2.128050089E0,8.752950668E0
4.125181283E1,-9.900000691E-1,2.608950138E0,8.905950546E0
4.127173788E1,-1.363950014E0,3.085950136E0,9.391950607E0
4.129166421E1,-1.179000020E0,3.102000237E0,9.876000404E0
4.131159017E1,-1.275000095E0,3.016050100E0,1.044300079E1
4.133151308E1,-1.327950120E0,2.985000134E0,1.114905071E1
4.135143688E1,-1.114950061E0,2.929950237E0,1.164705086E1
4.137135570E1,-1.261050105E0,3.250950098E0,1.173405075E1
4.139127597E1,-1.294050097E0,3.555000067E0,1.137900066E1
4.141119503E1,-9.210000634E-1,3.535950184E0,1.114500046E1
4.143111444E1,-6.600000262E-1,3.610050201E0,1.182495022E1
4.145104158E1,-5.830500126E-1,3.748950243E0,1.287795067E1
4.147096645E1,-3.150000274E-1,3.253050089E0,1.329495049E1
4.149090073E1,-6.570000052E-1,2.973000050E0,1.254495049E1
4.151083227E1,-8.940000534E-1,2.916000128E0,1.109400082E1
4.153075808E1,-6.979500055E-1,2.947050095E0,9.379950523E0
4.155068557E1,-5.710500479E-1,3.220050097E0,8.374050140E0
4.157060736E1,-7.309500575E-1,3.663000107E0,8.110950470E0
