"Time (s)","Acceleration x (m/s^2)","Acceleration y (m/s^2)","Acceleration z (m/s^2)"
5.031635000E-3,-3.669393539E0,4.733003139E0,6.204588890E0
2.472559400E-2,-3.489931822E0,5.761917114E0,6.813562393E0
4.441944800E-2,-2.335394859E0,6.375676155E0,7.261020184E0
6.411340600E-2,-1.708475351E0,6.344569206E0,7.196413994E0
8.380736400E-2,-1.848455548E0,5.663811207E0,7.094718933E0
1.035012190E-1,-2.126022816E0,4.961517811E0,7.401000500E0
1.231951770E-1,-2.104487419E0,4.712664127E0,7.775477409E0
1.428890310E-1,-1.968096614E0,4.963910580E0,8.395217896E0
1.625829890E-1,-1.454836130E0,5.402993679E0,8.529216766E0
1.822769480E-1,-9.200403094E-1,5.670989513E0,8.380861282E0
2.019708020E-1,-6.233302951E-1,5.095515728E0,8.322237015E0
2.216647600E-1,-1.156929731E0,4.320241451E0,8.666803360E0
2.413586140E-1,-2.196611166E0,4.085744858E0,9.087940216E0
2.610525730E-1,-2.596212626E0,4.463810444E0,8.781659126E0
2.807464270E-1,-2.080559254E0,5.070391178E0,7.916653633E0
3.004403850E-1,-1.485942841E0,4.875376225E0,7.737192154E0
3.201343440E-1,-1.366301775E0,3.806980848E0,8.128418922E0
3.398281980E-1,-1.550549030E0,2.748156786E0,8.616554260E0
3.595221560E-1,-1.491924882E0,2.074577332E0,8.989834785E0
3.792161140E-1,-1.237089276E0,1.715653777E0,9.311669350E0
3.989099690E-1,-1.343569875E0,1.465603828E0,9.376275063E0
4.186038230E-1,-2.411965132E0,8.446664214E-1,9.347561836E0
4.382977810E-1,-2.937189817E0,2.919243574E-1,9.688538551E0
4.579916350E-1,-1.879562140E0,-9.571290761E-2,1.033340454E1
4.776855940E-1,-1.314856052E0,-6.101697683E-2,1.160877895E1
4.973794480E-1,-7.836494446E-1,-8.554341197E-1,1.101775169E1
5.170734060E-1,-9.308080077E-1,-4.833501875E-1,1.069830990E1
5.367672600E-1,-1.578066587E0,4.642075896E-1,1.003310490E1
5.564612190E-1,-2.673979282E0,8.781659007E-1,9.407382011E0
5.761550730E-1,-2.987439156E0,8.051848412E-1,8.819944382E0
5.958490310E-1,-2.256431818E0,1.148554832E-1,8.853444099E0
6.155428850E-1,-5.898307562E-1,9.571290612E-1,9.768698692E0
6.352368440E-1,6.556333899E-1,1.753939033E0,1.206221867E1
6.549306980E-1,2.037488461E0,9.200403094E-1,1.050090218E1
6.746245520E-1,2.891726255E0,8.769695163E-1,7.856832981E0
6.943185100E-1,2.909672260E0,6.975077987E-1,6.888936520E0
7.140123640E-1,1.824527264E0,-1.076770201E-1,8.007580757E0
7.337063230E-1,-9.451649338E-2,-2.165504545E-1,8.812766075E0
7.534001770E-1,-7.824530005E-1,9.571290575E-3,7.381857872E0
7.730941350E-1,-1.758724689E0,1.579262912E-1,6.973881721E0
7.927879890E-1,-1.825723648E0,2.464607358E-1,6.999006271E0
8.124818440E-1,-1.215553880E0,6.161518097E-1,6.647261143E0
8.321758020E-1,-4.701896608E-1,1.196411371E0,6.193821430E0
8.518696560E-1,-4.749752879E-1,1.240678549E0,6.491727829E0
8.715636140E-1,-6.747759581E-1,9.248259664E-1,6.330212116E0
8.912574690E-1,-9.176474810E-1,1.001396298E0,6.991827965E0
9.109514270E-1,-7.357929349E-1,1.634297848E0,8.622536659E0
9.306452810E-1,-1.495514214E-1,1.575673699E0,9.227920532E0
9.503391350E-1,-2.679961324E-1,1.390229940E0,8.827122688E0
9.700330940E-1,-1.010967612E0,1.507478237E0,8.535198212E0
9.897269480E-1,-1.756331801E0,1.879562140E0,9.585647583E0
1.009420906E0,-1.519442320E0,2.354537487E0,1.157767200E1
1.029114760E0,-1.838884234E0,2.849851847E0,1.131565857E1
1.048808614E0,-3.964907169E0,4.581058979E0,9.621540070E0
1.068502573E0,-5.139782906E0,6.805187702E0,8.737391472E0
1.088196427E0,-3.600001574E0,7.287341595E0,9.894321442E0
1.107890281E0,-2.645265341E0,5.196014404E0,1.440718555E1
1.127584239E0,-2.916850805E0,2.879761934E0,1.758126450E1
1.147278094E0,-3.129812002E0,1.713261008E0,1.633819389E1
1.166972052E0,-3.172882795E0,1.356730461E0,1.176072311E1
1.186665906E0,-1.147358418E0,2.154736757E0,6.334998131E0
1.206359760E0,2.548356056E-1,2.287538528E0,4.997410297E0
1.226053719E0,-1.757528186E0,2.020738840E0,7.174878597E0
1.245747573E0,-2.542374134E0,2.976671457E0,8.696713448E0
1.265441427E0,-1.617548108E0,3.690928936E0,5.642275810E0
1.285135385E0,-8.015955687E-1,4.427918434E0,4.749752998E0
1.304829239E0,5.048855543E-1,3.923032761E0,3.421736479E0
1.324523094E0,1.264606714E0,3.458825111E0,4.084548473E0
1.344217052E0,1.086341500E0,2.935993433E0,6.673582554E0
1.363910906E0,1.168893814E0,1.950150490E0,8.322237015E0
1.383604760E0,1.129412293E0,1.954936147E0,8.283951759E0
1.403298719E0,1.278963685E0,2.329412937E0,1.029153061E1
1.422992573E0,2.160718918E0,3.072384357E0,8.146365166E0
1.442686427E0,2.647658348E0,3.623929977E0,8.191828728E0
1.462380385E0,2.557927370E0,3.434896946E0,8.361719131E0
1.482074239E0,1.972882271E0,3.359523058E0,9.311669350E0
1.501768094E0,1.397408366E0,3.187239647E0,9.477970123E0
1.521461948E0,9.355936646E-1,3.884747505E0,8.487341881E0
1.541155906E0,-7.417750359E-2,5.371886730E0,5.854040623E0
1.560849760E0,-1.777867198E0,6.248856544E0,5.546562672E0
1.580543614E0,-1.558923960E0,5.229514122E0,5.748756409E0
1.600237469E0,4.618147612E-1,2.270788670E0,9.323633194E0
1.619931427E0,2.882154942E0,-8.554341197E-1,1.315693569E1
1.639625281E0,4.740181446E0,-2.275574446E0,1.631785393E1
1.659319135E0,7.081558704E0,-7.334001660E-1,1.870708656E1
1.679013094E0,9.193224907E0,1.798206210E0,1.806461525E1
1.698706948E0,8.403593063E0,3.127419233E0,1.510588932E1
1.718400802E0,5.495117188E0,2.898904562E0,1.226202011E1
1.738094760E0,2.726621389E0,2.435893536E0,9.854840279E0
1.757788614E0,1.233500123E0,2.169093609E0,7.533802032E0
1.777482469E0,8.291130662E-1,2.470589399E0,6.118447304E0
1.797176323E0,7.848458290E-1,2.946761131E0,5.732006550E0
1.816870281E0,6.089733839E-1,2.998206854E0,5.742774487E0
1.836564135E0,9.774680734E-1,2.354537487E0,5.898307800E0
1.856257989E0,1.344766378E0,2.031506538E0,5.645864964E0
1.875951948E0,1.426122308E0,2.207378864E0,5.200799942E0
1.895645802E0,1.707278967E0,3.128615618E0,5.069194794E0
1.915339656E0,1.755135417E0,4.122833252E0,5.265406132E0
1.935033510E0,1.710868239E0,4.421936035E0,5.267798901E0
1.954727469E0,1.837687731E0,4.783252239E0,6.043073654E0
1.974421323E0,2.268395901E0,4.985445976E0,8.147561073E0
1.994115177E0,3.007778168E0,4.486542225E0,9.214759827E0
2.013809031E0,3.129812002E0,3.762713671E0,9.586843491E0
2.033502989E0,2.937189817E0,3.153740168E0,1.044467068E1
2.053196844E0,1.245464206E0,4.053441525E0,1.130369377E1
2.072890698E0,-2.237289101E-1,7.751548767E0,9.619147301E0
2.092584552E0,1.774278045E0,7.196413994E0,1.042672443E1
2.112278406E0,3.470789194E0,4.887340069E0,1.161595726E1
2.131972364E0,3.321237803E0,3.779463291E0,1.278485107E1
2.151666219E0,2.517249346E0,3.273381472E0,1.224287701E1
2.171360073E0,1.484746456E0,3.885943890E0,1.087178993E1
2.191053927E0,4.809573591E-1,5.234299660E0,8.554341316E0
2.210747885E0,7.884350419E-1,5.619544029E0,7.018148899E0
2.230441739E0,2.068595171E0,4.961517811E0,6.982256413E0
2.250135594E0,2.104487419E0,4.473381996E0,7.805387497E0
2.269829448E0,1.630708575E0,3.786641836E0,8.254041672E0
2.289523302E0,1.613958836E0,2.879761934E0,7.678567886E0
2.309217260E0,1.842473388E0,2.182254314E0,6.776473522E0
2.328911114E0,1.469193101E0,1.905883193E0,6.266802311E0
2.348604969E0,7.214360237E-1,1.813759565E0,6.143572330E0
2.368298823E0,7.633104324E-1,1.872383714E0,6.428318024E0
2.387992677E0,1.391426325E0,1.841277003E0,5.946164131E0
2.407686635E0,1.707278967E0,2.426322222E0,5.623133183E0
2.427380385E0,1.780260086E0,3.497110367E0,5.362315655E0
2.447074344E0,1.384247899E0,3.872783422E0,5.722435474E0
2.466768198E0,8.590233326E-1,3.229114056E0,7.246663570E0
2.486462156E0,1.028913707E-1,3.121437073E0,8.547162056E0
2.506156010E0,-8.757730722E-1,3.891926050E0,9.966106415E0
2.525849864E0,-3.431307554E0,5.487938881E0,9.743574142E0
2.545543719E0,-7.940581799E0,8.386843681E0,4.919643402E0
2.565237573E0,-4.919643402E0,7.057630539E0,1.718046665E0
2.584931531E0,1.751546144E0,3.906282902E0,5.764309883E0
2.604625385E0,5.560919762E0,2.318645239E0,1.221894836E1
2.624319239E0,6.506084919E0,2.561516523E0,1.592543125E1
2.644013094E0,7.963313580E0,4.898108006E0,1.478285789E1
2.663706948E0,9.766305923E0,6.937989235E0,1.285902882E1
2.683400802E0,1.037168980E1,7.963313580E0,1.083470058E1
2.703094760E0,9.128618240E0,7.251449108E0,9.602396965E0
2.722788614E0,7.007380962E0,5.276174068E0,8.999405861E0
2.742482469E0,5.399404526E0,3.522234917E0,8.152346611E0
2.762176323E0,4.785645485E0,3.135794163E0,6.993024349E0
2.781870177E0,4.577469826E0,3.114258766E0,5.545366287E0
2.801564135E0,3.981656790E0,2.729014158E0,3.900300980E0
2.821257989E0,2.799602509E0,2.678765059E0,2.273181438E0
2.840951844E0,1.525424480E0,3.023331404E0,1.170090318E0
2.860645698E0,9.140582681E-1,3.397808075E0,1.410568953E0
2.880339552E0,1.793420553E0,3.836891174E0,3.397808075E0
2.900033406E0,3.024527788E0,3.824927092E0,7.014559746E0
2.919727364E0,3.430111170E0,3.324826956E0,1.034656525E1
2.939421219E0,2.487339020E0,4.201796532E0,9.871589661E0
2.959115073E0,2.263610125E0,6.041877270E0,9.692128181E0
2.978808927E0,3.416950703E0,6.470192432E0,1.314616776E1
2.998502781E0,3.720839262E0,6.570691109E0,1.594696617E1
3.018196635E0,4.058227062E0,5.845665932E0,1.594577026E1
3.037890594E0,4.941178799E0,5.168497086E0,1.284467220E1
3.057584448E0,5.274977684E0,5.227120876E0,1.051525879E1
3.077278198E0,4.683950424E0,5.267798901E0,9.274580956E0
3.096972156E0,3.655036688E0,5.070391178E0,8.212167740E0
3.116666010E0,2.346162558E0,5.029713154E0,6.976274490E0
3.136359864E0,1.217946768E0,4.904089928E0,5.593223095E0
3.156053719E0,3.457628787E-1,4.375276089E0,4.644468784E0
3.175747677E0,-2.057827413E-1,3.931407690E0,4.023531437E0
3.195441531E0,-4.331009090E-1,3.830909014E0,4.284348965E0
3.215135385E0,-5.718846321E-1,3.620340586E0,5.528616905E0
3.234829239E0,-2.967100143E-1,3.339184046E0,7.087540627E0
3.254523094E0,0.000000000E0,3.639483213E0,6.770491600E0
3.274216948E0,6.855437160E-1,4.765306473E0,6.376872540E0
3.293910802E0,1.253839016E0,5.114658356E0,6.512066841E0
3.313604760E0,1.314856052E0,4.805984497E0,7.441678524E0
3.333298614E0,1.590030670E0,4.357329845E0,9.680164337E0
3.352992469E0,2.178664923E0,4.110869408E0,1.085145092E1
3.372686323E0,2.402393818E0,4.719842434E0,9.621540070E0
3.392380177E0,2.957528830E0,5.977271080E0,8.706285477E0
3.412074031E0,2.736192703E0,7.646264553E0,8.894122124E0
3.431767989E0,1.369890928E0,9.306883812E0,8.962317467E0
3.451461844E0,1.275374413E0,9.639486313E0,6.681957245E0
3.471155698E0,1.149751306E0,8.279166222E0,5.776273727E0
3.490849552E0,7.345965505E-1,6.431907177E0,8.805587769E0
3.510543406E0,6.903293133E-1,3.510270834E0,1.338066387E1
3.530237260E0,6.041877270E-1,1.995614052E0,1.326939774E1
3.549931114E0,8.518448472E-1,2.416750908E0,1.148315620E1
3.569624969E0,3.075973511E0,3.464807272E0,1.054995537E1
3.589318927E0,6.526423931E0,4.961517811E0,9.586843491E0
3.609012781E0,8.020741463E0,6.105287075E0,8.402397156E0
3.628706635E0,6.876972198E0,6.327819347E0,7.142575741E0
3.648400489E0,4.856233597E0,5.352744102E0,6.144768715E0
3.668094344E0,3.552145243E0,3.853640795E0,5.526223660E0
3.687788198E0,3.017349243E0,2.885744095E0,5.198407173E0
3.707482052E0,2.958725214E0,2.834298372E0,5.027320385E0
3.727176010E0,3.136990547E0,2.945564747E0,3.966103554E0
3.746869864E0,3.631108284E0,3.426522017E0,2.781656265E0
3.766563719E0,4.046263218E0,4.667200565E0,2.468196630E0
3.786257573E0,4.157529354E0,5.429314613E0,4.115654945E0
3.805951427E0,3.393022537E0,4.737788677E0,6.516852379E0
3.825645281E0,1.990828395E0,3.409772158E0,7.637889862E0
3.845339135E0,7.262216806E-1,2.450250387E0,7.417750359E0
3.865032989E0,-1.040877849E-1,2.419143677E0,7.846065521E0
3.884726844E0,-1.052841991E-1,2.841476917E0,9.337990761E0
3.904420802E0,-7.381857634E-1,4.149154663E0,1.021974564E1
3.924114656E0,-2.464607239E0,7.779066563E0,9.231510162E0
3.943808510E0,-3.661018610E-1,9.591629982E0,5.970092297E0
3.963502364E0,3.767499208E0,8.696713448E0,8.846264839E0
3.983196219E0,5.645864964E0,6.847062111E0,1.393340588E1
4.002890073E0,6.135197163E0,4.194618225E0,1.868315887E1
4.022583927E0,5.236692429E0,1.987239242E0,1.874656868E1
4.042277885E0,3.219542980E0,1.915454507E0,1.483191109E1
4.061971739E0,1.374676585E0,3.471985579E0,8.908478737E0
4.081665594E0,-3.708875179E-1,4.637290478E0,3.993621111E0
4.101359448E0,-2.248056889E0,5.008177757E0,1.844866276E0
4.121053302E0,-3.129812002E0,4.463810444E0,2.796013355E0
4.140747156E0,-2.340180635E0,3.379862070E0,4.539184570E0
4.160441010E0,-1.176072359E0,2.703889608E0,6.075376511E0
4.180134864E0,-2.644068897E-1,2.374876499E0,6.964310169E0
4.199828823E0,1.603191197E-1,2.581855536E0,7.648657799E0
4.219522677E0,3.649054468E-1,2.983849764E0,7.889136314E0
4.239216531E0,1.022931695E0,3.324826956E0,7.697710514E0
4.258910385E0,1.948953986E0,3.725624800E0,6.585047722E0
4.278604239E0,2.775674343E0,5.834897995E0,7.438089371E0
4.298298094E0,3.461217880E0,8.312665939E0,9.284152031E0
4.317991948E0,3.345165968E0,8.590232849E0,9.750752449E0
4.337685802E0,2.775674343E0,7.088737011E0,1.002951622E1
4.357379760E0,1.780260086E0,6.563512325E0,1.033819008E1
4.377073614E0,1.447657704E0,6.011966705E0,9.564111710E0
4.396767469E0,1.677368641E0,4.936393261E0,9.647860527E0
4.416461323E0,2.233700037E0,3.690928936E0,1.197488117E1
4.436155177E0,2.755335331E0,1.999203324E0,1.387358570E1
4.455849031E0,2.714657307E0,9.834501147E-1,1.301695538E1
4.475542989E0,2.610569477E0,1.142572761E0,1.105603695E1
4.495236844E0,2.910868645E0,1.690529227E0,9.064012527E0
4.514930698E0,3.328416348E0,2.195414782E0,8.041080475E0
4.534624552E0,3.396611691E0,2.459821701E0,7.819744587E0
4.554318406E0,3.394218922E0,2.776870728E0,7.232306480E0
4.574012260E0,3.601198196E0,3.219542980E0,6.379265308E0
4.593706219E0,3.954139471E0,3.292523861E0,5.450850010E0
4.613400073E0,3.381058455E0,2.866601467E0,4.646861553E0
4.633093927E0,1.950150490E0,2.196611166E0,4.724628448E0
4.652787781E0,1.115055323E0,1.822134495E0,5.106283665E0
4.672481635E0,1.730010748E0,2.163111687E0,5.979663849E0
4.692175489E0,2.853441000E0,3.004188776E0,7.085147858E0
4.711869344E0,2.760120869E0,3.602394581E0,8.045866013E0
4.731563302E0,2.115255117E0,3.297309637E0,9.098708153E0
4.751257156E0,1.251446247E0,2.082952023E0,9.460023880E0
4.770951010E0,4.881358147E-1,1.858026743E0,9.189635277E0
4.790644864E0,3.984049559E-1,3.497110367E0,8.616554260E0
4.810338719E0,9.798609018E-1,5.133800983E0,8.695517540E0
4.830032677E0,1.749153376E0,6.926024914E0,8.901300430E0
4.849726531E0,1.475175142E0,1.006421185E1,8.178668022E0
4.869420385E0,3.550948858E0,8.782855988E0,6.211767673E0
4.889114239E0,3.494717360E0,5.742774487E0,9.342776299E0
4.908808094E0,2.602194548E0,3.759124279E0,1.344048500E1
4.928501948E0,2.928814888E0,2.574677229E0,1.425165176E1
4.948195906E0,2.328216314E0,2.531606436E0,1.280997562E1
4.967889760E0,6.975077987E-1,3.026920557E0,1.065045357E1
4.987583614E0,-4.989035130E-1,2.931207657E0,8.513663292E0
5.007277469E0,-1.130608678E0,2.423929453E0,6.445067883E0
5.026971323E0,-1.367498159E0,2.251646042E0,6.581458569E0
5.046665281E0,-8.590233326E-1,2.109273195E0,8.831908226E0
5.066359135E0,5.862415582E-2,1.744367719E0,1.028794098E1
5.086052989E0,2.895315289E-1,1.600798368E0,9.505488396E0
5.105746844E0,3.110669553E-1,1.952543259E0,8.225327492E0
5.125440698E0,6.149554253E-1,2.149951220E0,7.692924976E0
5.145134656E0,3.972085714E-1,1.750349760E0,8.553144455E0
5.164828510E0,-9.391828775E-1,2.137987137E0,8.860622406E0
5.184522364E0,-9.702895880E-1,3.495913982E0,8.248059273E0
5.204216219E0,6.149554253E-1,3.208775282E0,6.638886452E0
5.223910177E0,1.129412293E0,2.890529871E0,7.348358154E0
5.243604031E0,9.284151793E-1,3.059223652E0,8.124829292E0
5.263297885E0,9.535398483E-1,3.972085476E0,8.338987350E0
5.282991739E0,9.774680734E-1,6.552744865E0,8.554341316E0
5.302685698E0,2.417947292E0,9.072386742E0,7.233502865E0
5.322379552E0,3.048455954E0,7.664210796E0,1.246421337E1
5.342073406E0,2.013560295E0,4.622933388E0,1.245583820E1
5.361767260E0,1.399801254E0,1.852044702E0,1.595055580E1
5.381461114E0,1.679761529E0,6.149554253E-1,1.657867241E1
5.401155073E0,1.724028707E0,5.383850932E-1,1.290688515E1
5.420848927E0,9.547362328E-1,6.987041831E-1,9.565308571E0
5.440542781E0,3.074777126E-1,1.063609719E0,8.833105087E0
5.460236635E0,2.679961324E-1,1.909472466E0,8.578269005E0
5.479930594E0,4.785645306E-1,2.478964329E0,8.846264839E0
5.499624448E0,2.103291035E0,2.597409010E0,9.674181938E0
5.519318302E0,2.675175667E0,2.130808592E0,9.102297783E0
5.539012156E0,2.293520451E0,1.634297848E0,6.780063152E0
5.558706114E0,6.376872063E-1,1.497906923E0,4.728217602E0
5.578399969E0,-6.376872063E-1,1.341177106E0,3.544966698E0
5.598093823E0,-6.580262184E-1,1.190429211E0,3.797409534E0
5.617787781E0,5.862415433E-1,1.966900229E0,5.659025669E0
5.637481635E0,1.161715388E0,2.422732830E0,7.609176159E0
5.657175489E0,1.502692580E0,2.233700037E0,8.065009117E0
5.676869344E0,1.624726534E0,2.015953064E0,8.099704742E0
5.696563302E0,1.332802176E0,2.548356056E0,8.386843681E0
5.716257156E0,9.439685345E-1,3.053241730E0,8.617751122E0
5.735951010E0,3.684946895E-1,3.187239647E0,8.939585686E0
5.755644864E0,-5.407779217E-1,3.751945972E0,9.798608780E0
5.775338823E0,-3.720839322E-1,4.255635262E0,1.126301575E1
5.795032677E0,5.802595019E-1,4.430311203E0,1.252523041E1
5.814726531E0,1.164108157E0,4.612165451E0,1.298704529E1
5.834420489E0,1.716850281E0,4.777270317E0,1.371565914E1
5.854114344E0,1.819741607E0,4.910071850E0,1.360319710E1
5.873808198E0,1.597209096E0,4.230510235E0,1.271545982E1
5.893502052E0,9.523434043E-1,3.327219963E0,1.188993549E1
5.913196010E0,3.996013701E-1,2.799602509E0,1.087298584E1
5.932889864E0,3.852444589E-1,2.852244616E0,9.795019150E0
5.952583719E0,7.345965505E-1,3.104687452E0,8.801998138E0
5.972277677E0,7.609176040E-1,2.989831924E0,7.612765312E0
5.991971531E0,4.534398913E-1,2.477767944E0,6.764509678E0
6.011665385E0,3.589234054E-1,2.103291035E0,6.993024349E0
6.031359344E0,5.563312769E-1,1.919043779E0,7.527820110E0
6.051053198E0,1.091127157E0,1.551745534E0,7.658228874E0
6.070747052E0,1.295713425E0,1.293320656E0,7.323233604E0
6.090440906E0,1.203589797E0,1.380658627E0,6.915257454E0
6.110134864E0,8.985049129E-1,1.398604870E0,6.124429703E0
6.129828748E0,7.704889178E-1,1.543370605E0,5.452046394E0
6.149522602E0,1.030110121E0,2.015953064E0,5.519045353E0
6.169216560E0,7.525427341E-1,3.034099102E0,7.033702374E0
6.188910414E0,2.979064286E-1,4.058227062E0,8.437092781E0
6.208604268E0,-3.852444589E-1,5.364708424E0,7.194021225E0
6.228298227E0,9.930214286E-2,5.304887772E0,5.163711071E0
6.247992081E0,9.798609018E-1,4.612165451E0,6.630511761E0
6.267685935E0,9.750752449E-1,5.339583874E0,8.915657043E0
6.287379893E0,9.762716293E-1,7.521838188E0,1.095194912E1
6.307073748E0,2.270788670E0,8.616554260E0,1.182293701E1
6.326767602E0,2.971885681E0,7.147361279E0,1.127976608E1
6.346461560E0,1.902294040E0,4.828716278E0,1.201077366E1
6.366155414E0,1.057627559E0,2.721835852E0,1.335434341E1
6.385849373E0,1.219143152E0,2.394019127E0,1.419661713E1
6.405543227E0,1.247856975E0,3.108276606E0,1.350748348E1
6.425237081E0,1.744367719E0,3.769891977E0,1.069232845E1
6.444931039E0,2.394019127E0,4.053441525E0,8.358129501E0
6.464624893E0,2.128415823E0,4.139583111E0,7.875975609E0
6.484318748E0,1.180858016E0,3.806980848E0,8.037490845E0
6.504012706E0,3.098705411E-1,3.117847919E0,8.225327492E0
6.523706560E0,-5.982056726E-3,2.271985054E0,8.216953278E0
6.543400414E0,4.402793646E-1,1.707278967E0,7.678567886E0
6.563094373E0,1.306481123E0,1.664208174E0,5.974878311E0
6.582788227E0,4.354937077E-1,1.812563181E0,4.700700283E0
6.602482185E0,-3.840480447E-1,2.254039049E0,3.742374659E0
6.622176039E0,-5.276173949E-1,2.677568436E0,4.271188259E0
6.641869893E0,1.292124242E-1,2.933600664E0,7.280162811E0
6.661563852E0,1.234696507E0,2.739781857E0,1.047338486E1
6.681257706E0,1.847259045E0,2.068595171E0,9.694520950E0
6.700951560E0,1.639083505E0,2.523231506E0,8.118846893E0
6.720645518E0,1.574477315E0,4.176671982E0,8.977870941E0
6.740339373E0,1.500299811E0,5.233103275E0,1.159442234E1
6.760033331E0,1.118644595E0,5.243870735E0,1.298345566E1
6.779727185E0,2.080559254E0,6.352943897E0,1.118166065E1
6.799421039E0,2.788834810E0,7.975277901E0,1.001276588E1
6.819114998E0,1.950150490E0,7.881958008E0,1.045543861E1
6.838808852E0,1.094716311E0,5.459224701E0,1.066361427E1
6.858502810E0,9.678967595E-1,3.254238844E0,1.008933640E1
6.878196664E0,6.400800347E-1,2.628515720E0,9.905089378E0
6.897890518E0,5.060819983E-1,3.399004459E0,1.076650524E1
6.917584477E0,6.699903607E-1,4.826323509E0,1.052243805E1
6.937278331E0,3.840480447E-1,5.523830891E0,8.866603851E0
6.956972289E0,-3.385843933E-1,5.399404526E0,7.158128738E0
6.976666143E0,-8.123632669E-1,5.052444935E0,6.023931026E0
6.996359998E0,-9.248259664E-1,4.252045631E0,5.392225742E0
7.016053956E0,-1.123430252E0,3.428914785E0,5.362315655E0
7.035747810E0,-1.604387641E0,2.965903759E0,6.110072613E0
7.055441768E0,-1.771885157E0,3.317648649E0,7.878368378E0
7.075135623E0,-6.137589812E-1,4.132404804E0,9.687342644E0
7.094829581E0,8.494520187E-1,4.095315933E0,8.446663857E0
7.114523435E0,6.257231236E-1,3.927818298E0,6.436692715E0
7.134217289E0,-5.383850932E-1,4.273581028E0,7.004988194E0
7.153911248E0,-7.034898400E-1,4.429114819E0,1.038365364E1
7.173605102E0,5.994020700E-1,4.415954113E0,1.230748367E1
7.193299060E0,1.836491346E0,4.815555573E0,1.283390427E1
7.212992914E0,2.227717876E0,5.408975601E0,1.248694515E1
7.232686873E0,1.261017561E0,5.240281582E0,1.189113235E1
7.252380727E0,-5.647061467E-1,4.570291042E0,1.328255844E1
7.272074581E0,-2.449054003E0,3.317648649E0,1.596132374E1
7.291768539E0,-2.997010469E0,2.147558212E0,1.653679657E1
7.311462393E0,-2.665604353E0,2.568695068E0,1.393101311E1
7.331156352E0,-2.251646042E0,4.112065792E0,1.016471100E1
7.350850206E0,-1.439282775E0,5.770291805E0,7.993224144E0
7.370544164E0,-6.544370055E-1,6.594619274E0,8.152346611E0
7.390238018E0,-3.026920557E-1,5.753541946E0,8.171489716E0
7.409931977E0,-4.486542344E-1,4.622933388E0,8.212167740E0
7.429625831E0,-1.782652885E-1,4.267599106E0,8.694320679E0
7.449319789E0,8.733802438E-1,4.630111694E0,8.799605370E0
7.469013643E0,1.495514154E0,4.712664127E0,7.444071293E0
7.488707498E0,9.355936646E-1,4.447061062E0,5.824130535E0
7.508401456E0,1.339980662E-1,4.280759811E0,5.251049519E0
7.528095310E0,-1.196411345E-2,4.727021217E0,6.869793892E0
7.547789268E0,9.631111026E-1,4.715056896E0,8.939585686E0
7.567483123E0,1.856830359E0,4.066602230E0,9.383454323E0
7.587177081E0,7.118647099E-1,3.588037491E0,8.727820396E0
7.606870935E0,-1.122233868E0,3.696911097E0,9.032905579E0
7.626564893E0,-1.904686809E0,3.652643681E0,9.896714211E0
7.646258748E0,-1.813759565E0,3.467200041E0,1.003669453E1
7.665952706E0,-1.999203324E0,3.798605919E0,8.408378601E0
7.685646560E0,-1.807777524E0,4.534399033E0,6.632904530E0
7.705340414E0,-1.576870084E0,5.175675392E0,6.471388817E0
7.725034373E0,-7.884350419E-1,5.363512039E0,8.288737297E0
7.744728227E0,-2.285145670E-1,4.813162804E0,9.544969559E0
7.764422185E0,-1.038485050E0,4.229313850E0,8.583054543E0
7.784116039E0,-2.234896421E0,4.442275047E0,7.418946743E0
7.803809998E0,-3.043670416E0,5.022534847E0,7.844869137E0
7.823503852E0,-2.944368362E0,5.364708424E0,8.867800713E0
7.843197810E0,-2.257628202E0,4.795216560E0,9.013762474E0
7.862891664E0,-2.099701881E0,4.061816216E0,8.344968796E0
7.882585623E0,-2.405983210E0,4.162314892E0,7.708477974E0
7.902279477E0,-2.863012314E0,4.813162804E0,7.205985546E0
7.921973435E0,-2.904886723E0,5.009374142E0,7.347161770E0
7.941667289E0,-2.797209740E0,4.504488468E0,8.343772888E0
7.961361248E0,-2.653640270E0,4.034298897E0,9.810572624E0
7.981055102E0,-2.455035925E0,3.985246181E0,1.048654556E1
8.000749060E0,-2.201396942E0,4.370490551E0,9.058030128E0
8.020442914E0,-1.956132531E0,4.922036171E0,6.717849731E0
8.040136768E0,-1.633101463E0,5.535795212E0,5.404190063E0
8.059830727E0,-1.496710539E0,5.912664890E0,5.856433392E0
8.079524581E0,-1.398604870E0,5.966503143E0,6.479763508E0
8.099218539E0,-1.605584025E0,5.599205017E0,6.451049805E0
8.118912393E0,-2.045863390E0,5.097908497E0,6.439085960E0
8.138606352E0,-2.413161755E0,4.907679081E0,6.728617191E0
8.158300206E0,-2.665604353E0,5.157729149E0,7.202396393E0
8.177994164E0,-2.898904562E0,5.639883041E0,7.362715244E0
8.197688018E0,-2.350948334E0,5.097908497E0,8.263612747E0
8.217381977E0,-1.682154298E0,3.791427374E0,9.674181938E0
8.237075831E0,-1.660618901E0,3.065205812E0,9.287740707E0
8.256769789E0,-1.214357495E0,3.633501291E0,7.905886173E0
8.276463643E0,-5.216353536E-1,4.811966419E0,5.697310925E0
8.296157602E0,-1.818545163E-1,5.898307800E0,8.231309891E0
8.315851456E0,-3.816552162E-1,5.633901119E0,1.101655579E1
8.342824272E0,-4.770092010E0,4.618147850E0,7.557730198E0
8.362518127E0,-3.586841106E0,5.630311489E0,8.148757935E0
8.382211981E0,-2.695514679E0,5.911468506E0,7.743174076E0
8.401905731E0,-1.938186288E0,5.912664890E0,8.191828728E0
8.421599585E0,-1.770688772E0,5.606383324E0,8.988637924E0
8.441293439E0,-2.093719721E0,5.124229908E0,9.262616158E0
8.460987189E0,-2.575873613E0,4.869394302E0,9.186046600E0
8.480681043E0,-2.730210543E0,5.075176716E0,8.633303642E0
8.500374897E0,-2.356930256E0,4.898108006E0,8.127222061E0
8.520068752E0,-2.275574446E0,4.505684853E0,8.029116631E0
8.539762502E0,-2.505285263E0,4.494917393E0,7.831708431E0
8.559456356E0,-2.525624275E0,4.835894585E0,8.017151833E0
8.579150210E0,-2.082952023E0,5.005784988E0,7.920242786E0
8.598843960E0,-1.795813441E0,4.962714195E0,7.767102242E0
8.618537814E0,-1.579262972E0,4.843072891E0,7.441678524E0
8.638231668E0,-1.533799291E0,4.427918434E0,6.370890141E0
8.657925418E0,-1.832902193E0,4.110869408E0,5.776273727E0
8.677619272E0,-2.159522533E0,3.817748547E0,6.082555294E0
8.697313127E0,-1.716850281E0,3.657429457E0,6.734599113E0
8.717006877E0,-1.010967612E0,3.544966698E0,7.663014412E0
8.736700731E0,-7.824530005E-1,3.354737282E0,9.627521515E0
8.756394585E0,-1.208375454E0,2.801995277E0,1.109910774E1
8.776088335E0,-1.647458434E0,1.785045743E0,1.209811115E1
8.795782189E0,-2.153540373E0,7.872386575E-1,1.229312611E1
8.815476043E0,-2.468196630E0,-7.537391037E-2,1.149272728E1
8.835169793E0,-3.282952785E0,-3.361915946E-1,1.105962658E1
8.854863647E0,-3.920639992E0,-5.587241054E-1,9.426525116E0
8.874557502E0,-3.129812002E0,-7.178468257E-2,8.476573944E0
8.894251252E0,-2.347358942E0,4.031906128E-1,1.009531879E1
8.913945106E0,-1.956132531E0,1.148554921E0,1.188634682E1
8.933638960E0,-1.873580098E0,4.307080805E-1,1.050568771E1
8.953332710E0,-2.416750908E0,-8.410771489E-1,3.809373617E0
8.973026564E0,-6.519245148E0,-2.087737799E0,3.756731451E-1
8.992720418E0,-3.695714474E0,-3.816552162E-1,5.542973518E0
9.012414168E0,-3.507878065E0,1.505085468E0,1.579502201E1
9.032108022E0,4.462614357E-1,-1.489532113E0,1.483789349E1
9.051801772E0,5.527420044E-1,-1.031306505E0,1.205504036E1
9.071495627E0,-5.252245665E-1,-2.536391914E-1,1.110867882E1
9.091189481E0,-6.436693072E-1,-7.094719410E-1,9.032905579E0
9.110883231E0,-1.306481123E0,-8.757730722E-1,7.085147858E0
9.130577085E0,-1.721635938E0,-4.378865361E-1,7.124629498E0
9.150270835E0,-1.518245935E0,5.682953596E-1,8.042277336E0
9.169964689E0,-9.906286001E-1,1.247856975E0,8.487341881E0
9.189658543E0,-6.460621357E-1,2.293520451E0,9.926624298E0
9.209352293E0,-7.848458290E-1,1.530210137E0,1.225125217E1
9.229046147E0,-6.173482537E-1,1.216750264E0,9.908679008E0
9.248740002E0,-9.332008362E-1,1.852044702E0,9.169296265E0
9.268433752E0,-1.848455548E0,2.279163599E0,8.504091263E0
9.288127606E0,-2.603390932E0,2.809173822E0,8.141578674E0
9.307821356E0,-2.574677229E0,3.223132133E0,7.951349735E0
9.327515210E0,-2.395215511E0,3.328416348E0,7.951349735E0
9.347209064E0,-2.346162558E0,2.830709219E0,7.586444378E0
9.366902814E0,-2.208575249E0,2.252842426E0,7.168896675E0
9.386596668E0,-1.923829436E0,1.624726534E0,7.170093060E0
9.406290418E0,-1.280160069E0,1.451246977E0,7.205985546E0
9.425984272E0,-5.766702294E-1,1.931007862E0,6.685546398E0
9.445678022E0,-4.115654826E-1,2.593819857E0,5.961717606E0
9.465371877E0,-6.580262184E-1,2.855833769E0,5.710471153E0
9.485065731E0,-1.069591761E0,2.526820660E0,5.735595703E0
9.504759481E0,-1.518245935E0,2.115255117E0,4.920839787E0
9.524453335E0,-1.470389485E0,3.081955671E0,4.170690060E0
9.544147085E0,-1.993221283E0,4.601397991E0,4.753342152E0
9.563840939E0,-2.185843468E0,5.028516769E0,5.678168297E0
9.583534793E0,-2.160718918E0,5.584847927E0,6.762116909E0
9.603228543E0,-1.828116536E0,6.187839508E0,7.738388538E0
9.622922397E0,-1.642672777E0,7.368697166E0,8.817551613E0
9.642616147E0,-7.010970116E-1,9.087940216E0,1.026760197E1
9.662310002E0,1.716850281E0,7.494320393E0,1.190788174E1
9.682003752E0,3.236292601E0,3.677768469E0,1.748914146E1
9.701697606E0,2.974278450E0,4.331009090E-1,2.217548370E1
9.721391356E0,1.917847395E0,-3.038884699E-1,2.257388878E1
9.741085210E0,1.767099500E0,9.583254457E-1,1.864248085E1
9.760779064E0,3.293720484E0,3.119044304E0,1.369173145E1
9.780472814E0,5.203192711E0,4.606183529E0,1.129890823E1
9.800166668E0,6.002395630E0,5.353940487E0,9.996016502E0
9.819860418E0,5.655436516E0,5.548955917E0,8.226524353E0
9.839554272E0,2.804388046E0,4.147958279E0,5.429314613E0
9.859248022E0,6.077769399E-1,3.184846878E0,3.800998688E0
9.878941877E0,-2.979064286E-1,2.830709219E0,3.044866800E0
9.898635627E0,-5.443671346E-1,2.871387243E0,3.657429457E0
9.918329481E0,-2.799602449E-1,3.215953588E0,4.309473515E0
9.938023335E0,1.004985496E-1,3.583251953E0,5.310869694E0
9.957717085E0,1.171286702E0,3.757927895E0,6.817151546E0
9.977410835E0,1.600798368E0,3.564109325E0,7.471588612E0
9.997104689E0,2.061416626E0,3.290131092E0,7.990831375E0
1.001679854E1,2.043470621E0,2.907279491E0,7.657032490E0
1.003649229E1,1.257428288E0,2.797209740E0,6.800402164E0
1.005618615E1,1.359123230E0,2.817548752E0,6.727420807E0
1.007587990E1,1.562513232E0,2.707478762E0,6.879364967E0
1.009557375E1,1.554138303E0,2.901297569E0,6.589833736E0
1.011526750E1,1.611566067E0,2.973082066E0,5.741578102E0
1.013496136E1,1.271785259E0,2.627319336E0,4.856233597E0
1.015465511E1,5.659025311E-1,3.265006542E0,4.182653904E0
1.017434896E1,6.520441771E-1,5.199603558E0,4.055834293E0
1.019404271E1,2.054238319E0,7.773084164E0,4.210171223E0
1.021373656E1,2.815155745E0,1.070907784E1,3.345165968E0
1.023343031E1,2.389233351E0,1.171884918E1,3.871587038E0
1.025312417E1,9.523434043E-1,1.010488987E1,7.156932354E0
1.027281792E1,-1.433300734E0,9.817750931E0,1.073779202E1
1.029251177E1,-8.745766878E-1,1.036810017E1,1.098784161E1
1.031220552E1,8.650053740E-1,9.887143135E0,1.276331615E1
1.033189938E1,1.362712502E0,8.214560509E0,1.689691734E1
1.035159313E1,1.069591761E0,6.104090691E0,1.889492416E1
1.037128698E1,-9.571290761E-2,5.318048477E0,1.815673828E1
1.039098073E1,-9.080761671E-1,6.089733601E0,1.459262848E1
1.041067458E1,-1.087537885E0,6.604190350E0,1.109312534E1
1.043036834E1,-9.559326172E-1,6.665207386E0,8.578269005E0
1.045006219E1,-8.578268886E-1,6.212964058E0,7.220342159E0
1.046975594E1,-7.668996453E-1,5.429314613E0,6.122036934E0
1.048944979E1,-8.015955687E-1,4.716253281E0,5.355136871E0
1.050914354E1,-1.063609719E0,4.045066833E0,4.916054249E0
1.052883740E1,-9.894321561E-1,3.592823267E0,4.992624283E0
1.054853115E1,-9.068797827E-1,3.329612732E0,5.237888813E0
1.056822490E1,-7.142575383E-1,3.404986620E0,5.587240696E0
1.058791875E1,-4.713860750E-1,3.381058455E0,6.622136593E0
1.060761250E1,-1.507478207E-1,3.175275564E0,7.432106972E0
1.062730636E1,3.672982752E-1,3.322434187E0,7.416553974E0
1.064700011E1,6.699903607E-1,3.304488182E0,7.438089371E0
1.066669396E1,6.149554253E-1,2.817548752E0,7.856832981E0
1.068638771E1,2.249253243E-1,2.053041935E0,8.132007599E0
1.070608156E1,-5.790630579E-1,1.609173179E0,7.304090977E0
1.072577531E1,-1.290927768E0,1.957328916E0,5.772684574E0
1.074546917E1,-1.472782373E0,2.854637384E0,4.744967461E0
1.076516292E1,-1.836491346E0,3.799802303E0,4.642076015E0
1.078485677E1,-2.646461725E0,4.298706055E0,5.113461971E0
1.080455052E1,-3.333201885E0,4.137190342E0,5.773880959E0
1.082424427E1,-3.574877024E0,4.419543266E0,6.886543751E0
1.084393813E1,-2.980260611E0,4.838287354E0,7.392625332E0
1.086363188E1,-3.172882795E0,4.876572609E0,8.219346046E0
1.088332573E1,-4.171886444E0,4.695914268E0,8.952746391E0
1.090301948E1,-4.365705013E0,4.725824833E0,9.170493126E0
1.092271334E1,-2.939582586E0,5.642275810E0,1.001874828E1
1.094240709E1,-1.599601984E0,6.844669342E0,1.199402332E1
1.096210094E1,-1.025324464E0,7.310073376E0,1.278365517E1
1.098179469E1,-3.170489967E-1,6.599404812E0,1.198205948E1
1.100148844E1,5.766702294E-1,5.605186939E0,1.204666519E1
1.102118229E1,1.561316729E0,5.111069202E0,1.294876003E1
1.104087604E1,2.103291035E0,5.423332691E0,1.353619766E1
1.106056990E1,2.392822742E0,6.296712875E0,1.288893890E1
1.108026365E1,2.215753794E0,7.133004189E0,1.083470058E1
1.109995750E1,1.677368641E0,7.404589653E0,8.506484032E0
1.111965125E1,1.202393413E0,6.977470875E0,7.643871784E0
1.113934500E1,9.044869542E-1,5.855237007E0,8.671588898E0
1.115903886E1,5.587241054E-1,4.609772682E0,9.601201057E0
1.117873261E1,1.100698411E-1,3.865604877E0,9.174081802E0
1.119842646E1,-4.486542344E-1,3.903890133E0,7.722835064E0
1.121812021E1,-7.704889178E-1,4.252045631E0,6.234499454E0
1.123781406E1,-1.305284739E0,4.320241451E0,5.258227825E0
1.125750781E1,-1.682154298E0,3.791427374E0,5.210371494E0
1.127720156E1,-1.649851203E0,3.755535126E0,5.215157032E0
1.129689542E1,-1.393819213E0,4.252045631E0,5.190032482E0
1.131658917E1,-1.105484009E0,4.810770035E0,5.082355499E0
1.133628302E1,-1.195214868E0,4.996213913E0,4.804787636E0
1.135597677E1,-1.213161111E0,4.699503899E0,4.870590687E0
1.137567063E1,-1.117448211E0,4.418346882E0,5.542973518E0
1.139536438E1,-7.956135273E-1,4.536791801E0,6.029912949E0
1.141505813E1,-3.170489967E-1,4.551148891E0,5.779862881E0
1.143475198E1,1.890329868E-1,4.472185612E0,5.431707382E0
1.145444573E1,3.864408433E-1,4.378865242E0,5.356333256E0
1.147413959E1,1.483550072E-1,4.581058979E0,5.618347645E0
1.149383334E1,-7.286145091E-1,5.675775528E0,6.321837425E0
1.151352719E1,-8.422735929E-1,7.182057381E0,6.458228111E0
1.153322094E1,4.953143001E-1,8.414361000E0,6.611369133E0
1.155291469E1,3.744767308E-1,8.648857117E0,9.489934921E0
1.157260854E1,-4.151547253E-1,8.673981667E0,1.125823021E1
1.159230229E1,-7.334001660E-1,9.369096756E0,1.065882874E1
1.161199615E1,-3.529413342E-1,9.907482147E0,9.605986595E0
1.163168990E1,4.630111754E-1,9.483952522E0,1.015872860E1
1.165138365E1,-2.380858511E-1,7.580461979E0,1.029272652E1
1.167107750E1,-1.143769264E0,5.735595703E0,1.045783138E1
1.169077125E1,-1.768295884E0,4.352544308E0,1.108594704E1
1.171046500E1,-2.556730986E0,3.760320902E0,1.102851963E1
1.173015886E1,-2.390429735E0,3.964907169E0,1.032861900E1
1.174985261E1,-1.166501045E0,4.436293125E0,9.332008362E0
1.176954646E1,-2.871387303E-1,4.801198483E0,8.761320114E0
1.178924021E1,4.785645287E-3,4.380061626E0,8.394021988E0
1.180893396E1,1.722832322E-1,3.524627686E0,8.316255569E0
1.182862781E1,4.187439680E-1,2.800798893E0,8.087740898E0
1.184832156E1,2.727817893E-1,2.452643156E0,7.514659405E0
1.186801542E1,-4.941178858E-1,2.644068956E0,6.510870457E0
1.188770917E1,-1.198804140E0,3.066402197E0,5.638686657E0
1.190740292E1,-1.625923038E0,3.324826956E0,5.496313572E0
1.192709677E1,-1.916650891E0,3.466003656E0,5.813362598E0
1.194679052E1,-1.750349760E0,3.607180119E0,6.345765591E0
1.196648427E1,-1.356730461E0,3.980460405E0,6.790830612E0
1.198617813E1,-7.381857634E-1,4.896911621E0,6.782455921E0
1.200587188E1,-8.973085135E-2,5.942574978E0,6.056233883E0
1.202556563E1,8.374879509E-2,6.494120598E0,5.137390137E0
1.204525948E1,-4.211367965E-1,6.172286034E0,5.554937840E0
1.206495323E1,-9.511470199E-1,5.447260857E0,6.882954121E0
1.208464708E1,-9.595218897E-1,4.679164886E0,7.607979774E0
1.210434084E1,-1.066002488E0,4.214957237E0,7.505088329E0
1.212403458E1,-1.459621787E0,4.439882278E0,6.807580471E0
1.214372844E1,-1.667797327E0,4.858626366E0,6.120840549E0
1.216342219E1,-2.568695068E0,4.995017052E0,7.080362320E0
1.218311594E1,-4.013959885E0,4.412364960E0,1.021256733E1
1.220280979E1,-4.286741734E0,3.747160196E0,1.271785259E1
1.222250354E1,-3.153740168E0,3.253042459E0,1.302174091E1
1.224219729E1,-1.178465128E0,3.537788391E0,1.162911797E1
1.226189104E1,8.841479421E-1,4.164707661E0,1.054516983E1
1.228158490E1,2.361716032E0,4.035495281E0,1.151545906E1
1.230127865E1,2.769692183E0,3.424129248E0,1.390828133E1
1.232097240E1,2.526820660E0,2.920439959E0,1.503171158E1
1.234066625E1,1.578066587E0,2.654836655E0,1.378864002E1
1.236036000E1,6.137589812E-1,2.422732830E0,1.160997581E1
1.238005375E1,-3.828516230E-2,2.317448616E0,9.787840843E0
1.239974761E1,-6.305087805E-1,2.182254314E0,8.870193481E0
1.241944136E1,-1.198804140E0,1.920240164E0,8.658429146E0
1.243913511E1,-1.884347796E0,1.838884234E0,8.112865448E0
1.245882896E1,-2.331805706E0,1.647458434E0,7.178467751E0
1.247852271E1,-2.518445730E0,1.725225091E0,6.605386734E0
1.249821646E1,-2.470589399E0,2.078166485E0,6.501298904E0
1.251791021E1,-2.458625317E0,2.394019127E0,6.349354744E0
1.253760406E1,-2.533999205E0,2.488535643E0,6.273981094E0
1.255729781E1,-2.598605394E0,2.112862349E0,6.625725746E0
1.257699156E1,-2.336591244E0,1.534995675E0,7.990831375E0
1.259668542E1,-1.783849239E0,7.465606928E-1,8.830712318E0
1.261637917E1,-1.597209096E0,1.543370634E-1,9.549755096E0
1.263607292E1,-1.024128079E0,1.806581169E-1,1.037168980E1
1.265576667E1,-2.033899277E-1,5.515456200E-1,1.029751205E1
1.267546052E1,4.821537733E-1,1.227517962E0,9.120243073E0
1.269515427E1,8.027920127E-1,1.980060697E0,7.643871784E0
1.271484802E1,1.233500123E0,3.065205812E0,6.966702938E0
1.273454177E1,1.396211982E0,4.364508629E0,6.592226505E0
1.275423563E1,1.795813441E0,4.840680122E0,6.614958286E0
1.277392938E1,2.378465652E0,4.689932346E0,7.192824841E0
1.279362313E1,2.067398787E0,5.656632900E0,8.117650986E0
1.281331698E1,1.606780410E0,6.436692715E0,8.273183823E0
1.283301073E1,1.295713425E0,6.605386734E0,9.079565048E0
1.285270448E1,4.462614357E-1,6.813562393E0,9.948160172E0
1.287239823E1,1.316052526E-1,5.011766911E0,1.081077290E1
1.289209209E1,-1.109073281E0,3.899104595E0,1.113500023E1
1.291178584E1,-2.617748022E0,3.451646566E0,1.157886887E1
1.293147959E1,-3.012563705E0,3.061616659E0,1.365464211E1
1.295117334E1,-1.341177106E0,3.251846075E0,1.523031616E1
1.297086719E1,1.252642632E0,3.728017569E0,1.459262848E1
1.299056094E1,2.500499725E0,4.470989227E0,1.234337521E1
1.301025469E1,2.209771633E0,4.749752998E0,9.972088814E0
1.302994844E1,1.082752228E0,3.939782381E0,8.378468513E0
1.304964229E1,0.000000000E0,2.640479803E0,7.311269760E0
1.306933604E1,-8.506484628E-1,1.546959877E0,6.142375946E0
1.308902979E1,-9.188438654E-1,1.025324464E0,5.465207100E0
1.310872365E1,-4.689932466E-1,1.217946768E0,5.337191105E0
1.312841740E1,-2.452643216E-1,1.948953986E0,5.460421085E0
1.314811115E1,-2.823530734E-1,2.689532757E0,5.879165173E0
1.316780490E1,-1.316052526E-1,3.144168854E0,6.314659119E0
1.318749875E1,-2.608176768E-1,3.347558975E0,6.208178520E0
1.320719250E1,-6.448656917E-1,3.267399311E0,6.297909260E0
1.322688625E1,-1.020538807E0,3.006581545E0,7.207181931E0
1.324658011E1,-1.269392371E0,2.891726255E0,8.330612183E0
1.326627386E1,-1.153340459E0,3.001796007E0,9.040083885E0
1.328596761E1,-7.274180651E-1,3.136990547E0,9.485149384E0
1.330566146E1,-4.031906128E-1,3.079562664E0,1.001156998E1
1.332535521E1,-6.472585201E-1,3.074777126E0,1.014796066E1
1.334504896E1,-1.016949654E0,3.413361549E0,9.974481583E0
1.336474281E1,-1.511067510E0,4.505684853E0,9.337990761E0
1.338443656E1,-1.710868239E0,5.937789440E0,9.010173798E0
1.340413031E1,-1.293320656E0,6.533602238E0,8.965906143E0
1.342382417E1,-4.725824594E-1,5.083551884E0,9.136993408E0
1.344351792E1,7.417750359E-2,2.742174864E0,1.100339508E1
1.346321167E1,8.841479421E-1,1.807777524E0,1.363310719E1
1.348290552E1,2.248056889E0,3.083152056E0,1.442872047E1
1.350259927E1,4.216153622E0,4.541577339E0,1.376710510E1
1.352229313E1,5.728417397E0,4.971088886E0,1.340937805E1
1.354198688E1,5.807380676E0,4.378865242E0,1.303849030E1
1.356168063E1,4.104887009E0,3.401397467E0,1.223928738E1
1.358137448E1,2.303091764E0,2.244467735E0,1.143051338E1
1.360106823E1,1.859223247E0,1.885544300E0,1.063729286E1
1.362076208E1,2.252842426E0,2.099701881E0,9.382257462E0
1.364045584E1,2.469393015E0,2.120040894E0,7.745566845E0
1.366014959E1,2.044667006E0,1.936989903E0,6.515655994E0
1.367984344E1,1.024128079E0,1.607976794E0,5.363512039E0
1.369953719E1,2.416750938E-1,1.232303619E0,4.230510235E0
1.371923104E1,-2.560320199E-1,9.978070259E-1,3.724428415E0
1.373892479E1,-3.349951804E-1,1.271785259E0,3.938585997E0
1.375861865E1,-6.388836503E-1,1.653440475E0,4.687539577E0
1.377831240E1,-6.472585201E-1,1.727617979E0,5.542973518E0
1.379800625E1,4.725824594E-1,1.724028707E0,5.997610092E0
1.381770000E1,1.868794441E0,2.327019930E0,6.424728870E0
1.383739386E1,2.711068153E0,3.284149170E0,6.850651264E0
1.385708761E1,2.389233351E0,3.572484255E0,7.148557663E0
1.387678146E1,1.205982566E0,3.615555048E0,7.087540627E0
1.389647521E1,3.349951655E-2,4.529613495E0,6.713063717E0
1.391616906E1,-1.615155339E-1,6.649653912E0,7.612765312E0
1.393586281E1,6.149554253E-1,8.744570732E0,9.597611427E0
1.395555667E1,1.609173179E0,8.921639442E0,1.140538883E1
1.397525052E1,3.375076294E0,7.392625332E0,1.199880886E1
1.399494427E1,4.662415028E0,5.400600910E0,1.288654613E1
1.401463813E1,4.880161762E0,4.231706619E0,1.395135212E1
1.403433188E1,3.952943087E0,3.766302824E0,1.485464287E1
1.405402573E1,2.627319336E0,3.844069481E0,1.530449390E1
1.407371959E1,2.282752752E0,3.964907169E0,1.474337673E1
1.409341334E1,2.937189817E0,4.000799656E0,1.276211929E1
1.411310719E1,3.046063185E0,4.229313850E0,1.099741268E1
1.413280094E1,2.507678032E0,4.216153622E0,9.707681656E0
1.415249479E1,1.438086390E0,4.051048756E0,8.142775536E0
1.417218865E1,2.895315289E-1,3.890729666E0,6.641279221E0
1.419188240E1,-5.264210105E-1,3.986442566E0,6.148357868E0
1.421157625E1,-5.958128572E-1,4.351347923E0,6.447460651E0
1.423127011E1,5.383851007E-2,4.436293125E0,7.077969551E0
1.425096386E1,5.036891699E-1,4.264009953E0,8.411968231E0
1.427065771E1,5.276173949E-1,3.186043262E0,9.444471359E0
1.429035156E1,-1.435693540E-2,1.843669891E0,9.521040916E0
1.431004531E1,-5.288137794E-1,9.164510965E-1,8.629714966E0
1.432973917E1,-7.692924738E-1,7.645068169E-1,7.456035137E0
1.434943302E1,-8.817551732E-1,1.016949654E0,6.349354744E0
1.436912688E1,-4.809573591E-1,1.377069473E0,6.135197163E0
1.438882063E1,4.378865361E-1,1.657029629E0,6.587440968E0
1.440851448E1,1.142572761E0,2.149951220E0,6.132804394E0
1.442820834E1,6.939185411E-2,2.577069998E0,5.004588604E0
1.444790219E1,-2.023131609E0,1.472782373E0,4.246063709E0
1.446759604E1,-3.615555048E0,6.173482537E-1,4.671986103E0
1.448728979E1,-4.639683247E0,1.166501045E0,5.347958565E0
1.450698365E1,-3.976871252E0,2.922832966E0,5.685346603E0
1.452667750E1,-2.490928411E0,5.143372059E0,7.325626373E0
1.454637136E1,-1.061216831E0,6.178267956E0,9.645467758E0
1.456606521E1,-3.098705411E-1,7.166503906E0,1.184806156E1
1.458575906E1,1.536192179E0,6.148357868E0,1.371805191E1
1.460545281E1,2.679961443E0,5.349154949E0,1.617667770E1
1.462514667E1,3.067598581E0,4.926821709E0,1.869153404E1
1.464484052E1,3.308077335E0,3.883551121E0,1.992623138E1
1.466453438E1,2.766103029E0,3.255435228E0,1.966182327E1
1.468422823E1,1.969292998E0,2.918047190E0,1.758844376E1
1.470392209E1,1.464407444E0,2.721835852E0,1.425524044E1
1.472361594E1,1.150947690E0,2.931207657E0,1.080598736E1
1.474330979E1,9.762716293E-1,2.967100143E0,8.109275818E0
1.476300365E1,9.092726111E-1,3.042474031E0,6.087340832E0
1.478269750E1,7.573283911E-1,3.184846878E0,4.894518852E0
1.480239136E1,2.213360965E-1,3.066402197E0,4.214957237E0
1.482208521E1,-5.048855543E-1,2.646461725E0,3.772284985E0
1.484177906E1,-1.140179992E0,2.266003132E0,4.212564468E0
1.486147292E1,-7.800601721E-1,2.348555326E0,4.886143684E0
1.488116677E1,-1.866401732E-1,2.561516523E0,5.665007591E0
1.490086063E1,-5.395814776E-1,2.724228621E0,5.836094379E0
1.492055448E1,-9.080761671E-1,2.659622431E0,5.950950146E0
1.494024834E1,-1.829312921E0,1.490728498E0,6.600601196E0
1.495994219E1,-3.023331404E0,9.870393276E-1,7.220342159E0
1.497963604E1,-3.176471949E0,4.821537733E-1,8.230113029E0
1.499932990E1,-2.188236237E0,1.280160099E-1,9.638289452E0
1.501902375E1,-1.573280931E0,6.269195080E-1,1.015035343E1
1.503871761E1,-1.458425403E0,1.427318692E0,8.719446182E0
1.505841146E1,-9.930213690E-1,2.233700037E0,6.380461693E0
1.507810531E1,-1.256231815E-1,3.334398270E0,5.314459324E0
1.509779917E1,6.472585201E-1,4.314259052E0,6.063412666E0
1.511749302E1,8.422735929E-1,5.365904808E0,6.915257454E0
1.513718698E1,1.842473447E-1,6.478567123E0,6.296712875E0
1.515688084E1,-1.591227055E-1,6.367300987E0,5.868397713E0
1.517657469E1,-6.364908218E-1,7.022934437E0,6.299105644E0
1.519626854E1,-1.150947690E0,8.975478172E0,6.922435760E0
1.521596240E1,-5.120640397E-1,8.663214684E0,8.776873589E0
1.523565625E1,1.009771109E0,7.710870743E0,1.129292679E1
1.525535011E1,3.180061340E0,5.562116146E0,1.414995670E1
1.527504406E1,4.152743816E0,2.203789711E0,1.776910019E1
1.529473792E1,2.291127682E0,-3.888336718E-1,2.026601219E1
1.531443177E1,-8.135596663E-2,-8.721838593E-1,1.863530350E1
1.533412563E1,-1.125823021E0,-1.615155339E-1,1.485464287E1
1.535381948E1,-1.148554921E0,6.472585201E-1,1.089571762E1
1.537351344E1,-1.359123230E0,1.969292998E0,7.865208149E0
1.539320729E1,-2.093719721E0,3.714857101E0,5.328815937E0
1.541290115E1,-3.376272678E0,2.159522533E0,5.294120312E0
1.543259500E1,-3.742374659E0,3.756731451E-1,5.271388054E0
1.545228896E1,-3.919443607E0,-8.733802289E-2,5.398207664E0
1.547198281E1,-2.526820660E0,7.322037220E-1,5.759523869E0
1.549167667E1,-2.356930375E-1,1.970489502E0,5.876772404E0
1.551137052E1,1.501496196E0,2.945564747E0,5.903093338E0
1.553106448E1,1.767099500E0,2.766103029E0,5.912664890E0
1.555075834E1,6.077769399E-1,2.295913219E0,5.742774487E0
1.557045219E1,-7.250252366E-1,1.998006940E0,5.860022545E0
1.559014604E1,-4.666004181E-1,2.222932339E0,6.666403770E0
1.560983990E1,6.161518097E-1,2.522035122E0,9.804591179E0
1.562953386E1,9.200403094E-1,2.547159672E0,1.223569870E1
1.564922771E1,1.208375469E-1,2.973082066E0,1.184327602E1
1.566892167E1,3.696911037E-1,4.457828522E0,1.019940662E1
1.568861552E1,1.472782373E0,5.140979290E0,9.168100357E0
1.570830938E1,4.929214716E-1,4.326223373E0,1.096152020E1
1.572800323E1,-8.853443861E-1,2.171486616E0,1.465723515E1
1.574769719E1,-9.738788009E-1,8.350951076E-1,1.824527359E1
1.576739104E1,2.189432681E-1,1.646261930E0,1.840559196E1
1.578708490E1,1.860419631E0,3.077169895E0,1.556172180E1
1.580677875E1,3.012563705E0,4.453042984E0,1.272383404E1
1.582647271E1,3.702893019E0,5.386243820E0,1.072702408E1
1.584616656E1,3.407379389E0,5.369493961E0,9.883553505E0
1.586586052E1,2.392822742E0,4.588237286E0,9.084351540E0
1.588555438E1,1.099501967E0,3.381058455E0,8.298309326E0
1.590524823E1,-5.982056633E-2,2.410768747E0,7.674978733E0
1.592494209E1,-9.116654396E-1,1.713261008E0,6.638886452E0
1.594463604E1,-1.322034478E0,1.482353687E0,5.641079426E0
1.596432990E1,-1.409372568E0,1.659422517E0,5.024927616E0
1.598402386E1,-1.354337573E0,1.792224169E0,4.662415028E0
1.600371771E1,-1.314856052E0,1.564906001E0,4.802394867E0
1.602341156E1,-1.256231904E0,1.363908887E0,4.875376225E0
1.604310552E1,-1.371087432E0,1.497906923E0,4.867001057E0
1.606279938E1,-1.221535921E0,1.838884234E0,5.705685616E0
1.608249334E1,-5.862415433E-1,2.102094650E0,7.588837147E0
1.610218719E1,2.009970993E-1,2.054238319E0,8.973084450E0
1.612188104E1,7.788637877E-1,1.724028707E0,8.683553696E0
1.614157500E1,1.050449133E0,1.623530149E0,7.931010723E0
1.616126886E1,1.442872047E0,2.042274237E0,8.476573944E0
1.618096271E1,2.271985054E0,2.628515720E0,1.041835022E1
1.620065667E1,2.519642353E0,4.813162804E0,1.072941685E1
1.622035052E1,1.771885157E0,8.191828728E0,8.161917686E0
1.624004438E1,3.538984776E0,6.348158360E0,1.254915810E1
1.625973834E1,5.319244862E0,4.642076015E0,1.794138336E1
1.627943219E1,5.218746185E0,3.237488985E0,1.811845398E1
1.629912615E1,4.017549038E0,2.427518606E0,1.556291866E1
1.631882000E1,3.814159393E0,1.873580098E0,1.134197903E1
1.633851386E1,1.172483087E0,3.363112211E0,6.063412666E0
1.635820781E1,-5.371887088E-1,3.942175388E0,6.232106686E0
1.637790167E1,-9.367900491E-1,3.262613773E0,7.758727551E0
1.639759563E1,-1.599601984E0,2.370090723E0,7.704888821E0
1.641728948E1,-1.487139225E0,1.960918188E0,7.068397999E0
1.643698334E1,-6.771687865E-1,1.677368641E0,5.802595139E0
1.645667729E1,-7.896314561E-2,1.511067510E0,4.522434711E0
1.647637115E1,4.546363056E-1,1.647458434E0,4.409972191E0
1.649606500E1,7.417750359E-2,2.459821701E0,6.258427620E0
1.651575896E1,1.399801224E-1,3.400201082E0,7.031309128E0
1.653545281E1,3.050848842E-1,4.826323509E0,6.455835342E0
1.655514677E1,2.009970993E-1,6.050251961E0,5.448457241E0
1.657484063E1,2.201396823E-1,6.502495766E0,5.266602516E0
1.659453448E1,1.093519926E0,6.765706062E0,8.228917122E0
1.661422844E1,2.474178553E0,6.746563435E0,1.115533924E1
1.663392229E1,3.474378586E0,7.448856831E0,1.218305683E1
1.665361615E1,2.161915302E0,9.369096756E0,1.179183006E1
1.667331011E1,-1.208375469E-1,1.097468090E1,8.665607452E0
1.669300396E1,-2.691925466E-1,1.004626560E1,5.727221012E0
1.671269792E1,2.165504545E-1,6.257231236E0,1.148195934E1
1.673239177E1,1.276570916E0,3.509074450E0,1.804547119E1
1.675208563E1,9.116654396E-1,2.121237278E0,1.980060768E1
1.677177958E1,6.161518097E-1,2.420340061E0,1.639442444E1
1.679147344E1,6.400800347E-1,3.699303865E0,1.141496086E1
1.681116740E1,6.005984545E-1,4.917250633E0,6.451049805E0
1.683086125E1,4.151547253E-1,5.582455158E0,4.122833252E0
1.685055511E1,-6.556333899E-1,4.928018093E0,6.415157318E0
1.687024906E1,-9.858429432E-1,3.553341627E0,7.864011765E0
1.688994292E1,1.722832322E-1,2.825923443E0,7.887939930E0
1.690963677E1,9.320043921E-1,2.761317253E0,6.530013084E0
1.692933073E1,8.985049129E-1,3.164507866E0,4.906482697E0
1.694902459E1,3.696911037E-1,3.416950703E0,3.639483213E0
1.696871844E1,-8.015955985E-2,3.537788391E0,3.284149170E0
1.698841240E1,-8.374879137E-3,3.538984776E0,3.589233875E0
1.700810625E1,-7.178468257E-2,3.710071564E0,4.320241451E0
1.702780021E1,-1.854437590E-1,4.188635826E0,5.434100151E0
1.704749406E1,-1.076770201E-2,4.421936035E0,7.039684296E0
1.706718792E1,-2.356930375E-1,4.326223373E0,7.818548203E0
1.708688188E1,-8.338986635E-1,4.508078098E0,8.255238533E0
1.710657573E1,-1.135394335E0,5.462814331E0,8.505288124E0
1.712626959E1,-1.415354609E0,6.921239376E0,8.529216766E0
1.714596354E1,-2.333002090E0,8.482556343E0,1.079641533E1
1.716565740E1,-3.089133978E0,9.327222824E0,1.337109280E1
1.718535136E1,-2.918047190E0,8.126026154E0,1.313779259E1
1.720504521E1,-2.544766903E0,7.275377274E0,1.206820107E1
1.722473906E1,-2.316252232E0,7.398607731E0,1.141974640E1
1.724443302E1,-2.154736757E0,7.745566845E0,1.062532902E1
1.726412688E1,-1.931007862E0,8.317451477E0,8.859425545E0
1.728382073E1,-1.946561217E0,9.138189316E0,7.016952515E0
1.730351469E1,-2.179861546E0,8.883354187E0,5.825326920E0
1.732320854E1,-2.469393015E0,6.910471916E0,5.523830891E0
1.734290240E1,-2.902493954E0,4.895715237E0,6.526423931E0
1.736259636E1,-2.994617462E0,4.177868366E0,8.130811691E0
1.738229021E1,-2.202593327E0,4.615755081E0,8.269595146E0
1.740198406E1,-1.865205288E0,4.852644444E0,6.917650223E0
1.742167802E1,-2.184647083E0,4.815555573E0,6.051448345E0
1.744137188E1,-2.681157827E0,4.618147850E0,6.757331371E0
1.746106573E1,-2.993421078E0,4.612165451E0,8.362915039E0
1.748075969E1,-3.202793121E0,4.462614059E0,8.703892708E0
1.750045354E1,-3.555734396E0,4.295116425E0,7.829315662E0
1.752014740E1,-3.650250912E0,4.725824833E0,7.106683254E0
1.753984136E1,-3.212364435E0,5.562116146E0,7.004988194E0
1.755953521E1,-2.080559254E0,5.922235966E0,8.033902168E0
1.757922906E1,-1.226321578E0,6.038288116E0,9.967302322E0
1.759892302E1,-1.142572761E0,5.994020939E0,9.422935486E0
1.761861688E1,-1.342373490E0,4.922036171E0,1.215434265E1
1.763831073E1,-2.153540373E0,3.389433384E0,1.150828075E1
1.765800469E1,-3.007778168E0,2.705085993E0,8.496912956E0
1.768665407E1,-1.362712502E0,4.870590687E0,7.119843960E0
1.770634782E1,-1.435693622E0,5.132604599E0,6.619743824E0
1.772604146E1,-1.152144074E0,5.568098068E0,7.451249599E0
1.774573521E1,-5.000999570E-1,5.746363640E0,8.745766640E0
1.776542896E1,-3.469592929E-1,5.535795212E0,9.192028046E0
1.778512261E1,-8.961120844E-1,5.101497650E0,8.941978455E0
1.780481636E1,-1.545763373E0,5.222335339E0,8.161917686E0
1.782451001E1,-1.768295884E0,5.676971912E0,7.409375191E0
1.784420376E1,-1.555334687E0,5.514259815E0,7.229913712E0
1.786389751E1,-1.373480201E0,4.972285271E0,7.438089371E0
1.788359115E1,-1.150947690E0,4.512863636E0,8.199007034E0
1.790328480E1,-7.310073376E-1,4.229313850E0,9.050851822E0
1.792297855E1,-1.136590764E-1,3.853640795E0,9.272188187E0
1.794267230E1,1.268195957E-1,3.359523058E0,9.455238342E0
1.796236605E1,1.986042857E-1,2.891726255E0,9.730413437E0
1.798205969E1,2.452643216E-1,2.386840582E0,9.485149384E0
1.800175344E1,-8.039883971E-1,1.539781332E0,9.214759827E0
1.802144709E1,2.273181453E-2,7.597211599E-1,8.219346046E0
1.804114084E1,1.579262912E-1,2.560320199E-1,8.991030693E0
1.806083448E1,2.225325108E-1,1.674975902E-1,1.014078236E1
1.808052824E1,2.297109663E-1,1.579262912E-1,1.078564835E1
1.810022198E1,2.249253243E-1,-1.555334777E-1,1.047817039E1
1.811991563E1,5.491527915E-1,-4.618147612E-1,9.785448074E0
1.813960938E1,9.954141974E-1,-1.196411327E-1,9.579665184E0
1.815930303E1,1.576870084E0,1.196411322E-3,9.054440498E0
1.817899678E1,1.686939955E0,-3.337987661E-1,9.059226990E0
1.819869042E1,1.198804140E0,-5.539384484E-1,9.064012527E0
1.821838417E1,2.033899277E-1,-5.694918036E-1,8.782855988E0
1.823807782E1,-1.666600943E0,-1.877169371E0,7.391428947E0
1.825777157E1,-2.237289190E0,-2.379662037E0,5.883950710E0
1.827746521E1,-1.533799291E0,-2.717050076E0,5.734399319E0
1.829715896E1,-3.876372576E-1,-2.417947292E0,7.363911629E0
1.831685261E1,3.314059377E-1,-1.268195987E0,1.095912743E1
1.833654636E1,1.314856052E0,-1.077966571E0,1.223689461E1
1.835624001E1,1.674975872E0,-1.607976794E0,1.052243805E1
1.837593376E1,1.033699393E0,-2.458625317E0,8.738588333E0
1.839562740E1,4.187439755E-2,-2.909672260E0,7.013363361E0
1.841532115E1,-9.846464992E-1,-2.029113531E0,6.691528320E0
1.843501480E1,-1.009771109E0,-4.845465720E-1,8.258827209E0
1.845470855E1,-3.792623878E-1,2.330609322E0,8.447860718E0
1.847440219E1,-9.571290612E-1,2.012363911E0,7.570890903E0
1.849409594E1,-1.782652885E-1,8.422735929E-1,9.120243073E0
1.851378959E1,-1.036092162E0,7.429714203E-1,1.102373409E1
1.853348334E1,-4.047459602E0,9.738788009E-1,1.085623646E1
1.855317698E1,-4.987838745E0,2.874976397E0,6.567101955E0
1.857287074E1,-3.225524902E0,2.153540373E0,9.647860527E0
1.859256438E1,-1.726421595E0,7.298108935E-2,1.549113369E1
1.861225803E1,-4.127618968E-1,-1.816152334E0,2.082593155E1
1.863195178E1,-2.237289101E-1,-3.506681681E0,1.897867203E1
1.865164542E1,-1.057627559E0,-3.105883837E0,1.465244961E1
1.867133907E1,-8.721838593E-1,-9.224331379E-1,1.025803089E1
1.869103282E1,2.584248483E-1,1.083948612E0,8.145168304E0
1.871072646E1,7.298108935E-1,2.166700840E0,7.618747234E0
1.873042021E1,5.431707501E-1,2.478964329E0,7.976474285E0
1.875011386E1,-5.742774159E-2,2.220539331E0,7.529016495E0
1.876980751E1,-6.999006271E-1,2.195414782E0,7.239484787E0
1.878950126E1,-9.355936646E-1,1.909472466E0,6.344569206E0
1.880919490E1,-1.268195987E0,1.885544300E0,6.065805435E0
1.882888865E1,-1.635494232E0,1.829312921E0,7.022934437E0
1.884858230E1,-1.628315806E0,1.360319614E0,7.146164894E0
1.886827594E1,-1.643869162E0,1.375872970E0,6.989434719E0
1.888796969E1,-1.030110121E0,2.177468538E0,7.153343201E0
1.890766334E1,3.206382394E-1,3.123830080E0,8.615358353E0
1.892735699E1,2.003988981E0,3.455235958E0,9.533005714E0
1.894705074E1,2.683550596E0,3.425325632E0,8.593822479E0
1.896674438E1,2.218146563E0,3.273381472E0,7.639086246E0
1.898643803E1,1.915454507E0,2.946761131E0,7.524230957E0
1.900613178E1,1.892722726E0,2.717050076E0,7.373483181E0
1.902582542E1,2.327019930E0,2.952743053E0,7.442874908E0
1.904551907E1,3.194418192E0,3.241078377E0,8.396414757E0
1.906521271E1,3.147758245E0,3.212364435E0,8.266005516E0
1.908490646E1,2.081755638E0,3.305684566E0,7.830512047E0
1.910460011E1,1.162911773E0,3.796213150E0,7.530212879E0
1.912429376E1,2.464607358E-1,5.379065514E0,8.216953278E0
1.914398751E1,-9.966106415E-1,7.299305439E0,9.798608780E0
1.916368115E1,-7.202396393E-1,6.624529362E0,8.218149185E0
1.918337480E1,6.568298340E-1,3.610769272E0,6.780063152E0
1.920306844E1,2.084148407E0,6.711867452E-1,1.154776192E1
1.922276219E1,4.814359188E0,-9.499505758E-1,1.789711761E1
1.924245584E1,7.972885132E0,8.374879360E-1,2.209412766E1
1.926214949E1,9.900303841E0,2.575873613E0,1.987119484E1
1.928184324E1,9.032905579E0,3.040081263E0,1.373240948E1
1.930153688E1,6.544369698E0,3.014956474E0,9.097511292E0
1.932123053E1,3.680161238E0,2.768495798E0,6.904489517E0
1.934092417E1,1.942971945E0,2.505285263E0,5.875576019E0
1.936061792E1,1.521835208E0,2.098505497E0,5.082355499E0
1.938031157E1,1.737189293E0,2.074577332E0,4.051048756E0
1.940000521E1,1.932204247E0,2.281556368E0,3.201596737E0
1.941969886E1,1.470389485E0,2.277967215E0,2.463410854E0
1.943939251E1,6.400800347E-1,2.183450699E0,1.983649969E0
1.945908626E1,-1.196411327E-1,1.781456470E0,1.707278967E0
1.947877990E1,-6.628118753E-1,1.392622828E0,2.164308071E0
1.949847355E1,-8.051848412E-1,1.270588875E0,3.254238844E0
1.951816719E1,-1.104287624E0,1.390229940E0,4.089334011E0
1.953786094E1,-5.587241054E-1,1.972882271E0,6.396014690E0
1.955755459E1,1.186840057E0,1.727617979E0,9.924231529E0
1.957724824E1,9.702895880E-1,7.477570772E-1,1.135872936E1
1.959694188E1,-8.805587292E-1,2.432304144E0,1.233858967E1
1.961663553E1,-2.894119024E0,6.717849731E0,1.287936783E1
1.963632928E1,-3.920639992E0,1.174038410E1,1.220937729E1
1.965602292E1,-3.305684566E0,1.306959724E1,1.339861012E1
1.967571657E1,2.226521492E0,9.653842926E0,1.682513237E1
1.969541021E1,5.303691387E0,6.622136593E0,2.116810608E1
1.971510386E1,4.668396950E0,5.014159679E0,1.896790504E1
1.973479751E1,7.154539824E-1,5.126622677E0,1.524467278E1
1.975449126E1,-3.428914785E0,5.891129494E0,1.061097240E1
1.977418490E1,-3.966103554E0,4.403990269E0,5.722435474E0
1.979387855E1,7.238288522E-1,3.830909014E0,4.925625324E0
1.981357219E1,4.888536453E0,4.858626366E0,7.374679565E0
1.983326584E1,5.894718647E0,4.613361835E0,9.267401695E0
1.985295959E1,5.076373100E0,3.858426571E0,9.958928108E0
1.987265324E1,3.641875982E0,2.890529871E0,8.169096947E0
1.989234688E1,2.008774519E0,2.027917147E0,5.577669621E0
1.991204053E1,1.256231904E0,1.775474429E0,5.698507309E0
1.993173417E1,9.547362328E-1,1.010967612E0,5.075176716E0
1.995142782E1,6.340979934E-1,7.657032460E-2,4.748556614E0
1.997112157E1,1.435693651E-1,-2.165504545E-1,4.624129772E0
1.999081521E1,-5.036891699E-1,1.639083475E-1,4.319045067E0
2.001050886E1,-8.805587292E-1,1.027717352E0,3.871587038E0
2.003020251E1,-6.520441771E-1,1.747956991E0,3.762713671E0
2.004989615E1,4.737788737E-1,1.283749342E0,3.615555048E0
2.006958980E1,1.130608678E0,8.985049129E-1,5.298905849E0
2.008928355E1,6.807580590E-1,1.457229018E0,6.928418159E0
2.010897719E1,-7.190431952E-1,3.372683525E0,7.600800991E0
2.012867084E1,-2.586641312E0,9.844072342E0,5.979663849E0
2.014836449E1,-1.244267821E0,1.182772255E1,6.217749596E0
2.016805813E1,-8.470591903E-1,9.739984512E0,7.170093060E0
2.018775178E1,-2.889333248E0,7.280162811E0,1.224287701E1
2.020744542E1,-2.297109842E0,3.852444410E0,1.458784294E1
2.022713917E1,1.452443361E0,2.703889608E0,1.647219086E1
2.024683282E1,8.813961983E0,5.002195835E0,1.799522209E1
2.026652646E1,1.460578918E1,7.136593342E0,1.642313766E1
2.028622011E1,1.427079391E1,6.684350014E0,1.420140266E1
2.030591376E1,8.847461700E0,5.146961689E0,1.220100307E1
2.032560740E1,4.137190342E0,4.116851330E0,1.003549862E1
2.034530105E1,1.657029629E0,3.536591768E0,7.552944660E0
2.036499480E1,6.496513486E-1,3.298506021E0,5.455635548E0
2.038468844E1,8.973085135E-2,3.120240688E0,4.194618225E0
2.040438209E1,-8.949156404E-1,2.767299414E0,3.509074450E0
2.042407574E1,-1.920240164E0,2.389233351E0,4.679164886E0
2.044376938E1,-2.525624275E0,2.512463808E0,6.769295216E0
2.046346303E1,-2.501696110E0,2.673979282E0,8.173882484E0
2.048315667E1,-1.919043779E0,2.901297569E0,8.063812256E0
2.050285042E1,-6.161518097E-1,4.037888050E0,7.948956966E0
2.052254407E1,1.201196909E0,5.289334297E0,8.256434441E0
2.054223771E1,2.551945448E0,5.303691387E0,9.628718376E0
2.056193136E1,2.690729141E0,4.212564468E0,1.097707367E1
2.058162501E1,2.816352367E0,2.776870728E0,1.168056393E1
2.060131865E1,3.272184849E0,1.554138303E0,1.138146114E1
2.062101230E1,3.693321705E0,1.385444283E0,9.756733894E0
2.064070605E1,3.658625841E0,2.017149448E0,7.182057381E0
2.066039969E1,3.038884640E0,2.751745939E0,3.990031719E0
2.068009334E1,2.250449657E0,3.570091486E0,1.987239242E0
2.069978699E1,1.598405480E0,4.182653904E0,1.683350682E0
2.071948063E1,1.351944804E0,4.589433670E0,2.172683001E0
2.073917428E1,2.033899307E0,5.258227825E0,2.849851847E0
2.075886792E1,3.385843992E0,6.533602238E0,3.427718401E0
2.077856157E1,4.643272400E0,8.059026718E0,3.737588882E0
2.079825532E1,4.969892502E0,9.036494255E0,4.626522541E0
2.081794896E1,4.619344234E0,9.626325607E0,5.313262463E0
2.083764261E1,4.547559261E0,8.926424980E0,6.936792850E0
2.085733626E1,4.576273441E0,8.155936241E0,1.001874828E1
2.087702990E1,3.875176191E0,8.514859200E0,1.142094231E1
2.089672355E1,3.388236761E0,7.472784996E0,1.177388382E1
2.091641719E1,3.730410576E0,5.538187981E0,1.239123249E1
2.093611084E1,4.260420799E0,4.530809879E0,1.338186073E1
2.095580448E1,4.998606682E0,4.786841869E0,1.373360538E1
2.097549824E1,5.094319344E0,5.416153908E0,1.254676533E1
2.099519188E1,4.180261135E0,5.804987907E0,9.717252731E0
2.101488553E1,2.975475073E0,5.901896954E0,6.794419765E0
2.103457917E1,2.037488461E0,5.771488190E0,4.865804672E0
2.105427282E1,1.481157184E0,5.534598827E0,4.101297855E0
2.107396646E1,1.335195065E0,5.304887772E0,4.138386726E0
2.109366011E1,1.747956991E0,5.358726501E0,4.606183529E0
2.111335376E1,2.006381750E0,5.460421085E0,4.786841869E0
2.113304740E1,1.788634896E0,5.522634506E0,5.186442852E0
2.115274105E1,1.517049551E0,5.552545071E0,6.183053493E0
2.117243480E1,1.406979680E0,5.420939922E0,7.473981380E0
2.119212844E1,1.287338614E0,4.925625324E0,9.166903496E0
2.121182209E1,1.379462242E0,4.216153622E0,9.823733330E0
2.123151574E1,1.266999602E0,4.419543266E0,9.535398483E0
2.125120938E1,1.341177106E0,5.242674351E0,9.275776863E0
2.127090303E1,1.613958836E0,5.763113499E0,9.719645500E0
2.129059667E1,2.099701881E0,5.493920803E0,9.905089378E0
2.131029032E1,2.243271112E0,5.109872818E0,9.748359680E0
2.132998396E1,2.372483730E0,4.637290478E0,8.848658562E0
2.134967771E1,2.647658348E0,4.092923164E0,8.009973526E0
2.136937136E1,2.949153900E0,3.950550079E0,7.624729156E0
2.138906501E1,3.217149973E0,3.871587038E0,7.411767960E0
2.140875865E1,3.299702406E0,3.518645763E0,7.082755089E0
2.142845230E1,3.134597778E0,3.341576815E0,5.968895912E0
2.144814594E1,2.444268227E0,3.138186932E0,4.923232555E0
2.146783959E1,1.707278967E0,3.165704250E0,5.206781864E0
2.148753324E1,1.881955028E0,3.716053486E0,6.031109333E0
2.150722688E1,2.450250387E0,3.985246181E0,6.522834301E0
2.152692063E1,3.245863914E0,3.586841106E0,5.871986866E0
2.154661428E1,3.755535126E0,3.895515203E0,6.692724705E0
2.156630792E1,3.428914785E0,3.774677753E0,6.821937561E0
2.158600157E1,2.577069998E0,3.415754318E0,6.848258495E0
2.160569521E1,1.587637782E0,3.286541939E0,7.920242786E0
2.162538886E1,7.058826685E-1,4.017549038E0,9.655039787E0
2.164508251E1,1.304088354E0,4.484149456E0,1.043629551E1
2.166477615E1,1.410568953E0,5.648257732E0,1.102014446E1
2.168446980E1,1.131805062E0,9.140582085E0,8.394021988E0
2.170416344E1,3.939782381E0,7.272984505E0,5.886343479E0
2.172385719E1,6.040680885E0,4.642076015E0,8.490931511E0
2.174355084E1,6.071787357E0,3.270988464E0,1.342373466E1
2.176324448E1,5.199603558E0,2.963510752E0,1.640638924E1
2.178293813E1,4.150351048E0,3.221935749E0,1.517647743E1
2.180263167E1,3.860819340E0,3.899104595E0,1.138983536E1
2.182232542E1,4.219742775E0,5.005784988E0,7.704888821E0
2.184201907E1,5.038087845E0,5.521438122E0,7.182057381E0
2.186171271E1,5.420939922E0,5.225924492E0,7.663014412E0
2.188140636E1,4.740181446E0,4.796412945E0,7.280162811E0
2.190110011E1,3.229114056E0,4.447061062E0,5.930611134E0
2.192079376E1,1.929811478E0,3.798605919E0,4.493721008E0
2.194048730E1,1.138983607E0,3.066402197E0,3.811766386E0
2.196018105E1,5.659025311E-1,2.681157827E0,3.954139471E0
2.197987469E1,7.178468257E-2,2.882154942E0,4.347758770E0
2.199956834E1,1.914258152E-1,3.415754318E0,4.719842434E0
2.201926198E1,1.579262912E-1,3.704089403E0,5.084748268E0
2.203895563E1,-7.118647099E-1,2.959921598E0,6.416353703E0
2.205864938E1,-1.038485050E0,1.936989903E0,7.550551891E0
2.207834303E1,-8.422735929E-1,1.479960799E0,8.212167740E0
2.209803667E1,2.883351147E-1,1.999203324E0,8.203792572E0
2.211773032E1,2.170290232E0,2.556730986E0,7.919046402E0
2.213742396E1,3.533002615E0,3.122633457E0,8.397610664E0
2.215711761E1,3.924229145E0,5.187639713E0,8.233702660E0
2.217681126E1,4.655236244E0,8.309076309E0,5.816951752E0
2.219650490E1,6.346961975E0,1.091605663E1,4.764110088E0
2.221619865E1,6.635297298E0,1.147358418E1,7.627122402E0
2.223589230E1,5.090730190E0,1.074975586E1,1.055593681E1
2.225558594E1,3.616751432E0,9.058030128E0,1.168654537E1
2.227527959E1,2.080559254E0,6.952346325E0,1.160638618E1
2.229497324E1,1.164108157E0,4.462614059E0,1.128574753E1
2.231466688E1,9.008977413E-1,2.285145521E0,1.253360462E1
2.233436053E1,1.003789067E0,1.524227977E0,1.399561977E1
2.235405417E1,1.744367719E0,2.124826431E0,1.461536026E1
2.237374792E1,3.023331404E0,2.949153900E0,1.359482193E1
2.239344157E1,4.284348965E0,3.541377544E0,1.103210926E1
2.241313521E1,4.951946259E0,3.981656790E0,7.610372543E0
2.243282886E1,4.731806755E0,4.007977962E0,4.989035130E0
2.245252251E1,4.185046673E0,3.482753277E0,3.810570002E0
2.247221615E1,3.468396425E0,2.519642353E0,3.653840065E0
2.249190990E1,2.517249346E0,1.878365755E0,3.700500250E0
2.251160355E1,1.622333765E0,1.542174220E0,3.224328518E0
2.253129719E1,7.549355626E-1,1.180858016E0,2.647658348E0
2.255099084E1,1.232303679E-1,9.068797827E-1,2.864208698E0
2.257068448E1,3.948157281E-2,1.232303619E0,3.473181963E0
2.259037813E1,8.733802438E-1,1.696511269E0,4.590630054E0
2.261007188E1,1.840080619E0,2.800798893E0,5.860022545E0
2.262976553E1,2.171486616E0,5.682953835E0,6.927221775E0
2.264945917E1,1.584048629E0,7.858029366E0,7.936992645E0
2.266915282E1,9.236295223E-1,8.061419487E0,8.587840080E0
2.268884646E1,6.245267391E-1,8.234899521E0,9.189635277E0
2.270854011E1,1.799402595E0,6.580262184E0,9.822537422E0
2.272823386E1,3.099901676E0,2.957528830E0,1.546481228E1
2.274792751E1,3.897907972E0,2.132004976E0,1.897867203E1
2.276762115E1,3.769891977E0,4.607379913E0,1.848216248E1
2.278731480E1,3.560520172E0,4.432703972E0,1.651286888E1
2.280700844E1,4.194618225E0,4.064209461E0,1.308754349E1
2.282670209E1,5.705685616E0,4.826323509E0,1.109791183E1
2.284639584E1,6.848258495E0,4.814359188E0,1.081555843E1
2.286608949E1,5.669793129E0,4.204189301E0,1.094836044E1
2.288578313E1,3.145365477E0,3.141776085E0,1.033101177E1
2.290547678E1,1.271785259E0,1.966900229E0,8.682356834E0
2.292517042E1,1.782652885E-1,1.453639746E0,6.486942291E0
2.294486407E1,4.283152521E-1,1.572084427E0,4.567898273E0
2.296455782E1,1.210768223E0,1.822134495E0,3.608376503E0
2.298425146E1,2.141576290E0,1.745564103E0,3.406183004E0
2.300394511E1,2.386840582E0,1.405783296E0,3.525824070E0
2.302363876E1,1.908276081E0,1.117448211E0,3.833301783E0
2.304333240E1,1.165304661E0,8.303094506E-1,4.216153622E0
2.306302615E1,9.954141974E-1,9.487541914E-1,4.049852371E0
2.308271980E1,1.106680512E0,1.777867198E0,3.692125320E0
2.310241344E1,1.266999602E0,2.831905603E0,4.034298897E0
2.312210709E1,1.092323542E0,3.839283943E0,7.231110096E0
2.314180074E1,1.312463164E0,4.724628448E0,1.105125141E1
2.316149449E1,1.404586911E0,5.278566837E0,1.240439224E1
2.318118813E1,7.597211599E-1,6.716653347E0,1.294876003E1
2.320088178E1,-6.305087805E-1,9.379864693E0,1.105962658E1
2.322057542E1,7.657032609E-1,8.833105087E0,8.082955360E0
2.324026907E1,3.348755360E0,6.941578388E0,1.111226845E1
2.325996282E1,4.642076015E0,5.117051125E0,1.673540115E1
2.327965646E1,3.500699520E0,3.269792080E0,1.872623062E1
2.329935011E1,1.408176184E0,2.918047190E0,1.443948841E1
2.331904376E1,4.546363056E-1,3.388236761E0,8.005187988E0
2.333873740E1,9.200403094E-1,3.913461447E0,3.187239647E0
2.335843115E1,1.445264935E0,3.828516245E0,1.813759565E0
2.337812480E1,1.664208174E0,3.268595695E0,4.730610371E0
2.339781844E1,2.236092806E0,2.757728100E0,7.858029366E0
2.341751209E1,2.633301258E0,2.237289190E0,8.798408508E0
2.343720584E1,2.606980324E0,1.986042738E0,7.773084164E0
2.345689948E1,2.469393015E0,1.891526341E0,6.181857109E0
2.347659313E1,2.013560295E0,2.335394859E0,5.694917679E0
2.349628678E1,1.818545222E0,3.065205812E0,6.052644730E0
2.351598053E1,2.379662037E0,2.968296528E0,6.059823513E0
2.353567417E1,3.132204771E0,2.839084148E0,5.910272121E0
2.355536782E1,4.465006828E0,3.696911097E0,6.660421848E0
2.357506146E1,5.927021503E0,4.289134502E0,6.539584160E0
2.359475511E1,5.568098068E0,4.704289436E0,6.811169624E0
2.361444886E1,3.645465374E0,5.313262463E0,9.097511292E0
2.363414251E1,1.785045743E0,7.471588612E0,1.024606609E1
2.365383615E1,1.974078655E0,8.188239098E0,9.060422897E0
2.367352980E1,3.856033802E0,5.172086239E0,1.024487019E1
2.369322355E1,3.846462488E0,2.794816732E0,1.340459251E1
2.371291719E1,3.016152859E0,1.958525300E0,1.771167374E1
2.373261084E1,2.458625317E0,2.526820660E0,1.853958893E1
2.375230449E1,2.389233351E0,2.749353170E0,1.488933849E1
2.377199824E1,2.256431818E0,3.147758245E0,1.133240795E1
2.379169188E1,2.294716835E0,3.748356581E0,9.681360245E0
2.381138553E1,2.841476917E0,4.401597023E0,9.930213928E0
2.383107917E1,4.072584152E0,4.849055290E0,1.059182930E1
2.385077282E1,4.566701889E0,4.709074974E0,1.031306553E1
2.387046657E1,3.835694790E0,4.152743816E0,9.005388260E0
2.389016021E1,2.614158630E0,3.450450182E0,6.894918442E0
2.390985386E1,1.670190215E0,2.859423161E0,4.950749874E0
2.392954761E1,1.062413216E0,2.687139750E0,4.545166492E0
2.394924126E1,9.595218897E-1,3.049652576E0,5.742774487E0
2.396893490E1,6.664010882E-1,3.406183004E0,5.810969830E0
2.398862855E1,8.721838593E-1,3.644268990E0,4.742574692E0
2.400832230E1,1.856830359E0,3.498306751E0,4.510470867E0
2.402801594E1,2.330609322E0,2.809173822E0,6.251249313E0
2.404770959E1,2.373680115E0,1.835294962E0,8.132007599E0
2.406740324E1,2.505285263E0,9.678967595E-1,7.908278942E0
2.408709699E1,2.736192703E0,1.636690736E0,5.851647854E0
2.410679063E1,2.918047190E0,2.927618504E0,5.599205017E0
2.412648428E1,2.769692183E0,4.226921082E0,7.703692436E0
2.414617792E1,4.011567116E0,5.611168861E0,8.764909744E0
2.416587167E1,5.120640278E0,6.802794933E0,1.019820976E1
2.418556532E1,4.301098824E0,6.577869415E0,1.275254822E1
2.420525896E1,2.970689297E0,5.988038540E0,1.246660614E1
2.422495261E1,2.419143677E0,6.558726788E0,1.018265629E1
2.424464636E1,2.762513638E0,7.196413994E0,8.847461700E0
2.426434001E1,2.679961443E0,7.347161770E0,9.153742790E0
2.428403365E1,2.315055847E0,6.915257454E0,9.235098839E0
2.430372730E1,2.020738840E0,6.352943897E0,8.965906143E0
2.432342105E1,2.060220242E0,6.067001820E0,8.618947029E0
2.434311469E1,2.828316450E0,6.169893265E0,7.969295979E0
2.436280834E1,3.773481369E0,6.477370739E0,7.451249599E0
2.438250209E1,4.218546391E0,6.449853420E0,7.229913712E0
2.440219574E1,3.548556089E0,5.765506268E0,7.237092018E0
2.442188938E1,2.553141832E0,4.683950424E0,7.021738052E0
2.444158303E1,1.831705689E0,3.538984776E0,6.421139717E0
2.446127678E1,1.555334687E0,2.557927370E0,5.727221012E0
2.448097042E1,1.489532113E0,1.462014675E0,5.697310925E0
2.450066407E1,1.616351724E0,8.769695163E-1,5.544169903E0
2.452035771E1,1.903490424E0,1.830509305E0,4.777270317E0
2.454005146E1,2.703889608E0,3.591626883E0,3.724428415E0
2.455974511E1,2.973082066E0,3.736392498E0,3.438486099E0
2.457943876E1,2.151147604E0,3.340380430E0,3.315255880E0
2.459913251E1,1.348355532E0,3.978067636E0,3.992424488E0
2.461882615E1,1.069591761E0,4.476971149E0,5.735595703E0
2.463851980E1,1.509871125E0,4.688735962E0,6.976274490E0
2.465821344E1,1.871187329E0,5.898307800E0,6.673582554E0
2.467790719E1,2.153540373E0,7.345965385E0,7.088737011E0
2.469760084E1,1.527817249E0,7.889136314E0,9.871589661E0
2.471729449E1,-2.392822653E-1,9.619147301E0,1.220100307E1
2.473698824E1,1.158126116E0,8.458627701E0,1.190907860E1
2.475668188E1,3.361915827E0,6.270391941E0,1.198684502E1
2.477637553E1,3.669393539E0,4.292723656E0,1.453161144E1
2.479606928E1,2.048256159E0,3.840480328E0,1.769970894E1
2.481576292E1,1.895115495E0,4.023531437E0,1.840678787E1
2.483545657E1,2.100898266E0,4.001996040E0,1.576271915E1
2.485515021E1,1.590030670E0,3.144168854E0,1.106321526E1
2.487484396E1,9.559326172E-1,2.537588358E0,6.459424496E0
2.489453761E1,9.690931439E-1,2.441875458E0,4.226921082E0
2.491423126E1,1.722832322E0,2.988635540E0,5.584847927E0
2.493392501E1,2.611765862E0,3.559323788E0,7.854440212E0
2.495361865E1,3.829712629E0,3.466003656E0,8.392825127E0
2.497331230E1,3.778266907E0,3.159722328E0,7.349554539E0
2.499300605E1,2.835494757E0,2.877369165E0,5.596812248E0
2.501269959E1,1.899901152E0,2.336591244E0,4.101297855E0
2.503239334E1,8.626125455E-1,1.665404558E0,3.241078377E0
2.505208709E1,3.589233849E-3,1.275374413E0,3.119044304E0
2.507178074E1,-2.392822644E-3,1.213161111E0,3.420539856E0
2.509147438E1,9.655039310E-1,1.237089276E0,5.503491879E0
2.511116813E1,9.056833982E-1,1.743171334E0,6.897311211E0
2.513086178E1,4.474578202E-1,2.200200319E0,8.489734650E0
2.515055542E1,4.354937077E-1,2.427518606E0,9.914660454E0
2.517024917E1,6.388836503E-1,2.183450699E0,1.049850941E1
2.518994282E1,6.843472719E-1,2.291127682E0,9.342776299E0
2.520963646E1,-3.816552162E-1,2.752942562E0,7.204789162E0
2.522933021E1,-1.109073281E0,4.331008911E0,6.573083878E0
2.524902386E1,-2.026720762E0,8.420342445E0,1.068036366E1
2.526871751E1,-1.578066587E0,1.107278633E1,1.394656658E1
2.528841126E1,2.117647976E-1,1.053081226E1,1.338664627E1
2.530810490E1,1.747956991E0,8.694320679E0,1.384008598E1
2.532779855E1,1.917847395E0,7.042077065E0,1.451964760E1
2.534749230E1,2.715853691E0,5.832505226E0,1.442273808E1
2.536718594E1,2.270788670E0,6.200999737E0,1.385803223E1
2.538687959E1,7.142575383E-1,6.549155712E0,1.131805134E1
2.540657334E1,4.342973232E-1,6.155536175E0,8.639286041E0
2.542626698E1,8.925228715E-1,5.211567879E0,6.725028038E0
2.544596063E1,1.000199914E0,4.159922123E0,6.317051888E0
2.546565438E1,7.740781307E-1,3.225524902E0,6.765706062E0
2.548534803E1,5.910272002E-1,2.333002090E0,6.906882763E0
2.550504167E1,3.864408433E-1,1.642672777E0,6.886543751E0
2.552473542E1,4.366901219E-1,1.384247899E0,6.555137634E0
2.554442907E1,4.426721931E-1,1.189232826E0,6.134000778E0
2.556412282E1,4.235295951E-1,1.362712502E0,5.377869129E0
2.558381646E1,1.045663476E0,2.118844509E0,5.517848969E0
2.560351011E1,2.159522533E0,2.481357098E0,5.552545071E0
2.562320386E1,1.576870084E0,2.379662037E0,3.830909014E0
2.564289751E1,-1.003789067E0,2.317448616E0,2.437089920E0
2.566259115E1,-3.372683525E0,2.839084148E0,2.366501570E0
2.568228490E1,-3.385843992E0,4.279563427E0,3.207578659E0
2.570197855E1,-1.927418590E0,7.107879639E0,6.427121639E0
2.572167230E1,-5.228317380E-1,9.907482147E0,8.830712318E0
2.574136594E1,-3.098705411E-1,1.134437180E1,9.852447510E0
2.576105959E1,-9.439685345E-1,1.176072311E1,1.115174961E1
2.578075334E1,-1.710868239E0,1.033938694E1,1.373958778E1
2.580044698E1,-3.260220766E0,7.753942013E0,1.603310776E1
2.582014074E1,-4.631308079E0,6.604190350E0,1.643390656E1
2.583983438E1,-3.667000771E0,7.098308563E0,1.539302826E1
2.585952813E1,-2.840280533E0,7.763513088E0,1.344527054E1
2.587922178E1,-3.513859987E0,7.582854748E0,1.113380337E1
2.589891542E1,-3.446861029E0,6.940382004E0,9.753145218E0
2.591860917E1,-2.688336134E0,6.866204739E0,9.267401695E0
2.593830282E1,-1.642672777E0,6.801598549E0,8.772088051E0
2.595799657E1,-1.311266780E0,6.147161484E0,7.811369419E0
2.597769021E1,-1.737189293E0,5.552545071E0,6.169893265E0
2.599738386E1,-2.181057930E0,4.986642361E0,4.692325115E0
2.601707761E1,-2.790031195E0,4.631308079E0,4.305884361E0
2.603677126E1,-2.901297569E0,4.341776848E0,3.023331404E0
2.605646501E1,-3.704089403E0,4.034298897E0,3.516252756E0
2.607615865E1,-3.934996843E0,4.180261135E0,6.597012043E0
2.611105543E1,-4.260420799E0,5.814558983E0,4.789234638E0
2.613074897E1,-4.131208420E0,6.380461693E0,5.271388054E0
2.615044261E1,-4.206582069E0,6.413960934E0,6.409175396E0
2.617013605E1,-4.144368649E0,6.136393547E0,7.429714203E0
2.618982970E1,-4.110869408E0,5.720042706E0,7.600800991E0
2.620952324E1,-4.157529354E0,5.174479008E0,7.182057381E0
2.622921678E1,-4.396811485E0,4.718646049E0,6.984649181E0
2.624891032E1,-4.469792843E0,4.575077057E0,7.325626373E0
2.626860386E1,-4.322634220E0,4.600201607E0,7.288537979E0
2.628829751E1,-4.066602230E0,4.624129772E0,7.049255371E0
2.630799105E1,-3.668197155E0,4.487739086E0,7.392625332E0
2.632768459E1,-3.092723370E0,4.640879631E0,8.055437088E0
2.634737813E1,-2.477767944E0,5.045266628E0,8.374878883E0
2.636707168E1,-1.844866276E0,5.241477966E0,8.537590981E0
2.638676532E1,-1.523031592E0,5.156532764E0,8.952746391E0
2.640645886E1,-1.182054400E0,4.633700848E0,8.883354187E0
2.642615240E1,-7.836494446E-1,3.891926050E0,9.177671432E0
2.644584595E1,-2.883351147E-1,3.494717360E0,9.690931320E0
2.646553959E1,-4.905286431E-2,3.243471146E0,9.562915802E0
2.648523313E1,-2.081755698E-1,2.590230465E0,9.239884377E0
2.650492668E1,-6.305087805E-1,2.362912416E0,9.372686386E0
2.652462022E1,-9.990034699E-1,2.446661234E0,9.869196892E0
2.654431386E1,-2.847459018E-1,2.039881229E0,8.909674644E0
2.656400740E1,2.895315289E-1,1.654636860E0,8.612964630E0
2.658370095E1,5.670989752E-1,2.035095692E0,9.559326172E0
2.660339449E1,7.621139884E-1,2.009970903E0,1.082632637E1
2.662308813E1,9.583254457E-1,1.660618901E0,1.073779202E1
2.664278168E1,1.250249863E0,1.524227977E0,1.006421185E1
2.666247522E1,2.340180635E0,8.470591903E-1,9.120243073E0
2.668216886E1,5.217549801E0,1.016949639E-1,7.714460373E0
2.670186240E1,3.541377544E0,7.525427341E-1,1.053679466E1
2.672155595E1,2.128415823E0,1.180858016E0,1.073420238E1
2.674124959E1,1.344766378E0,1.846062660E0,9.481559753E0
2.676094313E1,8.829515576E-1,2.640479803E0,8.843872070E0
2.678063668E1,8.817551732E-1,3.272184849E0,8.579465866E0
2.680033022E1,8.530412912E-1,3.501895905E0,8.321041107E0
2.682002386E1,4.929214716E-1,3.561716557E0,8.319844246E0
2.683971741E1,2.991028316E-2,3.519842148E0,8.593822479E0
2.685941095E1,-2.656033039E-1,3.332005501E0,9.151350021E0
2.687910459E1,-5.730810165E-1,3.218346357E0,9.445667267E0
2.689879813E1,-5.874379873E-1,2.959921598E0,9.343972206E0
2.691849168E1,-8.015955687E-1,2.737389088E0,8.877371788E0
2.693818532E1,-1.087537885E0,2.495713949E0,8.236095428E0
2.695787886E1,-1.055234790E0,2.252842426E0,7.984848976E0
2.697757240E1,-8.350951076E-1,2.190629244E0,8.072187424E0
2.699726605E1,-6.484549642E-1,2.517249346E0,8.200202942E0
2.701695959E1,-4.199403822E-1,2.885744095E0,7.952546120E0
2.703665324E1,-2.297109663E-1,3.090330362E0,7.719245911E0
2.705634678E1,1.447657645E-1,3.189632654E0,7.511070251E0
2.707604032E1,5.012963414E-1,3.213560820E0,7.312466145E0
2.709573397E1,7.357929349E-1,3.361915827E0,7.044469833E0
2.711542751E1,9.643075466E-1,3.584448338E0,6.805187702E0
2.713512105E1,1.171286702E0,3.955335855E0,6.351747513E0
2.715481470E1,1.392622828E0,4.310669899E0,5.534598827E0
2.717450824E1,1.964507341E0,4.481756687E0,4.820341110E0
2.719420178E1,3.209971666E0,4.768895626E0,5.905486107E0
2.721389543E1,4.058227062E0,5.643472195E0,8.544769287E0
2.723358897E1,4.071387768E0,6.495316982E0,1.033579731E1
2.725328261E1,3.154936552E0,6.723831654E0,1.106201935E1
2.727297616E1,1.952543259E0,6.172286034E0,1.182652569E1
2.729266970E1,4.474578202E-1,5.541777134E0,1.274895859E1
2.731236334E1,-6.747759581E-1,5.644668579E0,1.238644600E1
2.733205688E1,-8.662018180E-1,5.599205017E0,9.499505997E0
2.735175053E1,-4.606183469E-1,4.661218643E0,9.918250084E0
2.737144407E1,-3.852444589E-1,2.794816732E0,1.261496067E1
2.739113761E1,-1.202393413E0,1.371087432E0,1.345364571E1
2.741083126E1,-2.127219439E0,6.616154313E-1,1.256112289E1
2.743052480E1,-2.346162558E0,6.879364848E-1,1.036092186E1
2.745021845E1,-2.464607239E0,1.052842021E0,7.956135273E0
2.746991199E1,-3.101098061E0,1.456032634E0,6.679564476E0
2.748960563E1,-3.480360508E0,2.120040894E0,6.324230194E0
2.750929918E1,-3.024527788E0,2.532802820E0,6.955935478E0
2.752899272E1,-2.533999205E0,2.946761131E0,8.377271652E0
2.754868636E1,-2.316252232E0,3.152543783E0,9.625128746E0
2.756837990E1,-2.505285263E0,3.205185890E0,1.062413216E1
2.758807355E1,-2.751745939E0,2.813959360E0,1.097946644E1
2.760776709E1,-2.650051117E0,2.544766903E0,1.086102200E1
2.762746074E1,-2.458625317E0,2.163111687E0,1.019222832E1
2.764715428E1,-2.184647083E0,1.658226132E0,1.049970531E1
2.766684793E1,-1.663011789E0,9.655039310E-1,1.072941685E1
2.768654147E1,-1.134197950E0,3.840480447E-1,1.059302616E1
2.770623501E1,-1.229910851E0,9.092725813E-2,9.467203140E0
2.772592866E1,-1.572084427E0,1.710868180E-1,7.485945702E0
2.774562220E1,-1.593619823E0,5.036891699E-1,5.624329567E0
2.776531584E1,-1.312463164E0,1.233500123E0,5.572884083E0
2.778500938E1,-1.028913707E-1,2.615355253E0,7.068397999E0
2.780470303E1,4.486542344E-1,3.255435228E0,7.793423176E0
2.782439657E1,-1.861616015E0,2.127219439E0,6.934400082E0
2.784409022E1,-3.755535126E0,8.733802438E-1,5.995217323E0
2.786378376E1,-5.325226784E0,1.319641709E0,6.172286034E0
2.788347740E1,-4.224528313E0,2.833101988E0,7.173682213E0
2.790317095E1,-2.596212626E0,3.836891174E0,7.990831375E0
2.792286459E1,-2.018345833E0,4.225724697E0,8.230113029E0
2.794255813E1,-1.360319614E0,3.803391695E0,8.608179092E0
2.796225178E1,-1.926222205E0,4.005585194E0,9.597611427E0
2.798194532E1,-2.538784742E0,4.159922123E0,9.644271851E0
2.800163886E1,-2.811566591E0,4.347758770E0,9.470791817E0
2.802133251E1,-3.424129248E0,5.249852657E0,1.064447117E1
2.804102605E1,-4.601397991E0,6.543173313E0,1.130369377E1
2.806071970E1,-4.843072891E0,6.601797581E0,1.106919765E1
2.808041324E1,-3.170490026E0,5.284548759E0,7.942974567E0
2.810010688E1,-2.975475073E0,2.928814888E0,9.006584167E0
2.811980043E1,-3.409772158E0,7.166503668E-1,1.169492054E1
2.813949407E1,-2.163111687E0,7.118647099E-1,1.345962715E1
2.815918761E1,-8.135596663E-2,1.757528186E0,1.234576797E1
2.817888126E1,1.490728498E0,2.898904562E0,1.004985523E1
2.819857480E1,2.270788670E0,4.047459602E0,8.562715530E0
2.821826845E1,2.210968018E0,4.899304390E0,6.745367050E0
2.823796199E1,5.623133183E-1,5.134997368E0,5.357530117E0
2.825765563E1,-1.383051515E0,5.120640278E0,4.748556614E0
2.827734918E1,-1.806581140E0,4.789234638E0,4.945964336E0
2.829704282E1,-9.248259664E-1,4.876572609E0,6.205785751E0
2.831673636E1,-5.982056726E-3,5.459224701E0,7.551748276E0
2.833643001E1,1.351944804E-1,6.488138676E0,8.362915039E0
2.835612366E1,1.866401732E-1,7.081558704E0,8.805587769E0
2.837581720E1,8.709874153E-1,6.798008919E0,1.004985523E1
2.839551084E1,8.099704385E-1,5.948556900E0,1.095553875E1
2.841520438E1,0.000000000E0,5.045266628E0,1.050090218E1
2.843489803E1,-2.644068897E-1,4.236492634E0,9.780662537E0
2.845459157E1,4.989035130E-1,3.408575773E0,8.979066849E0
2.847428522E1,1.409372568E0,2.236092806E0,8.472985268E0
2.849397876E1,1.698904037E0,1.396211982E0,8.419146538E0
2.851367230E1,1.517049551E0,1.423729420E0,7.430910587E0
2.853336595E1,1.367498159E0,2.088934183E0,5.286941528E0
2.855305959E1,1.317248821E0,3.220739365E0,3.136990547E0
2.857275313E1,8.709874153E-1,4.766502857E0,2.524427891E0
2.859244678E1,6.197410822E-1,5.870790482E0,2.904886723E0
2.861214043E1,1.395015597E0,5.918646812E0,2.928814888E0
2.863183397E1,1.773081541E0,5.130211830E0,4.425525665E0
2.865152761E1,2.480160713E0,5.684150219E0,8.872586250E0
2.867122116E1,2.670390129E0,6.507281303E0,1.275015545E1
2.869091480E1,1.872383714E0,5.832505226E0,1.199880886E1
2.871060834E1,9.535398483E-1,5.023731232E0,1.008096218E1
2.873030188E1,-4.606183469E-1,6.325426579E0,1.012881851E1
2.874999553E1,3.290131092E-1,7.194021225E0,9.074779510E0
2.876968918E1,1.552941918E0,6.437889099E0,8.544769287E0
2.878938272E1,-8.494520187E-2,6.234499454E0,8.969495773E0
2.880907636E1,-3.266202807E-1,5.660222054E0,9.883553505E0
2.882877001E1,3.230310604E-2,6.081358910E0,1.087178993E1
2.884846355E1,1.208375454E0,7.657032490E0,1.178345490E1
2.886815709E1,2.492124796E0,8.146365166E0,1.186959648E1
2.888785074E1,2.307877541E0,7.113861561E0,1.082991505E1
2.890754438E1,9.439685345E-1,5.724828243E0,9.767501831E0
2.892723793E1,-3.469592929E-1,4.560719967E0,9.079565048E0
2.894693157E1,-2.488535494E-1,3.992424488E0,8.348558426E0
2.896662511E1,4.713860750E-1,3.969692707E0,6.988238335E0
2.898631876E1,5.910272002E-1,3.661018610E0,5.361119270E0
2.900601240E1,6.484549642E-1,2.999403238E0,4.652843475E0
2.902570595E1,7.728816867E-1,2.584248543E0,4.855037212E0
2.904539959E1,2.249253243E-1,2.615355253E0,5.380261898E0
2.906509313E1,-5.718846321E-1,3.085544825E0,5.830112457E0
2.908478678E1,-8.063812256E-1,3.769891977E0,5.840879917E0
2.910448032E1,1.076770201E-2,3.957728624E0,5.711667538E0
2.912417397E1,8.949156404E-1,4.092923164E0,5.765506268E0
2.914386761E1,1.209571838E0,5.515456200E0,6.143572330E0
2.916356116E1,1.266999602E0,6.482156754E0,6.332605362E0
2.918325480E1,1.469193101E0,5.907878876E0,6.923632145E0
2.920294834E1,1.460818172E0,4.683950424E0,8.256434441E0
2.922264199E1,1.032503009E0,4.208974838E0,8.652446747E0
2.924233553E1,7.094719410E-1,4.700700283E0,7.520641804E0
2.926202918E1,8.913264275E-1,5.666203976E0,7.062416077E0
2.928172272E1,8.075776696E-1,6.875775814E0,9.196813583E0
2.930141636E1,-5.371887088E-1,7.960920811E0,1.094836044E1
2.932111001E1,-7.405785918E-1,8.139185905E0,9.936196327E0
2.934080355E1,1.322034478E0,6.332605362E0,8.474181175E0
2.936049720E1,2.484946251E0,5.257031441E0,8.970691681E0
2.938019074E1,3.241078377E0,5.527420521E0,1.113739300E1
2.939988438E1,3.592823267E0,5.777470112E0,1.314975643E1
2.941957793E1,3.488735437E0,6.318248272E0,1.370967770E1
2.943927157E1,4.005585194E0,6.471388817E0,1.242473125E1
2.945896522E1,4.219742775E0,6.064609051E0,1.076530933E1
2.947865876E1,3.780659676E0,5.593223095E0,9.541379929E0
2.949835241E1,2.965903759E0,5.157729149E0,8.864211082E0
2.951804595E1,2.218146563E0,4.475774765E0,8.638090134E0
2.953773959E1,1.611566067E0,3.857230186E0,8.088936806E0
2.955743324E1,1.365105271E0,3.596412420E0,7.210771084E0
2.957712678E1,1.166501045E0,3.481556892E0,6.148357868E0
2.959682043E1,1.050449133E0,3.332005501E0,5.739185333E0
2.961651397E1,1.074377418E0,3.093919754E0,5.921039581E0
2.963620761E1,8.721838593E-1,3.047259569E0,5.716453075E0
2.965590116E1,7.010970116E-1,3.377469063E0,5.264209747E0
2.967559480E1,6.245267391E-1,3.885943890E0,5.169693470E0
2.969528834E1,2.213360965E-1,4.059423447E0,5.511867046E0
2.971498199E1,9.930214286E-2,3.958925009E0,5.874379635E0
2.973467563E1,6.460621357E-1,3.872783422E0,6.508477688E0
2.975436918E1,9.978070259E-1,3.748356581E0,7.829315662E0
2.977406282E1,8.721838593E-1,3.552145243E0,8.745766640E0
2.979375636E1,4.007977843E-1,3.379862070E0,8.281558990E0
2.981345001E1,1.328016520E-1,3.287738323E0,7.919046402E0
2.983314355E1,1.902294010E-1,3.884747505E0,8.744570732E0
2.985283720E1,8.195417523E-1,5.489135265E0,9.722038269E0
2.987253084E1,1.965703845E0,7.325626373E0,1.087178993E1
2.989222438E1,2.734996319E0,8.726624489E0,1.204427242E1
2.991191803E1,2.327019930E0,9.092725754E0,1.218185997E1
2.993161157E1,1.299302697E0,8.352147102E0,1.124507046E1
2.995130522E1,1.211964726E0,6.935596466E0,1.038843918E1
2.997099876E1,1.586441398E0,5.538187981E0,1.086580753E1
2.999069240E1,1.050449133E0,4.560719967E0,1.171645641E1
3.001038595E1,-9.332008660E-2,3.962514400E0,1.174875927E1
3.003007959E1,-5.096712112E-1,3.705285788E0,1.087418270E1
3.004977324E1,4.725824594E-1,4.070191383E0,9.359525681E0
3.006946678E1,1.463211060E0,4.579862595E0,7.639086246E0
3.008916043E1,1.552941918E0,4.859822750E0,6.506084919E0
3.010885397E1,1.190429211E0,4.715056896E0,5.980860233E0
3.012854761E1,7.800601721E-1,4.183850288E0,5.796612740E0
3.014824116E1,3.924229145E-1,3.570091486E0,5.663811207E0
3.016793480E1,9.571290575E-3,3.104687452E0,5.557330608E0
3.018762834E1,-4.474578202E-1,2.681157827E0,5.833701611E0
3.020732199E1,-9.523434043E-1,2.316252232E0,6.684350014E0
3.022701553E1,-1.560120344E0,2.632104874E0,7.406982422E0
3.024670918E1,-1.336391449E0,3.346362352E0,6.844669342E0
3.026640282E1,-9.643075466E-1,3.690928936E0,6.313462734E0
3.028609636E1,-1.008574724E0,4.116851330E0,7.259823799E0
3.030579001E1,-6.472585201E-1,4.399204254E0,7.998009682E0
3.032548355E1,-5.790630579E-1,4.304687977E0,7.741977692E0
3.034517720E1,-8.291130662E-1,3.604787350E0,6.921239376E0
3.036487074E1,-9.834501147E-1,3.318845034E0,6.618547440E0
3.038456438E1,-1.122233868E0,4.368097782E0,6.746563435E0
3.040425793E1,-1.411765367E-1,6.208178520E0,7.144968510E0
3.042395157E1,3.337987661E-1,8.344968796E0,9.098708153E0
3.044364511E1,-6.951149702E-1,1.043988514E1,1.041835022E1
3.046333876E1,-1.227517962E0,9.684949875E0,1.123071289E1
3.048303241E1,-1.476371527E0,6.774080753E0,1.212084293E1
3.050272595E1,-9.918249846E-1,4.668396950E0,1.282672596E1
3.052241959E1,-7.058826834E-2,3.724428415E0,1.277288723E1
3.054211313E1,2.524427772E-1,3.951746702E0,1.286261845E1
3.056180678E1,3.337987661E-1,4.604987144E0,1.299302673E1
3.058150032E1,1.350748420E0,4.820341110E0,1.212562847E1
3.060119397E1,1.919043779E0,4.863411903E0,1.063011456E1
3.062088751E1,1.452443361E0,4.887340069E0,9.321240425E0
3.064058116E1,8.829515576E-1,4.867001057E0,8.571090698E0
3.066027470E1,3.026920557E-1,4.553541660E0,7.666603565E0
3.067996834E1,5.000999570E-1,4.476971149E0,7.173682213E0
3.069966188E1,1.159322619E0,4.810770035E0,6.710670948E0
3.071935553E1,1.121037364E0,5.120640278E0,5.714060307E0
3.073904907E1,5.443671346E-1,5.233103275E0,5.414957523E0
3.075874272E1,4.666004330E-2,4.893322468E0,6.326622963E0
3.077843626E1,1.196411345E-2,4.807180882E0,7.429714203E0
3.079812991E1,6.472585201E-1,5.235496044E0,8.288737297E0
3.081782345E1,1.399801254E0,5.505885124E0,8.322237015E0
3.083751709E1,1.428515077E0,5.538187981E0,7.862815380E0
3.085721063E1,1.018146038E0,5.051248550E0,7.052844524E0
3.087690428E1,6.065805554E-1,4.435096741E0,6.854240417E0
3.089659782E1,6.999006271E-1,4.060619831E0,7.211967468E0
3.091629147E1,1.282552958E0,3.798605919E0,7.621140003E0
3.093598501E1,1.751546144E0,3.561716557E0,7.716853142E0
3.095567866E1,1.549352646E0,3.446861029E0,7.128218651E0
3.097537220E1,8.937192559E-1,3.371487141E0,5.965306759E0
3.099506584E1,4.319044948E-1,3.430111170E0,4.871787071E0
3.101475938E1,1.196411327E-1,3.804588079E0,4.457828522E0
3.103445303E1,3.589233849E-3,4.423132420E0,5.160121918E0
3.105414657E1,3.816552162E-1,4.901697159E0,6.083751678E0
3.107384022E1,1.119840980E0,5.393422127E0,6.602993965E0
3.109353376E1,1.800599098E0,5.971288681E0,6.471388817E0
3.111322740E1,1.869990945E0,6.264409542E0,6.063412666E0
3.113292095E1,9.942178130E-1,6.228517532E0,5.988038540E0
3.115261459E1,3.900300860E-1,6.569494724E0,6.720242500E0
3.117230813E1,4.701896608E-1,7.706085205E0,7.986045361E0
3.119200178E1,1.105484009E0,9.214759827E0,8.702695847E0
3.121169532E1,1.383051515E0,9.407382011E0,1.042433167E1
3.123138897E1,-1.567298770E-1,7.977670670E0,1.252762318E1
3.125108251E1,-2.580659151E0,7.316055298E0,1.319163132E1
3.127077616E1,-1.713261008E0,7.138986588E0,1.190548897E1
3.129046970E1,1.277767301E0,6.699903488E0,1.149870968E1
3.131016324E1,2.608176708E0,6.865008354E0,1.231466198E1
3.132985688E1,2.267199516E0,7.056434155E0,1.357328606E1
3.134955043E1,1.099501967E0,6.524031162E0,1.259701443E1
3.136924407E1,-2.584248483E-1,5.644668579E0,9.944570541E0
3.138893761E1,-1.067198873E0,5.071587563E0,7.021738052E0
3.140863126E1,-9.978070259E-1,4.715056896E0,5.239085197E0
3.142832480E1,-6.137589812E-1,4.706682205E0,4.749752998E0
3.144801845E1,9.571290575E-3,5.089533806E0,4.667200565E0
3.146771199E1,6.987041831E-1,5.402993679E0,4.240081787E0
3.148740563E1,7.585247755E-1,5.285745144E0,3.607180119E0
3.150709918E1,4.713860750E-1,4.780859470E0,3.507878065E0
3.152679282E1,2.464607358E-1,4.267599106E0,4.843072891E0
3.154648636E1,2.524427772E-1,3.762713671E0,7.008577347E0
3.156618001E1,-1.184447184E-1,3.280559778E0,8.873783112E0
3.158587355E1,-6.281159520E-1,3.068794966E0,9.585647583E0
3.160556720E1,-5.335994363E-1,2.946761131E0,9.613164902E0
3.162526074E1,-5.982056633E-2,3.104687452E0,8.866603851E0
3.164495438E1,-4.785645287E-3,3.449253798E0,8.024331093E0
3.166464793E1,-4.761717021E-1,3.864408493E0,7.097112179E0
3.168434157E1,-1.086341500E0,3.937389612E0,6.052644730E0
3.170403511E1,-1.619940877E0,3.804588079E0,4.826323509E0
3.172372876E1,-1.793420553E0,3.988835335E0,3.853640795E0
3.174342230E1,-1.537388563E0,4.396811485E0,3.512663603E0
3.176311595E1,-1.377069473E0,4.955535889E0,4.631308079E0
3.178280949E1,-1.544566989E0,6.098108292E0,6.118447304E0
3.180250313E1,-1.579262972E0,7.219145775E0,7.646264553E0
3.182219668E1,-2.043470621E0,7.751548767E0,9.504291534E0
3.184189022E1,-2.647658348E0,7.701299667E0,8.959924698E0
3.186158386E1,-1.771885157E0,7.451249599E0,7.879564762E0
3.188127751E1,5.264210105E-1,7.814958572E0,7.998009682E0
3.190097105E1,1.718046665E0,8.032705307E0,1.098425198E1
3.192066470E1,1.712064624E0,6.678368092E0,1.560479259E1
3.194035824E1,1.290927768E0,4.646861553E0,1.794736671E1
3.196005178E1,6.855437160E-1,3.152543783E0,1.670549202E1
3.197974543E1,1.106680512E0,2.971885681E0,1.399442291E1
3.199943897E1,2.139183521E0,3.795016766E0,1.158006477E1
3.201913261E1,2.572284460E0,4.710271358E0,9.799804688E0
3.203882616E1,2.282752752E0,4.943571568E0,8.677571297E0
3.205851980E1,1.500299811E0,4.406383038E0,7.905886173E0
3.207821334E1,6.352944374E-1,3.610769272E0,6.801598549E0
3.209790699E1,3.780659735E-1,2.999403238E0,5.620740414E0
3.211760053E1,7.393822074E-1,3.022135019E0,4.414757729E0
3.213729418E1,8.781659007E-1,3.376272678E0,3.312862873E0
3.215698772E1,6.137589812E-1,3.421736479E0,2.918047190E0
3.217668136E1,2.512463629E-1,3.321237803E0,3.005385160E0
3.219637490E1,-2.153540403E-2,3.364308596E0,3.580859184E0
3.221606855E1,1.471585929E-1,3.442075491E0,4.931607246E0
3.223576209E1,8.123632669E-1,3.864408493E0,7.109076023E0
3.225545574E1,1.818545222E0,3.936193228E0,8.539983749E0
3.227514938E1,2.907279491E0,3.519842148E0,8.816354752E0
3.229484293E1,3.559323788E0,3.284149170E0,9.095118523E0
3.231453657E1,3.869194269E0,3.408575773E0,8.910871506E0
3.233423011E1,2.420340061E0,4.640879631E0,8.361719131E0
3.235392376E1,9.858429432E-1,6.197410583E0,7.515855789E0
3.237361730E1,-8.255238086E-2,7.079165936E0,9.169296265E0
3.239331095E1,-9.080761671E-1,6.947560310E0,1.087418270E1
3.241300449E1,-9.619147182E-1,6.733402729E0,1.218664551E1
3.243269813E1,3.864408433E-1,6.631708145E0,1.203709412E1
3.245239168E1,1.381855130E0,7.101897717E0,1.076171970E1
3.247208532E1,1.776670814E0,7.484749317E0,9.858428955E0
3.249177886E1,1.411765337E0,7.899903774E0,9.747162819E0
3.251147251E1,6.831508875E-1,8.019545555E0,1.015513897E1
3.253116605E1,4.402793646E-1,7.264609337E0,1.016351414E1
3.255085970E1,4.833501875E-1,6.291927338E0,1.013240719E1
3.257055324E1,3.457628787E-1,5.067998409E0,1.004865837E1
3.259024688E1,5.024927258E-1,3.966103554E0,8.995817184E0
3.260994043E1,8.075776696E-1,3.688536167E0,7.106683254E0
3.262963407E1,5.682953596E-1,3.743571043E0,5.328815937E0
3.264932761E1,1.088734269E-1,4.000799656E0,3.815355778E0
3.266902126E1,-3.529413342E-1,3.993621111E0,3.168097258E0
3.268871480E1,-5.850451589E-1,4.173082829E0,3.120240688E0
3.270840845E1,-8.291130662E-1,4.407579422E0,3.487539053E0
3.272810199E1,-7.944171429E-1,4.606183529E0,4.524827480E0
3.274779563E1,-1.986042857E-1,4.480560303E0,6.212964058E0
3.276748918E1,7.238288522E-1,3.970889091E0,6.951149940E0
3.278718282E1,7.573283911E-1,3.681357622E0,7.048058987E0
3.280687636E1,-1.639083475E-1,4.189832687E0,8.829515457E0
3.282657001E1,-5.288137794E-1,4.699503899E0,1.054038334E1
3.284626355E1,-6.101697683E-2,4.348955154E0,1.061695385E1
3.286595720E1,6.891329288E-1,4.603790760E0,9.827322960E0
3.288565074E1,-1.591227055E-1,6.136393547E0,9.510273933E0
3.290534438E1,-2.541177750E0,8.135597229E0,9.638289452E0
3.292503793E1,-2.173879385E0,8.449056625E0,1.039681435E1
3.294473157E1,-1.519442320E0,6.478567123E0,1.124985600E1
3.296442511E1,-2.322234392E0,4.582255363E0,1.188634682E1
3.298411866E1,-2.398804665E0,4.095315933E0,1.175713444E1
3.300381230E1,-1.316052437E0,5.069194794E0,1.115653515E1
3.302350584E1,-1.579262912E-1,6.813562393E0,1.024487019E1
3.304319949E1,5.958128572E-1,7.447660446E0,9.560523033E0
3.306289303E1,8.745766878E-1,7.111468792E0,8.612964630E0
3.308258668E1,6.376872063E-1,5.866004944E0,7.905886173E0
3.310228022E1,2.536391914E-1,4.508078098E0,7.445267677E0
3.312197376E1,-1.782652885E-1,3.818944931E0,6.599404812E0
3.314166740E1,-1.806581169E-1,4.043870449E0,5.592026711E0
3.316136105E1,-2.488535494E-1,4.339384079E0,5.184050083E0
3.318105459E1,-4.725824594E-1,4.180261135E0,4.737788677E0
3.320074824E1,-5.467599630E-1,3.873979807E0,4.528416634E0
3.322044178E1,-4.821537733E-1,3.796213150E0,5.077569485E0
3.324013543E1,-5.072783828E-1,3.816552162E0,6.343372822E0
3.325982897E1,-4.869394004E-1,3.909872293E0,7.403393269E0
3.327952251E1,-5.491527915E-1,3.778266907E0,7.875975609E0
3.329921616E1,-1.168893814E0,3.403790236E0,8.070990562E0
3.331890970E1,-2.065006018E0,3.352344513E0,7.783852100E0
3.333860334E1,-2.897708178E0,3.994817495E0,7.076773167E0
3.335829688E1,-2.711068153E0,5.102694511E0,8.061419487E0
3.337799053E1,-2.884547710E0,5.505885124E0,1.063609695E1
3.339768407E1,-4.523631096E0,6.111268997E0,9.460023880E0
3.341737772E1,-3.471985579E0,7.265805721E0,5.432903767E0
3.343707126E1,-1.470389485E0,7.953742504E0,5.551348686E0
3.345676480E1,-7.740781307E-1,8.331808090E0,8.419146538E0
3.347645845E1,-1.252642632E0,7.158128738E0,1.142572784E1
3.349615199E1,-1.639083505E0,5.910272121E0,1.185045433E1
3.351584563E1,-1.710868239E0,4.973481655E0,1.094716358E1
3.353553918E1,-1.835294962E0,4.188635826E0,1.106919765E1
3.355523282E1,-2.102094650E0,3.664607763E0,1.125823021E1
3.357492636E1,-1.494317770E0,3.887140274E0,1.117208862E1
3.359461990E1,-7.668996453E-1,4.347758770E0,9.032905579E0
3.361431355E1,-3.756731451E-1,4.528416634E0,5.274977684E0
3.363400709E1,-7.668996453E-1,4.473381996E0,3.151347399E0
3.365370074E1,-1.456032634E0,4.353740692E0,3.524627686E0
3.367339428E1,-1.787438512E0,4.051048756E0,5.114658356E0
3.369308782E1,-9.367900491E-1,3.565305710E0,6.252445698E0
3.371278147E1,-2.153540403E-2,3.462414265E0,6.966702938E0
3.373247501E1,2.967100143E-1,3.681357622E0,7.130611420E0
3.375216855E1,2.309073806E-1,4.102494240E0,7.210771084E0
3.377186220E1,0.000000000E0,5.051248550E0,7.375875950E0
3.379155574E1,2.512463629E-1,6.491727829E0,8.177471161E0
3.381124938E1,5.168496966E-1,8.266005516E0,1.118764210E1
3.383094293E1,2.751746178E-1,9.418149948E0,1.185404301E1
3.385063647E1,2.644068897E-1,9.412167549E0,1.004985523E1
3.387033011E1,-2.847459018E-1,8.689535141E0,8.805587769E0
3.389002366E1,-6.269195080E-1,7.530212879E0,1.036331463E1
3.390971730E1,2.333002090E-1,6.303891182E0,1.148076344E1
3.392941084E1,9.559326172E-1,6.483353138E0,1.143290615E1
3.394910438E1,1.789831281E0,7.667799950E0,1.091725349E1
3.396879803E1,2.658426046E0,8.029116631E0,1.024008465E1
3.398849157E1,2.688336134E0,7.277770042E0,9.400203705E0
3.400818511E1,2.378465652E0,6.233303070E0,8.239685059E0
3.402787876E1,1.980060697E0,5.469992638E0,6.726224422E0
3.404757230E1,1.360319614E0,5.137390137E0,5.559723377E0
3.406726584E1,9.810572863E-1,4.633700848E0,4.565505505E0
3.408695949E1,3.672982752E-1,3.852444410E0,3.530609846E0
3.410665303E1,-1.794617027E-1,3.079562664E0,3.273381472E0
3.412634657E1,-3.601198196E-1,2.824727058E0,3.866801500E0
3.414604022E1,-2.117647976E-1,3.050848961E0,4.955535889E0
3.416573376E1,-1.615155339E-1,3.420539856E0,5.625525951E0
3.418542730E1,-3.696911037E-1,3.884747505E0,6.721438885E0
3.420512095E1,-3.290131092E-1,4.229313850E0,8.933603287E0
3.422481449E1,-5.790630579E-1,4.338187218E0,8.961120605E0
3.424450803E1,-5.587241054E-1,5.148158073E0,7.654639721E0
3.426420157E1,2.512463741E-2,6.733402729E0,6.491727829E0
3.428389522E1,8.255238086E-2,8.019545555E0,5.870790482E0
3.430358876E1,-8.721838593E-1,8.444271088E0,6.861418724E0
3.432328230E1,-2.385644197E0,8.937192917E0,6.662814617E0
3.434297595E1,-2.487339020E0,9.608379364E0,5.163711071E0
3.436266949E1,-9.260223508E-1,8.740981102E0,6.230910301E0
3.438236303E1,-7.621139884E-1,6.530013084E0,9.913464546E0
3.440205668E1,-1.694118381E0,4.424329281E0,1.290927792E1
3.442175022E1,-2.173879385E0,4.106083870E0,1.170688438E1
3.444144376E1,-1.379462242E0,5.408975601E0,8.592626572E0
3.446113730E1,-1.099501967E0,6.844669342E0,6.306283951E0
3.448083095E1,-1.258624673E0,7.464410305E0,5.681757450E0
3.450052449E1,-1.578066587E0,7.066005230E0,6.545566559E0
3.452021803E1,-1.808973908E0,6.084948063E0,7.562515736E0
3.453991157E1,-2.169093609E0,5.243870735E0,6.808776855E0
3.455960522E1,-2.435893536E0,4.798805714E0,6.159125328E0
3.457929876E1,-2.419143677E0,4.573880672E0,6.701099873E0
3.459899230E1,-2.311466694E0,4.899304390E0,7.069594383E0
3.461868584E1,-2.226521492E0,4.981856823E0,6.373282909E0
3.463837949E1,-2.831905603E0,4.333401680E0,3.119044304E0
3.465807293E1,-2.066202402E0,4.494917393E0,7.430910587E0
3.468926118E1,-1.221535921E0,6.313462734E0,7.616354465E0
3.470752186E1,-1.707278967E0,5.962913990E0,7.122236729E0
3.472721530E1,-1.438086390E0,5.578866005E0,7.713263988E0
3.474690874E1,-1.270588875E0,5.406582832E0,8.572287560E0
3.476660218E1,-9.272187948E-1,5.236692429E0,9.236295700E0
3.478629562E1,-7.274180651E-1,5.211567879E0,9.610772133E0
3.480598905E1,-8.422735929E-1,5.277370453E0,9.178867340E0
3.482568249E1,-1.356730461E0,5.094319344E0,8.641678810E0
3.484537593E1,-1.655833244E0,4.595416069E0,8.015955925E0
3.486506936E1,-1.707278967E0,4.292723656E0,8.050651550E0
3.488476280E1,-1.335195065E0,4.143172264E0,8.334200859E0
3.490445624E1,-9.678967595E-1,4.007977962E0,8.289934158E0
3.492414968E1,-4.414757788E-1,3.692125320E0,8.196614265E0
3.494384312E1,-2.991028428E-1,3.219542980E0,8.208578110E0
3.496353666E1,-4.977070987E-1,2.682354212E0,9.348757744E0
3.498323009E1,-7.298108935E-1,1.981257200E0,1.046979523E1
3.500292353E1,-7.944171429E-1,1.588834286E0,1.016829967E1
3.502261697E1,-8.626125455E-1,1.836491346E0,8.490931511E0
3.504231041E1,-9.655039310E-1,2.054238319E0,7.089933395E0
3.506200384E1,-4.701896608E-1,1.633101463E0,6.827919483E0
3.508169728E1,-8.494520187E-2,9.834501147E-1,7.719245911E0
3.510139072E1,-2.428714931E-1,3.828516230E-2,8.854640007E0
3.512108416E1,-8.063812256E-1,-5.551348329E-1,9.511469841E0
3.514077759E1,-9.367900491E-1,-1.176072359E0,9.850054741E0
3.516047114E1,-1.533799291E0,-1.179661512E0,1.098903847E1
3.518016457E1,-1.530210137E0,-1.659422517E0,1.107876873E1
3.519985801E1,3.349951655E-2,-2.148754835E0,1.064207840E1
3.521955145E1,9.020941257E-1,-3.028116941E0,1.095673466E1
3.523924489E1,8.386843204E-1,-4.850251675E0,1.295474148E1
3.525893832E1,1.670190215E0,-6.605386734E0,1.322393417E1
3.527863176E1,1.570888042E0,-6.792026997E0,1.269512081E1
3.529832530E1,-1.377069473E0,-5.097908497E0,1.280877972E1
3.531801874E1,-2.778067112E0,-4.526023865E0,1.120319557E1
3.533771218E1,-3.564109325E0,-4.481756687E0,8.965906143E0
3.535740562E1,-4.766502857E0,-4.197010994E0,7.945367813E0
3.537709905E1,-4.198207378E0,-2.970689297E0,8.494520187E0
3.539679249E1,-4.162314892E0,-2.194218397E0,8.468199730E0
3.541648603E1,-4.381258488E0,-1.551745534E0,8.029116631E0
3.543617947E1,-4.418346882E0,-6.352944374E-1,8.051848412E0
3.545587291E1,-3.942175388E0,-9.332008660E-2,8.167900085E0
3.547556634E1,-3.798605919E0,2.672782898E0,9.820143700E0
3.549525978E1,-4.407579422E0,4.784449100E0,8.309076309E0
3.551495322E1,-4.577469826E0,2.888136864E0,6.543173313E0
3.553464676E1,-3.728017569E0,2.553141832E0,5.273781300E0
3.555434020E1,-5.318048477E0,2.379662037E0,5.258227825E0
3.557403364E1,-5.547759533E0,1.932204247E0,4.919643402E0
3.559372707E1,-4.614558697E0,2.383251429E0,7.625925541E0
3.561342051E1,-3.692125320E0,2.286342144E0,8.717052460E0
3.563311395E1,-3.153740168E0,1.879562140E0,7.208378315E0
3.565280749E1,-2.194218397E0,2.166700840E0,6.605386734E0
3.567250093E1,-2.023131609E0,1.684547186E0,6.088537216E0
3.569219436E1,-1.825723648E0,1.325623751E0,5.331208706E0
3.571188780E1,-2.030309916E0,1.651047587E0,7.750352383E0
3.573158124E1,-2.219342947E0,2.512463808E0,9.871589661E0
3.575127478E1,-1.835294962E0,3.333201885E0,7.546962738E0
3.577096822E1,-1.154536963E0,3.918246984E0,8.248059273E0
3.579066166E1,-2.488535494E-1,3.546163082E0,9.649057388E0
3.581035509E1,1.355534077E0,3.177668571E0,9.946963310E0
3.583004853E1,1.799402595E0,3.125026464E0,1.004985523E1
3.584974197E1,1.743171334E0,3.172882795E0,1.070429230E1
3.586943551E1,1.616351724E0,3.256631613E0,1.022931671E1
3.588912895E1,1.171286702E0,3.422932863E0,9.269794464E0
3.590882239E1,5.922235847E-1,3.561716557E0,8.431110382E0
3.592851582E1,1.076770201E-1,3.767499208E0,8.791230202E0
3.594820926E1,-1.818545163E-1,3.712464333E0,8.463413239E0
3.596790280E1,-5.575276613E-1,3.586841106E0,8.395217896E0
3.598759624E1,-8.913264275E-1,3.363112211E0,8.214560509E0
3.600728968E1,-1.209571838E0,3.200400352E0,8.124829292E0
3.602698312E1,-1.505085468E0,2.994617462E0,7.945367813E0
3.604667655E1,-1.697707653E0,2.597409010E0,8.396414757E0
3.606637009E1,-1.438086390E0,1.408176184E0,9.065208435E0
3.608606353E1,-1.295713425E0,3.565305769E-1,8.684749603E0
3.610575697E1,-1.403390527E0,3.278166950E-1,1.089332485E1
3.612545041E1,-3.996013701E-1,-1.746760458E-1,1.206700420E1
3.614514384E1,7.166503668E-1,-7.298108935E-1,1.128574753E1
3.616483728E1,1.231107235E0,-4.630111754E-1,1.000199890E1
3.618453082E1,1.610369682E0,3.469592929E-1,8.693124771E0
3.620422426E1,1.666600943E0,1.119840980E0,7.107879639E0
3.622391770E1,1.280160069E0,1.463211060E0,5.871986866E0
3.624361114E1,1.087537885E0,1.660618901E0,6.095715523E0
3.626330457E1,1.261017561E0,1.603191137E0,6.704689026E0
3.628299812E1,1.093519926E0,1.410568953E0,6.683153629E0
3.630269155E1,6.125625968E-1,1.570888042E0,6.509674072E0
3.632238499E1,9.690931439E-2,2.274377823E0,5.994020939E0
3.634207843E1,-1.591227055E-1,3.651447296E0,6.038288116E0
3.636177186E1,2.596212626E-1,5.452046394E0,7.689335346E0
3.638146541E1,9.475577474E-1,5.891129494E0,7.710870743E0
3.640115884E1,1.250249863E0,4.609772682E0,8.740981102E0
3.642085228E1,1.028913736E0,2.873780012E0,1.132642555E1
3.644054572E1,6.819544733E-2,3.136990547E0,1.378146172E1
3.646023916E1,-7.202396393E-1,3.244667530E0,1.497548008E1
3.647993270E1,7.022934556E-1,1.545763373E0,1.544208050E1
3.649962614E1,2.581855536E0,-2.500499785E-1,1.676291847E1
3.651931957E1,2.629712105E0,-6.257231236E-1,1.745444489E1
3.653901301E1,1.661815286E0,5.539384484E-1,1.646979904E1
3.655870645E1,1.338784218E0,2.149951220E0,1.382692528E1
3.657839999E1,1.557727575E0,3.157329559E0,1.071864891E1
3.659809332E1,1.569691658E0,3.580859184E0,8.578269005E0
3.661778686E1,1.706082582E0,3.744767427E0,7.665407181E0
3.663748030E1,1.572084427E0,3.530609846E0,7.081558704E0
3.665717374E1,1.000199914E0,3.119044304E0,6.222535133E0
3.667686728E1,4.390829504E-1,2.622533560E0,5.322834015E0
3.669656062E1,2.021935135E-1,1.916650891E0,4.925625324E0
3.671625416E1,2.285145670E-1,1.312463164E0,5.297709465E0
3.673594759E1,4.989035130E-1,1.060020447E0,6.513263226E0
3.675564103E1,1.028913736E0,1.293320656E0,7.500302792E0
3.677533457E1,1.610369682E0,2.123630047E0,8.199007034E0
3.679502801E1,2.060220242E0,2.694318295E0,8.007580757E0
3.681472145E1,2.312663078E0,2.836691141E0,7.044469833E0
3.683441489E1,2.693121910E0,3.049652576E0,7.015756130E0
3.685410843E1,3.211168051E0,3.657429457E0,8.042277336E0
3.687380186E1,3.670589924E0,4.241278172E0,8.371290207E0
3.689349530E1,3.481556892E0,4.634897232E0,8.299505234E0
3.691318874E1,2.952743053E0,4.631308079E0,8.370093346E0
3.693288218E1,2.187039852E0,4.258028030E0,8.709874153E0
3.695257572E1,1.283749342E0,4.576273441E0,8.226524353E0
3.697226916E1,5.156532526E-1,5.698507309E0,6.836294174E0
3.699196259E1,3.409772217E-1,6.916453838E0,6.384050846E0
3.701165614E1,9.320043921E-1,6.545566559E0,7.663014412E0
3.703134957E1,8.303094506E-1,5.650650501E0,9.652647018E0
3.705104301E1,2.632105052E-1,5.204389095E0,1.088375378E1
3.707073645E1,-4.905286431E-2,3.864408493E0,1.136710358E1
3.709042999E1,8.410771489E-1,3.098705292E0,1.128096199E1
3.711012343E1,3.023331404E0,4.078566074E0,1.114098263E1
3.712981686E1,4.774877548E0,5.077569485E0,1.113380337E1
3.714951030E1,5.843272686E0,5.833701611E0,1.080718327E1
3.716920384E1,5.739185333E0,5.944967747E0,9.625128746E0
3.718889728E1,4.074976921E0,4.899304390E0,8.189435959E0
3.720859072E1,1.934597135E0,3.739981890E0,7.848458290E0
3.722828416E1,1.368694544E0,3.345165968E0,7.842476368E0
3.724797770E1,2.127219439E0,3.686143398E0,7.902296543E0
3.726767114E1,2.260020971E0,3.924229145E0,7.330412388E0
3.728736457E1,1.623530149E0,3.166900873E0,6.887740135E0
3.730705812E1,-2.787638307E-1,2.091326952E0,7.077969551E0
3.732675155E1,-1.095912814E0,2.413161755E0,6.318248272E0
3.734644499E1,-7.573283911E-1,2.811566591E0,5.565705299E0
3.736613843E1,9.020941257E-1,3.676572084E0,5.532206059E0
3.738583197E1,2.967100143E0,4.167100430E0,6.918846607E0
3.740552541E1,4.102494240E0,4.395615101E0,8.612964630E0
3.742521884E1,3.810570002E0,4.643272400E0,9.107083321E0
3.744491228E1,3.217149973E0,4.222135544E0,7.835297585E0
3.746460572E1,2.774477959E0,3.617947817E0,6.537191391E0
3.748429926E1,2.422732830E0,3.424129248E0,6.235695839E0
3.750399280E1,2.264806747E0,3.348755360E0,7.038487911E0
3.752368624E1,2.165504456E0,3.354737282E0,8.011170387E0
3.754337968E1,1.797009826E0,3.967299938E0,8.310273170E0
3.756307312E1,2.358126640E0,4.564309120E0,8.985049248E0
3.758276666E1,2.018345833E0,4.786841869E0,9.620343208E0
3.760246009E1,5.647061467E-1,4.870590687E0,9.803394318E0
3.762215353E1,-1.012163997E0,4.804787636E0,1.037168980E1
3.764184707E1,-1.759921074E0,4.116851330E0,1.046022415E1
3.766154051E1,-3.074777126E0,3.767499208E0,1.191386414E1
3.768123395E1,-3.667000771E0,4.307080746E0,1.418106365E1
3.770092749E1,-2.812762976E0,5.781059742E0,1.339621735E1
3.772062093E1,-8.434699774E-1,7.137789726E0,1.081675434E1
3.774031436E1,2.751746178E-1,6.510870457E0,1.047697353E1
3.776000791E1,7.776673883E-2,4.583451748E0,1.200957680E1
3.777970134E1,2.273181528E-1,3.132204771E0,1.287577820E1
3.779939478E1,6.077769399E-1,2.492124796E0,1.167458153E1
3.781908832E1,6.329016089E-1,2.484946251E0,9.243474007E0
3.783878176E1,3.708875179E-2,2.822334290E0,6.790830612E0
3.785847530E1,-1.014556766E0,3.243471146E0,5.095515728E0
3.787816874E1,-1.629512191E0,3.525824070E0,4.384847641E0
3.789786218E1,-1.649851203E0,3.444468260E0,4.389633179E0
3.791755572E1,-1.630708575E0,3.103491068E0,4.715056896E0
3.793724916E1,-1.481157184E0,2.830709219E0,5.274977684E0
3.795694259E1,-1.289731383E0,2.596212626E0,5.551348686E0
3.797663614E1,-8.685946465E-1,2.724228621E0,6.014359951E0
3.799632957E1,-5.898307562E-1,3.244667530E0,7.578069210E0
3.801602301E1,2.763710022E-1,3.209971666E0,9.067601204E0
3.803571655E1,7.106683254E-1,2.520838737E0,9.163313866E0
3.805540999E1,5.120640397E-1,2.173879385E0,8.311469078E0
3.807510353E1,2.153540403E-2,2.311466694E0,7.008577347E0
3.809479697E1,-4.917250574E-1,3.127419233E0,5.797809124E0
3.811449041E1,-1.061216831E0,4.110869408E0,5.365904808E0
3.813418395E1,-9.427721500E-1,4.510470867E0,5.734399319E0
3.815387739E1,-5.539384484E-1,4.247260094E0,7.290930748E0
3.817357082E1,-5.778666735E-1,3.936193228E0,9.802198410E0
3.819326436E1,-4.378865361E-1,4.000799656E0,1.186840057E1
3.821295780E1,-6.951149702E-1,5.499902725E0,1.209811115E1
3.823265134E1,-7.668996453E-1,8.368897438E0,9.862018585E0
3.825234478E1,8.877372146E-1,8.926424980E0,8.425128937E0
3.827203822E1,3.047259569E0,5.650650501E0,1.356850052E1
3.829173176E1,3.348755360E0,2.019542217E0,1.776910019E1
3.831142520E1,2.250449657E0,1.465603828E0,1.822014809E1
3.833111864E1,1.655833244E0,3.060420275E0,1.459143257E1
3.835081218E1,2.370090723E0,4.871787071E0,8.973084450E0
3.837050562E1,3.153740168E0,5.724828243E0,5.916254044E0
3.839019916E1,2.746960402E0,5.980860233E0,5.685346603E0
3.840989259E1,1.326820135E0,6.317051888E0,6.172286034E0
3.842958603E1,2.548356056E-1,5.586044312E0,7.499105930E0
3.844927957E1,2.536391914E-1,4.264009953E0,8.658429146E0
3.846897301E1,3.409772217E-1,3.291327477E0,9.083154678E0
3.848866655E1,4.043870270E-1,2.754138947E0,8.959924698E0
3.850835999E1,4.737788737E-1,2.600998163E0,8.548358917E0
3.852805343E1,1.176072359E0,3.220739365E0,8.738588333E0
3.854774697E1,2.512463808E0,4.341776848E0,9.209974289E0
3.856744041E1,3.397808075E0,5.243870735E0,9.136993408E0
3.858713395E1,3.353540897E0,5.408975601E0,8.212167740E0
3.860682739E1,3.140579700E0,4.989035130E0,7.640282631E0
3.862652082E1,3.011367321E0,4.526023865E0,7.383054256E0
3.864621436E1,2.249253273E0,3.902693748E0,6.891329288E0
3.866590780E1,1.328016520E0,3.236292601E0,6.652047157E0
3.868560134E1,1.148554921E0,2.602194548E0,6.483353138E0
3.870529478E1,1.355534077E0,2.330609322E0,6.308676720E0
3.872498832E1,1.357926846E0,2.602194548E0,6.102894306E0
3.874468176E1,1.105484009E0,3.404986620E0,5.381458282E0
3.876437520E1,5.862415433E-1,3.694518089E0,4.736592293E0
3.878406874E1,-2.979064286E-1,3.510270834E0,4.211368084E0
3.880376218E1,-5.132604837E-1,3.549752474E0,4.130012035E0
3.882345572E1,1.890329868E-1,4.383651257E0,5.624329567E0
3.884314916E1,1.521835208E0,5.251049519E0,7.429714203E0
3.886284270E1,2.009970903E0,5.848058701E0,8.859425545E0
3.888253614E1,2.611765862E0,5.533402443E0,1.045783138E1
3.890222957E1,3.153740168E0,6.120840549E0,1.282552910E1
3.892192312E1,1.860419631E0,7.868797302E0,1.279561901E1
3.894161655E1,3.134597540E-1,8.754141808E0,1.178704453E1
3.896131009E1,2.033899166E-2,7.030112743E0,1.064806080E1
3.898100353E1,9.332008660E-2,4.759324074E0,9.728020668E0
3.900069707E1,-2.189432681E-1,3.725624800E0,1.013599682E1
3.902039051E1,-4.486542344E-1,3.328416348E0,1.147837067E1
3.904008405E1,-5.120640397E-1,3.494717360E0,1.270469189E1
3.905977749E1,1.579262912E-1,3.725624800E0,1.246540928E1
3.907947093E1,6.448656917E-1,3.530609846E0,1.073061275E1
3.909916447E1,5.036891699E-1,3.300898790E0,8.524430275E0
3.911885791E1,3.326023519E-1,3.278167009E0,6.668796539E0
3.913855145E1,3.050848842E-1,3.213560820E0,5.808577061E0
3.915824489E1,1.531406492E-1,2.727817774E0,5.961717606E0
3.917793843E1,-9.332008660E-2,1.866401672E0,5.722435474E0
3.919763186E1,-1.854437590E-1,1.363908887E0,4.961517811E0
3.921732541E1,-7.142575383E-1,1.545763373E0,4.808377266E0
3.923701884E1,-1.397408366E0,2.310270309E0,5.115854740E0
3.925671239E1,-1.416550994E0,3.113062143E0,5.422136307E0
3.927640582E1,-6.257231236E-1,3.474378586E0,6.011966705E0
3.929609936E1,6.628118753E-1,3.530609846E0,7.402196884E0
3.931579280E1,1.953739643E0,3.220739365E0,9.211171150E0
3.933548634E1,1.929811478E0,2.912065268E0,1.008215809E1
3.935517978E1,8.949156404E-1,2.653640270E0,1.069472122E1
3.937487322E1,-1.196411327E-1,4.266402721E0,1.019581699E1
3.939456676E1,5.970092416E-1,6.667600155E0,9.170493126E0
3.941426020E1,7.334001660E-1,8.031509399E0,1.117089272E1
3.943395374E1,1.183250785E0,9.053244591E0,1.220100307E1
3.945364718E1,3.722035646E0,6.659225464E0,1.278485107E1
3.947334072E1,3.842873096E0,3.883551121E0,1.440239906E1
3.949303416E1,1.908276081E0,2.797209740E0,1.564666748E1
3.951272770E1,1.101894855E0,3.085544825E0,1.431266880E1
3.953242114E1,1.893919110E0,4.541577339E0,9.803394318E0
3.955211468E1,2.892922640E0,5.508277893E0,6.757331371E0
3.957180811E1,3.920639992E0,5.131408215E0,8.157132149E0
3.959150166E1,4.302295208E0,4.924428940E0,1.057507992E1
3.961119509E1,3.675375462E0,4.506881237E0,1.122233772E1
3.963088864E1,2.813959360E0,3.641875982E0,9.562915802E0
3.965058207E1,2.525624275E0,3.091526747E0,7.335197926E0
3.967027562E1,2.267199516E0,3.026920557E0,5.268995285E0
3.968996905E1,1.911865234E0,3.469592810E0,3.918246984E0
3.970966249E1,1.519442320E0,3.816552162E0,3.391826153E0
3.972935614E1,8.434699774E-1,3.655036688E0,4.180261135E0
3.974904957E1,6.520441771E-1,3.645465374E0,5.236692429E0
3.976874312E1,6.867401004E-1,3.513859987E0,5.667400360E0
3.978843655E1,9.104689956E-1,3.523431301E0,5.832505226E0
3.980813009E1,1.190429211E0,3.802195072E0,6.399604321E0
3.982782353E1,1.367498159E0,4.326223373E0,7.052844524E0
3.984751707E1,1.770688772E0,4.703093052E0,7.235895634E0
3.986721051E1,2.239681959E0,4.742574692E0,8.435895920E0
3.988690405E1,2.560320139E0,4.269991875E0,9.315258980E0
3.990659749E1,2.085345030E0,3.510270834E0,8.335397720E0
3.992629103E1,1.414158225E0,3.383451223E0,6.204588890E0
3.994598447E1,1.359123230E0,4.334598064E0,4.841876507E0
3.996567801E1,1.191625714E0,5.771488190E0,6.418746948E0
3.998537145E1,1.491924882E0,6.610172749E0,9.351150513E0
4.000506499E1,1.816152334E0,6.541976929E0,1.167099285E1
4.002475853E1,1.400997639E0,6.210571289E0,1.299900913E1
4.004445197E1,-1.196411345E-2,5.967699528E0,1.252403355E1
4.006414551E1,8.554341197E-1,5.431707382E0,1.157049370E1
4.008383895E1,2.827120066E0,5.106283665E0,1.161356449E1
4.010353249E1,3.730410576E0,5.075176716E0,1.237567902E1
4.012322593E1,4.165904045E0,4.971088886E0,1.391426373E1
4.014291947E1,3.097508907E0,4.801198483E0,1.410210037E1
4.016261291E1,1.123430252E0,4.199403763E0,1.161117172E1
4.018230645E1,-2.309073806E-1,3.218346357E0,8.584251404E0
4.020199999E1,-1.109073281E0,2.447857618E0,6.664011002E0
4.022169343E1,-1.289731383E0,2.149951220E0,6.406782627E0
4.024138697E1,-9.499505758E-1,2.298306227E0,7.135396957E0
4.026108041E1,-4.031906128E-1,2.486142635E0,7.538587570E0
4.028077395E1,-6.101697683E-2,2.316252232E0,7.147361279E0
4.030046739E1,-1.004985496E-1,2.079362869E0,6.391229153E0
4.032016093E1,-5.886343718E-1,1.848455548E0,5.866004944E0
4.033985436E1,-1.281356573E0,1.893919110E0,5.915057659E0
4.035954791E1,-1.003789067E0,2.513660192E0,6.150750637E0
4.037924145E1,-4.546362907E-2,3.732803345E0,5.697310925E0
4.039893489E1,1.890329868E-1,4.895715237E0,4.548755646E0
4.041862843E1,1.112662554E-1,4.993820667E0,4.269991875E0
4.043832186E1,4.869394004E-1,4.520041943E0,6.019145489E0
4.045801541E1,1.131805062E0,3.909872293E0,8.372486115E0
4.047770895E1,1.692921996E0,3.438486099E0,9.292527199E0
4.049740239E1,2.234896421E0,2.974278450E0,9.905089378E0
4.051709593E1,2.185843468E0,3.117847919E0,9.438488960E0
4.053678936E1,1.774278045E0,3.877569199E0,9.668199539E0
4.055648291E1,1.464407444E0,4.490131855E0,1.023769188E1
4.057617645E1,5.754738450E-1,4.789234638E0,1.037288570E1
4.059586989E1,-6.137589812E-1,5.285745144E0,1.089930725E1
4.061556343E1,2.512463741E-2,5.580062389E0,1.128096199E1
4.063525686E1,2.464607239E0,4.908875465E0,1.118405342E1
4.065495041E1,3.604787350E0,3.883551121E0,1.256351566E1
4.067464395E1,2.633301258E0,3.537788391E0,1.496112347E1
4.069433739E1,1.591227055E0,3.845266104E0,1.487857151E1
4.071403093E1,1.948953986E0,3.936193228E0,1.130249786E1
4.073372436E1,2.922832966E0,4.125226021E0,7.180860519E0
4.075341791E1,3.011367321E0,4.809573650E0,6.415157318E0
4.077311145E1,2.471785784E0,5.233103275E0,7.776673794E0
4.079280489E1,2.297109842E0,4.807180882E0,9.176474571E0
4.081249832E1,2.310270309E0,3.888336897E0,9.812965393E0
4.083219186E1,2.325823545E0,3.177668571E0,9.059226990E0
4.085188541E1,2.199003935E0,2.754138947E0,7.466803074E0
4.087157895E1,1.590030670E0,2.676372051E0,5.958128452E0
4.089127239E1,9.798609018E-1,2.901297569E0,5.067998409E0
4.091096593E1,7.022934556E-1,3.096312523E0,4.840680122E0
4.093065936E1,8.733802438E-1,3.162115097E0,5.296513081E0
4.095035291E1,1.262213945E0,3.287738323E0,6.130411625E0
4.097004645E1,1.630708575E0,3.468396425E0,6.466603279E0
4.098973989E1,1.277767301E0,3.620340586E0,6.267998695E0
4.100943343E1,1.555334684E-2,3.655036688E0,6.156732559E0
4.102912697E1,-8.470591903E-1,3.893122435E0,6.868597507E0
4.104882041E1,-5.335994363E-1,3.984049797E0,8.425128937E0
4.106851395E1,-2.512463741E-2,4.223331928E0,1.007019424E1
4.108820739E1,-1.818545163E-1,5.015356064E0,1.086102200E1
4.110790093E1,-7.537391186E-1,6.055037498E0,1.018983555E1
4.112759447E1,-1.019342422E0,6.823133945E0,8.410771370E0
4.114728791E1,-1.256231904E0,7.030112743E0,8.196614265E0
4.116698145E1,-7.992027402E-1,6.583851337E0,1.219741344E1
4.118667499E1,6.939185411E-2,5.387440205E0,1.598046589E1
4.120636843E1,2.033899277E-1,4.604987144E0,1.548874092E1
4.122606197E1,5.371887088E-1,4.642076015E0,1.111466122E1
4.124575551E1,1.371087432E0,5.425725460E0,7.456035137E0
4.126544895E1,2.184647083E0,5.967699528E0,7.591229916E0
4.128514239E1,2.642872572E0,5.910272121E0,9.999606133E0
4.130483603E1,1.966900229E0,4.790431023E0,1.058465099E1
4.132452947E1,8.506484628E-1,4.322634220E0,8.870193481E0
4.134422301E1,-5.575276613E-1,4.528416634E0,6.728617191E0
4.136391655E1,-3.960121572E-1,4.570291042E0,5.270191669E0
4.138360999E1,-1.411765367E-1,3.870390654E0,5.375475883E0
4.140330353E1,-1.495514214E-1,4.017549038E0,5.654240131E0
4.142299707E1,-1.490728498E0,4.287938118E0,6.303891182E0
4.144269051E1,-2.124826431E0,4.164707661E0,7.503891945E0
4.146238405E1,-1.846062660E0,3.597608805E0,5.800201893E0
4.148207759E1,-2.193022013E0,4.023531437E0,3.768695593E0
4.150177103E1,-2.057827473E0,4.547559261E0,3.128615618E0
4.152146457E1,-1.764706731E0,5.034498692E0,4.390829563E0
