"Time (s)","Acceleration x (m/s^2)","Acceleration y (m/s^2)","Acceleration z (m/s^2)"
1.859210800E-2,3.654000282E0,3.847050190E0,6.141000271E0
3.851221500E-2,4.260000229E0,3.964050293E0,6.835050106E0
5.843664200E-2,4.461000443E0,4.052999973E0,7.869000435E0
7.835981400E-2,4.288050175E0,4.180050373E0,8.005949974E0
9.828727000E-2,3.655950069E0,4.311000347E0,8.025000572E0
1.182134540E-1,2.538000107E0,3.919050217E0,7.833000183E0
1.381399620E-1,2.602950096E0,3.454050064E0,8.524950027E0
1.580663760E-1,2.851950169E0,3.306000233E0,8.881950378E0
1.779883360E-1,3.403050184E0,3.061950207E0,8.844000816E0
1.979116040E-1,3.301950216E0,3.001950026E0,8.442000389E0
2.178312280E-1,2.614950180E0,2.731050014E0,8.056050301E0
2.377519160E-1,2.164950132E0,2.068050146E0,8.515950203E0
2.576730090E-1,2.758050203E0,1.705950022E0,1.003395081E1
2.775939860E-1,3.079050064E0,2.596950054E0,1.031895065E1
2.975126130E-1,2.146050215E0,2.815050125E0,8.065950394E0
3.174319220E-1,2.074050188E0,3.331950188E0,7.018950462E0
3.373401710E-1,2.401950121E0,3.507000208E0,7.026000500E0
3.572516410E-1,2.461950064E0,3.487950087E0,7.663050175E0
3.771576000E-1,2.529000044E0,3.294000149E0,8.326950073E0
3.970651760E-1,2.739000082E0,3.069000244E0,8.713950157E0
4.169757300E-1,2.854050159E0,2.938950062E0,8.788949966E0
4.368854080E-1,2.718000174E0,2.856000185E0,8.425050735E0
4.567979920E-1,2.203050137E0,2.809950113E0,7.699050426E0
4.767097210E-1,1.654950023E0,2.803050041E0,7.132050514E0
4.966225390E-1,1.261950016E0,2.833950043E0,6.934950352E0
5.165350340E-1,1.204950094E0,2.764950037E0,6.937950134E0
5.364499630E-1,1.201950073E0,2.797950029E0,6.877950191E0
5.563641830E-1,1.212000012E0,2.851050138E0,6.820950508E0
5.762756580E-1,1.111050010E0,2.856000185E0,6.651000500E0
5.961879440E-1,9.480000734E-1,2.821950197E0,6.868050098E0
6.161033040E-1,9.559500217E-1,2.596950054E0,7.528950214E0
6.360177740E-1,1.363050103E0,2.367000103E0,8.667000771E0
6.559320310E-1,1.434000015E0,2.020050049E0,9.634050369E0
6.758463680E-1,8.809500337E-1,2.422049999E0,1.054395008E1
6.957602500E-1,1.032000065E0,3.141000032E0,1.125705051E1
7.156742760E-1,1.497000098E0,4.213050365E0,1.056300068E1
7.355862650E-1,3.345000267E0,5.197050095E0,9.853950500E0
7.554988680E-1,5.931000233E0,3.946950197E0,1.137195015E1
7.754132950E-1,7.450950146E0,1.776000142E0,1.331400108E1
7.953271820E-1,6.618000507E0,9.280500412E-1,1.345005035E1
8.152408370E-1,4.477950096E0,9.670500755E-1,1.207800102E1
8.351545640E-1,2.635950089E0,1.162950039E0,1.172400093E1
8.550664480E-1,2.287050009E0,1.120050073E0,1.186095047E1
8.749788720E-1,2.095050097E0,1.287000060E0,1.054800034E1
8.948929520E-1,1.401000023E0,1.594050050E0,7.900050163E0
9.148065530E-1,7.540500164E-1,1.977000117E0,5.422050476E0
9.347230100E-1,3.210000098E-1,2.580000162E0,4.089000225E0
9.546386300E-1,1.099500060E-1,3.066000223E0,4.065000057E0
9.745578800E-1,9.105000645E-2,3.406050205E0,4.732950211E0
9.944760770E-1,3.829500079E-1,3.595950127E0,5.206950188E0
1.014393679E0,9.439500570E-1,3.592950106E0,5.359950066E0
1.034311459E0,1.185000062E0,3.744000196E0,5.932050228E0
1.054224630E0,7.110000253E-1,3.757950068E0,6.793950558E0
1.074139151E0,3.709500134E-1,3.777000189E0,7.893000603E0
1.094054688E0,6.799500585E-1,3.901950121E0,9.054000854E0
1.113969923E0,8.670000434E-1,3.955050230E0,1.003095055E1
1.133881701E0,1.171050072E0,4.366050243E0,1.069200039E1
1.153794512E0,6.199500561E-1,5.707050323E0,1.024905014E1
1.173703489E0,5.095050335E0,5.431950092E0,1.294995022E1
1.193613589E0,1.163400078E1,2.592000008E0,1.875600052E1
1.213526821E0,1.424100113E1,6.960000396E-1,2.187105179E1
1.233439131E0,1.092495060E1,8.610000610E-1,1.947195053E1
1.253352755E0,6.802050114E0,1.939050078E0,1.468800068E1
1.273265987E0,5.299050331E0,1.924050093E0,1.214505100E1
1.293181317E0,4.420050144E0,1.422000051E0,1.092195034E1
1.313096045E0,3.031050205E0,1.315950036E0,8.851050377E0
1.333003798E0,1.959000111E0,1.563000083E0,6.631050110E0
1.352913590E0,1.297950029E0,1.771050096E0,4.996050358E0
1.372822959E0,1.035000086E0,1.704000115E0,4.249050140E0
1.392732445E0,8.770500422E-1,1.659000039E0,4.306950092E0
1.412639080E0,5.560500026E-1,1.495950103E0,4.984050274E0
1.432546570E0,3.949500322E-1,1.579950094E0,5.128050327E0
1.452464395E0,3.190500140E-1,1.824000120E0,4.672950268E0
1.472379189E0,5.050500035E-1,2.026950121E0,4.915050030E0
1.492294805E0,1.006049991E0,2.044049978E0,5.479950428E0
1.512210184E0,1.324050069E0,2.133000135E0,6.018000126E0
1.532120002E0,1.600050092E0,2.274000168E0,6.811050415E0
1.552031436E0,1.533000112E0,2.643000126E0,7.768950462E0
1.571943513E0,9.750000238E-1,3.559950113E0,8.944050789E0
1.591855415E0,1.201950073E0,3.744000196E0,8.845950127E0
1.611768919E0,3.409950256E0,4.849950314E0,8.719050407E0
1.631681954E0,6.879000187E0,5.748000145E0,8.881950378E0
1.651593237E0,9.604050636E0,5.086950302E0,8.803050041E0
1.671505033E0,9.063000679E0,3.907050133E0,9.793950081E0
1.691414548E0,5.682000160E0,3.220050097E0,1.083105087E1
1.711324729E0,2.536050081E0,3.736950159E0,1.152105045E1
1.731237351E0,1.875000119E0,4.161000252E0,1.211895084E1
1.751149261E0,2.866050243E0,3.751050234E0,1.180995083E1
1.771065311E0,2.902050257E0,3.301050186E0,9.859050751E0
1.790980131E0,1.659000039E0,3.361050129E0,7.030950546E0
1.810887118E0,1.165950060E0,3.780000210E0,4.680000305E0
1.830796417E0,1.794000030E0,4.219950199E0,3.688950062E0
1.850710851E0,2.854050159E0,4.219950199E0,4.552950382E0
1.870623788E0,3.841050148E0,3.612000227E0,6.528000355E0
1.890527864E0,3.982050180E0,2.889000177E0,7.594050407E0
1.910434546E0,2.694000244E0,2.695050240E0,7.077000141E0
1.930340047E0,1.192950010E0,2.905950069E0,5.935050488E0
1.950245877E0,2.179500163E-1,3.222000122E0,5.473050117E0
1.970163256E0,1.150500029E-1,3.289050102E0,5.689950466E0
1.990077255E0,3.210000098E-1,3.222000122E0,6.022950172E0
2.009989484E0,3.550500274E-1,3.325050116E0,5.767050266E0
2.029902242E0,2.470500171E-1,3.721950293E0,5.644950390E0
2.049817550E0,2.010000050E-1,4.318950176E0,6.511950493E0
2.069732101E0,-1.995000057E-2,4.716000080E0,8.263950348E0
2.089645587E0,-9.420000315E-1,5.029950142E0,1.130295086E1
2.109559396E0,-1.288950086E0,5.595000267E0,1.537305069E1
2.129477790E0,3.867000103E0,3.552000284E0,2.253195190E1
2.149394847E0,1.039905071E1,2.670000196E-1,2.805600166E1
2.169305780E0,1.174200058E1,-6.510000229E-1,2.592495155E1
2.189218521E0,8.902050018E0,2.580000162E-1,1.980705070E1
2.209127155E0,7.132950306E0,4.540500343E-1,1.615395164E1
2.229036988E0,6.115050316E0,2.770500183E-1,1.453995037E1
2.248948643E0,4.272000313E0,7.605000585E-2,1.194000053E1
2.268859760E0,2.385000229E0,2.629500031E-1,8.688000679E0
2.288773503E0,1.152000070E0,6.240000129E-1,5.632950306E0
2.308686467E0,6.109500527E-1,1.060050011E0,3.825000286E0
2.328594899E0,2.659500241E-1,1.414050102E0,3.154950142E0
2.348504675E0,-1.469999999E-1,1.668000102E0,2.908050060E0
2.368417231E0,-5.640000105E-1,1.801950097E0,2.853000164E0
2.388328976E0,-6.570000052E-1,1.836000085E0,3.064050198E0
2.408243173E0,-4.110000134E-1,1.924050093E0,3.081000090E0
2.428156659E0,2.110500038E-1,2.251950026E0,2.722050190E0
2.448070582E0,5.250000358E-1,2.755050182E0,2.722050190E0
2.467984366E0,7.450500131E-1,2.809950113E0,3.511950254E0
2.487897107E0,9.049500227E-1,2.650050163E0,4.081950188E0
2.507810147E0,1.510950089E0,2.772000074E0,3.730050087E0
2.527722675E0,1.789050102E0,3.130950212E0,3.174000263E0
2.547635363E0,1.888950109E0,3.244050264E0,3.397050142E0
2.567545848E0,1.879950047E0,3.459000111E0,4.314000130E0
2.587456979E0,1.987050056E0,3.955050230E0,4.816950321E0
2.607374338E0,3.321000099E0,5.178000450E0,5.575950146E0
2.627289852E0,6.048000336E0,5.326950073E0,6.876000404E0
2.647203779E0,1.156200027E1,3.306000233E0,6.402000427E0
2.667118167E0,1.642695045E1,2.098950148E0,5.728950500E0
2.687029622E0,1.922205162E1,1.000050068E0,5.884050369E0
2.706941936E0,1.923105049E1,-3.210000098E-1,8.046000481E0
2.726854071E0,1.436595058E1,-5.050500035E-1,1.098900032E1
2.746766253E0,8.608050346E0,6.889500618E-1,1.210500050E1
2.766673374E0,5.754000187E0,1.161000013E0,1.136700058E1
2.786581964E0,5.089950085E0,1.065000057E0,1.058400059E1
2.806492746E0,5.007000446E0,6.550500393E-1,1.029195023E1
2.826402885E0,4.747950077E0,4.780500233E-1,1.052895069E1
2.846316412E0,4.777050018E0,5.479500294E-1,1.013400078E1
2.866228953E0,5.104950428E0,6.720000505E-1,9.160050392E0
2.886132971E0,3.735000134E0,5.190000534E-1,7.120050430E0
2.906039489E0,2.398950100E0,2.509500086E-1,5.722050190E0
2.925947668E0,2.197950125E0,-8.100000024E-2,5.013000011E0
2.945855381E0,2.848950148E0,-3.349500299E-1,4.804950237E0
2.965758029E0,2.974050045E0,-1.890000105E-1,5.652000427E0
2.985662157E0,3.534000158E0,-5.170500278E-1,6.871050358E0
3.005578225E0,3.738000154E0,-6.529500484E-1,6.847050190E0
3.025490785E0,3.163050175E0,-5.860500336E-1,5.925000191E0
3.045400888E0,3.163050175E0,-5.770500302E-1,5.367000103E0
3.065311710E0,4.165950298E0,-5.599500537E-1,5.836950302E0
3.085222830E0,4.138050079E0,-6.840000153E-1,6.279000282E0
3.105133862E0,4.000950336E0,-1.029000044E0,6.897000313E0
3.125047089E0,4.384050369E0,-1.671000123E0,7.539000511E0
3.144959687E0,6.505950451E0,-1.909950137E0,7.564950466E0
3.164875204E0,8.193000793E0,-1.803000093E0,6.568950176E0
3.184789856E0,8.835000038E0,-1.968000054E0,6.007050514E0
3.204699450E0,9.727950096E0,-3.028050184E0,5.880000114E0
3.224610536E0,9.631950378E0,-3.960000277E0,6.294000149E0
3.244518133E0,9.922050476E0,-4.422000408E0,7.414050579E0
3.264426758E0,1.139505100E1,-5.173950195E0,7.824000359E0
3.284335915E0,1.186605072E1,-5.869950294E0,6.463950157E0
3.304244914E0,1.086105061E1,-6.256050110E0,4.540950298E0
3.324152042E0,9.594000816E0,-5.983050346E0,3.102000237E0
3.344059704E0,9.481950760E0,-5.332050323E0,2.844000101E0
3.363973028E0,9.928950310E0,-4.414950371E0,3.579000235E0
3.383884697E0,9.388050079E0,-3.427950144E0,4.299000263E0
3.403801547E0,7.770000458E0,-3.151050091E0,4.105050087E0
3.423716900E0,5.397000313E0,-3.028050184E0,4.237050056E0
3.443628865E0,3.951000214E0,-3.096000195E0,4.996050358E0
3.463541824E0,3.582000256E0,-3.093000174E0,5.887050152E0
3.483457107E0,4.485000134E0,-2.856000185E0,6.466050148E0
3.503371692E0,5.923950195E0,-2.511000156E0,6.150000095E0
3.523282901E0,7.393950462E0,-2.206950188E0,5.446050167E0
3.543195123E0,9.963000298E0,-1.294950008E0,4.993950367E0
3.563116800E0,1.222095013E1,-6.250500083E-1,5.299950123E0
3.583035687E0,1.449300098E1,-8.470500112E-1,6.660000324E0
3.602951730E0,1.485195065E1,-1.831050038E0,8.094000816E0
3.622868609E0,1.286505032E1,-2.221950054E0,9.439949989E0
3.642784127E0,1.326900101E1,-2.350950003E0,1.171005058E1
3.662700055E0,1.507500076E1,-3.186000109E0,1.367805099E1
3.682617473E0,1.535700035E1,-4.045950413E0,1.314600086E1
3.702534448E0,1.413795090E1,-3.640950203E0,1.189605045E1
3.722449781E0,1.345395088E1,-3.700950146E0,1.084305096E1
3.742365599E0,1.173000050E1,-3.106950045E0,1.024005032E1
3.762275501E0,9.357000351E0,-3.004950047E0,1.030905056E1
3.782187136E0,6.856950283E0,-3.297000170E0,1.055805016E1
3.802091223E0,4.729050159E0,-3.246000051E0,9.924000740E0
3.821997521E0,4.330950260E0,-2.968950033E0,8.455950737E0
3.841907264E0,5.347050190E0,-2.659950018E0,7.234950542E0
3.861815991E0,6.256950378E0,-2.583000183E0,5.667000294E0
3.881732518E0,6.388050079E0,-2.197950125E0,3.955050230E0
3.901646760E0,5.419050217E0,-1.612950087E0,2.707050085E0
3.921569405E0,4.204950333E0,-1.051050067E0,3.105000257E0
3.941489596E0,3.249000072E0,-6.340500116E-1,4.407000065E0
3.961403242E0,2.968950033E0,-3.349500299E-1,5.877000332E0
3.981318815E0,3.097950220E0,-6.679500341E-1,7.045950413E0
4.001228920E0,3.462000132E0,-9.000000358E-1,8.005949974E0
4.021140609E0,4.209000111E0,-9.720000625E-1,9.459000587E0
4.041052865E0,4.078050137E0,-8.929500580E-1,9.259950638E0
4.060964938E0,3.364050150E0,-6.370500326E-1,7.299000263E0
4.080876907E0,2.244000196E0,-3.400500119E-1,6.256050110E0
4.100788920E0,2.398950100E0,-2.490000129E-1,5.467950344E0
4.120700367E0,3.606000185E0,2.290500104E-1,5.133000374E0
4.140611987E0,4.669050217E0,6.049500108E-1,5.299950123E0
4.160518888E0,3.640050173E0,1.057950020E0,6.375000477E0
4.180427127E0,3.205950260E0,1.234950066E0,6.294000149E0
4.200343051E0,2.923950195E0,1.857000113E0,4.735050201E0
4.220256731E0,2.110050201E0,2.479950190E0,4.098000050E0
4.240174365E0,2.130000144E-1,2.644950151E0,7.468950272E0
4.260090827E0,-4.510500133E-1,2.631000042E0,1.112100029E1
4.279999419E0,-7.459500432E-1,2.592000008E0,1.155600071E1
4.299910306E0,-1.246050000E0,2.536950111E0,1.154505062E1
4.319818656E0,-2.455050230E0,3.145050049E0,1.411800098E1
4.339727757E0,-1.372950077E0,3.370500207E-1,1.712805176E1
4.359642309E0,-1.548000097E0,-4.039500058E-1,1.662795067E1
4.379555245E0,-6.430500150E-1,-2.320500165E-1,1.456395054E1
4.399470669E0,-1.140000075E-1,9.859500527E-1,1.136295033E1
4.419385347E0,6.780000329E-1,1.929000139E0,9.193050385E0
4.439300687E0,6.679500341E-1,2.406000137E0,8.532000542E0
4.459215823E0,0.000000000E0,2.290950060E0,7.821000576E0
4.479124957E0,-3.750000298E-1,2.452950001E0,6.964050293E0
4.499035840E0,-2.170500159E-1,3.022950172E0,5.353050232E0
4.518945193E0,7.950000167E-1,2.986950159E0,4.150950432E0
4.538854994E0,-5.400000215E-1,4.243950367E0,3.199950218E0
4.558768226E0,-8.749500513E-1,3.933000088E0,2.407950163E0
4.578680453E0,-1.507050037E0,3.853950262E0,2.860050201E0
4.598596208E0,-1.375050068E0,3.796950102E0,4.157999992E0
4.618510924E0,-7.240500450E-1,3.586050272E0,5.263950348E0
4.638433138E0,-4.630500078E-1,3.469050169E0,6.382050514E0
4.658353155E0,-7.095000148E-2,3.186000109E0,7.539000511E0
4.678282342E0,5.560500026E-1,2.928000212E0,8.200050354E0
4.698208813E0,6.490500569E-1,3.121050119E0,8.904000282E0
4.718130628E0,3.090000153E-1,3.004050255E0,9.760950089E0
4.738053810E0,2.850000262E-1,2.635050058E0,1.057695007E1
4.757976673E0,7.005000114E-2,2.383949995E0,1.136700058E1
4.777899641E0,-2.190000117E-1,2.731050014E0,1.148205090E1
4.797817825E0,-5.929500461E-1,3.748950243E0,1.063200092E1
4.817737411E0,4.800000042E-2,4.060050011E0,9.339000702E0
4.837656045E0,2.505000114E0,3.205050230E0,1.110600090E1
4.857574954E0,5.445000172E0,1.213050008E0,1.588500118E1
4.877493735E0,5.587950230E0,-1.126950026E0,1.723305130E1
4.897412560E0,3.493050098E0,-1.398000121E0,1.600005150E1
4.917334202E0,2.067000151E0,-9.409500360E-1,1.512195110E1
4.937255019E0,2.014050007E0,-8.419500589E-1,1.518105030E1
4.957174645E0,1.897050142E0,-5.839500427E-1,1.435095024E1
4.977094627E0,1.023000002E0,-2.595000155E-2,1.249500084E1
4.997012518E0,7.950000167E-1,4.489500225E-1,1.023705006E1
5.016931018E0,1.342950106E0,8.800500631E-1,8.367000580E0
5.036848566E0,1.723950028E0,1.161000013E0,7.213050365E0
5.056766397E0,1.557000041E0,1.696950078E0,6.697950363E0
5.076687610E0,1.944000125E0,1.510050058E0,6.748950481E0
5.096607843E0,1.846050143E0,1.213050008E0,7.125000477E0
5.116532919E0,1.462950110E0,1.102950096E0,7.599000454E0
5.136456559E0,1.249950051E0,9.520500302E-1,8.005949974E0
5.156372846E0,1.116000056E0,8.370000124E-1,8.319000244E0
5.176291273E0,9.169500470E-1,7.630500197E-1,8.068050385E0
5.196208483E0,8.020500541E-1,9.210000634E-1,7.321050167E0
5.216126046E0,1.047000051E0,1.189050078E0,6.583950520E0
5.236035530E0,1.522950053E0,1.417050123E0,6.391950130E0
5.255947369E0,2.062050104E0,1.359000087E0,6.769950390E0
5.275864041E0,2.377950191E0,1.266000032E0,7.321050167E0
5.295779294E0,2.020950079E0,1.459950089E0,7.375950336E0
5.315701415E0,1.318950057E0,1.752000093E0,7.017000198E0
5.335621525E0,8.860500455E-1,2.026950121E0,6.775050163E0
5.355535939E0,9.510000348E-1,2.547000170E0,6.913950443E0
5.375452008E0,1.528050065E0,3.334950209E0,7.515000343E0
5.395367770E0,2.042999983E0,3.877950191E0,8.827050209E0
5.415283622E0,1.723950028E0,4.302000046E0,1.046205044E1
5.435197720E0,1.309950113E0,4.831050396E0,1.084500027E1
5.455112324E0,1.651950121E0,6.112050056E0,1.078305054E1
5.475028703E0,4.939950466E0,5.772000313E0,1.437495041E1
5.494944558E0,7.147050381E0,3.598050117E0,1.796400070E1
5.514857534E0,5.851950169E0,2.362050056E0,1.842795181E1
5.534771344E0,3.436050177E0,2.104050159E0,1.586100101E1
5.554686692E0,2.026050091E0,2.475000143E0,1.251405048E1
5.574601583E0,1.000950098E0,2.725950241E0,1.015305042E1
5.594525689E0,6.000000238E-2,2.515950203E0,8.350950241E0
5.614447106E0,1.161000013E0,2.257050037E0,6.957000256E0
5.634367571E0,4.120500088E-1,2.434050083E0,5.920050144E0
5.654288325E0,9.105000645E-2,3.313050270E0,5.287950039E0
5.674204229E0,-7.800000161E-2,2.857950211E0,5.238000393E0
5.694121555E0,5.805000290E-2,2.974950075E0,5.587950230E0
5.714033182E0,4.459500313E-1,3.054000139E0,5.845950127E0
5.733946478E0,8.400000632E-2,3.118950129E0,5.509050369E0
5.753868294E0,-4.510500133E-1,3.076050043E0,5.623050213E0
5.773787621E0,-4.060500264E-1,2.938950062E0,6.013950348E0
5.793703437E0,-7.410000563E-1,2.868000031E0,5.010000229E0
5.813620295E0,-4.060500264E-1,2.604000092E0,4.354050159E0
5.833539558E0,1.318950057E0,2.227950096E0,6.265050411E0
5.853458126E0,2.674950123E0,2.233050108E0,9.576000214E0
5.873378131E0,3.333000183E0,1.524000049E0,1.135800076E1
5.893297726E0,3.132000208E0,2.790000141E-1,1.064400005E1
5.913216725E0,1.861050129E0,-6.169500351E-1,1.065600014E1
5.933135892E0,7.279500365E-1,-2.820000052E-1,1.157805061E1
5.953054984E0,-9.180000424E-1,9.499500394E-1,1.123095036E1
5.972974108E0,-1.929000139E0,2.877000093E0,1.245405102E1
5.992892757E0,-9.010500312E-1,3.793950081E0,1.196100044E1
6.012811556E0,1.927950144E0,3.250950098E0,1.387395096E1
6.032727287E0,2.763000250E0,1.335000038E0,1.619205093E1
6.052643926E0,3.247050047E0,3.299999982E-2,1.609800148E1
6.072559626E0,2.281949997E0,4.279500246E-1,1.466895103E1
6.092475609E0,3.790500164E-1,1.278000116E0,1.242105103E1
6.112390850E0,-8.419500589E-1,1.969950080E0,1.049295044E1
6.132306305E0,-1.162050009E0,2.961000204E0,9.598050117E0
6.152228191E0,-1.444950104E0,4.255949974E0,9.897000313E0
6.172148207E0,-1.380000114E0,4.960050106E0,9.865950584E0
6.192069822E0,-1.165050030E0,4.170000076E0,9.004050255E0
6.211990972E0,3.949500322E-1,1.975050092E0,7.864050388E0
6.231915286E0,-4.819500148E-1,1.924050093E0,7.278000355E0
6.251838669E0,-1.285050035E0,2.044049978E0,6.994950294E0
6.271765084E0,-1.018950105E0,2.038950205E0,6.817950249E0
6.291690635E0,-6.690000296E-1,2.085000038E0,7.309050560E0
6.311612928E0,-2.260500044E-1,2.236050129E0,8.072999954E0
6.331536176E0,2.899500132E-1,2.401050091E0,8.560950279E0
6.351461019E0,5.700000525E-1,2.398050070E0,8.239950180E0
6.371385399E0,4.810500145E-1,2.254950047E0,7.536000252E0
6.391315958E0,1.630500108E-1,2.073000193E0,7.074000359E0
6.411244707E0,-2.430000156E-1,2.085000038E0,7.150950432E0
6.431167372E0,-6.240000129E-1,2.062950134E0,7.450050354E0
6.451091805E0,-3.960000277E-1,1.905000091E0,7.564950466E0
6.471013082E0,-5.449500084E-1,2.218950033E0,7.471950531E0
6.490935277E0,-4.129500091E-1,2.608950138E0,7.702050209E0
6.510856878E0,-5.260500312E-1,3.097950220E0,7.939050198E0
6.530778657E0,-6.960000396E-1,3.298950195E0,8.389050484E0
6.550702992E0,-8.970000148E-1,3.057000160E0,9.061950684E0
6.570626578E0,-1.261050105E0,2.869950056E0,9.445050240E0
6.590547951E0,-1.981050134E0,3.178950071E0,9.703050613E0
6.610469969E0,-2.272950172E0,3.895050287E0,1.047405052E1
6.630394308E0,-2.415000200E0,4.668000221E0,1.213305092E1
6.650317967E0,-1.917000055E0,5.272050381E0,1.333995056E1
6.670249119E0,-1.641000032E0,5.164050102E0,1.462800026E1
6.690178063E0,-1.062000036E0,4.644000053E0,1.674195099E1
6.710102321E0,-8.295000345E-2,3.148050070E0,1.825095177E1
6.730027935E0,3.210000098E-1,2.005950212E0,1.748505020E1
6.749952680E0,-3.000000119E-1,1.564950109E0,1.507800102E1
6.769877690E0,-1.083000064E0,1.194000006E0,1.212900066E1
6.789799013E0,-1.390050054E0,1.036050081E0,9.234000206E0
6.809721402E0,-1.431000113E0,1.240050077E0,7.206000328E0
6.829639780E0,-1.444950104E0,1.587000132E0,6.198000431E0
6.849559330E0,-1.531050086E0,1.921950102E0,5.989950180E0
6.869480677E0,-2.038950205E0,2.017950058E0,5.841000080E0
6.889401491E0,-2.197050095E0,1.813950062E0,5.686050415E0
6.909327122E0,-2.476950169E0,1.522050023E0,5.784000397E0
6.929251308E0,-2.656050205E0,1.261050105E0,6.061950207E0
6.949172809E0,-2.746950150E0,1.216050029E0,6.466050148E0
6.969095089E0,-2.380950212E0,1.261050105E0,6.748950481E0
6.989015785E0,-1.573950052E0,1.216050029E0,6.825000286E0
7.008936941E0,-1.323000073E0,1.110000014E0,7.165050507E0
7.028856006E0,-1.545000076E0,9.280500412E-1,7.723050594E0
7.048775695E0,-1.953000069E0,8.539500237E-1,8.278950691E0
7.068694112E0,-2.167950153E0,1.062000036E0,8.310000420E0
7.088612912E0,-1.926000118E0,1.207950115E0,8.638050079E0
7.108533437E0,-1.603050113E0,1.447950125E0,9.088050842E0
7.128453453E0,-1.146000028E0,1.930950046E0,1.022295094E1
7.148378717E0,-1.054949999E0,2.323950052E0,1.168800068E1
7.168302448E0,-1.383000016E0,2.938950062E0,1.265805054E1
7.188225400E0,-1.761000037E0,3.484950066E0,1.308900070E1
7.208148590E0,-6.280500293E-1,3.235950232E0,1.245405102E1
7.228072211E0,5.680500269E-1,4.015050411E0,1.213305092E1
7.247995689E0,1.482000113E0,3.832950115E0,1.474605083E1
7.267923383E0,1.887000084E0,1.246950030E0,1.664400101E1
7.287849842E0,6.705000252E-2,6.550500393E-1,1.554300117E1
7.307775359E0,-1.203000069E0,8.830500245E-1,1.303605080E1
7.327701152E0,-1.975950122E0,1.953000069E0,1.107000065E1
7.347627538E0,-1.933050036E0,2.716950178E0,1.047405052E1
7.367553757E0,-1.354050040E0,3.076050043E0,1.056495094E1
7.387482256E0,-6.000000238E-1,2.935050249E0,1.012695026E1
7.407410078E0,-4.009500146E-1,2.773950100E0,8.896050453E0
7.427338645E0,-6.480000019E-1,2.844000101E0,7.789950371E0
7.447266997E0,-6.070500016E-1,2.689950228E0,7.410000324E0
7.467198767E0,-3.630000055E-1,2.331000090E0,7.258950233E0
7.487129535E0,-2.770500183E-1,2.044049978E0,6.828000546E0
7.507053587E0,-2.620500028E-1,1.849950075E0,6.307950497E0
7.526979609E0,-5.100000277E-2,1.726050138E0,6.021000385E0
7.546902916E0,1.009500027E-1,1.762050033E0,5.899050236E0
7.566827008E0,2.470500171E-1,1.780950069E0,5.535000324E0
7.586747058E0,1.300500035E-1,1.837950110E0,5.032050133E0
7.606668302E0,-2.880000174E-1,2.085000038E0,4.917000294E0
7.626592914E0,-6.139500141E-1,2.317050219E0,5.451000214E0
7.646516535E0,-1.050000072E0,2.692950010E0,6.306000233E0
7.666439529E0,-1.432950020E0,3.157050133E0,6.933000565E0
7.686362700E0,-1.975950122E0,3.592950106E0,8.206950188E0
7.706290146E0,-2.656050205E0,4.102950096E0,1.012695026E1
7.726216329E0,-2.158050060E0,4.297049999E0,1.126695061E1
7.746142638E0,-1.452000022E0,4.318950176E0,1.161195087E1
7.766068924E0,-7.510500550E-1,3.943050146E0,1.292100048E1
7.785995395E0,-3.790500164E-1,3.193050146E0,1.439595032E1
7.805921795E0,-1.882950068E0,2.808000088E0,1.522200108E1
7.825852808E0,-3.856050253E0,2.692950010E0,1.469295025E1
7.845782477E0,-4.414050102E0,2.485050201E0,1.295205021E1
7.865705837E0,-3.715050220E0,2.488950014E0,1.123995018E1
7.885631066E0,-1.818000078E0,2.488950014E0,1.082595062E1
7.905551761E0,-1.384950042E0,2.602050066E0,1.057200050E1
7.925473773E0,-1.830000043E0,2.652000189E0,1.012695026E1
7.945396841E0,-2.296950102E0,2.449050188E0,9.010950089E0
7.965319607E0,-2.785950184E0,2.391000032E0,7.656000137E0
7.985249933E0,-2.581950188E0,2.419950008E0,6.895050526E0
8.005178055E0,-2.568000078E0,2.559000015E0,6.957000256E0
8.025107321E0,-2.905050039E0,3.009000063E0,7.062000275E0
8.045036266E0,-3.898950100E0,3.238950253E0,4.177050114E0
8.064964465E0,-2.949000120E0,3.118950129E0,6.789000511E0
8.084892883E0,-2.941050053E0,3.172050238E0,1.161900043E1
8.118512006E0,-1.486050129E0,4.885950089E0,9.775050163E0
8.138435867E0,-1.762950063E0,4.150950432E0,1.064205074E1
8.158365523E0,-1.837950110E0,3.097950220E0,1.019400024E1
8.178293482E0,-1.489950061E0,3.472950220E0,1.063695049E1
8.198218255E0,-5.569500327E-1,3.505050182E0,1.115400028E1
8.218143955E0,-5.595000088E-2,3.475950241E0,1.013895035E1
8.238066786E0,-1.090500057E-1,3.660000086E0,8.947050095E0
8.257990440E0,-5.730000138E-1,3.784950256E0,8.434050560E0
8.277915580E0,-7.669500113E-1,3.652950287E0,8.737950325E0
8.297840285E0,-6.670500040E-1,3.105000257E0,8.962950706E0
8.317765736E0,-9.109500647E-1,2.853000164E0,9.042000771E0
8.337690972E0,-1.059000015E0,2.829000235E0,8.860950470E0
8.357615911E0,-1.231950045E0,3.037950039E0,8.800950050E0
8.377540921E0,-1.452000022E0,3.009000063E0,9.270000458E0
8.397462924E0,-1.354050040E0,2.556000233E0,9.535950661E0
8.417385791E0,-1.419000030E0,2.395950079E0,9.229050636E0
8.437311071E0,-1.528950095E0,2.554050207E0,8.925000191E0
8.457235640E0,-1.363950014E0,2.668950081E0,8.808000565E0
8.477162652E0,-9.280500412E-1,2.281050205E0,8.307000160E0
8.497088948E0,-1.261050105E0,1.927050114E0,7.693950176E0
8.517019552E0,-2.211000204E0,1.965000153E0,7.989000320E0
8.536948885E0,-2.338050127E0,2.008050203E0,8.917950630E0
8.556874003E0,-1.201050043E0,1.654050112E0,9.543000221E0
8.576800353E0,-3.360000253E-1,1.816950083E0,9.330000877E0
8.596725717E0,1.030500084E-1,1.972050071E0,9.265050888E0
8.616651363E0,-1.780500114E-1,1.465050101E0,9.766050339E0
8.636580676E0,-1.363950014E0,1.258950114E0,1.071105003E1
8.656508909E0,-1.291950107E0,9.640500546E-1,1.063500023E1
8.676432781E0,-8.059500456E-1,7.270500064E-1,9.370050430E0
8.696357922E0,-1.015950084E0,9.760500193E-1,8.116050720E0
8.716281526E0,-9.730500579E-1,6.480000019E-1,7.587000370E0
8.736205595E0,-2.070000172E-1,-2.130000144E-1,9.238950729E0
8.756130299E0,-7.800000161E-2,-1.459500045E-1,1.004805088E1
8.776054819E0,-1.950000077E-1,7.800000161E-2,1.027995014E1
8.795975666E0,-2.380500138E-1,4.710000157E-1,1.005495071E1
8.815897590E0,-9.280500412E-1,5.400000140E-2,9.768000603E0
8.835819557E0,-4.390500188E-1,1.069500074E-1,9.294000626E0
8.855741511E0,2.710500062E-1,-5.550000072E-1,8.956050873E0
8.875665108E0,1.078050017E0,-1.423950076E0,8.559000015E0
8.895588247E0,1.588050127E0,-1.858050108E0,8.290950775E0
8.915508961E0,1.369950056E0,-2.028000116E0,8.233050346E0
8.935430393E0,1.102050066E0,-2.092050076E0,8.580000877E0
8.955349988E0,1.390500069E-1,-1.218000054E0,9.543000221E0
8.975270138E0,-6.600000262E-1,-4.210500121E-1,1.043595028E1
8.995194909E0,7.695000619E-2,-1.041000009E0,1.103700066E1
9.015118343E0,2.470500171E-1,-1.578000069E0,1.154895020E1
9.035035794E0,-1.810500026E-1,-1.678050041E0,1.144395065E1
9.054955014E0,-1.531050086E0,-1.209000111E0,9.373050690E0
9.074874392E0,-3.292950153E0,5.860500336E-1,8.755050659E0
9.094793747E0,-3.175950050E0,3.799500167E-1,9.517050743E0
9.114714033E0,-1.249050021E0,-2.890500128E-1,1.116105080E1
9.134634050E0,3.810000122E-1,3.495000303E-2,1.435995102E1
9.154557993E0,1.030050039E0,-7.279500365E-1,1.442700100E1
9.174480800E0,9.529500604E-1,-1.245000005E0,1.263195038E1
9.194397741E0,3.280500174E-1,-1.326000094E0,1.120905018E1
9.214316408E0,-1.300950050E0,-1.462950110E0,1.064400005E1
9.234236265E0,-1.203000069E0,-1.029000044E0,1.018500042E1
9.254155780E0,-9.540000558E-1,-4.399500191E-1,9.045000076E0
9.274071901E0,-6.600000262E-1,-1.200000010E-2,8.725950241E0
9.293989047E0,1.849500090E-1,3.799500167E-1,8.551950455E0
9.313906948E0,8.209500313E-1,2.479500175E-1,8.596950531E0
9.333824642E0,5.560500026E-1,8.779500127E-1,9.724950790E0
9.353742164E0,1.300050020E0,7.699500322E-1,1.063905048E1
9.373659730E0,1.132950068E0,-5.260500312E-1,1.017495060E1
9.393577668E0,1.890000105E-1,-1.197000027E0,9.469050407E0
9.413495497E0,-7.410000563E-1,-1.165950060E0,8.704950333E0
9.433417262E0,-1.761000037E0,-4.879500270E-1,7.374000549E0
9.453337877E0,-2.211000204E0,9.000000358E-1,6.427950382E0
9.473268257E0,-1.488000035E0,1.204050064E0,5.761950493E0
9.493195786E0,-1.045050025E0,8.089500666E-1,5.686050415E0
9.513121664E0,-7.600500584E-1,5.089499950E-1,6.259950161E0
9.533048023E0,2.800500095E-1,3.490500152E-1,7.660950184E0
9.552979218E0,4.579500258E-1,6.070500016E-1,8.248050690E0
9.572909007E0,3.400500119E-1,8.680500388E-1,7.750050545E0
9.592833786E0,-3.240000010E-1,1.132050037E0,7.393050194E0
9.612760023E0,-8.149500489E-1,1.141050100E0,7.996050358E0
9.632677024E0,9.105000645E-2,1.395000100E0,7.975050449E0
9.652596724E0,1.759950042E0,2.080049992E0,7.492950439E0
9.672521466E0,2.802000046E0,3.021000147E0,7.747050285E0
9.692444727E0,4.633050442E0,3.007050037E0,8.880000114E0
9.712369239E0,6.771000385E0,1.897950053E0,9.921000481E0
9.732293367E0,8.241000175E0,1.279950023E0,9.174000740E0
9.752219489E0,9.697050095E0,2.959500253E-1,8.548950195E0
9.772145040E0,1.174200058E1,-1.033950090E0,1.164000034E1
9.792073119E0,1.183500099E1,-2.692950010E0,1.306005096E1
9.812000444E0,9.331050873E0,-2.727000237E0,1.187505054E1
9.831926552E0,6.244950294E0,-2.371950150E0,1.070205021E1
9.851853004E0,4.228950024E0,-2.158950090E0,1.115205097E1
9.871776781E0,2.797050238E0,-2.047049999E0,1.177395058E1
9.891701329E0,1.795950055E0,-1.728000045E0,1.130700016E1
9.911627620E0,8.839500546E-1,-1.045950055E0,1.035705090E1
9.931553370E0,7.279500365E-1,-6.169500351E-1,9.162000656E0
9.951477122E0,9.870000482E-1,-3.679500222E-1,7.984050274E0
9.971401455E0,1.557000041E0,-1.650000066E-1,7.218000412E0
9.991327736E0,2.239050150E0,8.805000782E-2,6.958950520E0
1.001125345E1,2.986050129E0,7.395000011E-2,6.540000439E0
1.003117802E1,3.352050066E0,4.090500176E-1,6.018000126E0
1.005110292E1,3.337950230E0,8.680500388E-1,5.805000305E0
1.007102930E1,3.121950150E0,1.161000013E0,5.935050488E0
1.009095524E1,2.610000134E0,1.618050098E0,5.971050262E0
1.011087392E1,2.506950140E0,1.773000121E0,5.932050228E0
1.013079472E1,2.730000019E0,1.551000118E0,6.837000370E0
1.015072228E1,3.316050053E0,1.074000001E0,8.587950706E0
1.017064787E1,3.501000166E0,4.759500325E-1,1.065600014E1
1.019057129E1,3.046050072E0,2.269500047E-1,1.242600060E1
1.021049534E1,3.481950283E0,-4.789500237E-1,1.265295029E1
1.023041753E1,5.614950180E0,-1.732950091E0,1.378095055E1
1.025034026E1,8.419050217E0,-2.884950161E0,1.661805153E1
1.027026424E1,1.161495018E1,-4.804950237E0,1.946205139E1
1.029018786E1,1.256505013E1,-5.502000332E0,2.248905182E1
1.031011482E1,1.107105064E1,-5.161950111E0,2.369595146E1
1.033004079E1,8.134050369E0,-4.209000111E0,1.914600182E1
1.034996192E1,6.855000496E0,-2.983050108E0,1.177395058E1
1.036988448E1,6.739950180E0,-1.096050024E0,5.869950294E0
1.038980393E1,6.232950211E0,8.880000710E-1,2.367000103E0
1.040972428E1,5.040000439E0,2.317050219E0,1.054949999E0
1.042964368E1,3.727950096E0,3.283950090E0,7.630500197E-1
1.044956335E1,2.502000093E0,3.520950079E0,7.270500064E-1
1.046948587E1,1.521000028E0,3.118950129E0,1.009950042E0
1.048940757E1,1.195050001E0,2.758050203E0,1.302000046E0
1.050932761E1,5.839500427E-1,2.734050035E0,1.765950084E0
1.052924815E1,-3.409500122E-1,2.116050005E0,2.371950150E0
1.054917615E1,-1.710000038E-1,1.158000112E0,3.849000216E0
1.056910198E1,7.500000596E-1,-9.300000221E-2,6.234000206E0
1.058902733E1,1.912950039E0,-1.153950095E0,9.157050133E0
1.060895282E1,3.112950087E0,-2.431950092E0,1.149195099E1
1.062887496E1,2.763000250E0,-2.904000044E0,1.224405098E1
1.064879807E1,1.120950103E0,-2.374950171E0,1.188195038E1
1.066872023E1,1.990500093E-1,-1.618050098E0,1.048905087E1
1.068864267E1,4.050000310E-1,-8.779500127E-1,8.701950073E0
1.070856130E1,1.032000065E0,-2.320500165E-1,7.302000523E0
1.072848105E1,1.633050084E0,4.350000322E-1,6.399000168E0
1.074840294E1,1.789050102E0,9.450000525E-1,5.881950378E0
1.076832420E1,1.669050097E0,1.438050032E0,5.418000221E0
1.078824790E1,1.413000107E0,1.981950045E0,5.350050449E0
1.080817089E1,1.020000100E0,2.266950130E0,5.920050144E0
1.082809039E1,8.670000434E-1,2.422049999E0,6.730050087E0
1.084801091E1,6.919500232E-1,2.935050249E0,7.252050400E0
1.086792648E1,1.281000018E0,3.342000246E0,7.444950581E0
1.088784351E1,2.338950157E0,3.351000071E0,8.128050804E0
1.090776403E1,3.498000145E0,3.045000076E0,9.475950241E0
1.092768352E1,4.758000374E0,2.620950222E0,1.167900085E1
1.094760004E1,6.465000153E0,1.548000097E0,1.453500080E1
1.096751743E1,7.743000507E0,7.920000553E-1,1.673100090E1
1.098743824E1,7.221000195E0,9.139500260E-1,1.705395126E1
1.100735804E1,6.273000240E0,1.228050113E0,1.578195095E1
1.102727897E1,5.668050289E0,1.366050124E0,1.437900066E1
1.104719958E1,5.361000061E0,1.315950036E0,1.366305065E1
1.106712086E1,4.626000404E0,1.338000059E0,1.225305080E1
1.108704195E1,3.418950081E0,1.522050023E0,1.025895023E1
1.110696518E1,2.160000086E0,1.840950131E0,8.134950638E0
1.112688779E1,1.213950038E0,2.251950026E0,6.519000530E0
1.114681497E1,5.989500284E-1,2.623050213E0,5.365050316E0
1.116674080E1,3.280500174E-1,3.025950193E0,4.623000145E0
1.118666972E1,4.669500291E-1,3.367950201E0,4.611000061E0
1.120659773E1,1.081950068E0,3.334950209E0,5.248050213E0
1.122652442E1,1.777050138E0,3.289050102E0,5.980050087E0
1.124645150E1,2.478000164E0,3.315000057E0,6.526050091E0
1.126637604E1,3.394950151E0,3.334950209E0,6.888000488E0
1.128630134E1,4.276050091E0,3.076050043E0,7.453050137E0
1.130622620E1,4.779000282E0,2.449050188E0,8.602050781E0
1.132615119E1,4.779000282E0,1.821000099E0,9.880050659E0
1.134607556E1,4.561050415E0,1.303950071E0,1.043400097E1
1.136600011E1,4.615950108E0,9.589500427E-1,1.019400024E1
1.138592117E1,5.323050022E0,6.859500408E-1,9.721950531E0
1.140584326E1,5.815950394E0,4.140000343E-1,1.000305080E1
1.142576249E1,5.422950268E0,-3.010500073E-1,9.952050209E0
1.144568257E1,4.372050285E0,-2.490000129E-1,9.397050858E0
1.146560056E1,4.188000202E0,1.740000099E-1,8.829000473E0
1.148551917E1,5.224950314E0,2.670000196E-1,9.078000069E0
1.150544776E1,6.678000450E0,3.390000165E-1,1.035195065E1
1.152537341E1,7.980000496E0,3.460500240E-1,1.048095036E1
1.154530250E1,9.307050705E0,-1.699500084E-1,1.009395027E1
1.156523057E1,9.658950806E0,-7.230000496E-1,1.109400082E1
1.158516041E1,8.751000404E0,-1.185000062E0,1.195905018E1
1.160508973E1,7.365000248E0,-1.113000035E0,1.277805042E1
1.162502165E1,5.067000389E0,-6.490500569E-1,1.206900024E1
1.164495281E1,2.701050043E0,-4.500000179E-2,9.385050774E0
1.166488563E1,1.192950010E0,7.849500179E-1,6.616950512E0
1.168481796E1,2.970000207E-1,2.068050146E0,4.680000305E0
1.170475591E1,-3.000000119E-2,3.202950239E0,3.214950085E0
1.172469221E1,4.410000145E-1,4.017000198E0,2.299950123E0
1.174462290E1,2.176950216E0,4.219950199E0,2.416950226E0
1.176455522E1,3.984000206E0,4.038000107E0,3.772950172E0
1.178447964E1,5.241000175E0,3.169050217E0,5.659050465E0
1.180440637E1,5.407050133E0,1.948050141E0,6.907050133E0
1.182433604E1,4.432050228E0,1.180050015E0,7.909950256E0
1.184426484E1,3.637050152E0,9.550500512E-1,9.435000420E0
1.186419464E1,3.000000238E0,6.979500055E-1,1.062000084E1
1.188412415E1,2.257950068E0,7.459500432E-1,1.074495029E1
1.190404871E1,1.659000039E0,9.469500184E-1,1.026105022E1
1.192397471E1,1.642950058E0,1.036050081E0,9.763050079E0
1.194389637E1,1.743000031E0,1.258950114E0,9.244050026E0
1.196381932E1,1.753050089E0,1.624950051E0,8.667000771E0
1.198374848E1,1.528050065E0,1.941000104E0,7.915050507E0
1.200367584E1,1.315050006E0,2.050950050E0,7.186950207E0
1.202359894E1,1.521000028E0,2.041949987E0,6.804000378E0
1.204352330E1,1.959000111E0,2.161050081E0,6.976050377E0
1.206344773E1,2.878050089E0,2.164050102E0,7.804950237E0
1.208337214E1,3.625050068E0,1.843050122E0,9.262950897E0
1.210329612E1,3.964950085E0,1.077000022E0,1.063200092E1
1.212322022E1,4.248000145E0,4.159500301E-1,1.112595081E1
1.214314978E1,5.038050175E0,2.580000162E-1,1.167405033E1
1.216307775E1,6.307050228E0,-1.278000116E0,1.191105080E1
1.218300640E1,7.284000397E0,-2.550000191E0,1.241595078E1
1.220293487E1,8.125950813E0,-3.258000135E0,1.373805046E1
1.222285665E1,7.437000275E0,-3.403950214E0,1.461600113E1
1.224278040E1,5.257950306E0,-2.857950211E0,1.376895046E1
1.226270105E1,3.453000069E0,-2.368050098E0,1.165005016E1
1.228262262E1,2.857050180E0,-1.993950129E0,9.961950302E0
1.230254535E1,2.839950085E0,-1.762050033E0,9.150000572E0
1.232246776E1,2.529000044E0,-1.240050077E0,9.366000175E0
1.234238661E1,2.050050020E0,-1.020000100E0,8.995050430E0
1.236230651E1,1.446000099E0,-7.780500650E-1,7.927050591E0
1.238222472E1,1.141950011E0,-5.929500461E-1,7.062000275E0
1.240214343E1,1.264050007E0,-5.410500169E-1,6.576000214E0
1.242206186E1,1.093950033E0,-4.500000179E-1,6.436950207E0
1.244198036E1,8.050500154E-1,-3.640500307E-1,6.745950222E0
1.246189795E1,1.188000083E0,-4.210500121E-1,7.129050255E0
1.248181581E1,1.734000087E0,-3.180000186E-1,7.495950222E0
1.250173252E1,1.557000041E0,-4.710000157E-1,8.307000160E0
1.252164958E1,9.889500737E-1,-7.750500441E-1,9.403950691E0
1.254157006E1,6.420000196E-1,-8.809500337E-1,9.952050209E0
1.256148956E1,5.580000281E-1,-6.919500232E-1,9.157050133E0
1.258140807E1,4.890000224E-1,-2.610000074E-1,7.587000370E0
1.260132687E1,7.210500240E-1,-8.295000345E-2,7.093950272E0
1.262124852E1,1.006049991E0,-3.060000241E-1,8.274000168E0
1.264116933E1,6.750000119E-1,-5.479500294E-1,1.001205063E1
1.266109040E1,-1.759500057E-1,-3.760500252E-1,1.022505093E1
1.268101140E1,-6.360000372E-1,-5.700000376E-2,9.370050430E0
1.270093468E1,-7.099500299E-1,1.290000081E-1,8.374050140E0
1.272085730E1,6.949500442E-1,-1.120500043E-1,7.714050293E0
1.274077970E1,2.931000233E0,-1.219500080E-1,8.563950539E0
1.276070216E1,5.056950092E0,-8.400000334E-1,1.115400028E1
1.278062538E1,6.454950333E0,-1.924950123E0,1.314405060E1
1.280054839E1,7.423050404E0,-2.586000204E0,1.434105110E1
1.282047293E1,8.356050491E0,-3.435000181E0,1.459005070E1
1.284039702E1,9.220950127E0,-3.940950155E0,1.477695084E1
1.286032066E1,9.556050301E0,-4.080000401E0,1.582995033E1
1.288024442E1,8.847000122E0,-3.925950289E0,1.641900063E1
1.290016992E1,7.068000317E0,-3.286950111E0,1.469805050E1
1.292009490E1,5.323050022E0,-2.419950008E0,1.110900021E1
1.294002487E1,3.795000076E0,-1.441050053E0,7.354050159E0
1.295995337E1,2.257950068E0,-8.100000024E-2,4.183950424E0
1.297987733E1,1.078050017E0,1.516950130E0,1.720950127E0
1.299980261E1,3.739500046E-1,1.912050128E0,1.156050086E0
1.301973302E1,-3.769500256E-1,7.339500189E-1,2.959050179E0
1.303966192E1,-5.260500312E-1,-7.350000143E-1,5.916000366E0
1.305959682E1,6.490500569E-1,-2.236050129E0,7.909950256E0
1.307952997E1,2.191050053E0,-3.325050116E0,9.880050659E0
1.309946102E1,3.414000273E0,-4.324050426E0,1.220805073E1
1.311939268E1,4.261950016E0,-4.989000320E0,1.302405071E1
1.313932240E1,3.922050238E0,-4.690050125E0,1.164705086E1
1.315925268E1,3.328050137E0,-3.856950283E0,9.840000153E0
1.317917906E1,3.414000273E0,-3.025950193E0,8.643000603E0
1.319910659E1,3.604050159E0,-2.230950117E0,7.888050556E0
1.321903034E1,3.838050127E0,-1.411950111E0,7.468950272E0
1.323895520E1,3.810000181E0,-6.960000396E-1,7.156050205E0
1.325887595E1,3.501000166E0,-2.029500157E-1,6.796950340E0
1.327879790E1,3.000000238E0,2.340000123E-1,6.397050381E0
1.329871907E1,2.635950089E0,6.220500469E-1,5.853000164E0
1.331864046E1,2.749050140E0,9.019500613E-1,5.530050278E0
1.333857140E1,3.478950262E0,1.050000072E0,5.674050331E0
1.335849954E1,4.111050129E0,9.949500561E-1,6.816000462E0
1.337843128E1,4.458000183E0,7.920000553E-1,7.507950306E0
1.339836198E1,4.354950428E0,7.420500517E-1,6.876000404E0
1.341829180E1,3.613050222E0,1.050000072E0,6.732000351E0
1.343822189E1,3.337950230E0,9.379500151E-1,8.026950836E0
1.345815387E1,3.370950222E0,7.729500532E-1,9.244050026E0
1.347808528E1,3.565050125E0,4.660500288E-1,9.861000061E0
1.349801815E1,3.699000120E0,1.950000064E-3,1.142505074E1
1.351795059E1,3.276000261E0,-6.750000119E-1,1.289505100E1
1.353787833E1,3.670950174E0,-1.690050125E0,1.203795052E1
1.355780744E1,5.044950008E0,-1.948950052E0,1.315095043E1
1.357773525E1,5.173950195E0,-2.611950159E0,1.621605110E1
1.359766344E1,3.448050261E0,-2.551950216E0,1.720200157E1
1.361758892E1,1.378950119E0,-1.570050120E0,1.530405045E1
1.363751520E1,1.135050058E0,-5.700000525E-1,1.293795109E1
1.365743930E1,1.494000077E0,1.260000020E-1,1.206405067E1
1.367736404E1,1.104000092E0,6.510000229E-1,1.150905037E1
1.369729122E1,4.305000231E-2,1.314000010E0,1.022505093E1
1.371721767E1,-8.080500364E-1,2.008050203E0,8.808000565E0
1.373714299E1,-1.126049995E0,2.997000217E0,7.738050461E0
1.375706865E1,-5.209500194E-1,3.646050215E0,6.742050171E0
1.377699026E1,1.231050014E0,4.132050037E0,5.274000168E0
1.379691305E1,2.719950199E0,4.659000397E0,3.652950287E0
1.381683252E1,2.136000156E0,4.587000370E0,3.082950115E0
1.383675297E1,1.549050093E0,3.034950256E0,4.303950310E0
1.385667633E1,9.820500612E-1,1.270950079E0,6.414000511E0
1.387659882E1,4.189500213E-1,-5.505000427E-2,8.370000839E0
1.389651700E1,-2.260500044E-1,-6.990000606E-1,8.980050087E0
1.391643644E1,-1.420950055E0,-1.744950056E0,1.030395031E1
1.393635756E1,-2.577000141E0,-3.129000187E0,1.216005039E1
1.395627820E1,-3.763050079E0,-3.567000151E0,1.256205082E1
1.397619649E1,-3.967950106E0,-3.447000265E0,1.091205025E1
1.399611545E1,-3.940050125E0,-3.378000259E0,9.604950905E0
1.401603635E1,-4.339950085E0,-3.322950125E0,9.327000618E0
1.403595668E1,-4.703999996E0,-3.450000048E0,9.556950569E0
1.405587164E1,-4.741950035E0,-3.270000219E0,9.778050423E0
1.407578816E1,-4.000050068E0,-2.904000044E0,9.481050491E0
1.409570911E1,-3.171000242E0,-2.629050016E0,8.710050583E0
1.411562877E1,-2.020050049E0,-2.794050217E0,9.409049988E0
1.413555111E1,3.810000122E-1,-2.425050020E0,1.209795094E1
1.415547268E1,3.826050282E0,-2.899050236E0,1.335705090E1
1.417539352E1,5.887950420E0,-2.337000132E0,1.412595081E1
1.419531459E1,5.392050266E0,-1.306950092E0,1.484400082E1
1.421523058E1,4.000950336E0,-5.500500202E-1,1.344795036E1
1.423514806E1,3.196950197E0,6.739500165E-1,1.028805065E1
1.425506908E1,3.312000275E0,1.885950089E0,7.254000187E0
1.427498906E1,3.690000057E0,2.896050215E0,5.848050117E0
1.429490739E1,4.303050041E0,3.433050156E0,5.875050068E0
1.431482621E1,4.758000374E0,3.409050226E0,6.832950115E0
1.433474736E1,4.621050358E0,3.172050238E0,8.109000206E0
1.435466783E1,4.099050045E0,2.710050106E0,8.626049995E0
1.437458576E1,3.259050131E0,2.128050089E0,8.737950325E0
1.439450444E1,2.188950062E0,1.684950113E0,9.226950645E0
1.441442335E1,8.929500580E-1,1.375950098E0,9.556950569E0
1.443434219E1,7.999500632E-1,1.747050047E0,9.816000938E0
1.445425434E1,1.863000035E0,1.800000072E0,9.433050156E0
1.447416844E1,2.404050112E0,1.587000132E0,8.608950615E0
1.449408165E1,2.014050007E0,1.632000089E0,8.133000374E0
1.451399513E1,2.196000099E0,1.690050125E0,7.809000492E0
1.453392096E1,2.209950209E0,1.836000085E0,6.888000488E0
1.455384316E1,1.116000056E0,1.965000153E0,6.253050327E0
1.457376229E1,-4.230000079E-1,2.250000000E0,7.279950142E0
1.459368232E1,7.830000520E-1,1.993950129E0,8.539950371E0
1.461360405E1,2.371050119E0,1.869000077E0,9.186000824E0
1.463352530E1,2.719950199E0,1.608000040E0,9.217050552E0
1.465344293E1,2.212949991E0,1.318950057E0,9.411000252E0
1.467336162E1,1.971000075E0,1.030950069E0,9.655050278E0
1.469328401E1,2.050050020E0,1.431000113E0,9.868950844E0
1.471320531E1,2.767950058E0,2.065950155E0,1.035900021E1
1.473312694E1,3.325950146E0,2.524950027E0,1.090305042E1
1.475304847E1,4.333950043E0,2.401050091E0,1.294800091E1
1.477296675E1,6.379050255E0,1.551000118E0,1.576605034E1
1.479288599E1,7.506000519E0,8.230500221E-1,1.531800079E1
1.481281066E1,6.502950191E0,1.386000037E0,1.276095104E1
1.483273371E1,5.586000443E0,1.443000078E0,1.051500034E1
1.485265444E1,4.188000202E0,1.150950074E0,1.005495071E1
1.487257586E1,2.974050045E0,8.490000367E-1,1.049295044E1
1.489249827E1,2.289000034E0,9.259500504E-1,1.026600075E1
1.491242040E1,1.791000128E0,1.048050046E0,9.130949974E0
1.493234314E1,1.369950056E0,1.102950096E0,7.984050274E0
1.495226570E1,1.078050017E0,1.216050029E0,7.297050476E0
1.497218362E1,1.252050042E0,1.441050053E0,6.852000237E0
1.499210292E1,1.774050117E0,1.623000026E0,6.720000267E0
1.501202125E1,2.052000046E0,1.789950132E0,7.278000355E0
1.503193985E1,2.188950062E0,1.732950091E0,7.519950390E0
1.505186653E1,2.220000029E0,2.056050062E0,7.173000336E0
1.507179084E1,2.245950222E0,2.026950121E0,7.309050560E0
1.509171647E1,1.915950060E0,2.158950090E0,7.266000271E0
1.511164170E1,1.825050116E0,1.978950143E0,7.513050556E0
1.513156551E1,1.456050038E0,2.307000160E0,7.996050358E0
1.515148972E1,1.417950034E0,2.563950062E0,8.110950470E0
1.517141475E1,2.638950109E0,2.274000168E0,8.269050598E0
1.519133955E1,2.686950207E0,2.142000198E0,8.773950577E0
1.521125872E1,2.173950195E0,1.795050144E0,9.450000763E0
1.523117954E1,1.533000112E0,2.125050068E0,9.912000656E0
1.525110248E1,5.149500370E-1,2.932050228E0,9.868950844E0
1.527102479E1,2.040000111E-1,3.760950089E0,9.246000290E0
1.529094472E1,2.665050030E0,3.430050135E0,8.844000816E0
1.531086534E1,5.188950062E0,2.821950197E0,1.023495007E1
1.533079352E1,6.189000130E0,5.809500217E-1,1.352205086E1
1.535071949E1,4.231050014E0,-2.890500128E-1,1.349100018E1
1.537064710E1,2.080950022E0,4.050000105E-3,1.243305016E1
1.539057425E1,6.970500350E-1,7.920000553E-1,1.092000008E1
1.541050031E1,3.910500109E-1,1.311000109E0,1.021095085E1
1.543042666E1,1.018050075E0,1.738050103E0,9.940050125E0
1.545036233E1,1.867950082E0,1.594050050E0,9.475950241E0
1.547029528E1,1.987050056E0,2.166000128E0,8.710050583E0
1.549022711E1,1.789050102E0,2.722050190E0,7.444950581E0
1.551015927E1,1.138050079E0,2.788950205E0,6.535950184E0
1.553008854E1,4.410000145E-1,3.081000090E0,6.001950264E0
1.555001866E1,2.400000095E-1,3.162000179E0,5.892000198E0
1.556994914E1,4.120500088E-1,2.785950184E0,6.754050255E0
1.558987951E1,8.740500212E-1,2.395950079E0,8.446050644E0
1.560981107E1,1.233000040E0,1.552950025E0,1.012005043E1
1.562974228E1,1.437000036E0,1.045950055E0,1.066800022E1
1.564967443E1,1.663950086E0,1.275000095E0,1.063905048E1
1.566960629E1,1.834050059E0,1.776000142E0,9.900000572E0
1.568953242E1,1.747950077E0,2.025000095E0,8.479949951E0
1.570946023E1,1.047000051E0,1.993950129E0,8.748000145E0
1.572939056E1,1.060500070E-1,1.729950070E0,1.114005089E1
1.574932015E1,-6.000000238E-1,2.092050076E0,1.237995052E1
1.576925399E1,7.570500374E-1,2.418000221E0,1.196100044E1
1.578918660E1,2.581050158E0,2.452950001E0,1.207800102E1
1.580912213E1,2.928000212E0,1.723050117E0,1.269600105E1
1.582905682E1,2.758050203E0,8.209500313E-1,1.333095074E1
1.584898907E1,2.857050180E0,4.110000134E-1,1.358205032E1
1.586892204E1,3.060000181E0,-2.680500150E-1,1.298805046E1
1.588884194E1,2.923950195E0,-3.540000021E-1,1.123800087E1
1.590876567E1,2.413950205E0,6.390000582E-1,9.651000023E0
1.592869282E1,1.885050058E0,9.859500527E-1,8.446050644E0
1.594861897E1,1.516050100E0,9.570000172E-1,7.837950230E0
1.596854131E1,1.906050086E0,1.048050046E0,7.717950344E0
1.598846475E1,2.449950218E0,9.760500193E-1,7.146000385E0
1.600839035E1,2.421000004E0,1.132050037E0,6.279000282E0
1.602831530E1,2.220000029E0,1.564950109E0,5.386050224E0
1.604823714E1,2.574000120E0,2.017950058E0,5.986950397E0
1.606815990E1,3.550950050E0,1.993950129E0,7.920000553E0
1.608808536E1,4.140000343E0,1.915050149E0,9.658050537E0
1.610801004E1,4.156949997E0,2.638050079E0,9.114000320E0
1.612793068E1,3.244050264E0,4.041000366E0,7.666050434E0
1.614785251E1,2.212949991E0,4.252050400E0,7.371000290E0
1.616777921E1,2.344050169E0,2.796000242E0,8.044050217E0
1.618770449E1,2.775000095E0,2.367000103E0,8.845950127E0
1.620763093E1,3.580050230E0,3.543000221E0,1.005795002E1
1.622755703E1,4.624050140E0,4.006950378E0,1.049100018E1
1.624748828E1,4.852950096E0,2.992050171E0,1.029000092E1
1.626741802E1,3.510000229E0,1.729950070E0,9.973950386E0
1.628734932E1,2.749050140E0,1.144050002E0,9.451950073E0
1.630728017E1,3.124950171E0,1.608000040E0,9.469050407E0
1.632720479E1,3.168000221E0,2.176050186E0,9.745950699E0
1.634713124E1,2.113950014E0,2.863050222E0,1.038105011E1
1.636705751E1,2.205000073E-2,4.266000271E0,1.028295040E1
1.638698384E1,-1.035000086E0,4.503000259E0,8.992050171E0
1.640690631E1,7.200000435E-2,3.418050051E0,8.644950867E0
1.642682992E1,3.124950171E0,2.767050028E0,7.893000603E0
1.644675435E1,2.847000122E0,3.811050177E0,8.839050293E0
1.646667854E1,9.319500327E-1,3.009000063E0,1.227000046E1
1.648659660E1,-9.420000315E-1,1.579950094E0,1.355295086E1
1.650651646E1,-2.065050125E0,1.738050103E0,1.137705040E1
1.652643570E1,-1.066950083E0,2.463000059E0,8.965950012E0
1.654635514E1,3.469500244E-1,3.112050056E0,9.189000130E0
1.656628032E1,1.108950019E0,3.037950039E0,1.076895046E1
1.658620383E1,1.093950033E0,2.796000242E0,1.137195015E1
1.660612520E1,1.398000121E0,2.788950205E0,9.343950272E0
1.662604720E1,9.960000515E-1,3.078000069E0,6.121050358E0
1.664596718E1,-7.410000563E-1,3.469050169E0,4.378050327E0
1.666588775E1,-2.994000196E0,3.427950144E0,4.137000084E0
1.668581275E1,-2.424000025E0,2.857950211E0,6.516000271E0
1.670573644E1,-1.288950086E0,2.961000204E0,7.050000191E0
1.672565794E1,3.499500155E-1,2.383949995E0,6.871050358E0
1.674558007E1,1.530000120E-1,3.463950157E0,9.880050659E0
1.676550478E1,-1.510050058E0,3.888000250E0,1.266000080E1
1.678542875E1,-6.739500165E-1,1.740000129E0,1.373805046E1
1.680534677E1,9.360000491E-1,1.930500120E-1,1.206405067E1
1.682526653E1,7.540500164E-1,9.550500512E-1,1.119300079E1
1.684518513E1,1.300050020E0,1.726050138E0,1.090995026E1
1.686510406E1,2.574000120E0,3.007050037E0,9.895050049E0
1.688503314E1,1.341000080E0,4.399950027E0,8.992050171E0
1.690495924E1,3.090000153E-1,4.201050282E0,8.767050743E0
1.692488141E1,-5.279999971E-1,3.142950058E0,1.127595043E1
1.694480472E1,-1.095000096E-2,1.783050060E0,1.262205029E1
1.696473120E1,7.950000167E-1,1.137000084E0,1.180995083E1
1.698465674E1,2.167050123E0,1.552950025E0,1.029705048E1
1.700457992E1,2.538000107E0,2.917950153E0,1.018905067E1
1.702450380E1,9.750000238E-1,3.547950268E0,1.007700062E1
1.704443237E1,-7.950000465E-3,3.274950266E0,9.040050507E0
1.706435957E1,-7.069500089E-1,3.457050085E0,7.975050449E0
1.708428623E1,-1.966950059E0,4.651050091E0,6.823050499E0
1.710421304E1,-2.961000204E0,5.307000160E0,6.555000305E0
1.712414221E1,-2.236950159E0,4.036050320E0,7.146000385E0
1.714407068E1,-2.386050224E0,3.220050097E0,7.624950409E0
1.716399837E1,-2.797950029E0,2.935050249E0,8.266950607E0
1.718392629E1,-3.415050268E0,2.997000217E0,8.403000832E0
1.720385990E1,-4.087950230E0,3.327000141E0,8.008049965E0
1.722379187E1,-4.033050060E0,3.784950256E0,8.512949944E0
1.724372351E1,-3.286050081E0,3.919050217E0,9.235950470E0
1.726365525E1,-2.485950232E0,3.544950247E0,9.375000000E0
1.728358308E1,-2.709000111E0,3.187950134E0,9.603000641E0
1.730351207E1,-3.529950142E0,3.165000200E0,1.046205044E1
1.732343779E1,-3.745950222E0,3.165000200E0,1.052505016E1
1.734336446E1,-3.262050152E0,3.301050186E0,9.387000084E0
1.736328837E1,-3.114000082E0,3.238950253E0,9.189000130E0
1.738321308E1,-3.456000090E0,3.085950136E0,1.026405048E1
1.740313535E1,-4.123950005E0,2.803050041E0,1.095600033E1
1.742305833E1,-4.426050186E0,3.142950058E0,9.793950081E0
1.744298125E1,-3.019950151E0,3.411000252E0,9.070950508E0
1.746290418E1,-1.861950040E0,3.013950109E0,9.450000763E0
1.748283500E1,-2.560950041E0,2.779050112E0,1.065600014E1
1.750276350E1,-3.673950195E0,2.520000219E0,1.127595043E1
1.752269002E1,-4.348950386E0,2.278950214E0,1.094805050E1
1.754261712E1,-3.865950108E0,2.749950171E0,8.803050041E0
1.756254437E1,-3.556950092E0,3.451950073E0,8.295000076E0
1.758247157E1,-3.019950151E0,3.217050076E0,1.160700035E1
1.761203854E1,-2.611050129E0,5.014950275E0,9.270000458E0
1.761659758E1,-2.050950050E0,4.615050316E0,9.703050613E0
1.763651482E1,-2.070000172E0,4.255949974E0,9.876000404E0
1.765643036E1,-1.864050031E0,3.742050171E0,9.214950562E0
1.767634645E1,-1.761000037E0,3.732000113E0,9.688950539E0
1.769626155E1,-8.440500498E-1,3.274950266E0,1.113300037E1
1.771617693E1,2.280000150E-1,2.935050249E0,1.170705032E1
1.773609435E1,3.550500274E-1,3.154950142E0,1.097205067E1
1.775601117E1,1.680000126E-1,3.466050148E0,9.442049980E0
1.777593119E1,-2.050500065E-1,3.727050066E0,8.497050285E0
1.779585026E1,-2.449500114E-1,3.871050119E0,8.688000679E0
1.781577022E1,4.120500088E-1,3.813000202E0,9.121050835E0
1.783568990E1,7.399500608E-1,3.709950209E0,9.475950241E0
1.785560333E1,1.969500035E-1,3.315000057E0,9.559950829E0
1.787551859E1,-3.790500164E-1,3.378000259E0,9.873000145E0
1.789542951E1,-5.419500470E-1,3.540000200E0,9.684000015E0
1.791534169E1,-8.629500270E-1,3.781950235E0,8.839050293E0
1.793526053E1,-8.580000401E-1,4.003050327E0,7.942950249E0
1.795517740E1,-8.269500136E-1,3.993000269E0,7.564950466E0
1.797509880E1,-8.299500346E-1,3.744000196E0,7.819050312E0
1.799501887E1,-9.300000668E-1,3.337050200E0,8.343000412E0
1.801493762E1,-1.696050048E0,3.046950102E0,8.379000664E0
1.803485674E1,-2.376000166E0,3.262950182E0,7.927050591E0
1.805477436E1,-2.182049990E0,2.932050228E0,7.696950436E0
1.807469243E1,-2.187000036E0,2.073000193E0,8.563950539E0
1.809460989E1,-1.677000046E0,9.280500412E-1,1.043100071E1
1.811452752E1,-1.311000109E0,1.090500057E-1,1.145400047E1
1.813444382E1,-1.468950033E0,4.570500255E-1,9.065999985E0
1.815436048E1,-2.155950069E0,9.690000415E-1,8.700000763E0
1.817428006E1,-1.852050066E0,8.659500480E-1,9.639000893E0
1.819419875E1,-8.220000267E-1,8.370000124E-1,9.148050308E0
1.821412260E1,-2.479500175E-1,7.920000553E-1,9.616950035E0
1.823404492E1,2.230500132E-1,-6.405000389E-2,1.088100052E1
1.825396703E1,-3.079500198E-1,-1.305000067E0,1.100100040E1
1.827388922E1,-5.419500470E-1,-1.390950084E0,1.061805058E1
1.829380970E1,-9.000000358E-2,-9.649500251E-1,1.005000019E1
1.831373068E1,-1.300500035E-1,-9.529500604E-1,1.005795002E1
1.833365266E1,5.805000290E-2,-8.539500237E-1,1.032105064E1
1.835357435E1,-8.149500489E-1,-9.910500646E-1,9.459000587E0
1.837349211E1,-1.828050137E0,-8.160000443E-1,8.359950066E0
1.839341103E1,-2.115000010E0,-7.249500155E-1,7.852950573E0
1.841332377E1,-1.677000046E0,-4.429500103E-1,6.933000565E0
1.843323833E1,-2.173050165E0,1.273050070E0,5.997000217E0
1.845315727E1,-2.151000023E0,4.879500270E-1,7.861950397E0
1.847307493E1,-9.400500655E-1,-3.180000186E-1,8.086950302E0
1.849299142E1,-1.882950068E0,3.540000021E-1,8.503950119E0
1.851290825E1,-2.922000170E0,-5.910000205E-1,8.013000488E0
1.853281866E1,-1.714950085E0,-1.342950106E0,8.772000313E0
1.855273094E1,-3.291000128E0,-1.051050067E0,1.097505093E1
1.857264329E1,-2.995950222E0,-2.188050032E0,9.712950706E0
1.859255562E1,-4.036050320E0,-2.503950119E0,7.771050453E0
1.861246845E1,-4.849950314E0,-3.117000103E0,5.331000328E0
1.863238115E1,-3.139950037E0,-1.882050037E0,9.679050446E0
1.865229584E1,6.870000362E-1,-5.100000501E-1,1.430505085E1
1.867220997E1,1.348050117E0,-2.494950056E0,1.431000042E1
1.869212828E1,1.501050115E0,-2.961000204E0,1.379805088E1
1.871204536E1,2.727000237E0,-2.233950138E0,1.459200096E1
1.873196573E1,2.689050198E0,-1.627950072E0,1.424505043E1
1.875188513E1,2.146050215E0,-1.647000074E0,1.284495068E1
1.877180011E1,2.791950226E0,-1.554000020E0,1.264305019E1
1.879171641E1,3.036000252E0,-1.269000053E0,1.214100075E1
1.881163437E1,2.983950138E0,-1.027050018E0,1.070895004E1
1.883155186E1,2.734950066E0,-6.270000339E-1,8.928000450E0
1.885146682E1,2.565000057E0,-2.770500183E-1,7.825950146E0
1.887138254E1,2.359050035E0,4.995000362E-2,7.429050446E0
1.889129192E1,2.434950113E0,2.820000052E-1,6.981000423E0
1.891120316E1,2.301000118E0,4.399500191E-1,6.442050457E0
1.893111513E1,1.932000041E0,8.350500464E-1,6.262950420E0
1.895102690E1,2.205000162E0,1.069950104E0,6.685950279E0
1.897094321E1,2.622000217E0,9.859500527E-1,7.395000458E0
1.899085820E1,2.524050236E0,1.242000103E0,7.383000374E0
1.901078217E1,2.371050119E0,1.371000051E0,7.210950375E0
1.903070351E1,2.023050070E0,1.512000084E0,7.228050232E0
1.905062311E1,2.260050058E0,1.656000137E0,7.809000492E0
1.907054321E1,2.742000103E0,1.491000056E0,8.722050667E0
1.909046712E1,2.905050039E0,1.162950039E0,9.768000603E0
1.911038990E1,2.671950102E0,9.280500412E-1,1.027095032E1
1.913030436E1,2.461950064E0,7.009500265E-1,9.789000511E0
1.915022127E1,2.248050213E0,8.130000234E-1,8.722050667E0
1.917013656E1,2.457000017E0,7.920000553E-1,7.867050171E0
1.919005233E1,2.437950134E0,1.354050040E0,7.369050503E0
1.920996368E1,2.911950111E0,2.317050219E0,7.965000153E0
1.922987633E1,4.885050297E0,2.262000084E0,1.012695026E1
1.924978822E1,6.928950310E0,1.848000050E0,1.274205017E1
1.926970033E1,7.996950150E0,2.194950104E0,1.260795021E1
1.928961214E1,9.337950706E0,2.470050097E0,1.026795006E1
1.930952403E1,1.119405079E1,3.210000038E0,1.024200058E1
1.932943783E1,1.120500088E1,2.662050009E0,1.051695061E1
1.934935109E1,8.352000237E0,2.467950106E0,9.825000763E0
1.936926215E1,5.337000370E0,2.542050123E0,8.251950264E0
1.938917386E1,4.126049995E0,2.599950075E0,7.218000412E0
1.940908813E1,3.922050238E0,2.422049999E0,7.285050392E0
1.942900164E1,3.370950222E0,2.260050058E0,7.219950199E0
1.944891895E1,2.565000057E0,2.439000130E0,6.526050091E0
1.946883516E1,1.987050056E0,2.592000008E0,5.973000050E0
1.948875148E1,1.723950028E0,2.632950068E0,6.004050255E0
1.950866778E1,1.695000052E0,2.616000175E0,6.307950497E0
1.952858534E1,1.714950085E0,2.638050079E0,6.454050541E0
1.954850254E1,2.023050070E0,2.815050125E0,6.327000141E0
1.956841796E1,2.932950258E0,2.974950075E0,6.291000366E0
1.958833391E1,3.832950115E0,2.965950251E0,6.598050117E0
1.960824611E1,4.141950130E0,2.793000221E0,6.571950436E0
1.962815940E1,4.221000195E0,2.667000055E0,6.532950401E0
1.964806528E1,4.552050114E0,2.853000164E0,6.010950089E0
1.966797333E1,5.217000484E0,2.950950146E0,5.487000465E0
1.968788818E1,5.905050278E0,3.034950256E0,5.619000435E0
1.970780103E1,6.529050350E0,3.268050194E0,6.507000446E0
1.972771488E1,6.750000477E0,3.409050226E0,7.114950180E0
1.974762843E1,6.574950218E0,4.102950096E0,7.398000240E0
1.976754703E1,7.453950405E0,4.905000210E0,8.077950478E0
1.978746414E1,9.022050858E0,5.125050068E0,8.451000214E0
1.980737361E1,9.919950485E0,5.275950432E0,8.761950493E0
1.982728531E1,1.023105049E1,5.097000122E0,8.559000015E0
1.984719162E1,1.034805012E1,4.431000233E0,8.365050316E0
1.986709949E1,9.666000366E0,4.041000366E0,8.604000092E0
1.988701203E1,8.434950829E0,3.811050177E0,9.154950142E0
1.990692320E1,7.044000149E0,3.958950281E0,9.141000748E0
1.992684200E1,6.055050373E0,4.108050346E0,8.272050858E0
1.994675857E1,5.608050346E0,4.195950031E0,7.186950207E0
1.996667900E1,5.598000050E0,4.285050392E0,6.070950508E0
1.998659829E1,5.239050388E0,4.354950428E0,4.984050274E0
2.000651588E1,4.573050022E0,4.369050026E0,4.105050087E0
2.002643397E1,4.075050354E0,4.342950344E0,3.784950256E0
2.004634909E1,3.844950199E0,4.359000206E0,3.808950186E0
2.006626510E1,3.793050289E0,4.290000439E0,4.084050179E0
2.008618920E1,3.910050154E0,4.146000385E0,4.764000416E0
2.010611094E1,4.032000065E0,3.672000170E0,5.434050083E0
2.012603297E1,3.843000174E0,3.277050257E0,5.572950363E0
2.014595492E1,3.522000074E0,2.965950251E0,5.769000053E0
2.016587135E1,3.157950163E0,2.884050131E0,6.174000263E0
2.018578939E1,2.655000210E0,2.992050171E0,6.421050072E0
2.020570541E1,2.229000092E0,3.045000076E0,6.342000484E0
2.022562201E1,2.172000170E0,3.214950085E0,6.415950298E0
2.024553675E1,2.899950027E0,3.232050180E0,7.156050205E0
2.026545206E1,3.613050222E0,3.187950134E0,7.611000538E0
2.028537285E1,3.501000166E0,3.313050270E0,7.146000385E0
2.030529205E1,3.010050058E0,3.427950144E0,6.664950371E0
2.032520820E1,2.454000235E0,3.658050060E0,6.685950279E0
2.034512526E1,1.813050032E0,4.291950226E0,6.840000153E0
2.036504467E1,1.582950115E0,4.785000324E0,7.273050308E0
2.038496340E1,1.992000103E0,5.659050465E0,8.865000725E0
2.040488487E1,2.899950027E0,5.710050106E0,1.124505043E1
2.042480554E1,3.583950281E0,5.554050446E0,1.297395039E1
2.044472757E1,6.208950520E0,5.089950085E0,1.482195091E1
2.046464922E1,8.789999962E0,4.306950092E0,1.616295052E1
2.048457523E1,8.521950722E0,3.888000250E0,1.548495102E1
2.050449997E1,6.831000328E0,3.775050163E0,1.331595039E1
2.052442058E1,5.622000217E0,3.754050255E0,1.104900074E1
2.054434241E1,4.932000160E0,3.148050070E0,9.909000397E0
2.056425541E1,3.589050055E0,2.391000032E0,9.199950218E0
2.058417101E1,2.131050110E0,2.092050076E0,8.227950096E0
2.060408657E1,1.333950043E0,2.086950064E0,7.005000114E0
2.062400215E1,1.035000086E0,2.482050180E0,6.138000488E0
2.064392088E1,9.790500402E-1,2.748000145E0,5.647050381E0
2.066383869E1,9.270000458E-1,2.857950211E0,5.566050053E0
2.068375877E1,8.329500556E-1,3.105000257E0,5.707050323E0
2.070367817E1,1.102050066E0,3.193050146E0,5.974950314E0
2.072359774E1,1.935000062E0,3.016050100E0,6.523950100E0
2.074351725E1,3.031050205E0,2.962950230E0,7.459950447E0
2.076343753E1,3.546000242E0,2.872050047E0,7.860000610E0
2.078335757E1,2.991000175E0,2.821950197E0,7.474050522E0
2.080327829E1,2.011049986E0,3.052050114E0,6.505050182E0
2.082319880E1,1.329000115E0,2.872050047E0,5.829000473E0
2.084312467E1,1.165950060E0,2.359950066E0,6.069000244E0
2.086304897E1,1.434000015E0,1.606050134E0,6.720000267E0
2.088297187E1,1.260000110E0,1.213050008E0,7.110000134E0
2.090289515E1,-2.569500208E-1,1.567950130E0,7.077000141E0
2.092281833E1,-1.435050011E0,2.848950148E0,7.053000450E0
2.094274154E1,-2.094000101E0,3.945000172E0,7.219950199E0
2.096265869E1,-1.585950017E0,4.584000111E0,7.113000393E0
2.098257762E1,1.458000064E0,3.955050230E0,8.961000443E0
2.100249815E1,5.313000202E0,1.134000063E0,1.289700031E1
2.102241818E1,6.562950134E0,-9.619500637E-1,1.488195038E1
2.104233554E1,5.137950420E0,-5.719500184E-1,1.469100094E1
2.106225367E1,4.839000225E0,2.580000162E-1,1.363005066E1
2.108216768E1,5.482950211E0,8.920500278E-1,1.367100048E1
2.110208286E1,5.587950230E0,1.132050037E0,1.342200089E1
2.112200151E1,4.425000191E0,1.162950039E0,1.166895008E1
2.114191916E1,3.568050146E0,1.546050072E0,1.007895088E1
2.116183836E1,3.496050119E0,1.789950132E0,8.604000092E0
2.118175709E1,3.823950291E0,1.965000153E0,7.462050438E0
2.120167716E1,3.964950085E0,2.118000031E0,7.110000134E0
2.122159681E1,4.006050110E0,1.972050071E0,6.816000462E0
2.124152013E1,3.975000143E0,1.792950034E0,6.592950344E0
2.126144237E1,3.987000227E0,1.594050050E0,6.700950146E0
2.128136560E1,4.195050240E0,1.254000068E0,7.081950188E0
2.130128854E1,4.063050270E0,1.053000093E0,7.515000343E0
2.132121771E1,3.702000141E0,1.003050089E0,7.417050362E0
2.134114506E1,3.505050182E0,9.690000415E-1,6.724950314E0
2.136107372E1,3.508050203E0,1.093050003E0,6.208050251E0
2.138100199E1,3.793050289E0,1.263000011E0,6.226950169E0
2.140093068E1,4.024950027E0,1.182000041E0,6.496950150E0
2.142085924E1,4.438950062E0,9.570000172E-1,6.981000423E0
2.144077905E1,4.348050117E0,1.189050078E0,7.513050556E0
2.146070141E1,4.477950096E0,1.528950095E0,7.483950138E0
2.148062554E1,4.486950397E0,1.797000051E0,6.675000191E0
2.150054916E1,5.043000221E0,2.278950214E0,6.399000168E0
2.152047118E1,6.052950382E0,2.851050138E0,7.302000523E0
2.154039369E1,7.054050446E0,2.901000023E0,8.736000061E0
2.156030749E1,8.137949944E0,2.377050161E0,1.006695080E1
2.158022384E1,9.643950462E0,1.687050104E0,1.169295025E1
2.160014069E1,1.166295052E1,6.169500351E-1,1.420905113E1
2.162005739E1,1.228095055E1,-2.610000074E-1,1.571100044E1
2.163997594E1,1.065000057E1,-4.279500246E-1,1.505895042E1
2.165989397E1,8.056950569E0,-1.390500069E-1,1.310100079E1
2.167980930E1,6.043050289E0,2.839500010E-1,1.079295063E1
2.169972543E1,5.184000015E0,6.000000238E-1,9.025950432E0
2.171964620E1,4.858050346E0,8.230500221E-1,8.226000786E0
2.173956563E1,4.219050407E0,8.850000501E-1,7.462050438E0
2.175948559E1,3.165000200E0,9.469500184E-1,6.586050510E0
2.177940540E1,2.143050194E0,1.192050099E0,5.829000473E0
2.179932464E1,1.317000031E0,1.438050032E0,5.317050457E0
2.181924407E1,8.380500674E-1,1.699050069E0,5.101050377E0
2.183916289E1,1.012950063E0,2.026950121E0,5.257050037E0
2.185908190E1,1.686000109E0,2.109000206E0,5.923050404E0
2.187900136E1,2.325000048E0,1.978950143E0,6.856050491E0
2.189892071E1,2.878050089E0,1.981950045E0,8.128050804E0
2.191884171E1,3.051000118E0,2.118000031E0,8.700000763E0
2.193876224E1,2.914050102E0,2.236050129E0,8.722050667E0
2.195867976E1,2.662950039E0,2.451000214E0,8.532000542E0
2.197859816E1,2.536050081E0,2.596950054E0,8.334000587E0
2.199851913E1,2.268000126E0,2.547000170E0,8.644950867E0
2.201843936E1,2.338950157E0,2.221050024E0,9.571950912E0
2.203836368E1,2.148000002E0,1.867050052E0,1.044600010E1
2.205828681E1,1.674000025E0,1.426050067E0,1.041000080E1
2.207820676E1,1.161000013E0,1.225050092E0,1.007700062E1
2.209812765E1,9.940500259E-1,1.869000077E0,1.079505062E1
2.211805820E1,1.272000074E0,2.712000132E0,1.197795010E1
2.213798590E1,1.719000101E0,3.652950287E0,1.149900055E1
2.215791539E1,3.358950138E0,3.379950047E0,9.337050438E0
2.217784436E1,7.642950535E0,2.740950108E0,1.103205013E1
2.219776805E1,1.049205017E1,6.859500408E-1,1.387200069E1
2.221769329E1,8.695950508E0,-3.040500283E-1,1.317300034E1
2.223761360E1,5.014050007E0,4.540500343E-1,1.126695061E1
2.225753536E1,2.362950087E0,1.254000068E0,9.505050659E0
2.227745362E1,1.614000082E0,1.600950122E0,8.374050140E0
2.229737290E1,2.076000214E0,1.738050103E0,7.456950188E0
2.231728874E1,2.665050030E0,1.788000107E0,6.411000252E0
2.233720558E1,2.836950064E0,1.900050044E0,5.599050045E0
2.235712517E1,2.541000128E0,2.371950150E0,4.860000134E0
2.237704396E1,2.698950052E0,2.556000233E0,4.290000439E0
2.239696494E1,3.144000053E0,2.515950203E0,4.600950241E0
2.241688527E1,3.525000095E0,2.341050148E0,5.499000072E0
2.243680807E1,3.967950106E0,2.101050138E0,6.556950092E0
2.245673013E1,4.549050331E0,1.804950118E0,7.663050175E0
2.247664708E1,4.867950439E0,1.491000056E0,8.626049995E0
2.249656553E1,4.474950314E0,1.165050030E0,8.929950714E0
2.251647863E1,3.489000082E0,1.126950026E0,8.227950096E0
2.253639330E1,2.799000025E0,1.395000100E0,7.026000500E0
2.255631908E1,2.490000010E0,1.564950109E0,6.283950329E0
2.257624160E1,2.476050138E0,1.711050034E0,6.279000282E0
2.259616424E1,2.470950127E0,1.576950073E0,6.397050381E0
2.261608684E1,2.296050072E0,1.879050136E0,6.379950523E0
2.263600146E1,2.509050131E0,2.326950073E0,6.592950344E0
2.265591843E1,2.803950071E0,2.631000042E0,7.086000443E0
2.267583179E1,3.184950113E0,3.319950104E0,7.560000420E0
2.269574620E1,3.460050106E0,3.880050182E0,7.849950314E0
2.271566116E1,4.330950260E0,4.480950356E0,8.773950577E0
2.273557597E1,6.082050323E0,4.860000134E0,9.667050362E0
2.275548872E1,7.735950470E0,5.821950436E0,1.120005035E1
2.277540210E1,1.003905010E1,5.560950279E0,1.300305080E1
2.279531155E1,1.241895103E1,4.639050007E0,1.453500080E1
2.281522213E1,1.328400040E1,4.052999973E0,1.403895092E1
2.283514138E1,1.200495052E1,4.125000000E0,1.256205082E1
2.285505810E1,9.513000488E0,4.129050255E0,1.092195034E1
2.287498173E1,7.534950256E0,3.496950150E0,9.514050484E0
2.289490333E1,6.007050514E0,2.698050022E0,8.080050468E0
2.291482599E1,4.260000229E0,2.398050070E0,6.406050205E0
2.293474834E1,2.767950058E0,2.487000227E0,4.900050163E0
2.295466489E1,1.741050124E0,2.797950029E0,3.739050150E0
2.297458312E1,1.354950070E0,3.262950182E0,2.935050249E0
2.299449676E1,1.549050093E0,3.793950081E0,3.034950256E0
2.301441174E1,1.978050113E0,4.132050037E0,3.186000109E0
2.303432896E1,2.326950073E0,4.455000401E0,4.144050121E0
2.305424552E1,2.434950113E0,4.132050037E0,5.104050159E0
2.307416365E1,2.574000120E0,3.727050066E0,6.760950089E0
2.309408131E1,2.821050167E0,3.294000149E0,8.544000626E0
2.311400133E1,2.842050076E0,2.817000151E0,9.490050316E0
2.313392067E1,2.098050117E0,2.470050097E0,9.313050270E0
2.315383752E1,1.087050080E0,2.109000206E0,8.518050194E0
2.317375509E1,1.890000105E-1,1.816950083E0,7.909950256E0
2.319366563E1,-3.169500232E-1,1.453050017E0,7.941000462E0
2.321357823E1,-1.210050106E0,1.129050016E0,8.482049942E0
2.323348091E1,-2.644050121E0,1.311000109E0,9.463950157E0
2.325338648E1,-4.275000095E0,1.929000139E0,1.013205051E1
2.327330251E1,-6.352950096E0,3.363000154E0,1.046205044E1
2.329321544E1,-8.589000702E0,5.073000431E0,1.062705040E1
2.331313772E1,-9.648000717E0,4.102950096E0,1.144200039E1
2.333305728E1,-1.172805023E1,2.104050159E0,1.469505024E1
2.335296801E1,-8.323950768E0,-1.944000125E0,2.012595177E1
2.337288134E1,-2.424000025E0,-5.631000042E0,1.965195084E1
2.339278716E1,-4.660050392E0,-3.129000187E0,1.369200039E1
2.341269519E1,-7.444950581E0,-1.417050123E0,7.807050228E0
2.343260276E1,-7.579050541E0,-4.830000103E-1,5.671050072E0
2.345251048E1,-5.227950096E0,-2.029500157E-1,6.757950306E0
2.347241768E1,-2.800050020E0,1.050000042E-1,8.086950302E0
2.349232503E1,-1.581000090E0,4.330500066E-1,7.987050533E0
2.351223418E1,-1.086000085E0,4.060500264E-1,6.861000538E0
2.353214280E1,-8.869500160E-1,4.330500066E-1,6.397050381E0
2.355205399E1,-5.100000277E-2,1.500000060E-1,6.730050087E0
2.357196442E1,7.590000629E-1,-1.189500093E-1,7.780950546E0
2.359187253E1,1.389000058E0,1.669500023E-1,8.269050598E0
2.361178133E1,2.353950024E0,7.339500189E-1,7.507950306E0
2.363168898E1,3.373950243E0,1.572000027E0,6.114000320E0
2.365159696E1,4.755000114E0,2.254950047E0,5.269050121E0
2.367150391E1,6.436050415E0,2.511000156E0,5.464950085E0
2.369141117E1,7.423050404E0,2.851050138E0,6.198000431E0
2.371131401E1,6.634950161E0,3.427950144E0,6.349050522E0
2.373121816E1,5.160000324E0,3.970950127E0,6.220050335E0
2.375112401E1,4.132950306E0,4.249050140E0,6.118950367E0
2.377102934E1,3.738000154E0,4.369050026E0,5.896050453E0
2.379094066E1,3.448050261E0,4.678050041E0,5.710050106E0
2.381085024E1,2.749050140E0,5.233050346E0,5.239950180E0
2.383075522E1,2.389950037E0,5.476950169E0,4.540950298E0
2.385066155E1,2.004000187E0,5.899050236E0,4.450050354E0
2.387057416E1,1.693050027E0,6.310950279E0,4.885950089E0
2.389048493E1,1.908000112E0,6.342000484E0,5.413050175E0
2.391040472E1,2.337000132E0,6.235950470E0,5.983050346E0
2.393032186E1,2.598000050E0,6.307950497E0,6.715050220E0
2.395023660E1,2.184000015E0,6.460950375E0,7.243950367E0
2.397015203E1,1.794000030E0,6.880050182E0,7.192050457E0
2.399005610E1,2.028000116E0,7.339950562E0,7.966950417E0
2.400996350E1,3.199050188E0,8.068050385E0,9.342000008E0
2.402987162E1,7.320000172E0,7.252050400E0,9.772950172E0
2.404977951E1,1.194105053E1,5.860950470E0,1.003800011E1
2.406969434E1,1.258905029E1,4.684950352E0,1.084095097E1
2.408960713E1,9.742950439E0,5.049000263E0,1.156095028E1
2.410951958E1,6.951000214E0,6.196050167E0,1.008600044E1
2.412943213E1,5.587950230E0,5.833950043E0,7.033950329E0
2.414934744E1,3.975000143E0,4.366050243E0,4.933950424E0
2.416926192E1,9.750000238E-1,3.694050074E0,4.243950367E0
2.418917764E1,-1.452000022E0,3.909000158E0,4.411950111E0
2.420909300E1,-1.741950035E0,3.612000227E0,5.026950359E0
2.422901164E1,-5.059500337E-1,3.289050102E0,6.571950436E0
2.424892932E1,1.102050066E0,3.078000069E0,8.608950615E0
2.426884634E1,2.032950163E0,2.776950121E0,9.796950340E0
2.428876355E1,2.200950146E0,2.679000139E0,9.981000900E0
2.430867461E1,1.714950085E0,2.584950209E0,9.325050354E0
2.432858747E1,1.156949997E0,2.524950027E0,8.723999977E0
2.434850171E1,9.199500680E-1,2.566050053E0,8.494050026E0
2.436841554E1,8.260500431E-1,2.647050142E0,8.118000031E0
2.438833262E1,4.120500088E-1,2.962950230E0,7.264050484E0
2.440824876E1,1.510500014E-1,3.310950041E0,6.355950356E0
2.442816906E1,2.440500110E-1,3.598050117E0,6.220050335E0
2.444808814E1,8.260500431E-1,3.478050232E0,6.813000202E0
2.446799910E1,1.398000121E0,3.094950199E0,7.797000408E0
2.448791241E1,1.429950118E0,3.133050203E0,8.821949959E0
2.450782421E1,1.102050066E0,3.639000177E0,9.484950066E0
2.452773646E1,1.081950068E0,4.120050430E0,9.438000679E0
2.454764910E1,9.769500494E-1,4.750050068E0,9.481050491E0
2.456756162E1,1.729050040E0,5.764950275E0,1.140300083E1
2.458747970E1,5.641050339E0,3.937950134E0,1.312500095E1
2.460739615E1,6.810000420E0,1.462050080E0,1.293795109E1
2.462731928E1,4.717050076E0,1.351950049E0,1.369500065E1
2.464724046E1,2.313000202E0,1.524000049E0,1.471905041E1
2.466716350E1,2.434950113E0,1.929000139E0,1.572495079E1
2.468708600E1,7.153950214E0,2.170950174E0,1.490400028E1
2.470700500E1,1.098495007E1,2.086950064E0,1.344795036E1
2.472692501E1,8.227050781E0,2.085000038E0,1.108500099E1
2.474683726E1,4.036950111E0,2.082000017E0,8.200050354E0
2.476675179E1,1.975950122E0,1.690050125E0,6.603000164E0
2.478666770E1,1.980000138E0,1.699050069E0,6.085950375E0
2.480658322E1,3.417000055E0,1.848000050E0,5.821950436E0
2.482650014E1,4.711950302E0,1.993950129E0,5.773950100E0
2.484641666E1,4.642950058E0,2.022000074E0,5.503950119E0
2.486633364E1,3.775950193E0,1.903050065E0,5.005950451E0
2.488625049E1,2.872950077E0,1.869000077E0,4.399950027E0
2.490616292E1,2.269950151E0,2.263950109E0,3.744000196E0
2.492607665E1,1.861050129E0,3.054000139E0,3.361050129E0
2.494598945E1,1.888950109E0,3.687000275E0,3.298950195E0
2.496590251E1,1.675950050E0,4.342950344E0,3.363000154E0
2.498581798E1,1.501050115E0,4.948050022E0,3.742050171E0
2.500573274E1,1.723950028E0,5.073000431E0,4.708950043E0
2.502564910E1,1.771950126E0,5.449050426E0,6.129000187E0
2.504556498E1,1.105949998E0,6.339000225E0,7.623000145E0
2.506548033E1,5.010000467E-1,7.066950321E0,7.672950268E0
2.508539584E1,5.800500512E-1,8.458050728E0,7.996050358E0
2.510531371E1,2.902050257E0,9.451950073E0,1.151805019E1
2.512523090E1,8.980950356E0,7.443000317E0,1.827705002E1
2.514514738E1,1.221105099E1,4.695000172E0,2.247900200E1
2.516506406E1,1.072695065E1,3.825000286E0,2.150700188E1
2.518498356E1,8.694000244E0,3.952050209E0,1.725000000E1
2.520490222E1,7.378950119E0,4.264050007E0,1.296000099E1
2.522482102E1,6.124950409E0,3.994950294E0,1.020600033E1
2.524473977E1,4.506000042E0,3.517050266E0,7.987050533E0
2.526465548E1,2.991000175E0,3.034950256E0,6.030000210E0
2.528457208E1,1.837050080E0,2.668950081E0,4.555950165E0
2.530448677E1,8.569500446E-1,2.607000113E0,3.463950157E0
2.532440201E1,1.939500123E-1,2.659050226E0,2.635050058E0
2.534432443E1,-1.450500041E-1,2.584950209E0,2.178000212E0
2.536424476E1,-5.830500126E-1,2.571000099E0,2.511000156E0
2.538416001E1,-7.150500417E-1,2.571000099E0,3.162000179E0
2.540407675E1,-6.139500141E-1,2.635050058E0,3.469050169E0
2.542398523E1,-6.790500283E-1,2.659050226E0,2.938950062E0
2.544389613E1,-9.229500294E-1,2.614050150E0,1.989000082E0
2.546380774E1,-1.227000117E0,2.604000092E0,1.720950127E0
2.548371914E1,-5.279999971E-1,2.623050213E0,3.445050240E0
2.550363287E1,1.327050090E0,2.359950066E0,5.920050144E0
2.552354591E1,2.280000210E0,2.142000198E0,8.122950554E0
2.554346331E1,1.588050127E0,2.485050201E0,9.936000824E0
2.556337944E1,9.600000083E-2,4.161000252E0,1.183200073E1
2.558329292E1,5.269500017E-1,5.986950397E0,1.342905045E1
2.560320719E1,6.103050232E0,5.683050156E0,1.462605095E1
2.562311808E1,1.083405018E1,3.523950100E0,1.510500050E1
2.564302996E1,7.573050499E0,3.433050156E0,1.408005047E1
2.566293693E1,3.397950172E0,3.223950148E0,1.282995033E1
2.568284534E1,2.871000051E0,2.788950205E0,1.367805099E1
2.570276078E1,3.912000179E0,2.809950113E0,1.506600094E1
2.572267417E1,3.832950115E0,3.592950106E0,1.398900032E1
2.574258724E1,2.502000093E0,4.266000271E0,1.040700054E1
2.576250041E1,8.650500178E-1,4.708950043E0,6.319950104E0
2.578241202E1,-3.910500109E-1,5.164050102E0,3.382050276E0
2.580232410E1,-3.510000110E-1,5.037000179E0,3.415950060E0
2.582223783E1,5.770500302E-1,4.255949974E0,5.511000156E0
2.584215108E1,6.370500326E-1,3.672000170E0,6.982950211E0
2.586206562E1,1.468050122E0,2.158950090E0,6.825000286E0
2.588197978E1,1.183050036E0,3.226950169E0,9.409049988E0
2.590190041E1,-7.770000100E-1,3.258000135E0,8.961000443E0
2.592181915E1,-5.809500217E-1,1.564950109E0,8.608950615E0
2.594173358E1,-2.880000174E-1,2.310000181E0,9.153000832E0
2.596164929E1,1.200000048E0,4.162950039E0,1.013895035E1
2.598156210E1,2.196000099E0,5.893950462E0,9.945000648E0
2.600147576E1,1.849050045E0,7.612950325E0,1.005300045E1
2.602139624E1,-4.560000300E-1,6.937950134E0,1.027800083E1
2.604131474E1,-1.287000060E0,6.957000256E0,9.576000214E0
2.606122905E1,3.900000080E-2,7.855050564E0,1.267905045E1
2.608114459E1,3.787950277E0,6.303000450E0,1.594305038E1
2.610105856E1,4.594950199E0,5.061000347E0,1.545195103E1
2.612097298E1,2.590950012E0,4.861950397E0,1.267500019E1
2.614089034E1,1.482000113E0,4.335000038E0,1.031595039E1
2.616080683E1,7.420500517E-1,4.186950207E0,9.421050072E0
2.618073069E1,7.639500499E-1,3.967050076E0,9.102000237E0
2.620065239E1,1.173000097E0,3.880050182E0,9.021000862E0
2.622057193E1,9.820500612E-1,3.202950239E0,8.980050087E0
2.624049210E1,2.700000070E-2,2.710050106E0,7.431000233E0
2.626040716E1,-8.989500403E-1,3.090000153E0,6.303000450E0
2.628032372E1,-4.320000112E-1,3.409050226E0,6.061950207E0
2.630024195E1,1.047000051E0,3.331950188E0,6.712950230E0
2.632015970E1,2.038050175E0,3.034950256E0,7.399950504E0
2.634008211E1,1.702950120E0,3.150000095E0,7.845000267E0
2.636000316E1,2.590500116E-1,3.093000174E0,8.497050285E0
2.637992154E1,-3.169500232E-1,3.021000147E0,8.989950180E0
2.639984070E1,-3.199500144E-1,2.812950134E0,9.580950737E0
2.641976008E1,-3.600000143E-1,2.817000151E0,1.019400024E1
2.643967939E1,-3.169500232E-1,2.791050196E0,1.038105011E1
2.645959794E1,-5.350500345E-1,2.938950062E0,1.035705090E1
2.647951671E1,-1.404000044E0,2.776950121E0,1.017000008E1
2.649943398E1,-2.287950039E0,2.191950083E0,9.660000801E0
2.651935170E1,-2.806950092E0,2.260050058E0,8.817000389E0
2.653927443E1,-2.553000212E0,3.193050146E0,8.061000824E0
2.655919569E1,-1.768050075E0,3.897000074E0,7.920000553E0
2.657911512E1,-1.239000082E0,3.949950218E0,8.578050613E0
2.659903509E1,-8.820000291E-1,3.937950134E0,1.059195042E1
2.661895132E1,-8.580000401E-1,3.700950146E0,1.262895107E1
2.663886864E1,-1.294050097E0,3.117000103E0,1.203495026E1
2.665878846E1,-2.139000177E0,3.022950172E0,9.829950333E0
2.667870752E1,-2.094000101E0,3.294000149E0,8.829000473E0
2.669862175E1,-1.465950012E0,3.181050062E0,8.752950668E0
2.671853738E1,-1.753950119E0,3.423000097E0,8.377050400E0
2.673845526E1,-1.459050059E0,4.024050236E0,8.920050621E0
2.675837247E1,-5.970000029E-1,3.805950165E0,1.015305042E1
2.679271564E1,-2.986950159E0,3.535950184E0,1.073295021E1
2.681263080E1,-2.929050207E0,3.130950212E0,9.490050316E0
2.683254985E1,-2.865000248E0,2.773950100E0,8.026950836E0
2.685246775E1,-1.822950125E0,3.199950218E0,8.932050705E0
2.687239394E1,-8.080500364E-1,3.736950159E0,1.039005089E1
2.689231769E1,-3.495000303E-2,4.078950405E0,1.038300037E1
2.691224315E1,1.750500053E-1,4.138950348E0,8.200050354E0
2.693216810E1,-6.760500073E-1,3.792000294E0,6.787050247E0
2.695209520E1,-1.632000089E0,3.178950071E0,6.763050556E0
2.697202165E1,-2.575050116E0,2.566050053E0,7.576950550E0
2.699194402E1,-1.996050119E0,2.109000206E0,8.551950455E0
2.701186759E1,-1.513950109E0,1.419000030E0,1.042605019E1
2.703178911E1,-1.216950059E0,1.057950020E0,1.001895046E1
2.705171121E1,-4.200000167E-1,7.030500174E-1,1.019700050E1
2.707162551E1,1.500000060E-2,8.209500313E-1,9.576000214E0
2.709154208E1,7.050000131E-3,1.275000095E0,8.391000748E0
2.711145705E1,1.890000105E-1,1.627050042E0,7.611000538E0
2.713137248E1,1.602000117E0,1.230000019E0,8.676000595E0
2.715128575E1,2.602950096E0,9.589500427E-1,1.005300045E1
2.717119964E1,2.380050182E0,1.089000106E0,9.849000931E0
2.719111996E1,1.786050081E0,1.426050067E0,9.387000084E0
2.721103837E1,9.289500713E-1,1.558050036E0,8.848950386E0
2.723094930E1,-1.969500035E-1,1.680000067E0,8.101950645E0
2.725086240E1,3.790500164E-1,1.644000053E0,7.969950199E0
2.727078150E1,4.840500355E-1,1.192050099E0,8.379000664E0
2.729069882E1,9.169500470E-1,6.580500603E-1,8.446050644E0
2.731061348E1,1.518000126E0,1.140000075E-1,9.009000778E0
2.733052891E1,2.470950127E0,-9.795000404E-2,9.532950401E0
2.735043851E1,3.738000154E0,4.210500121E-1,1.011300087E1
2.737034982E1,4.168950081E0,6.289500594E-1,9.931050301E0
2.739026517E1,3.759000063E0,2.629500031E-1,8.923050880E0
2.741017934E1,2.662950039E0,-2.800500095E-1,8.002950668E0
2.743009583E1,1.047000051E0,-2.220000178E-1,8.546999931E0
2.745001164E1,2.040000200E0,-6.510000229E-1,1.069005013E1
2.746992483E1,2.562000036E0,-5.460000038E-1,1.108200073E1
2.748983879E1,2.605050087E0,6.430500150E-1,1.063500023E1
2.750976054E1,2.920950174E0,7.939500213E-1,1.154505062E1
2.752968001E1,3.283050060E0,6.700500250E-1,1.357995033E1
2.754960239E1,3.534000158E0,-3.780000210E-1,1.489395046E1
2.756952392E1,3.418950081E0,-9.619500637E-1,1.465905094E1
2.758943595E1,3.136950254E0,-4.500000179E-1,1.312695026E1
2.760935076E1,2.908950090E0,2.650500238E-1,1.116405010E1
2.762926836E1,2.746050119E0,6.960000396E-1,9.655050278E0
2.764918514E1,2.193000078E0,1.053000093E0,8.134950638E0
2.766909721E1,1.843950033E0,1.230000019E0,7.297050476E0
2.768901067E1,1.525050044E0,1.177050114E0,7.138950348E0
2.770892407E1,1.729050040E0,1.105050087E0,7.185000420E0
2.772883750E1,1.480050087E0,9.880500436E-1,6.616950512E0
2.774874796E1,1.189950109E0,1.218000054E0,6.042000294E0
2.776865931E1,8.190000653E-1,1.228050113E0,5.535000324E0
2.778857587E1,3.379500210E-1,1.240050077E0,5.311950207E0
2.780849091E1,7.740000486E-1,1.290000081E0,5.314950466E0
2.782840603E1,5.410500169E-1,1.411950111E0,5.520000458E0
2.784832113E1,4.020000100E-1,1.663050056E0,6.471000195E0
2.786823836E1,1.138050079E0,1.977000117E0,7.879050255E0
2.788815497E1,2.304000139E0,2.544000149E0,9.001950264E0
2.790806774E1,1.864950061E0,3.520950079E0,1.043595028E1
2.792798165E1,1.915950060E0,4.021950245E0,9.991050720E0
2.794789532E1,4.837050438E0,3.025950193E0,1.041405010E1
2.796780908E1,6.319050312E0,2.191950083E0,1.422105026E1
2.798772512E1,5.442000389E0,5.790000558E-1,1.532700062E1
2.800764048E1,2.208000183E0,1.291950107E0,1.295505047E1
2.802755675E1,1.426950097E0,2.343000174E0,9.130949974E0
2.804747277E1,1.879950047E0,3.238950253E0,8.869950294E0
2.806738786E1,2.002050161E0,3.199950218E0,1.026105022E1
2.808730323E1,1.915950060E0,2.182950020E0,1.105605030E1
2.810722509E1,1.602000117E0,1.927050114E0,1.042200089E1
2.812714506E1,1.096950054E0,2.226000071E0,7.546050549E0
2.814706017E1,6.250500083E-1,2.299950123E0,5.029950142E0
2.816697670E1,-1.210500076E-1,2.772000074E0,5.334000111E0
2.818689315E1,-9.349500537E-1,3.129000187E0,6.631050110E0
2.820680962E1,2.895000204E-2,2.098950148E0,7.651050568E0
2.822671890E1,1.405950069E0,9.949500561E-1,6.993000507E0
2.824663030E1,2.269950151E0,8.230500221E-1,5.841000080E0
2.826654312E1,1.825050116E0,1.948050141E0,5.233050346E0
2.828645553E1,1.369950056E0,2.314950228E0,5.389050484E0
2.830637065E1,7.590000629E-1,2.418000221E0,5.571000099E0
2.832628499E1,1.066050053E0,2.128050089E0,6.259950161E0
2.834619952E1,1.201950073E0,2.317050219E0,7.984050274E0
2.836611399E1,1.225950003E0,2.260050058E0,9.268050194E0
2.838602878E1,2.050050020E0,1.186950088E0,9.138000488E0
2.840594346E1,1.023000002E0,1.929000139E0,8.104050636E0
2.842585178E1,5.149500370E-1,2.860050201E0,6.514050484E0
2.844576195E1,1.579500139E-1,3.226950169E0,5.776950359E0
2.846567479E1,8.809500337E-1,1.240050077E0,6.271950245E0
2.848558686E1,5.770050049E0,-2.668950081E0,1.533495045E1
2.850549728E1,8.584050179E0,-5.917950153E0,2.155500031E1
2.852540818E1,8.413949966E0,-4.723950386E0,1.970205116E1
2.854532288E1,4.399050236E0,-3.117000103E0,1.315095043E1
2.856523648E1,4.044000149E0,-3.711000204E0,9.088050842E0
2.858515363E1,4.105950356E0,-3.438000202E0,1.076400089E1
2.860506973E1,4.281000137E0,-3.366000175E0,1.270305061E1
2.862498963E1,3.474000216E0,-2.442000151E0,1.152300072E1
2.864490842E1,1.711950064E0,-1.366950035E0,9.009000778E0
2.866483230E1,1.035000086E0,-8.089500666E-1,6.358050346E0
2.868475467E1,3.160500228E-1,-4.429500103E-1,5.707050323E0
2.870467697E1,7.500000596E-1,-1.980000138E-1,5.793000221E0
2.872459929E1,1.255050063E0,-2.299500108E-1,5.769000053E0
2.874452697E1,2.140950203E0,-2.530499995E-1,5.746050358E0
2.876445307E1,2.857050180E0,-5.700000376E-2,6.568950176E0
2.878437796E1,3.130050182E0,0.000000000E0,7.690050602E0
2.880430321E1,3.124950171E0,-1.939500123E-1,8.023050308E0
2.882422650E1,1.959000111E0,-3.349500299E-1,7.951050282E0
2.884415037E1,5.509500504E-1,-3.349500299E-1,8.676000595E0
2.886406210E1,-1.399500072E-1,-6.319500208E-1,1.072095013E1
2.888397737E1,1.695000008E-2,-1.804950118E0,1.426695061E1
2.890389151E1,1.429950118E0,-3.370950222E0,1.889505005E1
2.892380599E1,3.699000120E0,-4.669050217E0,1.912500000E1
2.894372590E1,6.130050182E0,-4.963050365E0,1.903905106E1
2.896364422E1,6.817050457E0,-4.506000042E0,1.860300064E1
2.898356775E1,5.470950127E0,-3.742050171E0,1.560795116E1
2.900348976E1,4.336050034E0,-3.052050114E0,1.160205078E1
2.902341423E1,5.086050034E0,-2.667000055E0,9.732000351E0
2.904333799E1,6.967950344E0,-2.170950174E0,1.046505070E1
2.906325068E1,8.004000664E0,-1.675950050E0,1.106100082E1
2.908316660E1,7.542000294E0,-1.357050061E0,9.817950249E0
2.910308213E1,6.490950108E0,-1.000950098E0,7.567950249E0
2.912299776E1,5.566950321E0,-5.790000558E-1,5.518050194E0
2.914290246E1,4.876950264E0,-1.860000044E-1,4.254000187E0
2.916281036E1,4.671000004E0,-1.510500014E-1,3.958950281E0
2.918271872E1,4.767000198E0,-8.100000024E-2,3.901950121E0
2.920262696E1,5.031000137E0,1.740000099E-1,3.600000143E0
2.922254172E1,5.289000034E0,4.060500264E-1,3.313050270E0
2.924245457E1,5.113950253E0,2.700000107E-1,2.655000210E0
2.926236826E1,4.453950405E0,1.999500096E-1,1.903050065E0
2.928228172E1,4.024950027E0,2.200500071E-1,1.552950025E0
2.930219454E1,3.594000101E0,4.470000267E-1,1.728000045E0
2.932210756E1,3.763950109E0,6.910500526E-1,2.415000200E0
2.934201866E1,4.114050388E0,1.054949999E0,3.045000076E0
2.936193033E1,3.838050127E0,1.531950116E0,3.900000095E0
2.938183982E1,3.610950232E0,1.872000098E0,5.808000088E0
2.940174994E1,3.526950121E0,2.479950190E0,7.386000156E0
2.942165834E1,3.613050222E0,3.117000103E0,8.602050781E0
2.944156725E1,3.817050219E0,3.141000032E0,1.191795063E1
2.946147487E1,5.026050091E0,1.359000087E0,1.782705116E1
2.948138286E1,9.769050598E0,-1.240500063E-1,2.897700119E1
2.950128779E1,1.210305023E1,-1.135050058E0,3.049005127E1
2.952119362E1,7.719000340E0,1.501050115E0,2.148600197E1
2.954109987E1,5.442000389E0,3.684000254E0,1.627095032E1
2.956100600E1,5.695950508E0,2.920050144E0,1.715895081E1
2.958091433E1,4.120950222E0,1.468950033E0,1.707299995E1
2.960082200E1,1.782000065E0,7.219500542E-1,1.379505062E1
2.962073542E1,3.499500155E-1,7.009500265E-1,9.760950089E0
2.964064716E1,-7.800000161E-2,6.240000129E-1,6.751050472E0
2.966056212E1,-1.969500035E-1,3.079500198E-1,4.648950100E0
2.968047615E1,-1.090500057E-1,3.495000303E-2,2.913000107E0
2.970038887E1,2.209500074E-1,2.580000162E-1,1.477050066E0
2.972030198E1,5.050500035E-1,2.460000068E-1,6.600000262E-1
2.974021411E1,7.050000131E-3,0.000000000E0,5.500500202E-1
2.976012653E1,-7.909500599E-1,1.759500057E-1,9.859500527E-1
2.978003575E1,-1.432950020E0,6.460500360E-1,1.747050047E0
2.979994591E1,-1.063950062E0,8.209500313E-1,2.755050182E0
2.981985919E1,-1.590000093E-1,1.084050059E0,3.856050253E0
2.983977154E1,2.970000207E-1,1.422000051E0,4.354050159E0
2.985968077E1,-6.000000052E-3,1.809000134E0,4.050000191E0
2.987959092E1,-7.000500560E-1,2.134950161E0,3.909000158E0
2.989949801E1,-1.468950033E0,2.548950195E0,4.126950264E0
2.991940600E1,-1.897050142E0,3.129000187E0,4.936050415E0
2.993931816E1,-1.981050134E0,4.690050125E0,5.913000107E0
2.995922909E1,-2.719500065E-1,6.174000263E0,7.218000412E0
2.997914592E1,3.393000126E0,3.997950077E0,1.214505100E1
2.999906102E1,5.851950169E0,8.539500237E-1,2.125095177E1
3.001897974E1,6.024000168E0,-6.195000187E-2,2.691105080E1
3.003889740E1,4.936950207E0,1.113000035E0,2.638395119E1
3.005880770E1,5.790000439E0,2.583000183E0,2.421705055E1
3.007872017E1,6.580050468E0,2.995050192E0,2.283105087E1
3.009863511E1,5.811000347E0,2.560950041E0,2.020500183E1
3.011854932E1,4.108950138E0,2.238000154E0,1.461405087E1
3.013846133E1,3.031050205E0,2.073000193E0,9.065999985E0
3.015837397E1,2.317950010E0,2.161050081E0,5.640000343E0
3.017828879E1,1.585050106E0,1.999050140E0,3.508950233E0
3.019820297E1,7.830000520E-1,1.723050117E0,2.014950037E0
3.021811474E1,-7.950000465E-3,1.395000100E0,7.459500432E-1
3.023802721E1,-5.710500479E-1,1.101000071E0,-1.650000066E-1
3.025794207E1,-9.040500522E-1,8.610000610E-1,-6.700500250E-1
3.027785622E1,-9.900000691E-1,6.859500408E-1,-9.310500622E-1
3.029776512E1,-8.149500489E-1,5.790000558E-1,-9.000000358E-1
3.031767555E1,-5.110500455E-1,7.750500441E-1,-1.339500099E-1
3.033758498E1,-2.190000117E-1,8.059500456E-1,8.230500221E-1
3.035749470E1,-2.170500159E-1,5.950500369E-1,1.315950036E0
3.037740485E1,-3.670500219E-1,9.910500646E-1,1.855050087E0
3.039731490E1,4.789500237E-1,1.387950063E0,3.363000154E0
3.041722854E1,1.209000111E0,1.692000031E0,6.684000492E0
3.043714113E1,1.348050117E0,2.044049978E0,9.787050247E0
3.045705641E1,5.170500278E-1,2.619000196E0,1.105605030E1
3.047697090E1,7.660500407E-1,3.568950176E0,1.711800003E1
3.049688900E1,2.074050188E0,1.740000129E0,2.476800156E1
3.051680605E1,4.401000023E0,-1.027050018E0,3.073695183E1
3.053672828E1,5.404050350E0,-1.101000071E0,3.076605225E1
3.055664902E1,4.693050385E0,5.929500461E-1,2.541705132E1
3.057656905E1,4.389000416E0,1.326000094E0,2.212200165E1
3.059648931E1,3.631950140E0,1.030950069E0,2.147400093E1
3.061640475E1,2.239050150E0,6.000000238E-1,1.797300148E1
3.063632160E1,1.023000002E0,8.370000124E-1,1.262400055E1
3.065623799E1,4.720500112E-1,1.180050015E0,8.110950470E0
3.067615452E1,1.680000126E-1,1.234950066E0,5.008050442E0
3.069607012E1,-2.929500043E-1,1.219950080E0,2.824950218E0
3.071598599E1,-1.024049997E0,1.074000001E0,1.062000036E0
3.073590521E1,-1.519050121E0,8.760000467E-1,-1.950000064E-3
3.075582345E1,-1.675050020E0,7.030500174E-1,-7.230000496E-1
3.077574018E1,-1.629000068E0,7.249500155E-1,-1.242000103E0
3.079565736E1,-1.567050099E0,1.053000093E0,-1.858050108E0
3.081556540E1,-1.641000032E0,1.579950094E0,-2.605050087E0
3.083547612E1,-1.672050118E0,1.716000080E0,-2.509050131E0
3.085538991E1,-1.335000038E0,1.345050097E0,-5.670000315E-1
3.087530280E1,-7.429500222E-1,9.499500394E-1,2.455950022E0
3.089522237E1,-3.889500201E-1,9.210000634E-1,5.572950363E0
3.091514001E1,-9.900000691E-2,1.038000107E0,6.997950554E0
3.093506292E1,-1.620000005E-1,1.050000072E0,7.468950272E0
3.095498430E1,-5.230500102E-1,1.072050095E0,9.538050652E0
3.097490370E1,-2.070000172E-1,1.189050078E0,1.335495090E1
3.099482369E1,-6.160500050E-1,1.915050149E0,1.450395107E1
3.101474484E1,3.256050110E0,2.808000088E0,1.773600006E1
3.103466563E1,1.284105015E1,1.837950110E0,2.448795128E1
3.105458460E1,1.796700096E1,1.570500135E-1,2.672895050E1
3.107450410E1,1.414305115E1,-1.549500078E-1,2.319705200E1
3.109442324E1,6.972000122E0,5.910000205E-1,1.916805077E1
3.111434248E1,2.526000023E0,1.510050058E0,1.657005119E1
3.113426082E1,1.702950120E0,1.752000093E0,1.563195038E1
3.115417941E1,2.304000139E0,1.405050039E0,1.508100033E1
3.117408962E1,2.116950035E0,1.207950115E0,1.300695038E1
3.119400227E1,1.054050088E0,1.399950027E0,9.720000267E0
3.121391542E1,3.619500101E-1,1.671000123E0,6.931050301E0
3.123382842E1,3.160500228E-1,1.816950083E0,4.939050198E0
3.125374171E1,3.640500307E-1,1.845000029E0,3.547950268E0
3.127365490E1,4.305000231E-2,1.996050119E0,2.499000072E0
3.129356125E1,-2.089500129E-1,1.939050078E0,1.558050036E0
3.131346960E1,-5.179499984E-1,1.891050100E0,8.590500355E-1
3.133338244E1,-5.520000458E-1,1.575000048E0,3.495000303E-2
3.135329398E1,-4.110000134E-1,1.351950049E0,-6.799500585E-1
3.137320029E1,-1.740000099E-1,1.780950069E0,-9.240000248E-1
3.139310813E1,6.705000252E-2,1.833000064E0,-4.429500103E-1
3.141301256E1,-2.359500080E-1,1.672950029E0,2.770500183E-1
3.143291799E1,-4.540500343E-1,1.659000039E0,1.090950012E0
3.145282188E1,-3.460500240E-1,2.242950201E0,1.885950089E0
3.147272622E1,4.360500276E-1,2.568000078E0,3.160050154E0
3.149262871E1,1.590000033E0,2.001000166E0,5.674050331E0
3.151253175E1,3.333000183E0,1.339950085E0,9.088050842E0
3.153243413E1,6.184950352E0,8.250000477E-1,1.152495098E1
3.155233669E1,7.144950390E0,-5.410500169E-1,1.657005119E1
3.157224443E1,5.809050083E0,-1.860000134E0,2.204295158E1
3.159215064E1,6.028950214E0,-2.847000122E0,2.356395149E1
3.161205962E1,9.904950142E0,-4.060050011E0,2.658300209E1
3.163196779E1,1.148295021E1,-5.454000473E0,3.352605057E1
3.165187954E1,8.071050644E0,-4.627950191E0,3.292800140E1
3.167179025E1,6.022050381E0,-2.515950203E0,2.385405159E1
3.169170046E1,5.529000282E0,-9.409500360E-1,1.580205059E1
3.171161084E1,3.679950237E0,-3.105000220E-2,1.087200069E1
3.173152132E1,2.473950148E0,1.450500041E-1,7.795050144E0
3.175143177E1,1.935000062E0,1.090500057E-1,6.190950394E0
3.177134062E1,1.426950097E0,4.995000362E-2,4.551000118E0
3.179124993E1,9.480000734E-1,2.220000178E-1,2.602050066E0
3.181115219E1,3.330000043E-1,4.110000134E-1,7.750500441E-1
3.183105649E1,-4.420500100E-1,6.910500526E-1,-7.710000277E-1
3.185096637E1,-1.123950005E0,9.520500302E-1,-1.846050143E0
3.187087459E1,-1.933050036E0,1.177050114E0,-2.407950163E0
3.189078170E1,-2.929050207E0,1.455000043E0,-2.578050137E0
3.191068913E1,-3.631050110E0,1.555950046E0,-2.344050169E0
3.193060241E1,-3.504000187E0,1.207950115E0,-1.020000100E0
3.195051397E1,-2.982000113E0,1.004999995E0,1.255950093E0
3.197041945E1,-2.508000135E0,8.920500278E-1,3.082950115E0
3.199032669E1,-1.888050079E0,8.419500589E-1,4.419000149E0
3.201023264E1,-1.459050059E0,5.790000558E-1,6.028050423E0
3.203013898E1,-1.339950085E0,2.509500086E-1,8.455950737E0
3.205004090E1,-1.059000015E0,4.519500136E-1,9.970950127E0
3.206994412E1,-7.980000377E-1,1.759050131E0,1.089105034E1
3.208984392E1,-1.741950035E0,2.809950113E0,1.380195045E1
3.210974472E1,1.032000065E0,4.276050091E0,2.227605057E1
3.212964838E1,1.713899994E1,3.187950134E0,2.784195137E1
3.214955119E1,2.119695091E1,6.820500493E-1,2.686305046E1
3.216945958E1,9.762000084E0,-9.529500604E-1,2.263695145E1
3.218936634E1,-7.860000134E-1,2.820000052E-1,1.694099998E1
3.220927594E1,-2.647050142E0,1.480950117E0,1.325205040E1
3.222918471E1,-2.959500253E-1,2.350050211E0,1.244205093E1
3.224909335E1,1.108950019E0,2.386050224E0,1.226505089E1
3.226900203E1,2.560500205E-1,2.310000181E0,1.078095055E1
3.228891296E1,-5.110500455E-1,2.512950182E0,8.604000092E0
3.230882325E1,4.099500179E-1,2.346000195E0,6.757950306E0
3.232872979E1,1.044000030E0,2.169000149E0,5.206950188E0
3.234863742E1,9.870000482E-1,1.888050079E0,3.756000280E0
3.236854722E1,1.104000092E0,1.588950038E0,2.491950035E0
3.238845640E1,8.290500641E-1,1.539000034E0,1.261050105E0
3.240836910E1,3.090000153E-1,1.663050056E0,-2.400000021E-2
3.242828078E1,1.369500011E-1,1.848000050E0,-7.279500365E-1
3.244818885E1,5.530500412E-1,1.837950110E0,-2.100000083E-1
3.246809799E1,1.695000052E0,1.210950017E0,1.596000075E0
3.248800880E1,2.835000038E0,4.420500100E-1,4.126950264E0
3.250791913E1,2.610000134E0,4.279500246E-1,6.211950302E0
3.252783542E1,1.894050121E0,1.012050033E0,7.222950459E0
3.254774997E1,1.707000136E0,1.599000096E0,7.813950539E0
3.256766060E1,2.203050137E0,2.307000160E0,8.940000534E0
3.258757236E1,2.701050043E0,2.443950176E0,1.059195042E1
3.260748390E1,2.608050108E0,2.536950111E0,1.199700069E1
3.262739551E1,1.840950131E0,2.571000099E0,1.155195045E1
3.264730920E1,1.236000061E0,3.136050224E0,1.034700012E1
3.266722228E1,1.018050075E0,3.672000170E0,1.136700058E1
3.268712864E1,1.707000136E0,3.793950081E0,1.402995110E1
3.270703698E1,4.477950096E0,1.162950039E0,2.115000153E1
3.272694568E1,5.863950253E0,-1.159050107E0,3.027000237E1
3.274685428E1,5.454000473E0,-1.426950097E0,3.019395065E1
3.276675751E1,4.252050400E0,7.395000011E-2,2.452605057E1
3.278666230E1,4.549050331E0,4.969500303E-1,2.171295166E1
3.280657352E1,3.883950233E0,4.249500334E-1,1.838505173E1
3.282648285E1,2.461950064E0,6.580500603E-1,1.249695015E1
3.284638616E1,1.482000113E0,7.150500417E-1,7.900050163E0
3.286629123E1,8.689500690E-1,6.510000229E-1,5.362050056E0
3.288619920E1,2.899500132E-1,7.650000453E-1,2.950950146E0
3.290610631E1,-5.160000324E-1,7.680000067E-1,5.310000181E-1
3.292601610E1,-1.249050021E0,8.850000501E-1,-1.257000089E0
3.294592509E1,-1.914000034E0,1.213050008E0,-2.550000191E0
3.296583631E1,-2.199000120E0,1.723050117E0,-3.157950163E0
3.298574687E1,-2.014950037E0,2.122950077E0,-2.899050236E0
3.300564994E1,-1.852050066E0,2.152050018E0,-2.111999989E0
3.302555519E1,-1.689000130E0,2.169000149E0,-7.110000253E-1
3.304546498E1,-1.384950042E0,2.282999992E0,5.329500437E-1
3.306537343E1,-5.950500369E-1,2.157000065E0,1.860000134E0
3.308528368E1,6.919500232E-1,1.948050141E0,3.508950233E0
3.310519342E1,1.099050045E0,1.285050035E0,5.968050480E0
3.312510074E1,1.075049996E0,1.026000023E0,9.514050484E0
3.314500875E1,7.330500484E-1,6.529500484E-1,1.147305012E1
3.316491932E1,-8.505000174E-2,5.400000215E-1,1.423305035E1
3.318482914E1,1.378950119E0,9.400500655E-1,1.724295044E1
3.320473412E1,4.522950172E0,2.254950047E0,1.906500053E1
3.322464052E1,6.109950066E0,2.188050032E0,1.759995079E1
3.324454933E1,4.068000317E0,2.319000006E0,1.620600128E1
3.326445744E1,4.249950409E0,1.090950012E0,1.785300064E1
3.328436755E1,7.461000443E0,-1.297050118E0,2.239095116E1
3.330427706E1,8.239050865E0,-2.137950182E0,2.475900078E1
3.332419004E1,4.948950291E0,-1.264050007E0,1.973505020E1
3.334410200E1,1.891950130E0,4.900500178E-1,1.322805023E1
3.336401151E1,1.249950051E0,1.419000030E0,1.056300068E1
3.338392175E1,1.722000122E0,1.414050102E0,1.056000042E1
3.340383566E1,1.876950145E0,1.207950115E0,1.013400078E1
3.342374851E1,1.387050033E0,1.383000016E0,8.286000252E0
3.344366029E1,1.044000030E0,1.594050050E0,6.109050274E0
3.346357241E1,8.670000434E-1,1.728000045E0,4.765950203E0
3.348348275E1,7.399500608E-1,1.639050126E0,4.201050282E0
3.350339362E1,2.590500116E-1,1.534050107E0,3.550050259E0
3.352330423E1,-3.079500198E-1,1.395000100E0,2.757000208E0
3.354321492E1,-6.450000405E-1,1.182000041E0,2.140050173E0
3.356312712E1,-8.700000644E-1,1.057950020E0,1.819050074E0
3.358303886E1,-8.749500513E-1,1.062000036E0,1.702050090E0
3.360295059E1,-8.580000401E-1,1.141050100E0,1.663050056E0
3.362286232E1,-9.420000315E-1,1.198950052E0,1.620000124E0
3.364277288E1,-1.042950034E0,1.290000081E0,1.669950128E0
3.366268379E1,-8.340000510E-1,1.512000084E0,1.936050057E0
3.368258732E1,-6.310500503E-1,1.966950059E0,2.029950142E0
3.370249301E1,-3.889500201E-1,2.475000143E0,2.025000095E0
3.372239966E1,5.989500284E-1,2.494050026E0,2.833950043E0
3.374230603E1,1.801050067E0,2.467950106E0,6.138000488E0
3.376221568E1,2.428050041E0,2.772000074E0,1.377405071E1
3.378212439E1,3.268050194E0,2.724000216E0,1.854104996E1
3.380203194E1,3.055050135E0,3.531000137E0,1.996500015E1
3.382193984E1,3.819000244E0,2.836950064E0,2.473695183E1
3.384184678E1,6.484050274E0,1.006950021E0,3.141705132E1
3.386175400E1,5.833050251E0,7.150500417E-1,3.071295166E1
3.388165848E1,3.481950283E0,1.789950132E0,2.363595200E1
3.390156377E1,2.038050175E0,2.520000219E0,1.800900078E1
3.392146382E1,1.363050103E0,2.920050144E0,1.469295025E1
3.394136540E1,2.292000055E0,2.821950197E0,1.141500092E1
3.396126170E1,2.739000082E0,2.230950117E0,7.399950504E0
3.398115955E1,1.984950066E0,1.374000072E0,3.349050045E0
3.400106260E1,7.350000143E-1,9.499500394E-1,5.359500051E-1
3.402096411E1,-1.450500041E-1,1.012050033E0,-1.055999994E0
3.404086115E1,-1.054949999E0,1.186950088E0,-1.446000099E0
3.406075949E1,-1.885050058E0,1.599000096E0,-5.260500312E-1
3.408066146E1,-1.941000104E0,1.819050074E0,8.880000710E-1
3.410056235E1,-1.251000047E0,1.584000111E0,2.274000168E0
3.412047353E1,-8.730000257E-1,1.627050042E0,3.399000168E0
3.414038168E1,-3.000000119E-1,1.579950094E0,3.958950281E0
3.416029308E1,-9.495000541E-2,1.218000054E0,5.307000160E0
3.418020353E1,3.589500189E-1,1.161000013E0,7.450050354E0
3.420011326E1,1.036949992E0,1.563000083E0,8.406000137E0
3.422002322E1,1.461000085E0,2.137050152E0,8.125050545E0
3.423993291E1,1.284000039E0,2.716950178E0,8.427000046E0
3.425984268E1,8.620500565E-1,3.130950212E0,8.973000526E0
3.427974802E1,-5.595000088E-2,3.153000116E0,1.107300091E1
3.429965467E1,-1.057050109E0,2.995050192E0,1.388895035E1
3.431955635E1,5.940000415E-1,3.994950294E0,1.594005108E1
3.433945949E1,6.409950256E0,3.403950214E0,2.124600029E1
3.435936997E1,9.139050484E0,2.194950104E0,2.446605110E1
3.437927832E1,8.113950729E0,1.681950092E0,2.245500183E1
3.439918802E1,6.180000305E0,3.616950274E0,1.884705162E1
3.441909732E1,5.433000088E0,5.218950272E0,1.666800117E1
3.443901431E1,4.006050110E0,5.473050117E0,1.606005096E1
3.445892903E1,2.806050062E0,4.315950394E0,1.521705055E1
3.447884008E1,1.927950144E0,3.034950256E0,1.311795044E1
3.449875220E1,1.456050038E0,2.829000235E0,1.049805069E1
3.451865943E1,1.171050072E0,2.929950237E0,8.056050301E0
3.453856810E1,9.940500259E-1,2.572950125E0,5.688000202E0
3.455847273E1,1.440000087E-1,2.092050076E0,3.532950163E0
3.457837855E1,-6.670500040E-1,1.531950116E0,1.680000067E0
3.459828355E1,-1.264950037E0,1.174950004E0,5.760000348E-1
3.461818879E1,-1.696050048E0,9.450000525E-1,1.120500043E-1
3.463809974E1,-1.536000013E0,8.370000124E-1,1.380000114E-1
3.465800902E1,-1.477950096E0,9.589500427E-1,1.309500039E-1
3.467791036E1,-1.768050075E0,1.432950020E0,-2.250000089E-1
3.469781402E1,-2.009999990E0,1.951050043E0,-5.959500074E-1
3.471771695E1,-1.573950052E0,2.499000072E0,-3.469500244E-1
3.473762010E1,-3.900000080E-2,2.461050034E0,1.500000119E0
3.475752861E1,2.943000078E0,1.939050078E0,7.134000301E0
3.477743555E1,2.634000063E0,3.117000103E0,1.076895046E1
3.479734081E1,1.123050094E0,3.157050133E0,1.018695068E1
3.481724656E1,9.889500737E-1,3.876000166E0,1.091505051E1
3.483714706E1,3.142050266E0,4.479000092E0,1.321095085E1
3.485704910E1,3.831000090E0,6.076050282E0,1.593300056E1
3.487695861E1,5.064000130E0,7.126950264E0,1.745400047E1
3.489686594E1,6.831000328E0,7.252050400E0,2.023095131E1
3.491677244E1,7.534950256E0,5.487000465E0,1.954095078E1
3.493667918E1,4.105950356E0,5.394000053E0,1.572000122E1
3.495659034E1,2.155050039E0,5.860950470E0,1.244700050E1
3.497650019E1,1.947000146E0,5.821950436E0,1.142505074E1
3.499641113E1,2.100000143E0,4.963050365E0,1.104900074E1
3.501632174E1,1.839000106E0,2.899050236E0,9.952050209E0
3.503623271E1,1.827000141E0,1.867050052E0,9.507000923E0
3.505614358E1,2.785050154E0,2.104050159E0,9.177000046E0
3.507605450E1,2.731950045E0,3.259950161E0,7.386000156E0
3.509596542E1,2.083050013E0,3.463950157E0,6.133050442E0
3.511587688E1,1.723950028E0,1.783050060E0,5.833950043E0
3.513578819E1,3.550500274E-1,1.681950092E0,5.554050446E0
3.515570191E1,-2.190000057E0,4.410000324E0,5.415000439E0
3.517561490E1,-5.644050121E0,5.821950436E0,6.411000252E0
3.519552968E1,-3.067950249E0,3.784950256E0,6.178950310E0
3.521544392E1,-1.926000118E0,3.064050198E0,7.335000515E0
3.523535639E1,-1.609950066E0,2.548950195E0,1.067295074E1
3.525526938E1,-1.106999993E0,1.663050056E0,1.107300091E1
3.527517833E1,-2.314050198E0,2.346000195E0,9.901950836E0
3.529508846E1,-3.214050055E0,2.736000061E0,8.326950073E0
3.531500246E1,-4.363950253E0,3.042000055E0,7.690050602E0
3.533491532E1,-4.207950115E0,3.196050167E0,8.761950493E0
3.535483836E1,-3.499050140E0,3.102000237E0,1.025595093E1
3.537475841E1,-3.432000160E0,3.339000225E0,1.027605057E1
3.539467445E1,-3.856050253E0,3.796950102E0,8.631000519E0
3.541459166E1,-4.102950096E0,4.231950283E0,5.712000370E0
3.543451262E1,-2.980050087E0,4.361999989E0,8.647050858E0
3.545443249E1,-3.174000263E0,5.245050430E0,9.399000168E0
3.548733686E1,-1.981050134E0,3.682050228E0,9.663000107E0
3.550726106E1,-2.299950123E0,3.495000124E0,8.746050835E0
3.552718779E1,-2.452950001E0,3.861000299E0,8.374050140E0
3.554711377E1,-2.395050049E0,3.742050171E0,9.912000656E0
3.556703761E1,-1.540950060E0,3.042000055E0,1.133595085E1
3.558696208E1,-7.480500340E-1,2.571000099E0,1.188405037E1
3.560688704E1,-4.249500334E-1,2.575950146E0,1.071105003E1
3.562681185E1,-5.970000029E-1,2.893950224E0,9.385050774E0
3.564674297E1,-9.420000315E-1,3.058950186E0,8.776950836E0
3.566667224E1,-4.990500212E-1,3.211950064E0,8.470050812E0
3.568659696E1,4.930500090E-1,2.707050085E0,7.819050312E0
3.570652301E1,8.895000070E-2,2.176050186E0,8.521050453E0
3.572644229E1,8.070000410E-1,1.978950143E0,8.704950333E0
3.574636355E1,1.671000123E0,1.891050100E0,8.274000168E0
3.576628878E1,1.173000097E0,1.756950140E0,7.738050461E0
3.578621285E1,4.789500237E-1,1.917000055E0,7.345050335E0
3.580613956E1,7.740000486E-1,1.054949999E0,7.386000156E0
3.582606548E1,1.080000028E-1,1.639050126E0,8.793000221E0
3.584599092E1,4.960500300E-1,2.455950022E0,9.610050201E0
3.586591650E1,3.273000240E0,5.140500069E-1,1.014405060E1
3.588584984E1,4.093950272E0,-1.252050042E0,1.069905090E1
3.590578090E1,1.264050007E0,-2.299500108E-1,9.636000633E0
3.592570800E1,-3.199500144E-1,8.830500245E-1,7.323000431E0
3.594563624E1,4.840500355E-1,9.640500546E-1,6.568950176E0
3.596556119E1,2.469000101E0,-3.280500174E-1,5.190000057E0
3.598548710E1,-1.348950028E0,9.859500527E-1,3.504000187E0
3.600540640E1,-3.043950081E0,2.656950235E0,3.367950201E0
3.602532764E1,-1.687050104E0,1.728000045E0,2.700000048E0
3.604525484E1,-1.015950084E0,2.013000011E0,2.632950068E0
3.606518031E1,-1.210500076E-1,2.118000031E0,3.466050148E0
3.608510293E1,-1.063950062E0,3.090000153E0,3.934950113E0
3.610502639E1,-2.094000101E0,3.709950209E0,6.013950348E0
3.612494564E1,-3.834000111E0,4.606050014E0,7.881000519E0
3.614486613E1,-3.193050146E0,4.129050255E0,9.988050461E0
3.616479176E1,-4.395000264E-2,1.479000092E0,1.745805168E1
3.618471589E1,4.542000294E0,-2.334000111E0,3.012405205E1
3.620464257E1,5.727000237E0,-4.828950405E0,3.490800095E1
3.622456850E1,4.470000267E0,-3.133950233E0,3.015495110E1
3.624449648E1,5.464050293E0,-2.097000122E0,2.578305054E1
3.626442387E1,5.658000469E0,-1.636950135E0,2.109300041E1
3.628435053E1,3.570000172E0,-8.040000200E-1,1.447800064E1
3.630427741E1,1.345950007E0,-2.920500040E-1,8.880000114E0
3.632419514E1,-1.660500020E-1,-1.480500102E-1,5.566050053E0
3.634411556E1,-1.170000076E0,-3.130500019E-1,3.562050104E0
3.636403481E1,-1.653000116E0,-4.930500090E-1,2.118000031E0
3.638395440E1,-1.816050053E0,-4.860000312E-1,8.730000257E-1
3.640387768E1,-1.006950021E0,-1.740000099E-1,8.505000174E-2
3.642379987E1,-1.392000079E0,-1.170000061E-1,-7.660500407E-1
3.644372272E1,-1.737000108E0,-1.630500108E-1,-1.627950072E0
3.646364539E1,-1.780050039E0,-2.130000144E-1,-1.999050140E0
3.648356870E1,-2.098950148E0,-9.795000404E-2,-2.016000032E0
3.650349184E1,-1.672050118E0,8.040000200E-1,-1.156050086E0
3.652341273E1,-1.419000030E0,1.318950057E0,8.010000587E-1
3.654333429E1,-2.059950113E0,1.855050087E0,3.871050119E0
3.656325729E1,-1.918950081E0,2.278950214E0,4.263000011E0
3.658317989E1,-1.845000029E0,3.009000063E0,5.791050434E0
3.660310226E1,-8.269500136E-1,3.612000227E0,1.001895046E1
3.662302472E1,2.104950190E0,3.229050159E0,1.629705048E1
3.664295186E1,6.130050182E0,1.216050029E0,2.043900108E1
3.666287763E1,6.898050308E0,-2.370000184E-1,2.536695099E1
3.668280042E1,5.347050190E0,1.480500102E-1,2.849595070E1
3.670272409E1,5.067000389E0,1.825950146E0,2.802195168E1
3.672264639E1,6.265950203E0,2.836950064E0,2.440905190E1
3.674256909E1,6.144000053E0,2.793000221E0,1.903395081E1
3.676250086E1,4.900950432E0,2.473050117E0,1.395105076E1
3.678242996E1,3.160950184E0,2.583000183E0,1.025205040E1
3.680236016E1,2.316000223E0,2.845950127E0,8.092050552E0
3.682229004E1,2.433000088E0,2.458050013E0,7.170000553E0
3.684221448E1,2.344050169E0,1.893000126E0,6.892050266E0
3.686214051E1,1.770000100E0,1.230000019E0,5.686050415E0
3.688206540E1,9.169500470E-1,7.969500422E-1,3.921000242E0
3.690199060E1,2.230500132E-1,6.409500241E-1,2.535000086E0
3.692191733E1,2.895000204E-2,6.720000505E-1,1.177050114E0
3.694184361E1,1.695000008E-2,6.820500493E-1,4.500000179E-2
3.696176616E1,-2.449500114E-1,7.270500064E-1,-5.070000291E-1
3.698168978E1,-9.280500412E-1,1.041000009E0,-6.289500594E-1
3.700160731E1,-1.179000020E0,1.374000072E0,-7.905000448E-2
3.702152662E1,-1.215000033E0,1.432950020E0,4.159500301E-1
3.704144925E1,-1.645950079E0,1.426050067E0,6.409500241E-1
3.706137092E1,-2.236950159E0,1.752000093E0,8.350500464E-1
3.708128762E1,-2.745000124E0,2.977950096E0,2.844000101E0
3.710120577E1,-2.434050083E0,3.442050219E0,6.937950134E0
3.712112731E1,-1.074000001E0,2.716950178E0,1.218900013E1
3.714104785E1,-5.400000140E-2,1.584000111E0,1.650495148E1
3.716097177E1,7.780500650E-1,7.180500627E-1,1.880400085E1
3.718089470E1,2.611950159E0,4.200000316E-2,2.286495018E1
3.720081758E1,3.607950211E0,-1.513050079E0,2.563500214E1
3.722074047E1,2.950050116E0,-1.213950038E0,2.482305145E1
3.724066417E1,2.907000065E0,-5.505000427E-2,2.151195145E1
3.726058763E1,3.414000273E0,7.459500432E-1,1.885695076E1
3.728050774E1,2.935950041E0,9.070500135E-1,1.679295158E1
3.730042884E1,1.626000047E0,9.469500184E-1,1.364205074E1
3.732035007E1,8.430000544E-1,1.168050051E0,1.018005085E1
3.734027124E1,9.720000625E-1,1.387950063E0,8.082000732E0
3.736019304E1,9.910500646E-1,1.480950117E0,7.162950516E0
3.738011464E1,3.499500155E-1,1.321050048E0,6.397050381E0
3.740003293E1,-3.580500185E-1,1.050000072E0,5.158950329E0
3.741995218E1,-1.047000051E0,1.189050078E0,3.406050205E0
3.743987902E1,-1.315950036E0,1.347000122E0,2.026950121E0
3.745980364E1,-1.122000098E0,1.627050042E0,1.438050032E0
3.747972788E1,-8.920500278E-1,1.666050076E0,1.371000051E0
3.749965224E1,-9.229500294E-1,1.603050113E0,1.444950104E0
3.751957798E1,-1.057050109E0,1.623000026E0,1.455000043E0
3.753950332E1,-9.919500351E-1,1.618050098E0,1.990950108E0
3.755943014E1,-4.680000246E-1,1.366050124E0,2.977950096E0
3.757935654E1,-1.660500020E-1,6.150000095E-1,4.552950382E0
3.759928116E1,-6.880500317E-1,8.040000200E-1,5.983050346E0
3.761920630E1,-1.296000004E0,2.274000168E0,6.952050209E0
3.763913069E1,8.020500541E-1,3.628950119E0,1.081200027E1
3.765905530E1,5.944950104E0,2.145000219E0,1.587600040E1
3.767897973E1,1.006605053E1,-3.760500252E-1,2.130105019E1
3.769890422E1,8.305950165E0,-8.880000710E-1,2.383905029E1
3.771882775E1,4.501049995E0,1.057950020E0,2.279505157E1
3.773875154E1,5.550000191E0,1.903050065E0,2.181795120E1
3.775866914E1,7.212000370E0,1.528950095E0,2.178195190E1
3.777858855E1,5.572050095E0,1.323000073E0,1.821495056E1
3.779850685E1,2.964000225E0,1.498050094E0,1.262895107E1
3.781842548E1,1.699950099E0,2.008050203E0,8.347949982E0
3.783834661E1,1.765050054E0,2.329050064E0,6.459000111E0
3.785826701E1,2.421000004E0,2.008050203E0,6.499950409E0
3.787819393E1,2.488050222E0,1.528950095E0,6.418050289E0
3.789811894E1,1.873050094E0,1.138950109E0,5.329050064E0
3.791804385E1,1.128000021E0,9.349500537E-1,4.177050114E0
3.793796879E1,7.660500407E-1,7.870500088E-1,3.664950132E0
3.795789623E1,6.540000439E-1,6.790500283E-1,3.615000248E0
3.797782294E1,6.130500436E-1,7.420500517E-1,3.781950235E0
3.799775496E1,7.470000386E-1,8.089500666E-1,3.868050098E0
3.801768544E1,6.510000229E-1,1.021950006E0,3.366000175E0
3.803760756E1,-1.620000005E-1,1.552950025E0,2.251950026E0
3.805753213E1,-6.259500384E-1,2.449050188E0,2.082000017E0
3.807746034E1,-6.190500259E-1,2.869950056E0,3.222000122E0
3.809738750E1,-4.920000136E-1,3.130950212E0,4.620000362E0
3.811731584E1,2.299500108E-1,3.247950077E0,5.797950268E0
3.813724382E1,5.149500370E-1,3.801000118E0,7.888050556E0
3.815717294E1,2.920950174E0,3.451950073E0,1.233900070E1
3.817710173E1,7.018050194E0,9.550500512E-1,1.806195068E1
3.819703717E1,7.243050575E0,7.800000310E-1,2.030505180E1
3.821697066E1,6.328050137E0,1.480950117E0,1.962000084E1
3.823690543E1,6.679950237E0,2.326950073E0,1.845705032E1
3.825683982E1,6.568050385E0,2.616000175E0,1.797795105E1
3.827677435E1,4.729050159E0,2.572950125E0,1.689300156E1
3.829670883E1,2.470950127E0,2.671050072E0,1.449405098E1
3.831664095E1,1.080000043E0,2.959050179E0,1.225095081E1
3.833657376E1,5.580000281E-1,3.483000278E0,1.083795071E1
3.835650412E1,1.255050063E0,3.210000038E0,9.268050194E0
3.837643521E1,1.342950106E0,2.580000162E0,6.859050274E0
3.839636903E1,5.650500059E-1,2.122950077E0,4.378050327E0
3.841630205E1,-3.360000253E-1,2.086950064E0,2.395950079E0
3.843623652E1,-8.250000477E-1,2.437050104E0,1.374000072E0
3.845617057E1,-7.909500599E-1,3.007050037E0,1.261050105E0
3.847609736E1,6.000000238E-2,3.363000154E0,1.669950128E0
3.849602627E1,9.360000491E-1,3.607050180E0,2.266950130E0
3.851595236E1,1.738050103E0,3.421050072E0,3.061950207E0
3.853587928E1,1.779000044E0,3.013950109E0,4.246950150E0
3.855580476E1,1.281000018E0,2.644950151E0,6.046950340E0
3.857573066E1,1.470000029E0,2.583000183E0,6.888000488E0
3.859565572E1,1.345950007E0,2.430000067E0,6.823050499E0
3.861558103E1,4.459500313E-1,3.271950245E0,7.192050457E0
3.863550848E1,2.461950064E0,3.198000193E0,9.046950340E0
3.865543528E1,6.580050468E0,7.180500627E-1,1.257195091E1
3.867535971E1,6.367050171E0,-1.305000067E0,1.771199989E1
3.869528483E1,2.505000114E0,-1.783050060E0,2.003205109E1
3.871520514E1,1.200000010E-2,-7.395000011E-2,1.897605133E1
3.873512688E1,3.541050196E0,1.447950125E0,1.829205132E1
3.875505166E1,7.839000225E0,1.642050028E0,2.032905006E1
3.877497555E1,7.245000362E0,1.189050078E0,1.910595131E1
3.879490621E1,2.557050228E0,1.977000117E0,1.497300053E1
3.881483488E1,1.066050053E0,2.583000183E0,1.095300007E1
3.883476133E1,2.598000050E0,2.407950163E0,9.634050369E0
3.885468843E1,2.920950174E0,2.365050077E0,9.234000206E0
3.887461211E1,2.020950079E0,2.062950134E0,7.717950344E0
3.889453680E1,1.216950059E0,1.726050138E0,5.901000500E0
3.891446374E1,1.020000100E0,1.422000051E0,4.606050014E0
3.893439003E1,1.365000010E0,1.066950083E0,3.859050274E0
3.895431382E1,1.212000012E0,1.351950049E0,3.210000038E0
3.897423834E1,7.140000463E-1,1.764000058E0,2.065950155E0
3.899415337E1,5.820000172E-1,1.861950040E0,6.460500360E-1
3.901407119E1,1.150500029E-1,2.121000051E0,1.330500096E-1
3.903399066E1,-6.190500259E-1,2.668950081E0,6.360000372E-1
3.905390965E1,-9.330000281E-1,3.211950064E0,1.714050055E0
3.907383024E1,-9.130500555E-1,4.060050011E0,2.841000080E0
3.909375035E1,-3.390000165E-1,5.086950302E0,4.089000225E0
3.911367644E1,4.620000124E-1,6.418050289E0,5.085000038E0
3.913360076E1,2.056950092E0,7.254000187E0,5.623050213E0
3.915352504E1,4.690950394E0,6.033000469E0,7.503000259E0
3.917344935E1,7.377000332E0,3.226950169E0,1.070895004E1
3.919337532E1,8.671950340E0,1.740000129E0,1.531605053E1
3.921330080E1,9.133950233E0,1.345050097E0,1.867500114E1
3.923321946E1,9.915000916E0,1.444950104E0,1.878195000E1
3.925314011E1,1.046295071E1,2.152050018E0,1.787505150E1
3.927306167E1,9.787950516E0,2.473050117E0,1.635195160E1
3.929298296E1,7.633050442E0,2.326950073E0,1.477005100E1
3.931290863E1,5.770050049E0,2.086950064E0,1.302195072E1
3.933283303E1,4.621050358E0,1.753950119E0,1.089795017E1
3.935276080E1,3.216000080E0,1.398000121E0,8.437050819E0
3.937268758E1,1.743000031E0,1.318950057E0,6.117000103E0
3.939261557E1,4.909500182E-1,1.366050124E0,4.108050346E0
3.941254320E1,-8.059500456E-1,1.603050113E0,2.391000032E0
3.943246586E1,-1.926000118E0,2.053950071E0,9.259500504E-1
3.945238997E1,-2.415000200E0,2.413050175E0,2.670000196E-1
3.947231249E1,-2.455050230E0,2.619000196E0,4.969500303E-1
3.949223549E1,-1.797000051E0,2.334000111E0,1.347000122E0
3.951215879E1,-1.408950090E0,1.951050043E0,2.604000092E0
3.953208201E1,-1.395000100E0,1.741950035E0,3.610050201E0
3.955200957E1,-1.201050043E0,1.789950132E0,3.664950132E0
3.957193586E1,-8.850000501E-1,1.843050122E0,3.325050116E0
3.959186068E1,-6.599999964E-2,1.881000042E0,4.444950104E0
3.961178593E1,1.473000050E0,1.714050055E0,8.800950050E0
3.963170687E1,4.201950073E0,9.910500646E-1,1.329195023E1
3.965162908E1,6.003000259E0,2.239500135E-1,1.431495094E1
3.967154865E1,5.155050278E0,2.080500126E-1,1.613895035E1
3.969146900E1,5.875950336E0,-1.480500102E-1,1.894500160E1
3.971139038E1,8.778000832E0,2.119500041E-1,2.104500008E1
3.973131145E1,1.121295071E1,9.739500284E-1,2.080305099E1
3.975123437E1,1.224900055E1,1.917000055E0,2.004195023E1
3.977115676E1,1.207200050E1,2.413050175E0,1.861005020E1
3.979108496E1,1.044900036E1,2.056050062E0,1.562205029E1
3.981101145E1,7.867950439E0,1.576950073E0,1.240395069E1
3.983093094E1,6.532050133E0,1.567950130E0,1.049100018E1
3.985085247E1,6.999000549E0,1.102950096E0,8.173049927E0
3.987077832E1,7.068000317E0,7.540500164E-1,5.245050430E0
3.989070291E1,6.213000298E0,1.278000116E0,2.640000105E0
3.991063582E1,4.603950024E0,1.764000058E0,9.280500412E-1
3.993056629E1,3.235050201E0,1.524000049E0,1.156050086E0
3.995049814E1,2.361000061E0,1.066950083E0,2.032050133E0
3.997042959E1,1.485000014E0,8.730000257E-1,2.154000044E0
3.999035022E1,5.680500269E-1,1.158000112E0,1.825950146E0
4.001027400E1,3.229500055E-1,1.234950066E0,1.675050020E0
4.003020200E1,3.600000218E-2,1.362000108E0,1.776000142E0
4.005012876E1,-4.870500267E-1,1.600950122E0,1.306950092E0
4.007005768E1,-1.363950014E0,2.020050049E0,8.850000501E-1
4.008998598E1,-2.728050232E0,2.731050014E0,8.710500598E-1
4.010991804E1,-4.252950191E0,4.089000225E0,1.192050099E0
4.012984899E1,2.280000150E-1,3.118950129E0,3.358050108E0
4.014977668E1,8.493000031E0,1.290000081E0,9.433050156E0
4.016970531E1,1.075500011E1,4.090500176E-1,1.494900036E1
4.018963338E1,8.560050011E0,-1.410000026E-1,1.714695168E1
4.020956162E1,8.931000710E0,8.880000710E-1,1.636695099E1
4.022949035E1,1.357605076E1,1.828950047E0,1.803300095E1
4.024941893E1,1.609200096E1,2.473050117E0,1.915800095E1
4.026934736E1,1.256505013E1,2.644950151E0,1.849800110E1
4.028927584E1,7.135050297E0,2.631000042E0,1.477200031E1
4.030920574E1,3.679950237E0,2.611050129E0,1.102500057E1
4.032913523E1,2.598000050E0,2.419950008E0,9.610050201E0
4.034907121E1,1.767000079E0,2.173050165E0,9.294000626E0
4.036900530E1,8.050500154E-1,1.999050140E0,8.904000282E0
4.038893860E1,-6.090000272E-1,1.855050087E0,7.711050510E0
4.040887214E1,-1.668000102E0,1.623000026E0,6.636000156E0
4.042880257E1,-1.885050058E0,1.338000059E0,5.406000137E0
4.044873391E1,-1.725000024E0,1.456950068E0,3.709950209E0
4.046866403E1,-1.737000108E0,1.720950127E0,2.149049997E0
4.048859452E1,-1.332000017E0,1.747050047E0,8.059500456E-1
4.050852736E1,-1.833000064E0,1.821000099E0,1.249050021E0
4.052845948E1,-1.557000041E0,1.687050104E0,1.726050138E0
4.054839489E1,-1.122000098E0,1.471950054E0,1.612950087E0
4.056832933E1,-6.430500150E-1,1.756950140E0,2.038950205E0
4.058826131E1,-3.199500144E-1,2.085000038E0,3.226950169E0
4.060819402E1,2.830500007E-1,2.206950188E0,7.242000580E0
4.062812461E1,3.000000238E0,2.752950191E0,1.184400082E1
4.064805580E1,7.626000404E0,2.302950144E0,1.576995087E1
4.066798272E1,1.154805088E1,1.381050110E0,2.122200012E1
4.068791088E1,1.284600067E1,-2.939999998E-1,2.732805061E1
4.070784178E1,1.209105015E1,1.909500062E-1,2.850300217E1
4.072777188E1,1.093695068E1,2.109000206E0,2.213400078E1
4.074770494E1,9.486000061E0,3.588000059E0,1.518405056E1
4.076763712E1,7.336050510E0,3.907050133E0,1.072995090E1
4.078756549E1,4.975950241E0,3.232050180E0,8.556000710E0
4.080749497E1,3.256050110E0,2.793000221E0,6.859050274E0
4.082742862E1,2.641050100E0,2.383949995E0,5.635050297E0
4.084736105E1,1.966050148E0,2.260050058E0,4.570050240E0
4.086729801E1,1.105949998E0,1.534050107E0,3.291000128E0
4.088723365E1,-4.129500091E-1,9.859500527E-1,2.473050117E0
4.090716774E1,-9.180000424E-1,4.780500233E-1,2.259000063E0
4.092710228E1,-1.059000015E0,3.439500034E-1,2.317050219E0
4.094703372E1,-7.304999977E-2,-3.280500174E-1,2.772000074E0
4.096696606E1,-4.819500148E-1,7.969500422E-1,4.612950325E0
4.098689944E1,-7.510500550E-1,4.249500334E-1,3.270000219E0
4.100683252E1,-5.160000324E-1,7.939500213E-1,2.731050014E0
4.102676790E1,-6.240000129E-1,1.801950097E0,3.835050106E0
4.104670260E1,2.700000070E-2,2.394000053E0,5.452950478E0
4.106663204E1,9.580500722E-1,1.146000028E0,6.780000210E0
4.108656300E1,6.780000329E-1,1.920000076E0,8.475000381E0
4.110649369E1,3.109500110E-1,4.323000431E0,9.315000534E0
4.112642447E1,1.060500070E-1,6.663000107E0,1.039500046E1
4.114635596E1,5.320500135E-1,7.750050545E0,1.301700020E1
4.116628727E1,2.157000065E0,6.330000401E0,1.810500145E1
4.118621867E1,4.729050159E0,5.062950134E0,2.342505074E1
4.120615004E1,6.895950317E0,4.596000195E0,2.465805054E1
4.122607584E1,6.643950462E0,5.025000095E0,2.125605011E1
4.124600328E1,4.789050102E0,5.551950455E0,1.696800041E1
4.126593532E1,3.144000053E0,4.819050312E0,1.421700096E1
4.128586603E1,1.840950131E0,3.562050104E0,1.171200085E1
4.130580342E1,6.709500551E-1,2.791050196E0,9.450000763E0
4.132573886E1,-8.749500513E-1,2.134950161E0,7.074000359E0
4.134566685E1,-1.159950018E0,1.908000112E0,5.458050251E0
4.136559702E1,-5.020500422E-1,1.443000078E0,4.153050423E0
4.138552360E1,3.810000122E-1,1.183950067E0,2.815050125E0
4.140545124E1,3.499500155E-1,1.150950074E0,1.714050055E0
4.142538126E1,-9.705000371E-2,8.059500456E-1,1.213050008E0
4.144531060E1,-1.138050079E0,9.670500755E-1,1.210950017E0
4.146524034E1,-2.335950136E0,1.678050041E0,1.285050035E0
4.148516997E1,-2.002950191E0,1.776000142E0,1.675050020E0
4.150509873E1,-1.368000031E0,1.680000067E0,2.551950216E0
4.152502774E1,-1.198050022E0,2.149049997E0,2.926950216E0
4.154496081E1,-1.141050100E0,2.326950073E0,4.125000000E0
4.156489268E1,-9.760500193E-1,2.410050154E0,6.390000343E0
4.158482258E1,-1.783050060E0,2.440950155E0,9.757950783E0
4.160475306E1,-2.497950077E0,3.109050035E0,1.275795078E1
4.162468335E1,-2.392950058E0,3.817950249E0,1.339800072E1
4.164461369E1,-2.151000023E0,5.575950146E0,1.322100067E1
4.166454645E1,-1.597950101E0,6.955050468E0,1.421700096E1
4.168447852E1,5.869500041E-1,6.973950386E0,1.576995087E1
4.170441036E1,3.574950218E0,6.900000095E0,1.615800095E1
4.172434228E1,4.066050053E0,6.226950169E0,1.613400078E1
4.174427249E1,1.321950078E0,5.506050110E0,1.527705097E1
4.176420320E1,-1.452000022E0,5.602050304E0,1.297905064E1
4.178413251E1,-1.027950048E0,5.944050312E0,1.078095055E1
4.180406222E1,4.810500145E-1,5.832000256E0,1.056495094E1
4.182398817E1,5.170500278E-1,5.245050430E0,1.069200039E1
4.184391522E1,-1.305000018E-2,4.455000401E0,9.610050201E0
4.186383906E1,-1.243950009E0,4.465050220E0,7.539000511E0
4.188376384E1,-8.629500270E-1,4.474050045E0,4.399950027E0
4.190368538E1,-6.619500518E-1,4.716000080E0,5.824950218E0
4.192360785E1,-1.035000086E0,4.146000385E0,9.532950401E0
