"Time (s)","Acceleration x (m/s^2)","Acceleration y (m/s^2)","Acceleration z (m/s^2)"
3.040750000E-3,-2.377950191E0,4.731000423E0,7.261950493E0
2.286659600E-2,-3.115050077E0,5.349000454E0,5.421000481E0
4.268136500E-2,-2.590950012E0,6.601050377E0,5.755950451E0
6.250444200E-2,-9.049500227E-1,7.195050240E0,7.339050293E0
8.232200900E-2,-4.020000100E-1,7.380000114E0,7.999950409E0
1.021450670E-1,-4.669500291E-1,7.123050213E0,8.239950180E0
1.219626110E-1,-8.020500541E-1,5.872950077E0,7.834950447E0
1.417854420E-1,-1.803000093E0,4.723950386E0,7.306050301E0
1.616029760E-1,-2.538000107E0,4.588950157E0,7.429950237E0
1.814259710E-1,-2.268000126E0,4.812000275E0,8.011950493E0
2.012435720E-1,-1.366950035E0,5.053950310E0,8.236949921E0
2.210665770E-1,-1.104000092E0,5.377050400E0,8.359050751E0
2.408841490E-1,-1.137000084E0,5.491950035E0,8.260950089E0
2.607071540E-1,-1.069950104E0,5.434950352E0,8.224950790E0
2.805247640E-1,-1.069950104E0,5.248050213E0,7.774950504E0
3.003477740E-1,-1.069950104E0,5.230950356E0,6.907950401E0
3.201653710E-1,-9.430500269E-1,5.100000381E0,6.771000385E0
3.399883800E-1,-9.049500227E-1,4.750050068E0,6.955950260E0
3.598057160E-1,-1.594950080E0,4.144050121E0,7.624050140E0
3.796288030E-1,-1.579950094E0,3.435000181E0,8.104949951E0
3.994463080E-1,-6.169500351E-1,3.298950195E0,8.034000397E0
4.192693990E-1,1.069500074E-1,2.974950075E0,7.570950508E0
4.390871830E-1,1.819500029E-1,2.371950150E0,7.537950516E0
4.589100290E-1,7.095000148E-2,2.836050034E0,9.018000603E0
4.787275720E-1,1.960500032E-1,3.616950274E0,8.628000259E0
4.985506490E-1,3.900000155E-1,3.495000124E0,8.376000404E0
5.183681870E-1,9.960000515E-1,3.034950256E0,7.674000263E0
5.381911730E-1,2.823000193E0,2.946000099E0,8.343000412E0
5.580088130E-1,2.991000175E0,2.926950216E0,8.854949951E0
5.778318180E-1,1.915950060E0,2.949000120E0,7.867950439E0
5.976493510E-1,2.260050058E0,3.040050030E0,1.029195023E1
6.174724280E-1,1.290000081E-1,-1.414050102E0,1.934805107E1
6.372899860E-1,1.620000005E-1,2.023950100E0,6.988950253E0
6.571130530E-1,2.488050222E0,5.832000256E0,1.281900024E1
6.769305620E-1,4.736999989E0,3.403950214E0,1.263705063E1
6.967536100E-1,5.973000050E0,3.222000122E0,7.705950260E0
7.165711640E-1,2.683950186E0,2.628000021E0,8.731050491E0
7.363940000E-1,1.480050087E0,2.451000214E0,9.732000351E0
7.562115190E-1,1.498950124E0,3.775050163E0,1.034700012E1
7.760345910E-1,-5.290500522E-1,2.749950171E0,1.088100052E1
7.958521490E-1,-1.519950032E0,2.094000101E0,9.277050018E0
8.156752410E-1,-2.076000214E0,3.490050077E0,8.950950623E0
8.354927700E-1,-1.111050010E0,3.751050234E0,8.910000801E0
8.553158560E-1,-1.137000084E0,2.881950140E0,7.918950558E0
8.751333860E-1,-1.960500032E-1,2.901000023E0,8.326050758E0
8.949564630E-1,-1.020000055E-1,3.523950100E0,9.265050888E0
9.147739960E-1,7.095000148E-2,3.267000198E0,9.811050415E0
9.345970580E-1,9.795000404E-2,3.343950272E0,9.271950722E0
9.544145010E-1,-4.305000231E-2,3.181050062E0,8.769000053E0
9.742375780E-1,-4.305000231E-2,2.893950224E0,8.151000023E0
9.940552170E-1,-5.205000192E-2,2.796000242E0,7.794000149E0
1.013878222E0,1.480500102E-1,2.865000248E0,7.867950439E0
1.033695766E0,-6.900000572E-2,2.740050077E0,8.398050308E0
1.053518843E0,-2.100000083E-1,2.664000034E0,7.861050606E0
1.073336385E0,-3.160500228E-1,2.539050102E0,8.107950211E0
1.093159462E0,-4.039500058E-1,2.530050039E0,8.167950630E0
1.112976982E0,-3.520500064E-1,2.808000088E0,7.603050232E0
1.132800064E0,-3.300000131E-1,3.351000071E0,8.175000191E0
1.152617616E0,-4.429500103E-1,3.628950119E0,9.238050461E0
1.172440449E0,-4.110000134E-1,3.540000200E0,1.004100037E1
1.192258208E0,-8.550000191E-1,3.736950159E0,1.098705006E1
1.212081054E0,-2.035050154E0,3.742050171E0,1.140600014E1
1.231898818E0,-2.446950197E0,3.415950060E0,1.134105015E1
1.251721909E0,-1.972950101E0,3.436950207E0,1.134405041E1
1.271539468E0,-2.332050085E0,2.866950035E0,1.172205067E1
1.291362554E0,-2.806050062E0,2.203950167E0,1.220805073E1
1.311180082E0,-2.734950066E0,1.888050079E0,1.187805080E1
1.331002943E0,-2.362950087E0,1.588050127E0,1.073505020E1
1.350820703E0,-2.007000208E0,1.500000119E0,9.837000847E0
1.370643564E0,-2.071050167E0,1.440000057E0,9.226050377E0
1.390461087E0,-2.373000145E0,1.315050006E0,8.794950485E0
1.410284169E0,-2.292000055E0,1.339050055E0,8.278050423E0
1.430101717E0,-1.779000044E0,1.474050045E0,8.203949928E0
1.449924784E0,-1.645050049E0,1.756050110E0,8.065050125E0
1.469742317E0,-1.659000039E0,2.206050158E0,7.762950420E0
1.489565394E0,-1.192050099E0,2.029050112E0,8.043000221E0
1.509382943E0,-5.050500035E-1,1.737000108E0,9.079950333E0
1.529205938E0,5.070000291E-1,2.985000134E0,8.122050285E0
1.549023562E0,5.719500184E-1,2.416950226E0,7.638000488E0
1.568846644E0,2.220000178E-1,1.639050126E0,7.621950150E0
1.588664101E0,3.780000210E-1,2.149049997E0,8.443050385E0
1.608487164E0,-9.000000358E-2,1.708050132E0,9.054000854E0
1.628304779E0,-5.910000205E-1,1.270050049E0,9.061050415E0
1.648127774E0,-5.959500074E-1,1.356000066E0,8.664000511E0
1.667945399E0,-4.470000267E-1,1.750950098E0,8.200950623E0
1.687768448E0,-3.610500097E-1,2.479050159E0,7.768050194E0
1.707585981E0,-8.740500212E-1,2.929950237E0,7.030050278E0
1.727409082E0,-2.164950132E0,3.046950102E0,6.201000214E0
1.747226535E0,-3.058050156E0,3.105000257E0,5.598000050E0
1.767049621E0,-2.779950142E0,3.331950188E0,5.320050240E0
1.786867164E0,-2.385000229E0,2.986950159E0,6.031050205E0
1.806690260E0,-2.647950172E0,1.483050108E0,8.380949974E0
1.826507828E0,-2.790000200E0,-4.800000191E-1,1.302495098E1
1.846330924E0,-2.208000183E0,-1.632000089E0,1.604295158E1
1.866148515E0,-1.278000116E0,-1.162050009E0,1.555200100E1
1.885971501E0,-4.039500058E-1,-5.595000088E-2,1.302195072E1
1.905789097E0,-5.020500422E-1,5.950500369E-1,1.105095005E1
1.925612189E0,-8.779500127E-1,5.659500360E-1,1.028295040E1
1.945429635E0,-5.700000525E-1,5.509500504E-1,9.801000595E0
1.965252722E0,2.530499995E-1,7.450500131E-1,9.243000031E0
1.985070246E0,9.240000248E-1,8.989500403E-1,8.958000183E0
2.004893323E0,1.480050087E0,1.252950072E0,8.683050156E0
2.024710876E0,2.019000053E0,1.531050086E0,7.902000427E0
2.044533938E0,2.497950077E0,1.531050086E0,7.138050556E0
2.064351477E0,2.956950188E0,1.488000035E0,6.750000477E0
2.084174529E0,3.108000040E0,1.537950039E0,6.514950275E0
2.103992077E0,3.016950130E0,1.672050118E0,6.142050266E0
2.123814937E0,2.998050213E0,1.918950081E0,6.148950100E0
2.143632688E0,2.932950258E0,1.888050079E0,6.819000244E0
2.163455510E0,3.144000053E0,1.687050104E0,8.163000107E0
2.183273067E0,3.154050112E0,1.203000069E0,9.661950111E0
2.203096154E0,3.012000084E0,6.520500183E-1,1.124295044E1
2.222913933E0,3.309000254E0,3.600000143E-1,1.283100033E1
2.242737010E0,3.019950151E0,-3.889500201E-1,1.374600029E1
2.262554548E0,2.311050177E0,-1.123950005E0,1.490505028E1
2.282377399E0,1.270950079E0,-2.068050146E0,1.665299988E1
2.302195169E0,3.990000188E-1,-2.532000065E0,1.597995090E1
2.322018020E0,1.050000042E-1,-1.831050038E0,1.348500061E1
2.341835543E0,1.000500023E-1,-1.153050065E0,1.130505085E1
2.361658630E0,3.559500277E-1,-7.189500332E-1,1.011495018E1
2.381476188E0,6.250500083E-1,-6.040500402E-1,9.403950691E0
2.401299285E0,9.409500360E-1,-1.014000058E0,8.800050735E0
2.421116823E0,1.851000071E0,-9.780000448E-1,8.833950043E0
2.440939881E0,2.320050001E0,-7.309500575E-1,9.082950592E0
2.460757405E0,2.269950151E0,-6.190500259E-1,8.605950356E0
2.480580487E0,1.911000133E0,-6.400500536E-1,8.023950577E0
2.500398030E0,1.183050036E0,-7.789500356E-1,7.756050587E0
2.520221092E0,3.970500231E-1,-1.045050025E0,7.725000381E0
2.540038636E0,-1.140000075E-1,-1.153050065E0,7.837050438E0
2.559861626E0,-5.580000281E-1,-1.189050078E0,7.594950199E0
2.579679159E0,-1.029000044E0,-1.344000101E0,7.078050137E0
2.599502222E0,-1.140000105E0,-1.548000097E0,7.384950161E0
2.619319756E0,-9.190500379E-1,-1.687050104E0,8.449950218E0
2.639142843E0,-6.700500250E-1,-1.582050085E0,8.508000374E0
2.658960400E0,-5.650500059E-1,-9.780000448E-1,7.720050335E0
2.678783472E0,-8.620500565E-1,-2.880000174E-1,7.198050499E0
2.698600987E0,-1.719000101E0,-5.560500026E-1,7.981050491E0
2.718424059E0,-2.185950041E0,-1.486050129E0,1.006200027E1
2.738241679E0,-2.398950100E0,-3.235950232E0,1.379400063E1
2.758064461E0,-2.461950064E0,-4.626000404E0,1.539600086E1
2.777882251E0,-1.855950117E0,-4.309050083E0,1.437300110E1
2.797705101E0,-5.890500546E-1,-3.778050184E0,1.372200108E1
2.817522880E0,2.269500047E-1,-3.366000175E0,1.469400024E1
2.837345957E0,-1.429500133E-1,-2.632950068E0,1.448295116E1
2.857163505E0,-7.969500422E-1,-1.804050088E0,1.252905083E1
2.876986596E0,-1.240050077E0,-1.042950034E0,9.808050156E0
2.896804135E0,-1.314000010E0,-5.710500479E-1,7.531050205E0
2.916626952E0,-8.779500127E-1,-1.180500090E-1,6.217950344E0
2.936444500E0,-3.730500042E-1,1.129500046E-1,5.611950397E0
2.956267582E0,1.120500043E-1,1.990500093E-1,5.416050434E0
2.976085120E0,6.199500561E-1,3.649500310E-1,5.707950115E0
2.995908101E0,8.520000577E-1,5.320500135E-1,5.914050102E0
3.015725722E0,4.860000312E-1,3.739500046E-1,6.265950203E0
3.035548819E0,3.990000188E-1,1.560000032E-1,6.942000389E0
3.055366337E0,7.759500146E-1,-1.969500035E-1,8.095950127E0
3.075189386E0,7.590000629E-1,-8.650500178E-1,9.604950905E0
3.095007150E0,-4.860000312E-1,-1.227000117E0,1.051500034E1
3.114830002E0,-1.819950104E0,-1.158000112E0,1.041900063E1
3.134647544E0,-2.272050142E0,-4.030500054E-1,1.017000008E1
3.154470549E0,-2.494950056E0,5.440500379E-1,1.026105022E1
3.174288160E0,-2.092950106E0,9.919500351E-1,1.091205025E1
3.194111146E0,-1.245000005E0,1.969500035E-1,1.268505096E1
3.213928761E0,3.299999982E-2,-1.083000064E0,1.457895088E1
3.233751775E0,8.740500212E-1,-2.020050049E0,1.599495029E1
3.253569324E0,8.620500565E-1,-2.347950220E0,1.626300049E1
3.273392463E0,2.149500102E-1,-2.287950039E0,1.506105042E1
3.293209910E0,3.105000220E-2,-1.900050044E0,1.311300087E1
3.313033083E0,1.240500063E-1,-1.468950033E0,1.159305096E1
3.332850622E0,5.100000501E-1,-8.490000367E-1,1.088805008E1
3.352673592E0,6.409500241E-1,-2.860500216E-1,1.022700024E1
3.372491154E0,8.230500221E-1,7.995000482E-2,9.424950600E0
3.392314245E0,1.317000031E0,3.900000080E-2,8.410050392E0
3.412131770E0,2.251049995E0,-2.740500271E-1,8.425950050E0
3.431954842E0,2.737050056E0,-5.179499984E-1,9.097050667E0
3.451772370E0,2.482950211E0,-6.949500442E-1,8.746950150E0
3.471595447E0,2.326950073E0,-6.190500259E-1,8.187000275E0
3.491412990E0,2.533050060E0,-3.270000219E-1,8.581950188E0
3.511235851E0,2.341950178E0,-1.090500057E-1,9.637950897E0
3.531053697E0,1.558950067E0,3.450000286E-1,9.787050247E0
3.550876481E0,9.019500613E-1,9.250500202E-1,8.629950523E0
3.570694250E0,3.060000241E-1,1.569000125E0,7.983000278E0
3.590517336E0,-4.620000124E-1,2.218050003E0,8.290050507E0
3.610334654E0,-9.840000272E-1,2.629950047E0,8.781000137E0
3.630157971E0,-1.470000029E0,2.812050104E0,9.661950111E0
3.649975500E0,-1.983000040E0,2.817000151E0,1.043100071E1
3.669798367E0,-1.924950123E0,2.970000029E0,1.161405087E1
3.689616126E0,-2.818050146E0,2.737950087E0,1.204800034E1
3.709439198E0,-3.505950212E0,2.515050173E0,1.143705082E1
3.729256526E0,-2.854050159E0,3.081000090E0,1.191105080E1
3.749079823E0,-3.475050211E0,2.566050053E0,1.309395027E1
3.768897145E0,-4.300950050E0,1.669950128E0,1.297500038E1
3.788720227E0,-4.255050182E0,8.359500170E-1,1.153305054E1
3.808537752E0,-3.676050186E0,5.539500117E-1,1.041195011E1
3.828360800E0,-3.463050127E0,2.449500114E-1,9.648000717E0
3.848178352E0,-3.079050064E0,1.729500145E-1,9.042000771E0
3.868001448E0,-2.452050209E0,2.329500169E-1,8.218050003E0
3.887819217E0,-1.855950117E0,6.520500183E-1,7.264950275E0
3.907642063E0,-1.863000035E0,9.829500318E-1,6.120000362E0
3.927459607E0,-2.008949995E0,1.375050068E0,5.095050335E0
3.947282607E0,-1.996950150E0,1.639050126E0,4.328999996E0
3.967100231E0,-1.908000112E0,1.888050079E0,3.820950270E0
3.986923242E0,-1.915950060E0,2.022000074E0,3.559950113E0
4.006740857E0,-1.836000085E0,2.038950205E0,3.580950260E0
4.026563934E0,-1.369050026E0,2.338050127E0,4.495950222E0
4.046381472E0,-1.204050064E0,2.793000221E0,6.144000053E0
4.066204573E0,-1.462950110E0,3.238950253E0,7.768050194E0
4.086022102E0,-2.011049986E0,3.769950151E0,9.214050293E0
4.105845189E0,-2.646000147E0,3.724950075E0,1.075695038E1
4.125662722E0,-2.674950123E0,3.241050243E0,1.239495087E1
4.145485736E0,-2.553000212E0,2.728950024E0,1.396095085E1
4.165303371E0,-2.512050152E0,2.476950169E0,1.460100079E1
4.185126323E0,-2.899950027E0,2.632950068E0,1.375500107E1
4.204943837E0,-3.124950171E0,2.889000177E0,1.224405098E1
4.224766914E0,-3.228000164E0,2.781000137E0,1.088400078E1
4.244584434E0,-3.349950075E0,2.260950089E0,9.703050613E0
4.264407573E0,-3.379050255E0,1.693950057E0,8.983950615E0
4.284225044E0,-3.313950062E0,8.629500270E-1,8.503050804E0
4.304048111E0,-2.851950169E0,5.629500151E-1,8.158050537E0
4.323865727E0,-2.541000128E0,4.390500188E-1,7.159050465E0
4.343688718E0,-1.971000075E0,2.329500169E-1,5.737050056E0
4.363506251E0,-2.059050083E0,1.305000018E-2,4.237950325E0
4.383329074E0,-2.389950037E0,1.849500090E-1,2.623050213E0
4.403146833E0,-2.713050127E0,6.880500317E-1,1.644000053E0
4.422969679E0,-3.582000256E0,8.820000291E-1,1.443000078E0
4.442787467E0,-5.194050312E0,1.159500033E-1,2.467950106E0
4.462610554E0,-6.952050209E0,-1.059000015E0,4.507950306E0
4.482428074E0,-9.141000748E0,-2.074949980E0,6.360000134E0
4.502251174E0,-1.032195091E1,-3.022950172E0,6.901050091E0
4.522068486E0,-9.322950363E0,-3.270000219E0,6.846000195E0
4.541891568E0,-7.816950321E0,-2.950950146E0,7.102050304E0
4.561709352E0,-7.230000496E0,-3.258000135E0,7.573950291E0
4.581532198E0,-7.168050289E0,-4.194000244E0,8.065050125E0
4.601349731E0,-6.700950146E0,-4.911000252E0,8.769000053E0
4.621172808E0,-5.773950100E0,-5.277000427E0,9.504000664E0
4.640990362E0,-5.142000198E0,-6.694950104E0,1.092195034E1
4.660813439E0,-4.864050388E0,-7.633950233E0,1.461495113E1
4.680630967E0,-4.255050182E0,-6.654000282E0,1.976205063E1
4.700454044E0,-5.271000385E0,-6.496050358E0,2.258595085E1
4.720271593E0,-6.346050262E0,-5.893050194E0,2.160405159E1
4.740094578E0,-5.589000225E0,-3.595950127E0,1.817205048E1
4.759912188E0,-4.882950306E0,-2.118000031E0,1.470600033E1
4.779735179E0,-3.472050190E0,-1.203000069E0,1.252200031E1
4.799552708E0,-1.747950077E0,-5.370000005E-1,1.177200031E1
4.819375790E0,-4.380000234E-1,-3.405000269E-2,1.127400017E1
4.839193434E0,4.330500066E-1,3.810000122E-1,1.047705078E1
4.859016491E0,5.310000181E-1,8.389500380E-1,1.043100071E1
4.878834040E0,-3.540000021E-1,1.416000009E0,1.077600098E1
4.898657049E0,-4.350000322E-1,1.744050026E0,9.811050415E0
4.918474669E0,3.229500055E-1,1.371000051E0,9.133049965E0
4.938297664E0,1.231050014E0,1.579050064E0,9.267000198E0
4.958115174E0,2.281949997E0,2.263950109E0,1.007205009E1
4.977938256E0,2.782950163E0,2.587050200E0,1.171695042E1
4.997755809E0,2.251049995E0,1.897050142E0,1.343895054E1
5.017578905E0,1.786050081E0,8.530500531E-1,1.353300095E1
5.037396434E0,1.111050010E0,7.930500507E-1,1.145595074E1
5.057219290E0,6.460500360E-1,2.278050184E0,9.616950035E0
5.077037059E0,-8.140500188E-1,3.754050255E0,8.769000053E0
5.096859914E0,-2.593050241E0,5.005950451E0,7.885050297E0
5.116677448E0,-2.362950087E0,6.946050167E0,7.123950481E0
5.136500761E0,-2.179050207E0,8.256000519E0,7.000950336E0
5.156318054E0,-3.594000101E0,7.696050167E0,6.072000504E0
5.176141135E0,-4.734000206E0,6.514950275E0,4.800000191E0
5.195958655E0,-4.212000370E0,5.752950191E0,5.536050320E0
5.215781722E0,-3.169950247E0,4.999050140E0,6.337950230E0
5.235599260E0,-2.056950092E0,4.494000435E0,6.958050251E0
5.255422322E0,-1.935000062E0,4.122000217E0,7.684050560E0
5.275239861E0,-2.317950010E0,3.205050230E0,7.855950356E0
5.295062948E0,-1.693050027E0,2.319000006E0,7.030050278E0
5.314880466E0,-2.370000184E-1,2.500950098E0,6.154050350E0
5.334703442E0,3.439500034E-1,2.721000195E0,6.253950119E0
5.354521053E0,-2.269500047E-1,2.403000116E0,6.739950180E0
5.374344024E0,-7.800000310E-1,1.921050072E0,7.123950481E0
5.394161558E0,-5.719500184E-1,1.854000092E0,6.541950226E0
5.413984635E0,2.730000019E-1,2.368950129E0,5.449050426E0
5.433802193E0,6.559500098E-1,2.929950237E0,5.242950439E0
5.453625347E0,4.309500158E-1,3.247950077E0,6.199050426E0
5.473442812E0,-2.560500205E-1,3.009000063E0,7.284000397E0
5.493265889E0,-5.719500184E-1,3.046950102E0,7.522950172E0
5.513083520E0,-4.189500213E-1,3.427950144E0,7.471050262E0
5.532906520E0,-5.929500461E-1,3.972000122E0,7.732050419E0
5.552724043E0,-6.750000119E-1,5.145000458E0,7.888050556E0
5.572547135E0,-8.329500556E-1,6.331050396E0,7.522950172E0
5.592364679E0,-1.480050087E0,6.766950130E0,7.147050381E0
5.612187775E0,-6.220500469E-1,8.761950493E0,6.829050541E0
5.632005333E0,-3.870000243E-1,9.870000839E0,8.043000221E0
5.651828414E0,-1.930050135E0,8.836050034E0,8.620050430E0
5.671645958E0,-3.787950277E0,7.321950436E0,1.043100071E1
5.691468819E0,-5.635050297E0,5.509050369E0,1.199295044E1
5.711286592E0,-5.575050354E0,5.056050301E0,1.124295044E1
5.731109438E0,-3.673050165E0,5.164050102E0,9.292950630E0
5.750926963E0,-2.725050211E0,4.477050304E0,8.533950806E0
5.770749963E0,-2.217000008E0,3.334050179E0,8.841000557E0
5.790567573E0,-1.417050123E0,3.330000162E0,9.484950066E0
5.810390664E0,-1.446000099E0,3.873000145E0,9.540000916E0
5.830208189E0,-2.056950092E0,3.973950148E0,8.632050514E0
5.850031251E0,-3.367050171E0,3.391950130E0,6.790950298E0
5.869849020E0,-3.337950230E0,3.568950176E0,5.248050213E0
5.889671851E0,-2.608050108E0,3.315000057E0,4.375950336E0
5.909489385E0,-1.755000114E0,3.538050175E0,4.434000015E0
5.929312453E0,-2.442000151E0,3.676950216E0,4.993950367E0
5.949129909E0,-3.465000153E0,3.375000238E0,5.782050133E0
5.968953000E0,-2.839950085E0,3.775050163E0,6.618000507E0
5.988770630E0,-2.047049999E0,4.702050209E0,7.674000263E0
6.008593616E0,-2.584050179E0,5.206950188E0,8.898000717E0
6.028411140E0,-4.356000423E0,5.182950020E0,1.065900040E1
6.048234192E0,-4.957050323E0,4.764000416E0,1.243995094E1
6.068051837E0,-4.190999985E0,4.948950291E0,1.273695087E1
6.087874823E0,-3.460050106E0,5.533050060E0,1.172700024E1
6.107692423E0,-2.908950090E0,6.738000393E0,1.050105095E1
6.127515418E0,-3.163050175E0,7.332000256E0,1.078995037E1
6.147333034E0,-4.615050316E0,5.722050190E0,1.263405037E1
6.167156049E0,-4.912050247E0,3.940050125E0,1.461300087E1
6.186973587E0,-3.657000065E0,3.547950268E0,1.419795036E1
6.206796664E0,-2.521050215E0,3.955050230E0,1.118505096E1
6.226614203E0,-2.313000202E0,4.285050392E0,8.611050606E0
6.246437270E0,-2.569050074E0,4.330950260E0,8.095950127E0
6.266254793E0,-3.036000252E0,3.655050278E0,8.652000427E0
6.286077861E0,-2.908950090E0,3.028050184E0,7.915950298E0
6.305895457E0,-2.052000046E0,2.901000023E0,6.640050411E0
6.325718241E0,-1.087050080E0,3.178950071E0,5.377950191E0
6.345536019E0,-4.260000288E-1,3.754050255E0,4.435950279E0
6.365359111E0,-4.620000124E-1,4.132050037E0,3.660000086E0
6.385176616E0,-1.117950082E0,3.552000284E0,4.060050011E0
6.404999693E0,-9.139500260E-1,3.976050138E0,5.040000439E0
6.424817231E0,-5.479500294E-1,3.924000263E0,6.691950321E0
6.444640062E0,-2.700000107E-1,3.636000156E0,7.528050423E0
6.464457842E0,-3.469500244E-1,3.988050222E0,7.306050301E0
6.484280905E0,-2.029500157E-1,4.860000134E0,7.072950363E0
6.504098447E0,-1.168050051E0,5.167050362E0,8.065050125E0
6.523921530E0,-1.813050032E0,6.108000278E0,8.625000000E0
6.543738838E0,-9.769500494E-1,7.104000568E0,7.416000366E0
6.563561905E0,-1.836000085E0,7.011000156E0,8.082000732E0
6.583379443E0,-2.160000086E0,7.693050385E0,8.134050369E0
6.603202511E0,-2.292000055E0,8.488950729E0,8.480999947E0
6.623020050E0,-4.930950165E0,6.891000271E0,9.532950401E0
6.642843127E0,-4.833000183E0,5.557050228E0,1.051200008E1
6.662660900E0,-1.959000111E0,4.981950283E0,1.042395020E1
6.682483742E0,-1.963050127E0,4.798050404E0,1.043100071E1
6.702301295E0,-1.513050079E0,4.803000450E0,1.123305035E1
6.722124367E0,-1.300050020E0,4.419000149E0,1.079505062E1
6.741942141E0,-1.507950068E0,4.085999966E0,9.763050079E0
6.761764992E0,-1.374000072E0,3.904050112E0,8.560950279E0
6.781582549E0,-1.278000116E0,3.909000158E0,7.399050236E0
6.801405631E0,-1.429050088E0,3.768000126E0,6.393000126E0
6.821223168E0,-1.405050039E0,3.418050051E0,6.381000519E0
6.841046256E0,-1.180050015E0,2.938950062E0,7.056000233E0
6.860863795E0,-6.889500618E-1,2.632950068E0,7.179000378E0
6.880686886E0,-2.595000155E-2,2.791050196E0,7.210050106E0
6.900504424E0,1.600500047E-1,3.298950195E0,7.597950459E0
6.920327439E0,-1.290000081E-1,3.742050171E0,8.010000229E0
6.940145083E0,8.100000024E-2,4.527000427E0,8.362050056E0
6.959968078E0,2.269500047E-1,4.965000153E0,8.761950493E0
6.979785602E0,-1.290000081E-1,5.416050434E0,9.055950165E0
6.999608679E0,-6.679500341E-1,6.271050453E0,9.688950539E0
7.019426203E0,-4.110000134E-1,6.829050541E0,1.022700024E1
7.039249357E0,-3.040500283E-1,6.430950165E0,1.049805069E1
7.059066818E0,-6.889500618E-1,6.687000275E0,1.069905090E1
7.078889972E0,-1.518000126E0,7.686000347E0,1.023900032E1
7.098707492E0,-1.827000141E0,7.921050549E0,1.029000092E1
7.118530261E0,-1.791000128E0,6.994050503E0,1.131000042E1
7.138348044E0,-1.896000147E0,5.503950119E0,1.183200073E1
7.158170880E0,-1.405050039E0,4.551000118E0,1.071795082E1
7.177988679E0,-6.610500216E-1,4.414950371E0,8.932050705E0
7.197811505E0,-3.180000186E-1,4.600950241E0,7.195050240E0
7.217629274E0,-4.069500268E-1,4.527000427E0,6.060000420E0
7.237452342E0,-7.540500164E-1,4.120050430E0,5.833050251E0
7.257269852E0,-7.750500441E-1,3.684000254E0,5.959950447E0
7.277092938E0,-3.559500277E-1,3.547950268E0,6.064950466E0
7.296910462E0,-2.290500104E-1,3.736950159E0,6.309000492E0
7.316733539E0,-3.079500198E-1,3.961950302E0,5.907000065E0
7.336550847E0,-5.070000291E-1,4.312050343E0,5.578950405E0
7.356373943E0,-6.580500603E-1,4.627950191E0,5.956950188E0
7.376191471E0,-5.700000525E-1,4.654050350E0,6.373950481E0
7.396014543E0,-1.650000066E-1,4.407000065E0,6.283050060E0
7.415832304E0,-1.620000005E-1,4.228050232E0,6.228000164E0
7.435655159E0,-9.019500613E-1,4.371000290E0,6.184950352E0
7.455472684E0,-1.297950029E0,4.374000072E0,9.348000526E0
7.475295761E0,-9.070500135E-1,3.679050207E0,9.660000801E0
7.495113290E0,-8.809500337E-1,3.937950134E0,8.476950645E0
7.530328968E0,-1.408050060E0,4.752000332E0,6.376050472E0
7.550151838E0,-2.466000080E0,4.702050209E0,6.309000492E0
7.569966848E0,-3.132000208E0,4.960950375E0,6.373950481E0
7.589789679E0,-4.026000023E0,5.121000290E0,6.052950382E0
7.609607233E0,-3.082050085E0,5.320050240E0,6.703950405E0
7.629430242E0,-2.646000147E0,4.948950291E0,7.116000175E0
7.649247770E0,-2.959950209E0,4.807050228E0,7.756050587E0
7.669070627E0,-3.015000105E0,4.804950237E0,8.476950645E0
7.688888150E0,-2.896950245E0,5.017950058E0,8.164950371E0
7.708711145E0,-2.842050076E0,5.394000053E0,7.336950302E0
7.728528679E0,-2.851950169E0,5.607000351E0,7.200000286E0
7.748351770E0,-2.818050146E0,5.370000362E0,7.797000408E0
7.768169327E0,-2.634000063E0,5.221950054E0,8.059950829E0
7.787992159E0,-2.329950094E0,5.061000347E0,7.392000198E0
7.807809693E0,-2.125950098E0,4.792950153E0,7.003950119E0
7.827632697E0,-2.293950081E0,4.350000381E0,7.162050247E0
7.847450227E0,-2.683950186E0,4.114950180E0,7.453950405E0
7.867273048E0,-2.775000095E0,3.955050230E0,7.282050133E0
7.887090567E0,-2.169000149E0,3.837000132E0,6.321000099E0
7.906913572E0,-1.714050055E0,3.583950281E0,5.454000473E0
7.926731097E0,-2.119050026E0,3.556950092E0,5.260050297E0
7.946553938E0,-2.347050190E0,3.445050240E0,6.084000111E0
7.966371500E0,-2.395050049E0,2.890950203E0,6.774000168E0
7.986194510E0,-2.016000032E0,2.535000086E0,7.021050453E0
8.006012064E0,-1.516050100E0,2.175000191E0,6.874050140E0
8.025835126E0,-1.386000037E0,1.987950087E0,6.906000137E0
8.045652434E0,-9.960000515E-1,2.448000193E0,6.774000168E0
8.065475434E0,-1.210950017E0,2.773950100E0,6.424050331E0
8.085292996E0,-1.290000081E0,2.680950165E0,6.661050320E0
8.105116097E0,-8.260500431E-1,2.448000193E0,7.669950485E0
8.124933419E0,-2.080500126E-1,2.206050158E0,8.059950829E0
8.144756496E0,4.470000267E-1,2.362050056E0,7.521000385E0
8.164574030E0,6.580500603E-1,2.737950087E0,7.384950161E0
8.184397107E0,3.709500134E-1,2.712000132E0,8.814000130E0
8.204214665E0,4.330500066E-1,2.362050056E0,1.261995029E1
8.224037669E0,1.932000041E0,2.833950043E0,1.435605049E1
8.243854992E0,2.098050117E0,3.712950230E0,1.320000076E1
8.263677997E0,0.000000000E0,2.470050097E0,1.299405098E1
8.283495525E0,-1.293000102E0,1.177050114E0,1.603499985E1
8.303318372E0,-1.101000071E0,-3.900000080E-2,1.904100037E1
8.323136151E0,-3.010500073E-1,-6.790500283E-1,1.858395004E1
8.342959025E0,2.989500165E-1,-6.790500283E-1,1.561605072E1
8.362776487E0,7.609500289E-1,-1.210500076E-1,1.334595108E1
8.382599550E0,3.109500110E-1,4.950000439E-3,1.246005058E1
8.402417054E0,-5.220000148E-1,-6.000000052E-3,1.224600029E1
8.422239886E0,-1.033950090E0,-3.649500310E-1,1.153500080E1
8.442057396E0,-1.297950029E0,-8.629500270E-1,1.043295002E1
8.461880478E0,-7.009500265E-1,-3.820500076E-1,9.789000511E0
8.481697924E0,2.269500047E-1,3.190500140E-1,8.902950287E0
8.501521016E0,5.220000148E-1,-4.699500203E-1,8.211000443E0
8.521338550E0,-1.980000138E-1,-5.100000277E-2,7.677000523E0
8.541161333E0,-2.749500275E-1,3.120000064E-1,7.405950546E0
8.560978843E0,-1.909500062E-1,2.659500241E-1,7.192950249E0
8.580801915E0,2.820000052E-1,6.499500275E-1,8.857950211E0
8.600619453E0,4.020000100E-1,8.410500288E-1,9.780000687E0
8.620442294E0,7.905000448E-2,7.789500356E-1,8.167950630E0
8.640259794E0,2.805000171E-2,8.149500489E-1,5.859000206E0
8.660082784E0,8.100000024E-2,1.009050012E0,4.429050446E0
8.679900308E0,-1.020000055E-1,1.059000015E0,4.069950104E0
8.699723404E0,3.300000131E-1,1.471050024E0,4.017000198E0
8.719540726E0,8.140500188E-1,2.299950123E0,4.254000187E0
8.739363808E0,2.850000262E-1,2.805000067E0,4.606050014E0
8.759181366E0,-7.920000553E-1,2.881950140E0,5.185950279E0
8.779004361E0,-1.803000093E0,2.773950100E0,6.121950150E0
8.798821914E0,-1.270950079E0,3.709950209E0,6.621000290E0
8.818644967E0,-3.520500064E-1,5.001000404E0,5.334000111E0
8.838462486E0,-5.170500278E-1,4.752000332E0,4.779000282E0
8.858285328E0,-5.700000525E-1,5.137950420E0,6.598950386E0
8.878102894E0,-1.840950131E0,3.532950163E0,1.181295013E1
8.897925943E0,-3.111000061E0,1.500000119E0,1.564500046E1
8.917743433E0,-2.569050074E0,1.765950084E0,1.473300076E1
8.937566491E0,-2.466000080E0,2.211000204E0,1.272300053E1
8.957383818E0,-3.241950035E0,2.484000206E0,1.112805080E1
8.977206809E0,-2.884950161E0,3.663000107E0,1.021305084E1
8.997024433E0,-2.931000233E0,4.465050220E0,1.096500015E1
9.016847409E0,-5.062950134E0,2.860050201E0,1.351095104E1
9.036664958E0,-7.158000469E0,1.356000066E0,1.479000092E1
9.056488030E0,-8.161950111E0,8.389500380E-1,1.414305115E1
9.076305332E0,-8.053950310E0,1.521000028E0,1.027305031E1
9.096128327E0,-7.434000492E0,2.260950089E0,6.072000504E0
9.115945943E0,-6.928050518E0,2.070000172E0,3.961950302E0
9.135768933E0,-7.026000500E0,6.739500165E-1,4.254000187E0
9.155586490E0,-7.137000561E0,-1.062000036E0,7.375050545E0
9.175409567E0,-5.218050480E0,-8.820000291E-1,9.540000916E0
9.195227092E0,-2.737050056E0,-4.440000355E-1,8.046000481E0
9.215049972E0,-1.633050084E0,-3.030000031E-1,6.382950306E0
9.234867506E0,-1.306950092E0,9.195000678E-2,5.812950134E0
9.254690520E0,-1.486950040E0,4.890000224E-1,5.914050102E0
9.274508064E0,-2.196000099E0,5.110500455E-1,6.336000443E0
9.294330895E0,-2.794050217E0,9.195000678E-2,6.360000134E0
9.314148656E0,-2.754000187E0,3.910500109E-1,6.223050117E0
9.333971511E0,-2.089950085E0,1.294050097E0,5.916000366E0
9.353789040E0,-1.717050076E0,1.279950023E0,5.947950363E0
9.373612054E0,-7.249500155E-1,2.098950148E0,7.798950195E0
9.393429593E0,-9.430500269E-1,2.380950212E0,1.090800095E1
9.413252646E0,-1.642050028E0,1.672050118E0,1.347300053E1
9.433070174E0,-1.105949998E0,1.986000061E0,1.517295074E1
9.452893039E0,-7.470000386E-1,1.948050141E0,1.532205105E1
9.472710578E0,-5.719500184E-1,2.745000124E0,1.382700062E1
9.492533554E0,-1.801050067E0,3.472950220E0,1.269900036E1
9.512351122E0,-3.472050190E0,2.308950186E0,1.400205040E1
9.532173973E0,-4.756050110E0,8.820000291E-1,1.734105110E1
9.551991727E0,-5.841000080E0,-1.440000057E0,1.936905098E1
9.571814573E0,-5.043000221E0,-1.516950130E0,1.640895081E1
9.591632102E0,-3.754950285E0,-1.279500127E-1,1.189905071E1
9.611455198E0,-3.277950048E0,7.690500617E-1,8.710950851E0
9.631272745E0,-3.678000212E0,9.799500704E-1,7.369950294E0
9.651095846E0,-4.441950321E0,6.229500175E-1,7.273950577E0
9.670913318E0,-4.311000347E0,5.950500369E-1,7.261950493E0
9.690736164E0,-2.754000187E0,6.280500293E-1,6.670950413E0
9.710553706E0,-1.435950041E0,5.629500151E-1,5.980950356E0
9.730376798E0,-7.519500256E-1,4.219500124E-1,5.622000217E0
9.750194361E0,-1.500000060E-1,9.250500202E-1,5.602950096E0
9.770017370E0,-3.730500042E-1,1.516950130E0,6.003000259E0
9.789834890E0,-1.128000021E0,1.621950030E0,7.144950390E0
9.809657755E0,-1.573050022E0,1.792050123E0,8.697000504E0
9.829475284E0,-1.549050093E0,1.963950038E0,1.004805088E1
9.849298351E0,-2.136000156E0,2.134950161E0,1.029000092E1
9.869115880E0,-2.092950106E0,3.732000113E0,9.508950233E0
9.888938948E0,-3.297000170E0,4.795050144E0,7.732050419E0
9.908756424E0,-4.927950382E0,4.543950081E0,7.084950447E0
9.928579515E0,-4.489950180E0,4.827000141E0,8.721000671E0
9.948397122E0,-4.666950226E0,2.604000092E0,1.075695038E1
9.968219862E0,-3.487050056E0,1.560000062E0,1.027500057E1
9.988037386E0,-2.128950119E0,2.058000088E0,9.097050667E0
1.000786046E1,-1.899000049E0,2.020050049E0,8.866950035E0
1.002767800E1,-1.948950052E0,1.699050069E0,9.319950104E0
1.004750110E1,-1.606950045E0,1.581000090E0,9.061050415E0
1.006731854E1,-1.156050086E0,1.756050110E0,8.038050652E0
1.008714139E1,-1.264050007E0,2.065050125E0,6.882000446E0
1.010695894E1,-1.507950068E0,2.487000227E0,6.301950455E0
1.012678201E1,-1.756950140E0,2.827050209E0,6.124950409E0
1.014659954E1,-2.191050053E0,2.970000029E0,6.276000500E0
1.016642259E1,-1.975050092E0,3.160050154E0,6.645000458E0
1.018624013E1,-1.228050113E0,3.604950190E0,7.657950401E0
1.020606312E1,-1.336050034E0,3.889950275E0,9.541950226E0
1.022588041E1,-2.245950222E0,3.751050234E0,1.088400078E1
1.024570346E1,-2.433000088E0,4.138950348E0,1.141800022E1
1.026552102E1,-2.691000223E0,4.198950291E0,1.242405033E1
1.028534402E1,-3.063000202E0,3.238950253E0,1.456200027E1
1.030516165E1,-3.337950230E0,1.894950032E0,1.616505051E1
1.032498474E1,-3.046050072E0,1.087950110E0,1.538595104E1
1.034480227E1,-2.893050194E0,7.960500121E-1,1.380300045E1
1.036462525E1,-3.180000067E0,3.480000198E-1,1.306095028E1
1.038444256E1,-3.292950153E0,2.140500098E-1,1.194495010E1
1.040426564E1,-2.971950054E0,1.750500053E-1,1.059600067E1
1.042408317E1,-2.176950216E0,4.099500179E-1,9.181050301E0
1.044390617E1,-1.234950066E0,6.280500293E-1,7.677000523E0
1.046372372E1,-3.160500228E-1,9.300000668E-1,6.618000507E0
1.048354677E1,1.980000138E-1,1.099950075E0,6.082050323E0
1.050336433E1,3.540000021E-1,1.006049991E0,5.902050495E0
1.052318718E1,1.579500139E-1,7.650000453E-1,5.923950195E0
1.054300472E1,-3.559500277E-1,4.440000355E-1,5.791950226E0
1.056282783E1,-6.529500484E-1,1.969500035E-1,5.674950123E0
1.058264537E1,-3.990000188E-1,5.659500360E-1,5.830050468E0
1.060246839E1,-6.960000396E-1,9.630000591E-1,6.357000351E0
1.062228591E1,-1.453050017E0,1.015950084E0,7.870950222E0
1.064210875E1,-2.191050053E0,1.537950039E0,1.023495007E1
1.066192652E1,-2.959950209E0,2.197050095E0,1.105095005E1
1.068174930E1,-3.475050211E0,2.901000023E0,9.859050751E0
1.070156684E1,-2.718000174E0,4.369050026E0,8.374050140E0
1.072138998E1,-1.944000125E0,5.716950417E0,8.149050713E0
1.074120752E1,-3.168000221E0,4.192049980E0,9.978000641E0
1.076103053E1,-2.632050037E0,2.676000118E0,1.365195084E1
1.078084807E1,-2.100000143E0,6.880500317E-1,1.775699997E1
1.080067095E1,-1.396050096E0,2.689500153E-1,1.732200050E1
1.082048849E1,-4.810500145E-1,9.150000215E-1,1.423695087E1
1.084031156E1,1.000500023E-1,1.183950067E0,1.228695011E1
1.086012911E1,-2.749500275E-1,5.560500026E-1,1.159005070E1
1.087995211E1,5.290500522E-1,5.970000029E-1,1.148505020E1
1.089976967E1,2.647950172E0,1.162050009E0,1.135095024E1
1.091959275E1,1.894050121E0,1.228950024E0,9.958950043E0
1.093941005E1,-8.160000443E-1,1.525950074E0,7.974000454E0
1.095923304E1,-2.121000051E0,2.326050043E0,5.904000282E0
1.097905068E1,-1.744950056E0,3.106950045E0,3.784950256E0
1.099887368E1,-1.884000063E0,3.636000156E0,2.920050144E0
1.101869118E1,-2.337000132E0,3.624000072E0,3.892950296E0
1.103851428E1,-3.070050240E0,3.034950256E0,6.340050220E0
1.105833182E1,-3.084000111E0,2.247000217E0,8.484000206E0
1.107815468E1,-2.401950121E0,2.151000023E0,9.007950783E0
1.109797222E1,-1.900950074E0,2.749950171E0,8.532000542E0
1.111779524E1,-1.867950082E0,3.435000181E0,8.824049950E0
1.113761276E1,-2.038050175E0,3.865950108E0,1.024695015E1
1.115743587E1,-2.251049995E0,3.733950138E0,1.099395084E1
1.117725339E1,-1.348050117E0,5.080050468E0,9.811050415E0
1.119707645E1,-5.719500184E-1,6.568050385E0,7.990950584E0
1.121689397E1,-1.780950069E0,6.067050457E0,8.841000557E0
1.123671679E1,-3.262050152E0,5.385000229E0,1.248105049E1
1.125653428E1,-5.199000359E0,3.469050169E0,1.501800060E1
1.127635735E1,-5.938950062E0,1.603050113E0,1.405005074E1
1.129617487E1,-4.725000381E0,2.151000023E0,1.136295033E1
1.131599795E1,-4.140000343E0,2.391000032E0,9.391950607E0
1.133581551E1,-3.958050251E0,1.950000048E0,8.901000023E0
1.135563835E1,-2.998050213E0,1.668000102E0,8.845950127E0
1.137545613E1,-1.801050067E0,1.677000046E0,9.054000854E0
1.139527887E1,-8.860500455E-1,1.729950070E0,8.505000114E0
1.141509648E1,-3.919500113E-1,1.833000064E0,7.231050491E0
1.143491948E1,-2.269500047E-1,2.002950191E0,6.496050358E0
1.145473703E1,-1.309500039E-1,2.062950134E0,5.968950272E0
1.147456008E1,-7.395000011E-2,2.115000010E0,5.674950123E0
1.149437762E1,-5.205000192E-2,2.400000095E0,5.560050488E0
1.151420047E1,-1.720500141E-1,2.608950138E0,5.458950043E0
1.153401802E1,-4.309500158E-1,2.854950190E0,5.830050468E0
1.155384102E1,-8.659500480E-1,2.926950216E0,6.553950310E0
1.157365854E1,-1.366950035E0,2.712000132E0,7.270050526E0
1.159348163E1,-1.434000015E0,2.628000021E0,7.513950348E0
1.161329916E1,-1.065000057E0,2.796000242E0,7.308000565E0
1.163312202E1,-8.230500221E-1,3.382050276E0,7.413000584E0
1.165293955E1,-8.899500370E-1,4.327950001E0,7.705950260E0
1.167276262E1,-1.678050041E0,4.714050293E0,8.104949951E0
1.169258016E1,-2.452050209E0,4.495950222E0,8.493000031E0
1.171240317E1,-1.446000099E0,6.316050529E0,8.404950142E0
1.173222069E1,-2.863950253E0,5.313000202E0,9.355950356E0
1.175204377E1,-4.408950329E0,3.127950191E0,1.152105045E1
1.177186129E1,-4.966950417E0,9.180000424E-1,1.399995041E1
1.179168438E1,-4.332000256E0,-2.740500271E-1,1.489995098E1
1.181150192E1,-3.525000095E0,-3.700500131E-1,1.406205082E1
1.183132470E1,-2.742000103E0,1.489500105E-1,1.239000034E1
1.185114231E1,-2.337000132E0,5.590500236E-1,1.105605030E1
1.187096533E1,-2.044950008E0,7.720500231E-1,9.946950912E0
1.189078286E1,-1.546950102E0,1.189050078E0,9.388950348E0
1.191060592E1,-1.306950092E0,1.702950120E0,9.219000816E0
1.193042347E1,-1.645050049E0,1.888050079E0,8.605950356E0
1.195024628E1,-1.999050140E0,2.044049978E0,7.768050194E0
1.197006382E1,-2.137950182E0,2.185050011E0,6.874050140E0
1.198988682E1,-1.864950061E0,2.209050179E0,6.268950462E0
1.200970442E1,-1.309950113E0,2.209050179E0,5.952000141E0
1.202952750E1,-6.960000396E-1,2.284950018E0,5.995050430E0
1.204934504E1,-2.820000052E-1,2.419950008E0,6.169950485E0
1.206916781E1,9.105000645E-2,2.515050173E0,6.019050121E0
1.208898535E1,3.349500299E-1,2.608950138E0,5.746050358E0
1.210880841E1,4.980000257E-1,2.689950228E0,5.470950127E0
1.212862596E1,3.900000155E-1,2.563050032E0,6.244950294E0
1.214844903E1,2.650500238E-1,2.281050205E0,8.817000389E0
1.216826649E1,1.095000096E-2,1.936050057E0,1.230405045E1
1.218808955E1,-1.777050138E0,6.739500165E-1,1.603800011E1
1.220790716E1,-3.730950117E0,1.469999999E-1,1.852395058E1
1.222773016E1,-2.767950058E0,1.023000002E0,1.654305077E1
1.224754748E1,-1.611000061E0,1.852050066E0,1.553205109E1
1.226737050E1,-3.321000099E0,7.620000243E-1,1.835895157E1
1.228718813E1,-4.227000237E0,-4.939500093E-1,2.052105141E1
1.230701114E1,-2.473950148E0,-1.369500011E-1,1.812900162E1
1.232682875E1,-7.900500298E-1,8.629500270E-1,1.333395100E1
1.234665174E1,-6.870000362E-1,1.207950115E0,1.021800041E1
1.236646928E1,-6.799500585E-1,1.165050030E0,8.280000687E0
1.238629212E1,-4.740000367E-1,8.650500178E-1,6.406950474E0
1.240610967E1,-1.290000081E-1,8.100000620E-1,4.992000103E0
1.242593276E1,1.069500074E-1,6.280500293E-1,3.823050261E0
1.244575054E1,5.290500522E-1,7.810500264E-1,3.409050226E0
1.246557338E1,7.710000277E-1,9.040500522E-1,3.624000072E0
1.248539094E1,3.900000155E-1,7.410000563E-1,3.868950129E0
1.250521403E1,-6.900000572E-2,6.709500551E-1,3.816000223E0
1.252503156E1,9.105000645E-2,1.153050065E0,3.375000238E0
1.254485432E1,4.549500346E-1,1.726950049E0,3.229050159E0
1.256467209E1,4.350000322E-1,2.071950197E0,4.843050003E0
1.258449492E1,-3.540000021E-1,2.115000010E0,7.710000515E0
1.260431244E1,-1.144050002E0,1.792050123E0,9.550050735E0
1.262413553E1,-1.465050101E0,2.260950089E0,1.013595009E1
1.264395331E1,-1.386000037E0,3.496950150E0,9.432000160E0
1.266377608E1,-7.159500122E-1,5.005950451E0,7.843950272E0
1.268359361E1,-2.340000123E-1,6.484050274E0,6.429000378E0
1.270341669E1,-1.095000096E-2,6.940950394E0,6.879000187E0
1.272323421E1,2.800500095E-1,6.457950115E0,1.096995068E1
1.274305730E1,7.710000277E-1,5.293950081E0,1.497000027E1
1.276287482E1,9.529500604E-1,4.915050030E0,1.552800083E1
1.278269787E1,2.749500275E-1,5.440050125E0,1.414800072E1
1.280251541E1,-6.870000362E-1,6.216000080E0,1.330995083E1
1.282233825E1,-1.659000039E0,6.558000088E0,1.331895065E1
1.284215582E1,-3.132000208E0,5.847000122E0,1.446900082E1
1.286197893E1,-3.978000164E0,4.435950279E0,1.577205086E1
1.288179646E1,-4.176000118E0,3.166950226E0,1.564695072E1
1.290161947E1,-4.468950272E0,2.166000128E0,1.414305115E1
1.292143701E1,-4.576050282E0,1.675050020E0,1.227300072E1
1.294126007E1,-4.342050076E0,1.392000079E0,1.078995037E1
1.296107762E1,-3.891000271E0,1.179000020E0,9.507000923E0
1.298090047E1,-2.965050220E0,1.291050076E0,8.446050644E0
1.300071801E1,-1.710000038E0,1.366050124E0,7.597950459E0
1.302054109E1,-1.231050014E0,1.435050011E0,7.164000511E0
1.304035865E1,-1.055999994E0,1.648050070E0,6.967950344E0
1.306018172E1,-1.153950095E0,1.782000065E0,7.056000233E0
1.307999949E1,-1.563000083E0,2.020050049E0,7.746000290E0
1.309982235E1,-2.730000019E0,2.185050011E0,9.279000282E0
1.311963981E1,-5.119950294E0,2.023950100E0,1.039800072E1
1.313946296E1,-7.225050449E0,2.343000174E0,9.909000397E0
1.315928047E1,-7.975050449E0,2.668950081E0,8.464950562E0
1.317910345E1,-7.387950420E0,2.923050165E0,7.543050289E0
1.319892099E1,-6.475950241E0,3.346050262E0,7.629000187E0
1.321874408E1,-4.885050297E0,4.762050152E0,7.432050228E0
1.323856163E1,-2.908950090E0,6.117000103E0,7.954950333E0
1.325838472E1,-1.528050065E0,6.273000240E0,8.920050621E0
1.327820224E1,-1.162950039E0,6.715950489E0,1.000005054E1
1.329802507E1,-1.816950083E0,6.544050217E0,1.155405045E1
1.331784284E1,-2.823000193E0,5.590950489E0,1.270200062E1
1.333766568E1,-2.874000072E0,6.001950264E0,1.007205009E1
1.335748324E1,-2.323050022E0,6.340050220E0,5.869050503E0
1.337730631E1,-1.729050040E0,6.064950466E0,4.621050358E0
1.339712384E1,-1.149000049E0,6.223050117E0,6.063000202E0
1.341694686E1,-9.840000272E-1,5.803950310E0,8.613000870E0
1.343676446E1,-9.769500494E-1,5.076000214E0,9.358050346E0
1.345658747E1,-1.004999995E0,4.465050220E0,9.154950142E0
1.347640500E1,-8.160000443E-1,4.383000374E0,8.164950371E0
1.349622806E1,-5.479500294E-1,4.510050297E0,6.805050373E0
1.351604568E1,-4.090500176E-1,4.510050297E0,6.067050457E0
1.353586844E1,-1.189500093E-1,4.546050072E0,6.079050064E0
1.355568621E1,-5.895000324E-2,4.771050453E0,6.331050396E0
1.357550908E1,-5.310000181E-1,4.975050449E0,6.537000179E0
1.359532661E1,-9.859500527E-1,5.157000065E0,6.361950397E0
1.361514972E1,-7.630500197E-1,5.695950508E0,5.821050167E0
1.363496750E1,-3.760500252E-1,6.172950268E0,5.313000202E0
1.365479033E1,2.290500104E-1,6.414000511E0,5.538000107E0
1.367460786E1,7.350000143E-1,7.036950111E0,6.280050278E0
1.369443092E1,1.396050096E0,8.077050209E0,6.874050140E0
1.371424848E1,4.500000179E-1,7.963950157E0,6.712050438E0
1.373407154E1,-1.519950032E0,6.982050419E0,6.774000168E0
1.375388908E1,-2.446950197E0,6.172950268E0,8.484000206E0
1.377371208E1,-2.646000147E0,5.515950203E0,1.055595016E1
1.379352960E1,-3.978000164E0,5.218950272E0,1.208100033E1
1.381335269E1,-3.345000267E0,6.967950344E0,9.540000916E0
1.383317022E1,-3.652050257E0,6.925050259E0,7.473000526E0
1.385299329E1,-1.197000027E0,6.424050331E0,6.724050522E0
1.387281082E1,-1.039050102E0,4.776000023E0,8.364000320E0
1.389263388E1,-1.209000111E0,4.291950226E0,8.992050171E0
1.391245142E1,-1.501050115E0,4.804950237E0,9.111000061E0
1.393227426E1,-1.618950129E0,4.703999996E0,8.785950661E0
1.395209180E1,-1.573050022E0,4.585050106E0,8.500950813E0
1.397191487E1,-1.435950041E0,4.683000088E0,7.864050388E0
1.399173239E1,-1.534950018E0,4.747950077E0,7.995000362E0
1.401155545E1,-1.972950101E0,4.876950264E0,8.271000862E0
1.403137296E1,-2.578950167E0,5.124000072E0,8.224950790E0
1.405119604E1,-2.694000244E0,4.972950459E0,7.998000145E0
1.407101357E1,-1.777050138E0,4.672950268E0,7.537950516E0
1.409083666E1,-1.561050057E0,4.800000191E0,6.853050232E0
1.411065423E1,-2.790000200E0,4.876950264E0,8.503050804E0
1.413047724E1,-2.674950123E0,4.834050179E0,9.904050827E0
1.415029481E1,-1.336050034E0,5.113950253E0,9.883050919E0
1.417011767E1,-1.350000024E0,5.338950157E0,7.737000465E0
1.420752678E1,1.003050089E0,7.897050381E0,9.255000114E0
1.422734983E1,-1.189950109E0,5.674050331E0,7.911000252E0
1.424716459E1,-1.435950041E0,5.449050426E0,6.168000221E0
1.426698745E1,-3.760500252E-1,6.430950165E0,6.721050262E0
1.428680497E1,9.190500379E-1,7.578000546E0,6.058050156E0
1.430662794E1,1.705050111E0,8.107950211E0,7.513950348E0
1.432644556E1,5.070000291E-1,6.466950417E0,8.355000496E0
1.434626858E1,-1.360050082E0,4.932000160E0,7.846950531E0
1.436608611E1,-1.065000057E0,5.452050209E0,7.401000500E0
1.438590920E1,-1.120500043E-1,6.730950356E0,7.666950226E0
1.440572651E1,-5.910000205E-1,6.874050140E0,7.099950314E0
1.442554957E1,-1.609050035E0,6.276000500E0,7.188000202E0
1.444536710E1,-2.083050013E0,5.871000290E0,7.413000584E0
1.446519017E1,-2.674950123E0,5.773050308E0,7.107000351E0
1.448500769E1,-3.585000277E0,5.538000107E0,6.606000423E0
1.450483066E1,-4.006050110E0,5.607000351E0,5.263050079E0
1.452464829E1,-3.331050158E0,6.073950291E0,5.236050129E0
1.454447131E1,-3.034050226E0,5.305950165E0,5.320050240E0
1.456428885E1,-3.417000055E0,3.952050209E0,5.473050117E0
1.458411168E1,-3.589950085E0,3.354000092E0,5.056950092E0
1.460392924E1,-3.385950089E0,3.139950037E0,4.186950207E0
1.462375236E1,-2.854050159E0,2.784000158E0,4.626000404E0
1.464356988E1,-2.248050213E0,2.506050110E0,6.295050144E0
1.466339296E1,-1.786050081E0,1.978950143E0,6.360000134E0
1.468321051E1,-1.579950094E0,1.071000099E0,8.185050011E0
1.470303326E1,-1.599000096E0,-1.710000038E-1,1.224195099E1
1.472285102E1,-6.919500232E-1,2.950500250E-1,1.546995068E1
1.474267388E1,-1.132050037E0,1.845000029E0,1.582905102E1
1.476249144E1,-1.597050071E0,2.839050055E0,1.179600048E1
1.478231452E1,-2.295000106E-2,2.934000254E0,9.277050018E0
1.480213206E1,2.326950073E0,4.977000237E0,7.870950222E0
1.482195508E1,2.449950218E0,6.709050179E0,8.404950142E0
1.484177266E1,2.205000162E0,7.078050137E0,7.792050362E0
1.486159566E1,2.062050104E0,6.240000248E0,7.180950165E0
1.488141321E1,1.678050041E0,4.711950302E0,8.107950211E0
1.490123631E1,1.686000109E0,3.640950203E0,7.557000160E0
1.492105382E1,2.425950050E0,3.640950203E0,6.955950260E0
1.494087666E1,4.356000423E0,3.772950172E0,6.982050419E0
1.496069420E1,1.055895042E1,2.689500153E-1,2.913105202E1
1.498051726E1,4.174050331E0,-2.638050079E0,1.241205025E1
1.500033474E1,9.930000305E-1,1.842000127E0,4.099500179E-1
1.502015782E1,0.000000000E0,2.551050186E0,3.475950241E0
1.503997536E1,-1.008000016E0,2.187000036E0,8.781000137E0
1.505979842E1,8.280000687E-1,2.439000130E0,7.630950451E0
1.507961598E1,5.281050205E0,4.482000351E0,9.163949966E0
1.509943907E1,3.601950169E0,3.933000088E0,5.821050167E0
1.511925638E1,1.326000094E0,2.901000023E0,4.269000053E0
1.513907935E1,-1.650000066E-1,2.380950212E0,4.399950027E0
1.515889698E1,-1.345050097E0,2.815050125E0,7.024950504E0
1.517871997E1,-1.956000090E0,3.196050167E0,7.930950165E0
1.519853749E1,-2.184000015E0,1.533000112E0,8.755050659E0
1.521836056E1,-2.232000113E0,7.600500584E-1,6.181950092E0
1.523817810E1,-4.695000127E-2,1.933050036E0,5.916000366E0
1.525800120E1,9.495000541E-2,2.281050205E0,3.756000280E0
1.527781877E1,3.970500231E-1,1.312950015E0,2.275950193E0
1.529764162E1,5.959500074E-1,2.639999986E-1,2.281050205E0
1.531745915E1,4.429500103E-1,7.429500222E-1,3.670050144E0
1.533728223E1,-1.029000044E0,1.009500027E-1,4.906050205E0
1.535709977E1,-2.088000059E0,-1.960050106E0,5.659950256E0
1.537692276E1,-3.124950171E0,-4.554000378E0,6.100950241E0
1.539674027E1,-4.857000351E0,-8.386050224E0,6.949050426E0
1.541656310E1,-5.761950493E0,-1.133895016E1,9.523050308E0
1.543638064E1,-7.735050201E0,-1.592805099E1,1.509405041E1
1.545620372E1,-8.959050179E0,-2.065095139E1,2.115600014E1
1.547602128E1,-5.878950119E0,-1.984605026E1,2.164500046E1
1.549584427E1,-3.082050085E0,-1.558305073E1,1.681605148E1
1.551566190E1,-4.344000340E0,-1.272300053E1,1.172205067E1
1.553548466E1,-5.593950272E0,-1.044795036E1,1.038795090E1
1.555530220E1,-4.654950142E0,-7.641000271E0,1.152600098E1
1.557512525E1,-2.598000050E0,-5.148000240E0,1.145595074E1
1.559494279E1,-3.730500042E-1,-2.962950230E0,1.059900093E1
1.561476579E1,1.053000093E0,-1.615050077E0,1.006905079E1
1.563458340E1,1.402950048E0,-1.050000072E0,9.054000854E0
1.565440640E1,8.089500666E-1,-9.679500461E-1,7.180950165E0
1.567422402E1,-5.505000427E-2,-1.117050052E0,5.299050331E0
1.569404703E1,-9.810000658E-1,-1.597950101E0,3.780000210E0
1.571386458E1,-2.311050177E0,-2.832000017E0,2.785950184E0
1.573368745E1,-4.021049976E0,-4.696950436E0,1.668000102E0
1.575350499E1,-5.259000301E0,-6.421950340E0,4.390500188E-1
1.577332806E1,-4.612050056E0,-6.016950130E0,-2.230500132E-1
1.579314560E1,-3.907950163E0,-5.365950108E0,5.040000081E-1
1.581296861E1,-4.821000099E0,-7.273950577E0,1.363950014E0
1.583278613E1,-4.945050240E0,-8.577000618E0,2.071950197E0
1.585260897E1,-3.763950109E0,-7.990950584E0,3.981000185E0
1.587242650E1,-3.985050201E0,-7.258050442E0,7.114050388E0
1.589224958E1,-6.775050163E0,-7.693950176E0,1.023900032E1
1.591206711E1,-8.119050026E0,-7.678950310E0,1.134795094E1
1.593189011E1,-8.983050346E0,-7.063950539E0,1.035195065E1
1.595170771E1,-1.005105019E1,-7.104000568E0,8.191950798E0
1.597153077E1,-1.128000069E1,-7.243050575E0,6.621000290E0
1.599134822E1,-1.382805061E1,-9.805950165E0,6.217950344E0
1.601117108E1,-1.522905064E1,-1.226100063E1,6.181950092E0
1.603098861E1,-1.421205044E1,-1.118100071E1,8.568000793E0
1.605081166E1,-1.263600063E1,-8.545949936E0,1.035195065E1
1.607062920E1,-1.209000015E1,-7.192950249E0,1.014405060E1
1.609045221E1,-1.041300011E1,-6.007950306E0,8.641950607E0
1.611026983E1,-8.121000290E0,-4.597050190E0,7.741050243E0
1.613009284E1,-6.049050331E0,-3.078000069E0,6.814950466E0
1.614991038E1,-4.785000324E0,-1.905000091E0,6.000000477E0
1.616973322E1,-4.888050079E0,-1.549950123E0,5.382000446E0
1.618955078E1,-5.350050449E0,-1.555050015E0,4.102950096E0
1.620937385E1,-6.543000221E0,-2.164050102E0,3.502050161E0
1.622919139E1,-7.411950588E0,-2.869950056E0,4.051050186E0
1.624901440E1,-7.387950420E0,-3.457050085E0,4.594050407E0
1.626883194E1,-6.897000313E0,-3.583950281E0,4.681050301E0
1.628865511E1,-7.105950356E0,-3.571950197E0,3.450000048E0
1.630847234E1,-7.792950153E0,-3.925950289E0,1.831050038E0
1.632829541E1,-7.828950405E0,-3.898050070E0,7.669500113E-1
1.634811317E1,-7.234950542E0,-3.817950249E0,7.620000243E-1
1.636793602E1,-6.628950119E0,-3.888000250E0,1.716000080E0
1.638775355E1,-6.010950089E0,-4.338000298E0,1.723050117E0
1.640757664E1,-5.166000366E0,-4.513050079E0,1.615050077E0
1.642739408E1,-4.432950020E0,-4.594050407E0,1.816050053E0
1.644721691E1,-4.075950146E0,-4.498950005E0,1.216950059E0
1.646703445E1,-4.093050003E0,-4.302000046E0,-3.190500140E-1
1.648685751E1,-4.894950390E0,-4.446000099E0,-1.303950071E0
1.650667505E1,-6.661950111E0,-5.790000439E0,-1.596000075E0
1.652649813E1,-8.241000175E0,-8.467050552E0,-2.107950211E0
1.654631557E1,-8.701050758E0,-1.012200069E1,-1.906950116E0
1.656613842E1,-8.776950836E0,-1.102005005E1,-1.474050045E0
1.658595596E1,-1.003200054E1,-1.334805107E1,-1.428000093E0
1.660577905E1,-9.904950142E0,-1.451505089E1,-1.714950085E0
1.662559659E1,-7.897950172E0,-1.116405010E1,-8.100000620E-1
1.664541968E1,-8.253000259E0,-8.533950806E0,2.020500153E-1
1.666523716E1,-1.065495014E1,-7.698000431E0,-2.620500028E-1
1.668506024E1,-1.199400043E1,-6.855000496E0,-1.039950013E0
1.670487778E1,-1.105500031E1,-5.782050133E0,-1.339050055E0
1.672470062E1,-9.010050774E0,-5.329950333E0,-1.813950062E0
1.674451818E1,-7.663950443E0,-5.184000015E0,-2.590050220E0
1.676434126E1,-7.327950478E0,-4.912950039E0,-3.603000164E0
1.678415882E1,-6.892050266E0,-4.582050323E0,-4.422000408E0
1.680398183E1,-5.896050453E0,-3.883050203E0,-4.518000126E0
1.682379938E1,-4.948050022E0,-3.246000051E0,-4.027050018E0
1.684362224E1,-4.195950031E0,-3.022950172E0,-3.028050184E0
1.686343979E1,-3.741000175E0,-3.066000223E0,-1.656000137E0
1.688326287E1,-3.436050177E0,-3.495000124E0,-3.139500022E-1
1.690308034E1,-2.850000143E0,-3.715050220E0,6.570000052E-1
1.692290340E1,-2.383050203E0,-3.802050114E0,1.251000047E0
1.694272096E1,-2.263050079E0,-4.297049999E0,1.455000043E0
1.696254403E1,-2.430000067E0,-5.184000015E0,1.536000013E0
1.698236134E1,-2.770950079E0,-5.983950138E0,1.573950052E0
1.700218434E1,-3.532050133E0,-6.618000507E0,2.017050028E0
1.702200195E1,-5.086950302E0,-7.594950199E0,2.733000040E0
1.704182495E1,-7.399950504E0,-8.581950188E0,3.532950163E0
1.706164246E1,-1.043505096E1,-9.576000214E0,4.186950207E0
1.708146553E1,-1.339500046E1,-1.017705059E1,4.390950203E0
1.710128307E1,-1.512900066E1,-9.247950554E0,3.646050215E0
1.712110592E1,-1.589805031E1,-8.776050568E0,2.118000031E0
1.714092337E1,-1.586205101E1,-9.460950851E0,9.060000181E-1
1.716074621E1,-1.401495075E1,-9.859050751E0,9.469500184E-1
1.718056397E1,-1.209705067E1,-1.080705070E1,1.153050065E0
1.720038680E1,-1.087500095E1,-1.203300095E1,8.220000267E-1
1.722020457E1,-9.490950584E0,-1.150605011E1,2.380500138E-1
1.724002743E1,-8.533050537E0,-9.805950165E0,-4.050000310E-1
1.725984499E1,-8.392050743E0,-8.364000320E0,-6.229500175E-1
1.727966776E1,-8.334000587E0,-7.732050419E0,-1.420500129E-1
1.729948528E1,-7.771050453E0,-7.204950333E0,8.170500398E-1
1.731930836E1,-6.739050388E0,-6.285000324E0,1.612950087E0
1.733912590E1,-5.797950268E0,-5.413950443E0,2.002950191E0
1.735894901E1,-5.187000275E0,-5.077950478E0,1.854000092E0
1.737876655E1,-4.885050297E0,-5.224050045E0,1.435050011E0
1.739858961E1,-4.600050449E0,-5.287050247E0,1.083000064E0
1.741840707E1,-4.284000397E0,-5.301000118E0,7.960500121E-1
1.743822992E1,-4.195950031E0,-5.413950443E0,5.040000081E-1
1.745804745E1,-4.128000259E0,-5.362950325E0,4.009500146E-1
1.747787053E1,-3.613950253E0,-5.173950195E0,1.423050046E0
1.749768808E1,-3.132000208E0,-5.887950420E0,3.370950222E0
1.751751107E1,-2.821050167E0,-6.715950489E0,2.832000017E0
1.753732862E1,-2.374950171E0,-6.544050217E0,4.290000200E-1
1.755715145E1,-2.623950243E0,-6.046050072E0,-1.777950048E0
1.757696888E1,-3.292950153E0,-5.895000458E0,-3.274950266E0
1.759679195E1,-3.661050081E0,-5.665050507E0,-3.121050119E0
1.761660951E1,-3.738000154E0,-5.785050392E0,-1.906950116E0
1.763643257E1,-3.432000160E0,-6.295050144E0,-6.660000086E-1
1.765625011E1,-3.205950260E0,-6.967950344E0,9.900000691E-2
1.767607294E1,-3.321000099E0,-8.029050827E0,-3.220500052E-1
1.769589049E1,-2.962050200E0,-9.079950333E0,-1.383000016E0
1.771571350E1,-3.309000254E0,-1.132005024E1,-2.218050003E0
1.773553103E1,-4.118999958E0,-1.594200039E1,-2.977950096E0
1.775535412E1,-2.430000067E0,-1.800405121E1,-1.294050097E0
1.777517147E1,-6.010500193E-1,-1.722105026E1,2.166000128E0
1.779499453E1,-3.370500207E-1,-1.618200111E1,4.879050255E0
1.781481229E1,-2.136000156E0,-1.520700073E1,6.364050388E0
1.783463514E1,-6.837000370E0,-1.540800095E1,5.869050503E0
1.785445258E1,-1.188795090E1,-1.545600033E1,3.937950134E0
1.787427544E1,-1.463505077E1,-1.355895042E1,2.199000120E0
1.789409298E1,-1.446495056E1,-1.061100006E1,1.227000117E0
1.791391607E1,-1.278405094E1,-8.673000336E0,4.849500358E-1
1.793373361E1,-1.081995010E1,-7.756050587E0,-3.889500201E-1
1.795355661E1,-8.704950333E0,-7.437000275E0,-8.580000401E-1
1.797337416E1,-7.177050114E0,-8.701950073E0,-6.070500016E-1
1.799319699E1,-5.266050339E0,-1.040700054E1,3.859500289E-1
1.801301453E1,-2.131050110E0,-9.034950256E0,2.476950169E0
1.803283762E1,-2.460000068E-1,-6.072000504E0,4.314000130E0
1.805265516E1,-1.429050088E0,-4.563000202E0,3.619950056E0
1.807247823E1,-3.537000179E0,-3.672000170E0,1.456950068E0
1.809229570E1,-5.371950150E0,-3.289050102E0,-3.000000119E-1
1.811211854E1,-6.511950493E0,-4.361999989E0,-1.893000126E0
1.813193631E1,-6.363000393E0,-5.220000267E0,-3.105000257E0
1.815175909E1,-6.622050285E0,-6.594000340E0,-3.295950174E0
1.817157670E1,-7.228050232E0,-7.870950222E0,-3.124050140E0
1.819139969E1,-8.145000458E0,-8.712000847E0,-2.467950106E0
1.821121722E1,-8.794050217E0,-8.719050407E0,-1.444950104E0
1.823104028E1,-9.615000725E0,-8.536950111E0,-6.019500494E-1
1.825085782E1,-1.086300087E1,-1.045305061E1,-8.560500145E-1
1.827068061E1,-1.096905041E1,-1.258905029E1,-1.617000103E0
1.829049812E1,-1.021200085E1,-1.469205093E1,-2.206050158E0
1.831032119E1,-9.352050781E0,-1.669395065E1,-2.083950043E0
1.833013872E1,-9.201000214E0,-1.771905136E1,-9.780000448E-1
1.834996157E1,-9.048000336E0,-1.710105133E1,9.780000448E-1
1.836977934E1,-8.374950409E0,-1.453095055E1,3.331950188E0
1.838960216E1,-8.794050217E0,-1.269195080E1,4.422000408E0
1.840941960E1,-9.163050652E0,-1.210500050E1,3.595950127E0
1.842924267E1,-8.418000221E0,-1.151100063E1,1.902000070E0
1.844906022E1,-7.939050198E0,-1.093395042E1,4.129500091E-1
1.846888307E1,-8.086950302E0,-1.146795082E1,-5.350500345E-1
1.848870062E1,-7.840950489E0,-1.202400017E1,-5.350500345E-1
1.850852370E1,-7.963050365E0,-1.256700039E1,2.980500162E-1
1.852834124E1,-8.467950821E0,-1.304895020E1,1.207950115E0
1.854816424E1,-8.647950172E0,-1.274700069E1,1.953000069E0
1.856798178E1,-8.338950157E0,-1.269195080E1,2.920050144E0
1.858780461E1,-7.276050568E0,-1.211205101E1,3.235950232E0
1.860762215E1,-5.332950115E0,-1.151595020E1,2.185050011E0
1.862744514E1,-3.420000076E0,-1.017495060E1,1.122000098E0
1.864726276E1,-3.015000105E0,-8.434050560E0,1.660050035E0
1.866708573E1,-4.488000393E0,-8.440950394E0,2.713950157E0
1.868690327E1,-5.689950466E0,-8.728050232E0,3.226950169E0
1.870672614E1,-5.374050140E0,-7.915950298E0,2.833950043E0
1.872654367E1,-4.488000393E0,-6.930000305E0,2.287950039E0
1.874636673E1,-2.703000069E0,-6.024000168E0,4.317000389E0
1.876618420E1,-1.978050113E0,-4.807950020E0,6.673050404E0
1.878600727E1,-3.601950169E0,-3.780000210E0,6.598950386E0
1.880582479E1,-4.963950157E0,-2.995050192E0,3.840000153E0
1.882564765E1,-3.862950087E0,-6.760500073E-1,1.516950130E0
1.884546540E1,-3.160950184E0,6.349500418E-1,1.006950021E0
1.886528819E1,-3.118050098E0,8.650500178E-1,1.380000114E0
1.888510581E1,-1.918050051E0,2.395950079E0,2.752950191E0
1.890492881E1,-1.906050086E0,2.632950068E0,5.791950226E0
1.892474636E1,-2.506950140E0,1.399050117E0,7.261950493E0
1.894456923E1,-2.505000114E0,-5.805000290E-2,6.415050507E0
1.896438701E1,-2.197950125E0,-1.165050030E0,5.611950397E0
1.898420987E1,-2.193000078E0,-1.404000044E0,4.129950047E0
1.900402733E1,-2.301000118E0,-1.003950000E0,1.213050008E0
1.902385016E1,-2.815950155E0,-9.060000181E-1,-1.555050015E0
1.904366794E1,-4.204950333E0,-1.452000022E0,-3.448950052E0
1.906349081E1,-4.881000042E0,-2.440950155E0,-4.393050194E0
1.908330836E1,-5.122050285E0,-3.463950157E0,-4.120050430E0
1.910313145E1,-4.804050446E0,-4.731000423E0,-2.953950167E0
1.912294891E1,-4.107000351E0,-5.581050396E0,-9.850500226E-1
1.914277174E1,-4.111950397E0,-6.577950478E0,1.222050071E0
1.916258953E1,-4.405950069E0,-7.488000393E0,3.358950138E0
1.918241235E1,-4.809000015E0,-8.697000504E0,3.636000156E0
1.920222987E1,-6.294000149E0,-1.087695026E1,3.174000263E0
1.922205296E1,-9.049950600E0,-1.358100033E1,3.481050253E0
1.924187049E1,-1.204905033E1,-1.665105057E1,4.723950386E0
1.926169348E1,-1.429800034E1,-1.938600159E1,5.916000366E0
1.928151100E1,-1.690395164E1,-2.020005035E1,7.804050446E0
1.930133386E1,-2.026905060E1,-1.805700111E1,7.497000217E0
1.932115139E1,-2.654295158E1,-1.762605095E1,4.045950413E0
1.934097439E1,-2.977695084E1,-1.834905052E1,6.664050102E0
1.936079192E1,-2.162895012E1,-1.675605011E1,9.832050323E0
1.938061497E1,-1.206600094E1,-1.406700039E1,5.803950310E0
1.940043251E1,-7.896000385E0,-1.173600101E1,2.166000128E0
1.942025533E1,-7.635000229E0,-1.047195053E1,1.644000053E0
1.944007280E1,-8.101950645E0,-9.181050301E0,2.719050169E0
1.945989588E1,-7.378950119E0,-6.949050426E0,3.736950159E0
1.947971341E1,-6.732000351E0,-5.277000427E0,4.149000168E0
1.949953651E1,-6.682050228E0,-4.812000275E0,3.595950127E0
1.951935382E1,-6.487950325E0,-4.642050266E0,1.962000132E0
1.953917683E1,-5.580000401E0,-3.631950140E0,4.680000246E-1
1.955899435E1,-4.746000290E0,-2.113049984E0,-3.120000064E-1
1.957881722E1,-4.549950123E0,-1.633950114E0,-4.720500112E-1
1.959863477E1,-4.690950394E0,-1.546050072E0,6.829500198E-1
1.961845785E1,-4.786950111E0,-1.759050131E0,2.082000017E0
1.963827538E1,-5.130000114E0,-2.425050020E0,3.220050097E0
1.965809839E1,-6.339000225E0,-3.901950121E0,4.090950012E0
1.967791595E1,-7.801950455E0,-6.391050339E0,4.084050179E0
1.969773903E1,-8.289000511E0,-9.235950470E0,3.759000063E0
1.971755634E1,-8.023050308E0,-1.224705029E1,2.892000198E0
1.973737934E1,-6.028050423E0,-1.251705074E1,2.464950085E0
1.975719687E1,-3.760050297E0,-9.439949989E0,3.318000078E0
1.977701971E1,-4.078050137E0,-7.722000599E0,5.422950268E0
1.979683749E1,-5.416950226E0,-7.155000210E0,6.859950542E0
1.981666034E1,-5.143950462E0,-4.972950459E0,7.114050388E0
1.983647789E1,-4.380000114E0,-3.976950169E0,7.068000317E0
1.985630087E1,-4.588050365E0,-4.597050190E0,8.604000092E0
1.987611819E1,-8.293050766E0,-4.399950027E0,1.379400063E1
1.989594125E1,-1.093305016E1,-5.620050430E0,1.425105095E1
1.991575878E1,-1.144305038E1,-6.834000111E0,9.432000160E0
1.993558184E1,-1.234095097E1,-6.847950459E0,6.064950466E0
1.995539940E1,-1.309800053E1,-5.650950432E0,6.331050396E0
1.997522241E1,-1.334895039E1,-3.574050188E0,7.864050388E0
1.999503992E1,-1.367295074E1,-2.692950010E0,8.206049919E0
2.001486277E1,-1.232895088E1,-2.170950174E0,7.264950275E0
2.003468030E1,-9.442950249E0,-1.548000097E0,6.132000446E0
2.005450331E1,-6.543000221E0,-7.600500584E-1,5.875950336E0
2.007432085E1,-4.749000072E0,-8.505000174E-2,6.466950417E0
2.009414394E1,-3.963000298E0,1.920000017E-1,6.793050289E0
2.011396126E1,-3.514950275E0,3.600000143E-1,6.361950397E0
2.013378425E1,-3.156000137E0,5.370000005E-1,5.281950474E0
2.015360180E1,-2.874000072E0,6.300000548E-1,3.997950077E0
2.017342489E1,-2.464050055E0,5.389500260E-1,3.154950142E0
2.019324221E1,-1.860000134E0,3.570000231E-1,3.042000055E0
2.021306530E1,-1.336050034E0,1.950000077E-1,3.469050169E0
2.023288285E1,-5.479500294E-1,3.070500195E-1,4.858050346E0
2.025270586E1,7.395000011E-2,3.600000143E-1,6.478950500E0
2.027252340E1,-4.710000157E-1,4.480500221E-1,7.684050560E0
2.029234647E1,-1.755000114E0,9.060000181E-1,9.471000671E0
2.031216380E1,-2.787000179E0,1.363050103E0,1.252005100E1
2.033198681E1,-3.811950207E0,1.219950080E0,1.375500107E1
2.035180443E1,-4.118999958E0,1.756050110E0,1.117395020E1
2.037162742E1,-4.069050312E0,3.435000181E0,7.785000324E0
2.039144498E1,-4.240950108E0,4.702050209E0,6.505950451E0
2.041126781E1,-3.681000233E0,5.547000408E0,7.519050121E0
2.043108526E1,-2.500050068E0,4.642050266E0,9.487050056E0
2.045090811E1,-1.390950084E0,2.508000135E0,1.147305012E1
2.047072587E1,-1.039050102E0,1.870950103E0,1.171005058E1
2.049054871E1,-2.233950138E0,2.329050064E0,9.801000595E0
2.051036623E1,-2.902050257E0,3.040050030E0,7.774950504E0
2.053018925E1,-2.545050144E0,3.406050205E0,6.994050503E0
2.055000679E1,-2.416050196E0,3.861000299E0,6.079050064E0
2.056982963E1,-2.506950140E0,4.672950268E0,5.248050213E0
2.058964716E1,-4.705950260E0,5.101950169E0,8.167950630E0
2.060947015E1,-3.508050203E0,5.919000149E0,8.941050529E0
2.062928768E1,-6.409500241E-1,6.192000389E0,7.375050545E0
2.064911079E1,-1.723950028E0,6.678000450E0,9.660000801E0
2.066892833E1,-3.250050068E0,6.144000053E0,1.192305088E1
2.068875118E1,-2.161950111E0,6.004950523E0,1.322805023E1
2.070856871E1,-2.014050007E0,4.975050449E0,1.399995041E1
2.072839148E1,-2.995950222E0,4.735949993E0,1.202100086E1
2.074820902E1,-3.664050102E0,5.820000172E0,7.797000408E0
2.076803211E1,-4.023000240E0,6.525000095E0,5.992950439E0
2.078784961E1,-3.043950081E0,5.935050488E0,7.345950127E0
2.080767259E1,-1.566000104E0,4.965000153E0,9.052050591E0
2.082749015E1,-7.660500407E-1,4.498050213E0,9.583050728E0
2.084731295E1,-5.620500445E-1,4.375950336E0,7.507050514E0
2.086713041E1,-1.092000008E0,4.486050129E0,5.233950138E0
2.088695349E1,-1.894050121E0,4.920000076E0,4.740000248E0
2.090677101E1,-2.164950132E0,5.073000431E0,5.164050102E0
2.092659389E1,-1.671000123E0,4.873950005E0,5.940000057E0
2.094641141E1,-7.200000286E-1,4.591950417E0,7.509000301E0
2.096623438E1,-6.270000339E-1,4.606050014E0,7.332000256E0
2.098605169E1,-9.690000415E-1,4.792950153E0,5.533050060E0
2.100587477E1,-1.345050097E0,5.041950226E0,4.863000393E0
2.102569230E1,-1.647000074E0,5.266950130E0,5.986050129E0
2.104551530E1,-1.741050124E0,5.188050270E0,6.505950451E0
2.106533285E1,-1.683000088E0,5.326950073E0,5.193000317E0
2.108515568E1,-1.413000107E0,5.646000385E0,3.957000256E0
2.110497323E1,-1.947000146E0,5.932950497E0,5.493000031E0
2.112479627E1,-3.205950260E0,7.035000324E0,9.676950455E0
2.114351598E1,-2.047049999E0,6.421950340E0,6.490950108E0
2.116333621E1,-2.337000132E0,6.136950493E0,4.138950348E0
2.118315898E1,-2.287050009E0,7.020000458E0,4.951050282E0
2.120297352E1,-9.019500613E-1,7.573950291E0,7.855950356E0
2.122279658E1,2.295000106E-2,7.312950134E0,9.708000183E0
2.124261382E1,1.290000081E-1,6.489000320E0,1.033500004E1
2.126243692E1,-8.740500212E-1,5.599950314E0,9.091950417E0
2.128225437E1,-2.109000206E0,5.242950439E0,7.188000202E0
2.130207722E1,-2.401950121E0,5.397000313E0,6.364050388E0
2.132189465E1,-1.839000106E0,5.956950188E0,6.489000320E0
2.134171745E1,-1.096050024E0,6.675000191E0,6.988950253E0
2.136153479E1,-5.430000424E-1,7.183050156E0,7.381950378E0
2.138135780E1,-4.069500268E-1,7.684050560E0,7.594950199E0
2.140117512E1,-3.990000188E-1,7.875000477E0,8.236949921E0
2.142099813E1,2.440500110E-1,6.895950317E0,8.721000671E0
2.144081542E1,7.849500179E-1,5.701050282E0,8.722949982E0
2.146063845E1,6.010500193E-1,5.248050213E0,8.455050468E0
2.148045567E1,1.669500023E-1,5.224050045E0,8.014050484E0
2.150027852E1,-2.290500104E-1,5.401050091E0,7.393950462E0
2.152009606E1,-9.000000544E-3,5.230950356E0,6.894000530E0
2.153991906E1,3.469500244E-1,4.407000065E0,7.212000370E0
2.155973640E1,4.590000212E-1,3.106950045E0,7.356000423E0
2.157955916E1,-1.819500029E-1,2.581950188E0,6.349950314E0
2.159937663E1,-1.314000010E0,2.290050030E0,4.755000114E0
2.161919972E1,-2.581050158E0,1.773000121E0,3.568950176E0
2.163901695E1,-3.024000168E0,1.075950027E0,2.713950157E0
2.165883979E1,-3.253950119E0,2.020500153E-1,2.985000134E0
2.167865721E1,-3.562950134E0,-3.670500219E-1,4.387950420E0
2.169848007E1,-3.381000042E0,-5.539500117E-1,6.223050117E0
2.171829753E1,-2.454000235E0,-6.379500031E-1,9.138000488E0
2.173812036E1,-1.872000098E0,-5.760000348E-1,1.093905067E1
2.175793783E1,-1.999050140E0,-1.194000006E0,1.165995026E1
2.177776067E1,-2.514000177E0,-2.359950066E0,1.207605076E1
2.179757814E1,-3.316950083E0,-3.718050241E0,1.245000076E1
2.181740100E1,-4.291050434E0,-5.167050362E0,1.341795063E1
2.183721844E1,-3.156000137E0,-5.634000301E0,1.421505070E1
2.185704127E1,-1.819950104E0,-5.730000496E0,1.512000084E1
2.187685872E1,-4.570500255E-1,-4.888950348E0,1.608600044E1
2.189668151E1,-1.783950090E0,-4.365000248E0,1.528800106E1
2.191649880E1,-1.930050135E0,-4.138950348E0,1.408800030E1
2.193632178E1,-1.417050123E0,-3.550050259E0,1.419105053E1
2.195613911E1,-1.609050035E0,-3.367950201E0,1.285695076E1
2.197596218E1,-2.956950188E0,-2.668950081E0,8.824049950E0
2.199577967E1,-4.417950153E0,5.205000401E0,1.234050035E0
2.201560250E1,-4.828050137E0,5.008950233E0,2.125050068E0
2.203541995E1,-2.505000114E0,1.588050127E0,7.678950310E0
2.205524272E1,-1.843950033E0,1.248000026E0,7.011000156E0
2.207506000E1,-1.947000146E0,6.499500275E-1,3.555000067E0
2.209488297E1,-5.740500093E-1,3.000000119E-1,2.895000204E-2
2.211470028E1,-3.055950165E0,1.761000037E0,3.222000122E0
2.213452326E1,-7.575000286E0,2.578050137E0,4.891050339E0
2.215434083E1,-8.863050461E0,1.590000093E-1,7.533000469E0
2.217416371E1,-3.927000284E0,-1.828050137E0,6.610950470E0
2.219398094E1,-1.500000060E-1,3.705000132E-2,6.577050209E0
2.221380390E1,4.090500176E-1,1.533000112E0,7.369950294E0
2.223362122E1,8.640000224E-1,2.022000074E0,7.846950531E0
2.225344423E1,2.295000106E-2,1.380000114E0,8.577000618E0
2.227326176E1,-1.132050037E0,4.129500091E-1,8.125050545E0
2.229308453E1,-2.233950138E0,1.560000032E-1,8.268000603E0
2.231290184E1,-2.299050093E0,-4.099500179E-1,8.575050354E0
2.233272484E1,-8.880000710E-1,-1.086000085E0,9.246000290E0
2.235254238E1,5.340000391E-1,-1.438050032E0,9.289050102E0
2.237236515E1,2.284050226E0,-2.209050179E0,8.026050568E0
2.239218250E1,3.340950251E0,-4.326000214E0,7.144950390E0
2.241200551E1,3.451050282E0,-6.961050510E0,6.835950375E0
2.243182282E1,2.823000193E0,-9.907050133E0,7.441950321E0
2.245164584E1,1.135050058E0,-1.159005070E1,6.982050419E0
2.247146334E1,-1.096050024E0,-1.220295048E1,7.176000118E0
2.249128612E1,-2.248050213E0,-1.285005093E1,9.322050095E0
2.251110342E1,-1.956000090E0,-1.314705086E1,1.142700100E1
2.253092642E1,-9.019500613E-1,-1.307295036E1,1.184205055E1
2.255074373E1,6.990000606E-1,-1.198095036E1,1.128405094E1
2.257056673E1,4.620000124E-1,-1.016505051E1,1.011705017E1
2.259038426E1,4.050000105E-3,-9.753000259E0,7.933050156E0
2.261020706E1,5.895000324E-2,-9.169050217E0,6.289950371E0
2.263002437E1,-4.005000368E-2,-8.053050041E0,6.252000332E0
2.264984736E1,-1.012950063E0,-7.111950397E0,7.071000099E0
2.266966468E1,-1.662000060E0,-6.763950348E0,6.979950428E0
2.268948768E1,-1.276050091E0,-6.774000168E0,6.538950443E0
2.270930520E1,-6.250500083E-1,-6.766950130E0,6.508050442E0
2.272912799E1,-3.870000243E-1,-6.666000366E0,6.850050449E0
2.274894552E1,2.170500159E-1,-6.763950348E0,7.156950474E0
2.276876836E1,1.024950027E0,-7.111950397E0,7.804050446E0
2.278858561E1,1.360050082E0,-7.672050476E0,8.447999954E0
2.280840860E1,1.231050014E0,-8.077050209E0,8.989050865E0
2.282822612E1,1.294950008E0,-8.529000282E0,9.127950668E0
2.284804890E1,1.362000108E0,-8.707050323E0,9.040050507E0
2.286786645E1,1.678050041E0,-8.503050804E0,8.860050201E0
2.288768928E1,1.852950096E0,-7.987950325E0,8.563050270E0
2.290750651E1,1.698000073E0,-7.330050468E0,8.115000725E0
2.292732950E1,1.828950047E0,-6.640050411E0,7.123950481E0
2.294714682E1,2.148000002E0,-6.312000275E0,6.175050259E0
2.296696983E1,2.353950024E0,-5.920950413E0,5.830050468E0
2.298678713E1,2.323050022E0,-5.020950317E0,5.442000389E0
2.300661020E1,2.155050039E0,-4.470000267E0,5.109000206E0
2.302642768E1,1.968000054E0,-4.141950130E0,4.714050293E0
2.304625044E1,1.780950069E0,-3.895050287E0,4.141950130E0
2.306606798E1,1.789050102E0,-3.921000242E0,4.021950245E0
2.308589073E1,1.354950070E0,-4.012050152E0,4.317000389E0
2.310570803E1,1.004999995E0,-3.529050112E0,4.276050091E0
2.312553111E1,1.101000071E0,-3.358950138E0,3.991050243E0
2.314534859E1,1.065000057E0,-3.730050087E0,4.489050388E0
2.316517144E1,5.820000172E-1,-3.829950094E0,6.529950142E0
2.318498890E1,5.770500302E-1,-2.616000175E0,7.773000240E0
2.320481169E1,2.386950016E0,-2.319000006E0,5.442000389E0
2.322462924E1,7.005000114E0,-4.117949963E0,2.002950191E0
2.324445208E1,9.510000229E0,-7.612050533E0,4.089000225E0
2.326426953E1,8.310000420E0,-1.166895008E1,9.865950584E0
2.328409228E1,3.949050188E0,-1.279995060E1,1.424205112E1
2.330390983E1,-9.795000404E-2,-1.174605083E1,1.588695049E1
2.332373271E1,-1.585050106E0,-1.088100052E1,1.607895088E1
2.334354994E1,9.910500646E-1,-1.030905056E1,1.474395084E1
2.336337296E1,3.690000057E0,-8.817000389E0,1.205505085E1
2.338319049E1,4.651050091E0,-6.727950096E0,9.319950104E0
2.340301328E1,4.789950371E0,-5.587950230E0,7.248000145E0
2.342283085E1,4.339050293E0,-4.705049992E0,5.899950504E0
2.344265368E1,3.618000269E0,-3.802050114E0,5.530950069E0
2.346247121E1,3.148950100E0,-3.466050148E0,5.821050167E0
2.348229399E1,2.638950109E0,-3.613050222E0,6.208950520E0
2.350211149E1,1.888950109E0,-3.864000082E0,6.043050289E0
2.352193432E1,1.518000126E0,-3.976950169E0,5.545050144E0
2.354175155E1,1.599000096E0,-4.361999989E0,5.322000027E0
2.356157464E1,1.738050103E0,-4.579950333E0,5.301000118E0
2.358139212E1,2.023050070E0,-4.771950245E0,5.646000385E0
2.360121498E1,2.668050051E0,-5.398950100E0,5.931000233E0
2.362103244E1,3.160950184E0,-6.160950184E0,5.754000187E0
2.364085518E1,3.204000235E0,-6.966000557E0,6.213000298E0
2.366067270E1,2.905050039E0,-7.351050377E0,7.308000565E0
2.368049553E1,2.308050156E0,-7.300950527E0,8.173049927E0
2.370031300E1,1.662000060E0,-7.429950237E0,8.628000259E0
2.372013585E1,1.341000080E0,-7.212000370E0,8.428950310E0
2.373995331E1,1.414950013E0,-6.489000320E0,7.765050411E0
2.375977607E1,1.747950077E0,-5.763000488E0,6.814950466E0
2.377959336E1,2.257950068E0,-5.233950138E0,5.779950142E0
2.379941634E1,2.763000250E0,-4.756950378E0,5.002050400E0
2.381923386E1,3.192000151E0,-4.321050167E0,4.614000320E0
2.383905661E1,2.881050110E0,-4.519950390E0,5.884950161E0
2.385887415E1,2.188950062E0,-5.794050217E0,8.818950653E0
2.387869690E1,7.560000420E-1,-7.468050480E0,1.072305012E1
2.389851441E1,-6.559500098E-1,-8.556000710E0,1.159500027E1
2.391833717E1,-5.980500579E-1,-8.071949959E0,1.235700035E1
2.393815448E1,1.621050119E0,-8.700000763E0,1.086900043E1
2.395797749E1,3.621000290E0,-8.668050766E0,1.114200020E1
2.397779480E1,3.529950142E0,-6.946050167E0,1.309905052E1
2.399761780E1,1.956000090E0,-6.193950176E0,1.494105053E1
2.401743512E1,5.650500059E-1,-6.766950130E0,1.639905167E1
2.403725811E1,2.629500031E-1,-6.084000111E0,1.656000137E1
2.405707539E1,4.879500270E-1,-4.779000282E0,1.581705093E1
2.407689840E1,1.116000056E0,-2.587050200E0,1.386300087E1
2.409671572E1,1.609050035E0,-5.805000290E-2,1.221300030E1
2.411653873E1,1.153950095E0,1.038000107E0,1.081395054E1
2.413635604E1,-2.295000106E-2,1.464000106E0,9.139950752E0
2.415617904E1,-2.610000074E-1,2.020050049E0,8.460000038E0
2.417599635E1,2.100000083E-1,2.400000095E0,8.428950310E0
2.419581935E1,8.640000224E-1,2.781000137E0,8.569950104E0
2.421563668E1,7.560000420E-1,2.671050072E0,8.254050255E0
2.423545945E1,-1.360500008E-1,2.239950180E0,7.276950359E0
2.425527693E1,-5.550000072E-1,2.046000004E0,6.898050308E0
2.427509978E1,-3.709500134E-1,2.095950127E0,6.891000271E0
2.429491724E1,1.095000096E-2,2.371950150E0,6.750000477E0
2.431474031E1,3.079500198E-1,2.713950157E0,6.558000088E0
2.433455761E1,2.200500071E-1,3.133050203E0,6.096000195E0
2.435438040E1,1.140000075E-1,3.591000080E0,5.466000080E0
2.437419786E1,2.820000052E-1,4.072050095E0,5.116050243E0
2.439402069E1,5.479500294E-1,4.386000156E0,5.302950382E0
2.441383816E1,7.180500627E-1,4.558050156E0,5.797050476E0
2.443366103E1,6.439500451E-1,4.635000229E0,5.739000320E0
2.445347848E1,3.010500073E-1,4.579950333E0,5.370000362E0
2.447330134E1,-1.950000064E-3,4.447950363E0,5.107050419E0
2.449311856E1,-9.000000358E-2,4.423950195E0,4.891050339E0
2.451294165E1,6.439500451E-1,4.695000172E0,5.461050034E0
2.453275890E1,1.486950040E0,4.882050037E0,6.510000229E0
2.455258189E1,1.180050015E0,4.621050358E0,6.630000114E0
2.457239941E1,4.450500309E-1,4.297049999E0,6.189000130E0
2.459222217E1,1.030500084E-1,3.948000193E0,6.040950298E0
2.461203969E1,-2.100000158E-2,3.840000153E0,5.991000175E0
2.463186245E1,-1.020000055E-1,3.768000126E0,5.926050186E0
2.465167979E1,9.000000544E-3,3.868950129E0,5.730000496E0
2.467150254E1,3.349500299E-1,4.089000225E0,5.739000320E0
2.469132010E1,5.170500278E-1,4.161000252E0,6.256950378E0
2.471114310E1,2.050500065E-1,4.005000114E0,6.823950291E0
2.473096043E1,-4.260000288E-1,3.895050287E0,7.216950417E0
2.475078339E1,-6.679500341E-1,4.269000053E0,7.135050297E0
2.477060070E1,-4.110000134E-1,4.752000332E0,7.308000565E0
2.479042346E1,-2.509500086E-1,5.410950184E0,8.725950241E0
2.481024092E1,-4.900500178E-1,6.333000183E0,1.044300079E1
2.483006375E1,-2.959500253E-1,6.889050484E0,1.142505074E1
2.484988095E1,3.079500198E-1,6.798000336E0,1.213200092E1
2.486970404E1,6.490500569E-1,6.112950325E0,1.303905106E1
2.488952152E1,4.980000257E-1,6.079050064E0,1.309905052E1
2.490934435E1,3.400500119E-1,6.108000278E0,1.132695007E1
2.492916184E1,9.859500527E-1,5.956950188E0,1.013595009E1
2.494898462E1,2.098050117E0,5.547000408E0,1.145895100E1
2.496880191E1,2.833050251E0,4.431000233E0,1.306305027E1
2.498862489E1,2.886000156E0,3.586050272E0,1.359195042E1
2.500844218E1,2.233950138E0,3.181050062E0,1.298400021E1
2.502826518E1,1.330950022E0,2.899050236E0,1.114500046E1
2.504808247E1,9.259500504E-1,3.291000128E0,9.052050591E0
2.506790548E1,1.348050117E0,3.943050146E0,8.179950714E0
2.508772272E1,1.753050089E0,4.419000149E0,8.128950119E0
2.510754555E1,1.777050138E0,4.639950275E0,7.741050243E0
2.512736299E1,1.722000122E0,4.696950436E0,7.327050209E0
2.514718585E1,1.498950124E0,4.647000313E0,7.176000118E0
2.516700334E1,1.209000111E0,4.414950371E0,7.000950336E0
2.518682619E1,1.017000079E0,4.254000187E0,7.039950371E0
2.520664340E1,7.849500179E-1,4.005000114E0,6.982050419E0
2.522646650E1,4.090500176E-1,3.804000139E0,6.958050251E0
2.524628397E1,7.605000585E-2,3.508950233E0,7.030050278E0
2.526610676E1,2.869500220E-1,3.154950142E0,7.507050514E0
2.528592403E1,1.017000079E0,2.965950251E0,8.464950562E0
2.530574702E1,1.990050077E0,2.997000217E0,9.825000763E0
2.532556434E1,2.802000046E0,3.190950155E0,1.112595081E1
2.534538737E1,2.991000175E0,3.421050072E0,1.131705093E1
2.536520470E1,2.956950188E0,3.663000107E0,1.080495071E1
2.538502747E1,2.998050213E0,3.901950121E0,1.005705070E1
2.540484491E1,2.893050194E0,4.261050224E0,9.154950142E0
2.542466778E1,2.835000038E0,4.417050362E0,8.782950401E0
2.544448527E1,2.905050039E0,4.345050335E0,8.890950203E0
2.546430813E1,2.950050116E0,4.168050289E0,9.082950592E0
2.548412558E1,2.833050251E0,4.052999973E0,8.995950699E0
2.550394812E1,2.338950157E0,4.075050354E0,8.446050644E0
2.552376569E1,1.912950039E0,4.093950272E0,7.923000336E0
2.554358869E1,1.911000133E0,4.024050236E0,7.818000317E0
2.556340601E1,1.879950047E0,4.000050068E0,7.906950474E0
2.558322901E1,1.597050071E0,4.105950356E0,7.785000324E0
2.560304634E1,1.174950004E0,4.269000053E0,7.420950413E0
2.562286935E1,9.859500527E-1,4.465050220E0,7.270050526E0
2.564268665E1,1.213950038E0,4.645050049E0,7.552050591E0
2.566250939E1,1.623000026E0,4.666050434E0,7.966950417E0
2.568232683E1,1.858050108E0,4.453050137E0,8.447999954E0
2.570214960E1,2.245950222E0,4.089000225E0,8.872050285E0
2.572196714E1,2.755950212E0,3.778050184E0,9.717000008E0
2.574178990E1,3.130050182E0,3.516000271E0,1.090305042E1
2.576160744E1,3.076950073E0,3.342000246E0,1.125495052E1
2.578143019E1,2.586000204E0,3.279000044E0,1.048395061E1
2.580124748E1,2.233950138E0,3.454050064E0,9.577950478E0
2.582107023E1,2.191050053E0,3.709950209E0,9.013050079E0
2.584088776E1,2.161950111E0,3.849000216E0,8.704050064E0
2.586071051E1,2.041949987E0,3.909000158E0,8.412000656E0
2.588052796E1,1.822050095E0,3.888000250E0,8.236949921E0
2.590035080E1,1.614000082E0,3.799050093E0,8.263950348E0
2.592016827E1,1.551000118E0,3.721950293E0,8.520000458E0
2.593999104E1,1.635000110E0,3.622050285E0,8.926950455E0
2.595980857E1,1.899000049E0,3.451950073E0,9.210000038E0
2.597963134E1,2.131050110E0,3.306000233E0,9.553950310E0
2.599944864E1,2.029950142E0,3.274950266E0,9.589950562E0
2.601927164E1,1.896000147E0,3.286950111E0,9.348000526E0
2.603908896E1,1.875000119E0,3.349050045E0,9.082950592E0
2.605891196E1,1.891950130E0,3.378000259E0,8.756999969E0
2.607872926E1,1.851000071E0,3.409050226E0,8.479050636E0
2.609855203E1,1.755000114E0,3.366000175E0,8.163000107E0
2.611836950E1,1.786050081E0,3.322050095E0,7.969050407E0
2.613819228E1,1.786050081E0,3.325050116E0,7.846950531E0
2.615800980E1,1.681050062E0,3.262950182E0,7.648050308E0
2.617783258E1,1.719000101E0,3.169050217E0,7.512000561E0
2.619764987E1,1.851000071E0,3.105000257E0,7.473000526E0
2.621747285E1,1.906050086E0,3.042000055E0,7.435050488E0
2.623729014E1,1.747950077E0,3.081000090E0,7.273950577E0
2.625711291E1,1.518000126E0,3.088050127E0,6.817050457E0
2.627693038E1,1.558950067E0,3.118950129E0,6.529950142E0
2.629675324E1,1.819950104E0,3.211950064E0,6.721050262E0
2.631657071E1,1.879950047E0,3.277050257E0,6.795000553E0
2.633639355E1,1.860000134E0,3.250950098E0,6.859950542E0
2.635621101E1,2.080950022E0,3.064050198E0,7.243050575E0
2.637603380E1,2.347050190E0,3.052050114E0,7.831950188E0
2.639585112E1,2.578950167E0,3.402000189E0,7.950000286E0
2.641567388E1,3.031950235E0,3.721950293E0,7.834950447E0
2.643549143E1,3.594000101E0,4.249050140E0,8.541000366E0
2.645531419E1,4.978950024E0,4.422000408E0,1.005495071E1
2.647513174E1,7.017000198E0,3.004050255E0,1.194000053E1
2.649495474E1,7.834050179E0,1.672050118E0,1.336005020E1
2.651477198E1,7.426050186E0,9.780000448E-1,1.442400074E1
2.653459475E1,6.415950298E0,1.111950040E0,1.466505051E1
2.655441228E1,5.275950432E0,1.284000039E0,1.395405102E1
2.657423505E1,4.713000298E0,9.870000482E-1,1.303695107E1
2.659405236E1,4.167000294E0,8.080500364E-1,1.207605076E1
2.661387536E1,3.220950127E0,1.023000002E0,1.086000061E1
2.663369266E1,2.284050226E0,1.383000016E0,9.705000877E0
2.665351543E1,1.638000131E0,1.705950022E0,8.680050850E0
2.667333298E1,1.450950027E0,1.930950046E0,8.055000305E0
2.669315573E1,1.425000072E0,2.511000156E0,8.211000443E0
2.671297318E1,1.393050075E0,2.554050207E0,8.170050621E0
2.673279603E1,1.219050050E0,2.467050076E0,7.942950249E0
2.675261347E1,1.030500084E-1,2.323950052E0,8.188950539E0
2.677243631E1,-5.505000427E-2,2.086950064E0,8.635050774E0
2.679225378E1,5.359500051E-1,2.592000008E0,9.186000824E0
2.681207656E1,1.234950066E0,2.475000143E0,9.235950470E0
2.683189377E1,1.747950077E0,2.190000057E0,9.721950531E0
2.685171661E1,2.050050020E0,1.978950143E0,1.087200069E1
2.687153415E1,2.193000078E0,1.687050104E0,1.208100033E1
2.689135692E1,2.172000170E0,1.318050027E0,1.242105103E1
2.691117440E1,1.939050078E0,1.117050052E0,1.197300053E1
2.693099722E1,1.927950144E0,1.002000093E0,1.149195099E1
2.695081445E1,2.133000135E0,8.410500288E-1,1.131000042E1
2.697063745E1,2.362950087E0,6.400500536E-1,1.112100029E1
2.699045475E1,2.635950089E0,5.560500026E-1,1.081695080E1
2.701027753E1,2.883000135E0,5.590500236E-1,1.033005047E1
2.703009506E1,2.850000143E0,4.270500243E-1,8.992050171E0
2.704991786E1,2.590950012E0,6.090000272E-1,6.994050503E0
2.706973540E1,2.725050211E0,9.850500226E-1,5.655000210E0
2.708955817E1,3.136950254E0,1.143000007E0,5.992950439E0
2.710937564E1,3.312000275E0,1.207950115E0,7.179000378E0
2.712919840E1,3.256950140E0,8.359500170E-1,8.335050583E0
2.714901572E1,2.947950125E0,3.790500164E-1,8.800050735E0
2.716883874E1,2.722950220E0,1.279500127E-1,8.866950035E0
2.718865605E1,2.980950117E0,1.560000032E-1,9.526050568E0
2.720847908E1,3.654000282E0,1.780500114E-1,1.040700054E1
2.722829638E1,4.216950417E0,2.230500132E-1,1.052895069E1
2.724811907E1,4.335000038E0,3.330000043E-1,1.013205051E1
2.726793659E1,4.162050247E0,4.819500148E-1,9.739050865E0
2.728775943E1,3.951000214E0,7.620000243E-1,9.451050758E0
2.730757691E1,3.601950169E0,9.040500522E-1,9.315000534E0
2.732739975E1,3.250050068E0,9.709500670E-1,9.286050797E0
2.734721722E1,2.871000051E0,1.132950068E0,9.037050247E0
2.736703975E1,2.494950056E0,1.327050090E0,8.680050850E0
2.738685720E1,2.257950068E0,1.435050011E0,8.692049980E0
2.740668028E1,2.016000032E0,1.447050095E0,8.731050491E0
2.742649749E1,1.731000066E0,1.435050011E0,8.764050484E0
2.744632034E1,1.510950089E0,1.315050006E0,8.982000351E0
2.746613778E1,1.269000053E0,1.332000017E0,9.028050423E0
2.748596061E1,1.165950060E0,1.564950109E0,8.731050491E0
2.750577808E1,1.234950066E0,1.780050039E0,8.449950218E0
2.752560090E1,1.278000116E0,1.782000065E0,8.311050415E0
2.754541814E1,1.369050026E0,1.521000028E0,8.604000092E0
2.756524091E1,1.302000046E0,1.248000026E0,9.207000732E0
2.758505847E1,1.147050023E0,8.389500380E-1,9.616950035E0
2.760488126E1,1.000950098E0,1.950000077E-1,1.003605080E1
2.762469871E1,6.990000606E-1,-3.460500240E-1,1.044300079E1
2.764452155E1,4.980000257E-1,-7.099500299E-1,1.071405029E1
2.766433900E1,8.590500355E-1,-1.183950067E0,1.102995014E1
2.768416152E1,1.305000067E0,-8.269500136E-1,1.073505020E1
2.770397906E1,1.645050049E0,-5.130000114E-1,1.115895081E1
2.772380206E1,1.747950077E0,-7.695000619E-2,1.285500050E1
2.774361938E1,2.221950054E0,8.920500278E-1,1.446900082E1
2.776344238E1,3.568050146E0,2.673000097E0,1.423200035E1
2.778325971E1,3.930000305E0,4.803000450E0,1.232100105E1
2.780308250E1,2.779950142E0,5.770050049E0,1.008405018E1
2.782289994E1,4.071000099E0,4.767000198E0,1.292400074E1
2.784272278E1,7.125000477E0,3.877950191E0,1.716105080E1
2.786254003E1,8.755949974E0,3.423000097E0,1.810500145E1
2.788236302E1,8.041950226E0,2.950950146E0,1.420995045E1
2.790218055E1,5.709000111E0,2.539050102E0,9.873000145E0
2.792200338E1,3.568050146E0,1.794000030E0,7.698000431E0
2.794182060E1,2.646000147E0,1.560000062E0,6.999000549E0
2.796164362E1,3.345000267E0,2.107950211E0,7.111950397E0
2.798146092E1,3.906000137E0,2.805000067E0,6.361950397E0
2.800128369E1,3.918000221E0,3.445050240E0,5.584050179E0
2.802110116E1,3.316950083E0,3.784950256E0,4.872000217E0
2.804092403E1,2.361000061E0,3.961950302E0,4.264050007E0
2.806074148E1,2.080950022E0,4.198950291E0,4.573050022E0
2.808056424E1,2.167050123E0,4.624950409E0,5.310000420E0
2.810038152E1,1.942050099E0,5.016000271E0,5.919000149E0
2.812020461E1,1.446000099E0,5.068050385E0,6.474000454E0
2.814002182E1,9.240000248E-1,4.953000069E0,6.316050529E0
2.815984459E1,4.710000157E-1,4.918050289E0,6.228000164E0
2.817966212E1,1.789500117E-1,5.064000130E0,6.817050457E0
2.819948490E1,-1.549500078E-1,5.227050304E0,7.621950150E0
2.821930240E1,-6.079500318E-1,5.550000191E0,7.557000160E0
2.823912526E1,-8.449500203E-1,5.884950161E0,7.132950306E0
2.825894273E1,-6.150000095E-1,6.187050343E0,7.054050446E0
2.827876548E1,-1.020000055E-1,6.376050472E0,7.252950191E0
2.829858279E1,4.980000257E-1,6.232050419E0,7.615050316E0
2.831840580E1,1.000950098E0,5.871000290E0,8.629950523E0
2.833822311E1,1.045950055E0,5.302950382E0,9.502050400E0
2.835804608E1,3.319500089E-1,4.912950039E0,8.713950157E0
2.837786339E1,-2.700000107E-1,4.840950012E0,7.279050350E0
2.839768618E1,-1.170000061E-1,4.812000275E0,6.918000221E0
2.841750364E1,4.020000100E-1,4.519950390E0,6.991950512E0
2.843732648E1,5.719500184E-1,3.868950129E0,7.059000492E0
2.845714397E1,4.450500309E-1,3.310050249E0,7.066050529E0
2.847696674E1,3.180000186E-1,3.550050259E0,6.762000084E0
2.849678403E1,1.600500047E-1,4.161000252E0,5.662950039E0
2.851660703E1,-2.269500047E-1,4.515000343E0,4.618050098E0
2.853642432E1,-2.650500238E-1,4.767000198E0,4.501049995E0
2.855624731E1,-2.295000106E-2,4.993950367E0,5.457000256E0
2.857606452E1,3.370500207E-1,4.975050449E0,5.995050430E0
2.859588738E1,-1.429500133E-1,5.088000298E0,6.975000381E0
2.861570486E1,-1.041000009E0,4.750050068E0,7.654950142E0
2.863552762E1,-1.266000032E0,4.711950302E0,7.332000256E0
2.865534516E1,-1.414950013E0,5.011050224E0,8.536950111E0
2.867516795E1,-1.786050081E0,5.992950439E0,9.909000397E0
2.869498527E1,-2.514000177E0,6.987000465E0,9.600000381E0
2.871480802E1,-2.275050163E0,7.126050472E0,9.688950539E0
2.873462549E1,-1.020000100E0,6.357000351E0,1.198500061E1
2.875444832E1,-7.560000420E-1,5.242950439E0,1.481895065E1
2.877426577E1,-1.570950031E0,4.944000244E0,1.495005035E1
2.879408863E1,-1.209000111E0,4.707000256E0,1.300095081E1
2.881390610E1,-1.000500023E-1,4.537050247E0,1.233300018E1
2.883372887E1,6.679500341E-1,3.763050079E0,1.267995071E1
2.885354640E1,8.020500541E-1,2.772000074E0,1.322400093E1
2.887336892E1,6.510000229E-1,2.095950127E0,1.297200108E1
2.889318639E1,8.595000207E-2,1.854000092E0,1.105095005E1
2.891300922E1,-3.300000131E-1,2.089050055E0,8.761950493E0
2.893282667E1,-6.100500226E-1,2.584950209E0,7.108950138E0
2.895264951E1,-6.960000396E-1,2.944050074E0,6.313950062E0
2.897246697E1,-5.599500537E-1,3.066000223E0,6.169950485E0
2.899228972E1,-5.140500069E-1,3.283950090E0,6.441000462E0
2.901210704E1,-8.070000410E-1,3.375000238E0,6.843000412E0
2.903193005E1,-9.910500646E-1,3.130950212E0,7.336950302E0
2.905174728E1,-1.089000106E0,3.102000237E0,8.389950752E0
2.907157015E1,-6.529500484E-1,3.184050083E0,9.028050423E0
2.909138760E1,-1.770000011E-1,3.399000168E0,8.568000793E0
2.911121036E1,1.650000066E-1,3.387000084E0,8.196000099E0
2.913102764E1,1.720500141E-1,3.100050211E0,8.734950066E0
2.915085066E1,1.939500123E-1,2.724000216E0,9.407999992E0
2.917066796E1,2.490000129E-1,2.374050140E0,9.030000687E0
2.919049075E1,5.910000205E-1,2.524950027E0,8.719050407E0
2.921030828E1,1.125000000E0,2.122950077E0,8.653950691E0
2.923013107E1,1.099050045E0,2.628000021E0,8.926950455E0
2.924994854E1,1.329000115E0,3.093000174E0,8.697000504E0
2.926977139E1,1.642050028E0,2.701950073E0,7.303050518E0
2.928958862E1,1.954050064E0,2.254050016E0,6.505950451E0
2.930941140E1,2.550000191E0,1.399050117E0,6.807000160E0
2.932922892E1,2.500050068E0,1.311000109E0,9.013050079E0
2.934905167E1,2.761050224E0,1.512000084E0,1.123095036E1
2.936886913E1,2.224050045E0,6.930000186E-1,1.270395088E1
2.938869196E1,2.007000208E0,7.005000114E-2,1.072305012E1
2.940850941E1,2.553000212E0,-8.205000311E-2,7.744050503E0
2.942833219E1,2.632050037E0,-2.310000062E-1,7.083000183E0
2.944814945E1,3.781050205E0,-4.990500212E-1,8.161050797E0
2.946797253E1,4.567049980E0,-2.910000086E-1,9.940050125E0
2.948778976E1,4.369950294E0,-9.420000315E-1,1.160700035E1
2.950761259E1,3.211050034E0,-2.737950087E0,1.171200085E1
2.952743006E1,1.398000121E0,-3.438000202E0,1.175100040E1
2.954725282E1,1.434000015E0,-4.069950104E0,1.135995007E1
2.956707034E1,2.185950041E0,-4.333050251E0,1.115205097E1
2.958689290E1,3.429000139E0,-3.756000280E0,1.100295067E1
2.960671036E1,4.750950336E0,-3.406950235E0,1.055100060E1
2.962653321E1,6.981000423E0,-3.526050091E0,6.285000324E0
2.964635067E1,6.924000263E0,-1.984050035E0,7.176000118E0
2.966617353E1,4.927950382E0,-1.312950015E0,9.925950050E0
2.968599099E1,3.883950233E0,-1.251000047E0,8.652000427E0
2.970581379E1,3.697050095E0,-1.305000018E-2,8.833950043E0
2.972563112E1,3.544050217E0,2.505000122E-2,8.961000443E0
2.974545388E1,3.357000113E0,-6.120000482E-1,8.716050148E0
2.976527139E1,3.175050259E0,-6.709500551E-1,8.617950439E0
2.978509407E1,2.644050121E0,-5.250000358E-1,8.308950424E0
2.980491162E1,2.458950043E0,-4.969500303E-1,8.389950752E0
2.982473449E1,2.686950207E0,-3.405000269E-2,8.593950272E0
2.984455173E1,2.239050150E0,-1.560000032E-1,9.091950417E0
2.986437449E1,1.015050054E0,-1.476000071E0,1.153305054E1
2.988419197E1,4.710000157E-1,-3.136050224E0,1.313700104E1
2.990401481E1,-1.170000061E-1,-3.711000204E0,1.057995033E1
2.992383230E1,-1.077000022E0,-1.119000077E0,5.859000206E0
2.994365514E1,-1.669050097E0,2.697000027E0,6.192000389E0
2.996347261E1,6.150000095E-1,2.463000059E0,1.112100029E1
2.998329538E1,3.882000208E0,1.351050019E0,1.384605026E1
3.000311269E1,2.956950188E0,3.378000259E0,1.649805069E1
3.002293543E1,1.867950082E0,3.255000114E0,1.586100101E1
3.004275290E1,2.020950079E0,1.384950042E0,1.532400036E1
3.006257568E1,1.293000102E0,-9.405000508E-2,1.512300110E1
3.008239300E1,1.393050075E0,-1.261050105E0,1.509405041E1
3.010221602E1,1.717050076E0,-1.546050072E0,1.462500095E1
3.012203334E1,1.434000015E0,-1.227000117E0,1.323300076E1
3.014185609E1,1.441050053E0,-9.060000181E-1,1.086900043E1
3.016167356E1,1.638000131E0,-1.609500051E-1,8.236949921E0
3.018149641E1,1.594950080E0,6.040500402E-1,6.177000523E0
3.020131386E1,1.290000081E0,1.087950110E0,5.416050434E0
3.022113664E1,1.065000057E0,1.524000049E0,5.506950378E0
3.024095391E1,8.160000443E-1,2.074949980E0,5.464050293E0
3.026077668E1,5.500500202E-1,2.596950054E0,5.607000351E0
3.028059414E1,6.130500436E-1,3.001950026E0,6.193950176E0
3.030041700E1,7.159500122E-1,2.929950237E0,6.870000362E0
3.032023423E1,7.870500088E-1,2.455050230E0,7.156950474E0
3.034005721E1,8.950500488E-1,2.086950064E0,7.540050507E0
3.035987452E1,6.250500083E-1,1.953000069E0,8.592000008E0
3.037969727E1,5.719500184E-1,2.034000158E0,9.856050491E0
3.039951475E1,7.710000277E-1,2.187000036E0,1.070595074E1
3.041933759E1,7.540500164E-1,2.163000107E0,1.045305061E1
3.043915479E1,1.939500123E-1,1.924050093E0,9.576000214E0
3.045897779E1,2.959500253E-1,1.572000027E0,9.292950630E0
3.047879508E1,2.410500050E-1,1.497000098E0,8.719050407E0
3.049861786E1,-1.905000024E-2,1.938000083E0,7.576050282E0
3.051843533E1,1.650000066E-1,2.545950174E0,7.186050415E0
3.053825815E1,1.840500087E-1,2.808000088E0,8.212950706E0
3.055807561E1,1.170000061E-1,3.025050163E0,8.731050491E0
3.057789838E1,1.980000138E-1,3.229050159E0,8.422050476E0
3.059771560E1,3.280500174E-1,3.322050095E0,8.292000771E0
3.061753845E1,1.480500102E-1,3.390000105E0,8.884050369E0
3.063735590E1,-5.770500302E-1,3.580950260E0,9.454050064E0
3.065717876E1,-1.246950030E0,4.125000000E0,9.339000702E0
3.067699622E1,-1.645050049E0,5.155050278E0,9.123000145E0
3.069681907E1,-1.966050148E0,5.626050472E0,9.253050804E0
3.071663652E1,-2.308050156E0,5.679000378E0,9.490050316E0
3.073645903E1,-2.811000109E0,5.887950420E0,8.716050148E0
3.075627652E1,-2.233950138E0,5.932950497E0,6.795000553E0
3.077609929E1,-8.620500565E-1,6.022050381E0,7.888050556E0
3.079591660E1,4.110000134E-1,5.410950184E0,1.115400028E1
3.081573960E1,1.228050113E0,4.288050175E0,1.344195080E1
3.083555689E1,1.189950109E0,3.145050049E0,1.384605026E1
3.085537968E1,6.820500493E-1,2.605950117E0,1.354005051E1
3.087519716E1,-1.395000052E-2,2.355000019E0,1.233300018E1
3.089501995E1,-4.950000346E-1,2.364000082E0,1.127895069E1
3.091483726E1,-5.580000281E-1,2.392950058E0,1.038105011E1
3.093466026E1,-4.980000257E-1,2.548950195E0,9.423000336E0
3.095447759E1,-5.410500169E-1,3.021000147E0,8.319000244E0
3.097430038E1,-8.430000544E-1,3.337050200E0,7.573950291E0
3.099411784E1,-1.377000093E0,3.519000053E0,7.684050560E0
3.101394069E1,-1.474950075E0,3.564000130E0,7.777050495E0
3.103375792E1,-1.150950074E0,3.592950106E0,7.591050148E0
3.105358092E1,-1.084050059E0,3.751050234E0,7.384950161E0
3.107339816E1,-7.830000520E-1,3.768000126E0,6.967950344E0
3.109322100E1,-2.890500128E-1,3.880950212E0,6.460050106E0
3.111303847E1,-4.500000179E-2,4.321050167E0,6.307050228E0
3.113286129E1,4.005000368E-2,4.639950275E0,6.759000301E0
3.115267875E1,5.895000324E-2,4.465050220E0,7.497000217E0
3.117250128E1,-1.789500117E-1,4.033950329E0,7.866000175E0
3.119231871E1,-6.340500116E-1,3.804000139E0,7.650000572E0
3.121214157E1,-8.860500455E-1,3.861000299E0,7.248000145E0
3.123195904E1,-8.950500488E-1,4.072050095E0,6.967950344E0
3.125178187E1,-7.540500164E-1,4.054950237E0,7.143000126E0
3.127159907E1,-6.199500561E-1,3.916050196E0,7.654950142E0
3.129142183E1,-6.990000606E-1,4.114950180E0,8.038050652E0
3.131123930E1,-8.160000443E-1,4.539000034E0,8.079000473E0
3.133106209E1,-6.559500098E-1,4.879050255E0,8.055000305E0
3.135087954E1,-2.890500128E-1,4.897950172E0,8.095950127E0
3.137070232E1,-1.819500029E-1,4.780950069E0,8.401950836E0
3.139051962E1,-5.340000391E-1,4.872000217E0,8.613000870E0
3.141034240E1,-9.169500470E-1,5.218950272E0,8.232000351E0
3.143015991E1,-8.310000300E-1,5.641050339E0,8.254050255E0
3.144998269E1,-3.970500231E-1,6.060000420E0,9.295950890E0
3.146979992E1,2.269500047E-1,6.285000324E0,1.062300014E1
3.148962292E1,7.489500642E-1,6.084000111E0,1.179900074E1
3.150944022E1,5.890500546E-1,5.464050293E0,1.226295090E1
3.152926319E1,-9.000000544E-3,5.113950253E0,1.170495033E1
3.154908049E1,-1.770000011E-1,5.209950447E0,1.004100037E1
3.156890326E1,6.990000606E-1,5.133000374E0,8.926950455E0
3.158872052E1,2.071050167E0,4.659000397E0,1.041405010E1
3.160854329E1,3.139050245E0,4.117949963E0,1.273995018E1
3.162836075E1,3.204000235E0,3.607050180E0,1.346595097E1
3.164818356E1,2.646000147E0,3.034950256E0,1.248405075E1
3.166800112E1,1.852950096E0,2.953950167E0,1.060800076E1
3.168782395E1,1.441050053E0,3.241050243E0,9.696000099E0
3.170764118E1,1.518000126E0,3.294000149E0,9.531000137E0
3.172746417E1,1.525050044E0,3.342000246E0,9.334050179E0
3.174728149E1,1.441050053E0,3.651000261E0,9.030000687E0
3.176710427E1,1.480050087E0,4.198950291E0,8.503050804E0
3.178692176E1,1.651950121E0,4.651950359E0,7.969050407E0
3.180674463E1,1.675950050E0,4.603950024E0,7.615050316E0
3.182656211E1,1.606950045E0,4.005000114E0,7.950000286E0
3.184638489E1,1.819950104E0,3.430050135E0,7.990950584E0
3.186620219E1,1.471950054E0,3.523950100E0,7.966950417E0
3.188602498E1,8.670000434E-1,4.027050018E0,7.828050137E0
3.190584243E1,3.589500189E-1,4.185000420E0,8.137050629E0
3.192566529E1,-1.020000055E-1,4.294950008E0,8.398050308E0
3.194548276E1,-7.129500508E-1,4.647000313E0,8.125050545E0
3.196530552E1,-1.480050087E0,4.969950199E0,7.686000347E0
3.198512283E1,-2.169000149E0,5.121000290E0,7.465950489E0
3.200494560E1,-2.155050039E0,5.092050076E0,7.653000355E0
3.202476283E1,-1.630050063E0,5.125950336E0,8.140950203E0
3.204458583E1,-6.870000362E-1,5.107050419E0,8.023950577E0
3.206440314E1,3.970500231E-1,4.846050262E0,7.780050278E0
3.208422590E1,5.020500422E-1,4.522050381E0,8.340000153E0
3.210404342E1,2.629500031E-1,4.098000050E0,8.596050262E0
3.212386617E1,3.280500174E-1,4.036050320E0,7.978950500E0
3.214368365E1,4.450500309E-1,4.114950180E0,7.689000130E0
3.216350650E1,4.639500082E-1,4.137000084E0,7.693950176E0
3.218332373E1,2.749500275E-1,4.282950401E0,7.761000156E0
3.220314673E1,2.050500065E-1,4.210950375E0,7.191000462E0
3.222296396E1,-4.069500268E-1,4.390950203E0,6.501000404E0
3.224278682E1,-1.534950018E0,4.804950237E0,5.821050167E0
3.226260427E1,-2.446950197E0,4.816950321E0,5.272050381E0
3.228242713E1,-1.779000044E0,4.417050362E0,5.337000370E0
3.230224459E1,-7.990500331E-1,3.775050163E0,6.208950520E0
3.232206713E1,-5.580000281E-1,3.415950060E0,7.705950260E0
3.234188458E1,-1.135050058E0,3.391950130E0,8.793000221E0
3.236170743E1,-2.161950111E0,3.982950211E0,8.974950790E0
3.238152490E1,-3.994050264E0,5.464050293E0,8.685000420E0
3.240134768E1,-5.628000259E0,6.091050148E0,8.400000572E0
3.242116498E1,-5.041050434E0,4.848000050E0,8.889000893E0
3.244098777E1,-1.789050102E0,3.097050190E0,9.873000145E0
3.246080529E1,-6.130500436E-1,2.604000092E0,1.226595020E1
3.248062804E1,-1.623000026E0,3.370050192E0,1.410000038E1
3.250044551E1,-1.882050037E0,3.925950289E0,1.387695026E1
3.252026828E1,-4.620000124E-1,4.120050430E0,1.308000088E1
3.254008560E1,8.040000200E-1,3.973950148E0,1.284300041E1
3.255990858E1,1.036949992E0,3.366000175E0,1.310100079E1
3.257972590E1,5.020500422E-1,2.779050112E0,1.334100056E1
3.259954866E1,-3.199500144E-1,2.371950150E0,1.272105026E1
3.261936589E1,-9.379500151E-1,2.179949999E0,1.142505074E1
3.263918890E1,-1.168050051E0,2.142000198E0,1.012695026E1
3.265900624E1,-1.426950097E0,2.254050016E0,9.255000114E0
3.267882900E1,-1.723950028E0,2.536950111E0,8.671050072E0
3.269864644E1,-1.894050121E0,2.788050175E0,8.077050209E0
3.271846930E1,-2.229000092E0,3.018000126E0,7.720050335E0
3.273828653E1,-2.557050228E0,3.193050146E0,7.621950150E0
3.275810928E1,-2.452050209E0,3.238950253E0,7.773000240E0
3.277792675E1,-2.071050167E0,3.427950144E0,8.143950462E0
3.279774959E1,-1.864950061E0,3.487950087E0,8.635050774E0
3.281756706E1,-1.848000050E0,3.523950100E0,8.962950706E0
3.283738983E1,-1.828950047E0,3.588000059E0,8.877000809E0
3.285720711E1,-1.834050059E0,3.853950262E0,8.848050117E0
3.287703010E1,-1.858050108E0,4.170000076E0,8.641950607E0
3.289684738E1,-1.834050059E0,4.291950226E0,8.400000572E0
3.291667016E1,-1.573050022E0,4.324050426E0,8.584050179E0
3.293648762E1,-1.243050098E0,4.318950176E0,9.030000687E0
3.295631040E1,-1.144050002E0,4.423950195E0,9.337050438E0
3.297612769E1,-1.093950033E0,4.477050304E0,9.280950546E0
3.299595046E1,-9.019500613E-1,4.383000374E0,9.106950760E0
3.301576801E1,-6.079500318E-1,4.066950321E0,8.673000336E0
3.303559069E1,-4.350000322E-1,3.757950068E0,8.014050484E0
3.305540800E1,-6.679500341E-1,3.808950186E0,7.813050270E0
3.307523100E1,-6.700500250E-1,3.925950289E0,8.677950859E0
3.309504830E1,-3.610500097E-1,3.921000242E0,9.937950134E0
3.311487107E1,5.505000427E-2,3.835050106E0,1.035705090E1
3.313468854E1,4.330500066E-1,3.727050066E0,9.784050941E0
3.315451132E1,3.850500286E-1,3.813000202E0,8.620050430E0
3.317432887E1,3.010500073E-1,4.012050152E0,7.806000233E0
3.319415166E1,4.110000134E-1,4.089000225E0,7.722000599E0
3.321396892E1,4.159500301E-1,4.048050404E0,8.220000267E0
3.323379168E1,2.850000262E-1,3.880950212E0,8.644050598E0
3.325360922E1,1.549500078E-1,3.571950197E0,8.563050270E0
3.327343198E1,1.120500043E-1,3.430050135E0,8.347050667E0
3.329324927E1,3.795000166E-2,3.439950228E0,8.116950035E0
3.331307227E1,3.495000303E-2,3.454050064E0,7.840050220E0
3.333288952E1,1.939500123E-1,3.382050276E0,7.585950375E0
3.335271229E1,1.549500078E-1,3.303000212E0,7.336950302E0
3.337252961E1,-4.230000079E-1,3.532950163E0,7.042050362E0
3.339235239E1,-7.300500274E-1,4.024050236E0,6.810000420E0
3.341216984E1,-3.679500222E-1,4.479000092E0,6.712050438E0
3.343199269E1,3.060000241E-1,4.804950237E0,6.762000084E0
3.345181016E1,8.160000443E-1,4.768950462E0,7.035000324E0
3.347163268E1,6.630000472E-1,4.387950420E0,7.702950478E0
3.349145013E1,2.610000074E-1,3.675000191E0,8.311050415E0
3.351127299E1,1.069500074E-1,3.112050056E0,8.710950851E0
3.353109044E1,-1.579500139E-1,3.109050035E0,8.980050087E0
3.355091328E1,-9.499500394E-1,3.873000145E0,8.640000343E0
3.357073051E1,-1.615950108E0,5.020950317E0,8.050050735E0
3.359055351E1,-1.513050079E0,6.235050201E0,8.611050606E0
3.361037082E1,-1.024950027E0,7.027950287E0,9.985950470E0
3.363019351E1,-3.229500055E-1,6.738000393E0,1.080705070E1
3.365001082E1,-3.060000241E-1,6.204000473E0,1.094805050E1
3.366983359E1,-8.899500370E-1,6.261000156E0,1.027800083E1
3.368965112E1,-3.109500110E-1,6.474000454E0,9.325050354E0
3.370947390E1,1.281000018E0,6.109950066E0,9.601950645E0
3.372929137E1,1.882050037E0,5.410950184E0,1.128600025E1
3.374911421E1,1.602000117E0,4.618050098E0,1.279500103E1
3.376893143E1,1.234950066E0,3.964050293E0,1.318995094E1
3.378875419E1,9.529500604E-1,3.742050171E0,1.231095028E1
3.380857166E1,8.280000687E-1,3.925950289E0,1.083600044E1
3.382839442E1,9.139500260E-1,4.000050068E0,9.655050278E0
3.384821172E1,9.409500360E-1,4.213050365E0,9.109050751E0
3.386803473E1,7.440000176E-1,4.443000317E0,8.449950218E0
3.388785206E1,5.220000148E-1,4.627950191E0,7.969050407E0
3.390767482E1,5.239500403E-1,4.791000366E0,7.888050556E0
3.392749228E1,7.180500627E-1,4.852950096E0,8.151000023E0
3.394731482E1,9.720000625E-1,4.720950127E0,8.413949966E0
3.396713226E1,9.690000415E-1,4.378950119E0,8.488950729E0
3.398695512E1,7.489500642E-1,4.096050262E0,8.437950134E0
3.400677256E1,5.959500074E-1,3.988050222E0,8.517000198E0
3.402659531E1,7.680000067E-1,3.895050287E0,8.860050201E0
3.404641262E1,1.041000009E0,3.799050093E0,9.097050667E0
3.406623538E1,8.520000577E-1,3.796950102E0,9.013050079E0
3.408605285E1,4.860000312E-1,4.078950405E0,8.778000832E0
3.410587564E1,3.730500042E-1,4.441050053E0,8.581950188E0
3.412569294E1,4.740000367E-1,4.612950325E0,8.356950760E0
3.414551594E1,7.920000553E-1,4.744950294E0,8.302050591E0
3.416533325E1,9.979500771E-1,4.876950264E0,8.520000458E0
3.418515593E1,8.899500370E-1,4.930050373E0,8.910000801E0
3.420497322E1,6.510000229E-1,4.972950459E0,8.917050362E0
3.422479601E1,3.540000021E-1,4.981950283E0,8.508000374E0
3.424461349E1,2.290500104E-1,4.972950459E0,8.019000053E0
3.426443634E1,4.549500346E-1,4.989000320E0,7.969050407E0
3.428425382E1,7.399500608E-1,4.827000141E0,8.467050552E0
3.430407658E1,6.610500216E-1,4.588950157E0,8.995950699E0
3.432389391E1,3.199500144E-1,4.366950035E0,8.563050270E0
3.434371669E1,1.890000105E-1,4.222949982E0,7.294050217E0
3.436353414E1,4.159500301E-1,4.290000439E0,6.088950157E0
3.438335670E1,5.220000148E-1,4.873950005E0,6.115050316E0
3.440317423E1,2.290500104E-1,5.539950371E0,6.958050251E0
3.442299698E1,-7.395000011E-2,5.614950180E0,7.861050606E0
3.444281443E1,-1.069500074E-1,5.073000431E0,8.398050308E0
3.446263729E1,-1.459500045E-1,4.587000370E0,8.580000877E0
3.448245475E1,-1.930500120E-1,4.470000267E0,8.713950157E0
3.450227728E1,-1.459500045E-1,4.429050446E0,8.995950699E0
3.452209472E1,-1.410000026E-1,4.348050117E0,9.223950386E0
3.454191757E1,-1.840500087E-1,4.242000103E0,9.222000122E0
3.456173479E1,-1.740000099E-1,4.221000195E0,8.884050369E0
3.458155779E1,-8.295000345E-2,4.302000046E0,8.398050308E0
3.460137508E1,-1.050000042E-1,4.351950169E0,8.343000412E0
3.462119786E1,-2.250000089E-1,4.314000130E0,8.520000458E0
3.464101533E1,-2.170500159E-1,4.077000141E0,8.485950470E0
3.466083813E1,-1.620000005E-1,3.703050137E0,8.236949921E0
3.468065536E1,-3.349500299E-1,3.409050226E0,8.043000221E0
3.470047818E1,-5.620500445E-1,3.366000175E0,8.137050629E0
3.472029563E1,-5.410500169E-1,3.445050240E0,8.290050507E0
3.474011849E1,-2.149500102E-1,3.415950060E0,8.398050308E0
3.475993572E1,1.395000052E-2,3.319950104E0,8.629950523E0
3.477975850E1,-6.195000187E-2,3.231000185E0,8.922000885E0
3.479957598E1,-3.660000265E-1,3.175950050E0,9.042000771E0
3.481939849E1,-7.129500508E-1,3.259950161E0,8.776050568E0
3.483921604E1,-1.008000016E0,3.574050188E0,8.275950432E0
3.485903880E1,-9.340500236E-1,3.943050146E0,7.974000454E0
3.487885625E1,-6.169500351E-1,3.853950262E0,8.320950508E0
3.489867902E1,-8.740500212E-1,2.980050087E0,9.370050430E0
3.491849632E1,-1.551000118E0,2.167950153E0,8.956050873E0
3.493831910E1,-1.516050100E0,2.641950130E0,8.740050316E0
3.495813654E1,-1.882050037E0,3.487950087E0,9.640950203E0
3.497795928E1,-2.851950169E0,4.006950378E0,1.000695038E1
3.499777658E1,-2.220000029E0,4.240050316E0,1.095105076E1
3.501759935E1,-1.519950032E0,4.165950298E0,1.158105087E1
3.503741683E1,-1.558950067E0,4.639950275E0,1.171005058E1
3.505723966E1,-1.426950097E0,4.945950031E0,1.116405010E1
3.507705714E1,-5.809500217E-1,4.085999966E0,1.075905037E1
3.509687965E1,7.050000131E-3,2.542050123E0,1.236600018E1
3.511669709E1,-1.309500039E-1,1.675050020E0,1.280205059E1
3.513651997E1,-1.254000068E0,1.426050067E0,1.217895031E1
3.515633721E1,-1.836000085E0,1.792050123E0,1.093395042E1
3.517616022E1,-1.767000079E0,2.410050154E0,9.847050667E0
3.519597752E1,-1.566000104E0,2.913000107E0,9.150000572E0
3.521580031E1,-1.338000059E0,3.193050146E0,8.659049988E0
3.523561777E1,-1.357050061E0,3.412950277E0,8.200950623E0
3.525544052E1,-1.585050106E0,3.672000170E0,7.975950241E0
3.527525782E1,-1.743000031E0,3.721950293E0,8.497950554E0
3.529508059E1,-1.627950072E0,3.675000191E0,9.519000053E0
3.531489805E1,-1.429050088E0,3.772950172E0,1.024200058E1
3.533472081E1,-1.290000081E0,4.003050327E0,1.009095001E1
3.535453835E1,-1.213950038E0,4.273050308E0,9.151950836E0
3.537436114E1,-1.180050015E0,4.525050163E0,8.224950790E0
3.539417836E1,-1.099050045E0,4.554000378E0,7.641000271E0
3.541400116E1,-1.092000008E0,4.321050167E0,7.453950405E0
3.543381848E1,-1.099050045E0,3.957000256E0,7.786950588E0
3.545364126E1,-1.123050094E0,3.700950146E0,8.271000862E0
3.547345879E1,-1.225950003E0,3.679050207E0,8.509950638E0
3.549328150E1,-8.950500488E-1,3.876000166E0,8.548950195E0
3.551309873E1,-5.929500461E-1,4.039050102E0,8.802000046E0
3.553292172E1,-1.384050012E0,4.041000366E0,8.905050278E0
3.555273903E1,-1.197000027E0,4.210950375E0,8.725950241E0
3.557256181E1,-7.630500197E-1,4.249050140E0,8.661000252E0
3.559237929E1,-7.609500289E-1,4.411950111E0,8.977050781E0
3.561220215E1,-8.740500212E-1,4.501049995E0,9.286050797E0
3.563201937E1,-8.089500666E-1,4.471950054E0,9.277050018E0
3.565184216E1,-9.070500135E-1,4.455000401E0,8.994000435E0
3.567165969E1,-1.266000032E0,4.470000267E0,8.620050430E0
3.569148237E1,-1.372050047E0,4.423950195E0,8.268000603E0
3.571129969E1,-1.210950017E0,4.318950176E0,7.785000324E0
3.573112268E1,-1.177950025E0,4.276050091E0,7.461000443E0
3.575093991E1,-1.333950043E0,4.381050110E0,7.660050392E0
3.577076274E1,-1.281000018E0,4.302000046E0,8.082000732E0
3.579058020E1,-1.003050089E0,4.122000217E0,8.455050468E0
3.581040278E1,-7.300500274E-1,4.009950161E0,8.769000053E0
3.583022026E1,-5.340000391E-1,3.994950294E0,9.043950081E0
3.585004311E1,-3.229500055E-1,4.029000282E0,9.154950142E0
3.586986057E1,-2.080500126E-1,4.137000084E0,9.090000153E0
3.588968331E1,-1.240500063E-1,4.206000328E0,8.910000801E0
3.590950085E1,-6.705000252E-2,4.218000412E0,8.653950691E0
3.592932340E1,-1.905000024E-2,4.197000027E0,8.215950012E0
3.594914089E1,1.170000061E-1,4.246950150E0,7.933050156E0
3.596896364E1,1.890000105E-1,4.309050083E0,7.866000175E0
3.598878117E1,1.650000066E-1,4.371000290E0,7.867950439E0
3.600860396E1,1.500000060E-1,4.438950062E0,7.786950588E0
3.602842124E1,1.980000138E-1,4.402950287E0,7.497000217E0
3.604824401E1,1.000500023E-1,4.315950394E0,7.126050472E0
3.606806154E1,6.195000187E-2,4.141950130E0,6.829050541E0
3.608788431E1,5.205000192E-2,3.969000101E0,6.679950237E0
3.610770155E1,-5.505000427E-2,3.904050112E0,6.676050186E0
3.612752455E1,-1.189500093E-1,3.616950274E0,6.625050545E0
3.614734176E1,3.250500262E-1,3.226950169E0,6.319050312E0
3.616716463E1,1.678050041E0,3.439950228E0,6.805050373E0
3.618698209E1,2.862000227E0,4.225049973E0,8.599050522E0
3.620680497E1,2.698950052E0,4.447950363E0,1.100100040E1
3.622662244E1,3.319500089E-1,4.849950314E0,1.399695110E1
3.624644497E1,-2.149950027E0,6.145950317E0,1.395405102E1
3.626626242E1,-1.951050043E0,7.614000320E0,1.373895073E1
3.628608527E1,2.100000158E-2,8.460000038E0,1.322400093E1
3.630590251E1,2.212949991E0,7.357950211E0,1.428000069E1
3.632572551E1,2.545050144E0,5.146950245E0,1.727099991E1
3.634554283E1,7.060500383E-1,4.297049999E0,1.579095078E1
3.636536560E1,-3.660000265E-1,3.895050287E0,1.205700016E1
3.638518306E1,-5.410500169E-1,3.286950111E0,9.613950729E0
3.640500594E1,-3.280500174E-1,3.567000151E0,8.440950394E0
3.642482339E1,-2.805000171E-2,4.273050308E0,7.927950382E0
3.644464618E1,5.479500294E-1,4.645050049E0,7.914000511E0
3.646446349E1,2.989500165E-1,5.158950329E0,7.449000359E0
3.648428625E1,2.295000106E-2,4.999050140E0,6.838950157E0
3.650410379E1,3.829500079E-1,4.522050381E0,6.697050095E0
3.652392655E1,3.469500244E-1,4.399950027E0,6.529950142E0
3.654374378E1,-8.595000207E-2,4.491000175E0,6.355050087E0
3.656356676E1,-4.860000312E-1,4.495950222E0,6.525000095E0
3.658338406E1,-7.950000167E-1,4.434000015E0,6.667950153E0
3.660320706E1,-9.480000734E-1,4.462950230E0,6.951000214E0
3.662302435E1,-9.409500360E-1,4.218000412E0,8.029050827E0
3.664284711E1,-7.009500265E-1,3.663000107E0,9.432000160E0
3.666266456E1,-4.450500309E-1,3.277050257E0,1.043295002E1
3.668248732E1,-6.750000119E-1,3.421050072E0,1.069395065E1
3.670230457E1,-1.516050100E0,4.041000366E0,9.315000534E0
3.672212740E1,-1.995000124E0,4.812000275E0,7.672050476E0
3.674194487E1,-1.482000113E0,5.382000446E0,7.782000542E0
3.676176770E1,-5.140500069E-1,4.891050339E0,1.038300037E1
3.678158520E1,-5.310000181E-1,3.892050266E0,1.197105026E1
3.680140796E1,-1.185000062E0,3.579000235E0,1.045005035E1
3.682122526E1,-1.150950074E0,4.501049995E0,8.424000740E0
3.684104805E1,-1.053000093E0,5.727000237E0,7.092000484E0
3.686086557E1,-1.495950103E0,6.199050426E0,6.630000114E0
3.688068834E1,-1.597050071E0,5.902050495E0,7.512000561E0
3.690050582E1,-2.101950169E0,5.346000195E0,7.918950558E0
3.692032860E1,-2.725050211E0,4.867050171E0,7.878000259E0
3.694014615E1,-3.511050224E0,4.936950207E0,7.183050156E0
3.695996871E1,-3.264000177E0,4.989000320E0,6.454950333E0
3.697978619E1,-3.786000252E0,5.401050091E0,6.199050426E0
3.699960904E1,-4.123950005E0,6.160950184E0,6.142050266E0
3.701942650E1,-3.613950253E0,6.229950428E0,5.824950218E0
3.703924927E1,-3.966000080E0,5.662050247E0,6.313950062E0
3.705906658E1,-3.766950130E0,5.334000111E0,6.738000393E0
3.707888958E1,-4.018050194E0,5.136000156E0,6.721050262E0
3.709870688E1,-3.982050180E0,5.113950253E0,8.452950478E0
3.711852966E1,-3.283050060E0,6.493050098E0,7.786950588E0
3.713834713E1,-2.416050196E0,7.825050354E0,6.465000153E0
3.715816989E1,-2.152950048E0,7.303050518E0,6.562950134E0
3.719096633E1,-4.641000271E0,6.751950264E0,2.508000135E0
3.721078912E1,-4.321950436E0,7.344000340E0,4.872000217E0
3.723060359E1,-2.440050125E0,7.293000221E0,7.846950531E0
3.725042667E1,-1.516050100E0,6.834000111E0,9.123000145E0
3.727024391E1,-2.180999994E0,6.004950523E0,9.001049995E0
3.729006669E1,-3.361950159E0,5.356050491E0,7.377000332E0
3.730988402E1,-4.324950218E0,5.626050472E0,5.638950348E0
3.732970680E1,-3.775950193E0,6.538950443E0,5.976000309E0
3.734952423E1,-2.694000244E0,6.903000355E0,7.054050446E0
3.736934700E1,-2.572050095E0,6.987000465E0,7.381950378E0
3.738916430E1,-2.634000063E0,6.916950226E0,7.159050465E0
3.740898709E1,-2.691000223E0,6.514950275E0,6.871950150E0
3.742880432E1,-2.803950071E0,6.108000278E0,6.697050095E0
3.744862730E1,-2.461950064E0,5.979000092E0,6.562950134E0
3.746844460E1,-1.935000062E0,6.105000496E0,6.673050404E0
3.748826734E1,-1.273950100E0,6.229950428E0,6.927000523E0
3.750808478E1,-4.950000346E-1,6.034050465E0,7.392000198E0
3.752790732E1,1.500000060E-1,5.557050228E0,7.705950260E0
3.754772478E1,1.309500039E-1,4.873950005E0,7.983000278E0
3.756754761E1,-2.730000019E-1,4.483950138E0,8.224950790E0
3.758736484E1,-5.530500412E-1,4.483950138E0,8.908050537E0
3.760718762E1,-6.250500083E-1,4.288050175E0,8.496000290E0
3.762700508E1,-3.709500134E-1,4.006950378E0,7.678950310E0
3.764682792E1,-3.010500073E-1,3.325050116E0,6.987000465E0
3.766664515E1,-7.750500441E-1,2.676000118E0,6.259050369E0
3.768646817E1,-1.341000080E0,2.139000177E0,5.812950134E0
3.770628540E1,-2.047049999E0,1.216950059E0,5.751000404E0
3.772610818E1,-2.775000095E0,5.490000248E-1,5.713050365E0
3.774592550E1,-3.537000179E0,3.019500077E-1,6.670950413E0
3.776574827E1,-4.087950230E0,6.000000238E-2,6.187050343E0
3.778556581E1,-4.725000381E0,-3.790500164E-1,4.999050140E0
3.780538852E1,-4.762950420E0,-9.319500327E-1,5.260050297E0
3.782520582E1,-4.300950050E0,-1.153050065E0,6.778950214E0
3.784502857E1,-4.689000130E0,-1.219950080E0,7.579050541E0
3.786484581E1,-5.689950466E0,-1.047000051E0,8.860050201E0
3.788466881E1,-7.042950153E0,-6.210000515E-1,1.020795059E1
3.790448611E1,-7.915050507E0,-7.189500332E-1,1.122900009E1
3.792430887E1,-7.575000286E0,-8.340000510E-1,1.126005077E1
3.794412633E1,-6.262050152E0,-6.829500198E-1,1.075695038E1
3.796394888E1,-5.134050369E0,-3.580500185E-1,1.292205048E1
3.798376642E1,-3.925050259E0,-2.400000095E-1,1.675905037E1
3.800358913E1,-2.935950041E0,-1.950000077E-1,1.906995010E1
3.802340642E1,-3.007950068E0,6.229500175E-1,1.828695107E1
3.804322944E1,-2.739000082E0,1.735050082E0,1.529295063E1
3.806304666E1,-1.297950029E0,2.307000160E0,1.350900078E1
3.808286952E1,2.410500050E-1,2.320950031E0,1.341300106E1
3.810268675E1,1.162950039E0,1.792050123E0,1.392300034E1
3.812250954E1,1.048950076E0,1.204950094E0,1.342500019E1
3.814232701E1,4.900500178E-1,1.102050066E0,1.132395077E1
3.816214980E1,3.109500110E-1,1.474050045E0,8.944050789E0
3.818196713E1,6.289500594E-1,2.106000185E0,6.858000278E0
3.820179014E1,6.700500250E-1,2.728950024E0,5.731950283E0
3.822160744E1,4.639500082E-1,3.190950155E0,5.449050426E0
3.824143014E1,5.820000172E-1,3.375000238E0,5.682000160E0
3.826124745E1,4.789500237E-1,3.115950108E0,6.039000511E0
3.828107021E1,4.570500255E-1,2.853000164E0,6.120000362E0
3.830088768E1,4.740000367E-1,2.911050081E0,6.193950176E0
3.832071044E1,4.980000257E-1,3.076050043E0,6.654000282E0
3.834052775E1,4.399500191E-1,3.243000269E0,7.272000313E0
3.836035073E1,1.500000060E-1,3.402000189E0,7.653000355E0
3.838016804E1,-5.239500403E-1,3.727050066E0,7.540050507E0
3.839999081E1,-9.769500494E-1,4.081950188E0,7.056000233E0
3.841980804E1,-6.270000339E-1,4.209000111E0,6.622950077E0
3.843963080E1,5.505000427E-2,3.969000101E0,6.313950062E0
3.845944827E1,4.789500237E-1,3.663000107E0,6.570000172E0
3.847927102E1,5.599500537E-1,3.648000240E0,7.261950493E0
3.849908830E1,3.780000210E-1,3.775050163E0,7.861050606E0
3.851891129E1,1.600500047E-1,3.921000242E0,8.208000183E0
3.853872853E1,-7.905000448E-2,4.090950012E0,8.661000252E0
3.855855129E1,-3.559500277E-1,4.383000374E0,8.761950493E0
3.857836859E1,-6.319500208E-1,4.455000401E0,8.640000343E0
3.859819161E1,-7.320000529E-1,4.417050362E0,8.503050804E0
3.861800860E1,-1.017000079E0,4.233000278E0,8.428950310E0
3.863783168E1,-1.528050065E0,4.165950298E0,8.721000671E0
3.865764891E1,-1.899000049E0,4.398000240E0,9.001049995E0
3.867747168E1,-1.879950047E0,4.587000370E0,9.049050331E0
3.869728923E1,-1.899000049E0,4.588950157E0,9.423000336E0
3.871711191E1,-2.778000116E0,5.040000439E0,9.403950691E0
3.873692921E1,-3.172950268E0,5.386950493E0,8.203949928E0
3.875675219E1,-2.268000126E0,5.667000294E0,8.593950272E0
3.877656944E1,-9.889500737E-1,5.695950508E0,9.921000481E0
3.879639228E1,2.820000052E-1,4.924950123E0,1.102995014E1
3.881620952E1,1.165950060E0,4.129950047E0,1.200195026E1
3.883603251E1,1.080000043E0,3.709950209E0,1.243095016E1
3.885584972E1,2.629500031E-1,3.502050161E0,1.212195015E1
3.887567250E1,-1.840500087E-1,2.929950237E0,1.115205097E1
3.889548980E1,-3.795000166E-2,2.239950180E0,1.123605061E1
3.891531252E1,4.669500291E-1,1.809000134E0,1.090500069E1
3.893512999E1,1.401000023E0,1.288950086E0,9.828000069E0
3.895495283E1,1.587000132E0,2.119950056E0,9.993000031E0
3.897477004E1,1.666050076E0,3.610050201E0,9.601950645E0
3.899459282E1,1.333950043E0,4.575000286E0,9.523050308E0
3.901441028E1,1.561050057E0,4.579950333E0,9.997950554E0
3.903423308E1,2.116950035E0,4.009950161E0,9.969000816E0
3.905405041E1,1.972950101E0,3.064050198E0,9.613950729E0
3.907387318E1,1.293000102E0,2.095950127E0,9.499050140E0
3.909369063E1,6.679500341E-1,2.118000031E0,9.751049995E0
3.911351347E1,1.069500074E-1,2.593950033E0,1.009605026E1
3.913333095E1,-2.959500253E-1,2.733000040E0,1.073805046E1
3.915315349E1,-2.220000178E-1,2.299950123E0,1.085700035E1
3.917297097E1,2.700000107E-1,1.603050113E0,1.047900009E1
3.919279372E1,1.852950096E0,1.543050051E0,1.009095001E1
3.921261105E1,2.689050198E0,1.545000076E0,8.680050850E0
3.923243385E1,1.429500133E-1,1.323000073E0,7.689000130E0
3.925225131E1,-1.015050054E0,1.332000017E0,5.100000381E0
3.927207408E1,-3.328950167E0,1.998000145E0,6.381000519E0
3.929189133E1,-3.931950092E0,9.229500294E-1,9.202050209E0
3.931171419E1,-2.838000059E0,-6.795000285E-2,9.139950752E0
3.933153165E1,-3.063000202E0,-8.505000174E-2,7.485000134E0
3.935135438E1,-3.826950073E0,1.180500090E-1,6.382950306E0
3.937117170E1,-4.057050228E0,-6.829500198E-1,6.550950527E0
3.939099450E1,-2.884950161E0,-6.280500293E-1,7.677000523E0
3.941081174E1,-2.157000065E0,4.410000145E-1,7.858950138E0
3.943063473E1,-2.715000153E0,1.198050022E0,6.682950497E0
3.945045204E1,-3.340950251E0,1.858950138E0,5.061000347E0
3.947027482E1,-4.186050415E0,1.597950101E0,5.560500026E-1
3.949009227E1,-4.525950432E0,2.329050064E0,7.650000453E-1
3.950991506E1,-1.014195061E1,4.072050095E0,8.290050507E0
3.952973236E1,-1.076295090E1,3.009000063E0,6.172950268E0
3.954955511E1,-6.955050468E0,1.806000113E0,7.906950474E0
3.956937257E1,-6.646050453E0,3.034950256E0,1.003095055E1
3.958919514E1,-5.601000309E0,4.201050282E0,8.256000519E0
3.960901258E1,-4.774950027E0,3.769950151E0,7.042050362E0
3.962883542E1,-3.048000097E0,1.519050121E0,1.018200016E1
3.964865287E1,-1.519950032E0,-1.464000106E0,1.463700104E1
3.966847564E1,-1.147050023E0,-2.206950188E0,1.537395096E1
3.968829293E1,-4.549500346E-1,-8.770500422E-1,1.456695080E1
3.970811566E1,4.350000322E-1,-7.189500332E-1,1.552005100E1
3.972793287E1,6.049500108E-1,-1.900500059E-1,1.382700062E1
3.974775585E1,7.279500365E-1,4.840500355E-1,1.030200005E1
3.976757309E1,1.171050072E0,1.126049995E0,8.710950851E0
3.978739593E1,9.169500470E-1,1.318050027E0,9.061050415E0
3.980721315E1,2.490000129E-1,1.195950031E0,8.689949989E0
3.982703614E1,-1.309500039E-1,1.308000088E0,7.714950562E0
3.984685344E1,-1.395000052E-2,1.393950105E0,6.211050510E0
3.986667616E1,1.530000120E-1,2.260950089E0,5.979000092E0
3.988649350E1,3.250500262E-1,2.853000164E0,7.168950558E0
3.990631623E1,2.050500065E-1,3.166950226E0,7.123950481E0
3.992613370E1,1.360500008E-1,3.745950222E0,6.778950214E0
3.994595646E1,-1.237950087E0,3.972000122E0,6.264000416E0
3.996577378E1,-2.350950003E0,3.993000269E0,5.313000202E0
3.998559656E1,-2.064000130E0,4.570050240E0,6.585000515E0
4.000541402E1,-1.683000088E0,5.643000126E0,9.756000519E0
4.002523656E1,-9.739500284E-1,5.452050209E0,1.188495064E1
4.004505404E1,8.595000207E-2,4.819050312E0,1.126200008E1
4.006487691E1,-7.230000496E-1,5.871000290E0,1.230195045E1
4.008469438E1,-1.738050103E0,6.048000336E0,1.035705090E1
4.010451716E1,-1.546950102E0,5.836950302E0,8.295000076E0
4.012433448E1,-1.140000105E0,6.325950146E0,7.549950123E0
4.014415725E1,7.905000448E-2,6.067050457E0,9.384000778E0
4.016397473E1,1.101000071E0,5.370000362E0,1.035405064E1
4.018379724E1,1.389000058E0,4.743000031E0,9.681000710E0
4.020361467E1,1.233000040E0,4.173000336E0,8.328000069E0
4.022343745E1,1.149000049E0,3.651000261E0,8.529000282E0
4.024325478E1,1.180050015E0,3.175950050E0,9.090000153E0
4.026307754E1,8.860500455E-1,2.853000164E0,8.683050156E0
4.028289498E1,4.189500213E-1,2.713950157E0,7.938000202E0
4.030271774E1,6.900000572E-2,2.743050098E0,6.949050426E0
4.032253497E1,-1.000500023E-1,2.997000217E0,5.878050327E0
4.034235773E1,5.505000427E-2,3.331950188E0,5.824950218E0
4.036217503E1,1.549500078E-1,3.322050095E0,6.910050392E0
4.038199780E1,2.440500110E-1,3.112050056E0,8.107950211E0
4.040181523E1,8.595000207E-2,2.709000111E0,8.220000267E0
4.042163798E1,-7.905000448E-2,2.793000221E0,7.624050140E0
4.044145529E1,7.249500155E-1,3.475950241E0,7.786950588E0
4.046127798E1,1.057950020E0,3.864000082E0,8.460000038E0
4.048109553E1,4.690500200E-1,4.015050411E0,8.778000832E0
4.050091832E1,7.095000148E-2,4.201050282E0,9.138000488E0
4.052073562E1,3.795000166E-2,4.198950291E0,9.643050194E0
4.054055839E1,4.710000157E-1,4.288050175E0,1.014405060E1
4.056037584E1,3.180000186E-1,5.710050106E0,1.265400028E1
4.058019863E1,1.939500123E-1,6.565050125E0,1.273305035E1
4.060001586E1,8.310000300E-1,5.679000378E0,9.268950462E0
4.061983862E1,-4.305000231E-2,5.779950142E0,8.503050804E0
4.063965595E1,2.130000144E-1,4.872000217E0,9.792000771E0
4.065947873E1,8.470500112E-1,3.901950121E0,1.162095070E1
4.067929621E1,1.798050046E0,3.604950190E0,1.328100109E1
4.069911899E1,3.079950094E0,2.997000217E0,1.375800037E1
4.071893630E1,2.056950092E0,2.800050020E0,9.804000854E0
4.073875900E1,1.699500084E-1,3.330000162E0,6.168000221E0
4.075857631E1,-2.100000158E-2,3.058950186E0,4.297049999E0
4.077839910E1,1.260000020E-1,2.158050060E0,2.836050034E0
4.079821655E1,-4.050000105E-3,1.950000048E0,1.636950135E0
4.081803929E1,1.650000066E-1,2.554050207E0,4.005000114E0
4.083785661E1,8.899500370E-1,2.623050213E0,5.278950214E0
4.085767931E1,6.130500436E-1,2.590050220E0,8.328000069E0
4.087749684E1,8.689500690E-1,2.743050098E0,1.108695030E1
4.089731938E1,1.972950101E0,4.036050320E0,1.191105080E1
4.091713685E1,2.404050112E0,5.631000042E0,1.000995064E1
4.093695964E1,1.237950087E0,6.799950123E0,7.345950127E0
4.095677692E1,-1.528050065E0,7.303050518E0,4.759950161E0
4.097659969E1,-2.385000229E0,5.527950287E0,3.366000175E0
4.099641713E1,-2.989500165E-1,4.383000374E0,7.540050507E0
4.101623988E1,3.373950243E0,3.603000164E0,1.290705109E1
4.103605711E1,4.938000202E0,2.524950027E0,1.485705090E1
4.105587989E1,5.338050365E0,3.784950256E0,1.342200089E1
4.107569712E1,3.721050262E0,5.205000401E0,9.430050850E0
4.109551988E1,1.971000075E0,5.332050323E0,8.908050537E0
4.111533743E1,2.739000082E0,4.477050304E0,1.290705109E1
4.113516019E1,1.173000097E0,3.279000044E0,1.680195045E1
4.115497720E1,-1.396050096E0,4.458000183E0,1.391805077E1
4.117480020E1,1.099050045E0,4.150950432E0,1.122900009E1
4.119461751E1,4.231950283E0,5.124000072E0,1.139100075E1
4.121444018E1,2.935950041E0,5.907000065E0,1.134795094E1
4.123425744E1,2.620050192E0,3.727050066E0,1.202100086E1
4.125408045E1,1.449000120E0,1.902000070E0,1.200000095E1
4.127389768E1,-2.170500159E-1,1.009050012E0,1.111605072E1
4.129372047E1,-1.960500032E-1,1.801950097E0,8.185050011E0
4.131353778E1,4.995000362E-2,4.057950020E0,5.731950283E0
4.133336047E1,-1.530000120E-1,4.290000439E0,5.667000294E0
4.135317780E1,-2.560500205E-1,1.828050137E0,8.527050018E0
4.137300080E1,-3.199500144E-1,-8.205000311E-2,8.898000717E0
4.139281802E1,-2.989500165E-1,4.819500148E-1,6.805050373E0
