"Time (s)","Acceleration x (m/s^2)","Acceleration y (m/s^2)","Acceleration z (m/s^2)"
1.224040000E-4,-3.101696253E0,3.390031576E0,8.342276573E0
1.891427900E-2,-3.344567776E0,3.477369547E0,7.934001446E0
3.770605000E-2,-3.064308405E0,3.870091438E0,9.314361572E0
5.649802900E-2,-2.508874655E0,3.842574120E0,9.866206169E0
7.529026900E-2,-2.588136673E0,4.013660908E0,9.160921097E0
9.408323700E-2,-2.620440006E0,4.073481560E0,8.303992271E0
1.128746440E-1,-2.240878344E0,4.081856251E0,8.250153542E0
1.316667790E-1,-2.153540373E0,4.047160625E0,8.683254242E0
1.504586540E-1,-2.348555326E0,3.788735628E0,8.928817749E0
1.692515710E-1,-2.628814697E0,3.667897940E0,8.647361755E0
1.880436540E-1,-2.531905413E0,3.498904943E0,8.172386169E0
2.068354250E-1,-2.377269268E0,3.550350666E0,8.158029556E0
2.256279770E-1,-2.072184324E0,3.624528170E0,8.445168495E0
2.444212580E-1,-1.966900229E0,3.580260992E0,8.342276573E0
2.632117790E-1,-1.913959026E0,3.613760471E0,7.918448448E0
2.820051120E-1,-1.692622900E0,3.767200232E0,7.681559086E0
3.007981850E-1,-1.606481314E0,3.911965847E0,7.535297394E0
3.195923520E-1,-1.474876046E0,4.026821613E0,7.383353233E0
3.383838100E-1,-1.293918848E0,4.017250061E0,7.238587379E0
3.571764140E-1,-1.110867858E0,3.964607954E0,6.819544315E0
3.759680810E-1,-9.876375198E-1,3.971786499E0,6.390930176E0
3.947605290E-1,-8.787640929E-1,3.901198149E0,6.195915222E0
4.135528730E-1,-8.691928387E-1,3.608974695E0,6.399304867E0
4.323458940E-1,-9.864411354E-1,3.329014540E0,6.540780544E0
4.511373000E-1,-1.109671474E0,3.129213810E0,6.418447495E0
4.699287580E-1,-1.273579836E0,3.027219772E0,6.177968979E0
4.887191230E-1,-1.261615753E0,2.907578707E0,6.179165363E0
5.075095920E-1,-1.274776220E0,2.903989315E0,6.693921566E0
5.262994870E-1,-1.421037555E0,2.864507914E0,7.313961506E0
5.450908420E-1,-1.644766450E0,2.671885490E0,7.529315472E0
5.638823520E-1,-2.203789711E0,2.458625317E0,7.670791149E0
5.826745390E-1,-2.899203777E0,2.196611166E0,8.305188179E0
6.014661540E-1,-3.253640652E0,2.086541414E0,8.684451103E0
6.202594350E-1,-3.284747362E0,1.939083695E0,8.997013092E0
6.390517270E-1,-2.896811008E0,1.632802367E0,9.791728973E0
6.578441750E-1,-3.278765202E0,1.690230131E0,1.055563831E1
6.766880290E-1,-3.672683716E0,2.130808592E0,1.120439243E1
6.955413100E-1,-2.967399120E0,2.440679073E0,1.193809128E1
7.143469350E-1,-1.940280080E0,2.024327993E0,1.263978672E1
7.331527690E-1,-2.807080030E0,1.625623941E0,1.318684578E1
7.519586020E-1,-3.982554197E0,8.440681696E-1,1.371565914E1
7.707643830E-1,-4.171586990E0,-4.896313250E-1,1.465185165E1
7.895702170E-1,-3.904787540E0,-1.291526079E0,1.595893097E1
8.083759980E-1,-3.142374277E0,-1.824228168E0,1.578305817E1
8.271818310E-1,-2.835793972E0,-2.249253273E0,1.419930840E1
8.459876640E-1,-3.281157970E0,-2.413161755E0,1.246122169E1
8.647934460E-1,-3.885644913E0,-2.175075769E0,1.116371441E1
8.835992790E-1,-3.938287020E0,-1.572981834E0,1.015573788E1
9.024050600E-1,-3.516851187E0,-9.493523836E-1,8.607880592E0
9.212108940E-1,-3.270390272E0,-3.592225015E-1,6.926024914E0
9.400167270E-1,-3.253640652E0,8.973085135E-2,5.865406513E0
9.588225080E-1,-3.098107100E0,3.568296731E-1,5.729015827E0
9.776283420E-1,-3.066701412E0,3.592225015E-1,5.884549141E0
9.964341230E-1,-2.967399120E0,3.496512175E-1,5.914758682E0
1.015239956E0,-2.777169704E0,1.244267747E-1,5.957829475E0
1.034045789E0,-2.428714991E0,5.623133108E-2,6.014060497E0
1.052851571E0,-2.298306227E0,5.742774159E-2,6.530013084E0
1.071657404E0,-2.045863390E0,5.503492057E-2,6.936792850E0
1.090456883E0,-1.371685624E0,2.991028316E-2,7.102196693E0
1.109250581E0,-4.441677034E-1,-1.052841991E-1,7.178767204E0
1.128043758E0,3.948157281E-2,-2.910270393E-1,7.581060410E0
1.146836831E0,-3.948157281E-2,-6.942176819E-1,8.027321815E0
1.165630581E0,-6.930212379E-1,-7.851449251E-1,7.962715626E0
1.184423498E0,-1.639980793E0,-3.819543123E-1,7.145267487E0
1.203216935E0,-2.603690147E0,7.576274872E-1,6.674778938E0
1.222009644E0,-3.028416157E0,1.620838284E0,7.184749126E0
1.240802144E0,-3.836591959E0,2.067398787E0,8.915657043E0
1.259593706E0,-5.041976452E0,1.987239242E0,1.071476078E1
1.278385998E0,-6.064310074E0,1.777568102E0,1.157318592E1
1.297179383E0,-5.705087185E0,1.140778184E0,1.197876930E1
1.315971571E0,-4.541577339E0,6.236293912E-1,1.355294704E1
1.334764435E0,-3.345764160E0,1.019940615E0,1.593500233E1
1.353555998E0,-1.905584097E0,1.711765528E0,1.637916946E1
1.372348081E0,-3.568296731E-1,2.126022816E0,1.477986717E1
1.391140894E0,-5.024927482E-2,2.255235434E0,1.274387455E1
1.409934592E0,-9.888339639E-1,2.215753794E0,1.075184917E1
1.428726883E0,-2.000399828E0,2.329412937E0,9.321539879E0
1.447519227E0,-2.212164640E0,2.439482689E0,8.118248940E0
1.466312092E0,-1.843370795E0,2.514856577E0,6.778866768E0
1.485105217E0,-1.528714538E0,2.452643156E0,5.459823132E0
1.503898498E0,-1.387238979E0,2.267199516E0,4.217350006E0
1.522691102E0,-1.220937729E0,1.874477386E0,3.266801119E0
1.541484800E0,-1.214955688E0,1.381256819E0,2.712563515E0
1.560280269E0,-1.389631748E0,8.042874932E-1,3.415156126E0
1.579074435E0,-2.032702923E0,5.207380056E-1,5.392824173E0
1.597866206E0,-2.753241539E0,1.202991605E0,7.105785847E0
1.616658185E0,-2.177468538E0,2.042274237E0,7.479066372E0
1.635452144E0,4.692923427E-1,2.041077614E0,8.520542145E0
1.654245060E0,1.679462433E0,1.372882009E0,1.089182949E1
1.673037456E0,9.810572863E-2,3.305086195E-1,1.312911892E1
1.691830425E0,-1.171884894E0,-8.401798606E-1,1.384876060E1
1.710624175E0,-1.383649707E0,-1.651944876E0,1.445922947E1
1.729418081E0,-1.491625786E0,-1.580160260E0,1.468415451E1
1.748211675E0,-1.568196177E0,-1.054636598E0,1.343809223E1
1.767006571E0,-1.685444474E0,8.374879137E-3,1.143888855E1
1.785801154E0,-1.286740422E0,1.125224829E0,9.357432365E0
1.804594487E0,-4.298107624E-1,1.805085540E0,7.989036560E0
1.823387092E0,-3.675973713E-1,2.055434704E0,7.705487251E0
1.842179644E0,-1.217348576E0,2.132004976E0,8.047660828E0
1.860972717E0,-2.088934183E0,2.341377020E0,8.147261620E0
1.879765112E0,-2.361716032E0,2.433500528E0,8.313563347E0
1.898558237E0,-2.870489836E0,2.592922449E0,8.712266922E0
1.917351362E0,-4.075874329E0,2.832204819E0,9.219545364E0
1.936143706E0,-4.459024906E0,1.971685886E0,9.380164146E0
1.954936519E0,-3.340978622E0,-3.589234129E-2,1.003609657E1
1.973731050E0,-3.022433996E0,-1.782353759E0,1.160548878E1
1.992524383E0,-3.063112020E0,-2.799901485E0,1.387747383E1
2.011318550E0,-3.043969393E0,-2.816651344E0,1.401147175E1
2.030112769E0,-2.809472799E0,-2.190629244E0,1.308724403E1
2.048905633E0,-2.371287346E0,-1.595713615E0,1.219681549E1
2.067698654E0,-1.814656854E0,-7.911269665E-1,1.167846966E1
2.086492039E0,-1.281954765E0,6.939185411E-2,1.099143124E1
2.105284696E0,-7.588238716E-1,6.044868231E-1,9.694820404E0
2.124078914E0,-1.818545163E-1,7.504490018E-1,8.190332413E0
2.142873081E0,-3.340978622E-1,5.937191248E-1,7.300800800E0
2.161669279E0,-1.074975610E0,3.891327679E-1,7.055536747E0
2.180464123E0,-1.998006940E0,2.069791555E-1,6.690331936E0
2.199256258E0,-2.775973320E0,1.076770201E-1,6.363412857E0
2.218049696E0,-3.163909674E0,-4.067798331E-2,6.941578388E0
2.236844071E0,-3.171088219E0,-4.417748749E-1,8.709874153E0
2.255637248E0,-3.467798233E0,-9.182456732E-1,1.121276665E1
2.274430060E0,-3.631706476E0,-1.365703583E0,1.328973675E1
2.293221935E0,-3.266801119E0,-1.510768414E0,1.471526146E1
2.312014696E0,-2.531905413E0,-1.335793257E0,1.527667713E1
2.330806779E0,-1.999203324E0,-1.054636598E0,1.408684635E1
2.349599019E0,-1.386042476E0,-1.107278705E0,1.282762337E1
2.368391310E0,-7.121638656E-1,-1.687837243E0,1.253898907E1
2.387184331E0,-9.242277741E-1,-2.227717876E0,1.284078407E1
2.405977196E0,-1.827817440E0,-2.201396942E0,1.201705456E1
2.424769071E0,-2.396411896E0,-1.533500195E0,9.813264847E0
2.443562248E0,-2.449054003E0,-5.135595798E-1,7.264908791E0
2.462354852E0,-2.438286304E0,4.968098104E-1,5.094618320E0
2.481149175E0,-2.413161755E0,1.292722464E0,3.710968733E0
2.499943342E0,-2.347358942E0,1.714158297E0,3.192623615E0
2.518736362E0,-2.401197433E0,2.051845312E0,3.208176851E0
2.537530373E0,-2.741277456E0,2.236092806E0,3.248854876E0
2.556323862E0,-2.972184896E0,2.318645239E0,3.642474174E0
2.575116154E0,-2.209771633E0,2.165504456E0,4.873282433E0
2.593909123E0,-5.398806334E-1,1.428215981E0,6.492924213E0
2.612703550E0,4.426721856E-2,3.349951655E-2,8.387741089E0
2.631496414E0,-6.128616929E-1,-1.090528965E0,1.031605625E1
2.650289800E0,-1.258026481E0,-1.422233939E0,1.128096199E1
2.669082977E0,-2.086541414E0,-1.011565804E0,1.099143124E1
2.687877873E0,-2.657528639E0,-7.001997232E-1,1.103210926E1
2.706672821E0,-3.282354355E0,-4.118646085E-1,1.144606686E1
2.725467248E0,-4.934299469E0,5.063810945E-1,1.100339508E1
2.744260685E0,-5.876173973E0,7.528418303E-1,9.402895927E0
2.763054748E0,-5.660820007E0,-4.513461590E-1,8.140083313E0
2.781848394E0,-5.405984402E0,-2.043470621E0,1.011027431E1
2.800641935E0,-4.976173878E0,-2.932703257E0,1.346919823E1
2.819436310E0,-3.409173965E0,-3.404388428E0,1.453460312E1
2.838228237E0,-1.164706469E0,-1.705783486E0,1.304776287E1
2.857021779E0,1.677069545E0,2.009970993E-1,9.723533630E0
2.875814383E0,2.561815739E0,1.491625786E0,7.643273830E0
2.894605998E0,1.709372640E0,2.275574446E0,7.985447407E0
2.913398810E0,6.990033388E-1,2.264806747E0,8.227421761E0
2.932192196E0,-7.298108935E-2,2.032702923E0,7.973483086E0
2.950982456E0,-4.657031000E-1,1.656730533E0,7.776075363E0
2.969773862E0,-1.042672515E0,1.151545882E0,7.852645874E0
2.988568289E0,-1.467697620E0,3.843471408E-1,8.776873589E0
3.007361727E0,-1.734497309E0,-4.776672125E-1,9.971489906E0
3.026154071E0,-2.124826431E0,-8.377870321E-1,1.079252720E1
3.044947404E0,-2.404786825E0,-8.246265054E-1,1.075902748E1
3.063742456E0,-2.024327993E0,-7.935197949E-1,1.077338505E1
3.082535894E0,-1.369292736E0,-8.365905881E-1,1.147478104E1
3.101328498E0,-1.086939692E0,-8.258228898E-1,1.236790180E1
3.120121362E0,-7.241279483E-1,-9.421738982E-1,1.277019501E1
3.138915633E0,-7.001997232E-1,-9.122636318E-1,1.230329609E1
3.157709592E0,-2.249253243E-1,-1.159920812E0,1.165214920E1
3.176502196E0,5.099703074E-1,-1.438983679E0,1.187946701E1
3.195293862E0,3.843471408E-1,-1.309472203E0,1.182802105E1
3.214085425E0,-2.644068897E-1,-9.996016622E-1,1.054606628E1
3.232877821E0,-8.330013752E-1,-6.212365627E-1,9.097511292E0
3.251670373E0,-1.168295622E0,-1.567298770E-1,8.154440880E0
3.270463133E0,-1.192223907E0,3.987040818E-1,7.427620411E0
3.289256102E0,-1.235294700E0,8.548358679E-1,6.537191391E0
3.308049956E0,-1.060618639E0,9.134600163E-1,6.015256882E0
3.326842560E0,-8.871390224E-1,4.609174728E-1,6.258128643E0
3.345636467E0,-7.265207767E-1,-1.495514214E-1,7.318747044E0
3.364429748E0,-2.632105052E-1,-8.955138922E-1,8.457132339E0
3.383223602E0,4.286143482E-1,-1.313061476E0,9.182456970E0
3.402015946E0,1.342971683E0,-1.505982757E0,9.523733139E0
3.420809956E0,1.034297585E0,-8.847461939E-1,9.768997192E0
3.439602664E0,-4.369892478E-1,7.277171612E-1,9.043673515E0
3.458395321E0,-1.480858088E0,2.069791555E0,7.934001446E0
3.477189227E0,-2.261217356E0,3.141177893E0,8.263314247E0
3.495983289E0,-2.590529680E0,3.144767046E0,9.886545181E0
3.514777144E0,-2.299502611E0,1.296311617E0,1.098425198E1
3.533570894E0,-2.986541748E0,-1.253240824E0,1.141974640E1
3.552362925E0,-4.061517239E0,-2.936292410E0,1.316979694E1
3.571155008E0,-3.749253988E0,-2.334198475E0,1.451904964E1
3.589946883E0,-2.025524378E0,-6.619145870E-1,1.249113274E1
3.608737092E0,-9.074779749E-1,7.516453862E-1,1.045155048E1
3.627529123E0,-1.229312658E0,1.729711652E0,9.564411163E0
3.646321883E0,-1.750050664E0,2.421536446E0,9.008976936E0
3.665114592E0,-1.759621978E0,2.758027315E0,8.745766640E0
3.683906258E0,-1.912762642E0,2.495713949E0,8.398508072E0
3.702698550E0,-1.669891119E0,1.879263043E0,7.536494255E0
3.721491935E0,-1.721336842E0,1.472483277E0,6.715456963E0
3.740286206E0,-2.212164640E0,1.104885817E0,7.977072716E0
3.759079487E0,-2.626421928E0,6.595217586E-1,9.497411728E0
3.777871727E0,-2.683849812E0,3.125624657E-1,1.080568790E1
3.796665269E0,-3.295515060E0,4.405784607E-1,1.172034454E1
3.815458550E0,-3.896412611E0,9.182456732E-1,1.180050373E1
3.834251362E0,-2.612065077E0,2.392822653E-1,1.138863945E1
3.853044123E0,2.991028316E-2,-2.061416626E0,1.279173088E1
3.871837769E0,1.235294700E0,-3.911965847E0,1.582373619E1
3.890632404E0,5.566303730E-1,-4.602594376E0,1.652752495E1
3.909426154E0,-4.262215197E-1,-3.999304056E0,1.415025616E1
3.928219279E0,-8.883354068E-1,-2.753241539E0,1.110748291E1
3.947012248E0,-1.253240824E0,-1.388435364E0,8.909674644E0
3.965806154E0,-1.927119493E0,-3.113660514E-1,7.012166977E0
3.984599487E0,-2.668296337E0,3.831507266E-1,5.420341492E0
4.003392456E0,-3.256033421E0,7.875377536E-1,4.463810444E0
4.022184748E0,-3.431905985E0,1.051047325E0,4.254438877E0
4.040978081E0,-3.105285645E0,1.198205948E0,4.872086048E0
4.059770633E0,-2.499303341E0,1.121635556E0,5.694319725E0
4.078562456E0,-2.057827473E0,1.181456208E0,6.461817741E0
4.097353862E0,-1.528714538E0,1.412662625E0,7.676773071E0
4.116146935E0,-4.307080805E-2,1.381256819E0,8.781659126E0
4.134940737E0,1.307079315E0,8.775677085E-1,8.640183449E0
4.153732821E0,6.954140663E-1,3.652045429E-1,8.429615021E0
4.172526883E0,-1.274776220E0,1.016949639E-1,9.065208435E0
4.191318810E0,-3.042773008E0,2.261217386E-1,9.761818886E0
4.210110685E0,-3.995714664E0,3.783650696E-1,8.910871506E0
4.228902821E0,-5.068297386E0,5.398806334E-1,8.050053596E0
4.247696467E0,-6.628118515E0,6.475576162E-1,8.053643227E0
4.266490321E0,-8.204689980E0,5.602195859E-1,7.844270706E0
4.285282717E0,-8.032107353E0,-1.146760225E0,7.984251022E0
4.304074383E0,-6.784848690E0,-3.752843142E0,1.066211891E1
4.322866623E0,-6.046363831E0,-5.195116997E0,1.439342594E1
4.341659123E0,-5.731408596E0,-4.193122387E0,1.579023647E1
4.360453914E0,-4.972584724E0,-2.255235434E0,1.428784275E1
4.379247248E0,-3.145963669E0,-7.265207767E-1,1.120319557E1
4.398041050E0,-1.629213095E0,4.824528694E-1,7.632505894E0
4.416833810E0,-9.840483069E-1,1.622034669E0,5.083850861E0
4.435626467E0,-2.922234535E-1,2.779562712E0,3.541975737E0
4.454419071E0,-3.891327679E-1,3.267997503E0,1.505982757E0
4.473211154E0,-2.622832775E0,3.538386583E0,1.035493970E0
4.492004123E0,-3.314657450E0,2.697010279E0,1.234098315E0
4.510797977E0,-2.567797899E0,1.489233017E0,2.796312332E0
4.529591519E0,-1.815853238E0,2.488535494E-1,6.564708710E0
4.548384019E0,-7.468597889E-1,-1.218544960E0,1.054367352E1
4.567176935E0,-4.776672125E-1,-2.656332254E0,1.452263927E1
4.585971571E0,-9.361918569E-1,-2.987738132E0,1.855544281E1
4.604764644E0,-1.779960990E0,-2.998505831E0,1.862124443E1
4.623558914E0,-3.102892876E0,-2.591726065E0,1.608724594E1
4.642354539E0,-3.791128397E0,-8.377870321E-1,1.393609810E1
4.661147664E0,-4.242474556E0,3.149552941E-1,1.268883896E1
4.679940998E0,-2.409572363E0,-8.294121623E-1,1.353500175E1
4.698734383E0,-1.495514214E-1,-2.752045155E0,1.688794327E1
4.717528237E0,9.553344250E-1,-3.720540047E0,1.913001823E1
4.736319904E0,1.519143224E0,-3.821038723E0,1.768056679E1
4.755111310E0,9.182456732E-1,-3.206980467E0,1.295683575E1
4.773904279E0,-3.149552941E-1,-1.538285851E0,8.041678429E0
4.792699019E0,-5.003990531E-1,-5.264209956E-2,5.805585861E0
4.811491206E0,7.073782086E-1,7.468597889E-1,4.868496895E0
4.830283394E0,1.711765528E0,1.540678620E0,4.864907742E0
4.849075321E0,1.740479350E0,2.100898266E0,4.628915310E0
4.867868342E0,6.092724800E-1,2.396411896E0,4.208974838E0
4.886661675E0,-8.318049908E-1,2.449054003E0,4.398007870E0
4.905453914E0,-7.899305820E-1,2.668296337E0,5.318347454E0
4.924245633E0,1.268195957E-1,2.988934517E0,6.839883327E0
4.943037456E0,1.113260746E0,2.831008196E0,8.154440880E0
4.961829852E0,7.289136052E-1,2.589333296E0,8.376973152E0
4.980622456E0,-3.508476317E-1,2.483749866E0,8.268099785E0
4.999413602E0,-1.156331539E0,2.347358942E0,8.745766640E0
5.018205217E0,-2.210968018E0,2.773580551E0,9.856635094E0
5.036997560E0,-2.991327524E0,3.277568817E0,1.009830952E1
5.055790477E0,-2.579761982E0,3.624528170E0,9.372985840E0
5.074584227E0,-2.291127682E0,4.222135544E0,8.958727837E0
5.093376519E0,-2.631207705E0,4.805087090E0,8.611469269E0
5.112167508E0,-3.085843801E0,5.642873764E0,8.518149376E0
5.130959383E0,-2.592922449E0,6.095416546E0,9.311968803E0
5.149752925E0,-8.270193338E-1,4.511667252E0,1.056401253E1
5.168546154E0,5.503492057E-2,2.938685417E0,1.133121204E1
5.187339852E0,-1.359721422E0,4.773980141E0,7.307979584E0
5.206131362E0,-2.440679073E0,4.509274483E0,4.694717884E0
5.224922769E0,1.076770201E-1,2.655135870E0,4.515256405E0
5.243715112E0,2.177468538E0,2.377269268E0,6.002096653E0
5.262508602E0,6.308078766E-1,-3.340978622E-1,1.295803165E1
5.281301623E0,-9.571290761E-2,-7.564310431E-1,2.179592323E1
5.300094383E0,-1.752443433E0,9.194421172E-1,1.393370533E1
5.318887717E0,-2.270788670E0,1.399203062E0,9.611071587E0
5.337681519E0,-2.561815739E0,2.470589399E0,8.840283394E0
5.356472717E0,-3.464209080E0,3.004487991E0,7.896913052E0
5.375264435E0,-4.319045067E0,2.746062994E0,6.833901405E0
5.394056102E0,-3.535993576E0,3.313461065E0,7.284051418E0
5.412848289E0,-2.545065880E0,3.900001764E0,9.706784248E0
5.431639748E0,-1.681855202E0,3.510869026E0,1.166172028E1
5.450430737E0,-1.322632670E0,3.725325823E0,1.072792149E1
5.469222873E0,-2.458625317E0,4.358526230E0,1.046829987E1
5.488015998E0,-4.289134502E0,4.982155800E0,1.072911739E1
5.506809331E0,-3.835395575E0,4.677968502E0,1.063340473E1
5.525604071E0,-3.084647417E0,4.225724697E0,9.608678818E0
5.544396831E0,-3.077469110E0,4.626522541E0,8.448758125E0
5.563189019E0,-3.744468451E0,5.034798145E0,8.076375008E0
5.581980737E0,-3.506083488E0,4.911567688E0,8.033304214E0
5.600773289E0,-2.752045155E0,4.097409725E0,7.425227642E0
5.619566050E0,-2.468196630E0,3.406781197E0,7.288836956E0
5.638358237E0,-2.333002090E0,2.994916677E0,6.829115868E0
5.657150529E0,-2.182254314E0,2.884846687E0,6.033203125E0
5.675943185E0,-2.039881229E0,3.048755169E0,5.555535793E0
5.694736102E0,-2.003988981E0,3.206980467E0,5.167599678E0
5.713528602E0,-1.959422588E0,3.129213810E0,5.007280350E0
5.732321987E0,-2.076970100E0,3.327818155E0,4.789533615E0
5.751115321E0,-3.736093521E0,3.905983925E0,5.537590027E0
5.769908185E0,-4.498506546E0,3.571886063E0,6.253343105E0
5.788700894E0,-3.372085333E0,3.968197346E0,6.916453838E0
5.807492769E0,-2.685046196E0,4.685146809E0,7.619345665E0
5.826284644E0,-3.107678413E0,3.910769463E0,8.054839134E0
5.845078914E0,-3.346960783E0,3.777967930E0,8.615058899E0
5.863872560E0,-4.171586990E0,4.140480518E0,9.020941734E0
5.882664748E0,-4.976173878E0,4.377668858E0,9.384949684E0
5.901458133E0,-4.909174919E0,4.830211639E0,9.296415329E0
5.920249904E0,-5.232205868E0,5.457430363E0,8.390133858E0
5.939042612E0,-6.131309032E0,5.872584820E0,7.172784805E0
5.957834331E0,-5.553143024E0,5.878567219E0,7.403692245E0
5.976625894E0,-4.650450706E0,5.355735302E0,8.829515457E0
5.995418133E0,-4.500899315E0,4.467400074E0,1.008754253E1
6.014210581E0,-4.243670940E0,3.665505171E0,1.151695442E1
6.033002248E0,-3.788735628E0,3.380460262E0,1.241575813E1
6.051792821E0,-3.701397419E0,3.512065411E0,1.216092300E1
6.070583550E0,-4.235296249E0,3.920340776E0,1.051735306E1
6.089376102E0,-4.891228676E0,4.350151539E0,8.550452232E0
6.108167039E0,-5.362913609E0,4.376472473E0,7.908876896E0
6.126958550E0,-5.455037594E0,4.280759811E0,6.921239376E0
6.145750321E0,-5.886941910E0,3.658326626E0,8.658129692E0
6.164542508E0,-5.876173973E0,3.495315790E0,1.118764210E1
6.183333029E0,-4.723432064E0,3.294318676E0,1.167488098E1
6.218363867E0,-3.368496180E0,4.114159584E0,7.596613884E0
6.237170325E0,-4.395615101E0,4.350151539E0,6.414858341E0
6.255975221E0,-4.193122387E0,4.038785458E0,6.892525673E0
6.274781679E0,-3.433102369E0,3.671487331E0,7.847859859E0
6.293586575E0,-3.177070379E0,3.546761274E0,8.705088615E0
6.312393034E0,-3.114856958E0,3.436691523E0,8.934800148E0
6.331197929E0,-3.245265722E0,3.474976778E0,8.653344154E0
6.350004388E0,-3.435495138E0,3.653541088E0,8.318348885E0
6.368809284E0,-3.342175007E0,3.697808266E0,8.014161110E0
6.387615742E0,-3.234498024E0,3.641277790E0,7.913662910E0
6.406420638E0,-2.992523909E0,3.411566973E0,8.236992836E0
6.425227096E0,-2.761616468E0,3.141177893E0,8.751749039E0
6.444032044E0,-2.512463808E0,2.838186741E0,9.011369705E0
6.462838502E0,-2.309073925E0,2.534298182E0,9.053244591E0
6.481643398E0,-2.199003935E0,2.303091764E0,9.154939651E0
6.500449857E0,-2.080559254E0,2.114058733E0,9.311968803E0
6.519254752E0,-1.896012783E0,2.020738840E0,9.158528328E0
6.538061211E0,-1.778764486E0,1.965703845E0,8.623434067E0
6.556866107E0,-1.869691849E0,1.919941068E0,8.161619186E0
6.575672565E0,-1.969292998E0,1.924726725E0,8.075178146E0
6.594477461E0,-1.906780601E0,1.675873160E0,7.473084450E0
6.613283919E0,-1.762014747E0,1.080957651E0,7.361817837E0
6.632088867E0,-1.745265007E0,7.827520967E-1,8.100302696E0
6.651009127E0,-1.975275040E0,1.126421213E0,9.540482521E0
6.670225221E0,-2.256431818E0,4.262215197E-1,9.761818886E0
6.689423971E0,-2.276770830E0,-1.072582722E0,8.491828918E0
6.708620013E0,-1.794317842E0,-1.930708766E0,8.402097702E0
6.727813346E0,-1.195813060E0,-2.957827806E0,8.030911446E0
6.747004284E0,-1.648355722E0,-3.535993576E0,6.562315941E0
6.766193138E0,-2.078166485E0,-4.123730659E0,7.499405384E0
6.785379909E0,-2.469393015E0,-3.608974695E0,9.113064766E0
6.804564961E0,-2.825026274E0,-2.481357098E0,9.545269012E0
6.823748554E0,-2.050648928E0,-2.527119875E0,9.022137642E0
6.842930638E0,-7.277171612E-1,-3.126821041E0,8.678468704E0
6.862111419E0,-6.738786697E-1,-3.352942705E0,7.924430370E0
6.881290898E0,-1.842174292E0,-3.200998545E0,8.093124390E0
6.900469232E0,-2.628814697E0,-3.392424345E0,9.529715538E0
6.919646471E0,-2.643171787E0,-4.818247318E0,1.039531898E1
6.938822825E0,-3.014059305E0,-5.073082924E0,9.609874725E0
6.957998450E0,-3.673880100E0,-3.655933857E0,1.029452133E1
6.977173398E0,-3.602992773E0,-3.168695450E0,1.104407310E1
6.996347565E0,-3.300300598E0,-3.501297712E0,1.144845963E1
7.015520898E0,-3.400799274E0,-2.999702215E0,1.153131104E1
7.034693450E0,-4.145266056E0,-2.429911375E0,1.113739300E1
7.053865482E0,-4.442275047E0,-1.513161182E0,1.051376343E1
7.073036992E0,-3.937090635E0,-7.552346587E-1,9.921240807E0
7.092208346E0,-2.552244425E0,2.871387079E-2,9.315557480E0
7.111288919E0,-1.381256819E0,7.707880139E-1,9.564411163E0
7.130085377E0,-9.972088337E-1,4.908277392E-1,1.018684387E1
7.148875377E0,-1.072582722E0,-6.296114326E-1,1.076979542E1
7.167665325E0,-1.474876046E0,-1.544267893E0,1.218006516E1
7.186455794E0,-1.639980793E0,-2.386840582E0,1.369053459E1
7.205246419E0,-1.568196177E0,-3.072683334E0,1.417777348E1
7.224037669E0,-1.763211131E0,-2.805883646E0,1.416102314E1
7.242829232E0,-1.555035591E0,-2.242074728E0,1.334357548E1
7.261621054E0,-1.078564763E0,-1.553839207E0,1.186989594E1
7.280412929E0,-5.315057039E-1,-9.792626500E-1,1.031127071E1
7.299203190E0,-1.256231815E-1,-5.566303730E-1,8.736195564E0
7.317996211E0,-4.067798331E-2,-7.537391037E-2,7.242177010E0
7.336789336E0,-2.404786795E-1,3.281157911E-1,5.925526142E0
7.355581263E0,-6.427719593E-1,7.719843984E-1,4.849354267E0
7.374372252E0,-8.114659786E-1,1.299900889E0,4.499702930E0
7.393162565E0,-7.109674215E-1,1.442572951E0,4.536791801E0
7.411952982E0,-5.650052428E-1,1.423430324E0,4.317848682E0
7.430743919E0,-4.860421121E-1,1.595713615E0,4.492524624E0
7.449534700E0,-5.865406394E-1,1.663909078E0,5.227420330E0
7.468325534E0,-8.823533654E-1,1.685444474E0,5.829514027E0
7.487116471E0,-1.279561877E0,1.781157374E0,6.362216473E0
7.505906888E0,-1.592124343E0,1.801496387E0,7.022037029E0
7.524698138E0,-1.502393484E0,1.738086581E0,7.631309509E0
7.543487304E0,-1.091725349E0,1.697408557E0,8.624629974E0
7.562277461E0,-8.162516356E-1,1.422233939E0,1.006480980E1
7.581069700E0,-9.110672474E-1,1.293918848E0,1.160668564E1
7.599861054E0,-1.073779106E0,1.630409479E0,1.268285751E1
7.618651159E0,-7.564310431E-1,2.073380709E0,1.299392414E1
7.637441732E0,3.029911816E-1,2.294716835E0,1.314586830E1
7.656232877E0,1.511964798E0,2.422732830E0,1.360080433E1
7.675024127E0,1.806282043E0,2.505285263E0,1.429741478E1
7.693814857E0,1.198205948E0,3.369692564E0,1.416700554E1
7.712608711E0,1.086939692E0,3.580260992E0,1.261914825E1
7.731403190E0,2.169093609E0,2.901596546E0,1.143051338E1
7.750196888E0,3.077469110E0,1.983649969E0,1.198834038E1
7.768990377E0,2.839383125E0,1.054636598E0,1.283480167E1
7.787781002E0,1.799103498E0,5.769693851E-1,1.243609715E1
7.806574648E0,7.360920906E-1,4.860421121E-1,1.096271706E1
7.825367982E0,-5.982056726E-3,5.853442550E-1,9.248259544E0
7.844161627E0,-4.381856322E-1,6.930212379E-1,7.785646915E0
7.862955482E0,-6.391827464E-1,8.066803217E-1,6.597012043E0
7.881749440E0,-8.341978192E-1,9.349954724E-1,5.726622581E0
7.900542982E0,-1.106082320E0,1.187438250E0,5.287240505E0
7.919334961E0,-1.307079315E0,1.398006678E0,5.000102043E0
7.938127982E0,-1.484447360E0,1.547857165E0,4.897210598E0
7.956921627E0,-1.510768414E0,1.614856124E0,5.061119080E0
7.975714023E0,-1.015154958E0,1.734497309E0,5.734997749E0
7.994507929E0,-3.029911816E-1,1.915155411E0,6.994220734E0
8.013300429E0,7.372884750E-1,2.155933142E0,7.890930653E0
8.032094232E0,2.329412937E0,2.432304144E0,8.029714584E0
8.050887461E0,3.577867985E0,2.506481647E0,7.748558044E0
8.069679232E0,3.907180309E0,2.155933142E0,8.538488388E0
8.088470325E0,3.339782238E0,1.434198022E0,1.008036327E1
8.107264909E0,2.394019127E0,7.803592682E-1,1.148913765E1
8.126059336E0,1.594517231E0,3.879363835E-1,1.226979637E1
8.144852513E0,7.600203156E-1,8.054839373E-1,1.233679581E1
8.163647409E0,9.571290761E-2,1.419841170E0,1.157079315E1
8.182441679E0,-3.708875179E-2,1.857727647E0,1.071595669E1
8.201234648E0,-8.494520187E-2,2.118844509E0,1.071834946E1
8.220027304E0,-3.424727321E-1,2.070987940E0,1.155763245E1
8.238822721E0,-3.819543123E-1,1.966900229E0,1.227458191E1
8.257617409E0,2.428714931E-1,1.435394526E0,1.225663567E1
8.276412461E0,1.089332461E0,7.540382147E-1,1.244686508E1
8.295205429E0,1.645962834E0,2.356930375E-1,1.349910927E1
8.313998086E0,1.685444474E0,3.469592705E-2,1.436949825E1
8.332791575E0,1.635195136E0,2.189432681E-1,1.394327641E1
8.351585065E0,1.704586983E0,6.104688644E-1,1.223151112E1
8.370378607E0,1.867298961E0,9.062815905E-1,1.035434151E1
8.389172357E0,1.974078655E0,9.888339639E-1,8.967103004E0
8.407967252E0,1.978864312E0,9.984052777E-1,8.117053032E0
8.426761054E0,1.904387712E0,9.254241586E-1,7.523333549E0
8.445552252E0,1.678265929E0,8.823533654E-1,7.016055107E0
8.464345325E0,1.207777262E0,9.649057388E-1,6.341877460E0
8.483139909E0,4.393820465E-1,1.161117196E0,5.373681545E0
8.501933554E0,2.910270393E-1,1.132403374E0,4.393222332E0
8.520727565E0,4.094717801E-1,1.586142302E0,3.943072557E0
8.539523034E0,3.843471408E-1,2.226521492E0,3.870091438E0
8.558319440E0,9.302098155E-1,2.762812853E0,4.602594376E0
8.577113867E0,1.165902853E0,2.848954439E0,6.052345753E0
8.595906054E0,7.983054519E-1,2.584547520E0,8.235795975E0
8.614699648E0,5.697908998E-1,2.335394859E0,1.015932655E1
8.633493138E0,5.291129351E-1,2.184647083E0,1.092891788E1
8.652286367E0,5.590232015E-1,2.190629244E0,1.136830044E1
8.671079179E0,5.087739229E-1,2.701795816E0,1.216092300E1
8.689872877E0,4.525425732E-1,3.346960783E0,1.282164097E1
8.708667721E0,4.202394783E-1,3.681058645E0,1.307408428E1
8.727461211E0,5.769693851E-1,3.777967930E0,1.321316624E1
8.746254232E0,1.016351461E0,3.819842339E0,1.276062393E1
8.765049492E0,1.948654890E0,3.302693367E0,1.146760273E1
8.783844648E0,2.643171787E0,2.116451740E0,1.140897846E1
8.802640898E0,2.359323025E0,4.692923427E-1,1.313988686E1
8.821434596E0,1.259222865E0,-5.901299119E-1,1.387747383E1
8.840228294E0,-7.537391037E-2,-5.865406394E-1,1.293888950E1
8.859023554E0,-9.409775138E-1,-1.363908947E-1,1.162223911E1
8.877818659E0,-1.063011408E0,3.173480928E-1,1.031844902E1
8.896613294E0,-8.823533654E-1,6.391827464E-1,8.852247238E0
8.915407617E0,-5.877370834E-1,1.063011408E0,7.464709282E0
8.934201315E0,-4.307080805E-2,1.128814101E0,6.189933300E0
8.952994596E0,2.898306549E-1,1.083350420E0,5.455037594E0
8.971788086E0,5.243272781E-1,1.134796143E0,5.548357487E0
8.990583242E0,5.231308341E-1,1.051047325E0,5.749354839E0
9.009379023E0,6.284150481E-1,9.074779749E-1,5.758925915E0
9.028172721E0,6.284150481E-1,1.004387259E0,5.717051506E0
9.046967513E0,5.015954375E-1,1.356132269E0,5.797211170E0
9.065760325E0,5.853442550E-1,1.978864312E0,5.764907837E0
9.084553867E0,1.080957651E0,2.409572363E0,5.575874805E0
9.103347877E0,2.203789711E0,2.163111687E0,5.606981754E0
9.122143346E0,2.943470955E0,1.982453585E0,6.789634228E0
9.140939336E0,2.305484533E0,2.501696110E0,9.418449402E0
9.159734492E0,7.887341380E-1,2.360519648E0,1.234995556E1
9.178526784E0,-4.848456979E-1,1.305882931E0,1.371087360E1
9.197321159E0,-1.728515267E0,1.168295622E0,1.390379524E1
9.216115638E0,-2.673082113E0,1.073779106E0,1.291974640E1
9.234912304E0,-3.089732170E0,-8.054839373E-1,1.179212952E1
9.253707825E0,-3.818645954E0,-2.633600473E0,1.350748348E1
9.272501836E0,-3.700201035E0,-3.128017426E0,1.551625824E1
9.291295794E0,-3.022433996E0,-2.657528639E0,1.594577026E1
9.310091211E0,-2.021935225E0,-2.147558212E0,1.503859138E1
9.328886679E0,-1.113260746E0,-1.553839207E0,1.341296768E1
9.347681367E0,-7.863413692E-1,-7.193422914E-1,1.153490067E1
9.366476107E0,-7.923234105E-1,1.316052489E-2,9.566803932E0
9.385270013E0,-7.516453862E-1,5.554339290E-1,7.486244678E0
9.404063242E0,-6.272186637E-1,9.134600163E-1,5.563910961E0
9.422858346E0,-4.621138871E-1,1.289133191E0,4.341776848E0
9.441652148E0,-2.727817893E-1,1.606481314E0,3.895216227E0
9.460446679E0,-4.776672125E-1,1.763211131E0,3.809074640E0
9.479241002E0,-1.165902853E0,1.790728688E0,4.449453831E0
9.498033607E0,-1.744068623E0,1.590927958E0,5.907579899E0
9.516826940E0,-2.035095692E0,1.237687469E0,7.797610760E0
9.535621159E0,-2.325823545E0,9.098708034E-1,9.242277145E0
9.554415117E0,-2.413161755E0,8.476574421E-1,9.504590988E0
9.573207096E0,-2.275574446E0,6.343970895E-1,9.583553314E0
9.592001263E0,-2.330609322E0,-1.447657645E-1,1.089900780E1
9.610795638E0,-2.692224503E0,-7.157530785E-1,1.285274792E1
9.629588971E0,-3.301496983E0,-3.951148391E-1,1.354576874E1
9.648383607E0,-3.308675528E0,2.141576260E-1,1.283958721E1
9.667178763E0,-2.248056889E0,2.727817893E-1,1.228056431E1
9.685971315E0,-1.342971683E0,3.532404304E-1,1.260957718E1
9.704765013E0,-1.314257860E0,5.027918816E-1,1.345244884E1
9.723559284E0,-1.949851394E0,5.015954375E-1,1.374078369E1
9.742352565E0,-2.519642353E0,5.949155092E-1,1.297478199E1
9.761146627E0,-2.738884687E0,7.648059130E-1,1.149033451E1
9.779941107E0,-2.586940289E0,6.607181430E-1,9.866206169E0
9.798734388E0,-1.809871197E0,5.554339290E-1,8.540881157E0
9.817527200E0,-1.325025558E0,3.484548032E-1,7.723433495E0
9.836320846E0,-1.626820326E0,-5.264209956E-2,8.108677864E0
9.855114752E0,-1.852941990E0,-1.196411327E-1,9.451948166E0
9.873908971E0,-1.329811215E0,1.196411327E-1,9.621838570E0
9.892703086E0,-6.104688644E-1,1.148554832E-1,7.867002487E0
9.911497461E0,-3.687937856E-1,2.874378264E-1,5.305186749E0
9.930293450E0,7.899305820E-1,3.520440459E-1,5.113760948E0
9.949089909E0,1.577767372E0,5.434698462E-1,6.497709751E0
9.967884336E0,6.355935335E-1,1.230509043E0,7.459923744E0
9.986680377E0,-4.561318159E-1,1.740479350E0,7.468298435E0
1.000547616E1,2.536391914E-1,1.290329576E0,7.403692245E0
1.002427147E1,5.171487927E-1,1.146760225E0,7.914859295E0
1.004306725E1,-1.531406492E-1,1.301097274E0,8.453543663E0
1.006186397E1,-9.062815905E-1,1.155135155E0,9.055637360E0
1.008065928E1,-7.947162390E-1,8.979067206E-1,9.873384476E0
1.009945460E1,1.615155339E-1,2.715853751E-1,1.172154045E1
1.011824991E1,-4.274179339E-1,7.755736113E-1,1.428903961E1
1.013704652E1,-1.405484200E0,1.931905150E0,1.425912952E1
1.015584147E1,-2.122433662E0,2.652743101E0,1.256172085E1
1.017463621E1,-2.337787628E0,3.378067255E0,1.164497089E1
1.019343121E1,-2.536691189E0,4.141676903E0,1.008514881E1
1.021222548E1,-2.638386011E0,4.492524624E0,8.538488388E0
1.023101939E1,-2.306680918E0,4.645665169E0,8.429615021E0
1.024981480E1,-1.155135155E0,3.719343662E0,9.721140862E0
1.026861257E1,9.074779749E-1,2.301895380E0,1.066331482E1
1.028740840E1,2.859722137E0,2.037488461E0,1.036271667E1
1.030620324E1,3.828217030E0,2.197807550E0,9.192028046E0
1.032499824E1,3.319443226E0,2.632404089E0,8.408080101E0
1.034379319E1,1.868495345E0,2.542673111E0,7.711469173E0
1.036258751E1,2.297109663E-1,2.029113531E0,6.843472958E0
1.038138173E1,-1.089332461E0,1.849352837E0,6.954739094E0
1.040017506E1,-1.626820326E0,2.244467735E0,6.953542709E0
1.041896918E1,-1.716551185E0,2.699403048E0,6.975078106E0
1.043776236E1,-1.521536112E0,2.663510799E0,7.144071102E0
1.045655626E1,-1.040279627E0,2.318645239E0,8.062017441E0
1.047534767E1,-3.771686554E-1,2.321038008E0,9.389735222E0
1.049414027E1,-3.352942765E-1,2.215753794E0,9.981060982E0
1.051293434E1,-6.355935335E-1,1.990828395E0,1.022512913E1
1.053172866E1,-6.690930128E-1,2.250449657E0,1.011625576E1
1.055052111E1,-4.058825374E-1,2.854936600E0,1.017846966E1
1.056931402E1,-1.986042857E-1,3.375674486E0,1.060828018E1
1.058810736E1,-5.590232015E-1,2.948256493E0,1.118764210E1
1.060690022E1,-1.389631748E0,2.199003935E0,1.215254784E1
1.062569277E1,-2.005185366E0,2.082952023E0,1.283599758E1
1.064448663E1,-2.030309916E0,2.359323025E0,1.264576817E1
1.066327965E1,-1.723729610E0,2.545065880E0,1.211665535E1
1.068207298E1,-1.341775298E0,2.527119875E0,1.135394382E1
1.070086439E1,-9.385846853E-1,2.661117792E0,1.042403316E1
1.071965694E1,-6.738786697E-1,2.714956284E0,9.656535149E0
1.073845251E1,-4.980062246E-1,2.494517565E0,9.429216385E0
1.075724767E1,-4.884349108E-1,2.397608280E0,9.608678818E0
1.077604064E1,-6.499504447E-1,2.516052961E0,9.374181747E0
1.079483303E1,-8.703892231E-1,2.630011082E0,8.860622406E0
1.081362720E1,-1.084546804E0,2.445464849E0,8.539685249E0
1.083242236E1,-1.433001637E0,2.242074728E0,8.558827400E0
1.085121652E1,-1.274776220E0,2.098505497E0,8.300402641E0
1.087001303E1,-4.477569461E-1,1.517946839E0,7.129714012E0
1.088881043E1,2.237289101E-1,8.679963946E-1,6.171987057E0
1.090760475E1,8.853443712E-2,1.017547846E0,5.837889194E0
1.092639855E1,-4.381856322E-1,1.717747569E0,5.617749214E0
1.094519371E1,-8.488538265E-1,2.333002090E0,5.721837044E0
1.096398814E1,-1.030708313E0,2.590529680E0,6.204289913E0
1.098278262E1,-1.289133191E0,2.539083958E0,6.832705021E0
1.100157533E1,-1.564606905E0,2.476571321E0,7.596613884E0
1.102036772E1,-1.618445396E0,2.364108801E0,8.467900276E0
1.103916225E1,-1.563410521E0,2.353341103E0,8.903693199E0
1.105795428E1,-2.007578135E0,2.591726065E0,9.285647392E0
1.107674574E1,-2.815454960E0,2.713759899E0,9.910472870E0
1.109553788E1,-3.587439299E0,2.719742060E0,1.034955597E1
1.111432939E1,-4.220939159E0,2.884846687E0,1.062861919E1
1.113312199E1,-4.479363918E0,3.415156126E0,1.099382401E1
1.115191428E1,-3.576671600E0,3.508476257E0,1.230090332E1
1.117070522E1,-2.324627161E0,2.736491680E0,1.429023552E1
1.118949647E1,-2.338984251E0,2.169093609E0,1.582732582E1
1.120828918E1,-3.302693367E0,2.233700037E0,1.559761429E1
1.122708132E1,-3.480958700E0,2.336591244E0,1.430100346E1
1.124587470E1,-2.647957325E0,2.461018085E0,1.297119236E1
1.126466902E1,-1.918744683E0,2.908775091E0,1.196800137E1
1.128346256E1,-1.455733418E0,3.276372433E0,1.119123173E1
1.130225486E1,-1.055832982E0,3.289532900E0,1.022393322E1
1.132104798E1,-7.564310431E-1,3.204587698E0,9.097511292E0
1.133984225E1,-6.272186637E-1,3.067897797E0,7.926823139E0
1.135863579E1,-6.726822853E-1,2.963809967E0,6.829115868E0
1.137742730E1,-6.607181430E-1,2.822633505E0,5.712265968E0
1.139622064E1,-7.025925517E-1,2.688635349E0,4.759324074E0
1.141501454E1,-9.302098155E-1,2.682653189E0,4.201497555E0
1.143380850E1,-1.146760225E0,2.698206663E0,4.069892406E0
1.145260163E1,-1.237687469E0,2.646760941E0,4.317848682E0
1.147139668E1,-1.625623941E0,2.621636391E0,5.073082924E0
1.149019272E1,-2.306680918E0,2.656332254E0,5.697908878E0
1.150898845E1,-2.927917719E0,2.732902527E0,5.684748173E0
1.152778168E1,-3.889234066E0,2.956631422E0,6.351448536E0
1.154657574E1,-4.533202648E0,3.040380239E0,8.411668777E0
1.156536918E1,-3.876073599E0,2.723331213E0,1.065613651E1
1.158416152E1,-3.497708559E0,2.744866610E0,1.206251812E1
1.160295298E1,-3.628117323E0,2.804687262E0,1.219801140E1
1.162174559E1,-3.762414455E0,3.106482029E0,1.186152077E1
1.164053824E1,-3.486940861E0,3.787539244E0,1.129053402E1
1.165933043E1,-2.508874655E0,4.514060020E0,1.056999493E1
1.167812277E1,-8.775677085E-1,4.875675201E0,1.079731274E1
1.169691746E1,3.233301640E-1,4.705485821E0,1.261914825E1
1.171571163E1,1.170688510E0,3.468994617E0,1.393011570E1
1.173450605E1,4.525425732E-1,2.536691189E0,1.416461277E1
1.175329840E1,-9.290133715E-1,2.266003132E0,1.349073410E1
1.177209121E1,-1.458126307E0,2.009970903E0,1.254975700E1
1.179088340E1,-1.435394526E0,1.692622900E0,1.138146114E1
1.180972673E1,-1.651944876E0,1.517946839E0,9.855438232E0
1.182858022E1,-2.090130568E0,1.368096352E0,8.201100349E0
1.184738574E1,-2.570190668E0,1.418644667E0,6.722635269E0
1.186619142E1,-2.693420887E0,1.617249012E0,5.584249973E0
1.188499710E1,-2.437089920E0,1.918744683E0,4.886443138E0
1.190380272E1,-1.983649969E0,2.145165443E0,4.640879631E0
1.192260840E1,-1.551446438E0,2.426322222E0,4.755734921E0
1.194141402E1,-1.007976532E0,2.872882605E0,5.494519234E0
1.196021970E1,-5.219344497E-1,3.110071182E0,6.431608200E0
1.197902533E1,-1.280160099E-1,3.435495138E0,7.341478825E0
1.199783100E1,4.405784607E-1,3.841377735E0,8.225028992E0
1.201663663E1,3.699901998E-1,3.519243956E0,9.107083321E0
1.203544230E1,-1.381256819E0,3.217748165E0,9.378967285E0
1.205424798E1,-3.151945591E0,3.486940861E0,9.435198784E0
1.207305366E1,-3.750450373E0,3.715754509E0,9.399306297E0
1.209185928E1,-3.600599766E0,3.768396616E0,9.963115692E0
1.211066496E1,-3.474976778E0,3.570689678E0,1.090140057E1
1.212947059E1,-4.298706055E0,3.811467409E0,1.110867882E1
1.214827626E1,-5.108975410E0,4.045963764E0,1.033160973E1
1.216708194E1,-5.022833824E0,3.647259951E0,9.730711937E0
1.218588762E1,-5.383252621E0,3.338585854E0,1.060588741E1
1.220469324E1,-5.670391560E0,2.807080030E0,1.246840096E1
1.222349892E1,-5.470590591E0,2.075773716E0,1.362473202E1
1.224230460E1,-5.032404900E0,1.888834357E0,1.324905872E1
1.226111027E1,-3.865305901E0,2.002792597E0,1.162343502E1
1.227991590E1,-2.422732830E0,2.301895380E0,9.608678818E0
1.229872163E1,-1.115653515E0,2.637189627E0,7.810771465E0
1.231752725E1,-3.589234129E-2,2.630011082E0,6.227021694E0
1.233633293E1,4.657031000E-1,2.589333296E0,4.824229717E0
1.235542819E1,1.938186288E-1,2.803490877E0,3.370888948E0
1.237463355E1,-6.092724800E-1,3.151945591E0,3.153141975E0
1.239383548E1,-1.286740422E0,3.421138287E0,3.520440340E0
1.241303408E1,-1.141974568E0,3.519243956E0,4.527220249E0
1.243222970E1,-7.803592682E-1,3.649951935E0,5.889334679E0
1.245142272E1,-5.949155092E-1,3.829413652E0,7.498209000E0
1.247061329E1,-3.855435550E-1,3.947858334E0,9.164510727E0
1.248980178E1,-4.034897089E-1,3.838984728E0,1.051854897E1
1.250898840E1,-1.225723386E0,3.822235107E0,1.180648613E1
1.252817335E1,-2.499303341E0,3.642474174E0,1.294367504E1
1.254735652E1,-3.416352510E0,3.422334671E0,1.335075378E1
1.256653835E1,-3.159124136E0,3.571886063E0,1.270558929E1
1.258571876E1,-2.117648125E0,4.026821613E0,1.142453194E1
1.260489809E1,-1.441376567E0,4.787140846E0,9.957133293E0
1.262407637E1,-1.558624864E0,5.210670471E0,9.064012527E0
1.264325355E1,-2.069791555E0,4.673182487E0,9.226723671E0
1.266242980E1,-2.285145521E0,3.350549936E0,1.072433186E1
1.268160533E1,-1.912762642E0,2.036292076E0,1.292692566E1
1.270078027E1,-1.429412484E0,1.396810174E0,1.379611778E1
1.271995465E1,-1.130010486E0,1.382453322E0,1.252941799E1
1.273912855E1,-1.232901812E0,1.904387712E0,1.007438183E1
1.275830210E1,-1.115653515E0,2.518445730E0,7.805985451E0
1.277747533E1,-1.090528965E0,3.245265722E0,6.601797581E0
1.279664819E1,-1.150349498E0,3.468994617E0,5.988935947E0
1.281554168E1,-9.804590940E-1,3.354139090E0,5.815157413E0
1.283433579E1,-8.174480200E-1,3.193820000E0,5.605785370E0
1.285312960E1,-8.318049908E-1,3.222533941E0,5.510072231E0
1.287192168E1,-9.553344250E-1,3.406781197E0,5.554339409E0
1.289071637E1,-1.023529887E0,3.589832067E0,5.596213818E0
1.290951184E1,-1.164706469E0,3.486940861E0,5.675177097E0
1.292830684E1,-1.509572029E0,3.319443226E0,6.171987057E0
1.294709965E1,-1.968096614E0,3.216551781E0,7.296015263E0
1.296589204E1,-2.267199516E0,2.828615427E0,9.019744873E0
1.298468439E1,-2.527119875E0,2.446661234E0,1.123430252E1
1.300347710E1,-3.047558784E0,2.383251429E0,1.266251850E1
1.302226882E1,-3.601796389E0,2.868097067E0,1.235593796E1
1.304106152E1,-3.626920938E0,3.489333630E0,1.148195934E1
1.305985548E1,-3.652344704E0,4.012464523E0,1.109671497E1
1.307864949E1,-3.617349625E0,4.165605068E0,1.135872936E1
1.309744350E1,-3.399602890E0,4.022035599E0,1.215135193E1
1.311623757E1,-3.242872953E0,3.568296671E0,1.311595821E1
1.313503298E1,-2.898007393E0,2.486142635E0,1.310519028E1
1.315382632E1,-3.396013498E0,2.307877541E0,1.151934719E1
1.317261710E1,-3.474976778E0,2.723331213E0,9.160921097E0
1.319141012E1,-3.070290565E0,3.439084291E0,7.534101009E0
1.321020262E1,-2.469393015E0,3.743271828E0,7.299604416E0
1.322899605E1,-1.868495345E0,3.344567776E0,7.978269100E0
1.324778757E1,-1.352542996E0,2.798705101E0,9.192028046E0
1.326658059E1,-9.230313301E-1,2.323430777E0,9.601499557E0
1.328537345E1,-1.441376567E0,2.254039049E0,8.864211082E0
1.330416699E1,-2.025524378E0,2.507678032E0,7.304390430E0
1.332296017E1,-1.992024899E0,2.798705101E0,6.152844429E0
1.334175366E1,-1.885245085E0,3.332603693E0,5.906383514E0
1.336054824E1,-1.888834357E0,3.971786499E0,6.252146244E0
1.337934329E1,-2.057827473E0,4.250849247E0,6.573083878E0
1.339813699E1,-2.614457846E0,4.240081787E0,6.961917400E0
1.341692944E1,-3.183052301E0,4.169194221E0,7.890930653E0
1.343572256E1,-3.604189157E0,4.001696587E0,9.107083321E0
1.345451590E1,-3.951447487E0,3.748057604E0,1.044915771E1
1.347330829E1,-3.714558125E0,3.465405464E0,1.118046379E1
1.349210319E1,-3.373281717E0,3.307479143E0,1.132762241E1
1.351089741E1,-3.547957659E0,3.312264681E0,1.099382401E1
1.352969012E1,-4.154837608E0,3.283550978E0,1.090857887E1
1.354848329E1,-4.394418716E0,3.000898600E0,1.114696407E1
1.356727928E1,-4.225724697E0,2.924328327E0,1.084158039E1
1.358607439E1,-4.310669899E0,3.362514019E0,1.001216793E1
1.360486960E1,-4.402793884E0,3.834199190E0,9.673284531E0
1.362366355E1,-4.201497555E0,3.731307745E0,1.014855862E1
1.364245944E1,-3.882055521E0,3.199802160E0,1.058794117E1
1.366125506E1,-3.862913132E0,2.889632463E0,1.021675491E1
1.368005137E1,-3.994518280E0,3.063112020E0,9.165707588E0
1.369884532E1,-3.766003847E0,3.409173965E0,8.254939079E0
1.371763897E1,-3.425923824E0,3.628117323E0,7.813164234E0
1.373643303E1,-3.521636724E0,3.613760471E0,7.451549053E0
1.375522699E1,-4.001696587E0,3.522833109E0,7.118946552E0
1.377402220E1,-4.360919476E0,3.433102369E0,7.182356358E0
1.379281689E1,-4.325026989E0,3.488137245E0,7.585845947E0
1.381161132E1,-4.212564468E0,3.573082447E0,8.009375572E0
1.383040559E1,-4.208675861E0,3.610171080E0,8.210671425E0
1.384919970E1,-4.235296249E0,3.684647799E0,8.201100349E0
1.386799585E1,-4.135694981E0,3.789932013E0,8.459525108E0
1.388679189E1,-4.041178226E0,3.715754509E0,9.032905579E0
1.390558788E1,-4.014857292E0,3.541975737E0,9.388538361E0
1.392438288E1,-3.914358854E0,3.537189960E0,9.356235504E0
1.394317788E1,-3.653541088E0,3.608974695E0,9.079565048E0
1.396197506E1,-3.549154282E0,3.734897137E0,8.742177963E0
1.398077022E1,-3.618546009E0,3.865305901E0,8.410472870E0
1.399956293E1,-3.516851187E0,3.970590115E0,8.394919395E0
1.401835777E1,-3.384049416E0,3.962215185E0,8.859425545E0
1.403715298E1,-3.407977581E0,3.690629721E0,9.611071587E0
1.405594704E1,-3.448655605E0,3.250051260E0,9.947562218E0
1.407474064E1,-3.546761274E0,3.076272726E0,9.655338287E0
1.409353538E1,-3.490530014E0,3.212962627E0,9.349057198E0
1.411232939E1,-3.248854876E0,3.385245800E0,9.338289261E0
1.413112215E1,-3.076272726E0,3.338585854E0,9.232706070E0
1.414991574E1,-3.285943747E0,3.401995659E0,9.034101486E0
1.416870871E1,-3.318246841E0,3.519243956E0,8.985049248E0
1.418750199E1,-3.081058264E0,3.614956856E0,8.719446182E0
1.420629579E1,-2.974577665E0,3.801896095E0,8.325527191E0
1.422508845E1,-3.043969393E0,3.931108475E0,8.113463402E0
1.424388303E1,-3.114856958E0,3.944268942E0,8.003393173E0
1.426267626E1,-3.423531055E0,3.872484446E0,8.175975800E0
1.428147022E1,-3.726522207E0,3.728914976E0,8.392526627E0
1.430026418E1,-3.624528170E0,3.619742393E0,8.294420242E0
1.431905673E1,-3.369692564E0,3.701397419E0,8.225028992E0
1.433784845E1,-2.820240498E0,3.939483404E0,8.382954597E0
1.435663980E1,-2.804687262E0,4.031607151E0,6.476174355E0
1.437543048E1,-3.774378538E0,4.066302776E0,5.026422977E0
1.439422173E1,-3.998107433E0,3.867698669E0,8.284849167E0
1.441301449E1,-3.708575964E0,3.907180309E0,9.615857124E0
1.443180543E1,-3.534797192E0,3.900001764E0,7.487441063E0
1.445486658E1,-4.888835907E0,2.769991398E0,8.060821533E0
1.447367132E1,-5.407180786E0,2.786741018E0,7.318747044E0
1.449247762E1,-5.694319725E0,2.673082113E0,7.374978542E0
1.451128236E1,-5.807978630E0,2.560619354E0,8.067999840E0
1.453008861E1,-5.535196781E0,2.414358139E0,8.670093536E0
1.454889340E1,-5.203492165E0,2.341377020E0,8.769695282E0
1.456769965E1,-5.474180222E0,2.385644197E0,8.647361755E0
1.458650439E1,-5.580660820E0,2.285145521E0,8.449954033E0
1.460531069E1,-5.348556995E0,2.188236237E0,8.330312729E0
1.462411543E1,-5.085047245E0,2.240878344E0,8.336295128E0
1.464292174E1,-5.009673119E0,2.239681959E0,8.318348885E0
1.466172648E1,-5.187938690E0,2.228914261E0,8.372187614E0
1.468053272E1,-5.254937649E0,2.100898266E0,8.557631493E0
1.469933752E1,-5.030012131E0,1.937887192E0,8.817551613E0
1.471814377E1,-4.615755081E0,1.875673890E0,9.002995491E0
1.473694851E1,-4.062713623E0,1.969292998E0,9.116654396E0
1.475575481E1,-3.495315790E0,2.108076811E0,9.302396774E0
1.477455955E1,-3.039183855E0,2.212164640E0,9.634999275E0
1.479336585E1,-2.557030201E0,2.231307030E0,9.989436150E0
1.481217059E1,-2.032702923E0,2.039881229E0,1.006241703E1
1.483097684E1,-1.767996788E0,1.905584097E0,9.855438232E0
1.484978158E1,-1.674676776E0,1.975275040E0,9.590732574E0
1.486858788E1,-1.598106384E0,2.091326952E0,9.401699066E0
1.488739262E1,-1.466501236E0,2.266003132E0,9.465108871E0
1.490619892E1,-1.101296663E0,2.366501570E0,9.562018394E0
1.492500366E1,-9.170492887E-1,2.403590441E0,9.609874725E0
1.494380991E1,-1.052243710E0,2.269592285E0,9.796515465E0
1.496261465E1,-1.189831018E0,2.104487419E0,1.010309505E1
1.498142095E1,-1.163509965E0,2.023131609E0,1.044915771E1
1.500022569E1,-1.036690354E0,2.026720762E0,1.058435154E1
1.501903200E1,-7.540382147E-1,2.068595171E0,1.030528927E1
1.503783674E1,-4.668995142E-1,2.225325108E0,9.809675217E0
1.505664299E1,-1.124626622E-1,2.376072884E0,9.399306297E0
1.507544773E1,1.363908947E-1,2.476571321E0,9.267701149E0
1.509425403E1,2.476571500E-1,2.573779821E0,9.417252541E0
1.511305877E1,3.963112533E-1,2.533101797E0,9.613464355E0
1.513186502E1,3.197409213E-1,2.643171787E0,9.621838570E0
1.515066976E1,1.722832322E-1,2.858525753E0,9.282057762E0
1.516947606E1,2.991028316E-2,3.033201694E0,8.643773079E0
1.518828080E1,-2.440679073E-1,3.185445070E0,8.150851250E0
1.520708497E1,-5.410770178E-1,3.375674486E0,8.053643227E0
1.522587627E1,-6.080760360E-1,3.504886866E0,8.320741653E0
1.524466465E1,-3.807578981E-1,3.471387386E0,8.491828918E0
1.526345398E1,-2.129612118E-1,3.384049416E0,8.521739006E0
1.528224304E1,-1.411765367E-1,3.267997503E0,8.561220169E0
1.530103267E1,-4.546362907E-2,3.083451033E0,8.630612373E0
1.531982174E1,-2.751746029E-2,2.911167860E0,8.660522461E0
1.533861366E1,5.982056726E-3,2.814258575E0,8.736195564E0
1.535740299E1,-1.256231815E-1,2.809472799E0,9.129815102E0
1.537619267E1,-3.161516786E-1,2.813062191E0,9.521340370E0
1.539498148E1,-2.632105052E-1,2.688635349E0,9.489037514E0
1.541377127E1,-2.632104978E-2,2.477767944E0,8.946763992E0
1.543255872E1,4.785645381E-2,2.273181438E0,8.294420242E0
1.545134773E1,-6.699903309E-2,2.085345030E0,7.640881062E0
1.547013559E1,-5.623133108E-2,1.820638895E0,7.370193005E0
1.548892361E1,-1.722832322E-1,1.561017632E0,6.814758778E0
1.550771278E1,-5.518447161E-1,1.533500195E0,6.659225464E0
1.552650137E1,-9.996016622E-1,1.633998752E0,7.006184578E0
1.554529028E1,-1.169492126E0,1.779960990E0,7.151249409E0
1.556407929E1,-1.071386337E0,1.976471543E0,6.952346325E0
1.558286747E1,-1.205384374E0,1.987239242E0,7.050751209E0
1.560165700E1,-1.411466241E0,2.239681959E0,7.747361660E0
1.562044372E1,-1.431805253E0,2.228914261E0,8.087141991E0
1.563923179E1,-1.279561877E0,1.981257200E0,8.648558617E0
1.565802023E1,-1.249651670E0,1.616052628E0,9.743872643E0
1.567681054E1,-1.462911963E0,1.329811215E0,1.045992470E1
1.569560054E1,-1.776371717E0,8.258228898E-1,1.066092205E1
1.571438955E1,-2.312663078E0,2.392822653E-1,1.102253723E1
1.573317694E1,-3.338585854E0,7.896314561E-2,1.325504112E1
1.575196606E1,-3.894019842E0,3.230310604E-2,1.624517250E1
1.577075481E1,-2.894418001E0,3.589233849E-3,1.784327888E1
1.578954439E1,-1.341775298E0,3.640081584E-1,1.815673828E1
1.580833304E1,8.270193338E-1,2.620140910E-1,1.772004890E1
1.582712356E1,2.255235434E0,1.076770201E-2,1.640309906E1
1.584591267E1,2.674278498E0,-1.220339537E-1,1.477747440E1
1.586470158E1,2.705385208E0,-1.950150430E-1,1.302981663E1
1.588348986E1,2.765205622E0,-3.699901998E-1,1.117807102E1
1.590227903E1,2.683849812E0,-5.338985324E-1,9.255437851E0
1.592106762E1,2.271985054E0,-5.434698462E-1,7.475477219E0
1.593985809E1,1.779960990E0,-3.137588799E-1,6.126523495E0
1.595864622E1,5.973083377E-1,4.764707983E-1,5.405984402E0
1.597743653E1,-8.715856671E-1,1.155135155E0,4.884049892E0
1.599622497E1,-1.541875124E0,1.277169108E0,4.413561344E0
1.601501476E1,-1.553839207E0,1.084546804E0,4.173980236E0
1.603380236E1,-1.422233939E0,8.907282352E-1,4.693521500E0
1.605259153E1,-1.378864050E0,7.157530785E-1,5.579464436E0
1.607138028E1,-1.162313581E0,5.003990531E-1,6.606583118E0
1.609016845E1,-8.428717852E-1,2.548356056E-1,7.507780075E0
1.610895720E1,-6.056832075E-1,8.733802289E-2,8.489435196E0
1.612774783E1,-4.944169819E-1,6.939185411E-2,9.538089752E0
1.614653627E1,-3.197409213E-1,9.212367237E-2,9.964311600E0
1.616532455E1,1.016949639E-1,1.387837082E-1,1.004686451E1
1.618411278E1,3.496512175E-1,3.927220106E-1,9.954740524E0
1.620290210E1,3.544368446E-1,7.947162390E-1,9.780961990E0
1.622169007E1,3.604189157E-1,8.620143533E-1,9.236295700E0
1.624047913E1,1.004985496E-1,8.919246197E-1,8.287241936E0
1.625926819E1,-9.517452121E-1,1.230509043E0,7.347461224E0
1.627805616E1,-2.539083958E0,1.663909078E0,6.961917400E0
1.629684424E1,-4.051946163E0,2.190629244E0,7.189534664E0
1.631563298E1,-5.284847736E0,2.627618313E0,8.100302696E0
1.633442069E1,-5.926722527E0,2.584547520E0,9.462716103E0
1.635320929E1,-5.762515068E0,2.118844509E0,1.055444145E1
1.637199694E1,-4.854139805E0,1.486840129E0,1.122233772E1
1.639078559E1,-4.171586990E0,1.125224829E0,1.212263775E1
1.640957356E1,-3.927519321E0,9.936196208E-1,1.356371498E1
1.642836418E1,-3.154338360E0,2.560320199E-1,1.450230026E1
1.644715262E1,-2.518445730E0,-3.317050338E-1,1.434198093E1
1.646594106E1,-2.213361025E0,-3.173480928E-1,1.359123230E1
1.648472913E1,-2.038684845E0,-4.905286431E-2,1.228534985E1
1.650351882E1,-1.834995866E0,3.592225015E-1,1.071117115E1
1.652230757E1,-1.422233939E0,7.145566344E-1,9.025727272E0
1.654109653E1,-9.206385016E-1,9.960124493E-1,7.681559086E0
1.655988476E1,-4.740779996E-1,1.145563841E0,6.757331371E0
1.657867424E1,-3.831507266E-1,1.342971683E0,6.217450619E0
1.659746413E1,-6.260222197E-1,1.551446438E0,5.953043461E0
1.661625356E1,-1.175474167E0,1.644766450E0,5.853442192E0
1.663504262E1,-1.763211131E0,1.687837243E0,5.939883232E0
1.665383116E1,-2.009970903E0,1.695015788E0,6.256932259E0
1.667261939E1,-2.139183521E0,1.684248090E0,6.847062111E0
1.669140752E1,-2.423929453E0,1.741675735E0,7.808378696E0
1.671019450E1,-2.836990356E0,1.846959949E0,8.757730484E0
1.672898470E1,-3.416352510E0,2.021935225E0,9.406484604E0
1.674777314E1,-3.999304056E0,2.181057930E0,9.778569221E0
1.676656314E1,-4.309473515E0,2.112862349E0,1.014736271E1
1.678535299E1,-4.383651257E0,1.995614052E0,1.073390293E1
1.680414215E1,-4.401597023E0,1.918744683E0,1.168684483E1
1.682292996E1,-4.104588032E0,1.507179141E0,1.263739395E1
1.684171866E1,-3.655933857E0,1.040279627E0,1.339861012E1
1.686050684E1,-3.356531858E0,8.413762450E-1,1.395284748E1
1.687929798E1,-2.655135870E0,4.800600410E-1,1.381047535E1
1.689808939E1,-1.501197100E0,-2.512463629E-1,1.321914864E1
1.691687950E1,-7.121638656E-1,-1.127617717E0,1.270558929E1
1.693566845E1,-1.109671474E0,-1.659123421E0,1.200748348E1
1.695445752E1,-2.238485575E0,-1.663909078E0,1.089422226E1
1.697324637E1,-3.123231649E0,-1.347757339E0,9.505786896E0
1.699203590E1,-3.424727440E0,-9.565308690E-1,7.878966808E0
1.701082496E1,-3.206980467E0,-5.470590591E-1,6.291627884E0
1.702961413E1,-2.886043310E0,-2.392822690E-2,5.074279308E0
1.704840241E1,-2.683849812E0,5.075774789E-1,4.517649174E0
1.706719179E1,-2.449054003E0,9.206385016E-1,4.593023300E0
1.708597950E1,-1.993221283E0,1.151545882E0,5.061119080E0
1.710476668E1,-1.618445396E0,1.262812138E0,5.693123341E0
1.712355554E1,-1.329811215E0,1.429412484E0,6.454638958E0
1.714234507E1,-9.326026440E-1,1.485643744E0,7.171588421E0
1.716113304E1,-5.578267574E-1,1.418644667E0,7.810771465E0
1.717992200E1,-5.757729411E-1,1.488036633E0,8.345866203E0
1.719870960E1,-4.764707983E-1,1.437787294E0,8.761320114E0
1.721749830E1,-1.268195957E-1,1.065404296E0,9.071190834E0
1.723628788E1,-5.099703074E-1,9.266205430E-1,9.538089752E0
1.725507809E1,-1.717747569E0,1.004387259E0,1.021316528E1
1.727386825E1,-2.707777977E0,9.517452121E-1,1.046949673E1
1.729265772E1,-3.246462107E0,8.353942037E-1,1.038574791E1
1.731144564E1,-4.179962158E0,9.230313301E-1,1.071834946E1
1.733023559E1,-5.147260666E0,1.228116274E0,1.138385391E1
1.734902439E1,-5.628517151E0,1.446162224E0,1.137189007E1
1.736781257E1,-4.524827480E0,9.469595551E-1,1.072911739E1
1.738660043E1,-3.011666298E0,-3.708875179E-2,1.110030460E1
1.740538918E1,-3.114856958E0,-4.190430641E-1,1.374437332E1
1.742417736E1,-2.911167860E0,-8.632107973E-1,1.585005760E1
1.744296507E1,-2.358126640E0,-1.232901812E0,1.529821205E1
1.746175273E1,-2.256431818E0,-1.001994491E0,1.358644676E1
1.748054043E1,-2.244467735E0,-3.137588799E-1,1.156481075E1
1.749932830E1,-1.857727647E0,3.723830283E-1,9.611071587E0
1.751811595E1,-1.011565804E0,8.282157183E-1,7.942376614E0
1.753690304E1,-6.819544733E-2,1.104885817E0,6.692724705E0
1.755569085E1,4.010969102E-1,1.485643744E0,5.827121258E0
1.757447814E1,4.118646085E-1,1.987239242E0,5.274080276E0
1.759326549E1,3.469592705E-2,2.334198475E0,5.052743912E0
1.761205002E1,-7.001997232E-1,2.519642353E0,5.257330418E0
1.763083908E1,-1.438983679E0,2.384447813E0,5.840281963E0
1.764962804E1,-1.983649969E0,1.959422588E0,6.684350014E0
1.766841762E1,-2.364108801E0,1.441376567E0,7.645666599E0
1.768720627E1,-2.845365286E0,1.061815023E0,8.896514893E0
1.770599465E1,-3.440280676E0,8.126623631E-1,1.064895821E1
1.772478325E1,-3.721736431E0,5.817549825E-1,1.234995556E1
1.774357215E1,-3.856930971E0,6.248258352E-1,1.326700497E1
1.776235996E1,-3.940679789E0,8.895317912E-1,1.321316624E1
1.778114960E1,-3.574278831E0,1.351346612E0,1.277737427E1
1.779993986E1,-2.801098108E0,1.964507341E0,1.249711418E1
1.781872950E1,-1.887637973E0,2.426322222E0,1.217169094E1
1.783751731E1,-8.548358679E-1,2.170290232E0,1.175025463E1
1.785630658E1,-4.310071766E-1,1.630409479E0,1.198714447E1
1.787509569E1,-3.783650696E-1,8.138588071E-1,1.290538979E1
1.789388538E1,-5.219344497E-1,-2.333002090E-1,1.329093361E1
1.791267752E1,-1.198205948E0,-7.121638656E-1,1.229492092E1
1.793146840E1,-2.049452543E0,-7.073782086E-1,1.061904812E1
1.795025653E1,-2.793919563E0,-3.233301640E-1,8.986245155E0
1.796904387E1,-3.096910715E0,2.033899277E-1,7.692326546E0
1.798783054E1,-2.838186741E0,5.171487927E-1,6.803991318E0
1.800661882E1,-2.415554523E0,7.193422914E-1,6.215057850E0
1.802540653E1,-2.044667006E0,9.230313301E-1,5.906383514E0
1.804419658E1,-1.596910000E0,1.109671474E0,5.791228771E0
1.806298460E1,-1.271187067E0,1.235294700E0,5.849853039E0
1.808177398E1,-1.149153113E0,1.287936807E0,6.053542137E0
1.810056220E1,-1.065404296E0,1.177866936E0,6.416054726E0
1.811935080E1,-9.960124493E-1,1.018744230E0,6.891329288E0
1.813813872E1,-8.668000102E-1,9.182456732E-1,7.382156849E0
1.815692809E1,-5.015954375E-1,7.217351198E-1,7.754539967E0
1.817571632E1,-2.500499785E-1,6.583253145E-1,8.117053032E0
1.819450580E1,-2.488535494E-1,7.420741320E-1,8.569595337E0
1.821329465E1,-4.010969102E-1,7.109674215E-1,9.043673515E0
1.823208497E1,-8.353942037E-1,6.487540603E-1,9.527322769E0
1.825087403E1,-1.399203062E0,7.205387354E-1,9.898509026E0
1.826966335E1,-2.099701881E0,9.218349457E-1,1.006361389E1
1.828845153E1,-3.138785124E0,1.386042476E0,1.020837975E1
1.830724064E1,-3.690629721E0,1.796710730E0,1.039531898E1
1.832602783E1,-3.897608995E0,1.885245085E0,1.084277630E1
1.834481507E1,-4.314259052E0,2.012363911E0,1.141376400E1
1.836360304E1,-4.704289436E0,1.933101535E0,1.165214920E1
1.838239158E1,-3.880859137E0,7.540382147E-1,1.157079315E1
1.840117981E1,-3.100499868E0,-3.329014480E-1,1.190578842E1
1.841996856E1,-3.317050457E0,-6.020939946E-1,1.366899967E1
1.843875809E1,-2.809472799E0,-1.051047325E0,1.505294800E1
1.845754783E1,-1.802692771E0,-1.332203984E0,1.494766426E1
1.847633590E1,-1.387238979E0,-9.409775138E-1,1.344527054E1
1.849512601E1,-1.356132269E0,-1.387837082E-1,1.134078312E1
1.851391465E1,-1.018744230E0,4.381856322E-1,9.198010445E0
1.853270372E1,-4.692923427E-1,8.054839373E-1,7.441977501E0
1.855149137E1,6.221338734E-2,1.085743308E0,6.243771553E0
1.857027991E1,2.488535494E-1,1.399203062E0,5.589035511E0
1.858906934E1,-7.776673883E-2,1.840977907E0,5.305186749E0
1.860785918E1,-8.198408484E-1,2.263610125E0,5.150849819E0
1.862664830E1,-1.442572951E0,2.545065880E0,4.945066929E0
1.864543887E1,-1.964507341E0,2.649153709E0,4.925924301E0
1.866422918E1,-2.631207705E0,2.737688303E0,5.538786411E0
1.868301887E1,-3.394817114E0,2.384447813E0,7.443173885E0
1.870180887E1,-3.947858334E0,1.508375525E0,9.613464355E0
1.872060023E1,-4.252045631E0,1.013958573E0,1.084397316E1
1.873939116E1,-4.922335148E0,1.521536112E0,1.112183952E1
1.875818231E1,-5.428716183E0,2.295913219E0,1.112303638E1
1.877697278E1,-5.927918911E0,2.459821701E0,1.153729343E1
1.879576293E1,-5.889334679E0,2.140379906E0,1.273310661E1
1.881455345E1,-5.456233978E0,1.818246126E0,1.340459251E1
1.883334486E1,-4.901996136E0,1.942672849E0,1.283599758E1
1.885213413E1,-4.178765774E0,1.983649969E0,1.219920826E1
1.887092517E1,-3.416352510E0,1.630409479E0,1.213699436E1
1.888971486E1,-2.441875458E0,6.714858413E-1,1.213579845E1
1.890850569E1,-1.966900229E0,-2.524427772E-1,1.175025463E1
1.892729520E1,-2.151147604E0,-6.355935335E-1,1.100339508E1
1.894608666E1,-2.643171787E0,-6.068796515E-1,9.866206169E0
1.896487775E1,-3.079861879E0,-3.472583890E-1,8.337491035E0
1.898366895E1,-3.252444267E0,-9.571290575E-3,6.707081795E0
1.900245900E1,-2.927917719E0,1.758724600E-1,5.211866856E0
1.902125145E1,-2.449054003E0,4.070789516E-1,4.037589073E0
1.904004223E1,-2.261217356E0,8.078767657E-1,3.344567776E0
1.905883041E1,-2.310270309E0,1.238883972E0,3.083451033E0
1.907762057E1,-2.334198475E0,1.363310695E0,3.087339401E0
1.909641307E1,-2.419143677E0,1.739282966E0,3.710968733E0
1.911520437E1,-2.838186741E0,2.350948334E0,4.755734921E0
1.913399578E1,-3.607778311E0,2.781955481E0,6.311966896E0
1.915278708E1,-2.753241539E0,2.492124796E0,8.613862038E0
1.917157885E1,-1.077368379E0,1.778764486E0,1.040010452E1
1.919036958E1,-1.231705427E0,1.695015788E0,1.178973579E1
1.920916036E1,-3.077469110E0,2.068595171E0,1.270199966E1
1.922795057E1,-4.423132420E0,2.099701881E0,1.240977669E1
1.924674244E1,-4.772783756E0,1.543071508E0,1.163779163E1
1.926553203E1,-5.099404335E0,9.170492887E-1,1.088584709E1
1.928432338E1,-5.929115295E0,1.023529887E0,1.016530895E1
1.930311260E1,-6.069095612E0,1.162313581E0,9.355039597E0
1.932190333E1,-6.071488380E0,6.595217586E-1,9.250652313E0
1.934069265E1,-5.984150410E0,-5.623133108E-2,1.007557774E1
1.935948197E1,-5.471786976E0,-8.823533654E-1,1.111466122E1
1.937827286E1,-5.065904617E0,-1.444965720E0,1.253420353E1
1.939706348E1,-4.607379913E0,-1.695015788E0,1.355892944E1
1.941585281E1,-3.949054718E0,-1.515554070E0,1.327657604E1
1.943464364E1,-3.242872953E0,-8.536394835E-1,1.184955692E1
1.945343291E1,-2.317448616E0,-1.938186288E-1,9.969097137E0
1.947222510E1,-1.359721422E0,4.812564552E-1,8.233403206E0
1.949101473E1,-5.303093195E-1,1.110867858E0,7.002595425E0
1.950980463E1,4.307080805E-2,1.521536112E0,6.168397903E0
1.952859468E1,2.632105052E-1,1.882852316E0,5.451447964E0
1.954738551E1,1.818545163E-1,2.361716032E0,5.026422977E0
1.956617468E1,-1.148554832E-1,2.905185699E0,5.201098919E0
1.958496458E1,-5.291129351E-1,3.236890793E0,5.981757641E0
1.960375328E1,-8.715856671E-1,3.184248686E0,7.301997185E0
1.962254301E1,-9.661021233E-1,2.927917719E0,8.520542145E0
1.964133171E1,-1.556231976E0,2.786741018E0,9.367003441E0
1.966012140E1,-2.657528639E0,2.967399120E0,1.014377308E1
1.967891067E1,-2.918346405E0,2.756830692E0,1.035314560E1
1.969769937E1,-3.036791086E0,2.327019930E0,1.079850960E1
1.971648734E1,-3.507279873E0,2.170290232E0,1.178614712E1
1.973527775E1,-3.710968733E0,1.990828395E0,1.246481133E1
1.975406567E1,-3.320639610E0,1.770389676E0,1.302861977E1
1.977285442E1,-2.337787628E0,1.832603097E0,1.342014599E1
1.979164312E1,-1.253240824E0,2.214557409E0,1.392891979E1
1.981043328E1,3.230310604E-2,2.092523336E0,1.417657661E1
1.982922119E1,1.151545882E0,1.370489120E0,1.371685600E1
1.984801067E1,1.365703583E0,6.894320250E-1,1.258564854E1
1.986679796E1,5.817549825E-1,4.262215197E-1,1.108594704E1
1.988558807E1,-5.841478109E-1,4.262215197E-1,9.321539879E0
1.990437578E1,-1.497607827E0,5.099703074E-1,7.464709282E0
1.992316369E1,-1.815853238E0,5.147559643E-1,5.935097694E0
1.994195249E1,-1.879263043E0,5.099703074E-1,4.784748077E0
1.996074067E1,-2.059023857E0,7.791628838E-1,4.194318771E0
1.997952812E1,-2.200200319E0,1.147956610E0,4.199104786E0
1.999831781E1,-2.221735716E0,1.398006678E0,4.526023865E0
2.001710713E1,-2.129612207E0,1.533500195E0,5.075475693E0
2.003589578E1,-2.091326952E0,1.569392562E0,5.857031822E0
2.005468520E1,-2.256431818E0,1.726122379E0,7.201498985E0
2.007347400E1,-2.388036966E0,1.879263043E0,8.568398476E0
2.009226145E1,-2.091326952E0,1.861316919E0,9.123832703E0
2.011105005E1,-1.427019596E0,1.764407635E0,9.363413811E0
2.012983900E1,-1.030708313E0,1.717747569E0,9.631410599E0
2.014863020E1,-1.465304732E0,1.785943031E0,1.049701405E1
2.016741895E1,-2.084148407E0,1.825424552E0,1.131805134E1
2.018620781E1,-2.511267424E0,1.955833435E0,1.152413273E1
2.020499624E1,-2.656332254E0,2.118844509E0,1.146640587E1
2.022378546E1,-2.558226585E0,2.228914261E0,1.152652550E1
2.024257291E1,-2.878864765E0,2.435893536E0,1.132881927E1
2.026135999E1,-3.118446112E0,2.111665964E0,1.097587776E1
2.028014791E1,-3.720540047E0,1.789532185E0,1.141496086E1
2.029893718E1,-4.661218643E0,1.593320727E0,1.284437275E1
2.031772437E1,-4.893621445E0,1.076171994E0,1.393011570E1
2.033651380E1,-4.268795490E0,5.685944557E-1,1.378056431E1
2.035530301E1,-3.431905985E0,4.848456979E-1,1.263858986E1
2.037438062E1,-2.489732027E0,8.727820516E-1,1.032802105E1
2.039357176E1,-2.068595171E0,1.138385415E0,8.840283394E0
2.041276203E1,-1.729711652E0,1.256830096E0,7.585845947E0
2.043195156E1,-1.503589988E0,1.375274777E0,6.625725746E0
2.045114041E1,-1.453340650E0,1.514357686E0,5.967400551E0
2.047032864E1,-1.478465319E0,1.704586983E0,5.671587944E0
2.048951630E1,-1.430608869E0,1.754836321E0,5.348556995E0
2.050870343E1,-1.389631748E0,1.818246126E0,5.021637440E0
2.052789015E1,-1.547857165E0,2.152343988E0,5.183153152E0
2.054707645E1,-1.599302888E0,2.486142635E0,6.023632050E0
2.056626234E1,-1.667498231E0,2.680260420E0,6.952346325E0
2.058544786E1,-1.756032705E0,2.765205622E0,7.926823139E0
2.060463307E1,-1.745265007E0,2.606082916E0,8.961120605E0
2.062381801E1,-1.770389676E0,2.300698996E0,1.025862885E1
2.064300275E1,-1.685444474E0,1.998006940E0,1.136112213E1
2.066218728E1,-1.702194214E0,1.919941068E0,1.202662563E1
2.068137161E1,-1.849352837E0,2.069791555E0,1.225185013E1
2.070055578E1,-1.818246126E0,2.215753794E0,1.229013538E1
2.071973973E1,-1.450947881E0,2.378465652E0,1.248156071E1
2.073892359E1,-1.051047325E0,2.390429735E0,1.278574848E1
2.075810728E1,-8.102695942E-1,2.566601276E0,1.304537010E1
2.077729088E1,-2.500499785E-1,2.708974361E0,1.305972672E1
2.079647442E1,9.332008660E-2,2.383251429E0,1.316979694E1
2.081565796E1,-2.404786795E-1,1.566999674E0,1.302742386E1
2.083483406E1,-1.003190875E0,8.258228898E-1,1.251984596E1
2.085372619E1,-1.611266971E0,7.564310431E-1,1.147956657E1
2.087253166E1,-1.819442511E0,1.200598717E0,9.954740524E0
2.089133708E1,-1.642373681E0,1.671087503E0,8.342276573E0
2.091014255E1,-1.326221943E0,1.814656854E0,6.926024914E0
2.092894796E1,-1.175474167E0,1.801496387E0,5.870192051E0
2.094774499E1,-1.213759303E0,1.809871197E0,5.156831741E0
2.096653411E1,-1.165902853E0,1.643570065E0,4.709074974E0
2.098532218E1,-1.327418327E0,1.504786372E0,4.716253281E0
2.100410979E1,-1.691426516E0,1.472483277E0,5.119743347E0
2.102289687E1,-1.771586061E0,1.340578914E0,5.392824173E0
2.104168296E1,-1.608874083E0,1.140778184E0,5.927918911E0
2.106046781E1,-1.415055513E0,8.979067206E-1,6.783652306E0
2.107925223E1,-1.170688510E0,6.248258352E-1,7.697112083E0
2.109803833E1,-1.090528965E0,3.400799036E-1,8.484649658E0
2.111682583E1,-8.727820516E-1,1.447657645E-1,9.279664993E0
2.113561333E1,-6.415755749E-1,5.315057039E-1,9.650552750E0
2.115440020E1,-4.034897089E-1,1.450947881E0,9.530911446E0
2.117318916E1,2.572284341E-1,1.925923109E0,9.423234940E0
2.119197796E1,3.544368446E-1,1.830210209E0,1.018445110E1
2.121076713E1,1.902294010E-1,1.669891119E0,1.172632694E1
2.122955588E1,8.255238086E-2,1.662712693E0,1.263858986E1
2.124834291E1,-3.484548032E-1,1.807478428E0,1.334836102E1
2.126713171E1,-7.767700553E-1,1.860120535E0,1.432523060E1
2.128592083E1,-9.948160052E-1,2.074577332E0,1.420648670E1
2.130471046E1,-1.636391640E0,2.407179594E0,1.300828075E1
2.132349984E1,-2.839383125E0,2.249253273E0,1.267208958E1
2.134229046E1,-3.424727440E0,1.538285851E0,1.359242916E1
2.136108161E1,-2.435893536E0,4.094717801E-1,1.407727432E1
2.137987124E1,-1.424626827E0,3.496512175E-1,1.370489216E1
2.139866041E1,-9.804590940E-1,1.158724308E0,1.321675587E1
2.141744885E1,-2.958126962E-1,1.570588946E0,1.239661598E1
2.143623874E1,3.352942765E-1,1.566999674E0,1.077338505E1
2.145503140E1,2.548356056E-1,1.624427438E0,8.775676727E0
2.147382270E1,-1.136590764E-1,1.868495345E0,6.963113785E0
2.149261364E1,-2.297109663E-1,2.140379906E0,5.662016392E0
2.151140400E1,-4.426721856E-2,2.373680115E0,4.911567688E0
2.153019411E1,1.519442350E-1,2.614457846E0,4.772783756E0
2.154898432E1,1.591227055E-1,2.720938444E0,4.985744953E0
2.156777421E1,-1.256231815E-1,2.565404892E0,4.977370262E0
2.158656348E1,-6.284150481E-1,2.270788670E0,5.065904617E0
2.160535208E1,-1.293918848E0,2.108076811E0,5.344967365E0
2.162413958E1,-1.867298961E0,2.206182480E0,5.852245808E0
2.164292775E1,-2.030309916E0,2.309073925E0,6.808776855E0
2.166171661E1,-2.277967215E0,2.207378864E0,8.339883804E0
2.168050551E1,-2.607279301E0,1.653141379E0,1.056999493E1
2.169929400E1,-3.226123095E0,1.138385415E0,1.273908901E1
2.171808374E1,-4.115355968E0,1.502393484E0,1.356610775E1
2.173687234E1,-4.980959415E0,2.245664120E0,1.360558987E1
2.175565926E1,-4.812265396E0,2.388036966E0,1.406770325E1
2.177444692E1,-3.835395575E0,2.243271112E0,1.465424442E1
2.179323572E1,-3.191427231E0,2.283949137E0,1.403659630E1
2.181202578E1,-3.437887907E0,2.708974361E0,1.271755314E1
2.183081478E1,-3.552743435E0,2.516052961E0,1.140538883E1
2.184960453E1,-3.602992773E0,2.024327993E0,1.000498962E1
2.186839656E1,-4.008875370E0,1.931905150E0,9.270093918E0
2.188718635E1,-3.980161428E0,1.811067581E0,9.475876808E0
2.190597562E1,-3.687040567E0,1.600499272E0,9.758230209E0
2.192476531E1,-3.431905985E0,1.563410521E0,9.254241943E0
2.194355562E1,-3.305086374E0,1.873281002E0,7.937591076E0
2.196234650E1,-3.114856958E0,2.199003935E0,6.454638958E0
2.198113551E1,-2.947060108E0,2.362912416E0,5.455037594E0
2.199992572E1,-2.953042269E0,2.409572363E0,5.169992447E0
2.201871494E1,-2.908775091E0,2.352144718E0,5.282454967E0
2.203750562E1,-2.791526794E0,2.299502611E0,5.572285652E0
2.205629489E1,-2.489732027E0,2.297109842E0,5.748157978E0
2.207508374E1,-2.145165443E0,2.487339020E0,5.641677380E0
2.209387312E1,-2.039881229E0,2.793919563E0,5.652445316E0
2.211266338E1,-2.361716032E0,3.069094181E0,6.065506458E0
2.213145176E1,-2.780759096E0,3.167499065E0,6.843472958E0
2.215024171E1,-3.126821041E0,3.366103172E0,7.488637447E0
2.216903150E1,-3.289532900E0,3.713361740E0,8.075178146E0
2.218782067E1,-3.071486950E0,3.727718592E0,8.568398476E0
2.220661031E1,-3.397209883E0,3.868895054E0,9.533304214E0
2.222540046E1,-4.211368084E0,4.218546391E0,1.077458096E1
2.224419275E1,-4.316651821E0,4.414757729E0,1.128574753E1
2.226298322E1,-3.792324781E0,4.341776848E0,1.098066330E1
2.228177249E1,-3.834199190E0,4.493721008E0,1.025384331E1
2.230056333E1,-4.681557655E0,4.836193562E0,9.735498428E0
2.231935390E1,-5.477769375E0,4.796711922E0,9.755837440E0
2.233814463E1,-5.507679462E0,4.205086708E0,1.035434151E1
2.235693468E1,-5.020441055E0,3.649951935E0,1.145085239E1
2.237572510E1,-4.704289436E0,3.679862022E0,1.371087360E1
2.239451619E1,-3.455834150E0,2.906382322E0,1.587996769E1
2.241330614E1,-2.402393818E0,2.270788670E0,1.574238014E1
2.243209682E1,-2.116451740E0,2.366501570E0,1.349432373E1
2.245088989E1,-1.875673890E0,2.845365286E0,1.064297581E1
2.246968067E1,-1.366899967E0,3.153141975E0,8.422436714E0
2.248847140E1,-1.024726272E0,3.233301640E0,7.209873676E0
2.250726192E1,-9.349954724E-1,3.209373474E0,6.640082836E0
2.252605197E1,-1.006780148E0,3.233301640E0,6.248557091E0
2.254484275E1,-1.284347534E0,3.357728481E0,5.948257923E0
2.256363348E1,-1.860120535E0,3.401995659E0,5.868995667E0
2.258242234E1,-2.427518606E0,3.550350666E0,6.104988098E0
2.260121015E1,-2.919542789E0,3.768396616E0,6.541976929E0
2.261999984E1,-3.092125177E0,3.714558125E0,6.983452797E0
2.263879020E1,-3.315854073E0,3.642474174E0,7.452745438E0
2.265757838E1,-3.748057604E0,3.777967930E0,8.063214302E0
2.267636770E1,-3.998107433E0,3.988536358E0,8.660522461E0
2.269515583E1,-4.153641224E0,4.123730659E0,8.993423462E0
2.271394494E1,-4.606183529E0,4.359723091E0,9.273683548E0
2.273273510E1,-5.046761990E0,4.527220249E0,9.585947037E0
2.275152359E1,-5.062315464E0,4.480560303E0,1.015095139E1
2.277031260E1,-4.479363918E0,3.898805380E0,1.067049313E1
2.278910213E1,-4.482953072E0,3.308675528E0,1.090618610E1
2.280788968E1,-4.789533615E0,2.986541748E0,1.025503922E1
2.282667843E1,-4.733003139E0,2.901596546E0,9.031708717E0
2.284546640E1,-4.630111694E0,3.026023388E0,7.992625713E0
2.286425385E1,-4.830211639E0,3.117249727E0,7.230212688E0
2.288304166E1,-5.104189873E0,3.346960783E0,6.787241459E0
2.290182911E1,-4.855336189E0,3.422334671E0,6.550352097E0
2.292061687E1,-4.725824833E0,3.374478102E0,6.524031162E0
2.293940437E1,-4.899603367E0,3.321835995E0,5.915955067E0
2.295819270E1,-5.696712494E0,3.525225878E0,3.938287020E0
2.297698078E1,-6.225825310E0,3.649951935E0,7.630113125E0
2.299576854E1,-5.731408596E0,3.500101328E0,1.029691410E1
2.301519400E1,-3.685844183E0,3.994518280E0,8.589934349E0
2.303270526E1,-3.761218071E0,3.920340776E0,7.737790108E0
2.305149047E1,-3.380460262E0,4.185944080E0,8.299205780E0
2.307027724E1,-2.392822742E0,4.234099865E0,9.271290779E0
2.308906463E1,-1.624427438E0,4.069892406E0,9.661320686E0
2.310785234E1,-1.418644667E0,3.977768660E0,9.298808098E0
2.312663979E1,-1.870888233E0,4.006482601E0,8.604290962E0
2.314542885E1,-2.570190668E0,3.941876173E0,8.099106789E0
2.316421604E1,-3.090928555E0,3.687040567E0,7.877770424E0
2.318300505E1,-3.256033421E0,3.309871912E0,7.841877937E0
2.320179286E1,-3.254837036E0,2.858525753E0,7.789236069E0
2.322057994E1,-3.474976778E0,2.796312332E0,7.872984886E0
2.323936453E1,-3.608974695E0,2.707777977E0,8.149654388E0
2.325815109E1,-3.587439299E0,2.627618313E0,8.433204651E0
2.327693807E1,-3.307479143E0,2.711367130E0,8.351848602E0
2.329572531E1,-2.825026274E0,2.572583437E0,7.634898663E0
2.331451271E1,-2.819044113E0,2.482553482E0,6.826723099E0
2.333329937E1,-3.085843801E0,2.432304144E0,6.535995007E0
2.335208791E1,-3.149552822E0,2.078166485E0,6.674778938E0
2.337087500E1,-2.601297379E0,1.655534148E0,7.169195652E0
2.338966052E1,-1.762014747E0,1.289133191E0,7.941180229E0
2.340844729E1,-1.576570988E0,3.412763178E-1,7.798807144E0
2.342723203E1,-2.753241539E0,-2.273181528E-1,6.898507595E0
2.344601713E1,-3.376870871E0,-6.460621208E-2,7.030412197E0
2.346480265E1,-4.430311203E0,2.739782035E-1,7.106982231E0
2.348358953E1,-4.913960457E0,9.302098155E-1,7.450352192E0
2.350237416E1,-2.978166819E0,1.600499272E0,8.768498421E0
2.352116114E1,-2.087737799E0,2.061416626E0,9.874580383E0
2.353994797E1,-2.676671267E0,2.068595171E0,9.532108307E0
2.355873510E1,-3.655933857E0,1.540678620E0,8.847461700E0
2.357752083E1,-3.519243956E0,2.434697151E0,7.768897057E0
2.359630708E1,-3.728914976E0,3.766003847E0,8.029714584E0
2.361509406E1,-4.595416069E0,3.323032379E0,9.267701149E0
2.363387989E1,-5.597410202E0,1.946262121E0,1.165214920E1
2.365266661E1,-6.790830612E0,9.445667267E-1,1.310040474E1
2.367145286E1,-8.500203133E0,9.553344250E-1,1.248754311E1
2.369023651E1,-7.591827869E0,1.601695657E0,1.148315620E1
2.370902286E1,-4.985744953E0,1.937887192E0,1.261196995E1
2.372780922E1,-2.742473841E0,1.290329576E0,1.515703583E1
2.374659661E1,-3.544368446E-1,-7.253243923E-1,1.722802353E1
2.376538270E1,5.422734022E-1,-2.373680115E0,1.657089424E1
2.378416864E1,-4.621138871E-1,-2.341377020E0,1.219083309E1
2.380295489E1,-2.030309916E0,-9.744769931E-1,7.905287743E0
2.382174218E1,-3.417548895E0,6.056832075E-1,5.852245808E0
2.384052724E1,-3.576671600E0,1.515554070E0,5.953043461E0
2.385931224E1,-3.180659533E0,1.919941068E0,6.564708710E0
2.387809666E1,-2.766402006E0,1.526321769E0,6.782455921E0
2.389688172E1,-2.050648928E0,9.756734371E-1,6.796812534E0
2.391566692E1,-7.408776879E-1,7.839485407E-1,6.285645962E0
2.393445213E1,2.548356056E-1,7.935197949E-1,5.638088226E0
2.395323838E1,4.692923427E-1,7.432705164E-1,6.177968979E0
2.397202338E1,8.955138922E-1,7.731808424E-1,6.910471916E0
2.399080870E1,1.695015788E0,5.063810945E-1,7.323532581E0
2.400959349E1,2.333002090E0,1.698904037E-1,7.450352192E0
2.402837781E1,2.431107759E0,-1.351944804E-1,7.666005611E0
2.404716390E1,1.814656854E0,-4.609174728E-1,7.941180229E0
2.406594812E1,1.042672515E0,-4.453641176E-1,7.851449490E0
2.408473198E1,6.200401783E-1,-2.838485837E-1,7.564011574E0
2.410351614E1,-2.763710022E-1,4.334000051E-1,7.740182877E0
2.412230302E1,-1.632802367E0,1.535893083E0,8.761320114E0
2.414108885E1,-2.537887573E0,2.126022816E0,1.003729248E1
2.415987328E1,-2.753241539E0,2.136790514E0,1.094207859E1
2.417865630E1,-2.779562712E0,2.409572363E0,1.177059364E1
2.419744104E1,-2.736491680E0,2.791526794E0,1.231406307E1
2.421622599E1,-1.534696579E0,2.616850615E0,1.262632656E1
2.423501083E1,4.322035909E-1,1.699801445E0,1.299272823E1
2.425379437E1,1.899602056E0,5.949155092E-1,1.209153080E1
2.427257880E1,2.208575249E0,1.447657645E-1,1.082961655E1
2.429136323E1,2.023131609E0,3.065803945E-1,9.712766647E0
2.431014807E1,1.995614052E0,5.889334679E-1,9.183652878E0
2.432893302E1,1.675873160E0,1.531107426E0,9.582357407E0
2.434771765E1,1.785943031E0,1.873281002E0,8.335098267E0
2.436650120E1,2.066202402E0,2.493321180E0,7.620542049E0
2.438528739E1,2.188236237E0,2.956631422E0,6.890132904E0
2.440407218E1,2.695813894E0,2.208575249E0,5.597410202E0
2.442285817E1,2.564208508E0,1.604088426E0,5.737390518E0
2.444164213E1,1.739282966E0,1.224527001E0,6.579065800E0
2.446042494E1,1.692622900E0,6.451647878E-1,7.450352192E0
2.447920744E1,2.443071842E0,-6.221338734E-2,9.745069504E0
2.449799094E1,4.317848682E0,-2.644068897E-1,1.125344467E1
2.451677474E1,4.823033333E0,-4.345964193E-1,1.154925728E1
2.453556047E1,3.557528973E0,-5.709872842E-1,1.167727375E1
2.455434453E1,2.331805706E0,-8.222336769E-1,1.168445206E1
2.457313000E1,2.333002090E0,-1.128814101E0,1.196441269E1
2.459191536E1,3.009273529E0,-1.474876046E0,1.276899910E1
2.461070015E1,3.619742393E0,-2.035095692E0,1.296640682E1
2.462948437E1,3.968197346E0,-2.960220814E0,1.217408371E1
2.464826979E1,4.308277130E0,-3.946661949E0,1.189741325E1
2.466705531E1,3.528815269E0,-4.546362877E0,1.268883896E1
2.468584260E1,2.422732830E0,-4.200301170E0,1.322154140E1
2.470462724E1,1.832603097E0,-3.307479143E0,1.290180016E1
2.472341286E1,1.317847013E0,-2.354537487E0,1.174666500E1
2.474219786E1,8.246265054E-1,-1.153938770E0,1.037109184E1
2.476098401E1,4.453641176E-1,2.512463741E-2,9.139386177E0
2.477976854E1,5.255236626E-1,8.715856671E-1,8.033304214E0
2.479855370E1,9.170492887E-1,1.173081279E0,7.031608582E0
2.481733765E1,1.017547846E0,1.033101201E0,6.006882191E0
2.483612401E1,1.042672515E0,1.010369420E0,5.420341492E0
2.485490864E1,1.124028444E0,9.481559992E-1,5.318347454E0
2.487369338E1,8.811569214E-1,6.260222197E-1,5.286044121E0
2.489248015E1,5.530411601E-1,3.927220106E-1,5.484947681E0
2.491126646E1,6.463612318E-1,3.711866140E-1,6.410072803E0
2.493005166E1,1.173081279E0,9.810572863E-2,7.827520847E0
2.494883854E1,1.090528965E0,9.332008660E-2,9.276076317E0
2.496762354E1,-5.793621540E-1,3.508476317E-1,9.371788979E0
2.498640708E1,-9.278169870E-1,-1.232303679E-1,7.612166882E0
2.500519041E1,9.457631707E-1,-3.053839803E-1,7.380960464E0
2.502397713E1,2.087737799E0,-2.850449979E-1,9.629017830E0
2.504276291E1,1.556231976E0,2.898306549E-1,1.184118176E1
2.506155057E1,9.924231768E-1,2.826521695E-1,1.289701462E1
2.508033682E1,8.210372925E-1,2.524427772E-1,1.348834133E1
2.509912333E1,5.383851007E-2,1.059422255E0,1.318535042E1
2.511790948E1,-3.939184248E-1,1.390828133E0,1.167129135E1
2.513669588E1,4.477569461E-1,4.034897089E-1,1.015693378E1
2.515548213E1,1.925923109E0,-1.096511006E0,1.079731274E1
2.517426932E1,2.467000246E0,-2.031506538E0,1.311356544E1
2.519305557E1,1.978864312E0,-1.952244163E0,1.448674679E1
2.521184208E1,1.635195136E0,-1.365703583E0,1.437906933E1
2.523062817E1,1.788335800E0,-4.645066857E-1,1.311715508E1
2.524941557E1,2.164308071E0,1.950150430E-1,1.112303638E1
2.526820078E1,2.602493763E0,5.171487927E-1,9.184849739E0
2.528698541E1,2.389233351E0,8.596215248E-1,7.675576687E0
2.530576896E1,9.086744189E-1,8.620143533E-1,6.722635269E0
2.532455333E1,4.920241535E-1,6.894320250E-1,6.148058891E0
2.534333849E1,3.125624657E-1,1.135992527E0,5.662016392E0
2.536212370E1,-6.092724800E-1,1.528714538E0,5.067101002E0
2.538090901E1,7.178467698E-3,1.608874083E0,5.178367138E0
2.539969385E1,1.322632670E0,1.714158297E0,6.150451660E0
2.541847786E1,1.990828395E0,2.001596212E0,7.619345665E0
2.543726260E1,2.233700037E0,1.633998752E0,9.244669914E0
2.545604646E1,1.462911963E0,1.533500195E0,1.017846966E1
2.547483083E1,3.735794425E-1,1.855334878E0,9.959526062E0
2.549361588E1,-3.053839803E-1,2.194218397E0,9.542876244E0
2.551240094E1,-3.149552941E-1,2.754437923E0,1.026102161E1
2.553118427E1,-5.264209956E-2,3.405584812E0,1.148315620E1
2.554996817E1,1.091725349E0,3.242872953E0,1.107278633E1
2.556875234E1,3.538386583E0,1.703390598E0,1.015454102E1
2.558753594E1,4.966602325E0,-3.699901998E-1,1.179212952E1
2.560632099E1,3.508476257E0,-1.830210209E0,1.544806290E1
2.562510604E1,1.584945917E0,-1.982453585E0,1.742662811E1
2.564388979E1,5.733801126E-1,-1.721336842E0,1.655145264E1
2.566267521E1,4.429712892E-1,-1.089332461E0,1.376381493E1
2.568145968E1,9.242277741E-1,-1.459621787E-1,1.181964684E1
2.570024422E1,1.159920812E0,7.277171612E-1,1.034357452E1
2.571902833E1,7.815557122E-1,1.259222865E0,8.317152023E0
2.573781239E1,1.722832322E-1,1.386042476E0,6.096612930E0
2.575659599E1,-1.232303679E-1,1.472483277E0,4.571487427E0
2.577538020E1,-1.555334777E-1,1.644766450E0,3.727718592E0
2.579416364E1,1.794617064E-2,1.868495345E0,3.619742393E0
2.581294771E1,2.189432681E-1,2.072184324E0,3.876073599E0
2.583173031E1,5.997011662E-1,2.208575249E0,4.472185612E0
2.585051427E1,1.326221943E0,2.228914261E0,5.505286694E0
2.586929791E1,2.392822742E0,1.919941068E0,6.458228111E0
2.588808198E1,2.947060108E0,1.702194214E0,7.410871029E0
2.590686401E1,2.366501570E0,1.941476464E0,8.514560699E0
2.592564646E1,1.374078393E0,2.106880426E0,9.541679382E0
2.594443067E1,7.061817646E-1,1.628016710E0,1.041924667E1
2.596321396E1,4.704887569E-1,8.572286963E-1,1.206999588E1
2.598199630E1,-3.209373355E-1,1.067797065E0,1.400907898E1
2.600078015E1,-8.054839373E-1,1.771586061E0,1.444726467E1
2.601956469E1,-4.860421121E-1,1.563410521E0,1.375902939E1
2.603835062E1,3.640081584E-1,1.101296663E0,1.363669586E1
2.605713625E1,1.132403374E0,6.212365627E-1,1.411077404E1
2.607592260E1,1.298704505E0,3.077768087E-1,1.436471272E1
2.609470765E1,1.165902853E0,3.652045429E-1,1.387508106E1
2.611349427E1,1.249651670E0,7.205387354E-1,1.224826050E1
2.613227833E1,1.389631748E0,1.192223907E0,9.886545181E0
2.615106286E1,1.691426516E0,1.667498231E0,7.893323898E0
2.616984786E1,1.930708766E0,1.845763564E0,6.148058891E0
2.618863208E1,1.913959026E0,1.899602056E0,4.890032291E0
2.620741656E1,1.598106384E0,2.021935225E0,4.488935471E0
2.622620177E1,1.186241865E0,2.228914261E0,4.912764072E0
2.624498692E1,1.077368379E0,2.394019127E0,5.386841774E0
2.626377333E1,1.356132269E0,2.172683001E0,5.898008823E0
2.628255661E1,1.559821248E0,2.094916344E0,7.073482990E0
2.630134166E1,1.255633712E0,2.165504456E0,8.024929047E0
2.632012698E1,6.487540603E-1,2.054238319E0,8.739784241E0
2.633891333E1,8.377870321E-1,2.165504456E0,9.806086540E0
2.635769922E1,9.804590940E-1,2.371287346E0,1.067767239E1
2.637648614E1,1.562214136E0,2.652743101E0,1.181605721E1
2.639527161E1,2.273181438E0,3.063112020E0,1.305853081E1
2.641405734E1,2.698206663E0,3.506083488E0,1.435274887E1
2.643284172E1,3.265604734E0,3.307479143E0,1.351107311E1
2.645162687E1,4.164408684E0,2.384447813E0,1.145324516E1
2.647041192E1,5.019244671E0,1.521536112E0,1.210349560E1
2.648919635E1,5.725426197E0,-7.776673883E-2,1.543250942E1
2.650797953E1,5.089832783E0,-1.495215058E0,1.567538071E1
2.652676338E1,3.593421459E0,-1.568196177E0,1.238704491E1
2.654554526E1,1.638784409E0,-4.130610228E-1,9.449555397E0
2.656432844E1,7.657032460E-2,7.935197949E-1,7.254140854E0
2.658311120E1,-2.045863420E-1,1.277169108E0,5.733801365E0
2.660200594E1,-1.196411345E-2,1.599302888E0,5.378467083E0
2.662080932E1,-8.679963946E-1,1.949851394E0,5.702694416E0
2.663961526E1,-1.220937729E0,1.857727647E0,6.395715714E0
2.665841974E1,-8.162516356E-1,1.302293777E0,7.145267487E0
2.667722578E1,-2.273181528E-1,1.192223907E0,7.476673603E0
2.669603020E1,3.257229924E-1,1.474876046E0,7.364210606E0
2.671483625E1,1.167099237E0,2.112862349E0,7.132106781E0
2.673364073E1,2.012363911E0,2.991327524E0,6.515655994E0
2.675244672E1,2.811865807E0,3.546761274E0,6.319145679E0
2.677125120E1,2.422732830E0,3.078665495E0,7.435995579E0
2.679005719E1,5.183451772E-1,3.060719252E0,9.172885895E0
2.680886166E1,-6.272186637E-1,3.191427231E0,9.645767212E0
2.682766771E1,-3.927220106E-1,2.826222658E0,9.755837440E0
2.684647219E1,-4.968098104E-1,2.379662037E0,1.014855862E1
2.686527817E1,-2.531905413E0,2.094916344E0,1.069920731E1
2.688408265E1,-4.923531532E0,1.671087503E0,1.032921696E1
2.690288870E1,-6.620940208E0,8.919246197E-1,1.094955635E1
2.692169317E1,-5.508875847E0,-8.488538265E-1,1.333759308E1
2.694049916E1,-5.408377171E0,-1.448554993E0,1.447478199E1
2.695930370E1,-5.453841209E0,-9.314061999E-1,1.478584957E1
2.697810968E1,-4.148855209E0,-3.759722710E-1,1.506969833E1
2.699691416E1,-1.505982757E0,1.028913707E-1,1.484566975E1
2.701570963E1,1.702194214E0,4.944169819E-1,1.461117363E1
2.703449640E1,2.951845884E0,7.253243923E-1,1.314347553E1
2.705328052E1,1.562214136E0,1.537089467E0,1.116849995E1
2.707206552E1,1.854437590E-1,2.246860504E0,8.409276009E0
2.709085005E1,4.369892478E-1,2.151147604E0,6.580262184E0
2.710963547E1,1.110867858E0,2.452643156E0,6.020042896E0
2.712842234E1,1.661516190E0,2.641975403E0,5.761318684E0
2.714720708E1,1.520339727E0,2.876471996E0,5.252544880E0
2.716599270E1,1.188634634E0,3.036791086E0,4.741377831E0
2.718477880E1,1.208973646E0,3.151945591E0,4.741377831E0
2.720356323E1,1.034297585E0,3.142374277E0,5.461019516E0
2.722234880E1,1.125224829E0,3.181855917E0,6.404090881E0
2.724113557E1,1.259222865E0,3.234498024E0,7.197909832E0
2.725992130E1,1.091725349E0,3.232105255E0,8.276473999E0
2.727870729E1,1.018744230E0,3.337389469E0,9.650552750E0
2.729749192E1,1.037886858E0,3.608974695E0,1.122592735E1
2.731627885E1,1.157527924E0,3.428316593E0,1.258923817E1
2.733506583E1,1.796710730E0,2.681456804E0,1.359482193E1
2.735385239E1,2.297109842E0,1.972882271E0,1.375304699E1
2.737263823E1,2.038684845E0,1.801496387E0,1.336989689E1
2.739142510E1,9.672985673E-1,2.196611166E0,1.271276760E1
2.741021229E1,4.310071766E-1,1.819442511E0,1.212024498E1
2.742899927E1,4.573282301E-1,1.019940615E0,1.214297676E1
2.744778640E1,1.375873089E-1,5.243272781E-1,1.208076286E1
2.746657401E1,-8.811569214E-1,5.841478109E-1,1.155882931E1
2.748536166E1,-2.094916344E0,7.995018363E-1,1.032084274E1
2.750414823E1,-2.956631422E0,1.143171072E0,8.903693199E0
2.752293625E1,-3.312264681E0,1.483250976E0,7.560422421E0
2.754172427E1,-2.790330410E0,1.656730533E0,6.687939167E0
2.756051120E1,-2.242074728E0,1.217348576E0,5.927918911E0
2.757929734E1,-2.025524378E0,1.080957651E0,5.289633751E0
2.759808656E1,-1.704586983E0,9.469595551E-1,4.681557655E0
2.761687807E1,-1.058225870E0,8.042874932E-1,4.328616142E0
2.763566890E1,-2.333002090E-1,6.822535396E-1,4.351347923E0
2.765445823E1,5.279164910E-1,6.116653085E-1,4.747360229E0
2.767324687E1,8.823533654E-1,6.930212379E-1,4.879264355E0
2.769203375E1,9.421738982E-1,9.505487680E-1,4.937888622E0
2.771082156E1,1.375274777E0,1.193420291E0,5.453841209E0
2.772960880E1,2.728116989E0,1.344168067E0,5.822335720E0
2.774839552E1,5.022833824E0,9.397810698E-1,7.221837997E0
2.776718187E1,5.384449005E0,2.141576260E-1,9.953543663E0
2.778596864E1,4.463810444E0,-1.758724600E-1,1.220997620E1
2.780475578E1,2.926721096E0,-5.327021480E-1,1.211306667E1
2.782354333E1,1.303490162E0,-5.793621540E-1,1.000738239E1
2.784233088E1,-5.291129351E-1,-1.387837082E-1,1.095912743E1
2.786111916E1,-2.798705101E0,3.520440459E-1,1.107996559E1
2.787990567E1,-5.541179180E0,-1.256231815E-1,1.063101196E1
2.789869166E1,-7.883752346E0,-1.563410521E0,1.174307632E1
2.791747838E1,-9.620642662E0,-2.432304144E0,1.567418480E1
2.793626510E1,-8.967103004E0,-3.089732170E0,1.712393570E1
2.795505198E1,-5.604588985E0,-3.104089260E0,1.697169304E1
2.797383640E1,-1.699801445E0,-1.982453585E0,1.608126450E1
2.799262307E1,9.278169870E-1,-6.104688644E-1,1.475474262E1
2.801141015E1,1.955833435E0,-8.174480200E-1,1.377577877E1
2.803019739E1,1.216152072E0,-1.351346612E0,1.320957756E1
2.804898599E1,-3.340978622E-1,-1.140778184E0,1.288744354E1
2.806777250E1,-7.707880139E-1,-5.769693851E-1,1.181007481E1
2.808656026E1,-6.212365627E-1,-5.195416212E-1,1.008873844E1
2.810534708E1,-2.536391914E-1,-2.572284341E-1,8.388936996E0
2.812413260E1,1.674975827E-2,2.392822653E-1,6.352644920E0
2.814292031E1,2.237289101E-1,3.592225015E-1,4.564309120E0
2.816170682E1,-7.537391037E-2,5.147559643E-1,3.528815269E0
2.818049416E1,-6.619145870E-1,6.655037999E-1,3.043969393E0
2.819928317E1,-1.472483277E0,7.636095285E-1,3.652344704E0
2.821807161E1,-1.955833435E0,1.224527001E0,4.018446445E0
2.823686073E1,-2.598904610E0,1.259222865E0,5.459823132E0
2.825564885E1,-2.624029160E0,1.134796143E0,7.359425068E0
2.827443604E1,-2.771187782E0,8.871390224E-1,9.220742226E0
2.829322385E1,-3.900001764E0,9.337990284E-1,1.096510983E1
2.831201041E1,-5.056333542E0,8.895317912E-1,1.287787247E1
2.833079620E1,-4.552345276E0,-2.237289101E-1,1.458724499E1
2.834958229E1,-2.959024191E0,-2.045863390E0,1.566102409E1
2.836836797E1,-2.506481647E0,-2.973381281E0,1.699681664E1
2.838715594E1,-2.947060108E0,-2.586940289E0,1.684008789E1
2.840594354E1,-3.233301640E0,-1.405484200E0,1.386072445E1
2.842473307E1,-2.606082916E0,6.101697683E-2,1.011864853E1
2.844352333E1,-1.600499272E0,1.064207911E0,7.256533623E0
2.846231172E1,-1.147956610E0,1.698604941E0,5.480162144E0
2.848109807E1,-1.094118118E0,1.925923109E0,4.642076015E0
2.849988198E1,-1.096511006E0,2.057827473E0,4.102195263E0
2.851866734E1,-1.212562919E0,2.176272154E0,3.675076485E0
2.853745328E1,-1.681855202E0,1.996810555E0,4.071088791E0
2.855623864E1,-2.151147604E0,1.886441588E0,5.197509766E0
2.857502281E1,-2.231307030E0,1.781157374E0,6.398108482E0
2.859380771E1,-1.751247048E0,1.433001637E0,7.336693287E0
2.861259416E1,-1.333400369E0,1.053440213E0,7.961519241E0
2.863137989E1,-1.419841170E0,9.816554785E-1,8.115856171E0
2.865016416E1,-2.033899307E0,1.258026481E0,7.597810268E0
2.866895052E1,-2.396411896E0,1.114457130E0,6.856633186E0
2.868773734E1,-1.767996788E0,2.225325108E-1,8.051250458E0
2.870652427E1,-2.621636391E0,2.476571500E-1,9.256634712E0
2.872531099E1,-4.642076015E0,1.088734269E-1,1.002173901E1
2.874409651E1,-6.309574127E0,-2.584248483E-1,1.110748291E1
2.876288333E1,-6.401698112E0,-6.451647878E-1,1.159711361E1
2.878166984E1,-5.216652393E0,-6.678966284E-1,1.066211891E1
2.880045479E1,-5.055137157E0,1.710868180E-1,1.084636593E1
2.881924067E1,-6.428019047E0,1.301097274E0,1.286949730E1
2.883802687E1,-8.084749222E0,9.457631707E-1,1.337468243E1
2.885681213E1,-9.961918831E0,-8.365905881E-1,1.272832108E1
2.887559661E1,-1.141017437E1,-2.238485575E0,1.364028549E1
2.889438344E1,-1.064536858E1,-2.498106956E0,1.493809223E1
2.891317000E1,-8.434400558E0,-1.972882271E0,1.540110397E1
2.893195765E1,-5.253741264E0,-8.066803217E-1,1.445683575E1
2.895074312E1,-2.245664120E0,3.675973713E-1,1.271875000E1
2.896952817E1,-3.699901998E-1,1.097707391E0,1.069322491E1
2.898831359E1,-4.070789516E-1,1.510768414E0,8.878568649E0
2.900709927E1,-1.170688510E0,1.527518153E0,7.427620411E0
2.902588375E1,-1.428215981E0,1.200598717E0,6.152844429E0
2.904466911E1,-1.329811215E0,9.254241586E-1,5.125725269E0
2.906345484E1,-1.186241865E0,9.002995491E-1,4.534399033E0
2.908224291E1,-7.779664397E-1,9.397810698E-1,4.295116425E0
2.910102797E1,-6.200401783E-1,1.017547846E0,4.259224415E0
2.911981448E1,-1.329811215E0,1.197009563E0,4.502095699E0
2.913860203E1,-2.277967215E0,1.378864050E0,5.086243629E0
2.915738953E1,-2.920739174E0,1.570588946E0,5.878567219E0
2.917617640E1,-3.036791086E0,1.648355722E0,6.340681076E0
2.919496192E1,-2.920739174E0,1.628016710E0,7.122535706E0
2.921374854E1,-3.431905985E0,1.533500195E0,9.165707588E0
2.923253520E1,-4.242474556E0,1.400399446E0,1.134915733E1
2.925132088E1,-4.898406982E0,1.375274777E0,1.222313595E1
2.927010604E1,-5.089832783E0,1.692622900E0,1.206521034E1
2.928889260E1,-4.664807796E0,2.207378864E0,1.172513008E1
2.930767896E1,-4.062713623E0,2.633600473E0,1.170598793E1
2.932646531E1,-3.840181351E0,2.961417198E0,1.153250790E1
2.934525260E1,-4.016053677E0,3.404388428E0,1.117567825E1
2.936403911E1,-3.859323740E0,3.533600807E0,1.068724346E1
2.938282474E1,-3.317050457E0,3.189034462E0,1.071236801E1
2.940161094E1,-2.841775894E0,2.555833578E0,1.123908806E1
2.942039713E1,-2.669492722E0,1.873281002E0,1.162223911E1
2.943918328E1,-2.600100994E0,1.477268934E0,1.121157074E1
2.945797161E1,-2.528316259E0,1.461715579E0,9.786943436E0
2.947675734E1,-2.352144718E0,1.611266971E0,8.024929047E0
2.949554375E1,-2.195414782E0,1.739282966E0,5.901597977E0
2.951432994E1,-1.789532185E0,2.204986095E0,4.805087090E0
2.953311609E1,-1.629213095E0,2.771187782E0,5.040780067E0
2.955190224E1,-1.770389676E0,2.991327524E0,5.402395248E0
2.957068786E1,-1.648355722E0,2.746062994E0,6.626922131E0
2.958947359E1,-1.498804331E0,2.161915302E0,7.938787460E0
2.960825828E1,-1.839781523E0,1.728515267E0,9.018548965E0
2.962704344E1,-2.397608280E0,1.727318883E0,9.290432930E0
2.964582989E1,-2.591726065E0,1.766800404E0,8.941978455E0
2.966461708E1,-2.202593327E0,2.121237278E0,8.405686378E0
2.968340432E1,-1.702194214E0,2.732902527E0,7.796414375E0
2.970219213E1,-1.802692771E0,3.185445070E0,7.883752346E0
2.972097890E1,-2.358126640E0,3.117249727E0,8.618648529E0
2.973976604E1,-2.609672308E0,2.539083958E0,9.001798630E0
2.975855432E1,-2.801098108E0,2.065006018E0,8.945567131E0
2.977734239E1,-3.222533941E0,2.157129526E0,8.764909744E0
2.979612854E1,-3.647259951E0,2.398804665E0,8.680861473E0
2.981491651E1,-3.843770504E0,2.566601276E0,8.816354752E0
2.983370474E1,-4.128516197E0,2.864507914E0,9.428020477E0
2.985249375E1,-4.723432064E0,2.927917719E0,1.054726315E1
2.987128453E1,-5.431109428E0,2.772384167E0,1.144008541E1
2.989007500E1,-5.423930645E0,2.443071842E0,1.161266708E1
2.990886276E1,-4.554738045E0,2.042274237E0,1.153131104E1
2.992765120E1,-3.865305901E0,2.056631088E0,1.209990597E1
2.994643692E1,-3.612564087E0,2.041077614E0,1.263260841E1
2.996522458E1,-3.659523249E0,2.043470621E0,1.227697468E1
2.998401218E1,-3.850949049E0,2.114058733E0,1.149272728E1
3.000279833E1,-3.555136204E0,2.255235434E0,1.115294647E1
3.002158432E1,-2.927917719E0,2.292324066E0,1.098425198E1
3.004037177E1,-2.560619354E0,2.457428932E0,1.088704395E1
3.005915802E1,-2.304288149E0,2.743670225E0,1.055563831E1
3.007794302E1,-2.044667006E0,2.959024191E0,1.009232807E1
3.009672922E1,-1.773978829E0,3.098107100E0,9.656535149E0
3.011551651E1,-1.744068623E0,3.166302681E0,9.109476089E0
3.013430317E1,-2.105684042E0,3.184248686E0,8.454739571E0
3.015309057E1,-2.595315218E0,3.154338360E0,7.888537884E0
3.017187823E1,-3.141177893E0,3.190230846E0,7.566404343E0
3.019066620E1,-3.595814228E0,3.254837036E0,7.646862984E0
3.020945458E1,-3.943072557E0,3.179463148E0,7.798807144E0
3.022824312E1,-4.345366001E0,3.234498024E0,7.862216949E0
3.024702890E1,-4.547559261E0,3.367299557E0,7.742575645E0
3.026581515E1,-4.338187218E0,3.428316593E0,7.432406425E0
3.028460120E1,-4.365705013E0,3.539582968E0,7.370193005E0
3.030338781E1,-4.612165451E0,3.547957659E0,7.758129120E0
3.032217463E1,-4.747360229E0,3.356531858E0,8.680861473E0
3.034096260E1,-4.779962540E0,2.847758055E0,9.780961990E0
3.035974989E1,-4.554738045E0,2.378465652E0,1.079133129E1
3.037853578E1,-3.783949852E0,2.356930256E0,1.071356392E1
3.039732177E1,-3.504886866E0,2.651546478E0,9.064012527E0
3.041610896E1,-4.569094658E0,3.226123095E0,5.768496990E0
3.043489578E1,-6.055934906E0,3.299104214E0,3.040380239E0
3.045368229E1,-5.368896008E0,2.769991398E0,6.120541096E0
3.047246844E1,-4.542773724E0,3.011666298E0,8.177172661E0
3.050073073E1,-4.833800793E0,2.872882605E0,8.216653824E0
3.051951594E1,-5.870192051E0,2.598904610E0,7.415656567E0
3.053830016E1,-6.304788589E0,2.319841623E0,7.526922703E0
3.055708448E1,-5.985346794E0,2.154736757E0,8.272885323E0
3.057586849E1,-5.500501156E0,2.111665964E0,8.724231720E0
3.059465146E1,-5.131707191E0,2.129612207E0,8.229814529E0
3.061343531E1,-5.343770981E0,2.462214470E0,7.552047253E0
3.063222115E1,-5.487340450E0,2.652743101E0,7.414460182E0
3.065100448E1,-5.519643784E0,2.573779821E0,7.816753387E0
3.066979036E1,-5.483751297E0,2.325823545E0,8.367402077E0
3.068857526E1,-5.422734261E0,2.096112728E0,8.816354752E0
3.070736120E1,-5.247759342E0,2.037488461E0,9.083154678E0
3.072614708E1,-4.765306473E0,2.032702923E0,9.177671432E0
3.074493370E1,-4.249652863E0,2.049452543E0,9.242277145E0
3.076372042E1,-3.740879059E0,2.070987940E0,9.337093353E0
3.078250708E1,-3.200998545E0,2.103291035E0,9.466305733E0
3.080129302E1,-2.729313374E0,2.203789711E0,9.716355324E0
3.082008083E1,-2.330609322E0,2.255235434E0,9.825528145E0
3.083886708E1,-2.196611166E0,2.301895380E0,9.693623543E0
3.085765370E1,-2.226521492E0,2.352144718E0,9.590732574E0
3.087643891E1,-2.172683001E0,2.310270309E0,9.478269577E0
3.089522438E1,-2.098505497E0,2.318645239E0,9.465108871E0
3.091401120E1,-1.981257200E0,2.462214470E0,9.515357971E0
3.093279844E1,-1.723729610E0,2.500499725E0,9.434001923E0
3.095158490E1,-1.514357686E0,2.470589399E0,9.444769859E0
3.097037115E1,-1.438983679E0,2.388036966E0,9.706784248E0
3.098915735E1,-1.482054472E0,2.158325911E0,9.945169449E0
3.100794438E1,-1.657927036E0,1.888834357E0,9.712766647E0
3.102673203E1,-1.942672849E0,1.839781523E0,9.098708153E0
3.104551979E1,-2.155933142E0,1.955833435E0,8.514560699E0
3.106430776E1,-2.136790514E0,2.190629244E0,8.284849167E0
3.108309896E1,-1.913959026E0,2.505285263E0,8.378169060E0
3.110188734E1,-1.574178219E0,2.756830692E0,8.490632057E0
3.112067547E1,-1.296311617E0,2.749652386E0,8.519346237E0
3.113946235E1,-1.262812138E0,2.718545675E0,8.648558617E0
3.115824860E1,-1.347757339E0,2.592922449E0,8.946763992E0
3.117703469E1,-1.590927958E0,2.372483730E0,9.225527763E0
3.119582172E1,-1.940280080E0,2.173879385E0,9.404091835E0
3.121460781E1,-2.215753794E0,1.961815476E0,9.386145592E0
3.123339662E1,-2.518445730E0,1.838585138E0,9.264111519E0
3.125218271E1,-2.802294493E0,1.771586061E0,9.187242508E0
3.127097073E1,-2.911167860E0,1.665105462E0,9.125029564E0
3.128975667E1,-3.061915636E0,1.711765528E0,8.920442581E0
3.130854422E1,-3.145963669E0,1.931905150E0,8.661719322E0
3.132732865E1,-2.875275612E0,2.088934183E0,8.356634140E0
3.134611323E1,-2.590529680E0,2.148754835E0,8.046463966E0
3.136489891E1,-2.577368975E0,2.179861546E0,7.831110477E0
3.138368536E1,-2.655135870E0,2.110469580E0,7.686344624E0
3.140247208E1,-2.747259617E0,1.949851394E0,7.604988575E0
3.142125943E1,-2.863311291E0,1.756032705E0,7.541279793E0
3.144004542E1,-2.868097067E0,1.638784409E0,7.444370270E0
3.145883208E1,-2.628814697E0,1.491625786E0,7.194320202E0
3.147761750E1,-2.543869495E0,1.465304732E0,6.739385128E0
3.149640375E1,-2.537887573E0,1.521536112E0,6.262914181E0
3.151518833E1,-2.692224503E0,1.699801445E0,5.965007782E0
3.153397479E1,-3.016452074E0,1.844567180E0,5.998507500E0
3.155276198E1,-3.557528973E0,1.988435626E0,6.428019047E0
3.157155021E1,-3.938287020E0,1.931905150E0,7.325925827E0
3.159033589E1,-4.259224415E0,1.840977907E0,8.461917877E0
3.160912208E1,-4.579862595E0,1.635195136E0,9.441181183E0
3.162790906E1,-4.716253281E0,1.125224829E0,1.026819992E1
3.164669714E1,-5.239384174E0,7.241279483E-1,1.135274696E1
3.166548318E1,-6.224628925E0,4.166502357E-1,1.253061390E1
3.168426948E1,-6.865008354E0,-1.483550072E-1,1.304058456E1
3.170305552E1,-6.959524632E0,-6.260222197E-1,1.247318649E1
3.172184307E1,-6.861418724E0,-5.733801126E-1,1.164018440E1
3.174062896E1,-6.371787548E0,-3.053839803E-1,1.145563793E1
3.175941568E1,-5.635695457E0,-2.727817893E-1,1.178973579E1
3.177820000E1,-4.958227634E0,-2.428714931E-1,1.200509071E1
3.179698563E1,-4.319045067E0,-2.572284341E-1,1.182084274E1
3.181577011E1,-3.964607954E0,-3.819543123E-1,1.145324516E1
3.183455490E1,-4.291527271E0,-4.130610228E-1,1.102851963E1
3.185333844E1,-4.669593334E0,-4.956133962E-1,1.038933659E1
3.187212537E1,-4.711467743E0,-5.350949764E-1,9.467501640E0
3.189091198E1,-4.506881237E0,-4.537389874E-1,8.349455833E0
3.190969948E1,-4.392025948E0,-2.874378264E-1,7.341478825E0
3.192848568E1,-4.401597023E0,1.674975827E-2,6.795616150E0
3.194727276E1,-4.249652863E0,2.826521695E-1,6.604190350E0
3.196605833E1,-3.968197346E0,5.051847100E-1,6.340681076E0
3.198484589E1,-3.797110319E0,7.624131441E-1,5.918347836E0
3.200363297E1,-3.730111361E0,9.433703423E-1,5.541179180E0
3.202241906E1,-3.791128397E0,9.242277741E-1,5.199902534E0
3.204120578E1,-4.005286217E0,9.804590940E-1,4.967798710E0
3.205999224E1,-4.254438877E0,1.158724308E0,5.052743912E0
3.207877964E1,-4.249652863E0,1.386042476E0,5.688337803E0
3.209756729E1,-3.793521166E0,1.482054472E0,6.611369133E0
3.211635068E1,-3.346960783E0,1.441376567E0,7.475477219E0
3.213513776E1,-3.295515060E0,1.333400369E0,8.111070633E0
3.215392510E1,-3.425923824E0,1.009172916E0,8.289634705E0
3.217271245E1,-3.794717550E0,8.377870321E-1,7.937591076E0
3.219149807E1,-4.074677944E0,8.330013752E-1,7.142874718E0
3.221028594E1,-4.103391647E0,8.967102766E-1,6.224628925E0
3.222907219E1,-3.958626032E0,8.811569214E-1,5.627320766E0
3.224785974E1,-3.712165117E0,6.128616929E-1,5.548357487E0
3.226664531E1,-3.745664835E0,-3.469592705E-2,5.965007782E0
3.228543255E1,-4.616951466E0,-6.942176819E-1,6.802794933E0
3.230421797E1,-5.840281963E0,-1.267597795E0,7.352246761E0
3.232300557E1,-6.967899323E0,-1.529910922E0,7.666005611E0
3.234179214E1,-8.989834785E0,-1.498804331E0,8.594719887E0
3.236057886E1,-1.093250751E1,-1.846959949E0,1.030409241E1
3.237936375E1,-1.093968582E1,-2.482553482E0,1.171316624E1
3.239815094E1,-1.059631634E1,-2.368894339E0,1.209870911E1
3.241693682E1,-1.027059269E1,-1.860120535E0,1.191176987E1
3.243572349E1,-9.825528145E0,-1.370489120E0,1.195603752E1
3.245450886E1,-9.101100922E0,-7.803592682E-1,1.248515034E1
3.247329427E1,-7.655237675E0,-4.788636267E-1,1.285035515E1
3.249207938E1,-5.908776283E0,-8.374879509E-2,1.226501083E1
3.251086495E1,-4.481756687E0,8.763712645E-1,1.114337540E1
3.252964990E1,-3.326621771E0,1.941476464E0,1.018684387E1
3.254843636E1,-2.438286304E0,2.445464849E0,9.400503159E0
3.256722219E1,-1.948654890E0,2.437089920E0,8.500203133E0
3.258600839E1,-1.839781523E0,2.099701881E0,7.464709282E0
3.260479219E1,-2.146361828E0,1.779960990E0,6.442375660E0
3.262357781E1,-2.471785784E0,1.626820326E0,5.742176056E0
3.264236193E1,-2.504088879E0,1.529910922E0,5.274080276E0
3.266114854E1,-2.283949137E0,1.393221021E0,4.825426102E0
3.267993266E1,-2.181057930E0,1.213759303E0,4.317848682E0
3.269871625E1,-2.482553482E0,1.047458172E0,3.896412611E0
3.271750130E1,-3.303889751E0,9.158528447E-1,3.671487331E0
3.273628651E1,-4.854139805E0,9.553344250E-1,3.774378538E0
3.275507031E1,-6.918846607E0,9.457631707E-1,4.241278172E0
3.277385458E1,-7.305586815E0,6.080760360E-1,5.049154758E0
3.279263870E1,-6.489335060E0,3.005983531E-1,6.222236156E0
3.281142380E1,-6.512066841E0,3.424727321E-1,8.100302696E0
3.283020802E1,-6.918846607E0,1.603191197E-1,1.063220787E1
3.284899344E1,-6.983452797E0,-7.336992621E-1,1.253300667E1
3.286777896E1,-7.364210606E0,-1.515554070E0,1.276062393E1
3.288656557E1,-7.898109436E0,-1.488036633E0,1.187946701E1
3.290534990E1,-7.977072716E0,-9.517452121E-1,1.090738297E1
3.292413448E1,-7.279265404E0,-3.101696372E-1,1.025623608E1
3.294291823E1,-6.189933300E0,2.392822653E-1,9.873384476E0
3.296170531E1,-5.465805054E0,5.434698462E-1,1.003729248E1
3.298049063E1,-5.193920612E0,2.632104978E-2,1.096152020E1
3.299939052E1,-5.300401211E0,-1.068993568E0,1.180768204E1
3.301819458E1,-5.445466042E0,-2.073380709E0,1.177418327E1
3.303700052E1,-5.616552830E0,-2.584547520E0,1.069561768E1
3.305580490E1,-5.548357487E0,-2.536691189E0,9.043673515E0
3.307461078E1,-5.160421371E0,-2.141576290E0,7.378567696E0
3.309341516E1,-4.657629490E0,-1.581356645E0,5.974578857E0
3.311222110E1,-4.193122387E0,-9.278169870E-1,4.998905659E0
3.313102547E1,-3.593421459E0,-4.298107624E-1,4.413561344E0
3.314983141E1,-3.054737091E0,-7.896314561E-2,4.129712582E0
3.316863578E1,-2.767598391E0,1.710868180E-1,4.091427803E0
3.318744167E1,-2.829811811E0,2.898306549E-1,4.248456478E0
3.320624604E1,-3.042773008E0,2.476571500E-1,4.335794449E0
3.322505198E1,-3.415156126E0,3.675973713E-1,4.331008911E0
3.324385636E1,-3.659523249E0,8.377870321E-1,4.453042984E0
3.326266224E1,-3.355335474E0,1.277169108E0,4.606183529E0
3.328146667E1,-2.791526794E0,1.700997829E0,5.105386257E0
3.330027255E1,-2.232503414E0,2.003988981E0,6.061916828E0
3.331907693E1,-1.960619092E0,1.961815476E0,7.336693287E0
3.333788287E1,-2.586940289E0,1.613659739E0,8.776873589E0
3.335668724E1,-4.014857292E0,9.972088337E-1,9.497411728E0
3.337549318E1,-6.878168583E0,4.716851711E-1,9.693623543E0
3.339429755E1,-9.238688469E0,4.546362907E-2,9.654142380E0
3.341310344E1,-9.618249893E0,-4.872384965E-1,9.329915047E0
3.343190786E1,-9.358628273E0,-1.133599758E0,9.989436150E0
3.345071375E1,-9.319147110E0,-2.160718918E0,1.239422321E1
3.346951813E1,-1.006480980E1,-3.264408350E0,1.483131313E1
3.348832412E1,-1.099860954E1,-3.570689678E0,1.582014656E1
3.350712844E1,-1.056760216E1,-3.240479946E0,1.500030613E1
3.352593214E1,-8.712266922E0,-2.227717876E0,1.353380489E1
3.354471995E1,-6.497709751E0,-4.298107624E-1,1.215733337E1
3.356350474E1,-4.086641788E0,1.489233017E0,1.093131161E1
3.358229068E1,-2.003988981E0,2.687438965E0,9.429216385E0
3.360107651E1,-9.074779749E-1,3.212962627E0,7.908876896E0
3.361986219E1,-6.595217586E-1,3.276372433E0,6.648457527E0
3.363864896E1,-1.036690354E0,3.138785124E0,5.614160061E0
3.365743667E1,-1.663909078E0,3.016452074E0,4.954638481E0
3.367622162E1,-2.069791555E0,2.664707184E0,4.546362877E0
3.369500729E1,-2.481357098E0,2.249253273E0,4.348955154E0
3.371379214E1,-3.145963669E0,1.930708766E0,4.249652863E0
3.373257781E1,-3.821038723E0,1.655534148E0,4.170390606E0
3.375136323E1,-4.928317547E0,1.434198022E0,4.362115860E0
3.377014958E1,-6.777669907E0,1.285543919E0,5.027619362E0
3.378893714E1,-7.777271748E0,1.070189953E0,6.262914181E0
3.380772386E1,-7.737790108E0,7.767700553E-1,7.800003529E0
3.382650813E1,-7.662416458E0,6.942176819E-1,9.798908234E0
3.384529333E1,-7.172784805E0,6.355935335E-1,1.184596729E1
3.386407755E1,-6.748956203E0,7.085745931E-1,1.339262867E1
3.388286297E1,-6.526423931E0,1.938186288E-1,1.440658665E1
3.390164854E1,-6.563512325E0,-1.046261668E0,1.505055523E1
3.392043453E1,-6.448358059E0,-2.310270309E0,1.548036575E1
3.393922156E1,-6.210271835E0,-2.984148979E0,1.492852116E1
3.395800786E1,-6.008078575E0,-2.941078186E0,1.309442234E1
3.397679354E1,-5.745765209E0,-2.437089920E0,1.054367352E1
3.399558052E1,-5.396413326E0,-1.570588946E0,7.931608677E0
3.401436594E1,-4.838586330E0,-6.726822853E-1,5.876173973E0
3.403315146E1,-4.272384644E0,1.184447184E-1,4.403990269E0
3.405193620E1,-3.581457376E0,8.174480200E-1,3.405584812E0
3.407072245E1,-2.606082916E0,1.219741344E0,3.041576624E0
3.408950677E1,-1.986042738E0,1.383649707E0,3.153141975E0
3.410829188E1,-2.147558212E0,1.595713615E0,3.495315790E0
3.412707943E1,-2.510071039E0,1.721336842E0,3.909573078E0
3.414586813E1,-2.705385208E0,1.797907114E0,4.492524624E0
3.416465292E1,-2.614457846E0,1.756032705E0,5.219045162E0
3.418343969E1,-2.501696110E0,1.611266971E0,5.861817360E0
3.420222370E1,-2.884846687E0,1.678265929E0,6.701099873E0
3.422100906E1,-3.482155085E0,1.714158297E0,7.868198872E0
3.423979443E1,-3.643670797E0,1.322632670E0,9.007781029E0
3.425858010E1,-3.713361740E0,8.270193338E-1,9.824331284E0
3.427736510E1,-4.317848682E0,4.872384965E-1,1.030289650E1
3.429615224E1,-5.180759907E0,1.734796464E-1,1.007557774E1
3.431493927E1,-5.721837044E0,5.623133108E-2,8.926424980E0
3.433372630E1,-6.266503334E0,4.142574072E-1,7.498209000E0
3.435251198E1,-7.954340458E0,1.273579836E0,6.959524632E0
3.437129818E1,-9.861420631E0,1.494018674E0,7.802396297E0
3.439008234E1,-9.795318604E0,4.345964193E-1,9.241081238E0
3.440886886E1,-8.926424980E0,-7.121638656E-1,1.051615620E1
3.442765339E1,-8.481060982E0,-1.277169108E0,1.192971611E1
3.444644068E1,-8.320741653E0,-1.230509043E0,1.367139244E1
3.446522750E1,-6.929614544E0,-1.250848055E0,1.451426411E1
3.448401641E1,-5.201098919E0,-1.115653515E0,1.385354614E1
3.450280536E1,-4.253242016E0,-2.763710022E-1,1.231884956E1
3.452159110E1,-3.271586657E0,5.865406394E-1,1.044078255E1
3.454037610E1,-2.120040894E0,1.132403374E0,8.611469269E0
3.455916229E1,-1.132403374E0,1.327418327E0,6.949953556E0
3.457794672E1,-6.044868231E-1,1.347757339E0,5.308775902E0
3.459673167E1,-7.049853802E-1,1.509572029E0,3.996911049E0
3.461551693E1,-1.101296663E0,1.819442511E0,3.370888948E0
3.463430208E1,-1.429412484E0,1.989632010E0,3.357728481E0
3.465308745E1,-1.862513304E0,1.901994944E0,3.819842339E0
3.467187318E1,-2.594118834E0,1.690230131E0,4.427918434E0
3.469065729E1,-3.611367464E0,1.545464277E0,5.018048286E0
3.470944245E1,-4.911567688E0,1.600499272E0,5.819942951E0
3.472822766E1,-5.871388435E0,1.516750455E0,6.671189308E0
3.474701349E1,-6.394519329E0,1.126421213E0,7.383353233E0
3.476579948E1,-7.334300518E0,9.302098155E-1,8.348258972E0
3.478458719E1,-8.690432549E0,1.003190875E0,9.687641144E0
3.480337453E1,-9.198010445E0,9.696913958E-1,1.144008541E1
3.482216219E1,-8.621041298E0,7.372884750E-1,1.331845093E1
3.484094729E1,-7.960322857E0,7.289136052E-1,1.454776382E1
3.485973485E1,-7.453941822E0,9.672985673E-1,1.462313747E1
3.487852089E1,-6.713063717E0,9.385846853E-1,1.377697563E1
3.489730854E1,-5.865406513E0,5.350949764E-1,1.337348557E1
3.491609432E1,-5.397609711E0,-1.064806059E-1,1.324427319E1
3.493488146E1,-5.561518192E0,-3.436691463E-1,1.204935741E1
3.495366776E1,-5.699105263E0,-1.112662554E-1,9.585947037E0
3.497245412E1,-5.437091351E0,3.867399693E-1,7.035197735E0
3.499124036E1,-5.053940296E0,9.804590940E-1,5.181956768E0
3.501002583E1,-4.688735962E0,1.485643744E0,4.323830605E0
3.502881094E1,-4.265206337E0,1.572981834E0,4.328616142E0
3.504759901E1,-4.133302212E0,1.401595831E0,4.878067970E0
3.506638458E1,-4.177569389E0,1.121635556E0,5.633302689E0
3.508517167E1,-4.311866283E0,8.006982803E-1,6.322734833E0
3.510395667E1,-4.622933388E0,7.516453862E-1,6.927221775E0
3.512274370E1,-4.399204254E0,8.919246197E-1,7.459923744E0
3.514152912E1,-3.350549936E0,9.972088337E-1,8.148458481E0
3.516031521E1,-2.432304144E0,1.024726272E0,9.002995491E0
3.517910042E1,-2.115255117E0,9.337990284E-1,9.832706451E0
3.519788583E1,-2.049452543E0,6.571289301E-1,1.007916737E1
3.521667167E1,-1.955833435E0,4.513461590E-1,9.685248375E0
3.523545636E1,-1.489233017E0,2.838485837E-1,8.744570732E0
3.525424047E1,-1.219741344E0,3.544368446E-1,7.619345665E0
3.527302703E1,-1.031904817E0,4.908277392E-1,6.793223381E0
3.529181229E1,-1.004387259E0,4.202394783E-1,6.444768906E0
3.531059698E1,-1.806282043E0,5.422734022E-1,6.344270229E0
3.532938339E1,-3.652344704E0,8.644071817E-1,6.470192432E0
3.534816922E1,-6.077470303E0,1.016351461E0,6.861418724E0
3.536695464E1,-7.928019524E0,1.053440213E0,7.319943428E0
3.538574115E1,-8.646165848E0,1.551446438E0,7.535297394E0
3.540452552E1,-8.022536278E0,1.663909078E0,7.624131203E0
3.542331016E1,-6.739385128E0,8.656035662E-1,8.323134422E0
3.544209547E1,-6.965506554E0,3.616153300E-1,1.053170967E1
3.546088120E1,-7.912466049E0,-1.950150430E-1,1.373719501E1
3.547966662E1,-7.749754429E0,-1.021137118E0,1.573280907E1
3.549845255E1,-6.589833736E0,-1.157527924E0,1.549472332E1
3.551723636E1,-5.354538918E0,-2.309073806E-1,1.404975700E1
3.553602016E1,-4.338187218E0,8.943174481E-1,1.224227905E1
3.555480255E1,-3.559921980E0,1.532303810E0,1.043360424E1
3.557358620E1,-3.040380239E0,1.662712693E0,8.499007225E0
3.559237078E1,-2.795115948E0,1.611266971E0,6.594619274E0
3.561115719E1,-2.743670225E0,1.516750455E0,4.894817829E0
3.562994208E1,-2.937488794E0,1.712961912E0,3.671487331E0
3.564872677E1,-2.906382322E0,2.037488461E0,3.209373474E0
3.566751068E1,-2.600100994E0,2.224128723E0,3.498904943E0
3.568629656E1,-2.459821701E0,2.226521492E0,4.121337891E0
3.570508156E1,-2.723331213E0,2.099701881E0,4.691128731E0
3.572386646E1,-3.925126553E0,2.070987940E0,5.390431404E0
3.574265172E1,-5.186742306E0,2.055434704E0,6.267699718E0
3.576143615E1,-6.467799664E0,2.043470621E0,7.291229725E0
3.578022083E1,-7.250551701E0,2.074577332E0,8.082356453E0
3.579900625E1,-6.923632145E0,2.087737799E0,8.840283394E0
3.581778953E1,-6.212665081E0,2.276770830E0,9.658927917E0
3.583657396E1,-6.110970020E0,2.723331213E0,1.093968582E1
3.585535849E1,-6.408876419E0,2.919542789E0,1.292453194E1
3.587414349E1,-6.519245148E0,2.431107759E0,1.468654728E1
3.589292714E1,-6.217450619E0,1.569392562E0,1.487348652E1
3.591171240E1,-5.600999832E0,1.066600680E0,1.367019558E1
3.593049724E1,-4.743771076E0,1.033101201E0,1.230568886E1
3.594928193E1,-3.873680830E0,1.134796143E0,1.107159042E1
3.596806677E1,-2.988934517E0,1.112064362E0,9.737891197E0
3.598685151E1,-2.481357098E0,9.409775138E-1,8.556434631E0
3.600563344E1,-2.686242580E0,7.911269665E-1,7.975875854E0
3.602441833E1,-2.786741018E0,3.269194067E-1,7.753343582E0
3.604320125E1,-3.072683334E0,-1.076770201E-2,7.698308468E0
3.606198740E1,-3.460619688E0,-1.040877849E-1,7.343871593E0
3.608077229E1,-3.683451414E0,-3.349951655E-2,6.623332977E0
3.609955813E1,-3.658326626E0,1.148554832E-1,5.878567219E0
3.611834365E1,-3.364906788E0,1.902294010E-1,5.253741264E0
3.613713063E1,-3.159124136E0,3.819543123E-1,4.778766155E0
3.615591662E1,-2.941078186E0,5.913262963E-1,4.508078098E0
3.617470328E1,-2.846561670E0,9.098708034E-1,4.578666210E0
3.619349031E1,-2.865704298E0,1.298704505E0,5.044369221E0
3.621227735E1,-2.740081072E0,1.625623941E0,5.984150410E0
3.623106271E1,-2.472982168E0,1.821835399E0,7.132106781E0
3.624984854E1,-2.338984251E0,1.945065737E0,7.803592682E0
3.626863516E1,-2.115255117E0,2.060220242E0,7.845467091E0
3.628742255E1,-1.857727647E0,2.415554523E0,7.975875854E0
3.630620740E1,-1.577767372E0,2.807080030E0,8.709874153E0
3.632499453E1,-1.523928881E0,3.099303484E0,9.382556915E0
3.634378078E1,-1.629213095E0,3.305086374E0,9.401699066E0
3.636256641E1,-1.679462433E0,3.043969393E0,9.300004005E0
3.638135224E1,-3.184248686E0,2.409572363E0,9.945169449E0
3.640013912E1,-6.246164322E0,1.740479350E0,1.181366444E1
3.641892307E1,-8.684451103E0,6.236293912E-1,1.390858078E1
3.643770813E1,-1.034118080E1,-3.783650696E-1,1.536281872E1
3.645649328E1,-1.114696407E1,-5.925226808E-1,1.610878181E1
3.647527964E1,-9.514162064E0,-5.482555032E-1,1.621645737E1
3.649406349E1,-6.710670948E0,-1.543370634E-1,1.591586018E1
3.651284922E1,-4.800301552E0,7.468597889E-1,1.517857170E1
3.653163464E1,-3.374478102E0,1.565803289E0,1.404736423E1
3.655041969E1,-2.376072884E0,2.007578135E0,1.206371403E1
3.656920370E1,-1.825424552E0,2.176272154E0,9.572786331E0
3.658798802E1,-1.412662625E0,2.380858421E0,7.508976460E0
3.660677255E1,-8.090731502E-1,2.585743904E0,6.064310074E0
3.662555901E1,-1.100698411E-1,2.725723982E0,5.108975410E0
3.664434406E1,1.136590764E-1,2.821436882E0,4.677968502E0
3.666312880E1,-2.727817893E-1,2.838186741E0,4.907978535E0
3.668191360E1,-8.126623631E-1,2.546262503E0,5.565107346E0
3.670070099E1,-1.657927036E0,2.307877541E0,6.474977970E0
3.671948604E1,-2.477767944E0,2.109273195E0,7.441977501E0
3.673827401E1,-2.662314177E0,1.903191328E0,8.228617668E0
3.675706052E1,-2.141576290E0,1.789532185E0,8.427222252E0
3.677584740E1,-1.863709688E0,2.319841623E0,8.020143509E0
3.679463307E1,-1.476072431E0,2.923131943E0,7.380960464E0
3.681341860E1,-1.063011408E0,3.319443226E0,7.300800800E0
3.683220354E1,-7.779664397E-1,3.733700514E0,7.542476177E0
3.685098901E1,-6.583253145E-1,4.183551311E0,7.733004570E0
3.686977391E1,-6.463612318E-1,4.676771641E0,7.895716667E0
3.688855734E1,-1.088734269E-1,4.819443703E0,8.501399994E0
3.690734307E1,5.135595798E-1,4.502095699E0,9.687641144E0
3.692613089E1,2.596212626E-1,4.296313286E0,1.104407310E1
3.694491745E1,-4.154538214E-1,4.408775806E0,1.172871971E1
3.696370344E1,-3.711866140E-1,4.310669899E0,1.160309601E1
3.698248755E1,-1.758724600E-1,3.961018801E0,1.129890823E1
3.700127297E1,-3.424727321E-1,3.616153240E0,1.096510983E1
3.702005719E1,-5.769693851E-1,3.561118364E0,1.042642593E1
3.703884141E1,-3.137588799E-1,3.675076485E0,9.461520195E0
3.705762510E1,-3.915255964E-1,4.026821613E0,8.369794846E0
3.707640901E1,-1.219741344E0,4.449453831E0,7.882555962E0
3.709519255E1,-1.672283888E0,4.425525665E0,8.100302696E0
3.711397760E1,-1.583749533E0,4.033999920E0,8.701499939E0
3.713276172E1,-1.466501236E0,3.658326626E0,9.187242508E0
3.715154610E1,-1.340578914E0,3.378067255E0,9.120243073E0
3.717032922E1,-1.216152072E0,3.349353552E0,8.509774208E0
3.718911292E1,-1.113260746E0,3.453441381E0,7.701898098E0
3.720789490E1,-7.013961077E-1,3.591028690E0,7.132106781E0
3.722667896E1,-4.905286431E-2,3.604189157E0,7.343871593E0
3.724546406E1,3.364906907E-1,3.618546009E0,8.374580383E0
3.726424854E1,6.343970895E-1,3.355335474E0,9.074779510E0
3.728303370E1,5.267201066E-1,3.051147938E0,9.019744873E0
3.730182026E1,1.495514214E-1,2.865704298E0,8.342276573E0
3.732060521E1,-8.733802289E-2,2.950649500E0,7.453941822E0
3.733938984E1,1.722832322E-1,3.126821041E0,6.760920525E0
3.735817250E1,1.722832322E-1,3.398406267E0,6.844669342E0
3.737695568E1,-9.332008660E-2,3.707379580E0,8.052446365E0
3.739573984E1,1.328016520E-1,3.853341818E0,9.548857689E0
3.741452604E1,2.970091105E-1,4.163212299E0,1.010788059E1
3.743331214E1,-6.475576162E-1,4.994120121E0,1.015932655E1
3.745209943E1,-1.558624864E0,5.756533146E0,1.066451168E1
3.747088510E1,-1.690230131E0,6.047560215E0,1.116251755E1
3.748967010E1,-8.620143533E-1,5.395216942E0,1.096750259E1
3.750845510E1,-1.100698411E-1,4.381258488E0,1.086191940E1
3.752724224E1,-4.668995142E-1,3.895216227E0,1.164377403E1
3.754602901E1,-1.112064362E0,3.682255030E0,1.234397411E1
3.756481818E1,-1.005583763E0,3.464209080E0,1.212862015E1
3.758360339E1,-4.800600410E-1,3.484548092E0,1.107757282E1
3.760238792E1,-2.871387079E-2,3.922733545E0,9.917651176E0
3.762117188E1,4.704887569E-1,4.360919476E0,9.016156197E0
3.763995714E1,9.026923180E-1,4.472185612E0,8.318348885E0
3.765874016E1,1.114457130E0,4.368097782E0,7.669594765E0
3.767752401E1,8.548358679E-1,4.157230377E0,7.103393078E0
3.769630703E1,2.380858511E-1,3.812663794E0,6.853044033E0
3.771509068E1,-1.830509305E-1,3.410370588E0,6.745367050E0
3.773387542E1,-5.458626747E-1,3.299104214E0,6.588637352E0
3.775266104E1,-8.536394835E-1,3.391227961E0,6.386144638E0
3.777144557E1,-9.649057388E-1,3.483351469E0,6.168397903E0
3.779022974E1,-1.186241865E0,3.580260992E0,6.102594852E0
3.780901542E1,-1.648355722E0,3.859323740E0,6.297610283E0
3.782780099E1,-1.544267893E0,4.054338932E0,6.750152588E0
3.784658667E1,-1.114457130E0,4.043570995E0,7.267301559E0
3.786537224E1,-1.186241865E0,4.278367043E0,8.121838570E0
3.788415755E1,-1.444965720E0,4.534399033E0,9.393324852E0
3.790294667E1,-1.677069545E0,4.465006828E0,1.031127071E1
3.792173708E1,-2.233700037E0,4.547559261E0,1.032682419E1
3.794052578E1,-3.198605776E0,4.782355309E0,1.016650486E1
3.795931328E1,-4.284348965E0,4.941477776E0,1.061545849E1
3.797810026E1,-4.567898273E0,4.693521500E0,1.140060329E1
3.799688380E1,-4.182354927E0,4.381258488E0,1.157677460E1
3.801566932E1,-4.056731701E0,4.557130814E0,1.106321526E1
3.803445302E1,-3.461816072E0,4.625326157E0,1.084875870E1
3.805323844E1,-2.360519648E0,4.140480518E0,1.121635628E1
3.807202349E1,-1.790728688E0,3.307479143E0,1.212144089E1
3.809080958E1,-2.226521492E0,2.726920605E0,1.282403374E1
3.810959505E1,-2.645564556E0,2.275574446E0,1.227099228E1
3.812838042E1,-2.841775894E0,2.118844509E0,1.065374374E1
3.814716427E1,-2.596511602E0,2.170290232E0,8.971888542E0
3.816594922E1,-1.987239242E0,2.353341103E0,7.473084450E0
3.818473375E1,-1.473679662E0,2.808276415E0,6.451947212E0
3.820351922E1,-1.357328653E0,3.240479946E0,6.010471344E0
3.822230276E1,-1.399203062E0,3.333800077E0,5.932704449E0
3.824108797E1,-1.745265007E0,3.348157167E0,6.017649651E0
3.825987162E1,-2.206182480E0,3.197409153E0,6.219843388E0
3.827865610E1,-2.603690147E0,3.070290565E0,6.498906136E0
3.829743917E1,-2.766402006E0,2.986541748E0,6.581458569E0
3.831622391E1,-2.859722137E0,3.082254648E0,6.509674072E0
3.833500802E1,-2.915953398E0,3.191427231E0,6.296413898E0
3.835379339E1,-2.937488794E0,3.272783279E0,5.874977589E0
3.837257813E1,-3.241676569E0,3.479762316E0,5.526822090E0
3.839136276E1,-3.946661949E0,3.610171080E0,5.514857769E0
3.841014839E1,-4.456632137E0,3.670290947E0,6.125326633E0
3.842893297E1,-4.639683247E0,3.709772348E0,7.219445229E0
3.844771708E1,-4.892425060E0,3.874877214E0,8.312366486E0
3.846650005E1,-5.320740223E0,3.886841297E0,9.085547447E0
3.848528229E1,-5.852245808E0,4.160819530E0,9.244669914E0
3.850406604E1,-6.267699718E0,4.898406982E0,8.921639442E0
3.852284896E1,-6.781259537E0,5.909972668E0,9.052047729E0
3.854163323E1,-6.960721016E0,6.090631008E0,9.575179100E0
3.856041672E1,-6.607779503E0,5.803193092E0,9.220742226E0
3.857920208E1,-5.720640659E0,5.455037594E0,8.673683167E0
3.859798656E1,-4.948656559E0,5.122136116E0,9.448359489E0
3.861677281E1,-4.738985062E0,4.689932346E0,1.131565857E1
3.863584693E1,-4.591826439E0,3.734897137E0,1.204576874E1
3.865503818E1,-4.439882278E0,4.044767380E0,1.045274639E1
3.867422849E1,-3.791128397E0,4.553541660E0,8.937192917E0
3.869341807E1,-3.533600807E0,5.093421936E0,8.583951950E0
3.871260693E1,-3.994518280E0,5.038387299E0,9.056833267E0
3.873179516E1,-4.219742775E0,4.266402721E0,9.104690552E0
3.875098266E1,-4.419543266E0,3.888037682E0,8.398508072E0
3.877016974E1,-4.933103085E0,3.970590115E0,5.106582642E0
3.878935630E1,-4.493721008E0,4.359723091E0,6.616154671E0
3.880854255E1,-4.323830605E0,4.727021217E0,9.430413246E0
3.882772828E1,-3.962215185E0,4.521238327E0,8.306385040E0
3.885752308E1,-2.942274570E0,1.913959026E0,9.310771942E0
3.887630652E1,-3.297907829E0,1.886441588E0,8.915657043E0
3.889508907E1,-2.857329369E0,1.803889155E0,9.223134995E0
3.891387224E1,-2.147558212E0,1.795514345E0,9.290432930E0
3.893265730E1,-1.778764486E0,2.142772675E0,8.776873589E0
3.895144000E1,-1.751247048E0,2.600100994E0,8.221439362E0
3.897022292E1,-1.805085540E0,2.851347208E0,8.123034477E0
3.898906120E1,-1.821835399E0,2.858525753E0,8.264510155E0
3.900791646E1,-1.869691849E0,2.742473841E0,8.153244019E0
3.902672152E1,-1.988435626E0,2.707777977E0,8.197511673E0
3.904552657E1,-1.989632010E0,2.730509758E0,8.752944946E0
3.906433167E1,-1.674676776E0,2.513660192E0,9.278469086E0
3.908313672E1,-1.641177177E0,2.275574446E0,9.307182312E0
3.910194183E1,-2.018345833E0,2.356930256E0,9.126225471E0
3.912074688E1,-2.127219439E0,2.574976206E0,9.011369705E0
3.913955193E1,-1.644766450E0,2.765205622E0,9.226723671E0
3.915835698E1,-1.001994491E0,2.851347208E0,9.516554832E0
3.917716209E1,-6.619145870E-1,2.884846687E0,9.591928482E0
3.919596714E1,-6.870391965E-1,2.822633505E0,9.365806580E0
3.921477224E1,-9.601200819E-1,2.797508717E0,8.981459618E0
3.923357730E1,-1.211366415E0,2.775973320E0,8.766105652E0
