"Time (s)","Acceleration x (m/s^2)","Acceleration y (m/s^2)","Acceleration z (m/s^2)"
3.384776900E-2,-1.446461320E0,5.368896008E0,6.352345943E0
5.386230100E-2,-3.020938635E-1,5.311468124E0,8.684749603E0
7.353073800E-2,2.147558331E-1,5.282754421E0,1.054696369E1
9.354542600E-2,-2.590230405E-1,4.660620213E0,1.123190975E1
1.131753740E-1,-9.583254457E-1,4.655834675E0,1.099741268E1
1.329975610E-1,-3.690928817E-1,5.273182869E0,9.824331284E0
1.528196960E-1,3.439682424E-1,4.966901779E0,7.990232944E0
1.726419360E-1,-1.336391449E0,5.038686275E0,7.429714203E0
1.926566760E-1,-2.586043119E0,5.498706341E0,8.224729538E0
2.122866240E-1,-1.581057549E0,5.651846886E0,9.254241943E0
2.321088110E-1,5.647061467E-1,5.546562672E0,8.679964066E0
2.519309990E-1,2.082353830E0,4.095315933E0,6.951149940E0
2.717532380E-1,1.333998591E-1,4.564907551E0,6.409773827E0
2.917679780E-1,-1.566700578E0,5.862415314E0,6.256632805E0
3.113979260E-1,-2.452643216E-2,5.781059742E0,5.955137253E0
3.312201130E-1,1.550549030E0,5.546562672E0,4.896911621E0
3.510423010E-1,1.871785522E0,4.727619171E0,4.154538155E0
3.710570400E-1,-3.547359705E-1,4.923830986E0,6.266204357E0
3.908795400E-1,-1.944766641E0,5.048257351E0,8.928817749E0
4.105094360E-1,-6.951149702E-1,4.334598064E0,9.598808289E0
4.303316240E-1,1.076770186E0,4.708476543E0,8.234300613E0
4.501537590E-1,2.422134638E0,4.928616524E0,5.624927998E0
4.699759460E-1,2.144567251E0,4.674977303E0,3.742972851E0
4.899906340E-1,3.726821244E-1,4.852046013E0,3.742972851E0
5.096205820E-1,-9.487541914E-1,4.962115765E0,6.132206440E0
5.294427170E-1,-9.152546525E-2,5.124827862E0,8.459226608E0
5.492650090E-1,1.239482164E0,4.962115765E0,7.861020565E0
5.690871960E-1,4.157529473E-1,4.348955154E0,8.267800331E0
5.891018840E-1,-5.228317380E-1,4.574478626E0,1.028375340E1
6.087317800E-1,-3.595215976E-1,4.229313850E0,1.171107197E1
6.285540190E-1,8.075776696E-2,3.966103554E0,1.227577877E1
6.483762070E-1,5.162515044E-1,4.243670940E0,1.360678577E1
6.681983940E-1,1.292124271E0,3.525824070E0,1.375514126E1
6.882131340E-1,-2.446661144E-1,3.482753277E0,1.048953629E1
7.079731340E-1,-5.898307562E-1,3.564109325E0,9.613762856E0
7.276259990E-1,-9.631111473E-2,3.568894863E0,1.175414276E1
7.474867800E-1,-1.250249863E0,4.205385685E0,1.324307728E1
7.673091240E-1,-1.815554142E0,4.095315933E0,1.144726372E1
7.873240710E-1,-9.008977413E-1,3.300300598E0,8.584251404E0
8.069539670E-1,-6.233302951E-1,3.228515863E0,6.251847267E0
8.269687590E-1,-1.470389485E0,3.655036688E0,5.160121918E0
8.465987070E-1,-1.638485312E0,3.430111170E0,4.715056896E0
8.666134460E-1,-1.245464206E0,3.449253798E0,4.686343193E0
8.863587590E-1,-1.245464206E0,3.994817495E0,5.629713535E0
9.060656340E-1,-1.686341763E0,4.348955154E0,6.597012043E0
9.260802690E-1,-1.772483349E0,4.224528313E0,7.286144733E0
9.457102170E-1,-8.626125455E-1,3.631108284E0,7.334001541E0
9.655324050E-1,8.554340899E-2,2.903092146E0,7.104290485E0
9.853544880E-1,5.066801906E-1,2.639881611E0,6.544369698E0
1.005176676E0,1.956132501E-1,3.084946632E0,7.061219692E0
1.025191363E0,-4.648058116E-1,4.171886444E0,8.847461700E0
1.044821311E0,-4.456632137E-1,4.286741734E0,9.934401512E0
1.064643446E0,-1.441675574E-1,3.516252756E0,9.891330719E0
1.084465686E0,4.157529473E-1,1.768295884E0,9.498309135E0
1.104287874E0,9.236295223E-1,1.974078655E0,1.130848026E1
1.124302561E0,1.330409408E0,4.607978344E0,1.562273884E1
1.143932457E0,2.268994093E0,5.182255745E0,1.667139435E1
1.163754644E0,4.509872437E0,3.980460405E0,1.318564892E1
1.183576832E0,6.530611038E0,3.463610888E0,9.738189697E0
1.203399019E0,4.735395908E0,4.348955154E0,7.334001541E0
1.223413759E0,8.805587292E-1,6.039484501E0,7.770093441E0
1.243043655E0,2.386840582E-1,5.661418438E0,9.421739578E0
1.262865842E0,1.843071699E0,2.357528448E0,9.642477036E0
1.282688030E0,2.431705952E0,7.100701332E-1,9.354740143E0
1.302510217E0,1.411765337E0,1.859223247E0,9.110671997E0
1.322524957E0,1.632503271E0,2.438884497E0,8.574680328E0
1.342347353E0,1.704287887E0,2.883949518E0,7.099504948E0
1.361977301E0,6.221339107E-1,3.051447153E0,6.232704639E0
1.381760999E0,-1.135394335E0,3.242872953E0,6.563512325E0
1.401621519E0,-1.911267042E0,3.540181160E0,5.639284611E0
1.421636207E0,-7.142575383E-1,3.702893019E0,4.077968121E0
1.441266103E0,9.379864931E-1,4.080958843E0,2.464607239E0
1.461280790E0,2.721835673E-1,4.976472855E0,2.742174864E0
1.480910686E0,-9.535398483E-1,4.914259434E0,4.140181541E0
1.500694436E0,-1.968096644E-1,4.775475979E0,5.912066460E0
1.520747405E0,-2.829512656E-1,5.503491879E0,9.594022751E0
1.540377353E0,-1.844268084E0,5.690132141E0,1.458844185E1
1.560199436E0,-1.935195327E0,4.895116806E0,1.657089424E1
1.580021624E0,-4.839483798E-1,5.489135265E0,1.435394478E1
1.599843811E0,1.497906923E0,7.849654675E0,1.122233772E1
1.619858499E0,3.571287870E0,9.041878700E0,1.121276665E1
1.639488394E0,4.811966419E0,7.030711174E0,1.270170116E1
1.659503030E0,3.849453449E0,4.018745422E0,1.256770229E1
1.679132926E0,1.752144337E0,2.577668190E0,1.052782154E1
1.698955061E0,2.333002165E-2,2.726023197E0,8.641678810E0
1.718815686E0,-3.888336942E-2,2.989233732E0,7.200003147E0
1.738599488E0,6.699903607E-1,3.290729284E0,6.471987247E0
1.758614176E0,9.571290612E-1,3.468396425E0,6.141777515E0
1.778244019E0,6.699903607E-1,3.156731367E0,5.988636971E0
1.798066155E0,-6.281159073E-2,2.907877684E0,5.423332691E0
1.817888394E0,-2.111666054E-1,3.300300598E0,4.801198483E0
1.837672144E0,7.597211748E-2,3.707678795E0,4.499702930E0
1.857725217E0,8.554340899E-2,3.516252756E0,5.322834015E0
1.877355113E0,7.597211748E-2,3.013161898E0,6.199205399E0
1.897177353E0,-2.255235314E-1,3.037090063E0,6.951149940E0
1.916999540E0,-1.159322619E0,3.511467218E0,8.516654015E0
1.936821676E0,-2.184048891E0,4.162314892E0,1.095912743E1
1.956836363E0,-1.796411633E0,4.512265205E0,1.387059498E1
1.976466311E0,2.243271172E-1,4.746761799E0,1.634597015E1
1.996250061E0,1.876571178E0,5.143970490E0,1.633161354E1
2.016110634E0,2.709871531E0,5.828916073E0,1.284108257E1
2.035932769E0,3.178864956E0,6.700501442E0,8.382656097E0
2.055947509E0,2.192423820E0,7.586444378E0,6.117849350E0
2.075707509E0,1.263410330E0,7.274778843E0,6.778866768E0
2.095399019E0,2.082353830E0,5.134399414E0,9.359525681E0
2.115221311E0,2.383849621E0,3.497110367E0,1.086820030E1
2.135043603E0,1.675574064E0,3.454039574E0,1.036032391E1
2.155058446E0,5.742774606E-1,3.927818298E0,9.187242508E0
2.174688342E0,-2.590230405E-1,4.353740692E0,7.808378696E0
2.194510582E0,-9.152546525E-2,4.641477585E0,6.649653912E0
2.214332769E0,8.566305041E-1,4.665405750E0,6.232704639E0
2.234155009E0,1.545763373E0,4.636692047E0,6.620940208E0
2.254169801E0,1.847857237E0,4.507479668E0,7.319644451E0
2.273799696E0,2.182852507E0,4.646263599E0,8.306085587E0
2.293814384E0,1.886142492E0,4.564907551E0,8.444869041E0
2.313444280E0,1.182054400E0,4.210171223E0,7.477570534E0
2.333266415E0,6.891329288E-1,3.913461447E0,6.194419384E0
2.353281103E0,4.923232496E-1,3.812962770E0,5.327619553E0
2.372911051E0,1.764706671E-1,4.152743816E0,5.121836662E0
2.392733186E0,-1.393819153E-1,4.550550461E0,5.169693470E0
2.412555321E0,-3.595215976E-1,4.689334393E0,5.164907455E0
2.432377509E0,2.051845491E-1,4.986044407E0,5.534000397E0
2.452392196E0,7.752745152E-1,5.551348686E0,6.563512325E0
2.472022092E0,3.918247223E-1,5.589633465E0,8.459226608E0
2.492036780E0,7.848458290E-1,4.588835716E0,1.096391296E1
2.511666728E0,1.521835208E0,4.162314892E0,1.204606724E1
2.531488811E0,1.076770186E0,4.698905468E0,1.238106251E1
2.551272561E0,-2.590230405E-1,5.498706341E0,1.314736366E1
2.571133082E0,1.046859920E-1,5.225326538E0,1.439223003E1
2.591147821E0,1.570289850E0,4.037888050E0,1.514896011E1
2.610777717E0,2.048854351E0,3.195016384E0,1.424387455E1
2.630599853E0,1.210768223E0,3.022733212E0,1.229970646E1
2.650422040E0,-3.834498227E-1,3.094517946E0,1.083948612E1
2.670244228E0,-1.963909149E0,3.151945591E0,9.297312737E0
2.690220374E0,-2.174477577E0,3.161516905E0,7.597810268E0
2.709888811E0,-1.609771490E0,3.420539856E0,6.337988853E0
2.729710999E0,-9.391828775E-1,3.951746702E0,5.442475319E0
2.749533134E0,-8.099704385E-1,4.655834675E0,4.887340069E0
2.769355374E0,-7.046862841E-1,4.617549419E0,4.872983456E0
2.789370113E0,1.477568001E-1,4.310669899E0,6.409773827E0
2.808999957E0,8.757730722E-1,3.827319860E0,8.234300613E0
2.828822196E0,1.565504193E0,3.003590584E0,8.066802979E0
2.848644384E0,1.411765337E0,2.702095032E0,6.390631199E0
2.868466571E0,1.429711580E-1,2.941377163E0,4.743771076E0
2.888481259E0,-7.142575383E-1,2.917448997E0,3.752544165E0
2.908111207E0,-5.946164131E-1,2.692523718E0,5.227120876E0
2.927933394E0,-3.499503136E-1,2.391027927E0,9.081958771E0
2.947755582E0,-3.930211067E-1,2.601596355E0,1.223270798E1
2.967577769E0,-5.515456200E-1,3.525824070E0,1.344407368E1
2.987592509E0,-6.568298340E-1,4.358526230E0,1.277408409E1
3.007222405E0,-4.845465720E-2,4.875974178E0,1.081555843E1
3.027044592E0,8.183453679E-1,5.421537876E0,8.880961418E0
3.046866780E0,1.028913736E0,6.072983742E0,8.617751122E0
3.066688967E0,5.742774606E-1,5.344967365E0,9.953543663E0
3.086703707E0,2.541775942E0,3.372085333E0,1.056132126E1
3.106333603E0,2.695514679E0,3.075375319E0,1.024546814E1
3.126155790E0,6.939185858E-1,3.137588739E0,9.570094109E0
3.145977978E0,-6.807580590E-1,2.611167669E0,9.786046028E0
3.165761728E0,-1.030110121E0,2.572882652E0,1.052303600E1
3.185814853E0,-2.638086975E-1,2.879163742E0,1.142333508E1
3.205444749E0,1.764706671E-1,3.975674868E0,1.128933716E1
3.225266936E0,1.445264935E0,4.852046013E0,8.976674080E0
3.245089124E0,2.024926186E0,4.995615482E0,7.257431030E0
3.264911311E0,1.843071699E0,4.200600147E0,7.386643410E0
3.284926051E0,9.236295223E-1,3.655036688E0,8.018946648E0
3.304686051E0,-1.058823988E-1,3.276372433E0,8.310871124E0
3.324570738E0,-2.973082066E-1,2.491526604E0,8.967103004E0
3.344200738E0,1.764706671E-1,2.405385017E0,1.051346493E1
3.364022821E0,3.583251834E-1,3.199802160E0,1.158604717E1
3.383844957E0,9.032905847E-2,3.803391695E0,1.211306667E1
3.403628759E0,5.682953820E-2,3.611965895E0,1.195992565E1
3.423681832E0,-4.743770957E-1,3.755535126E0,1.100219822E1
3.443311728E0,-8.338986635E-1,4.612763882E0,1.066241741E1
3.463133915E0,-3.068794906E-1,5.129613400E0,1.125583744E1
3.482956103E0,7.465606928E-1,4.368097782E0,1.089212894E1
3.502778342E0,1.134197950E0,3.439682484E0,9.853045464E0
3.522793082E0,-2.931207791E-2,2.955734253E0,9.642477036E0
3.542553082E0,-9.391828775E-1,2.816950560E0,9.273384094E0
3.562244540E0,-6.520441771E-1,3.266801119E0,8.377870560E0
3.582066936E0,2.003988922E-1,3.966103554E0,7.717451096E0
3.601889176E0,6.843472719E-1,4.358526230E0,6.836294174E0
3.621904071E0,9.511470050E-2,4.497908592E0,5.734997749E0
3.641534071E0,-1.140179992E0,4.445266247E0,5.423332691E0
3.661548811E0,-1.676770449E0,4.526622295E0,6.108277798E0
3.681178707E0,-4.839483798E-1,4.253242016E0,6.501298904E0
3.701000946E0,1.854437590E-2,4.181457520E0,6.199205399E0
3.721015634E0,8.973085321E-3,4.052245140E0,5.782854080E0
3.740645582E0,-3.595215976E-1,3.779463291E0,6.141777515E0
3.760429384E0,-5.371887088E-1,3.736392498E0,6.994220734E0
3.780289905E0,2.147558331E-1,4.023531437E0,7.784450054E0
3.800112092E0,1.124626637E0,4.253242016E0,9.613762856E0
3.820126832E0,1.316052437E0,4.114458561E0,1.242413330E1
3.839756780E0,1.685145378E0,3.779463291E0,1.381795216E1
3.859771519E0,1.723430514E0,3.946960926E0,1.245284748E1
3.879401467E0,1.646860242E0,4.818546772E0,9.445667267E0
3.899223603E0,1.095912814E0,5.618347645E0,7.348358154E0
3.919238342E0,3.056831062E-1,5.584847927E0,6.908079147E0
3.938998342E0,1.483550072E0,4.401597023E0,9.259027481E0
3.958689905E0,2.168495417E0,3.218944550E0,1.195992565E1
3.978512144E0,2.359921217E0,2.682952404E0,1.196949673E1
3.998334488E0,3.154936552E0,2.227717876E0,1.013061333E1
4.018349332E0,3.068794966E0,1.931007862E0,8.358727455E0
4.037979332E0,1.881356835E0,1.907079697E0,7.290930748E0
4.057994019E0,9.990034252E-2,2.467598438E0,7.396214962E0
4.077623967E0,-7.142575383E-1,3.760320902E0,7.722237110E0
4.097446259E0,-6.711867452E-1,3.415754318E0,6.683153629E0
4.117460946E0,1.668993831E-1,2.568096876E0,5.974279881E0
4.137090894E0,4.205385745E-1,2.510669231E0,6.582654953E0
4.157105530E0,3.631108403E-1,3.257229805E0,7.727022648E0
4.176735530E0,-1.944766641E0,4.875974178E0,7.640881062E0
4.196557665E0,-4.429712772E0,4.919044971E0,8.315656662E0
4.216379853E0,-1.551745534E0,1.514656782E0,9.570094109E0
4.236202144E0,-5.371887088E-1,1.797009826E0,9.996614456E0
4.256216832E0,-4.600201547E-1,3.755535126E0,9.254241943E0
4.275846780E0,-8.003991842E-1,4.569693089E0,8.114660263E0
4.295668967E0,-1.734198213E0,4.450051785E0,7.975875854E0
4.315491207E0,-1.202393413E0,3.918246984E0,8.382656097E0
4.335313394E0,-4.504488707E-1,3.951746702E0,8.497511864E0
4.355328186E0,-2.806781054E0,5.474778175E0,9.321240425E0
4.374958134E0,-5.737390518E0,7.241279602E0,1.093519974E1
4.394972874E0,-5.847460270E0,7.988438606E0,1.047996521E1
4.414602769E0,-3.452843189E0,7.413562775E0,8.377870560E0
4.434386624E0,-2.998206854E0,7.150352478E0,8.511868477E0
4.454439644E0,-6.067600250E0,7.820940971E0,8.952746391E0
4.474069592E0,-9.337990761E0,7.198208809E0,7.650452137E0
4.493891832E0,-9.754341125E0,5.795416355E0,6.520441532E0
4.513714071E0,-6.800402164E0,6.250052929E0,3.570689678E0
4.533536311E0,-2.730210543E0,6.753143787E0,2.009372711E0
4.553551051E0,-7.908278704E-1,6.824928284E0,3.388834953E0
4.573180999E0,4.348955154E-1,6.245266914E0,6.017350674E0
4.593003186E0,9.714859724E-1,5.316253662E0,7.650452137E0
4.612825426E0,-2.207378894E-1,4.497908592E0,7.841877937E0
4.632647665E0,-2.394617319E0,4.564907551E0,7.491927624E0
4.652662457E0,-2.950350285E0,4.627120972E0,6.932007313E0
4.672292405E0,-2.207977057E0,4.737190723E0,6.084349632E0
4.692076207E0,-1.255035520E0,4.981258392E0,5.816353798E0
4.711936832E0,-1.715055585E0,4.660620213E0,6.194419384E0
4.731759071E0,-2.720639229E0,4.531407833E0,6.558726788E0
4.751773863E0,-1.930409670E0,5.220541000E0,7.755736351E0
4.771403811E0,-7.860422134E-1,6.125626087E0,1.062831974E1
4.791226103E0,-2.931207791E-2,6.288337708E0,1.310907841E1
4.811048342E0,-1.633101404E-1,5.484349728E0,1.300379467E1
4.830870582E0,-1.671984792E0,5.795416355E0,1.154776192E1
4.850885374E0,-1.532602906E0,6.455835342E0,1.041775131E1
4.870515269E0,-4.265206456E-1,6.705287457E0,1.026461124E1
4.890337561E0,-2.207378894E-1,6.254838467E0,1.024546814E1
4.910159801E0,2.811566554E-2,5.330610752E0,1.032682419E1
4.929982040E0,2.673979402E-1,4.861617565E0,9.776474953E0
4.949996780E0,-5.802595019E-1,4.756333351E0,8.157731056E0
4.969626780E0,-1.753340840E0,4.646263599E0,6.793223381E0
4.989641467E0,-1.887338877E0,4.531407833E0,6.506084919E0
5.009271467E0,-4.408775866E-1,4.584050179E0,6.917650223E0
5.029093655E0,8.997012973E-1,4.722833633E0,7.204789162E0
5.048915894E0,5.066801906E-1,4.828117847E0,6.520441532E0
5.068738134E0,-3.260220885E-1,4.665405750E0,5.222335339E0
5.088752926E0,-6.520441771E-1,4.450051785E0,4.523631096E0
5.108382874E0,-7.621139884E-1,4.512265205E0,4.686343193E0
5.128205113E0,-6.903293133E-1,4.607978344E0,5.380261898E0
5.148027353E0,-7.716853023E-1,4.574478626E0,5.610570908E0
5.167849592E0,-1.154536963E0,4.464408875E0,5.706283569E0
5.187864384E0,-1.691127419E0,4.415954113E0,6.376274109E0
5.207494332E0,-1.624128342E0,4.531407833E0,7.832306862E0
5.227316571E0,-1.345962763E0,5.115256786E0,9.838688850E0
5.247138811E0,-7.429714203E-1,5.072185993E0,1.180678558E1
5.266961103E0,1.764706671E-1,4.291527271E0,1.327657604E1
5.286975894E0,1.689931035E0,3.511467218E0,1.283629704E1
5.306605842E0,1.771286964E0,3.784249067E0,1.190728378E1
5.326428082E0,-5.982056609E-4,4.923830986E0,1.173978615E1
5.346250321E0,-1.715055585E0,5.594419479E0,1.163868904E1
5.366072613E0,-1.097109199E0,4.133601189E0,1.129412270E1
5.386087405E0,4.348955154E-1,2.007578135E0,1.198385429E1
5.405717353E0,-3.888336942E-2,2.007578135E0,1.173978615E1
5.425539592E0,-9.918249846E-1,3.372085333E0,1.070070267E1
5.445323446E0,-7.668996453E-1,4.348955154E0,1.003489971E1
5.465184071E0,4.247260094E-2,3.731606960E0,9.139386177E0
5.485198863E0,5.934200287E-1,2.558525562E0,7.329215527E0
5.504828863E0,3.290131316E-2,2.764308453E0,6.457630157E0
5.524651103E0,-1.652842283E0,3.975674868E0,6.735795975E0
5.544473342E0,-3.060420275E0,4.861617565E0,7.664809227E0
5.564295582E0,-2.499901533E0,4.109673023E0,8.464012146E0
5.584310426E0,-5.659025311E-1,2.879163742E0,7.573882103E0
5.603940374E0,2.961117923E-1,2.227717876E0,7.022934437E0
5.623762665E0,-3.020938635E-1,2.084148407E0,7.841877937E0
5.643584905E0,-1.216750264E0,2.955734253E0,7.956733704E0
5.663407196E0,-6.759724021E-1,3.994817495E0,6.922435760E0
5.683421936E0,-1.920240223E-1,5.081757069E0,6.156134605E0
5.703051936E0,-9.248259664E-1,5.733202934E0,6.606583118E0
5.722797405E0,-9.200403094E-1,5.637490273E0,8.612964630E0
5.742696311E0,2.673979402E-1,5.263611794E0,1.039860916E1
5.762518655E0,8.518448472E-1,5.661418438E0,1.144247818E1
5.782494905E0,1.057627559E0,5.905486107E0,1.100698376E1
5.802163394E0,7.896314859E-1,5.388038158E0,9.550951958E0
5.822178186E0,-1.566700578E0,5.163113117E0,9.766903877E0
5.841808186E0,-2.825923443E0,5.503491879E0,1.135155106E1
5.861822926E0,-1.001396298E0,5.551348686E0,1.277408409E1
5.881452926E0,9.762716293E-1,5.143970490E0,1.299422359E1
5.901275061E0,1.502692580E0,4.646263599E0,1.151904774E1
5.921289853E0,1.435693622E0,4.655834675E0,9.120243073E0
5.940919853E0,1.344766378E0,4.512265205E0,6.673582554E0
5.960742040E0,2.338984162E-1,4.334598064E0,4.853840828E0
5.980564280E0,-1.207179070E0,4.794618607E0,4.786841869E0
6.000348082E0,-6.999006271E-1,4.923830986E0,5.811567783E0
6.020401259E0,6.652047038E-1,4.301098824E0,6.520441532E0
6.040031259E0,7.609176040E-1,3.899104595E0,6.821937561E0
6.060046051E0,1.668993831E-1,4.157529354E0,6.103492260E0
6.079675999E0,2.811566554E-2,4.281956196E0,5.236692429E0
6.099498238E0,4.187439568E-3,4.195814610E0,4.571487427E0
6.119512978E0,-5.515456200E-1,4.435695171E0,4.326821327E0
6.139142978E0,-1.264606714E0,4.952544689E0,4.949553490E0
6.158965165E0,-1.255035520E0,5.029115200E0,6.539584160E0
6.178787457E0,-1.604985833E0,4.904688358E0,8.723034859E0
6.198609696E0,-3.074777126E0,6.053841114E0,1.109312534E1
6.218624488E0,-2.778067112E0,6.858428001E0,1.264905834E1
6.238254488E0,-6.137589812E-1,6.230910301E0,1.172064304E1
6.258269176E0,-1.245464206E0,6.436692715E0,9.637691498E0
6.277899228E0,-3.831507206E0,8.127222061E0,1.005882835E1
6.297721363E0,-3.428914785E0,7.725227833E0,1.286979675E1
6.317736155E0,-1.691127419E0,6.015556335E0,1.431565952E1
6.337366155E0,-1.681556106E0,5.359324455E0,1.243848991E1
6.357188342E0,-2.763710260E0,5.489135265E0,8.943174362E0
6.377010582E0,-3.452843189E0,5.445466042E0,7.104290485E0
6.396832874E0,-2.682354212E0,5.254040241E0,7.295716286E0
6.416847613E0,-7.525427341E-1,4.976472855E0,7.525427341E0
6.436477665E0,-2.452643216E-2,4.751547337E0,6.654439926E0
6.456492405E0,-1.197607756E0,4.497908592E0,4.767699242E0
6.476122405E0,-2.610569477E0,4.651049137E0,3.508476257E0
6.495944592E0,-3.337987661E0,5.182255745E0,3.292523861E0
6.515959332E0,-2.663211584E0,5.967699528E0,4.240679741E0
6.535589384E0,-5.946164131E-1,5.895915031E0,6.160920143E0
6.555604019E0,1.162911773E0,4.832903385E0,7.314858913E0
6.575234019E0,5.066801906E-1,4.674977303E0,6.798008919E0
6.595056259E0,-1.920838356E0,5.273182869E0,5.432903767E0
6.614840009E0,-3.247060299E0,5.790630817E0,5.529214859E0
6.634700686E0,-1.523031592E0,5.915057659E0,8.502297401E0
6.654715478E0,-5.078766346E-1,6.264409542E0,1.279322624E1
6.674345426E0,-1.968694806E0,7.265207767E0,1.298465252E1
6.694167717E0,-3.884149313E0,8.323433876E0,9.148957253E0
6.713951519E0,-6.014957905E0,8.069794655E0,1.266999602E0
6.733812196E0,-4.022933006E0,7.921439171E0,5.720640659E0
6.753826988E0,-1.604985833E0,9.017950058E0,1.492403507E1
6.773456988E0,-1.748555183E0,9.702896118E0,1.418644714E1
6.836708920E0,-2.159522474E-1,6.053841114E0,5.097908497E0
6.856593347E0,7.130611539E-1,5.469992638E0,7.252645493E0
6.876223191E0,1.368694544E0,5.081757069E0,8.449654579E0
6.896045118E0,8.231309652E-1,5.115256786E0,8.718249321E0
6.915828764E0,1.621137410E-1,5.431109428E0,9.225527763E0
6.935689180E0,2.003988922E-1,5.546562672E0,9.316454887E0
6.955703764E0,4.396811724E-1,5.062614441E0,7.760521889E0
6.975463764E0,6.460621357E-1,4.473979950E0,5.687141418E0
6.995155014E0,8.279166222E-1,3.966103554E0,5.107480049E0
7.014977201E0,4.971089065E-1,3.583251953E0,5.768496990E0
7.034760951E0,-3.020938635E-1,3.860819340E0,7.415357590E0
7.054814076E0,-2.446661144E-1,3.875176191E0,8.234300613E0
7.074443868E0,5.359922647E-1,3.616751432E0,7.525427341E0
7.094265951E0,-2.733799815E-1,4.033102512E0,6.989434719E0
7.114088034E0,-7.764709592E-1,4.502694130E0,7.703094482E0
7.133910170E0,-2.542374134E-1,4.104887009E0,8.172087669E0
7.153924857E0,5.066801906E-1,3.123231649E0,8.957531929E0
7.173554701E0,1.094716340E-1,3.525824070E0,1.153340530E1
7.193376732E0,-1.920240223E-1,3.879961967E0,1.300858021E1
7.213198816E0,1.062413216E0,3.290729284E0,1.332443333E1
7.233020899E0,1.828714728E0,1.859223247E0,1.299900913E1
7.253035534E0,3.341576815E0,-3.194418252E-1,1.136590767E1
7.272665274E0,4.160520554E0,-5.826523304E-1,1.086341476E1
7.292487409E0,2.589632273E0,6.574280262E-1,1.269212914E1
7.312309441E0,1.996212244E0,3.401397467E0,1.645125389E1
7.332131524E0,4.299304008E0,4.013959885E0,1.779661751E1
7.352146107E0,4.926821709E0,-1.310668588E0,1.297029495E1
7.371775899E0,-9.439685345E-1,7.292127013E-1,6.711867332E0
7.391559493E0,-3.050848961E0,3.793820381E0,5.207978249E0
7.411419961E0,-1.298106313E0,2.730808735E0,5.399404526E0
7.431242045E0,-7.046862841E-1,3.487539053E0,7.549953461E0
7.451256628E0,-2.685943544E-1,3.430111170E0,8.919246674E0
7.470886420E0,5.790630579E-1,3.190230846E0,8.483154297E0
7.490708503E0,1.062413216E0,3.056232691E0,7.669594765E0
7.510530586E0,-1.298106313E-1,3.573680639E0,6.908079147E0
7.530352670E0,-1.782054663E0,4.152743816E0,5.931209087E0
7.550367201E0,-9.774680734E-1,3.975674868E0,5.303691387E0
7.569997045E0,8.709874153E-1,3.918246984E0,4.901697159E0
7.589819076E0,8.901300430E-1,4.454837322E0,4.896911621E0
7.609641107E0,-2.925225794E-1,4.785047054E0,5.380261898E0
7.629463191E0,-8.003991842E-1,4.737190723E0,5.653641701E0
7.649477774E0,-1.495514158E-2,5.124827862E0,5.361119270E0
7.669107566E0,1.378265858E0,5.934200287E0,5.553143024E0
7.689122097E0,2.096710920E0,6.130411625E0,7.219145775E0
7.708882097E0,2.134995937E0,5.053043365E0,7.645666599E0
7.728573347E0,2.101496458E0,4.445266247E0,6.850651264E0
7.748357097E0,2.676372051E0,4.665405750E0,7.367500782E0
7.768217566E0,3.083152056E0,4.152743816E0,1.112662506E1
7.788232305E0,2.565704107E0,3.309871912E0,1.523510170E1
7.807862097E0,2.211566210E0,3.204587698E0,1.647518158E1
7.827684180E0,2.431705952E0,3.808177233E0,1.454058456E1
7.847506264E0,2.192423820E0,4.411168575E0,1.130369377E1
7.867328347E0,2.034497499E0,5.484349728E0,8.770891190E0
7.887342982E0,2.474776745E0,5.551348686E0,8.196015358E0
7.907088139E0,3.533002615E0,4.320241451E0,9.853045464E0
7.926794961E0,4.692325115E0,3.185445070E0,1.104048347E1
7.946617045E0,4.366302967E0,2.898306370E0,1.002054310E1
7.966439076E0,2.584846735E0,3.061018467E0,8.133802414E0
7.986453659E0,1.325623751E0,3.367299557E0,6.534798622E0
8.006083451E0,9.140582681E-1,3.836891174E0,5.691926956E0
8.025905430E0,1.191625714E0,4.061816216E0,5.758925915E0
8.045727566E0,2.015354872E0,4.258028030E0,6.922435760E0
8.065742097E0,2.326421738E0,4.286741734E0,7.137789726E0
8.085564336E0,8.231309652E-1,4.339384079E0,6.280561447E0
8.105194128E0,-8.865407705E-1,4.459623337E0,5.931209087E0
8.125016159E0,-2.040479422E0,4.277170658E0,6.026922226E0
8.144838139E0,-1.369890928E0,3.966103554E0,6.046064377E0
8.164660170E0,1.764706671E-1,3.879961967E0,7.113861561E0
8.184674753E0,7.465606928E-1,3.875176191E0,9.345169067E0
8.204304493E0,3.822534084E-1,3.276372433E0,1.077248764E1
8.224126576E0,-2.781656384E-1,3.324228764E0,1.096391296E1
8.243948607E0,-1.667199135E0,4.823332310E0,1.089691448E1
8.263963139E0,-2.610569477E0,6.010770321E0,1.212263775E1
8.283785430E0,-2.274976015E0,6.049055576E0,1.391845131E1
8.303415222E0,-1.724626899E0,5.771488190E0,1.392802238E1
8.323237149E0,-1.432104349E0,5.881557941E0,1.258205986E1
8.343059180E0,-6.329016089E-1,6.163911343E0,1.090648556E1
8.362881211E0,-7.716853172E-2,5.594419479E0,9.728618622E0
8.382895743E0,-1.680957973E-1,4.574478626E0,9.297312737E0
8.402525586E0,-1.585244983E-1,3.836891174E0,9.206384659E0
8.422347566E0,4.396811724E-1,3.333800077E0,8.952746391E0
8.442169649E0,1.277767301E0,3.161516905E0,7.884948730E0
8.461991680E0,1.359123230E0,3.314657450E0,6.601797581E0
8.482006211E0,3.774677813E-1,3.338585854E0,5.351547718E0
8.501636003E0,-4.648058116E-1,3.357728481E0,4.178466320E0
8.521650534E0,-6.424728632E-1,3.568894863E0,3.354737282E0
8.541280326E0,-5.754738450E-1,4.037888050E0,3.379263878E0
8.561102305E0,-7.334001660E-1,4.808975220E0,4.322035789E0
8.580924336E0,-7.668996453E-1,5.311468124E0,4.423132420E0
8.600746368E0,-2.159522474E-1,5.647061348E0,3.948755503E0
8.620760951E0,-2.925225794E-1,6.039484501E0,4.777270317E0
8.640390795E0,-1.240678549E0,6.149554253E0,6.869793892E0
8.660212774E0,-1.097109199E0,5.594419479E0,9.460023880E0
8.680034857E0,-2.973082066E-1,4.502694130E0,1.058524895E1
8.699856889E0,2.243271172E-1,4.243670940E0,1.104048347E1
8.719871472E0,8.422735929E-1,4.933402061E0,1.149512005E1
8.739501211E0,1.426122308E0,5.115256786E0,1.137069321E1
8.759323295E0,1.852642894E0,4.789832592E0,1.181157112E1
8.779145326E0,2.000998020E0,4.890331268E0,1.316172123E1
8.798967409E0,2.350350142E0,5.929414749E0,1.218963718E1
8.818981993E0,2.206780672E0,7.384849072E0,9.187242508E0
8.838611732E0,1.333998591E-1,7.528418064E0,7.200003147E0
8.858626316E0,-8.434699774E-1,6.072983742E0,6.510870457E0
8.878386316E0,-2.255235314E-1,5.153541565E0,5.955137253E0
8.898077514E0,5.264210105E-1,5.392824173E0,5.543571949E0
8.918092253E0,1.138983607E0,5.062614441E0,6.093921185E0
8.937722045E0,1.339980721E0,4.243670940E0,7.861020565E0
8.957544076E0,3.379862070E0,3.999603033E0,9.574879646E0
8.977327774E0,5.639883041E0,3.956532240E0,1.060439205E1
8.997188191E0,4.907679081E0,3.894318819E0,1.059482002E1
9.017202930E0,2.173281193E0,3.406183004E0,1.042253685E1
9.036832670E0,-2.398804724E-1,2.860021353E0,9.527023315E0
9.056847201E0,-1.432104349E0,2.965305567E0,7.880163193E0
9.076476993E0,-9.487541914E-1,3.501895905E0,6.299703598E0
9.096299024E0,1.525424421E-1,3.516252756E0,4.901697159E0
9.116313555E0,7.992027402E-1,3.094517946E0,3.369692564E0
9.135943347E0,1.584646821E0,2.922234535E0,2.368894339E0
9.155765378E0,1.014556766E0,3.583251953E0,2.076371908E0
9.175587409E0,-9.966106415E-1,3.966103554E0,2.976671457E0
9.195409441E0,-2.155334949E0,3.597608805E0,4.054039955E0
9.215424024E0,-7.477570772E-1,3.113660574E0,6.275775433E0
9.235053764E0,2.051845491E-1,3.151945591E0,1.266341591E1
9.255068295E0,1.381855011E-1,3.252444267E0,1.900858307E1
9.274828295E0,1.004985452E0,3.013161898E0,2.003330994E1
9.294519545E0,1.076770186E0,3.659822226E0,1.801257133E1
9.314534284E0,1.142572835E-1,4.277170658E0,1.745205116E1
9.334164076E0,5.742774606E-1,3.851248026E0,1.753340721E1
9.354178659E0,2.048854351E0,3.228515863E0,1.590569019E1
9.373808451E0,2.264208317E0,3.094517946E0,1.253898907E1
9.393630534E0,1.570289850E0,2.950948477E0,9.024530411E0
9.413414076E0,1.764706671E-1,3.401397467E0,6.759724140E0
9.433274545E0,-9.343972206E-1,3.631108284E0,6.601797581E0
9.453289180E0,-7.812566161E-1,3.343371391E0,7.243073940E0
9.472918920E0,1.142572835E-1,3.175873756E0,7.918448448E0
9.492741003E0,4.875376225E-1,3.664607763E0,7.889734268E0
9.512562982E0,9.511470050E-2,4.253242016E0,6.764509678E0
9.532385066E0,-1.728814393E-1,4.483551502E0,5.730212212E0
9.552399649E0,-1.974078640E-2,4.181457520E0,5.629713535E0
9.572029389E0,2.434697002E-1,3.659822226E0,6.223133564E0
9.591851472E0,2.913261652E-1,3.549752474E0,7.257431030E0
9.611673555E0,-4.743770957E-1,4.152743816E0,7.104290485E0
9.631457149E0,-6.185446382E-1,4.430909157E0,6.745367050E0
9.651510118E0,-5.850451589E-1,4.310669899E0,7.765307903E0
9.671139909E0,-1.111466169E0,4.593621254E0,9.268598557E0
9.690923503E0,-8.673982024E-1,4.415954113E0,1.055174923E1
9.710783920E0,-1.106680483E-1,4.281956196E0,1.143290615E1
9.730567514E0,5.934200287E-1,3.985246181E0,1.202692509E1
9.750620586E0,8.949156404E-1,3.410968781E0,1.233320618E1
9.770250378E0,4.157529473E-1,2.883949518E0,1.225663567E1
9.790072409E0,1.956132501E-1,2.486740828E0,1.128455162E1
9.809894493E0,6.221339107E-1,2.333002090E0,8.239086151E0
9.829716524E0,4.588237405E-1,2.376671076E0,4.413561344E0
9.849731107E0,2.333002165E-2,2.831307411E0,3.096312523E0
9.869360847E0,1.908276081E-1,4.133601189E0,5.188836098E0
9.889182982E0,1.191625714E0,4.248456478E0,9.182456970E0
9.909005014E0,3.384647608E0,3.151945591E0,1.284108257E1
9.928827045E0,5.065605640E0,3.357728481E0,1.408594894E1
9.948841576E0,5.400600910E0,4.440480709E0,1.291765308E1
9.968471420E0,4.548157692E0,4.267599106E0,1.164826107E1
9.988293451E0,2.819941521E0,3.046661377E0,1.116491032E1
1.000807704E1,1.268195987E0,2.414956331E0,1.101655579E1
1.002793751E1,5.551348329E-1,2.414956331E0,1.065284634E1
1.004795210E1,1.143769264E0,2.424527645E0,9.934401512E0
1.006758184E1,1.661217093E0,2.453241348E0,8.938388824E0
1.008740392E1,1.531406522E0,2.343171597E0,8.363512993E0
1.010722595E1,1.024128079E0,2.280359983E0,7.736593723E0
1.012704803E1,3.104687333E-1,2.453241348E0,7.066005230E0
1.014706257E1,1.286142170E-1,2.874378204E0,6.544369698E0
1.016669241E1,2.386840582E-1,3.142374277E0,6.553941250E0
1.018670694E1,3.583251834E-1,3.285943747E0,6.774080753E0
1.020633668E1,6.317051649E-1,3.731606960E0,6.793223381E0
1.022615871E1,1.847857237E0,3.990031719E0,6.620940208E0
1.024598074E1,2.786442041E0,3.908675671E0,6.812366009E0
1.026580277E1,2.949153900E0,3.333800077E0,8.325227737E0
1.028581730E1,3.748954773E0,1.572084427E0,9.536594391E0
1.030544710E1,2.685943365E0,1.629512191E0,1.134676456E1
1.032526913E1,-9.631111473E-2,4.176671982E0,1.306600761E1
1.034509121E1,-1.997408748E0,6.173482418E0,1.149990559E1
1.036491324E1,1.024128079E0,2.649452925E0,9.719047546E0
1.038492783E1,2.364706993E0,1.710868239E0,9.397810936E0
1.040455757E1,2.350350142E0,1.308874011E0,8.559724808E0
1.042437960E1,2.647658348E0,2.251646042E0,8.382656097E0
1.044420168E1,1.962712765E0,4.655834675E0,1.064806080E1
1.046402371E1,2.168495417E0,4.727619171E0,1.342014599E1
1.048403835E1,2.863012314E0,3.123231649E0,1.447358608E1
1.050366809E1,2.355135679E0,1.753939033E0,1.279322624E1
1.052349012E1,1.550549030E0,2.280359983E0,9.900901794E0
1.054331215E1,8.279166222E-1,3.041875839E0,8.062017441E0
1.056309580E1,-2.590230405E-1,3.525824070E0,7.545167923E0
1.058314876E1,-1.020538807E0,3.406183004E0,7.525427341E0
1.060277850E1,-1.681556106E0,3.084946632E0,7.334001541E0
1.062260053E1,-1.667199135E0,3.166302681E0,6.989434719E0
1.064242262E1,-8.051848412E-1,3.046661377E0,6.400202274E0
1.066224470E1,-1.016949583E-2,2.682952404E0,6.103492260E0
1.068225923E1,6.173482537E-1,2.754737139E0,6.462415695E0
1.070188902E1,8.279166222E-1,3.712464333E0,7.109076023E0
1.072171111E1,8.566305041E-1,4.301098824E0,7.348358154E0
1.074153314E1,1.435693622E0,3.635894060E0,7.439285755E0
1.076135517E1,2.570489645E0,2.515454769E0,7.535596848E0
1.078136980E1,3.456432343E0,1.931007862E0,7.180860519E0
1.080099954E1,3.701098442E0,1.734796405E0,7.357929707E0
1.082082158E1,2.316850424E0,3.080160856E0,8.344370842E0
1.084064366E1,2.168495417E0,3.382254839E0,1.015932655E1
1.086046569E1,3.265006542E0,2.950948477E0,1.170150089E1
1.088048027E1,5.108676434E0,1.667797327E0,1.086341476E1
1.090011007E1,5.300102234E0,4.851447940E-1,8.559724808E0
1.091989366E1,2.053640127E0,1.035493970E0,7.794021606E0
1.093975408E1,-1.527817249E0,3.223730326E0,1.000618649E1
1.095957611E1,4.683950245E-1,2.955734253E0,1.395195103E1
1.097959074E1,4.783252239E0,1.643869162E0,1.711705589E1
1.099922048E1,6.300900459E0,1.911865234E0,1.670967865E1
1.101923501E1,5.851049423E0,3.190230846E0,1.412901974E1
1.103886480E1,4.701896667E0,4.253242016E0,1.198385429E1
1.105887934E1,1.986641049E0,4.521836758E0,9.862616539E0
1.107863934E1,2.961117923E-1,3.722035646E0,7.602595806E0
1.109833048E1,-1.345962733E-1,3.430111170E0,5.940780640E0
1.111834527E1,-4.791627228E-1,3.722035646E0,5.207978249E0
1.113797507E1,-7.908278704E-1,3.894318819E0,5.011766911E0
1.115779715E1,-6.329016089E-1,3.473181963E0,5.462215900E0
1.117761918E1,-1.728814393E-1,2.601596355E0,6.314060688E0
1.119744126E1,-1.106680483E-1,2.146361828E0,6.726224422E0
1.121745585E1,-1.537388563E-1,2.299502611E0,6.616154671E0
1.123708569E1,-3.888336942E-2,2.749951363E0,6.601797581E0
1.125710022E1,3.535395563E-1,2.864806890E0,7.612166882E0
1.127672996E1,5.162515044E-1,2.405385017E0,8.751749039E0
1.129655194E1,1.764706671E-1,1.801795483E0,9.278169632E0
1.131656658E1,-3.020938635E-1,1.629512191E0,1.096869946E1
1.133632658E1,4.396811724E-1,1.533799291E0,1.325743389E1
1.135597918E1,2.053640127E0,1.471585870E0,1.462672615E1
1.137583970E1,2.268994093E0,1.509871125E0,1.428694534E1
1.139566189E1,1.378265858E0,2.079362869E0,1.271127224E1
1.141567668E1,1.095912814E0,3.113660574E0,1.208913803E1
1.143530642E1,4.253242314E-1,4.028316975E0,1.294158173E1
1.145532106E1,-1.336391449E0,4.085744858E0,1.335793209E1
1.147508106E1,-1.992623091E0,3.204587698E0,1.279801178E1
1.149477225E1,-6.089733839E-1,2.347957134E0,1.136590767E1
1.151478710E1,2.099701911E-1,2.730808735E0,9.555737495E0
1.153441684E1,4.492524564E-1,3.602394581E0,8.219944000E0
1.155423892E1,6.987041831E-1,3.702893019E0,7.865806103E0
1.157402262E1,-4.366901144E-2,3.516252756E0,7.770093441E0
1.159388303E1,-8.195417523E-1,3.137588739E0,6.975078106E0
1.161389777E1,-1.341177106E0,3.113660574E0,5.744568825E0
1.163365777E1,-1.025324464E0,3.980460405E0,5.227120876E0
1.165354220E1,-3.786641955E-1,4.488337040E0,5.193621635E0
1.167317194E1,2.817548811E-1,4.401597023E0,5.782854080E0
1.169299392E1,8.231309652E-1,3.817748547E0,6.530013084E0
1.171300856E1,6.747759581E-1,3.223730326E0,6.692724705E0
1.173263830E1,-4.845465720E-2,3.041875839E0,6.587440968E0
1.175265277E1,-6.568298340E-1,3.228515863E0,6.452844620E0
1.177228257E1,-2.877369225E-1,3.166302681E0,6.275775433E0
1.179206616E1,3.056831062E-1,2.855235577E0,6.395416737E0
1.181208048E1,5.264210105E-1,2.955734253E0,7.051648140E0
1.183174871E1,1.033699393E0,3.257229805E0,8.373085022E0
1.185176330E1,1.349551916E0,3.616751432E0,1.012104130E1
1.187139303E1,2.216351986E0,4.191029072E0,1.167218876E1
1.189121507E1,3.073580742E0,4.962115765E0,1.263470173E1
1.191103699E1,3.638286829E0,5.460421085E0,1.199821091E1
1.193085913E1,3.811168194E0,5.273182869E0,1.025025368E1
1.195087366E1,2.139781713E0,4.794618607E0,9.287740707E0
1.197050340E1,-1.810768485E0,5.397609711E0,9.853045464E0
1.199032543E1,-2.787638426E0,5.972485542E0,1.286022568E1
1.201014751E1,1.038485050E0,4.938187599E0,1.519203091E1
1.202996954E1,3.590430260E0,4.493122578E0,1.389452267E1
1.204998413E1,3.580859184E0,4.536193371E0,1.026939678E1
1.206961387E1,2.460419893E0,4.536193371E0,6.807580471E0
1.208943590E1,7.609176040E-1,4.353740692E0,4.274179459E0
1.210925798E1,-4.121637046E-1,4.033102512E0,3.062813044E0
1.212908001E1,-5.371887088E-1,4.080958843E0,3.048455954E0
1.214909460E1,-2.638086975E-1,4.334598064E0,3.125026464E0
1.216872439E1,1.238285750E-1,4.406383038E0,3.053241730E0
1.218854642E1,9.188438654E-1,4.430909157E0,3.316452265E0
1.220836845E1,1.325623751E0,4.277170658E0,3.982254982E0
1.222819053E1,6.364908218E-1,4.157529354E0,5.888138294E0
1.224820512E1,-1.974078640E-2,4.761118889E0,8.699107170E0
1.226783486E1,-6.376872063E-1,5.599205017E0,1.196471119E1
1.228765694E1,-1.595414519E0,6.245266914E0,1.573759460E1
1.230747897E1,-2.447259426E0,5.584847927E0,1.938186264E1
1.232730100E1,-2.773281336E0,4.497908592E0,2.014816475E1
1.234731559E1,-2.749353170E0,4.191029072E0,1.716012764E1
1.236694538E1,-3.180061340E0,4.358526230E0,1.283151150E1
1.238676741E1,-3.683152199E0,5.570491314E0,1.054696369E1
1.240658944E1,-1.207179070E0,7.006783009E0,1.262991619E1
1.242641152E1,2.867797852E0,5.368896008E0,1.464108372E1
1.244642611E1,4.074378967E0,2.486740828E0,1.373121262E1
1.246605590E1,1.871785522E0,2.458027124E0,1.100219822E1
1.248587793E1,2.243271172E-1,3.942175388E0,8.339585304E0
1.250569996E1,7.034898400E-1,3.707678795E0,6.290132523E0
1.252552204E1,7.944171429E-1,3.544966698E0,5.356333256E0
1.254553663E1,2.530409992E-1,3.980460405E0,4.643272400E0
1.256516642E1,2.626122832E-1,4.061816216E0,3.943969965E0
1.258518095E1,5.694918036E-1,3.961317778E0,3.518047571E0
1.260494095E1,6.987041831E-1,3.999603033E0,3.508476257E0
1.262463220E1,4.348955154E-1,4.109673023E0,3.943969965E0
1.264441590E1,3.870390654E-1,4.076173306E0,4.662415028E0
1.266427637E1,5.838487148E-1,3.999603033E0,5.174479008E0
1.268429111E1,3.774677813E-1,4.128815651E0,5.806782246E0
1.270392090E1,-2.781656384E-1,4.305884361E0,7.338787079E0
1.272374298E1,-4.313062727E-1,4.100101471E0,8.392227173E0
1.274356507E1,-4.456632137E-1,4.305884361E0,8.507082939E0
1.276338710E1,-1.063609719E0,4.531407833E0,8.253443718E0
1.278340178E1,-1.111466169E0,4.061816216E0,8.373085022E0
1.280303158E1,-1.173679471E0,3.903890133E0,1.015932655E1
1.282285361E1,-3.738785386E-1,4.947759151E0,1.261077309E1
1.284267564E1,2.163709879E0,5.263611794E0,1.296550941E1
1.286249772E1,3.054438114E0,5.134399414E0,1.130369377E1
1.288251230E1,1.320838094E0,5.397609711E0,1.001097202E1
1.290214205E1,-6.903293133E-1,5.225326538E0,1.035075283E1
1.292196418E1,-1.451246977E0,4.818546772E0,1.156211948E1
1.294178621E1,-2.159522474E-1,4.104887009E0,1.130848026E1
1.296160824E1,1.110269666E0,3.525824070E0,9.287740707E0
1.298162283E1,6.843472719E-1,3.631108284E0,7.415357590E0
1.300125262E1,-4.600201547E-1,4.061816216E0,6.836294174E0
1.302107470E1,-8.817551732E-1,4.464408875E0,7.597810268E0
1.304089673E1,2.333002165E-2,4.238885403E0,8.545368195E0
1.306071876E1,5.982056856E-1,3.784249067E0,8.286943436E0
1.308073340E1,-5.982056609E-4,3.736392498E0,7.597810268E0
1.310036314E1,-5.994020700E-1,4.033102512E0,6.836294174E0
1.312018522E1,-4.839483798E-1,3.990031719E0,5.758925915E0
1.314000725E1,-2.685943544E-1,3.903890133E0,4.801198483E0
1.315982928E1,2.099701911E-1,3.789034605E0,4.609772682E0
1.317984392E1,4.301098585E-1,4.004388809E0,5.227120876E0
1.319947366E1,-8.195417374E-2,4.396811485E0,5.605785370E0
1.321929569E1,-1.293320656E0,4.813760757E0,5.897709846E0
1.323911772E1,-2.327618122E0,5.206183910E0,7.156932354E0
1.325893980E1,-2.265404940E0,5.761917114E0,9.652048111E0
1.327895444E1,-1.010967612E0,6.801000118E0,1.185942745E1
1.329858418E1,-2.685943544E-1,7.820940971E0,1.156211948E1
1.331840621E1,-6.951149702E-1,7.993224144E0,1.021196842E1
1.333822830E1,-2.227119684E0,7.749155998E0,9.987043381E0
1.335801189E1,-3.275774240E0,7.686942577E0,1.067677498E1
1.337806486E1,-1.652842283E0,6.973283291E0,1.130369377E1
1.339769465E1,-7.860422134E-1,6.010770321E0,1.110269737E1
1.341770918E1,-2.605783939E0,5.129613400E0,1.033639526E1
1.343733902E1,-4.659423828E0,4.789832592E0,9.383454323E0
1.345716100E1,-4.592424870E0,5.057828903E0,8.310871124E0
1.347698303E1,-1.896910191E0,5.560919762E0,7.300501823E0
1.349680512E1,1.048056364E0,6.159125328E0,6.970292568E0
1.351681965E1,3.293720484E0,5.651846886E0,6.774080753E0
1.353644944E1,3.150151014E0,4.962115765E0,5.897709846E0
1.355627147E1,2.243271172E-1,5.690132141E0,5.011766911E0
1.357605512E1,-1.581057549E0,6.609574318E0,5.169693470E0
1.359591553E1,2.769692242E-1,5.800201893E0,5.653641701E0
1.361593012E1,1.819143414E0,5.024329185E0,6.122634888E0
1.363555991E1,9.427721500E-1,4.895116806E0,6.113063812E0
1.365538199E1,-1.872383654E-1,4.871188641E0,5.658427238E0
1.367520408E1,-6.951149702E-1,5.239683151E0,5.212764263E0
1.369502611E1,-9.104689956E-1,5.364109993E0,4.734199524E0
1.371504064E1,-1.020538807E0,5.378467083E0,5.131408215E0
1.373467048E1,-7.238288224E-2,5.881557941E0,8.176873207E0
1.375449251E1,-1.633101404E-1,6.863213539E0,1.188335514E1
1.377431460E1,-8.147560954E-1,7.303493023E0,1.295115280E1
1.379413658E1,2.578266263E-1,7.629515171E0,1.146162033E1
1.381415121E1,1.565504193E0,8.529216766E0,1.013539886E1
1.383378095E1,4.492524564E-1,9.046664238E0,1.044167995E1
1.385379553E1,-1.111466169E0,8.361719131E0,1.138026428E1
1.387342527E1,-6.376872063E-1,7.341778278E0,1.121755219E1
1.389320892E1,3.966103494E-1,6.781857491E0,1.024068260E1
1.391326178E1,3.631108403E-1,6.686144829E0,9.886545181E0
1.393289158E1,-8.051848412E-1,6.556932449E0,9.531808853E0
1.395271356E1,-1.546959877E0,6.216553211E0,8.818747520E0
1.397253564E1,-1.710269928E0,5.843272686E0,7.683951855E0
1.399235767E1,-2.495115757E0,5.781059742E0,7.080362320E0
1.401237230E1,-2.696711063E0,5.771488190E0,7.156932354E0
1.403215600E1,-1.652842283E0,6.202196121E0,6.874579430E0
1.405201673E1,-7.525427341E-1,6.451049805E0,5.327619553E0
1.407164658E1,-1.734198213E0,6.523432732E0,6.620940208E0
1.409146850E1,-2.121835470E0,5.843272686E0,1.036032391E1
1.411148298E1,-3.022135019E0,5.196612358E0,8.967103004E0
1.416563606E1,-1.503889084E0,6.230910301E0,6.036493301E0
1.418526580E1,-9.008977413E-1,6.226124287E0,9.369096756E0
1.420508773E1,-1.441675574E-1,5.556134224E0,1.087777138E1
1.422490970E1,-3.930211067E-1,4.852046013E0,1.006361389E1
1.424473174E1,-1.494317770E0,5.043471813E0,8.483154297E0
1.426474622E1,-2.021337032E0,5.282754421E0,7.477570534E0
1.428437596E1,-1.738983870E0,5.311468124E0,7.434499741E0
1.430439043E1,-8.865407705E-1,5.321039200E0,7.228717327E0
1.432402017E1,-2.015953064E-1,5.297111034E0,7.018148899E0
1.434384205E1,2.333002165E-2,5.306682587E0,7.621738434E0
1.436370247E1,2.865405083E-1,4.928616524E0,8.320442200E0
1.438348611E1,1.908276081E-1,4.804189682E0,8.622536659E0
1.440350064E1,-8.195417374E-2,5.100899696E0,8.267800331E0
1.442313028E1,-4.648058116E-1,5.153541565E0,6.903293133E0
1.444295231E1,-9.726824164E-1,4.713262558E0,5.758925915E0
1.446273585E1,-1.283749342E0,4.205385685E0,6.093921185E0
1.448259622E1,-1.101894855E0,4.584050179E0,7.980661869E0
1.450261070E1,-5.030909777E-1,5.321039200E0,1.065284634E1
1.452224049E1,1.142572835E-1,4.933402061E0,1.111226845E1
1.454206246E1,4.492524564E-1,3.611965895E0,9.306883812E0
1.456188444E1,8.183453679E-1,2.879163742E0,9.005388260E0
1.458170642E1,7.082754970E-1,2.448455811E0,9.872187614E0
1.460172096E1,2.530409992E-1,3.022733212E0,1.110269737E1
1.462135064E1,-2.063809484E-1,3.458825111E0,1.120319557E1
1.464113418E1,4.588237405E-1,4.018745422E0,1.059960651E1
1.466099460E1,9.714859724E-1,4.694119930E0,1.075334454E1
1.468100913E1,1.258624673E0,3.247658491E0,9.647262573E0
1.470083132E1,1.866999865E0,1.734796405E0,8.622536659E0
1.472046106E1,1.843071699E0,1.375872970E0,8.861818314E0
1.474028293E1,1.478764415E0,1.734796405E0,9.719047546E0
1.476010496E1,1.517049551E0,1.835294962E0,1.128933716E1
1.477992695E1,3.341576815E0,3.415754437E-1,1.280279732E1
1.479994137E1,3.221935749E0,6.287141442E-1,1.269212914E1
1.481957111E1,2.393420935E0,1.624726534E0,1.103569794E1
1.483939304E1,1.277767301E0,1.849651933E0,1.001097202E1
1.485921507E1,-1.216750264E0,2.453241348E0,8.444869041E0
1.487903705E1,-2.097907305E0,2.151147604E0,6.817151546E0
1.489905153E1,-6.089733839E-1,1.749153376E0,7.324429989E0
1.491868122E1,7.322037220E-1,2.036292076E0,8.780462265E0
1.493850320E1,1.043270707E0,2.678166628E0,9.493523598E0
1.495832517E1,5.018945336E-1,2.716451883E0,9.311669350E0
1.497814715E1,9.990034252E-2,2.151147604E0,8.406583786E0
1.499816174E1,1.573280841E-1,2.074577332E0,7.511070251E0
1.501792174E1,9.188438654E-1,1.954936147E0,6.481558323E0
1.503761278E1,1.670788407E0,1.873580098E0,6.218348026E0
1.505743491E1,1.785643935E0,1.916650891E0,5.773283005E0
1.507721856E1,4.875376225E-1,2.773879766E0,6.017350674E0
1.509727163E1,8.662018180E-1,2.146361828E0,6.850651264E0
1.511690132E1,1.014556766E0,1.758724689E0,8.531010628E0
1.513672335E1,-3.643072546E-1,2.501097918E0,9.158528328E0
1.515654533E1,-1.695913076E0,2.424527645E0,9.010173798E0
1.517632744E1,-3.127419233E0,2.079362869E0,9.766903877E0
1.519638041E1,-1.968694806E0,1.639083505E0,1.020718288E1
1.521601015E1,-3.978067636E-1,1.605584025E0,1.004925728E1
1.523602463E1,1.956132501E-1,2.112862349E0,9.991828918E0
1.525565432E1,1.378265858E0,2.477169752E0,9.623334885E0
1.527547630E1,2.283350945E0,2.836092949E0,8.459226608E0
1.529529828E1,2.963510752E0,3.525824070E0,7.147361279E0
1.531508182E1,3.552145243E0,3.722035646E0,6.361917019E0
1.533513473E1,3.705883980E0,3.784249067E0,7.185646534E0
1.535476447E1,3.744169235E0,3.946960926E0,8.253443718E0
1.537458650E1,4.308875561E0,4.593621254E0,8.914461136E0
1.539440848E1,5.548955917E0,4.971687317E0,8.162516594E0
1.541423046E1,5.999404430E0,5.177470207E0,8.880961418E0
1.543424494E1,5.146961689E0,4.895116806E0,1.224706459E1
1.545387468E1,4.462016106E0,3.300300598E0,1.534995747E1
1.547369666E1,4.634299278E0,1.078564763E0,1.582852173E1
1.549348020E1,3.792025566E0,4.851447940E-1,1.352064419E1
1.551330208E1,2.273779631E0,1.241276741E0,9.900901794E0
1.553335505E1,7.274180651E-1,2.266003132E0,6.036493301E0
1.555298479E1,-4.408775866E-1,3.501895905E0,3.259024382E0
1.557280677E1,2.003988922E-1,4.722833633E0,3.172882795E0
1.559259031E1,4.187439568E-3,4.344169617E0,4.514060020E0
1.561245067E1,-1.705484390E0,4.171886444E0,5.849853039E0
1.563246520E1,-2.610569477E0,4.325026989E0,6.678368092E0
1.565222520E1,-2.313261271E0,4.167100430E0,7.147361279E0
1.567191630E1,-1.676770449E0,4.411168575E0,7.784450054E0
1.569173843E1,3.678964674E-1,3.875176191E0,9.062815666E0
1.571156052E1,3.370290756E0,5.364109993E0,1.019282627E1
1.573157520E1,5.300102234E0,6.533003807E0,9.550951958E0
1.575120489E1,4.821537495E0,6.695715904E0,8.320442200E0
1.577102692E1,3.839882135E0,5.661418438E0,8.085946083E0
1.579084890E1,2.312064886E0,4.076173306E0,1.017368412E1
1.581067093E1,2.811566554E-2,3.233301640E0,1.391845131E1
1.583068552E1,-5.946164131E-1,2.572882652E0,1.591047573E1
1.585044552E1,9.332008362E-1,2.275574446E0,1.443530083E1
1.587013661E1,2.776870728E0,2.434098721E0,1.089691448E1
1.588992026E1,2.168495417E0,2.754737139E0,7.271788120E0
1.590978072E1,2.578266263E-1,3.449253798E0,6.256632805E0
1.592979552E1,2.291127741E-1,3.683750391E0,8.684749603E0
1.594942515E1,2.297708035E0,3.530609846E0,1.231884956E1
1.596924718E1,4.538586140E0,3.516252756E0,1.365942764E1
1.598906921E1,4.835894585E0,3.142374277E0,1.215135193E1
1.600889124E1,3.279363394E0,2.620738983E0,9.939187050E0
1.602890583E1,1.622931957E0,2.136790514E0,7.717451096E0
1.604853552E1,9.284151793E-1,1.883151412E0,6.194419384E0
1.606855000E1,1.067198873E0,1.897508383E0,5.356333256E0
1.608831000E1,1.488335729E0,2.347957134E0,4.868197441E0
1.610796244E1,1.699502230E0,3.037090063E0,4.168895245E0
1.612778453E1,1.225125194E0,3.573680639E0,3.704687595E0
1.614760656E1,5.934200287E-1,3.913461447E0,3.819543123E0
1.616765973E1,3.774677813E-1,4.224528313E0,4.542773724E0
1.618728942E1,7.657032609E-1,4.569693089E0,5.864210129E0
1.620711145E1,7.417750359E-1,4.837689400E0,7.908876896E0
1.622693348E1,2.530409992E-1,4.536193371E0,1.078684425E1
1.624675552E1,8.087740541E-1,3.492324591E0,1.423908901E1
1.626677010E1,2.355135679E0,3.089732170E0,1.868734741E1
1.628653010E1,3.384647608E0,3.597608805E0,2.115853500E1
1.630641437E1,3.811168194E0,3.966103554E0,1.891705704E1
1.632604406E1,3.064009428E0,5.120042324E0,1.484746456E1
1.634586598E1,1.464407444E0,5.962913990E0,1.164347458E1
1.636588046E1,6.843472719E-1,5.651846886E0,1.076770210E1
1.638551015E1,1.105484009E0,4.329812527E0,1.182592773E1
1.640533208E1,1.632503271E0,2.955734253E0,1.226620674E1
1.642515406E1,1.852642894E0,2.184647083E0,1.058046341E1
1.644497604E1,1.402194023E0,2.280359983E0,7.904091358E0
1.646499052E1,3.631108403E-1,2.663809776E0,5.754140377E0
1.648462026E1,-1.968096644E-1,2.678166628E0,4.020540237E0
1.650463468E1,-4.839483798E-1,2.160718918E0,2.243869543E0
1.652426437E1,-1.326820135E0,1.706082582E0,1.166501045E0
1.654408630E1,-2.184048891E0,1.964507341E0,1.109073281E0
1.656410072E1,-2.150549412E0,2.898306370E0,1.760519266E0
1.658373046E1,-1.039681435E0,3.578466177E0,3.077169895E0
1.660374484E1,9.092726111E-1,3.688536167E0,4.844269276E0
1.662337458E1,3.087937593E0,3.803391695E0,6.539584160E0
1.664319651E1,4.404588223E0,4.243670940E0,7.545167923E0
1.666321093E1,4.562514782E0,5.163113117E0,7.496713161E0
1.668284062E1,4.155734539E0,5.737988472E0,6.692724705E0
1.670285500E1,3.628715515E0,5.206183910E0,6.462415695E0
1.672248473E1,2.934797049E0,4.272384644E0,7.496713161E0
1.674230661E1,2.144567251E0,3.961317778E0,8.852247238E0
1.676232104E1,2.259422779E0,4.114458561E0,9.335597992E0
1.678195078E1,3.643670797E0,4.382454872E0,9.431310654E0
1.680177265E1,4.591228485E0,4.521836758E0,1.053260708E1
1.682155619E1,4.816751957E0,4.440480709E0,1.228056431E1
1.684141656E1,5.175675392E0,4.727619171E0,1.324307728E1
1.686143104E1,5.673382282E0,5.244469166E0,1.272084332E1
1.688106067E1,6.028118610E0,4.923830986E0,1.127498055E1
1.690107515E1,5.146961689E0,4.061816216E0,1.026461124E1
1.692070489E1,3.102294445E0,4.147958279E0,1.047517967E1
1.694052682E1,2.575275421E0,4.718048096E0,1.157169056E1
1.696054124E1,4.711467743E0,4.818546772E0,1.258205986E1
1.698017098E1,7.028916359E0,4.933402061E0,1.237149143E1
1.700018536E1,7.847859859E0,4.808975220E0,1.107876873E1
1.701981510E1,6.516254425E0,4.368097782E0,9.306883812E0
1.703963703E1,4.098307133E0,3.956532240E0,7.439285755E0
1.705942057E1,2.695514679E0,3.592823267E0,6.065207005E0
1.707928088E1,2.053640127E0,3.142374277E0,5.140979290E0
1.709929531E1,1.205982566E0,3.080160856E0,4.125824451E0
1.711892500E1,5.838487148E-1,3.180659533E0,3.211168051E0
1.713870859E1,3.104687333E-1,3.410968781E0,2.957528830E0
1.715856890E1,1.094716340E-1,3.487539053E0,3.105883837E0
1.717839088E1,2.721835673E-1,3.387040377E0,3.345165968E0
1.719840541E1,3.487538993E-1,3.430111170E0,3.738187075E0
1.721803510E1,4.247260094E-2,3.501895905E0,4.049253941E0
1.723785713E1,-5.228317380E-1,3.745963812E0,4.863411903E0
1.725767911E1,-1.393819153E-1,3.899104595E0,5.979065418E0
1.727750109E1,9.906286001E-1,3.731606960E0,7.156932354E0
1.729751562E1,3.839882135E0,3.065804005E0,1.047039413E1
1.731714531E1,6.683752060E0,2.486740828E0,1.507717514E1
1.733696729E1,7.838288784E0,3.415754318E0,1.793121529E1
1.735678927E1,7.833503246E0,4.009174347E0,1.746162415E1
1.737657281E1,7.732406139E0,3.592823267E0,1.574238014E1
1.739662572E1,6.544968128E0,3.482753277E0,1.533081436E1
1.741625541E1,5.295316696E0,2.208575249E0,1.510588932E1
1.743607739E1,4.040879250E0,8.105686903E-1,1.401416397E1
1.745589932E1,2.628515720E0,8.201399446E-1,1.208913803E1
1.747572130E1,1.560718536E0,1.298704505E0,9.819545746E0
1.749573583E1,7.800601721E-1,1.945364833E0,7.980661869E0
1.751536557E1,2.243271172E-1,2.251646042E0,6.333203316E0
1.753518755E1,-5.324030295E-2,2.122433662E0,5.040481091E0
1.755500958E1,3.583251834E-1,2.611167669E0,3.939184189E0
1.757483151E1,4.253242314E-1,2.927020311E0,2.507678032E0
1.759484604E1,2.291127741E-1,3.391826153E0,1.851446509E0
1.761447572E1,5.264210105E-1,4.464408875E0,3.072384357E0
1.763429770E1,2.441277266E0,4.761118889E0,5.246263504E0
1.765411968E1,3.820739508E0,3.180659533E0,6.290132523E0
1.767394166E1,3.322434187E0,2.007578135E0,6.065207005E0
1.769395619E1,1.459621787E0,2.544168711E0,4.844269276E0
1.771358588E1,-7.190431952E-1,3.501895905E0,4.576273441E0
1.773340786E1,-2.093121529E0,4.181457520E0,5.931209087E0
1.775322984E1,-7.621139884E-1,4.090530396E0,8.167302132E0
1.777305182E1,1.191625714E0,4.488337040E0,1.188335514E1
1.779306635E1,2.767299414E0,5.699703693E0,1.553659725E1
1.781269604E1,5.118247509E0,5.330610752E0,1.579980755E1
1.783271046E1,4.543372154E0,3.789034605E0,1.558923912E1
1.785234015E1,2.628515720E0,3.247658491E0,1.611147308E1
1.787216208E1,2.436491728E0,3.985246181E0,1.606840134E1
1.789194562E1,2.259422779E0,3.903890133E0,1.581895065E1
1.791180598E1,3.001796007E0,3.324228764E0,1.441615868E1
1.793182052E1,3.701098442E0,3.314657450E0,1.103091240E1
1.795145020E1,3.001796007E0,2.936591625E0,6.597012043E0
1.797127218E1,2.111067772E0,2.558525562E0,3.991826296E0
1.799109411E1,2.063211441E0,2.620738983E0,4.547559261E0
1.801091609E1,2.695514679E0,2.520240545E0,6.208776474E0
1.803093062E1,3.547359467E0,2.146361828E0,6.975078106E0
1.805056031E1,3.475574970E0,2.045863390E0,6.117849350E0
1.807038229E1,2.676372051E0,2.184647083E0,4.456632137E0
1.809020427E1,1.766501307E0,2.764308453E0,2.641676188E0
1.811002624E1,8.279166222E-1,3.367299557E0,1.760519266E0
1.813004078E1,2.769692242E-1,3.650250912E0,2.526820660E0
1.814967046E1,3.774677813E-1,3.544966698E0,4.384249210E0
1.816949244E1,6.364908218E-1,2.659024239E0,6.984649181E0
1.818927598E1,1.756929994E0,2.084148407E0,1.025982571E1
1.820913635E1,3.566502094E0,3.449253798E0,1.413380527E1
1.822915088E1,3.442075491E0,4.440480709E0,1.610190201E1
1.824878057E1,7.657032609E-1,2.644667149E0,1.425823212E1
1.826860260E1,-1.484746456E0,3.228515863E0,1.303729439E1
1.828842458E1,-7.812566161E-1,6.542575359E0,1.732283974E1
1.830824656E1,1.929213285E0,5.469992638E0,2.136431694E1
1.832826098E1,4.050450325E0,2.831307411E0,1.975035858E1
1.834789072E1,3.667598963E0,2.946162939E0,1.429651737E1
1.836771270E1,1.871785522E0,3.420539856E0,9.407382011E0
1.838753468E1,2.673979402E-1,3.717249870E0,7.066005230E0
1.840735666E1,3.290131316E-2,3.798605919E0,6.065207005E0
1.842737119E1,5.742774606E-1,3.535395384E0,5.375475883E0
1.844700088E1,1.316052437E0,2.998805046E0,4.662415028E0
1.846682286E1,1.402194023E0,3.156731367E0,4.049253941E0
1.848664484E1,7.226324677E-1,4.028316975E0,3.393620729E0
1.850646682E1,1.742573142E0,4.277170658E0,2.828316450E0
1.852648135E1,2.867797852E0,4.430909157E0,2.603390932E0
1.854611104E1,3.365504980E0,4.469194412E0,3.379263878E0
1.856589458E1,3.576073408E0,4.579264164E0,3.048455954E0
1.858575494E1,2.997010469E0,4.890331268E0,2.627319336E0
1.860557692E1,1.862214208E0,4.382454872E0,3.704687595E0
1.862559145E1,1.091127157E0,3.051447153E0,6.390631199E0
1.864522114E1,1.943570137E0,3.061018467E0,9.546165466E0
1.866523557E1,3.202793121E0,2.831307411E0,1.140419292E1
1.868486531E1,3.561716557E0,2.635095835E0,1.410030556E1
1.870487973E1,3.384647608E0,1.835294962E0,1.576630878E1
1.872463973E1,5.424529076E0,-2.141576260E-1,1.437787342E1
1.874433078E1,4.591228485E0,2.069791555E0,1.405244923E1
1.876434546E1,5.264210105E-1,6.077769279E0,1.206999588E1
1.878397520E1,-1.719841242E0,7.567301750E0,1.085862923E1
1.880375874E1,1.828714728E0,5.527420521E0,1.190728378E1
1.882361911E1,5.582455158E0,2.625524759E0,1.160997581E1
1.884344114E1,4.533800602E0,2.194218397E0,1.099741268E1
1.886345572E1,2.673979402E-1,3.492324591E0,1.170628643E1
1.888308546E1,-3.203989506E0,4.248456478E0,1.084427261E1
1.890309989E1,-2.504687071E0,3.257229805E0,8.090731621E0
1.892285989E1,-4.887340367E-1,2.501097918E0,5.519643784E0
1.894255098E1,4.588237405E-1,2.376671076E0,4.298107624E0
1.896256572E1,1.033699393E0,2.764308453E0,4.997410297E0
1.898219541E1,1.397408366E0,3.070589542E0,5.935994625E0
1.900201744E1,2.034497499E0,2.802593470E0,6.376274109E0
1.902183942E1,1.886142492E0,2.697309256E0,6.525227547E0
1.904162296E1,1.886142492E0,2.778665304E0,6.936792850E0
1.906167598E1,2.580060959E0,3.477967739E0,7.037291527E0
1.908130572E1,3.150151014E0,4.531407833E0,6.237490654E0
1.910132020E1,2.139781713E0,4.904688358E0,6.208776474E0
1.912108020E1,1.339980721E0,3.923032761E0,8.267800331E0
1.914077124E1,2.460419893E0,2.639881611E0,1.013539886E1
1.916078604E1,3.284149170E0,2.831307411E0,1.116969585E1
1.918041567E1,1.306481123E0,4.109673023E0,1.283629704E1
1.920023765E1,3.200400174E-1,4.818546772E0,1.363549995E1
1.922005968E1,1.790429592E0,5.086542606E0,1.243848991E1
1.923988171E1,3.399004459E0,5.187041283E0,1.115055370E1
1.925989630E1,2.858226538E0,5.699703693E0,1.216570854E1
1.927965630E1,3.870390654E-1,4.947759151E0,1.373599815E1
1.929954057E1,-4.265206456E-1,3.142374277E0,1.387538052E1
1.931917026E1,-1.106680483E-1,2.395813704E0,1.268734360E1
1.933899218E1,-6.568298340E-1,2.984447956E0,1.136590767E1
1.935900666E1,-1.226321578E0,3.180659533E0,9.536594391E0
1.937876666E1,-1.255035520E0,2.544168711E0,7.491927624E0
1.939845776E1,-3.643072546E-1,3.401397467E0,6.759724140E0
1.941827979E1,6.891329288E-1,3.812962770E0,6.323632240E0
1.943810187E1,1.124626637E0,3.683750391E0,5.644070625E0
1.945811650E1,1.239482164E0,3.894318819E0,5.423332691E0
1.947787650E1,1.110269666E0,4.440480709E0,6.036493301E0
1.949776072E1,7.465606928E-1,4.660620213E0,6.467201233E0
1.951739052E1,8.327022791E-1,4.478765965E0,6.452844620E0
1.953721239E1,9.523434043E-1,3.803391695E0,5.998208046E0
1.955711130E1,1.311266780E0,2.888735056E0,5.236692429E0
1.957685645E1,1.158126116E0,2.821736097E0,5.002195835E0
1.959687093E1,5.066801906E-1,2.692523718E0,4.762913704E0
1.961650067E1,1.009771109E0,2.122433662E0,3.929612875E0
1.963632260E1,1.325623751E0,1.509871125E0,3.192025423E0
1.965610614E1,2.333002165E-2,9.780662656E-1,3.685544968E0
1.967596650E1,-1.207179070E0,1.265205026E0,7.056434155E0
1.969598104E1,-2.398804724E-1,2.343171597E0,1.316172123E1
1.971561072E1,2.584846735E0,3.382254839E0,1.709312820E1
1.973543270E1,4.840680122E0,3.884747505E0,1.577109432E1
1.975525468E1,6.367899418E0,4.665405750E0,1.292722416E1
1.977507666E1,4.721039295E0,4.861617565E0,1.366421413E1
1.979509119E1,-6.759724021E-2,5.938985825E0,1.311865044E1
1.981472088E1,-2.902493954E0,6.388836384E0,1.203649616E1
1.983454286E1,-1.106680512E0,4.981258392E0,1.348714447E1
1.985436484E1,1.450050473E0,3.678964853E0,1.363549995E1
1.987414833E1,1.929213285E0,2.950948477E0,1.257248878E1
1.989420130E1,6.987041831E-1,2.079362869E0,1.085862923E1
1.991396130E1,-6.233302951E-1,2.318645239E0,9.048459053E0
1.993365229E1,-1.278963685E0,2.855235577E0,6.975078106E0
1.995347442E1,-5.467599630E-1,2.486740828E0,5.653641701E0
1.997329650E1,3.200400174E-1,2.261217356E0,4.949553490E0
1.999331119E1,4.396811724E-1,2.520240545E0,4.140181541E0
2.001294088E1,1.381855011E-1,3.084946632E0,3.613760471E0
2.003295546E1,-9.152546525E-2,3.367299557E0,3.345165968E0
2.005258515E1,1.854437590E-2,3.851248026E0,3.939184189E0
2.007233031E1,1.477568001E-1,4.109673023E0,5.849853039E0
2.009242156E1,-7.238288224E-2,3.449253798E0,8.545368195E0
2.011205124E1,-7.046862841E-1,3.281157970E0,1.185942745E1
2.013187322E1,8.973085321E-3,3.635894060E0,1.354457283E1
2.015169520E1,7.561319470E-1,3.659822226E0,1.233799171E1
2.017151713E1,7.130611539E-1,4.775475979E0,1.164347458E1
2.019153166E1,1.368694544E0,7.231708050E0,1.406680584E1
2.021116135E1,2.412563324E0,8.385646820E0,1.647518158E1
2.023098338E1,3.830310822E0,7.624729156E0,1.614975739E1
2.025080536E1,6.678966045E0,5.096114159E0,1.464108372E1
2.027062734E1,8.532207489E0,2.869592667E0,1.218006516E1
2.029064187E1,6.257829189E0,2.309073925E0,9.110671997E0
2.031027156E1,1.019342422E0,3.190230846E0,7.612166882E0
2.033005505E1,-3.510270834E0,4.818546772E0,8.033304214E0
2.034991541E1,-4.731806755E0,4.028316975E0,5.035695076E0
2.036973739E1,-2.447259426E0,2.984447956E0,2.775674343E0
2.038975192E1,-2.207378894E-1,3.602394581E0,3.766901016E0
2.040938161E1,1.076770186E0,4.272384644E0,4.949553490E0
2.042939609E1,1.938784599E0,4.229313850E0,5.825924873E0
2.044902583E1,1.752144337E0,4.348955154E0,5.778068542E0
2.046884776E1,7.513462901E-1,3.923032761E0,4.533202648E0
2.048866973E1,-5.850451589E-1,3.836891174E0,3.647259951E0
2.050849171E1,-1.518245935E0,4.104887009E0,3.642474174E0
2.052850619E1,-6.664010882E-1,4.210171223E0,4.877768993E0
2.054813588E1,1.244267821E0,3.410968781E0,7.075576782E0
2.056795781E1,-1.250249892E-1,3.870390654E0,1.060917759E1
2.058777979E1,-1.724626899E0,6.068198204E0,1.464586926E1
2.060760177E1,1.766501307E0,6.005984783E0,1.639861107E1
2.062761630E1,4.131806374E0,5.373681545E0,1.702612877E1
2.064724598E1,3.379862070E0,5.508277893E0,1.545045567E1
2.066706796E1,2.168495417E0,5.647061348E0,1.263948727E1
2.068688994E1,9.236295223E-1,5.455037594E0,1.043210888E1
2.070671192E1,-3.834498227E-1,5.575276852E0,9.393025398E0
2.072672640E1,-5.563312769E-1,5.301896572E0,8.866603851E0
2.074635609E1,6.161518395E-2,4.401597023E0,8.344370842E0
2.076617807E1,7.609176040E-1,3.793820381E0,7.310073376E0
2.078600005E1,9.188438654E-1,3.822534084E0,5.979065418E0
2.080601453E1,5.742774606E-1,4.143172264E0,5.251049519E0
2.082583677E1,3.535395563E-1,4.205385685E0,4.767699242E0
2.084546650E1,2.961117923E-1,4.037888050E0,4.393820763E0
2.086548083E1,1.573280841E-1,3.851248026E0,4.302893162E0
2.088511057E1,4.725824669E-2,3.702893019E0,4.350749969E0
2.090493239E1,-1.489532143E-1,3.774677753E0,4.633700848E0
2.092494682E1,-7.429714203E-1,4.277170658E0,5.313262463E0
2.094470682E1,-7.621139884E-1,4.866403103E0,6.002993584E0
2.096439791E1,-2.452643216E-2,4.794618607E0,7.204789162E0
2.098421994E1,5.162515044E-1,4.109673023E0,9.201599121E0
2.100400359E1,6.843472719E-1,3.535395384E0,1.133240795E1
2.102405661E1,1.190429255E-1,3.635894060E0,1.281236839E1
2.104368630E1,-7.429714203E-1,3.923032761E0,1.310907841E1
2.106370078E1,-4.695914388E-1,4.234099865E0,1.260120201E1
2.108333046E1,2.338984162E-1,5.120042324E0,1.291286755E1
2.110311406E1,-3.643072546E-1,6.676573277E0,1.338664627E1
2.112316692E1,-1.417747378E0,7.250850677E0,1.360678577E1
2.114292692E1,-7.764709592E-1,5.737988472E0,1.271127224E1
2.116261802E1,-2.303091735E-1,4.569693089E0,1.081555843E1
2.118244010E1,-8.482556343E-1,4.646263599E0,9.244669914E0
2.120226218E1,-9.296116233E-1,4.818546772E0,8.401798248E0
2.122227677E1,-4.504488707E-1,4.914259434E0,7.770093441E0
2.124190651E1,1.854437590E-2,4.560121536E0,6.424130440E0
2.126192104E1,3.726821244E-1,4.584050179E0,5.337191105E0
2.128155072E1,8.075776696E-2,5.072185993E0,4.896911621E0
2.130137276E1,-1.211964726E0,5.368896008E0,5.212764263E0
2.132119468E1,-1.987837434E0,5.455037594E0,6.352345943E0
2.134101671E1,-1.417747378E0,5.344967365E0,7.472784996E0
2.136103119E1,-1.010967612E0,5.718846321E0,7.870592117E0
2.138066088E1,-1.154536963E0,5.824130535E0,7.861020565E0
2.140048286E1,-1.954337835E0,5.115256786E0,7.631309509E0
2.142026640E1,-3.448057413E0,6.269195557E0,8.310871124E0
2.144012677E1,-3.175275564E0,7.859225750E0,8.909674644E0
2.146014130E1,-3.476771355E0,8.313861847E0,9.273384094E0
2.147977098E1,-2.806781054E0,6.939784050E0,1.054217815E1
2.149959302E1,-1.743769526E0,6.671787739E0,1.321436310E1
2.151941494E1,-1.077966571E0,7.715656757E0,1.470808220E1
2.153919843E1,-4.121637046E-1,8.108079910E0,1.291765308E1
2.155925145E1,2.051845491E-1,8.084151268E0,6.069993019E0
2.157888114E1,5.682953820E-2,8.903095245E0,1.204786181E0
2.159870307E1,-1.686341763E0,8.510073662E0,9.565308571E0
2.161852505E1,-2.883351326E0,8.256434441E0,9.364311218E0
2.166952412E1,-3.251846075E0,5.675775528E0,6.165705681E0
2.168934599E1,-2.370688915E0,5.546562672E0,7.520641804E0
2.170936042E1,-1.997408748E0,5.139184952E0,7.180860519E0
2.172899000E1,-2.241476536E0,4.382454872E0,7.650452137E0
2.174881188E1,-2.380260229E0,3.650250912E0,9.800403595E0
2.176863380E1,-1.877767563E0,3.827319860E0,1.172542953E1
2.178845568E1,-2.973082066E-1,4.171886444E0,1.157169056E1
2.180847016E1,1.190429255E-1,3.884747505E0,8.511868477E0
2.182823016E1,-1.581057549E0,4.670191765E0,5.806782246E0
2.184811417E1,-2.255833626E0,5.541777134E0,5.428118229E0
2.186774386E1,-5.611169338E-1,4.770689964E0,6.534798622E0
2.188756568E1,1.368694544E0,4.052245140E0,6.769295216E0
2.190758000E1,2.077568293E0,3.501895905E0,7.219145775E0
2.192720964E1,1.675574064E0,2.998805046E0,9.685547829E0
2.194703146E1,9.092726111E-1,2.888735056E0,1.352064419E1
2.196685328E1,9.032905847E-2,3.559323788E0,1.374556923E1
2.198667526E1,4.247260094E-2,3.276372433E0,1.021196842E1
2.200668964E1,9.332008362E-1,2.357528448E0,7.118647575E0
2.202631927E1,7.322037220E-1,2.112862349E0,7.319644451E0
2.204633365E1,-3.834498227E-1,2.429313183E0,9.440881729E0
2.206596323E1,-9.343972206E-1,4.344169617E0,1.151426220E1
2.208578505E1,-1.681556106E0,6.436692715E0,1.183549881E1
2.210579943E1,-2.610569477E0,6.135197163E0,1.058046341E1
2.212542906E1,-4.247858524E0,5.407180786E0,1.052303600E1
2.214525089E1,-2.926422119E0,2.093719721E0,9.790832520E0
2.216507276E1,5.886343718E-1,-1.267597795E0,9.972686768E0
2.218489469E1,-1.211964726E0,6.574280262E-1,8.857032776E0
2.220490906E1,9.523434043E-1,2.697907388E-1,8.325227737E0
2.222453865E1,2.705085993E0,-1.602592945E0,6.433701992E0
2.224455302E1,-2.006979942E0,9.110672474E-1,4.949553490E0
2.226418266E1,-4.357928276E0,2.797807932E0,5.432903767E0
2.228400448E1,-1.168893814E0,1.064207911E0,3.795614958E0
2.230401886E1,2.800798893E0,-3.388834953E0,3.172882795E0
2.232364849E1,-1.216750264E0,-2.067398787E0,4.916054249E0
2.234339354E1,-6.450451851E0,1.830509305E-1,7.491927624E0
2.236329214E1,-5.679364681E0,-2.428714931E-1,9.120243073E0
2.238311401E1,-3.562912941E0,-1.663011760E-1,7.621738434E0
2.240312844E1,-7.573283911E-1,-1.806581169E-1,6.280561447E0
2.242275802E1,1.948355794E0,1.414158225E0,5.706283569E0
2.244277245E1,2.010569334E0,3.262015581E0,5.883352757E0
2.246240203E1,-2.255235314E-1,4.761118889E0,7.525427341E0
2.248222386E1,-5.583651543E0,6.839285374E0,8.129016876E0
2.250204573E1,-8.284550667E0,7.753942013E0,8.133802414E0
2.252186766E1,-2.706282377E0,6.302694798E0,9.244669914E0
2.254188208E1,3.174079180E0,4.631906509E0,1.187378407E1
2.256151167E1,2.201995134E0,3.357728481E0,1.473201084E1
2.258133354E1,-4.314857483E0,5.311468124E0,1.617368698E1
2.260115547E1,-5.401797295E0,5.589633465E0,1.251506042E1
2.262097729E1,-2.150549412E0,4.171886444E0,7.698308468E0
2.264099172E1,-2.327618122E0,4.823332310E0,5.510072231E0
2.266062130E1,-2.672782898E0,4.445266247E0,5.845067501E0
2.268044323E1,9.032905847E-2,1.371087432E0,6.151348591E0
2.270026511E1,2.877369165E0,1.572084427E0,4.911268711E0
2.272008698E1,4.576871395E0,2.960519791E0,3.412763357E0
2.274010141E1,-4.743770957E-1,4.248456478E0,4.068396568E0
2.275973099E1,-3.256631613E0,4.037888050E0,9.201599121E0
2.277955292E1,2.058425665E0,1.471585870E0,1.232363510E1
2.279937479E1,1.148554921E0,1.562513232E0,1.162433243E1
2.281919667E1,-9.966106415E-1,7.818548083E-1,1.168175983E1
2.283921109E1,-1.868196249E0,-5.443671346E-1,1.192642593E1
2.285884073E1,7.513462901E-1,-1.731805444E0,1.230927753E1
2.287866261E1,5.934200287E-1,-4.007977843E-1,1.269691563E1
2.289848448E1,-5.371887088E-1,-6.592226624E-1,1.320957756E1
2.291830636E1,1.124626637E0,-1.430309772E0,1.397109318E1
2.293832078E1,3.686741590E0,-1.128814101E0,1.217527962E1
2.295808078E1,2.614158630E0,4.947160780E-1,1.091127110E1
2.297777172E1,1.938784599E0,1.940579176E0,1.175414276E1
2.299759370E1,2.652443886E0,1.605584025E0,1.182592773E1
2.301741568E1,2.398206472E0,1.241276741E0,9.939187050E0
2.303743021E1,-1.489532143E-1,1.825723648E0,7.056434155E0
2.305705984E1,-2.576471806E0,2.702095032E0,5.634499073E0
2.307688172E1,-2.016551256E0,2.864806890E0,8.871390343E0
2.309670370E1,2.147558331E-1,2.481955290E0,1.506281853E1
2.311648714E1,3.643670797E0,6.813562512E-1,1.671924973E1
2.313654000E1,2.489133835E0,4.612165689E-1,1.418166161E1
2.315630000E1,-2.011765718E0,3.798605919E0,1.257727432E1
2.317599089E1,9.619147182E-1,3.812962770E0,1.421516132E1
2.319581292E1,4.998606682E0,4.320241451E0,1.348235893E1
2.321563490E1,7.258627415E0,4.320241451E0,9.752547264E0
2.323564958E1,6.909275532E0,2.630310297E0,6.113063812E0
2.325527917E1,3.437289715E0,1.998006940E0,3.201596737E0
2.327529359E1,1.296909928E0,1.945364833E0,1.358525038E0
2.329492323E1,-7.525427341E-1,2.098505497E0,1.947159410E0
2.331474511E1,-1.576271892E0,1.548156261E0,6.084349632E0
2.333460547E1,-1.441675663E0,9.349954724E-1,9.129815102E0
2.335438901E1,-7.286145091E-1,-1.040877849E-1,9.786046028E0
2.337440339E1,9.284151793E-1,-5.874379873E-1,9.546165466E0
2.339403297E1,2.340778828E0,-9.517452121E-1,1.104526901E1
2.341385484E1,4.083950043E0,-8.895317912E-1,1.072463131E1
2.343367672E1,4.749752998E0,7.579265833E-1,8.444869041E0
2.345349859E1,3.006581545E0,3.382254839E0,8.310871124E0
2.347351302E1,1.756929994E0,2.989233732E0,8.909674644E0
2.349314261E1,1.575075507E0,9.158528447E-1,1.012104130E1
2.351296448E1,1.689931035E0,1.648654819E0,9.570094109E0
2.353278636E1,2.618944407E0,4.018745422E0,9.445667267E0
2.355260828E1,4.155734539E0,3.564109325E0,1.115055370E1
2.357262271E1,4.107878208E0,2.136790514E0,1.097827053E1
2.359225229E1,2.949153900E0,1.787438512E0,8.995817184E0
2.361207417E1,7.800601721E-1,2.864806890E0,7.281359196E0
2.363189604E1,-7.668996453E-1,3.870390654E0,7.353144169E0
2.365191042E1,1.860419661E-1,2.682952404E0,9.273384094E0
2.367173255E1,2.589632273E0,1.581655741E0,1.022632599E1
2.369136219E1,3.906881094E0,1.730010748E0,1.054217815E1
2.371118396E1,1.565504193E0,3.678964853E0,1.273579884E1
2.373096740E1,1.000199914E0,4.488337040E0,1.495274830E1
2.375082760E1,3.212364435E0,4.478765965E0,1.467936897E1
2.377084198E1,6.186044693E0,2.960519791E0,1.023111153E1
2.379047162E1,5.822335720E0,1.911865234E0,6.247061729E0
2.381048594E1,2.010569334E0,2.079362869E0,4.216751575E0
2.383011557E1,-2.586043119E0,3.463610888E0,4.384249210E0
2.385012990E1,-2.466402054E0,3.568894863E0,5.935994625E0
2.386995198E1,4.205385745E-1,2.189432621E0,6.539584160E0
2.388958162E1,4.013960063E-1,1.686939955E0,5.715855122E0
2.390940333E1,-6.903293133E-1,2.304288149E0,5.131408215E0
2.392922516E1,2.642872572E0,2.888735056E0,6.644868374E0
2.394904698E1,4.371088982E0,3.147160053E0,8.554939270E0
2.396906136E1,1.148554921E0,4.415954113E0,9.517452240E0
2.398869094E1,-8.195417374E-2,4.152743816E0,1.184985638E1
2.400851281E1,1.828714728E0,2.026720762E0,1.291765308E1
2.402833464E1,1.962712765E0,1.926222205E0,1.233799171E1
2.404811807E1,8.231309652E-1,3.185445070E0,1.171585751E1
2.406817089E1,1.186840057E0,3.525824070E0,1.087777138E1
2.408780047E1,1.555334687E0,2.702095032E0,1.152861977E1
2.410762234E1,6.412764788E-1,2.031506538E0,1.167697430E1
2.412740578E1,-1.106680483E-1,2.189432621E0,1.054696369E1
2.414726604E1,-1.250249892E-1,2.654238462E0,9.043673515E0
2.416728047E1,3.056831062E-1,3.382254839E0,6.707081795E0
2.418704047E1,5.599204898E-1,4.138386726E0,5.600999832E0
2.420692448E1,3.248256743E-1,4.938187599E0,6.788437843E0
2.422655417E1,2.187638044E0,3.784249067E0,9.699904442E0
2.424637594E1,3.332005501E0,3.741178274E0,1.081555843E1
2.426619781E1,3.284149170E0,4.823332310E0,1.085384369E1
2.428601974E1,4.098307133E0,2.769093990E0,1.128455162E1
2.430603412E1,2.805584431E0,1.438086390E0,1.070548820E1
2.432566370E1,1.862214208E0,7.818548083E-1,1.261555958E1
2.434548552E1,1.287338614E0,1.337587833E0,1.428694534E1
2.436530745E1,1.450050473E0,1.854437590E0,1.485703564E1
2.438512932E1,3.870390654E-1,1.969292998E0,1.414816189E1
2.440514370E1,5.886343718E-1,2.285145521E0,1.313300705E1
2.442477328E1,2.604587555E0,2.941377163E0,1.247677517E1
2.444459516E1,4.433301926E0,3.611965895E0,1.127019501E1
2.446441703E1,5.649454117E0,4.080958843E0,9.282955170E0
2.448420042E1,5.257031441E0,4.195814610E0,7.247859955E0
2.450425323E1,3.930809498E0,4.329812527E0,5.553143024E0
2.452388286E1,2.934797049E0,4.392025948E0,5.950351715E0
2.454370479E1,1.785643935E0,4.430909157E0,8.320442200E0
2.456352667E1,1.373480201E0,4.147958279E0,1.009232807E1
2.458354104E1,1.033699393E0,3.894318819E0,1.030289650E1
2.460336312E1,1.668993831E-1,4.085744858E0,8.627322197E0
2.462299276E1,-1.111466169E0,4.679762840E0,6.711867332E0
2.464300703E1,-1.729412556E0,4.952544689E0,5.389832973E0
2.466263667E1,-1.432104349E0,5.359324455E0,4.466203690E0
2.468245844E1,-3.451646566E-1,5.599205017E0,4.547559261E0
2.470247276E1,-3.547359705E-1,5.210969448E0,5.452644825E0
2.472210240E1,-1.140179992E0,3.975674868E0,6.577869415E0
2.474192422E1,-2.155334949E0,3.242872953E0,7.703094482E0
2.476174604E1,-2.452044964E0,4.382454872E0,1.050867844E1
2.478156792E1,2.626122832E-1,4.219742775E0,1.281236839E1
2.480158229E1,2.762513638E0,2.630310297E0,1.185464191E1
2.482121188E1,4.875376225E-1,3.348157167E0,8.790034294E0
2.484122625E1,-2.538186550E0,4.569693089E0,7.798807144E0
2.486085589E1,-2.634497643E0,4.507479668E0,1.062831974E1
2.488067771E1,-7.381857634E-1,4.469194412E0,1.429651737E1
2.490069203E1,1.555334687E0,4.358526230E0,1.497189140E1
2.492032167E1,2.992224693E0,3.789034605E0,1.291286755E1
2.494010510E1,2.144567251E0,4.061816216E0,1.025982571E1
2.495996531E1,3.870390654E-1,4.488337040E0,8.904889107E0
2.497978719E1,-2.590230405E-1,4.517050743E0,8.373085022E0
2.499980156E1,1.286142170E-1,4.737190723E0,9.340383530E0
2.501943115E1,6.795616150E-1,4.971687317E0,1.095434189E1
2.503944552E1,2.259422779E0,4.765904427E0,1.047996521E1
2.505920552E1,3.231507063E0,5.076971531E0,7.904091358E0
2.507889646E1,4.965106964E0,3.352942705E0,6.433701992E0
2.509868000E1,4.821537495E0,2.227717876E0,4.892126083E0
2.511850188E1,3.131008387E0,2.659024239E0,4.049253941E0
2.513855484E1,2.278565407E0,2.850450039E0,2.938386202E0
2.515818443E1,1.057627559E0,2.726023197E0,1.137787223E0
2.517800636E1,-1.495514158E-2,3.540181160E0,1.430309772E0
2.519782828E1,1.272981644E0,3.410968781E0,1.947159410E0
2.521765016E1,2.748156786E0,3.223730326E0,3.709473372E0
2.523766469E1,3.221935749E0,3.645465374E0,7.204789162E0
2.525729432E1,4.232305050E0,4.219742775E0,1.068634605E1
2.527711620E1,3.648456335E0,6.149554253E0,1.323829174E1
2.529689964E1,8.327022791E-1,1.021496010E1,1.383230972E1
2.531675990E1,1.594218135E0,1.091426182E1,1.386580944E1
2.533677438E1,1.589432478E0,8.596813202E0,1.089691448E1
2.535653438E1,-1.063609719E0,6.992425919E0,1.163390350E1
2.537622526E1,-5.611169338E-1,4.066602230E0,1.237149143E1
2.539604729E1,-5.383851007E-3,3.544966698E0,1.009232807E1
2.541583083E1,-6.281159073E-2,4.205385685E0,7.099504948E0
2.543588386E1,-3.020938635E-1,5.158327579E0,5.227120876E0
2.545551339E1,1.373480201E0,5.455037594E0,3.857828379E0
2.547533531E1,3.399004459E0,4.636692047E0,2.837887764E0
2.549515724E1,2.695514679E0,3.549752474E0,3.230310678E0
2.551497922E1,8.554340899E-2,2.960519791E0,3.220739365E0
2.553499370E1,-1.633101404E-1,1.395015597E0,1.904088616E0
2.555462333E1,4.875376225E-1,1.447657704E0,2.524427772E-1
2.557444521E1,-3.888336942E-2,3.674179077E0,-9.272187948E-2
2.559426708E1,-6.041877270E-1,5.570491314E0,2.138585329E0
2.561408896E1,-1.441675574E-1,5.325825214E0,7.133004189E0
2.563410339E1,1.081555843E0,4.191029072E0,1.247198963E1
2.565373297E1,2.254637241E0,4.727619171E0,1.571366596E1
2.567355495E1,2.570489645E0,6.364908218E0,1.782054710E1
2.569337682E1,2.273779631E0,6.494120598E0,1.950629044E1
2.571316026E1,1.819143414E0,5.613562107E0,1.996571159E1
2.573321307E1,2.513062000E0,5.623133183E0,2.031087685E1
2.575284266E1,5.553741455E0,5.134399414E0,1.796949959E1
2.577266453E1,7.698906898E0,4.899902344E0,1.176850033E1
2.579248646E1,6.324828625E0,4.584050179E0,5.476572990E0
2.581230828E1,2.886940479E0,3.927818298E0,1.137787223E0
2.583232276E1,6.173482537E-1,2.797807932E0,6.161518097E-1
2.585195234E1,-1.776670814E-1,2.012363911E0,4.350749969E0
2.587196677E1,1.286142170E-1,2.055434704E0,8.425726891E0
2.589159636E1,9.858429432E-1,2.333002090E0,9.010173798E0
2.591161068E1,3.391826153E-1,3.080160856E0,9.488738060E0
2.593124036E1,-1.743769526E0,3.564109325E0,9.915258408E0
2.595106214E1,-4.951946259E0,4.584050179E0,1.027896786E1
2.597107651E1,-5.521438122E0,5.053043365E0,1.256291676E1
2.599070609E1,-2.921636343E0,3.161516905E0,1.102612686E1
2.601052792E1,-2.117049932E0,2.558525562E0,8.564510345E0
2.603034974E1,-1.456032634E0,3.961317778E0,6.970292568E0
2.605017167E1,-3.308077157E-1,4.765904427E0,5.720640659E0
2.607018604E1,1.043270707E0,3.549752474E0,4.829912663E0
2.608981563E1,1.895713687E0,2.146361828E0,5.059623718E0
2.610963750E1,1.086341500E0,1.380658627E0,5.524429321E0
2.612945943E1,4.540380836E-1,1.983649969E0,4.240679741E0
2.614924281E1,-8.195417374E-2,3.233301640E0,2.407179594E0
2.616929563E1,-1.762912035E0,5.522634506E0,1.368096352E0
2.618905562E1,-6.233302951E-1,8.697312355E0,8.434699476E-2
2.620870792E1,-9.152546525E-1,1.460100365E1,1.281356573E0
2.622856839E1,6.508477330E-1,1.675574112E1,9.541379929E0
2.624839042E1,1.728216171E0,1.286321640E1,1.673360634E1
2.626840505E1,4.444667995E-1,1.094776154E1,2.077029800E1
2.628803464E1,1.761715651E0,8.471788406E0,2.052623177E1
2.630785656E1,2.139781713E0,7.207779884E0,1.745683670E1
2.632767849E1,-6.807580590E-1,5.594419479E0,1.640339661E1
2.634750037E1,-1.231107235E0,2.635095835E0,1.453579903E1
2.636751490E1,4.348955154E-1,2.395813704E0,1.356371498E1
2.638714458E1,3.935595036E0,1.509871125E0,1.222792149E1
2.640696646E1,5.041677475E0,1.188634634E0,8.656036377E0
2.642678833E1,3.949951887E0,2.931805849E0,3.129812002E0
2.644661021E1,1.330409408E0,3.726821184E0,8.650053740E-1
2.646662464E1,-5.228317380E-1,3.362514019E0,3.577269912E-1
2.648625422E1,-4.887340367E-1,3.156731367E0,4.677968323E-1
2.650607620E1,-1.144965649E0,2.950948477E0,1.626521230E0
2.652585958E1,-8.147560954E-1,3.051447153E0,3.910470486E0
2.654571990E1,2.020140409E0,3.592823267E0,5.797211170E0
2.656573432E1,2.676372051E0,4.080958843E0,9.671191216E0
2.658536391E1,3.284149170E0,4.550550461E0,1.383709526E1
2.660518583E1,5.702096462E0,4.847260475E0,1.051825047E1
2.662500771E1,-4.743770957E-1,6.513861656E0,9.062815666E0
2.664482964E1,-4.727021217E0,8.371290207E0,7.832306862E0
2.666484401E1,8.949156404E-1,7.155138016E0,8.243872643E0
2.668447365E1,8.858229637E0,2.793022156E0,1.423908901E1
2.670448802E1,1.112782192E1,-6.580262631E-2,1.665225029E1
2.672411766E1,7.478767395E0,3.803391695E0,1.490967751E1
2.674393948E1,4.735395908E0,5.613562107E0,1.248156071E1
2.676391531E1,3.351148129E0,5.938985825E0,1.123190975E1
2.678358344E1,-1.226321578E0,7.849654675E0,8.492725372E0
2.680359776E1,-1.379462242E0,5.373681545E0,3.929612875E0
2.682322734E1,-1.202393398E-1,5.120042324E0,3.369692564E0
2.684304917E1,-9.079565048E0,9.932606697E0,8.511868477E0
2.686287104E1,-6.670591354E0,8.495717049E0,6.960721016E0
2.688269297E1,2.695514679E0,4.205385685E0,6.702296257E0
2.690270734E1,-1.475175142E0,4.157529354E0,1.141376400E1
2.692233698E1,-5.554937840E0,3.836891174E0,9.757332802E0
2.694215875E1,-4.094717979E0,3.750749588E0,8.248658180E0
2.696198068E1,-1.556531072E0,3.525824070E0,8.564510345E0
2.698180261E1,-1.049252748E0,3.946960926E0,7.602595806E0
2.700181698E1,-1.398604870E0,4.880760193E0,6.831508636E0
2.702144656E1,-1.288534999E0,4.813760757E0,7.152146816E0
2.704126849E1,-1.302891970E0,4.023531437E0,8.277371407E0
2.706109037E1,-1.987837434E0,3.387040377E0,9.014959335E0
2.708091224E1,-2.495115757E0,3.487539053E0,9.187242508E0
2.710092667E1,-2.485544443E0,3.530609846E0,9.201599121E0
2.712055630E1,-2.571686029E0,2.989233732E0,8.521439552E0
2.714037818E1,-3.275774240E0,2.864806890E0,8.124231339E0
2.716020005E1,-3.793222189E0,3.698107481E0,8.377870560E0
2.718002193E1,-3.017349243E0,4.856831551E0,8.713463783E0
2.720003636E1,-2.720639229E0,5.627918720E0,8.554939270E0
2.721966599E1,-3.524627686E0,5.172684193E0,8.516654015E0
2.723968036E1,-3.831507206E0,4.382454872E0,8.952746391E0
2.725930995E1,-3.917648792E0,4.057030678E0,9.105886459E0
2.727913177E1,-5.109872818E0,4.057030678E0,6.352345943E0
2.729914620E1,-8.260622025E0,4.550550461E0,2.176870346E0
2.731890620E1,-5.334797859E0,3.731606960E0,8.938388824E0
2.733859708E1,-3.452843189E0,3.640679598E0,1.102612686E1
2.739225740E1,-2.571686029E0,5.316253662E0,6.659225464E0
2.741227178E1,-2.289333105E0,4.933402061E0,7.583453178E0
2.743190136E1,-2.088335991E0,4.761118889E0,8.823533058E0
2.745168485E1,-1.336391449E0,4.617549419E0,9.829116821E0
2.747173756E1,-3.834498227E-1,3.970889091E0,1.029811001E1
2.749136719E1,-4.073780477E-1,3.798605919E0,9.723833084E0
2.751115068E1,-5.419743061E-1,3.650250912E0,7.971090317E0
2.753097245E1,-6.376872063E-1,3.779463291E0,6.841079712E0
2.755083271E1,-1.010967568E-1,3.583251953E0,7.444071293E0
2.757084719E1,1.019342422E0,2.611167669E0,8.306085587E0
2.759047678E1,2.072782516E0,2.079362869E0,9.728618622E0
2.761049115E1,2.206780672E0,2.280359983E0,1.107876873E1
2.763012079E1,1.728216171E0,2.974876642E0,1.136112213E1
2.764994266E1,1.613360643E0,3.147160053E0,9.666405678E0
2.766995704E1,1.890928149E0,2.501097918E0,8.052446365E0
2.768958662E1,1.790429592E0,3.276372433E0,9.163313866E0
2.770937011E1,1.603789330E0,3.113660574E0,9.915258408E0
2.772923032E1,1.943570137E0,2.749951363E0,8.502297401E0
2.774905219E1,2.096710920E0,2.525026083E0,6.979863644E0
2.776906667E1,1.368694544E0,1.730010748E0,6.266204357E0
2.778869626E1,5.551348329E-1,1.250848055E0,6.984649181E0
2.780871063E1,8.566305041E-1,1.371087432E0,8.540582657E0
2.782834021E1,2.048854351E0,3.415754437E-1,9.824331284E0
2.784816204E1,2.968296528E0,2.889333367E-1,1.137069321E1
2.786817646E1,-5.383851007E-3,3.894318819E0,1.074855900E1
2.788780605E1,-4.504488707E-1,3.942175388E0,9.359525681E0
2.790755115E1,1.191625714E0,2.155933142E0,7.894520283E0
2.792744964E1,2.863012314E0,8.727820516E-1,7.549953461E0
2.794727162E1,2.412563324E0,9.876375198E-1,9.081958771E0
2.796728600E1,1.000199914E0,7.914260626E-1,9.867402077E0
2.798691563E1,1.421336651E0,1.040279627E0,9.134600639E0
2.800693006E1,1.277767301E0,1.447657704E0,7.444071293E0
2.802655964E1,8.973085321E-3,1.854437590E0,5.931209087E0
2.804638146E1,-1.753340840E0,2.764308453E0,5.567500114E0
2.806620339E1,-2.907279491E0,2.391027927E0,5.327619553E0
2.808602527E1,-3.261417150E0,1.773081541E0,5.940780640E0
2.810603969E1,-2.840280533E0,2.386242390E0,7.837092400E0
2.812566928E1,-1.350748420E0,2.299502611E0,1.022632599E1
2.814549110E1,-2.126621008E0,2.280359983E0,1.374556923E1
2.816531308E1,-2.231905222E0,1.849651933E0,1.822792435E1
2.818513490E1,1.162911773E0,4.277170599E-1,1.835235214E1
2.820514933E1,2.407777786E0,2.644667149E0,1.607797432E1
2.822477891E1,-3.834498227E-1,7.241279602E0,1.442094421E1
2.824460084E1,5.838487148E-1,6.340980053E0,1.249591827E1
2.826442271E1,2.010569334E0,4.512265205E0,1.017846966E1
2.828424459E1,2.091925144E0,4.301098824E0,8.330014229E0
2.830425902E1,2.570489645E0,3.717249870E0,7.573882103E0
2.832388860E1,2.489133835E0,2.745165825E0,6.927221775E0
2.834371053E1,1.895713687E0,2.194218397E0,6.294918060E0
2.836353240E1,8.039883971E-1,2.357528448E0,5.778068542E0
2.838335428E1,1.286142170E-1,2.936591625E0,5.318048477E0
2.840336876E1,5.934200287E-1,3.037090063E0,5.471786976E0
2.842299834E1,1.459621787E0,2.994019270E0,5.849853039E0
2.844282021E1,8.853443861E-1,3.420539856E0,6.476772785E0
2.846264209E1,1.668993831E-1,3.942175388E0,7.636095047E0
2.848242558E1,8.422735929E-1,3.894318819E0,8.589036942E0
2.850247834E1,1.709073544E0,3.808177233E0,8.904889107E0
2.852210798E1,1.699502230E0,3.702893019E0,8.425726891E0
2.854192990E1,9.044869542E-1,3.588037491E0,7.008577347E0
2.856175173E1,-1.298106313E-1,3.707678795E0,5.538786411E0
2.858157365E1,3.822534084E-1,3.860819340E0,4.839483738E0
2.860158808E1,8.470591903E-1,3.812962770E0,6.146563053E0
2.862121771E1,1.009771109E0,3.669393539E0,9.550951958E0
2.864103959E1,5.599204898E-1,3.352942705E0,1.223749352E1
2.866086146E1,4.779663086E-1,2.769093990E0,1.230927753E1
2.868068334E1,-2.931207791E-2,3.008376360E0,1.039860916E1
2.870069777E1,-2.720639229E0,4.387240410E0,8.229515076E0
2.872032735E1,-4.300500393E0,5.316253662E0,6.965506554E0
2.874011084E1,-2.408974171E0,6.154339790E0,9.005388260E0
2.875997110E1,5.312066078E-1,6.915855408E0,1.349671650E1
2.877979298E1,4.629513741E0,6.269195557E0,1.722712708E1
2.879980740E1,7.684549809E0,5.661418438E0,1.742333794E1
2.881943699E1,6.731608391E0,5.187041283E0,1.410030556E1
2.883945141E1,3.911666870E0,4.305884361E0,9.757332802E0
2.885908100E1,1.761715651E0,3.597608805E0,6.390631199E0
2.887890282E1,3.631108403E-1,3.669393539E0,4.317250252E0
2.889872469E1,-1.441675574E-1,4.267599106E0,2.995813847E0
2.891850813E1,4.725824669E-2,4.607978344E0,2.641676188E0
2.893856094E1,5.934200287E-1,4.430909157E0,2.679961443E0
2.895819058E1,1.062413216E0,4.124029636E0,4.451846600E0
2.897820495E1,7.896314859E-1,4.617549419E0,8.636893272E0
2.899783454E1,6.508477330E-1,5.105685234E0,1.053739262E1
2.901765636E1,7.322037220E-1,4.875974178E0,9.062815666E0
2.903767074E1,8.973085321E-3,4.454837322E0,7.156932354E0
2.905730037E1,-1.010967612E0,4.411168575E0,5.773283005E0
2.907712214E1,-1.715055585E0,4.109673023E0,6.055635929E0
2.909694402E1,-1.211964726E0,3.171088219E0,8.114660263E0
2.911676594E1,-4.360919297E-1,2.391027927E0,1.071984577E1
2.913678027E1,-4.073780477E-1,2.170290232E0,1.241456223E1
2.915640995E1,-3.978067636E-1,2.855235577E0,1.257248878E1
2.917623178E1,5.114658475E-1,3.406183004E0,1.096869946E1
2.919605370E1,1.048056364E0,3.884747505E0,9.781260490E0
2.921587558E1,5.599204898E-1,5.024329185E0,1.050867844E1
2.923588995E1,7.513462901E-1,4.832903385E0,1.256291676E1
2.925551954E1,2.412563324E0,3.233301640E0,1.413859081E1
2.927534141E1,3.221935749E0,2.840878725E0,1.316650677E1
2.929516329E1,1.483550072E0,2.994019270E0,1.082034397E1
2.931498516E1,-1.221535921E0,2.544168711E0,9.115457535E0
2.933499959E1,-2.475973129E0,2.424527645E0,8.234300613E0
2.935462917E1,-1.762912035E0,2.429313183E0,7.305287361E0
2.937445105E1,-5.802595019E-1,2.692523718E0,5.998208046E0
2.939427292E1,1.429711580E-1,3.195016384E0,4.901697159E0
2.941409485E1,4.636093974E-1,3.420539856E0,4.451846600E0
2.943410928E1,1.812563092E-1,3.314657450E0,4.423132420E0
2.945373886E1,-4.743770957E-1,3.242872953E0,4.336392879E0
2.947356074E1,-4.791627228E-1,3.841676712E0,4.762913704E0
2.949338261E1,5.312066078E-1,4.421338081E0,5.562714577E0
2.951320443E1,1.440479279E0,4.262813568E0,6.951149940E0
2.953321891E1,9.954141974E-1,3.540181160E0,9.483952522E0
2.955284850E1,-2.159522474E-1,3.516252756E0,1.220399380E1
2.957267037E1,-1.006181955E0,3.961317778E0,1.458844185E1
2.959249225E1,-5.467599630E-1,3.659822226E0,1.603490257E1
2.961227568E1,3.966103494E-1,3.290729284E0,1.531167221E1
2.963232850E1,1.699502230E0,3.017947674E0,1.261555958E1
2.965208850E1,2.709871531E0,3.022733212E0,9.565308571E0
2.967197256E1,2.225923300E0,3.702893019E0,7.520641804E0
2.969160214E1,1.110269666E0,3.616751432E0,7.688737392E0
2.971142396E1,3.918247223E-1,3.913461447E0,9.436096191E0
2.973120740E1,7.034898400E-1,4.262813568E0,1.126062298E1
2.975106766E1,1.933998942E0,4.047459602E0,1.196471119E1
2.977108204E1,2.810370207E0,4.377668858E0,1.111705399E1
2.979071162E1,2.939582586E0,4.828117847E0,9.579665184E0
2.981072600E1,2.642872572E0,4.875974178E0,7.621738434E0
2.983035563E1,2.053640127E0,4.828117847E0,6.036493301E0
2.985017745E1,1.229910851E0,4.713262558E0,5.203192711E0
2.987019178E1,6.412764788E-1,4.464408875E0,5.050052166E0
2.988982141E1,8.901300430E-1,4.181457520E0,5.294120312E0
2.990964324E1,1.210768223E0,3.879961967E0,5.572285652E0
2.992946506E1,6.556333899E-1,3.497110367E0,5.370690346E0
2.994928699E1,-6.089733839E-1,3.218944550E0,4.973481655E0
2.996930136E1,-2.040479422E0,3.003590584E0,5.667998791E0
2.998893094E1,-2.284547329E0,2.462812662E0,7.765307903E0
3.000894527E1,-9.200403094E-1,2.041077614E0,1.013539886E1
3.002857490E1,1.272981644E0,2.965305567E0,1.182114220E1
3.004839673E1,8.327022791E-1,4.037888050E0,1.270170116E1
3.006841105E1,-1.073180914E0,3.468396425E0,1.364985657E1
3.008804068E1,-1.791625977E0,4.780261517E0,1.650868225E1
3.010786251E1,2.402992249E0,5.632704735E0,1.974078751E1
3.012768433E1,7.876574039E0,3.937389612E0,2.043530273E1
3.014750626E1,8.603992462E0,3.056232691E0,1.763869286E1
3.016752063E1,4.965106964E0,2.994019270E0,1.296072388E1
3.018715021E1,2.243271172E-1,2.726023197E0,9.555737495E0
3.020716454E1,-2.394617319E0,2.735594511E0,7.841877937E0
3.022679417E1,-1.916052699E0,2.888735056E0,6.850651264E0
3.024661600E1,1.238285750E-1,2.965305567E0,5.912066460E0
3.026663037E1,1.272981644E0,3.142374277E0,4.509274483E0
3.028626001E1,1.373480201E0,3.357728481E0,2.933600664E0
3.030608183E1,1.234696507E0,3.635894060E0,1.937588096E0
3.032590365E1,1.258624673E0,3.870390654E0,2.248655081E0
3.034572558E1,1.454836130E0,3.583251953E0,3.776472330E0
3.036573995E1,1.536192179E0,3.166302681E0,5.136193752E0
3.038536954E1,8.853443861E-1,3.027518749E0,6.108277798E0
3.040538386E1,-2.015953064E-1,3.166302681E0,6.874579430E0
3.042501350E1,-1.369890928E0,4.095315933E0,8.210372925E0
3.044483532E1,-1.082752228E0,5.191826820E0,1.014496994E1
3.046484964E1,1.004985452E0,4.445266247E0,1.243370438E1
3.048447928E1,1.603789330E0,3.506681681E0,1.284586811E1
3.050449360E1,1.000199914E0,4.004388809E0,1.061874866E1
3.052412324E1,2.417349100E0,4.440480709E0,8.263014793E0
3.054394501E1,2.393420935E0,5.556134224E0,7.741379261E0
3.056392079E1,1.119840980E0,6.364908218E0,9.311669350E0
3.058358891E1,1.991426587E0,6.120840549E0,1.192642593E1
3.060360324E1,3.763311863E0,5.862415314E0,1.319521999E1
3.062323287E1,3.787240028E0,5.728417397E0,1.245284748E1
3.064305469E1,2.158924341E0,5.637490273E0,1.106441212E1
3.066287652E1,8.183453679E-1,5.325825214E0,9.230313301E0
3.068269839E1,4.827519655E-1,4.555335999E0,6.788437843E0
3.070271277E1,8.183453679E-1,3.726821184E0,4.863411903E0
3.072234240E1,1.814357758E0,2.974876642E0,4.576273441E0
3.074216423E1,2.163709879E0,2.663809776E0,5.011766911E0
3.076198615E1,1.713859200E0,2.625524759E0,4.949553490E0
3.078180803E1,8.757730722E-1,2.472383976E0,4.944767952E0
3.080182240E1,7.597211748E-2,2.328216314E0,5.663212776E0
3.082145199E1,3.768695518E-2,2.055434704E0,7.257431030E0
3.084127386E1,-3.355933726E-1,1.418943882E0,1.102134132E1
3.086109574E1,-1.044467092E0,1.677368641E0,1.673839188E1
3.088091761E1,1.764706671E-1,2.275574446E0,2.075594139E1
3.090093204E1,3.169293642E0,1.935793519E0,1.896551132E1
3.092056162E1,2.154138565E0,4.502694130E0,1.300858021E1
3.094038350E1,-1.412961721E0,7.926225185E0,8.105088234E0
3.096020537E1,-2.706282377E0,9.051449776E0,7.429714203E0
3.098002730E1,-8.338986635E-1,7.336992264E0,9.647262573E0
3.100004167E1,1.550549030E0,4.904688358E0,1.091127110E1
3.101967131E1,3.011367321E0,3.372085333E0,1.081077290E1
3.103949318E1,2.316850424E0,2.970091105E0,1.019761181E1
3.105931506E1,5.682953820E-2,2.922234535E0,9.719047546E0
3.107913693E1,-2.973082066E-1,2.318645239E0,8.349156380E0
3.109915136E1,8.470591903E-1,1.873580098E0,6.726224422E0
3.111878094E1,2.163709879E0,2.429313183E0,5.644070625E0
3.113860282E1,3.025724173E0,2.955734253E0,4.528416634E0
3.115838626E1,2.987439156E0,3.382254839E0,4.101896286E0
3.117820808E1,2.398206472E0,3.889533281E0,4.537988186E0
3.119826089E1,2.268994093E0,3.956532240E0,4.853840828E0
3.121789058E1,2.158924341E0,3.650250912E0,5.174479008E0
3.123771245E1,2.053640127E0,3.199802160E0,5.868995667E0
3.125753433E1,1.876571178E0,2.836092949E0,6.409773827E0
3.127731777E1,8.039883971E-1,3.190230846E0,6.381059647E0
3.129737058E1,9.188438654E-1,2.630310297E0,7.176074982E0
3.131700021E1,2.106282234E0,1.945364833E0,9.168100357E0
3.133682209E1,3.044866800E0,1.572084427E0,1.271127224E1
3.135664396E1,3.902095556E0,5.952146053E-1,1.639861107E1
3.137646584E1,4.122235298E0,6.717849374E-1,1.704527283E1
3.139648027E1,4.261018753E0,1.097707391E0,1.337707520E1
3.141610985E1,3.346362352E0,1.342373490E0,9.867402077E0
3.143612428E1,1.764706671E-1,2.678166628E0,9.440881729E0
3.145575391E1,-3.927220106E0,4.574478626E0,1.074855900E1
3.147557574E1,-4.625924587E0,5.484349728E0,1.192164040E1
3.149535917E1,3.290131316E-2,4.837689400E0,1.256291676E1
3.151521943E1,4.572085857E0,4.191029072E0,1.270170116E1
3.153523386E1,6.190830231E0,3.865604877E0,1.142333508E1
3.155486350E1,4.912465096E0,3.329014540E0,9.656833649E0
3.157468532E1,1.953141451E0,3.013161898E0,8.076375008E0
3.159450725E1,4.725824669E-2,3.262015581E0,6.687939167E0
3.161432912E1,-1.974078640E-2,3.290729284E0,5.562714577E0
3.163434355E1,4.636093974E-1,3.309871912E0,4.624129772E0
3.165397313E1,5.216353536E-1,3.631108284E0,3.857828379E0
3.167379501E1,2.291127741E-1,4.071387768E0,3.685544968E0
3.169361693E1,-4.845465720E-2,4.396811485E0,4.092324734E0
3.171343881E1,3.056831062E-1,4.478765965E0,5.145765305E0
3.173345324E1,1.177268744E0,4.195814610E0,6.530013084E0
3.175321324E1,1.747358680E0,3.865604877E0,7.612166882E0
3.177290407E1,1.713859200E0,3.588037491E0,8.229515076E0
3.179272610E1,1.699502230E0,3.678964853E0,8.286943436E0
3.181254813E1,1.555334687E0,3.836891174E0,9.091529846E0
3.183256266E1,1.819143414E0,3.573680639E0,1.125105190E1
3.185219230E1,2.474776745E0,3.309871912E0,1.315693569E1
3.187201417E1,2.604587555E0,3.659822226E0,1.330529022E1
3.189183615E1,2.335993052E0,4.933402061E0,1.216570854E1
3.191165803E1,3.207578659E0,6.135197163E0,1.139462185E1
3.193167251E1,4.246662140E0,6.930212498E0,1.157169056E1
3.195130214E1,4.529015064E0,6.762714863E0,1.201256752E1
3.197112402E1,5.108676434E0,5.182255745E0,1.162911797E1
3.199094594E1,5.314459324E0,3.937389612E0,1.054696369E1
3.201076782E1,4.146163464E0,3.879961967E0,9.953543663E0
3.203078225E1,1.900499344E0,3.789034605E0,9.254241943E0
3.205054224E1,1.381855011E-1,3.650250912E0,7.947162151E0
3.207023313E1,-6.424728632E-1,3.607180119E0,6.433701992E0
3.209005516E1,-1.034895778E0,3.430111170E0,5.107480049E0
3.210987714E1,-1.159322619E0,3.516252756E0,3.896113396E0
3.212989173E1,-7.142575383E-1,3.870390654E0,2.809173822E0
3.214952136E1,-1.495514158E-2,3.985246181E0,1.942373753E0
3.216934324E1,8.039883971E-1,4.013959885E0,1.497308731E0
3.218916516E1,1.560718536E0,4.095315933E0,1.310668588E0
3.220898709E1,2.594418049E0,4.995615482E0,1.473380566E0
3.222900157E1,3.878167391E0,6.729215622E0,3.398406267E0
3.224863120E1,5.065605640E0,7.643871784E0,7.286144733E0
3.226864558E1,4.721039295E0,6.628716946E0,1.206521034E1
3.228827516E1,3.073580742E0,7.241279602E0,1.477029610E1
3.230809704E1,3.284149170E0,9.592227936E0,1.388016605E1
3.232791896E1,6.166902065E0,9.333803177E0,1.280279732E1
3.234774084E1,6.621538639E0,7.485347271E0,1.253898907E1
3.236775521E1,4.165306091E0,7.921439171E0,1.298943806E1
3.238738485E1,3.202793121E0,7.250850677E0,1.266820145E1
3.240720672E1,2.901297569E0,5.814558983E0,1.064267731E1
3.242702860E1,9.571290612E-1,5.804987907E0,7.789236069E0
3.244685048E1,-1.030110121E0,5.680561066E0,6.065207005E0
3.246686490E1,-1.762912035E0,4.689334393E0,5.730212212E0
3.248649454E1,-8.243274093E-1,3.870390654E0,6.342774391E0
3.250631641E1,2.578266263E-1,3.410968781E0,7.329215527E0
3.252613834E1,8.709874153E-1,3.142374277E0,8.157731056E0
3.254596016E1,1.718644857E0,2.998805046E0,8.306085587E0
3.256593610E1,1.981855392E0,2.946162939E0,7.750950813E0
3.258560417E1,1.205982566E0,2.903092146E0,6.893722057E0
3.260561855E1,4.247260094E-2,2.879163742E0,5.639284611E0
3.262524824E1,-4.983053207E-1,2.955734253E0,4.494917393E0
3.264507006E1,-4.791627228E-1,3.228515863E0,4.092324734E0
3.266508443E1,-3.164508045E-1,3.458825111E0,3.939184189E0
3.268471402E1,-2.350948304E-1,3.434896946E0,3.427120209E0
3.270453589E1,-4.456632137E-1,3.281157970E0,3.139383316E0
3.272435777E1,-6.759724021E-2,3.401397467E0,4.058825493E0
3.274417964E1,1.196411371E0,3.218944550E0,5.572285652E0
3.276419402E1,1.215553880E0,3.161516905E0,7.593024254E0
3.278382370E1,7.597211748E-2,3.903890133E0,1.031725311E1
3.280383803E1,7.561319470E-1,5.110470772E0,1.271605778E1
3.282346766E1,2.992224693E0,5.029115200E0,1.445444298E1
3.284328949E1,4.012165546E0,5.728417397E0,1.618804359E1
3.286330381E1,4.390231133E0,7.682157040E0,1.793121529E1
3.288293350E1,5.894120216E0,6.958926678E0,1.796949959E1
3.290275532E1,5.309673309E0,5.900700569E0,1.540259933E1
3.292257714E1,2.245065928E0,6.063412666E0,1.193599796E1
3.294239907E1,-2.159522474E-1,6.139982700E0,1.018325520E1
3.296241350E1,-3.403790295E-1,5.541777134E0,1.022632599E1
3.298204308E1,-1.441675574E-1,4.267599106E0,1.035553837E1
3.300205740E1,-2.733799815E-1,3.415754318E0,1.007797050E1
3.302168709E1,-4.121637046E-1,3.285943747E0,8.330014229E0
3.304150891E1,-8.626125455E-1,3.497110367E0,6.261418819E0
3.306152324E1,-1.336391449E0,2.840878725E0,4.925625324E0
3.308115287E1,-1.020538807E0,1.457229018E0,3.273381472E0
3.310089792E1,-4.360919297E-1,1.792224169E0,2.258226395E0
3.312079652E1,1.429711580E-1,2.630310297E0,2.483749866E0
3.314061839E1,-7.860422134E-1,3.357728481E0,3.982254982E0
3.316063282E1,-2.658426046E0,3.401397467E0,5.121836662E0
3.318026245E1,-2.523829699E0,2.726023197E0,5.663212776E0
3.320027683E1,-1.164108157E0,3.190230846E0,8.277371407E0
3.321990641E1,3.152543902E-1,3.271586657E0,1.085862923E1
3.323972824E1,1.359123230E0,2.117648125E0,1.323350525E1
3.325955011E1,1.220339537E0,2.754737139E0,1.601097488E1
3.327937204E1,1.512263894E0,3.597608805E0,1.633639908E1
3.329938641E1,3.025724173E0,3.290729284E0,1.335793209E1
3.331901605E1,4.323232174E0,4.042674065E0,9.886545181E0
3.333883792E1,2.882154942E0,6.345765591E0,7.612166882E0
3.335865985E1,2.292922258E0,6.302694798E0,7.487142086E0
3.337848167E1,3.475574970E0,4.033102512E0,8.694320679E0
3.339849610E1,2.638087034E0,3.506681681E0,9.862616539E0
3.341812574E1,-2.063809484E-1,3.702893019E0,1.059960651E1
3.343794761E1,-1.173679471E0,2.960519791E0,9.263813019E0
3.345776949E1,3.056831062E-1,3.841676712E0,7.372286797E0
3.347759141E1,5.886343718E-1,3.870390654E0,5.983851433E0
3.349760579E1,-1.058824062E0,4.234099865E0,9.603593826E0
3.351723542E1,-6.903293133E-1,3.487539053E0,1.136112213E1
3.353705730E1,9.523434043E-1,2.007578135E0,8.425726891E0
3.355687917E1,2.925225735E0,1.505085468E0,7.018148899E0
3.357670110E1,3.461217880E0,2.179861546E0,6.280561447E0
3.359671553E1,2.824727058E0,3.013161898E0,6.170491219E0
3.361634511E1,1.311266780E0,3.836891174E0,7.396214962E0
3.363616698E1,8.805587292E-1,3.233301640E0,7.401000500E0
3.365598891E1,8.374879360E-1,2.745165825E0,7.367500782E0
3.367581079E1,1.477568001E-1,3.022733212E0,8.425726891E0
3.369582521E1,-8.291130662E-1,4.267599106E0,1.244327641E1
3.371545480E1,8.075776696E-2,3.875176191E0,1.581416512E1
3.373527667E1,6.317051649E-1,2.376671076E0,1.389452267E1
3.375509860E1,-1.202393413E0,3.132802963E0,1.046560764E1
3.377492048E1,-2.533401012E0,4.852046013E0,9.244669914E0
3.379493490E1,-2.701496840E0,6.494120598E0,1.102134132E1
3.381456454E1,-1.681556106E0,6.600003242E0,1.285065365E1
3.383438641E1,-9.966106415E-1,4.909473896E0,1.193599796E1
3.385420829E1,-2.361117840E0,3.626322746E0,9.316454887E0
3.387403021E1,-4.109074593E0,3.420539856E0,6.223133564E0
3.389404464E1,-4.774877548E0,3.635894060E0,4.772484779E0
3.391367422E1,-3.821935892E0,3.961317778E0,6.520441532E0
3.393368860E1,-1.245464206E0,3.722035646E0,9.714262009E0
3.395344860E1,4.187439568E-3,4.023531437E0,1.064806080E1
3.397313954E1,-1.968096644E-1,4.229313850E0,8.497511864E0
3.399315407E1,-1.058823988E-1,4.018745422E0,5.543571949E0
3.401278376E1,-3.212364316E-1,4.646263599E0,4.849055290E0
3.403279818E1,-2.542374134E-1,4.976472855E0,5.538786411E0
3.405242782E1,1.048056364E0,4.569693089E0,5.988636971E0
3.407224969E1,1.752144337E0,3.999603033E0,6.352345943E0
3.409207162E1,-9.631111473E-2,4.210171223E0,6.874579430E0
3.411189350E1,-2.557329178E0,4.823332310E0,7.487142086E0
3.413190798E1,-4.400999069E0,5.062614441E0,8.468797684E0
3.415153756E1,-3.668795347E0,4.871188641E0,1.034596729E1
3.417135943E1,9.714859724E-1,5.282754421E0,1.247677517E1
3.419118136E1,3.298506021E0,5.938985825E0,1.372164154E1
3.421100324E1,-6.759724021E-2,7.231708050E0,1.360200024E1
3.423101766E1,-1.963909149E0,7.643871784E0,1.265384388E1
3.425064730E1,-1.393819153E-1,6.159125328E0,1.297029495E1
3.427046917E1,1.426122308E0,5.455037594E0,1.399502182E1
3.429025261E1,1.406979680E0,5.690132141E0,1.292243862E1
3.431007443E1,-3.451646566E-1,5.910272121E0,8.962317467E0
3.433012730E1,-2.351546526E0,5.076971531E0,5.423332691E0
3.434975693E1,-4.118646145E0,3.846462488E0,4.077968121E0
3.436957886E1,-5.004588604E0,3.573680639E0,4.676771641E0
3.438936230E1,-3.366701365E0,3.822534084E0,6.026922226E0
3.440922261E1,-9.439685345E-1,4.392025948E0,7.305287361E0
3.442923709E1,-2.590230405E-1,4.741976261E0,8.038089752E0
3.444886667E1,-5.706881881E-1,5.033900738E0,8.598608017E0
3.446865011E1,-1.106680512E0,5.225326538E0,8.564510345E0
3.448851042E1,-1.479960799E0,5.397609711E0,8.229515076E0
3.450833230E1,-3.308077157E-1,5.651846886E0,7.846663475E0
3.452834678E1,-9.535398483E-1,6.710072994E0,7.042077065E0
3.454797641E1,-4.085146427E0,7.356134892E0,8.459226608E0
3.456779834E1,-5.090730190E0,5.862415314E0,1.088734341E1
3.458762021E1,-3.323630571E0,5.081757069E0,9.278169632E0
3.460744214E1,-2.533401012E0,5.484349728E0,4.466203690E0
3.462745657E1,-3.965505362E0,5.608776093E0,6.160920143E0
3.464708620E1,-6.086742401E0,6.547360897E0,6.903293133E0
3.469736824E1,-1.412961721E0,6.068198204E0,1.056610680E1
3.471722845E1,-7.621139884E-1,5.560919762E0,1.008754253E1
3.473724287E1,-8.626125455E-1,4.641477585E0,9.469595909E0
3.475687246E1,-1.762912035E0,4.603192329E0,9.134600639E0
3.477669428E1,-1.978266120E0,4.966901779E0,8.483154297E0
3.479647772E1,-1.470389485E0,5.402395248E0,7.357929707E0
3.481633793E1,-1.140179992E0,5.508277893E0,6.156134605E0
3.483635235E1,-9.918249846E-1,5.344967365E0,5.725426197E0
3.485611235E1,-6.233302951E-1,5.215754986E0,6.917650223E0
3.487580314E1,-4.366901144E-2,5.196612358E0,8.382656097E0
3.489558668E1,3.439682424E-1,5.072185993E0,8.047660828E0
3.491544699E1,2.434697002E-1,4.823332310E0,6.592226505E0
3.493546162E1,-5.802594870E-2,4.469194412E0,6.836294174E0
3.495509116E1,-5.276173949E-1,4.171886444E0,9.215956688E0
3.497491298E1,-6.424728632E-1,4.305884361E0,1.063310528E1
3.499473485E1,-1.106680483E-1,4.947759151E0,9.800403595E0
3.501455673E1,5.162515044E-1,3.406183004E0,8.660821915E0
3.503457121E1,2.386840582E-1,1.001994491E0,8.248658180E0
3.505420197E1,2.225923300E0,-1.640878081E0,1.011147022E1
3.507402379E1,4.971089065E-1,1.600798368E0,1.260120201E1
3.509384561E1,-3.290131092E0,6.958926678E0,1.349671650E1
3.511366744E1,-1.097109199E0,5.670989513E0,1.283151150E1
3.513368181E1,-1.748555183E0,4.517050743E0,9.340383530E0
3.515344181E1,-3.333201885E0,4.651049137E0,5.126622677E0
3.517313264E1,-3.798007727E0,4.928616524E0,3.594617844E0
3.519291613E1,-5.540580750E0,5.019543648E0,4.494917393E0
3.521277644E1,-4.621138573E0,4.909473896E0,5.356333256E0
3.523279103E1,-1.652842283E0,2.395813704E0,6.917650223E0
3.525242061E1,-7.381857634E-1,9.445667267E-1,7.252645493E0
3.527224244E1,-3.055634499E0,1.366301775E0,6.975078106E0
3.529206431E1,-5.751747608E0,2.127219439E0,7.200003147E0
3.531188619E1,-3.342773199E0,5.330012441E-1,6.879364967E0
3.533190061E1,-1.465603828E0,-3.433700502E-1,7.075576782E0
3.535153020E1,-2.279761791E0,5.712863803E-1,6.587440968E0
3.537135207E1,-2.581257343E0,8.871390224E-1,6.404987812E0
3.539117384E1,-3.930211067E-1,6.765705943E-1,5.998208046E0
3.541099566E1,-4.313062727E-1,1.145563841E0,8.038089752E0
3.543101009E1,-1.369890928E0,8.249256015E-1,1.116491032E1
3.545063962E1,1.525424421E-1,2.889333367E-1,1.126062298E1
3.547046150E1,-3.212364316E-1,1.911865234E0,9.555737495E0
3.549024483E1,-2.634497643E0,2.381456852E0,1.007797050E1
3.551010509E1,-1.954337835E0,1.371087432E0,1.168654537E1
3.553011947E1,6.029912829E-1,1.777867198E0,1.118883896E1
3.554974900E1,2.560918331E0,2.663809776E0,9.479166985E0
3.556976337E1,2.087139606E0,3.942175388E0,7.491927624E0
3.558939290E1,2.482553422E-1,5.009972572E0,7.880163193E0
3.560921467E1,1.406979680E0,4.665405750E0,9.182456970E0
3.562899811E1,4.179663181E0,3.195016384E0,9.182456970E0
3.564885827E1,4.826323509E0,3.204587698E0,9.278169632E0
3.566887264E1,4.237090588E0,3.195016384E0,9.579665184E0
3.568850223E1,3.729812384E0,2.883949518E0,8.742177963E0
3.570828556E1,4.950749874E0,3.851248026E0,7.391428947E0
3.572814577E1,5.295316696E0,4.694119930E0,6.616154671E0
3.574796759E1,4.136591911E0,4.377668858E0,7.353144169E0
3.576798207E1,4.514657974E0,3.463610888E0,7.942376614E0
3.578761150E1,3.399004459E0,3.841676712E0,8.009375572E0
3.580762587E1,2.652443886E0,3.903890133E0,7.123433113E0
3.582725540E1,1.454836130E0,3.568894863E0,5.835496426E0
3.584707717E1,1.378265858E0,3.295515060E0,4.049253941E0
3.586709150E1,1.575075507E0,3.544966698E0,2.445464849E0
3.588672103E1,2.863012314E0,4.603192329E0,1.597807288E0
3.590673530E1,3.513859987E0,5.177470207E0,3.220739365E0
3.592636488E1,5.544169903E0,3.846462488E0,7.741379261E0
3.594618660E1,6.195616245E0,3.008376360E0,1.142812061E1
3.596620092E1,6.075974941E0,5.191826820E0,1.267298698E1
3.598583051E1,7.143772125E0,4.517050743E0,1.363071442E1
3.600565223E1,5.989833355E0,4.286741734E0,2.008595085E1
3.602547400E1,8.288139343E0,2.874378204E0,2.509412956E1
3.604529582E1,8.364709854E0,2.826521635E0,2.104846382E1
3.606531014E1,5.367101192E0,3.645465374E0,1.302293682E1
3.608507014E1,3.513859987E0,3.195016384E0,7.396214962E0
3.610495405E1,2.560918331E0,2.539382935E0,5.873781204E0
3.612458358E1,1.776072621E0,2.079362869E0,6.520441532E0
3.614440535E1,1.991426587E0,1.792224169E0,7.013363361E0
3.616441957E1,2.791227579E0,2.007578135E0,6.352345943E0
3.618404921E1,2.426920414E0,2.362314224E0,5.164907455E0
3.620387087E1,8.949156404E-1,2.659024239E0,4.772484779E0
3.622365431E1,1.220339537E0,2.529811859E0,4.743771076E0
3.624351447E1,3.250649452E0,2.424527645E0,5.131408215E0
3.626352884E1,4.721039295E0,2.577668190E0,6.175277233E0
3.628315837E1,4.246662140E0,2.405385017E0,6.069993019E0
3.630317259E1,2.930011272E0,2.050648928E0,5.313262463E0
3.632280217E1,2.527418852E0,1.533799291E0,4.786841869E0
3.634262394E1,2.580060959E0,8.775677085E-1,5.078765869E0
3.636263822E1,2.345564365E0,1.926222295E-1,6.534798622E0
3.638239822E1,1.823929071E0,-4.630111754E-1,8.569893837E0
3.640205040E1,2.000998020E0,-1.009172916E0,1.044167995E1
3.642191066E1,2.422134638E0,-9.948160052E-1,1.222313595E1
3.644173270E1,1.986641049E0,6.819544733E-2,1.314736366E1
3.646174717E1,2.968296528E0,7.148557901E-1,1.046082211E1
3.648137671E1,3.897309780E0,-5.539384484E-1,8.554939270E0
3.650139113E1,6.412764788E-1,7.776673883E-2,1.131805134E1
3.652102066E1,2.817548811E-1,-8.129615188E-1,1.562752438E1
3.654084249E1,2.819941521E0,-1.119242787E0,1.670489311E1
3.656062587E1,4.079164505E0,8.679963946E-1,1.487139320E1
3.658044759E1,4.907679081E0,2.160718918E0,1.279801178E1
3.660050040E1,4.998606682E0,2.246860504E0,1.201256752E1
3.662012999E1,5.228317261E0,2.232503414E0,1.107398319E1
3.663995181E1,5.774479389E0,2.764308453E0,9.440881729E0
3.665977363E1,5.711667538E0,3.123231649E0,7.410571575E0
3.667959540E1,4.284946918E0,3.449253798E0,5.222335339E0
3.669960978E1,2.087139606E0,3.367299557E0,3.244667530E0
3.671923931E1,1.525424421E-1,3.295515060E0,1.880160451E0
3.673902275E1,-8.673982322E-2,3.573680639E0,1.683948994E0
3.675888296E1,-2.931207791E-2,3.832105398E0,1.971087694E0
3.677870473E1,-2.781656384E-1,3.664607763E0,3.163311481E0
3.679871910E1,-1.345962733E-1,3.022733212E0,5.351547718E0
3.681847910E1,5.312066078E-1,2.069791555E0,9.579665184E0
3.683816988E1,2.364706993E0,1.706082582E0,1.512981796E1
3.685799176E1,4.725824833E0,1.988435626E0,1.861077690E1
3.687781368E1,5.151747227E0,1.777867198E0,1.843849373E1
3.689782816E1,3.619144201E0,1.600798368E0,1.721755600E1
3.691745770E1,3.336791277E0,2.002792597E0,1.791147423E1
3.693727957E1,4.687539577E0,1.864008784E0,1.766262054E1
3.695710139E1,5.036891460E0,1.279561877E0,1.431565952E1
3.697692322E1,3.672384501E0,1.481157184E0,1.067677498E1
3.699693764E1,2.743371248E0,1.543370605E0,8.564510345E0
3.701656717E1,2.149353027E0,1.217348576E0,7.569096088E0
3.703638900E1,1.756929994E0,9.445667267E-1,6.630511761E0
3.705621082E1,1.445264935E0,6.861419082E-1,5.596213818E0
3.707603264E1,1.215553880E0,9.158528447E-1,4.681557655E0
3.709604697E1,1.378265858E0,1.801795483E0,4.097110748E0
3.711567650E1,2.067996979E0,1.983649969E0,4.216751575E0
3.713549837E1,2.264208317E0,2.160718918E0,4.485345840E0
3.715532014E1,2.752942562E0,2.994019270E0,3.575475216E0
3.717514197E1,2.939582586E0,2.577668190E0,2.450250387E0
3.719515634E1,2.997010469E0,2.984447956E0,3.287738323E0
3.721478587E1,2.657229662E0,3.276372433E0,4.710271358E0
3.723460764E1,2.072782516E0,2.793022156E0,6.506084919E0
3.725442947E1,2.053640127E0,2.117648125E0,8.502297401E0
3.727425129E1,2.436491728E0,1.849651933E0,8.833105087E0
3.729426561E1,2.762513638E0,2.189432621E0,9.306883812E0
3.731402561E1,2.925225735E0,3.305086374E0,1.016889763E1
3.733378561E1,2.517847538E0,4.655834675E0,1.153340530E1
3.735353775E1,2.901297569E0,4.483551502E0,1.388973713E1
3.737335973E1,3.763311863E0,3.430111170E0,1.605404472E1
3.739337447E1,4.447659016E0,3.128017426E0,1.688196182E1
3.741313447E1,4.490729809E0,2.927020311E0,1.469372559E1
3.743301842E1,3.978665829E0,3.769891977E0,1.195514011E1
3.745264801E1,4.356731892E0,4.100101471E0,1.056132126E1
3.747246983E1,4.495515347E0,3.937389612E0,1.024546814E1
3.749225322E1,4.261018753E0,3.492324591E0,9.402596474E0
3.751211342E1,3.758526087E0,3.166302681E0,7.727022648E0
3.753212785E1,3.255435228E0,3.065804005E0,5.538786411E0
3.755175744E1,2.469991207E0,3.247658491E0,3.647259951E0
3.757157926E1,1.263410330E0,3.262015581E0,2.852244616E0
3.759140103E1,4.875376225E-1,2.845664263E0,3.805186272E0
3.761122285E1,1.167697430E0,2.539382935E0,6.113063812E0
3.763123723E1,3.662813187E0,1.830509305E0,7.276573658E0
3.765086671E1,6.741179466E0,1.686939955E0,5.888138294E0
3.767068858E1,7.435696602E0,2.898306370E0,2.421536446E0
3.769051040E1,6.037689686E0,4.947759151E0,9.415757060E-1
3.771033217E1,6.363113403E0,4.904688358E0,2.723032236E0
3.773034655E1,7.579265594E0,3.765106440E0,5.840281963E0
3.774997608E1,8.364709854E0,5.076971531E0,1.281236839E1
3.776979790E1,9.762716293E0,4.047459602E0,1.889312935E1
3.778961967E1,8.963513374E0,3.626322746E0,1.621197128E1
3.780944150E1,7.579265594E0,5.081757069E0,9.139386177E0
3.782945587E1,6.789634228E0,5.335396290E0,6.117849350E0
3.784921587E1,4.213162422E0,4.593621254E0,6.597012043E0
3.786890665E1,2.326421738E0,3.769891977E0,6.908079147E0
3.788872853E1,1.229910851E0,3.233301640E0,5.945566177E0
3.790855046E1,2.338984162E-1,3.204587698E0,4.403391838E0
3.792856494E1,5.694918036E-1,3.309871912E0,3.369692564E0
3.794819452E1,1.186840057E0,3.204587698E0,4.049253941E0
3.796801629E1,1.570289850E0,2.625524759E0,6.563512325E0
3.798783816E1,2.048854351E0,1.734796405E0,1.006361389E1
3.800765999E1,2.584846735E0,1.078564763E0,1.194556904E1
3.802767436E1,3.475574970E0,1.466800332E0,1.149990559E1
3.804730394E1,3.470789194E0,2.122433662E0,8.962317467E0
3.806712577E1,3.298506021E0,2.012363911E0,6.156134605E0
3.808694759E1,4.581656933E0,4.037888348E-1,7.880163193E0
3.810676941E1,5.113461971E0,7.052844763E-1,1.454058456E1
3.812678374E1,6.497111797E0,8.153542876E-1,1.845285034E1
3.814641327E1,7.354340553E0,9.876375198E-1,1.477029610E1
3.816623514E1,5.970690727E0,2.472383976E0,1.061874866E1
3.818605691E1,5.424529076E0,3.492324591E0,9.757332802E0
3.820587874E1,7.306483746E0,3.449253798E0,9.144171715E0
3.822589311E1,8.580063820E0,3.487539053E0,7.597810268E0
3.824552264E1,7.741977692E0,3.994817495E0,5.289334297E0
3.826553691E1,6.396613121E0,4.320241451E0,2.919243574E0
3.828516644E1,5.051248550E0,4.593621254E0,1.415952802E0
3.830498822E1,3.715455294E0,4.741976261E0,1.679163337E0
3.832492546E1,2.705085993E0,4.521836758E0,3.393620729E0
3.834463197E1,1.919641972E0,4.305884361E0,4.978267670E0
3.836464624E1,1.081555843E0,4.157529354E0,5.447260857E0
3.838440624E1,3.631108403E-1,4.023531437E0,5.069194794E0
3.840405842E1,8.075776696E-2,3.923032761E0,5.868995667E0
3.842391874E1,5.934200287E-1,2.941377163E0,8.411369324E0
3.844374066E1,2.570489645E0,1.274776220E0,1.137069321E1
3.846375520E1,4.500301361E0,3.511467278E-1,1.276929760E1
3.848338467E1,4.476373196E0,1.581655741E0,1.096391296E1
3.850339910E1,4.576871395E0,2.989233732E0,9.853045464E0
3.852302863E1,6.894918442E0,1.179063320E0,1.348714447E1
3.854281202E1,7.182057381E0,1.390229940E0,1.986521339E1
3.856286478E1,7.143772125E0,1.064207911E0,2.114896202E1
3.858249426E1,6.099903107E0,1.485942841E0,1.586261940E1
3.860227764E1,4.629513741E0,1.897508383E0,1.080598736E1
3.862213785E1,4.304089546E0,1.040279627E0,9.062815666E0
3.864195967E1,4.021736622E0,4.468596280E-1,9.053244591E0
3.866197405E1,3.265006542E0,4.229314029E-1,8.210372925E0
3.868173405E1,2.676372051E0,3.559323549E-1,6.146563053E0
3.870161796E1,2.690729141E0,7.244270444E-1,4.130609989E0
3.872124754E1,3.768097401E0,2.289931297E0,2.239083767E0
3.874103082E1,6.133402824E0,3.836891174E0,1.942373753E0
3.876108342E1,6.535397053E0,2.950948477E0,5.274977684E0
3.878071301E1,3.537788391E0,1.753939033E0,9.872187614E0
3.880053473E1,6.460621357E-1,1.993221283E0,1.180199909E1
3.882035655E1,-2.159522474E-1,2.529811859E0,1.001575756E1
3.884013994E1,5.742774606E-1,2.596810818E0,6.798008919E0
3.886019264E1,1.091127157E0,1.883151412E0,5.255835056E0
3.887982223E1,3.583251834E-1,1.078564763E0,6.433701992E0
3.889964400E1,1.812563092E-1,8.440681696E-1,8.531010628E0
3.891946582E1,2.673979402E-1,1.998006940E0,8.172087669E0
3.893928764E1,5.694918036E-1,2.965305567E0,1.032682419E1
3.895930202E1,2.618944407E0,7.962117195E-1,1.775833321E1
3.897893155E1,3.188436270E0,-4.725824594E-1,2.254697037E1
3.899875337E1,2.834298372E0,-9.930214286E-2,1.919043732E1
3.901857514E1,2.772084951E0,1.806581140E0,1.381795216E1
3.903839697E1,3.489931822E0,2.726023197E0,1.127498055E1
3.905841134E1,4.351946354E0,2.285145521E0,1.008275604E1
3.907817134E1,6.205187321E0,2.170290232E0,8.699107170E0
3.909786207E1,7.607979774E0,2.778665304E0,6.630511761E0
3.911764561E1,6.391827583E0,3.592823267E0,4.054039955E0
3.913750587E1,4.960321426E0,3.678964853E0,2.579462767E0
3.915752040E1,3.916452408E0,3.242872953E0,2.550748825E0
3.917714994E1,3.188436270E0,2.663809776E0,3.120240688E0
3.919716436E1,2.815155745E0,2.620738983E0,3.335594654E0
3.921692436E1,1.699502230E0,2.572882652E0,2.904886723E0
3.923657650E1,-3.164508045E-1,1.983649969E0,2.627319336E0
3.925639837E1,-2.385046005E0,1.514656782E0,2.627319336E0
3.927625874E1,-2.562114954E0,1.409372568E0,3.704687595E0
3.929627337E1,-1.010967612E0,2.084148407E0,7.822735310E0
3.931590290E1,7.417750359E-1,4.205385685E0,1.139462185E1
3.933572478E1,1.804786444E0,5.752345562E0,1.175414276E1
3.935554665E1,4.088735580E0,5.718846321E0,1.726541138E1
3.937536848E1,7.809575081E0,4.665405750E0,2.489791870E1
3.939538290E1,7.948358536E0,4.564907551E0,2.210668945E1
3.941501249E1,4.725824833E0,4.789832592E0,1.410987663E1
3.943483431E1,2.738585472E0,4.339384079E0,9.704689980E0
3.945461770E1,2.714657307E0,3.932604074E0,8.248658180E0
3.947447796E1,3.360719442E0,3.745963812E0,6.869793892E0
3.949449233E1,3.978665829E0,3.425325632E0,5.562714577E0
3.951412191E1,4.716253281E0,3.242872953E0,4.648057938E0
3.953394374E1,3.720241070E0,4.052245140E0,2.847458839E0
3.955376551E1,2.178066730E0,4.348955154E0,1.430309772E0
3.957358733E1,2.029711723E0,3.597608805E0,2.751745939E0
3.959360171E1,2.460419893E0,3.285943747E0,4.925625324E0
3.961323124E1,4.074378967E0,3.242872953E0,5.241477966E0
3.963305311E1,5.424529076E0,3.497110367E0,4.255036831E0
3.965287494E1,4.783252239E0,4.737190723E0,3.086741209E0
3.967269671E1,2.618944407E0,6.872784615E0,5.979065418E0
3.969271108E1,1.521835208E0,8.404789925E0,1.227099228E1
3.971234061E1,5.807978630E0,6.657430649E0,1.547438431E1
3.973216244E1,8.383852005E0,6.072983742E0,1.627418518E1
3.975198426E1,6.190830231E0,4.890331268E0,1.560359669E1
3.977180608E1,1.986641049E0,4.186243057E0,1.181157112E1
3.979182046E1,-6.711867452E-1,4.238885403E0,6.831508636E0
3.981144994E1,-7.190431952E-1,3.564109325E0,3.427120209E0
3.983146426E1,3.056831062E-1,3.166302681E0,2.267797709E0
3.985109379E1,1.296909928E0,3.233301640E0,2.272583246E0
3.987087717E1,2.230708838E0,2.931805849E0,3.172882795E0
3.989092983E1,2.541775942E0,2.539382935E0,2.565105915E0
3.991055941E1,1.804786444E0,2.831307411E0,-1.980060786E-1
3.993038118E1,1.234696507E0,2.592025042E0,-2.539382935E0
3.995020301E1,1.138983607E0,2.821736097E0,-2.553740025E0
3.997002483E1,3.336791277E0,3.271586657E0,3.771686792E0
3.999003915E1,5.702096462E0,3.856033802E0,1.356371498E1
4.000966868E1,3.672384501E0,6.235695839E0,1.638903999E1
4.002949046E1,3.446861029E0,7.370491982E0,1.323829174E1
4.004931228E1,6.698108673E0,5.943771362E0,9.800403595E0
4.006913415E1,6.080760479E0,6.705287457E0,1.143290615E1
4.008914848E1,7.838288784E0,4.507479668E0,1.819442558E1
4.010877801E1,6.688537598E0,2.592025042E0,1.814178276E1
4.012879233E1,1.847857237E0,2.673381090E0,1.114576817E1
4.014842186E1,-1.288534999E0,3.022733212E0,5.121836662E0
4.016824363E1,-9.439685345E-1,3.611965895E0,3.349951744E0
4.018802707E1,5.742774606E-1,3.698107481E0,5.308476925E0
4.020788723E1,1.142572835E-1,2.898306370E0,8.052446365E0
4.022790155E1,2.769692242E-1,3.032304525E0,9.589237213E0
4.024753108E1,1.205982566E0,3.631108284E0,9.958329201E0
4.026754540E1,3.217149973E0,3.908675671E0,1.098305607E1
4.028717494E1,5.194818020E0,4.320241451E0,9.709476471E0
4.030699671E1,5.697310925E0,4.775475979E0,8.608179092E0
4.032701103E1,3.054438114E0,7.284350395E0,9.555737495E0
4.034664061E1,6.133402824E0,3.578466177E0,1.233799171E1
4.036646228E1,7.071987152E0,2.405385017E0,1.377966785E1
4.038628415E1,2.791227579E0,3.923032761E0,1.085384369E1
4.040610598E1,2.015354872E0,3.271586657E0,8.382656097E0
4.042612035E1,2.393420935E0,1.730010748E0,5.974279881E0
4.044574983E1,3.391826153E-1,3.209373474E0,9.555737495E0
4.046576410E1,-4.695914388E-1,3.961317778E0,1.353021526E1
4.048539369E1,6.077769399E-1,3.333800077E0,1.152383423E1
4.050521546E1,1.043270707E0,4.104887009E0,8.047660828E0
4.052522973E1,1.354337573E0,4.396811485E0,5.341976643E0
4.054485931E1,1.900499344E0,3.856033802E0,3.666402578E0
4.056468108E1,1.666002750E0,3.908675671E0,3.177668571E0
4.058450280E1,1.742573142E0,3.856033802E0,3.786043644E0
4.060432467E1,3.518645763E0,3.420539856E0,6.644868374E0
4.062433905E1,4.050450325E0,4.028316975E0,7.104290485E0
4.064409905E1,3.439682424E-1,5.828916073E0,9.570094109E0
4.066398290E1,-1.274178028E0,4.713262558E0,1.168654537E1
4.068361249E1,2.877369165E0,2.759522676E0,1.208913803E1
4.070343421E1,7.454838753E0,3.789034605E0,1.342493153E1
4.072344848E1,5.999404430E0,5.661418438E0,1.428694534E1
4.074320848E1,2.321636200E0,5.474778175E0,1.014018440E1
4.076289926E1,-7.142575383E-1,5.737988472E0,4.432703972E0
4.078268275E1,2.422134638E0,5.862415314E0,3.838685751E0
4.080250457E1,5.319244862E0,6.163911343E0,1.272622681E1
4.082255744E1,3.964308977E0,5.560919762E0,1.863470459E1
4.084231744E1,4.955535889E0,3.985246181E0,1.487617874E1
4.086220145E1,4.227519512E0,2.860021353E0,1.030768204E1
4.088183098E1,-4.845465720E-2,4.037888050E0,7.046862602E0
4.090165280E1,-2.691925526E0,5.038686275E0,4.423132420E0
4.092166712E1,-2.639283419E0,4.785047054E0,3.287738323E0
4.094142712E1,2.434697002E-1,3.808177233E0,4.686343193E0
4.096118712E1,3.631108403E-1,3.899104595E0,7.295716286E0
4.098093915E1,-2.452044964E0,5.445466042E0,8.464012146E0
4.100076124E1,-1.633101404E-1,5.373681545E0,8.646464348E0
4.102077587E1,3.274577856E0,4.262813568E0,7.439285755E0
4.104040540E1,2.977867842E0,4.584050179E0,6.208776474E0
4.106041988E1,1.344766378E0,4.674977303E0,4.868197441E0
4.108004947E1,-4.887340367E-1,4.842474937E0,4.384249210E0
4.109987129E1,-2.685943544E-1,4.612763882E0,5.988636971E0
4.111965473E1,8.422735929E-1,4.665405750E0,7.463213921E0
4.113951499E1,1.545763373E0,5.110470772E0,8.248658180E0
4.115952941E1,9.188438654E-1,5.742774487E0,8.162516594E0
4.117915900E1,3.296113312E-1,5.273182869E0,7.808378696E0
4.119898077E1,7.896314859E-1,4.195814610E0,7.267002583E0
4.121880264E1,5.264210105E-1,5.014758110E0,6.530013084E0
4.123862441E1,-3.203989506E0,6.614359856E0,5.164907455E0
4.125863879E1,-1.643270969E0,6.714858532E0,1.487139320E1
4.127826832E1,4.396811724E-1,7.255636692E0,1.648953819E1
4.134773421E1,-5.129015446E0,5.148756027E0,7.851449490E0
4.136736369E1,-3.132204771E0,4.646263599E0,1.232363510E1
4.138718536E1,-1.369890928E0,3.994817495E0,1.222792149E1
4.140719953E1,-1.786840320E0,4.794618607E0,1.128455162E1
4.142682895E1,-4.870590687E0,5.043471813E0,1.106441212E1
4.144665062E1,-6.598806858E0,4.497908592E0,1.165304661E1
4.146647229E1,-3.146561861E0,3.401397467E0,1.147119141E1
4.148629406E1,4.636093974E-1,2.903092146E0,8.828319550E0
4.150630828E1,-7.334001660E-1,2.773879766E0,7.233502865E0
4.152606828E1,-1.365105271E0,2.697309256E0,6.936792850E0
4.154572026E1,-3.788436413E0,1.519442320E0,4.384249210E0
4.156558046E1,-3.457628727E0,1.040279627E0,5.169693470E0
4.158540234E1,-2.140978098E0,7.531409264E-1,5.203192711E0
4.160541682E1,-2.610569477E0,-8.015955985E-2,5.734997749E0
4.162504624E1,-1.753340840E0,-9.930214286E-2,6.304489613E0
4.164486796E1,2.417349100E0,7.004988194E-1,1.022632599E1
4.166468968E1,7.631907940E0,-2.189432681E-1,1.435873032E1
4.168451145E1,4.299304008E0,-4.375276089E0,7.827520847E0
4.170452578E1,-1.518245935E0,-1.774876237E0,5.577071190E0
4.172415526E1,-2.571686029E0,9.684949517E-1,5.174479008E0
4.174393854E1,1.429711580E-1,-1.588235974E0,9.421739578E0
4.176379864E1,-8.434699774E-1,-1.219741344E0,1.083948612E1
4.178362036E1,7.944171429E-1,-9.517452121E-1,9.215956688E0
4.180363468E1,5.884549141E0,-4.821537733E-1,3.704687595E0
4.182339468E1,8.666205406E0,8.105686903E-1,1.130608693E-1
4.184308515E1,5.989833355E0,-5.682953596E-1,3.302095175E0
4.186290703E1,4.452444553E0,-1.636092424E0,8.263014793E0
4.188272885E1,4.965106964E0,-3.130410194E0,7.660023689E0
4.190274328E1,3.087937593E0,-3.599403381E0,5.490929604E0
4.192250328E1,8.757730722E-1,-3.369692564E0,4.130609989E0
4.194238703E1,4.875376225E-1,-3.130410194E0,2.431107759E0
4.196201645E1,9.714859724E-1,-3.264408350E0,1.468594909E0
4.198183817E1,1.134197950E0,-3.015554667E0,2.957528830E0
4.200177526E1,4.855037212E0,-2.991626501E0,7.707880020E0
4.202148171E1,5.434100151E0,-3.733401537E0,8.632107735E0
4.204149593E1,3.604787350E0,-4.815555573E0,6.452844620E0
