"Time (s)","Acceleration x (m/s^2)","Acceleration y (m/s^2)","Acceleration z (m/s^2)"
3.389642500E-2,-1.627717614E0,2.783450842E0,7.715955734E0
5.387137300E-2,-1.927119493E0,3.157329559E0,8.010572433E0
7.380595600E-2,-1.409671664E0,3.463909864E0,8.887242317E0
9.378095600E-2,-6.574280262E-1,3.487838030E0,9.589237213E0
1.137591330E-1,-3.245265782E-1,3.495016575E0,9.900602341E0
1.337341330E-1,-3.963112533E-1,3.497409344E0,1.017607689E1
1.537045500E-1,-5.593222976E-1,3.425624609E0,1.039651489E1
1.736795500E-1,-5.497509837E-1,3.468695641E0,1.027178955E1
1.936607480E-1,-4.803591371E-1,3.542873144E0,9.536594391E0
2.136357480E-1,-5.688936114E-1,3.408575773E0,8.923134804E0
2.336182480E-1,-7.028916478E-1,3.157329559E0,8.875278473E0
2.535932480E-1,-7.582256794E-1,3.087638617E0,8.913563728E0
2.735721540E-1,-7.148557901E-1,3.233899832E0,8.666803360E0
2.935471540E-1,-6.789634228E-1,3.260220766E0,8.146963120E0
3.135305920E-1,-7.339983582E-1,3.078067303E0,7.876275063E0
3.335055920E-1,-8.682954907E-1,2.912962437E0,8.192725182E0
3.534757480E-1,-1.249053478E0,3.174079180E0,9.150752068E0
3.734507480E-1,-1.416850090E0,3.320041418E0,9.509974480E0
3.934353830E-1,-1.376172066E0,2.429013968E0,9.155537605E0
4.134103830E-1,-1.742573142E0,1.748555183E0,1.037976551E1
4.333805920E-1,-1.524527073E0,1.494616866E0,1.200628662E1
4.533555920E-1,-2.168495506E-1,6.825526357E-1,1.251894855E1
4.733526750E-1,1.867298961E0,-4.504488707E-1,1.150558853E1
4.933276750E-1,1.711765528E0,-1.020538807E0,1.049222851E1
5.133046020E-1,4.995017350E-1,-1.236191988E0,1.002263641E1
5.332796020E-1,3.822534084E-1,-1.286441326E0,9.500403404E0
5.532511130E-1,-1.196411322E-3,-1.236191988E0,9.196215630E0
5.732261130E-1,-4.489533603E-1,-1.166800141E0,9.062217712E0
5.932077270E-1,-1.599003673E0,-9.607182741E-1,9.074181557E0
6.131827270E-1,-3.218346357E0,7.666005492E-1,3.605086327E0
6.331579350E-1,-3.874577999E0,1.707877159E0,5.387440205E0
6.531329350E-1,-1.922333837E0,7.666005492E-1,8.798707962E0
6.731119980E-1,-9.233304262E-1,2.392822644E-3,7.346862793E0
6.930869980E-1,-1.357029557E0,9.077770710E-1,6.115755558E0
7.130561130E-1,-7.510471940E-1,2.299502611E0,5.617450237E0
7.330311130E-1,2.742772996E-1,3.075674295E0,6.046363831E0
7.530041330E-1,1.211366430E-1,2.261217356E0,6.324230194E0
7.729791330E-1,-6.861419082E-1,8.264211416E-1,6.736094952E0
7.929606960E-1,-1.220339537E0,-2.611167729E-1,6.755237579E0
8.129356960E-1,-1.383350611E0,-5.078766346E-1,6.915855408E0
8.329123630E-1,-1.510170221E0,1.316052526E-1,8.599804878E0
8.528873630E-1,-2.751147747E0,9.092725813E-2,1.308425331E1
8.728708000E-1,-2.935694218E0,-2.204387933E-1,1.702971840E1
8.928458000E-1,-1.582253933E0,1.130608678E0,1.682602882E1
9.128246540E-1,-6.933203340E-1,2.776272535E0,1.120140076E1
9.327996540E-1,9.571290612E-1,3.164507866E0,6.046363831E0
9.527775190E-1,9.284151793E-1,1.736590981E0,9.110074043E0
9.727525190E-1,-7.004988194E-1,-1.133001566E0,1.371894932E1
9.927340810E-1,-2.106880426E0,-2.467299223E0,1.509392548E1
1.012709081E0,-3.577569008E0,-1.966900229E0,1.249980640E1
1.032681113E0,-4.641178608E0,-9.296116233E-1,8.120641708E0
1.052656269E0,-5.120341301E0,-2.563311160E-1,7.085746288E0
1.072632935E0,-4.214657784E0,-1.295115203E-1,8.343473434E0
1.092608092E0,-2.166700840E0,7.351947427E-1,1.060020447E1
1.112575592E0,-3.053839803E-1,1.949851394E0,1.131625652E1
1.132550748E0,1.378864050E-1,2.510370016E0,9.637093544E0
1.152535331E0,-1.048056364E0,2.177468538E0,9.107681274E0
1.172510488E0,-1.855334878E0,6.586244106E-1,1.072941685E1
1.192500488E0,-2.554637194E0,-1.130608678E0,1.088764191E1
1.212475644E0,-3.544069529E0,-8.985049129E-1,1.013779163E1
1.232463300E0,-3.661317825E0,1.473081470E0,9.991530418E0
1.252438456E0,-1.735394597E0,3.717848301E0,6.932605267E0
1.272385175E0,1.905284971E-1,3.255435228E0,5.569593906E0
1.292360331E0,-8.730811477E-1,5.509474277E-1,1.318235874E1
1.312341217E0,-2.271985054E0,-2.457727909E0,1.743440437E1
1.332316373E0,-3.795614958E0,-2.786142826E0,1.694567108E1
1.352294290E0,-3.984946966E0,-1.248156071E0,1.253569889E1
1.372269446E0,-1.709073544E0,9.556335211E-1,8.250153542E0
1.392239133E0,6.409773827E-1,2.970390320E0,6.570990086E0
1.412214290E0,1.170389414E0,3.691527128E0,6.724130630E0
1.432195644E0,6.026921868E-1,2.836092949E0,6.788736820E0
1.452170800E0,-1.280160099E-1,1.717448473E0,6.740880489E0
1.472164654E0,-5.665007830E-1,1.180858016E0,6.958926678E0
1.492139810E0,-1.316351533E0,7.905287743E-1,6.731309414E0
1.512122206E0,-2.657827854E0,4.719842672E-1,6.403193474E0
1.532097363E0,-3.786043644E0,5.024927482E-2,5.425725460E0
1.552066217E0,-5.247160912E0,-1.821536273E-1,4.989932537E0
1.572041373E0,-6.651149750E0,-2.060818523E-1,6.546762943E0
1.592021425E0,-5.807679653E0,-3.786641955E-1,8.501698494E0
1.611996581E0,-4.109373569E0,1.027717352E0,1.151994514E1
1.631965435E0,-9.999007583E-1,2.484049082E0,1.117747307E1
1.651940592E0,4.325026870E-1,1.176072359E0,1.424118328E1
1.671909498E0,1.179960608E0,-6.613163352E-1,2.099402809E1
1.691884654E0,1.163210869E0,-1.310369492E0,2.042154503E1
1.711870331E0,2.264208496E-1,-7.163512707E-1,1.586531162E1
1.731845435E0,-4.585246444E-1,2.898306549E-1,1.095942688E1
1.751827154E0,-1.502991676E0,9.891330600E-1,8.290831566E0
1.771802258E0,-2.250449657E0,9.221340418E-1,7.552944660E0
1.791774238E0,-1.809871197E0,1.089930773E0,7.787740231E0
1.811749342E0,-1.014556766E0,2.064706802E0,8.058428764E0
1.831716060E0,1.794617064E-2,3.279363394E0,7.986643791E0
1.851691165E0,6.385845542E-1,4.323830605E0,6.614060879E0
1.871670800E0,-5.425725579E-1,3.955036640E0,6.036792278E0
1.891645904E0,-1.584646821E0,2.299502611E0,6.829414845E0
1.911681946E0,-2.015654087E0,1.542772412E0,7.641777992E0
1.931657050E0,-2.743969440E0,2.074577332E0,9.052646637E0
1.951567363E0,-4.025625229E0,2.692523718E0,1.124686432E1
1.971542467E0,-6.030511379E0,1.470688581E0,1.298584843E1
1.991504654E0,-7.772187233E0,-8.335995674E-1,1.586770439E1
2.011479810E0,-7.867899895E0,-1.901994944E0,2.014607048E1
2.031468404E0,-5.074877739E0,-3.355933726E-1,1.804756546E1
2.051443560E0,-3.005983531E-1,2.635095835E0,6.348158360E0
2.071416529E0,-1.127019525E0,2.132004976E0,6.745666027E0
2.091391738E0,-4.193122387E0,-2.551347256E0,1.229851055E1
2.111377779E0,-7.273881912E0,-5.042574406E0,1.595653820E1
2.131352988E0,-6.739684105E0,-3.693919897E0,1.518275833E1
2.151303040E0,-3.455534935E0,-1.003789067E0,1.145294666E1
2.171278300E0,-3.125624657E-1,2.024028778E0,9.653842926E0
2.191245644E0,1.074377418E0,3.782454491E0,7.929215908E0
2.211220904E0,1.081555843E0,3.986143351E0,6.633203506E0
2.231208977E0,1.091725305E-1,2.965604544E0,4.886742115E0
2.251184238E0,-1.045663476E0,1.820638895E0,3.499802113E0
2.271160644E0,-1.198804140E0,1.240678549E0,2.429013968E0
2.291135904E0,-1.088734269E0,1.020538807E0,1.794317842E0
2.311105956E0,-1.244267821E0,9.652048349E-1,1.911566138E0
2.331081217E0,-1.599003673E0,9.436694384E-1,2.244467735E0
2.351057310E0,-1.744965911E0,9.197412133E-1,1.971386790E0
2.371032571E0,-1.495813251E0,9.628120065E-1,1.434796333E0
2.391020227E0,-1.903191328E0,6.825526357E-1,2.469691992E0
2.410995488E0,-3.553640842E0,-1.103689447E-1,5.694020748E0
2.430957779E0,-5.355136871E0,-5.222335458E-1,6.978068829E0
2.450933040E0,-5.752644539E0,8.670991063E-1,6.575775623E0
2.470909133E0,-4.083052635E0,3.676871061E0,1.032712364E1
2.490884394E0,-1.304387450E0,4.280759811E0,1.723310852E1
2.510860019E0,5.736792088E-1,2.507977247E0,2.066591263E1
2.530835279E0,6.290132403E-1,1.437189102E0,2.143251228E1
2.550807102E0,-1.323530078E0,4.743770957E-1,1.843101501E1
2.570782363E0,-2.863610506E0,-1.989033818E-1,1.432253933E1
2.590757206E0,-2.614757061E0,4.094717801E-1,1.120140076E1
2.610732467E0,-1.522134304E0,2.035992861E0,8.372187614E0
2.630705748E0,-9.879366755E-1,3.751347780E0,5.595914841E0
2.650681008E0,-1.984547257E0,4.659124851E0,3.483052492E0
2.670655748E0,-3.340380430E0,4.115355968E0,4.002892971E0
2.690631008E0,-3.098406315E0,2.297109842E0,5.456831932E0
2.710608352E0,-1.922333837E0,1.650449395E0,8.070392609E0
2.730583613E0,-1.229910851E0,1.846959949E0,1.007079220E1
2.750558508E0,-1.416850090E0,1.626521230E0,1.087567806E1
2.770533769E0,-1.919941068E0,1.089930773E0,9.788140297E0
2.790524133E0,-2.236092806E0,2.014457464E0,8.731708527E0
2.810499394E0,4.564309120E-1,3.267399311E0,8.571090698E0
2.830458196E0,3.326322556E0,1.137787223E0,1.606421471E1
2.850433456E0,3.160918713E0,-2.038684845E0,2.596721077E1
2.870411946E0,1.618146300E-1,-3.787240028E0,2.467119789E1
2.890387206E0,-2.875574589E0,-2.776571512E0,1.577438450E1
2.910361529E0,-2.988336325E0,4.546362907E-2,7.411767960E0
2.930336790E0,-1.079162955E0,3.164507866E0,3.971786499E0
2.950307883E0,-1.076770201E-2,5.095216751E0,3.617050648E0
2.970283144E0,5.497509837E-1,4.814957142E0,4.048357010E0
2.990262727E0,1.615753531E0,3.952643871E0,6.470192432E0
3.010237988E0,1.548754454E0,2.900998354E0,8.551948547E0
3.030210696E0,-2.512463741E-2,1.331904888E0,8.659625053E0
3.050185956E0,-1.064806104E0,2.970091105E-1,8.556734085E0
3.070167675E0,-8.802596331E-1,1.866401732E-1,7.507481098E0
3.090142935E0,-1.601396561E0,2.898306549E-1,5.627021313E0
3.110119185E0,-2.918944597E0,-8.165507019E-2,5.753840923E0
3.130094394E0,-3.110370398E0,-4.935196638E-1,8.748458862E0
3.150070123E0,-1.270588875E0,6.681957245E-1,1.231047440E1
3.170045331E0,1.429113269E0,4.252045631E0,1.391545963E1
3.190032988E0,2.566900492E0,6.534798622E0,8.604590416E0
3.210008196E0,1.632503271E0,5.092823982E0,7.080960274E0
3.230003404E0,8.515457511E-1,2.047957182E0,1.583420467E1
3.249978613E0,3.708875179E-2,-7.713862062E-1,2.076910210E1
3.269930956E0,-1.383350611E0,-1.607378602E0,1.916890144E1
3.289906165E0,-2.097309113E0,-8.359923959E-1,1.388674641E1
3.309880696E0,-2.317448616E0,6.777670383E-1,7.948358536E0
3.329855904E0,-2.173879385E0,2.268395901E0,5.246263504E0
3.349834446E0,-2.046760559E0,3.226721287E0,4.966004372E0
3.369809654E0,-1.795215130E0,3.394218922E0,5.040181637E0
3.389795383E0,-1.172483087E0,3.027817965E0,5.509773254E0
3.409770592E0,-8.204390407E-1,2.460120678E0,6.695416927E0
3.429755644E0,-1.237089276E0,1.722234130E0,7.787740231E0
3.449730852E0,-1.761715651E0,8.359923959E-1,7.512266636E0
3.469686998E0,-2.181057930E0,2.682952285E-1,6.704988003E0
3.489662206E0,-2.348854542E0,1.244267747E-1,7.076174736E0
3.509633977E0,-2.216950178E0,1.451546073E0,8.573483467E0
3.529609185E0,-1.502991676E0,4.029214382E0,1.142423248E1
3.549590696E0,1.203888893E0,4.273581028E0,1.128754234E1
3.569565904E0,1.153639674E0,6.993024349E-1,1.554676723E1
3.589517519E0,-3.604189157E-1,-2.565704107E0,2.101317024E1
3.609492727E0,-2.288734913E0,-3.969393730E0,2.201217461E1
3.629489446E0,-2.990729094E0,-2.675773859E0,1.720918083E1
3.649464654E0,-1.958226204E0,4.067798331E-2,9.989137650E0
3.669446217E0,-6.741777658E-1,2.852842808E0,4.479662895E0
3.689421425E0,-1.431207061E0,4.632803917E0,9.269196987E-1
3.709394967E0,-1.991725802E0,4.783850670E0,1.796710730E0
3.729370175E0,-1.138983607E0,3.581158161E0,3.971786499E0
3.749348092E0,-1.036092162E0,2.409871578E0,5.974279881E0
3.769323300E0,-1.493420482E0,1.983350873E0,5.662913799E0
3.789317831E0,-2.118844509E0,1.691127419E0,5.291727066E0
3.809293040E0,-3.086441994E0,7.498508096E-1,6.280860424E0
3.829250175E0,-3.163311481E0,-1.390828192E-1,8.669196129E0
3.849225383E0,-2.382354021E0,1.214357495E0,1.068395329E1
3.869203404E0,-8.850452900E-1,2.836092949E0,8.858528137E0
3.889178613E0,-7.100701332E-1,1.887637973E0,1.212832069E1
3.909150227E0,-3.364906907E-1,-5.030909777E-1,1.886680794E1
3.929125435E0,-6.239284873E-1,-1.832603097E0,2.038804626E1
3.949109081E0,-1.639681697E0,-1.535593987E0,1.756630898E1
3.969084290E0,-2.065903187E0,-5.742774159E-2,1.076770210E1
3.989053508E0,-2.645863533E0,2.179861546E0,6.007779598E0
4.009028665E0,-2.914158821E0,3.696312666E0,5.361119270E0
4.029010435E0,-2.619542599E0,3.921238184E0,5.916851997E0
4.048985644E0,-1.553540111E0,3.787240028E0,6.297610283E0
4.068965435E0,-8.015955985E-2,3.813561201E0,7.344470024E0
4.088940644E0,5.641079545E-1,3.432803154E0,8.336295128E0
4.108914133E0,2.503490746E-1,2.170290232E0,9.145966530E0
4.128889342E0,-9.903294444E-1,6.083751321E-1,9.416654587E0
4.148871165E0,-2.691327333E0,7.378866673E-1,9.898209572E0
4.168846529E0,-2.813361168E0,2.091326952E0,8.966205597E0
4.188849081E0,-2.164308071E0,1.890030742E0,9.570094109E0
4.208824394E0,-2.152343988E0,-7.331010103E-1,1.567149258E1
4.228776842E0,-2.212164640E0,-2.515454769E0,1.847887230E1
4.248752206E0,-2.846860647E0,-2.323729992E0,1.677577972E1
4.268729550E0,-1.505384564E0,-3.089732230E-1,1.388913918E1
4.288704915E0,9.020941257E-1,1.925923109E0,1.020479012E1
4.308685592E0,1.105484009E0,2.464906454E0,7.318149090E0
4.328660956E0,-4.082753658E-1,2.067099571E0,6.235396862E0
4.348640019E0,-1.440778375E0,2.321038008E0,5.543272972E0
4.368615383E0,-1.100698471E0,3.032603502E0,5.353940487E0
4.388590331E0,-2.814557552E-1,3.382254839E0,5.636592865E0
4.408565644E0,3.469592705E-2,3.123530865E0,7.068996429E0
4.428547883E0,-3.580260873E-1,1.813460469E0,7.004390240E0
4.448523248E0,-1.673181176E0,2.587239444E-1,6.578168392E0
4.468503613E0,-2.873181820E0,-7.737790346E-1,8.010572433E0
4.488478977E0,-2.830111027E0,-3.810569942E-1,9.258728027E0
4.508458144E0,-1.582253933E0,1.195214868E0,9.819247246E0
4.528433508E0,-2.288136631E-1,2.172683001E0,6.417550564E0
4.548412675E0,5.144568533E-2,2.857628345E0,3.725026608E0
4.568388040E0,3.230310604E-2,2.273181438E0,1.095224857E1
4.588395696E0,8.285148442E-2,2.156531364E-1,1.799492264E1
4.608371008E0,-1.146162033E0,-9.942178130E-1,1.832064629E1
4.628318352E0,-2.834896564E0,-7.833502889E-1,1.403270817E1
4.648293717E0,-3.992125511E0,2.730808854E-1,1.049940681E1
4.668270592E0,-4.224528313E0,1.307976723E0,8.791529655E0
4.688245956E0,-3.119941711E0,1.858924150E0,8.724530220E0
4.708226113E0,-1.862513304E0,2.244467735E0,9.239286423E0
4.728201477E0,-1.749751568E0,2.704487801E0,1.052094173E1
4.748180488E0,-8.132606149E-1,3.492623806E0,5.655735493E0
4.768155852E0,-1.160518974E-1,5.919245243E0,-1.438684613E-1
4.788152467E0,-9.305089116E-1,3.942773581E0,7.818847179E0
4.808127779E0,2.814557552E-1,-9.272187948E-1,1.531436443E1
4.828086685E0,-1.565504193E0,-2.778964281E0,1.944198227E1
4.848062050E0,-4.447061062E0,-2.108076811E0,1.922393799E1
4.868041738E0,-3.297309637E0,-6.996015310E-1,1.515643787E1
4.888017102E0,-5.258227587E-1,1.020538807E0,9.929316521E0
4.908000800E0,-1.471585929E-1,2.747558594E0,5.291727066E0
4.927976165E0,-4.106681943E-1,3.406183004E0,3.262613773E0
4.947951738E0,5.401797295E-1,3.209971666E0,3.686741590E0
4.967927102E0,1.141675472E0,3.214757204E0,6.856035233E0
4.987920696E0,5.952146053E-1,2.718844652E0,8.963812828E0
5.007896060E0,-3.987040818E-1,1.468295813E0,8.163712502E0
5.027861217E0,-1.052842021E0,4.549354017E-1,7.121937275E0
5.047836581E0,-1.378564954E0,8.135596663E-2,6.795915604E0
5.067815592E0,-1.038485050E0,8.934201598E-1,8.973383904E0
5.087790956E0,7.534400225E-1,2.881855726E0,1.211635685E1
5.107768560E0,2.291426897E0,4.268795490E0,1.138594723E1
5.127743925E0,2.214856386E0,3.739383698E0,5.310869694E0
5.147721217E0,2.916551590E0,2.357229471E0,7.011568546E0
5.167696581E0,3.841377735E0,1.386939883E0,1.566162205E1
5.187684081E0,1.675873160E0,6.514459848E-1,1.917608070E1
5.207659758E0,-4.923232496E-1,-4.265206456E-1,1.613839149E1
5.227622883E0,-1.582253933E0,-5.270192027E-1,9.802496910E0
5.247598613E0,-2.166700840E0,1.147358418E0,4.869992256E0
5.267576165E0,-1.934298038E0,2.905783892E0,3.665206194E0
5.287551894E0,-1.138983607E0,3.473481178E0,7.809275627E0
5.307522831E0,-2.631506681E0,3.236292601E0,1.362323666E1
5.327498560E0,-4.066302776E0,2.570190668E0,1.465813255E1
5.347481321E0,-3.244667530E0,3.399004459E0,1.403031540E1
5.367456998E0,-1.903191328E0,4.000500202E0,1.266969681E1
5.387430435E0,-1.498206019E0,2.519941330E0,1.102881908E1
5.407406165E0,-1.395314693E0,9.891330600E-1,7.126723289E0
5.427375904E0,-1.357029557E0,2.318645239E0,8.458627701E0
5.447351633E0,-2.063510418E0,3.391826153E0,1.432253933E1
5.467332779E0,-2.765504837E0,2.647060156E0,1.663908958E1
5.487308508E0,-1.888834357E0,2.970390320E0,1.419332695E1
5.507281633E0,-1.064806104E0,3.916452408E0,1.134018517E1
5.527257363E0,-1.419242978E0,4.364508629E0,1.004177952E1
5.547238456E0,-2.758326292E0,3.930809498E0,9.320941925E0
5.567214185E0,-5.982655048E0,3.916452408E0,1.904387712E0
5.587201217E0,-6.068796635E0,3.887738705E0,6.681957245E-1
5.607176894E0,-2.890230656E0,2.606082916E0,1.355862999E1
5.627140800E0,-4.008875370E0,2.474477768E0,9.411869049E0
5.663953023E0,-2.240878344E0,3.399004459E0,6.844070911E0
5.683899377E0,-2.641077995E0,3.643371582E0,6.546762943E0
5.703874325E0,-1.644467354E0,3.607479334E0,7.198507786E0
5.723844846E0,-1.153340459E0,3.605086327E0,7.694420338E0
5.743819794E0,-1.440778375E0,3.803989887E0,7.802097321E0
5.763793388E0,-1.716252089E0,3.827918053E0,7.555337429E0
5.783768336E0,-1.797608018E0,3.648157120E0,7.229614735E0
5.803755106E0,-2.068295956E0,3.310470104E0,7.303792000E0
5.823730054E0,-2.341377020E0,2.922533751E0,7.854739666E0
5.843689221E0,-2.020439625E0,2.773879766E0,8.132605553E0
5.863664169E0,-1.450349569E0,2.836092949E0,8.012965202E0
5.883645315E0,-1.479063511E0,2.666202545E0,7.859525204E0
5.903620263E0,-1.481456280E0,2.472084999E0,7.924430370E0
5.923585054E0,-1.440778375E0,2.409871578E0,8.015357971E0
5.943560002E0,-1.802393675E0,2.424228430E0,8.144570351E0
5.963535106E0,-1.953440547E0,2.100898266E0,8.587840080E0
5.983510054E0,-2.099701881E0,1.020538807E0,9.622735977E0
6.003499742E0,-9.257232547E-1,-3.828516230E-2,1.100728321E1
6.023474690E0,1.038485050E0,-8.599206209E-1,1.188395405E1
6.043436617E0,1.313958764E0,-1.542772412E0,1.156301594E1
6.063411565E0,7.199404836E-1,-1.717747569E0,1.007797050E1
6.083394794E0,-1.543370634E-1,-1.748854280E0,8.254939079E0
6.103369742E0,-5.856433511E-1,-2.247159481E0,6.276074886E0
6.123330054E0,-4.779663086E-1,-1.561915040E0,4.177868366E0
6.143305002E0,-2.660220623E0,-1.039681435E0,4.678267479E0
6.163279273E0,-4.080659866E0,-1.063609719E0,5.658128262E0
6.183254221E0,-1.960619092E0,1.363908947E-1,8.927920341E0
6.203238231E0,1.794617064E-2,1.144965649E0,1.113918781E1
6.223213179E0,-8.494520187E-2,1.825424552E0,8.446663857E0
6.243180367E0,1.637288928E0,4.472185612E0,5.540879726E0
6.263155315E0,4.552644253E0,5.346762180E0,6.496513367E0
6.283130367E0,4.195814610E0,2.606082916E0,1.183131123E1
6.303105315E0,1.675873160E0,-7.187440991E-1,1.623679733E1
6.323077971E0,1.809572130E-1,-1.497308731E0,1.589402485E1
6.343052919E0,1.131805062E0,-4.067798331E-2,1.404706573E1
6.363022554E0,1.335494161E0,1.207179070E0,1.351765347E1
6.382997502E0,1.045663476E0,1.211964726E0,1.274417305E1
6.402968023E0,-7.298108935E-2,1.166501045E0,1.200150108E1
6.422942971E0,-2.814557552E-1,1.569093466E0,9.910174370E0
6.442919586E0,7.247261405E-1,2.932105064E0,6.968497753E0
6.462894534E0,1.498505235E0,3.902095556E0,5.866602898E0
6.482872554E0,1.043270707E0,3.243471146E0,5.365904808E0
6.502847502E0,1.713859290E-1,2.579761982E0,5.670092583E0
6.522815054E0,6.385845542E-1,1.988136530E0,4.115355968E0
6.542790002E0,2.660220623E0,-1.749751568E-1,5.358726501E0
6.562765054E0,4.389932156E0,-3.864109516E0,1.331426334E1
6.582740002E0,4.329812527E0,-5.234299660E0,1.850279999E1
6.602724846E0,2.341675997E0,-3.983750582E0,1.534786320E1
6.622699794E0,-7.220342159E-1,-1.636092424E0,8.676374435E0
6.642664690E0,-4.813760757E0,2.730808854E-1,4.201796532E0
6.662639638E0,-7.944470406E0,1.520937920E0,3.945465326E0
6.682621669E0,-6.507281303E0,2.591726065E0,4.417150497E0
6.702596409E0,-1.790429592E0,3.109174013E0,5.404190063E0
6.722564742E0,1.431506157E0,2.598904610E0,7.998608112E0
6.742539481E0,3.335893869E0,1.219143152E0,1.072941685E1
6.762512554E0,4.928915501E0,-5.246263742E-1,1.271994591E1
6.782487294E0,7.216454029E0,-5.653043389E-1,9.953245163E0
6.802470731E0,8.936594009E0,5.341976285E-1,9.656235695E0
6.822445471E0,1.057268715E1,-4.785645381E-2,1.637558174E1
6.842412138E0,9.439684868E0,-4.193421602E-1,1.952333832E1
6.862386877E0,5.729015827E0,1.018146038E0,1.409522057E1
6.882368492E0,3.695116282E0,2.608475685E0,8.492127419E0
6.902343231E0,3.036491871E0,2.951247692E0,8.949456215E0
6.922315263E0,3.630510092E0,2.333002090E0,1.305553913E1
6.942290002E0,3.817449331E0,8.910273314E-1,1.353470230E1
6.962270992E0,2.495115757E0,6.514459848E-1,9.126823425E0
6.982245731E0,1.337886930E0,1.530509233E0,5.684449196E0
7.002233336E0,1.850549221E0,2.052742720E0,2.867498875E0
7.022208075E0,3.716651678E0,2.591726065E0,2.515155792E0
7.042175679E0,7.755437374E0,1.001097202E0,9.330513000E0
7.062150419E0,9.619147301E0,3.065803945E-1,1.461984730E1
7.082130575E0,7.180561543E0,-6.699903309E-2,1.535025597E1
7.102105315E0,4.253242016E0,3.951148391E-1,1.127557850E1
7.122079273E0,2.327319145E0,2.699702263E0,9.912567139E0
7.142054013E0,-7.776673883E-2,2.706880569E0,1.243729401E1
7.162034013E0,-1.687538147E0,1.890030742E0,1.282552910E1
7.182008752E0,-1.150947690E0,1.952244163E0,1.072463131E1
7.202014586E0,5.832505226E-1,2.055135489E0,8.044071198E0
7.221989325E0,1.031306505E0,1.774876237E0,5.078466892E0
7.241934429E0,9.116654396E-1,1.303191066E0,3.054138899E0
7.261909169E0,1.852941990E0,1.310369492E0,3.054138899E0
7.281891721E0,3.206382275E0,1.547558069E0,4.395615101E0
7.301866461E0,4.341776848E0,1.523330688E0,7.732705593E0
7.321836461E0,5.173282623E0,1.343868971E0,9.814460754E0
7.341811200E0,4.191029072E0,1.755733609E0,7.922037601E0
7.361793388E0,1.706979871E0,9.819545746E-1,9.076574326E0
7.381768127E0,2.790629268E-1,5.503492057E-2,1.068156052E1
7.401775784E0,-3.340978622E-1,2.850449979E-1,1.058076286E1
7.421750523E0,-7.058826834E-2,4.429712892E-1,1.209242821E1
7.441697711E0,4.666004330E-2,4.815555513E-1,1.222433281E1
7.461672450E0,-3.699901998E-1,2.062314034E0,1.041805077E1
7.481658388E0,-1.069591761E0,4.254438877E0,3.693919897E0
7.501633127E0,-1.771286964E0,6.896713257E0,-5.085645199E0
7.521602711E0,1.833500415E-1,3.495016575E0,2.556132793E0
7.541577450E0,4.495216370E0,-3.233301640E-1,1.592034626E1
7.561555367E0,5.235496044E0,-8.120641708E-1,2.545694160E1
7.581530106E0,3.254238844E0,3.137588799E-1,2.370599365E1
7.601534742E0,3.269194067E-1,2.816950560E0,1.395374489E1
7.621509481E0,-2.111665964E0,4.601696968E0,5.471189022E0
7.641463284E0,-2.962015390E0,5.425725460E0,1.521237016E0
7.661438023E0,-2.973979473E0,5.796912193E0,1.451546073E0
7.681416929E0,-3.168097258E0,5.262714386E0,3.962215185E0
7.701391669E0,-2.705684185E0,3.545265913E0,6.182754517E0
7.721363544E0,-1.249053478E0,1.487438321E0,6.978068829E0
7.741338544E0,-3.221337497E-1,-2.635096014E-1,6.551548481E0
7.761313075E0,-6.819544733E-2,1.172483116E-1,5.169394016E0
7.781288023E0,2.641077995E0,1.573879123E0,9.224929810E0
7.801287815E0,7.022336483E0,1.968993902E0,1.306271839E1
7.821262763E0,7.690831184E0,1.473081470E0,1.598764420E1
7.841216096E0,5.146662235E0,1.315155149E0,1.597568035E1
7.861191044E0,2.868695259E0,1.576271892E0,1.323021507E1
7.881172138E0,7.797610760E-1,9.269196987E-1,1.101924706E1
7.901147086E0,-6.143572330E-1,1.004985496E-1,1.162283707E1
7.921120627E0,2.048854381E-1,5.198407173E-1,1.325653648E1
7.941095627E0,2.013560295E0,3.348755360E0,5.823532104E0
7.961073544E0,-3.077768087E-1,5.021039009E0,-1.293619752E0
7.981048492E0,1.146461129E0,4.046861231E-1,1.014736271E1
8.001031773E0,3.630510092E0,-1.942971945E0,2.519582367E1
8.021006721E0,2.507079840E0,-2.587239444E-1,2.542104912E1
8.040977919E0,2.145165443E0,2.476870537E0,1.751336861E1
8.060952867E0,1.179960608E0,3.425624609E0,1.026939678E1
8.080929221E0,-6.406782866E-1,3.454338551E0,5.205286503E0
8.100904169E0,-2.267199516E0,2.874378204E0,2.488834620E0
8.120872919E0,-2.169093609E0,2.371586323E0,2.323729992E0
8.140847919E0,-5.760720372E-1,1.961815476E0,3.573979616E0
8.160822450E0,1.148854017E0,1.837388635E0,4.596911430E0
8.180797398E0,1.563111424E0,1.834995866E0,4.331008911E0
8.200773231E0,1.553540111E0,1.331904888E0,5.835496426E0
8.220748179E0,2.528615236E0,1.432403445E0,9.601201057E0
8.240722659E0,2.964408159E0,2.706880569E0,1.015693378E1
8.260697606E0,2.289033890E0,4.072285175E0,5.653342724E0
8.280675731E0,1.146461129E0,3.890131474E0,4.561018944E0
8.300650679E0,8.539385796E-1,2.009671926E0,9.677771568E0
8.320620523E0,1.718943954E0,9.092725813E-2,1.523540115E1
8.340595523E0,2.535793781E0,-1.677966863E-1,1.753490257E1
8.360570106E0,2.078166485E0,8.814560175E-1,1.371177101E1
8.380545054E0,2.359921336E-1,2.182254314E0,1.179781246E1
8.400535784E0,-1.749751568E0,1.317547917E0,1.238465214E1
8.420510731E0,-1.249053478E0,2.357229471E0,7.548159122E0
8.440473336E0,4.181457460E-1,3.437588930E0,8.130212784E0
8.460448284E0,3.182454109E0,1.844567180E0,1.721396637E1
8.480426825E0,3.484248877E0,-1.438684613E-1,1.725942993E1
8.500401773E0,1.486541033E0,-7.522436380E-1,1.141705418E1
8.520370159E0,9.284151793E-1,8.623134494E-1,1.104317570E1
8.540345159E0,9.355936646E-1,1.190429211E0,9.953245163E0
8.560321981E0,8.036893010E-1,9.364909530E-1,8.449056625E0
8.580296929E0,6.649056077E-1,9.197412133E-1,7.826025486E0
8.600279794E0,7.989036441E-1,2.850449979E-1,6.396014690E0
8.620254742E0,1.182353497E0,-2.012962103E-1,4.494019985E0
8.640222190E0,1.429113269E0,6.939185411E-2,3.734597921E0
8.660197138E0,1.766800404E0,1.986042857E-1,5.895316601E0
8.680179742E0,1.630110383E0,2.994019389E-1,8.834600449E0
8.700154690E0,-3.364906907E-1,9.173483849E-1,9.074181557E0
8.720128909E0,-3.999304056E0,1.681556106E0,6.561119556E0
8.740103856E0,-4.574179649E0,3.444767237E0,3.895216227E0
8.760083856E0,-2.724826813E0,4.834099770E0,3.837489367E0
8.780058909E0,-2.626721144E0,5.088038445E0,3.703491211E0
8.800039846E0,-4.229313850E0,5.054538727E0,4.687838554E0
8.820014898E0,-5.745466232E0,5.480760098E0,7.960322857E0
8.839980992E0,-4.974080086E0,4.182354927E0,1.205175018E1
8.859956044E0,-2.672184706E0,2.635095835E0,1.486899948E1
8.879938023E0,-1.335494161E0,1.765304923E0,1.527129364E1
8.899913075E0,-3.017050266E0,2.254039049E0,1.535025597E1
8.919885627E0,-4.669892311E0,3.660121441E0,9.696913719E0
8.939860679E0,-5.853442192E0,4.654339314E0,6.779165745E0
8.959843336E0,-6.756433964E0,4.721338272E0,1.031994534E1
8.979818388E0,-2.118844509E0,3.490231037E0,1.182174015E1
8.999799481E0,3.293122053E-1,3.439981699E0,1.346979713E1
9.019774534E0,-2.072782665E-1,3.442374468E0,1.412872028E1
9.039746409E0,-3.317050338E-1,2.591726065E0,1.193210888E1
9.059721461E0,-1.800000787E0,1.413260818E0,8.710173607E0
9.079699846E0,-4.430311203E0,4.959124923E-1,6.079863071E0
9.099674898E0,-4.629214287E0,2.371885478E-1,5.397011280E0
9.119655106E0,-2.387139797E0,1.028913707E-1,6.961319447E0
9.139630159E0,3.053839803E-1,4.785645287E-3,9.217751503E0
9.159613023E0,4.109672904E-1,-7.618148923E-1,9.766305923E0
9.179588075E0,-2.204986095E0,-1.027717352E0,7.303792000E0
9.199565888E0,-3.199203968E0,7.474579811E-1,5.552844048E0
9.219540940E0,-3.249453068E0,2.730808735E0,6.333801746E0
9.239512763E0,-2.834896564E0,3.585943937E0,6.896713257E0
9.259487815E0,-1.970190287E0,3.751347780E0,1.099501967E0
9.279470159E0,-5.896512985E0,3.768097401E0,-5.454439163E0
9.299445211E0,-8.416454315E0,2.455335140E0,6.228218079E0
9.327546466E0,-3.841078520E0,1.722234130E0,7.236793041E0
9.347522612E0,-4.183551311E0,1.396511078E0,7.804490089E0
9.367451362E0,-4.193122387E0,1.485045552E0,9.229715347E0
9.387427507E0,-4.159623146E0,1.449153185E0,1.037737274E1
9.407398184E0,-4.353740692E0,1.494616866E0,1.012343407E1
9.427374330E0,-4.238885403E0,1.887637973E0,8.829814911E0
9.447351726E0,-4.030410767E0,2.273181438E0,8.348258972E0
9.467327872E0,-3.855435371E0,2.464906454E0,8.913563728E0
9.487300789E0,-3.707080364E0,2.704487801E0,8.978468895E0
9.507276934E0,-3.615854025E0,2.996711254E0,8.271688461E0
9.527253497E0,-3.807579041E0,2.764308453E0,7.931608677E0
9.547229643E0,-4.488038063E0,2.064706802E0,8.549555779E0
9.567198028E0,-5.014758110E0,1.854138494E0,8.568697929E0
9.587174174E0,-4.708177567E0,2.218146563E0,7.821239948E0
9.607153132E0,-4.042374611E0,2.670988321E0,7.023532867E0
9.627129278E0,-3.548855066E0,3.011068106E0,6.913462639E0
9.647100059E0,-3.321237803E0,3.049353361E0,6.932605267E0
9.667076205E0,-3.203989506E0,3.109174013E0,7.009175777E0
9.687048184E0,-4.044767380E0,2.867199659E0,6.992425919E0
9.707024330E0,-4.921437740E0,2.081755638E0,7.313363075E0
9.727005007E0,-4.825725079E0,1.209571838E0,7.246364117E0
9.746981153E0,-3.968197346E0,6.873382926E-1,7.165008068E0
9.766953237E0,-2.765504837E0,5.820540786E-1,6.942176819E0
9.786929382E0,-1.642074585E0,7.378866673E-1,6.635596275E0
9.806905528E0,-2.575275302E-1,4.334000051E-1,6.486942291E0
9.826881674E0,1.713859290E-1,-4.935196638E-1,7.423732281E0
9.846861987E0,-8.015955985E-2,-5.964110494E-1,9.466903687E0
9.866838132E0,-7.366902828E-1,-4.959124923E-1,1.084427261E1
9.886808653E0,-1.649253011E0,-9.750752449E-1,1.066720295E1
9.906784799E0,-1.040877819E0,-1.236191988E0,8.058428764E0
9.926763549E0,-5.138586760E-1,-1.609771490E0,5.490331650E0
9.946739695E0,-6.215356588E-1,-1.885245085E0,4.177868366E0
9.966712091E0,-4.327419758E0,-1.413560033E0,5.239085197E0
9.986688237E0,-2.813361168E0,1.985743642E0,-9.367900491E-1
1.000666183E1,-6.325127602E0,2.230110645E0,3.811168194E0
1.002663798E1,-8.579465866E0,9.293124676E-1,9.692128181E0
1.004663147E1,-3.131905794E0,2.381157637E0,8.168498039E0
1.006660761E1,4.262813568E0,7.450651526E-1,1.757109451E1
1.008656193E1,5.237888813E0,-2.172683001E0,2.744029236E1
1.010653808E1,1.931905150E0,-3.126222849E0,2.356930351E1
1.012651475E1,-3.230310604E-2,-1.569093466E0,1.535264874E1
1.014649089E1,-9.472586513E-1,4.094717801E-1,1.110538864E1
1.016646282E1,-1.797608018E0,8.001000881E-1,1.063609695E1
1.018643897E1,-7.148557901E-1,9.532406926E-1,1.328794193E1
1.020641928E1,1.567897081E0,1.753340840E0,1.426511097E1
1.022639542E1,1.599003673E0,3.296113253E0,9.244371414E0
1.024636996E1,7.582256794E-1,4.534698009E0,3.981357813E0
1.026634610E1,-1.278066397E0,3.952643871E0,3.039782047E0
1.028631693E1,-3.683152199E0,2.647060156E0,4.752744198E0
1.030629308E1,-1.524527073E0,3.756133318E0,7.792526245E0
1.032627397E1,3.917948008E0,5.341976643E0,9.306584358E0
1.034624980E1,5.846263885E0,3.995714664E0,7.303792000E0
1.036622084E1,3.239881754E0,4.166502357E-1,7.188936710E0
1.038619667E1,3.817449331E0,-2.232802629E0,1.470120335E1
1.040617115E1,4.998307228E0,-3.878466368E0,1.889103508E1
1.042614699E1,3.719044685E0,-2.929712296E0,1.518515205E1
1.044612850E1,2.983550787E0,-9.391828775E-1,1.220279694E1
1.046610433E1,4.078267097E0,3.349951655E-2,1.291406345E1
1.048607594E1,6.042774677E0,1.487438321E0,1.210917854E1
1.050605178E1,5.292923450E0,3.212364435E0,9.236893654E0
1.052602860E1,1.852941990E0,3.887738705E0,5.557629585E0
1.054600443E1,-5.330012441E-1,3.499802113E0,2.587239504E0
1.056597688E1,-1.400100350E0,2.929712296E0,1.614557028E0
1.058595272E1,-2.006082773E0,2.393121719E0,1.564307809E0
1.060592902E1,-2.003689766E0,2.112862349E0,8.312067389E-1
1.062590485E1,-1.127019525E0,2.282752752E0,3.376871049E-1
1.064588397E1,9.738788009E-1,2.623131752E0,1.238584876E0
1.066585980E1,3.266202927E0,2.728415966E0,1.823031783E0
1.068583850E1,4.598107815E0,2.944069147E0,1.870888233E0
1.070581433E1,5.398207664E0,1.854138494E0,2.220539331E0
1.072579016E1,9.604789734E0,-1.238584876E0,1.020479012E1
1.074576600E1,1.493719578E1,-3.943072557E0,2.268066788E1
1.076573579E1,1.387119293E1,-3.598206997E0,2.571327209E1
1.078571162E1,9.027522087E0,-1.703390598E0,2.118814468E1
1.080569048E1,4.907380104E0,-3.882354796E-1,1.648834229E1
1.082566631E1,3.093919754E0,1.085145116E0,1.310818195E1
1.084564605E1,3.520141125E0,3.046960592E0,9.735198975E0
1.086562188E1,3.922733545E0,4.620839596E0,5.919245243E0
1.088559610E1,3.158525944E0,5.226821899E0,2.761915445E0
1.090557193E1,1.448255897E0,5.183751106E0,9.487541914E-1
1.092554985E1,-4.513461590E-1,5.528616905E0,4.070789516E-1
1.094552568E1,-1.395314693E0,7.006783009E0,4.863412082E-1
1.096550053E1,9.834501147E-1,5.998208046E0,2.956033230E0
1.098547636E1,7.082456112E0,2.994318485E0,1.057358456E1
1.100545141E1,8.649156570E0,-6.996015310E-1,1.249502087E1
1.102542725E1,7.230811119E0,-2.965604544E0,1.607378578E1
1.104541204E1,5.882156372E0,-3.138186932E0,1.811247063E1
1.106538787E1,4.389932156E0,-1.454237938E0,1.682602882E1
1.108536370E1,2.679363251E0,-1.063609719E0,1.427946854E1
1.110533954E1,1.905584097E0,-9.822536707E-1,1.116790104E1
1.112531923E1,1.848156333E0,-1.435693540E-2,8.832207680E0
1.114529506E1,1.658824325E0,1.688734531E0,6.884748936E0
1.116526188E1,7.366902828E-1,2.903391123E0,4.235296249E0
1.118523772E1,-3.317050338E-1,3.248256683E0,2.472084999E0
1.120521511E1,-5.353940725E-1,3.133102179E0,1.386939883E0
1.122519094E1,1.019940674E-1,3.142673492E0,1.463510156E0
1.124516985E1,1.172782183E0,3.058924675E0,3.368196964E0
1.126514568E1,3.944268942E0,3.291327477E0,5.521737576E0
1.128512162E1,7.460821152E0,3.075674295E0,6.534798622E0
1.130509746E1,8.612964630E0,1.506580949E0,6.736094952E0
1.132508037E1,9.466006279E0,1.148554832E-1,9.984351158E0
1.134505620E1,1.122413254E1,-1.044467092E0,1.633011818E1
1.136502839E1,1.026610661E1,-2.513062000E0,2.060848427E1
1.138500428E1,6.960123062E0,-2.525026083E0,2.019392776E1
1.140498173E1,5.050949574E0,-4.624129832E-1,1.624158287E1
1.142495761E1,3.831806421E0,1.025324464E0,1.163719368E1
1.144494845E1,2.564507723E0,2.242074728E0,8.681160927E0
1.146492433E1,1.649253011E0,3.890131474E0,6.230610847E0
1.148489053E1,3.631108403E-1,4.194318771E0,5.090431213E0
1.150486641E1,-3.364906907E-1,3.974179268E0,5.619843006E0
1.152484402E1,4.181457460E-1,5.576772213E0,5.919245243E0
1.154481990E1,9.188438654E-1,6.273681641E0,3.693919897E0
1.156479032E1,6.984050870E-1,4.163212299E0,2.584846735E0
1.158476621E1,2.310569286E0,1.930708766E0,5.562415123E0
1.160474360E1,5.798407555E0,8.312067389E-1,1.203260803E1
1.162471949E1,6.687041759E0,-5.174478889E-1,1.626790428E1
1.164470897E1,3.807579041E0,-1.468594909E0,1.611207199E1
1.166468485E1,8.156534433E-1,-1.305583835E0,1.257637691E1
1.168464636E1,-3.652045429E-1,-5.270192027E-1,8.111070633E0
1.170462225E1,-7.606185079E-1,3.592225015E-1,4.513162613E0
1.172460897E1,-1.048056364E0,1.296012521E0,1.767996788E0
1.174458485E1,-1.040877819E0,1.748555183E0,8.814560175E-1
1.176454454E1,3.173480928E-1,1.897209287E0,1.245763302E0
1.178452042E1,2.025524378E0,1.971386790E0,3.380161047E0
1.180449699E1,3.311965704E0,1.593021631E0,7.030711174E0
1.182447287E1,4.198207378E0,1.755733609E0,1.005882835E1
1.184447183E1,4.928915501E0,1.866102576E0,9.107681274E0
1.186444772E1,6.850052834E0,1.671984792E0,1.040847969E1
1.188440636E1,9.034700394E0,1.518545032E0,1.426989651E1
1.190438225E1,9.092127800E0,1.152144074E0,1.665823364E1
1.192435193E1,6.181558132E0,2.946162820E-1,1.604507256E1
1.194432782E1,3.778865099E0,1.137787223E0,1.343869019E1
1.196430443E1,3.448356628E0,2.627917528E0,1.130189991E1
1.198428032E1,3.846163273E0,3.384647608E0,1.063848972E1
1.200425480E1,3.999304056E0,3.758526087E0,9.052646637E0
1.202423068E1,2.576471806E0,4.091427803E0,7.215257645E0
1.204420511E1,2.383849621E-1,4.103391647E0,4.829314232E0
1.206418100E1,6.337988973E-1,3.679563046E0,2.295016050E0
1.208416433E1,3.723830223E0,2.855235577E0,7.687242031E0
1.210414022E1,6.725327015E0,7.402794957E-1,1.178106213E1
1.212411662E1,8.761619568E0,5.820540786E-1,1.557787323E1
1.214409251E1,9.468399048E0,1.489831209E0,1.754955864E1
1.216407454E1,7.980661869E0,1.384546995E0,1.365673637E1
1.218405042E1,6.404389858E0,1.667199135E0,9.637093544E0
1.220402298E1,5.599503994E0,1.940280080E0,6.915855408E0
1.222399886E1,4.301098824E0,1.767697692E0,5.512166023E0
1.224400782E1,2.703291416E0,1.640878081E0,4.613661289E0
1.226398371E1,1.392921925E0,1.813460469E0,3.332005501E0
1.228392943E1,2.838485837E-1,1.875673890E0,1.743769526E0
1.230390532E1,-7.654041648E-1,1.576271892E0,1.490130305E0
1.232388277E1,-9.999007583E-1,1.279262781E0,2.517548561E0
1.234385865E1,-8.733802289E-2,1.420439363E0,4.577768803E0
1.236383730E1,2.168495506E-1,1.499402523E0,6.498906136E0
1.238381318E1,4.875376225E-1,1.336690545E0,7.823632717E0
1.240378417E1,2.545365095E0,2.031207323E0,8.690732002E0
1.242376006E1,5.383851051E0,3.573979616E0,7.258328438E0
1.244377027E1,8.577073097E0,3.011068106E0,9.797711372E0
1.246374615E1,1.188066387E1,-1.151545867E-1,1.856501389E1
1.248369803E1,1.205533981E1,-1.262513041E0,2.227807617E1
1.250367391E1,8.184350967E0,-4.576273263E-1,1.789920998E1
1.252364407E1,4.571786880E0,5.748756528E-1,1.194646645E1
1.254361996E1,1.845763564E0,1.264606714E0,8.151748657E0
1.256359652E1,2.512463741E-2,1.607378602E0,6.836892605E0
1.258357240E1,-4.905286431E-2,2.625524759E0,7.143472672E0
1.260355126E1,1.747657895E0,3.590729475E0,7.421339512E0
1.262352714E1,3.242274761E0,4.359723091E0,7.018746853E0
1.264351313E1,2.595614433E0,3.363112211E0,6.156433582E0
1.266348902E1,8.443672657E-1,1.042074203E0,8.022536278E0
1.268346417E1,3.469592705E-2,1.076770201E-1,1.335494137E1
1.270344006E1,3.702892959E-1,1.603191197E-1,1.170927715E1
1.272341949E1,1.156032443E0,7.450651526E-1,8.671588898E0
1.274339537E1,2.861516714E0,-7.929216027E-1,1.414068413E1
1.276336907E1,5.027021408E0,-2.388336182E0,1.886441612E1
1.278334496E1,4.837689400E0,-1.116251707E0,1.720678711E1
1.280331996E1,3.551547050E0,9.173483849E-1,1.077248764E1
1.282329584E1,2.897409201E0,1.741376638E0,5.622235775E0
1.284326761E1,1.419542074E0,9.101698995E-1,5.677270889E0
1.286324350E1,1.156032443E0,7.618148923E-1,8.578269005E0
1.288323006E1,2.966800928E0,1.935494423E0,1.090917778E1
1.290320594E1,2.818445921E0,3.336791277E0,1.026461124E1
1.292318615E1,5.856433511E-1,3.334398270E0,6.412764549E0
1.294316204E1,-8.946165442E-1,2.534298182E0,4.235296249E0
1.296313615E1,-1.795215130E0,1.485045552E0,3.916751623E0
1.298311204E1,-1.689931035E0,4.959124923E-1,5.080859661E0
1.300309157E1,-7.292127013E-1,-6.469594240E-1,6.829414845E0
1.302306746E1,-4.875376225E-1,-8.072785139E-1,6.906284332E0
1.304303501E1,-1.311565876E0,-1.334297776E0,6.537191391E0
1.306301089E1,-1.081555843E0,-2.431406975E0,7.016354084E0
1.308300001E1,6.266204119E-1,-2.457727909E0,7.428517818E0
1.310297589E1,2.260320187E0,4.357928336E-1,8.333902359E0
1.312295756E1,4.574179649E0,2.912962437E0,9.689735413E0
1.314293344E1,5.860620975E0,2.944069147E0,8.784351349E0
1.316290782E1,4.806582451E0,1.595414519E0,1.230808163E1
1.318288370E1,2.456531525E0,-7.178467698E-3,1.619103432E1
1.320286381E1,5.784648657E-1,-1.286441326E0,1.663908958E1
1.322283970E1,-2.221735716E0,-2.069791555E0,1.468445301E1
1.324280511E1,-4.425525665E0,-2.088934183E0,1.373569965E1
1.326278100E1,-4.097409725E0,-1.379761338E0,1.489532089E1
1.328277230E1,-2.360818624E0,-3.185445070E-1,1.373091316E1
1.330274818E1,-7.797610760E-1,1.585843205E0,6.091827393E0
1.332272912E1,-1.014556766E0,4.297509670E0,1.351047516E0
1.334270501E1,-2.423032045E0,3.909274101E0,8.597412109E0
1.336267496E1,-1.373779297E0,-4.121637046E-1,1.388674641E1
1.338265084E1,7.088737190E-2,-2.534597397E0,1.765962982E1
1.340262928E1,7.806584239E-2,-1.042074203E0,1.700579071E1
1.342260516E1,-2.527419031E-1,2.324029058E-1,1.280399418E1
1.344259589E1,-1.431207061E0,1.411765367E-1,8.044071198E0
1.346257204E1,-2.854039192E0,1.100698411E-1,4.096213341E0
1.348254157E1,-2.571387053E0,8.670991063E-1,3.298506021E0
1.350251772E1,-8.419744968E-1,1.698305845E0,6.120541096E0
1.352249204E1,3.125624657E-1,1.255035520E0,8.192725182E0
1.354246818E1,6.649056077E-1,1.015753269E0,8.298009872E0
1.356244272E1,-9.212367237E-2,1.156929731E0,7.184150696E0
1.358241886E1,-9.855438471E-1,1.097109199E0,6.199504375E0
1.360239980E1,-6.789634228E-1,9.699904919E-1,9.481260300E0
1.362237595E1,-7.292127013E-1,1.142572761E0,1.169970608E1
1.364238647E1,-2.638685226E0,1.748555183E0,8.020143509E0
1.366236261E1,-5.216054440E0,1.957029819E0,5.684449196E0
1.368231303E1,-5.237589836E0,2.019243240E0,1.086371422E1
1.370228917E1,-2.082952023E0,1.772483349E0,1.525932884E1
1.372226443E1,-3.726222992E0,1.703091502E0,1.685235023E1
1.374224058E1,-8.299205780E0,8.910273314E-1,1.713261032E1
1.376222235E1,-5.625824928E0,5.742774159E-2,1.658405495E1
1.378219850E1,-1.790429592E0,2.335394859E0,1.455494213E1
1.380217246E1,-2.814557552E-1,5.150251865E0,7.092924595E0
1.382214860E1,-3.079263687E0,5.938387394E0,6.019743443E0
1.384217089E1,-5.716752529E0,3.272184849E0,1.148644638E1
1.386214704E1,-3.831507206E0,-9.840483218E-2,1.417179108E1
1.388208615E1,-4.126123428E0,5.341976285E-1,1.371655655E1
1.390206230E1,-4.852046013E0,2.702095032E0,1.057119179E1
1.392203704E1,-4.106980801E0,3.806382656E0,6.946962357E0
1.394201318E1,-4.008875370E0,4.443471432E0,6.417550564E0
1.396199084E1,-4.581357956E0,4.136891365E0,8.259724617E0
1.398196699E1,-4.358526230E0,2.833700180E0,9.919745445E0
1.400194360E1,-3.764508247E0,2.924926519E0,9.732806206E0
1.402191975E1,-3.668496132E0,3.243471146E0,7.471588612E0
1.404187428E1,-4.164408684E0,2.848057270E0,5.442475319E0
1.406185042E1,-7.314559937E0,2.630310297E0,-1.554736495E0
1.408185532E1,-7.839186192E0,3.154936552E0,1.410868049E0
1.410183147E1,-4.945366383E0,3.518944740E0,9.833603859E0
1.412180454E1,-5.771787167E0,3.329612732E0,6.973283291E0
1.416835902E1,-3.611068487E0,3.497409344E0,6.340980053E0
1.418828798E1,-3.052942514E0,4.048357010E0,8.046463966E0
1.420826480E1,-2.126022816E0,4.235296249E0,9.426225662E0
1.422824084E1,-1.704287887E0,4.177569389E0,9.483653069E0
1.424821762E1,-2.018046856E0,3.882952929E0,8.880064011E0
1.426819454E1,-2.516352177E0,3.461517096E0,8.606983185E0
1.428817137E1,-2.511566401E0,3.267399311E0,8.317152023E0
1.430815673E1,-2.106880426E0,3.387040377E0,7.272685528E0
1.432813350E1,-1.972583175E0,3.827918053E0,6.599703789E0
1.434811230E1,-2.226521492E0,3.990929127E0,7.435696602E0
1.436808908E1,-1.998904228E0,3.516551971E0,8.635697365E0
1.438806834E1,-1.469492197E0,2.912962437E0,8.918349266E0
1.440804517E1,-1.457528114E0,2.692523718E0,8.518448830E0
1.442802251E1,-1.974975944E0,2.285145521E0,8.309973717E0
1.444799934E1,-2.672184706E0,1.358225942E0,8.326724052E0
1.446797704E1,-3.251846075E0,6.059823632E-1,8.566305161E0
1.448795387E1,-2.305484533E0,1.842473447E-1,9.553344727E0
1.450793590E1,-1.771286964E0,-6.613163352E-1,1.169731331E1
1.452791267E1,-1.409671664E0,-1.403689623E0,1.280399418E1
1.454789236E1,-1.311565876E0,-1.396511078E0,1.448794270E1
1.456786913E1,-1.004985452E0,-8.168498278E-1,1.496710587E1
1.458784210E1,-1.196411322E-3,-5.629115105E-1,1.208764267E1
1.460781892E1,4.803591371E-1,-1.667199135E0,7.955537319E0
1.462779881E1,-7.414759398E-1,-2.417049885E0,7.579265594E0
1.464777559E1,-2.073081732E0,-2.517847538E0,8.860920906E0
1.466775303E1,-2.344068766E0,-2.352443695E0,8.158926964E0
1.468772986E1,-3.009871721E0,-2.407478571E0,4.666303158E0
1.470771308E1,-3.742972851E0,-2.184647083E0,3.257229924E-1
1.472768986E1,-2.344068766E0,-0.000000000E0,-1.372582912E0
1.474766746E1,-4.126123428E0,3.807578981E-1,3.595515013E0
1.476764423E1,-4.480560303E0,2.347957194E-1,7.845168114E0
1.478762423E1,-1.447956800E0,2.276172489E-1,5.861817360E0
1.480760105E1,2.096710801E-1,1.268195957E-1,8.158926964E0
1.482757621E1,1.555334684E-2,1.219143152E0,6.300003052E0
1.484755298E1,1.529611826E0,3.420839071E0,5.720341682E0
1.486753163E1,4.775475979E0,3.885345697E0,9.509974480E0
1.488750840E1,8.658727646E0,2.151147604E0,9.773484230E0
1.490748840E1,7.683652401E0,-1.585843205E0,1.543191147E1
1.492746517E1,5.927619934E0,-3.883252144E0,1.888385773E1
1.494744329E1,5.010271549E0,-3.365804195E0,1.729083633E1
1.496742006E1,5.221138954E0,-1.537986755E0,1.590598965E1
1.498739616E1,5.223531723E0,-4.743770957E-1,1.444965744E1
1.500737298E1,3.889234066E0,-1.438684613E-1,1.296909904E1
1.502735684E1,2.959622622E0,5.748756528E-1,1.179302597E1
1.504733361E1,2.734398127E0,1.691127419E0,9.898209572E0
1.506730194E1,2.839981318E0,2.517548561E0,8.082356453E0
1.508727871E1,3.017349243E0,2.862414122E0,6.510870457E0
1.510726532E1,2.648256540E0,2.697309256E0,5.591129303E0
1.512724210E1,2.274677038E0,2.306680918E0,5.638985634E0
1.514722569E1,2.432603359E0,1.727019787E0,6.223432541E0
1.516720246E1,2.990729094E0,1.259821177E0,7.121937275E0
1.518718105E1,3.323929787E0,6.275177598E-1,8.197511673E0
1.520715788E1,2.978765011E0,-4.528416991E-1,8.834600449E0
1.522714043E1,2.832803011E0,-1.514058471E0,9.936494827E0
1.524711725E1,2.918944597E0,-2.292623281E0,1.258116245E1
1.526709033E1,3.364607811E0,-2.405085802E0,1.371177101E1
1.528706715E1,4.133601189E0,-1.439880967E0,1.046112156E1
1.530704834E1,4.037589073E0,1.052841991E-1,7.610372543E0
1.532702517E1,3.398107290E0,8.647062778E-1,7.931608677E0
1.534700444E1,3.225524902E0,7.178467698E-3,6.920641422E0
1.536698126E1,4.008875370E0,-1.782353759E0,7.421339512E0
1.538696084E1,4.948058128E0,-3.732205153E0,1.261944771E1
1.540693767E1,3.867698669E0,-4.716851711E0,1.841665840E1
1.542692079E1,2.257927179E0,-4.745565414E0,2.069223213E1
1.544689762E1,4.852046013E0,-2.182254314E0,2.003121567E1
1.546686934E1,8.924630165E0,1.465902925E0,1.660798454E1
1.548684616E1,1.110927773E1,3.736990690E0,1.144816113E1
1.550682871E1,9.319745064E0,4.587339878E0,6.482156754E0
1.552680553E1,5.213960648E0,3.633800268E0,4.881956577E0
1.554679303E1,2.449352980E0,2.282752752E0,3.921537161E0
1.556676986E1,1.366600871E0,1.777269006E0,3.121437073E0
1.558673756E1,1.278066397E0,1.597807288E0,2.972783089E0
1.560671439E1,1.313958764E0,1.307976723E0,3.171686411E0
1.562669949E1,9.906286001E-1,1.051645517E0,3.404089212E0
1.564667631E1,8.635098934E-1,9.652048349E-1,3.595515013E0
1.566665116E1,7.295117974E-1,8.958129883E-1,3.372982502E0
1.568662798E1,9.068797827E-1,9.484550953E-1,3.454338551E0
1.570660881E1,1.893620014E0,8.766704202E-1,5.090431213E0
1.572658564E1,2.727219582E0,2.898306549E-1,7.181757927E0
1.574656074E1,3.129812002E0,-3.017947674E-1,9.289834976E0
1.576653756E1,4.207778454E0,-5.222335458E-1,1.151276684E1
1.578651694E1,6.404389858E0,-2.587239444E-1,1.438505173E1
1.580649376E1,8.002197266E0,-2.515454888E-1,1.229611778E1
1.582647079E1,8.172386169E0,-5.078766346E-1,1.166620636E1
1.584644762E1,7.690831184E0,-1.073180914E0,1.480887985E1
1.586642637E1,7.068099022E0,-1.415952802E0,1.508196068E1
1.588640319E1,6.033203125E0,-1.286441326E0,1.507956791E1
1.590638355E1,5.010271549E0,-8.670991063E-1,1.536222076E1
1.592636038E1,3.905983925E0,6.801598072E-1,1.491207027E1
1.594633876E1,3.553939819E0,2.666202545E0,1.278963661E1
1.596631558E1,3.594617844E0,3.918845177E0,9.364012718E0
1.598629095E1,3.311965704E0,4.611268520E0,6.602096558E0
1.600626777E1,2.739183664E0,4.398007870E0,5.035396099E0
1.602624512E1,2.531008244E0,3.696312666E0,4.774279594E0
1.604622194E1,2.609971285E0,3.003889799E0,5.056931496E0
1.606619527E1,2.514258385E0,2.407478571E0,5.330012321E0
1.608617210E1,2.636292458E0,1.844567180E0,5.983851433E0
1.610615710E1,2.696112871E0,9.795617461E-1,6.853642464E0
1.612613392E1,2.157129526E0,5.742774159E-2,7.200900555E0
1.614611043E1,1.563111424E0,-4.552344978E-1,6.779165745E0
1.616608725E1,1.512862086E0,-5.102694035E-1,6.007779598E0
1.618606069E1,2.269891262E0,-3.329014480E-1,5.717948914E0
1.620603751E1,3.038884640E0,-3.379862010E-1,6.990033150E0
1.622601902E1,3.180061340E0,-7.354938388E-1,8.968598366E0
1.624599600E1,3.374179125E0,-9.152546525E-1,9.383154869E0
1.626596902E1,3.858127356E0,-1.295115203E-1,8.702695847E0
1.628594600E1,4.351646900E0,1.272084355E0,8.300402641E0
1.630593236E1,4.126422882E0,1.755733609E0,5.919245243E0
1.632590934E1,4.806582451E0,-5.796613097E-1,5.341976643E0
1.634588324E1,7.561618805E0,-3.387339592E0,1.390588856E1
1.636586022E1,8.785547256E0,-4.570590496E0,2.289123726E1
1.638583840E1,6.648756981E0,-2.750250578E0,2.271895409E1
1.640581538E1,6.102594852E0,9.460622668E-1,1.712064552E1
1.642578824E1,8.989236832E0,4.635196686E0,1.277767277E1
1.644576522E1,1.088883877E1,5.684449196E0,1.025264645E1
1.646574043E1,8.831010818E0,4.793421745E0,7.505088329E0
1.648571741E1,4.806582451E0,3.229114056E0,5.435296535E0
1.650569642E1,2.087737799E0,1.894816399E0,4.596911430E0
1.652567340E1,1.194317579E0,1.346261859E0,4.570590496E0
1.654563991E1,1.160818100E0,1.166501045E0,4.755136967E0
1.656561689E1,1.206281662E0,8.718847632E-1,5.298905849E0
1.658559887E1,8.228318691E-1,2.946162820E-1,5.686841965E0
1.660557584E1,-2.991028316E-2,-2.563311160E-1,5.792425632E0
1.662555637E1,-4.707878530E-1,-6.038886309E-1,5.806782246E0
1.664553334E1,-2.072782665E-1,-1.001396298E0,6.891927242E0
1.666550855E1,7.806584239E-2,-1.406381488E0,6.968497753E0
1.668548553E1,9.690931439E-1,-1.411167145E0,7.279863834E0
1.670546668E1,2.847159863E0,-1.252941728E0,9.198608398E0
1.672544366E1,4.382753849E0,-1.193121195E0,1.188873959E1
1.674541699E1,4.380361080E0,-1.427916884E0,1.079402256E1
1.676539397E1,3.807579041E0,-1.063609719E0,6.733702183E0
1.678536970E1,5.089234829E0,-2.392822644E-3,6.968497753E0
1.680534668E1,7.762615681E0,4.695914388E-1,9.574879646E0
1.682532501E1,1.044317532E1,-2.153540403E-2,1.040847969E1
1.684530199E1,1.233799171E1,-8.144569993E-1,1.386999607E1
1.686527694E1,1.285783291E1,-2.024327993E0,1.606900024E1
1.688525392E1,1.091515923E1,-2.433799744E0,1.619103432E1
1.690523788E1,8.493324280E0,-1.401296735E0,1.592273903E1
1.692521486E1,6.780661106E0,2.443670183E-1,1.412393475E1
1.694519720E1,5.599503994E0,1.743769526E0,1.057119179E1
1.696517418E1,4.830510616E0,3.044567823E0,6.863213539E0
1.698515637E1,4.509573460E0,3.928416491E0,4.572983265E0
1.700513334E1,4.490430832E0,4.067499161E0,3.957429647E0
1.702511017E1,4.404289246E0,3.629014730E0,4.443770885E0
1.704508715E1,3.961018801E0,2.934497833E0,5.064109802E0
1.706506454E1,3.481856108E0,2.232503414E0,5.667699337E0
1.708504152E1,3.043670416E0,1.492223978E0,5.468796253E0
1.710502834E1,2.540579557E0,8.742775917E-1,4.927420139E0
1.712500532E1,2.097309113E0,2.132603228E-1,5.102395058E0
1.714497793E1,1.817049742E0,-5.198407173E-1,6.268896103E0
1.716495491E1,1.400100350E0,-9.176474810E-1,7.313363075E0
1.718493590E1,5.641079545E-1,-1.099501967E0,7.090531826E0
1.720491288E1,-4.130610228E-1,-1.262513041E0,5.955137253E0
1.722489533E1,-7.677969933E-1,-1.089930773E0,5.073681355E0
1.724487230E1,2.133201361E0,-6.206383705E-1,3.080460072E0
1.726484954E1,7.273881912E0,-7.163512707E-1,7.569694519E0
1.728482663E1,8.598608017E0,-3.612564087E0,1.309143162E1
1.730480730E1,6.931408882E0,-5.660521030E0,1.915215302E1
1.732478439E1,3.776472330E0,-5.128716469E0,2.222543335E1
1.734476340E1,1.678265929E0,-4.022035599E0,1.888146400E1
1.736474048E1,5.661717415E0,-8.721838593E-1,1.599721622E1
1.738471225E1,1.380897903E1,4.297509670E0,1.509392548E1
1.740468934E1,1.618535233E1,6.807879448E0,1.126361465E1
1.742467584E1,1.067079258E1,5.480760098E0,6.781558514E0
1.744465293E1,4.674977303E0,3.631407499E0,4.170690060E0
1.746462730E1,1.888834357E0,2.749951363E0,3.138186932E0
1.748460439E1,1.098305583E0,2.555833578E0,3.046960592E0
1.750458605E1,6.792625189E-1,2.519941330E0,3.087638617E0
1.752456314E1,3.774677813E-1,2.213361025E0,3.535694599E0
1.754454017E1,-2.312064916E-1,1.722234130E0,3.882952929E0
1.756451725E1,-9.616156220E-1,1.154536963E0,3.792025566E0
1.758448538E1,-1.127019525E0,3.687937856E-1,3.847060680E0
1.760446246E1,-6.000002623E-1,-1.055833027E-1,4.484448910E0
1.762444262E1,1.474576890E-1,3.472583890E-1,5.737091541E0
1.764441970E1,7.654041648E-1,4.429712892E-1,7.200900555E0
1.766439126E1,2.008774519E0,3.592225015E-1,6.544369698E0
1.768436835E1,4.171886444E0,-2.443670183E-1,7.061817646E0
1.770434611E1,8.076375008E0,-4.896612644E0,1.454537106E1
1.772432319E1,1.196680546E1,-7.200900555E0,2.348555374E1
1.774428715E1,1.251057434E1,-6.051149368E0,2.216082764E1
1.776426423E1,1.029721355E1,-4.745565414E0,1.632772446E1
1.778424517E1,8.244171143E0,-3.923929930E0,1.539811325E1
1.780422225E1,5.841478348E0,-2.297408819E0,1.599482250E1
1.782419808E1,4.744369030E0,3.352942765E-1,1.396810246E1
1.784417517E1,6.145665646E0,2.793022156E0,9.730413437E0
1.786415647E1,7.607082367E0,4.491627216E0,5.660521030E0
1.788413355E1,7.161418915E0,4.936991215E0,3.288934708E0
1.790410189E1,5.613861084E0,3.937987804E0,3.169293642E0
1.792407897E1,5.117948532E0,2.642274380E0,4.700101852E0
1.794406090E1,4.761118889E0,1.482652783E0,6.381658077E0
1.796403798E1,3.771686792E0,7.280163169E-1,6.501298904E0
1.798400277E1,2.650649309E0,3.951148391E-1,5.006682396E0
1.800397986E1,1.814656854E0,2.108674943E-1,3.696312666E0
1.802395834E1,1.330708504E0,9.571290761E-2,3.193221807E0
1.804393543E1,7.941179872E-1,-5.503492057E-2,2.589632273E0
1.806390715E1,7.127620578E-1,-9.840483218E-2,9.293124676E-1
1.808388423E1,1.788335800E0,1.866401732E-1,1.188036442E0
1.810386397E1,5.190032482E0,-1.540379524E0,5.833103180E0
1.812384105E1,7.546962738E0,-7.023532867E0,1.235593796E1
1.814380725E1,5.484648705E0,-1.088524914E1,2.147319031E1
1.816378434E1,4.128815651E0,-1.021196842E1,2.781895638E1
1.818376934E1,4.433002949E0,-7.304090977E0,2.519821739E1
1.820374642E1,4.159922123E0,-4.549055099E0,1.854587173E1
1.822371772E1,4.401896477E0,-2.364407778E0,1.333819199E1
1.824369480E1,5.345565796E0,-2.611167729E-1,1.001545811E1
1.826367251E1,6.445067883E0,1.451546073E0,7.593622684E0
1.828364960E1,6.299105644E0,2.110469580E0,5.394618511E0
1.830362855E1,4.569394112E0,1.789233088E0,3.473481178E0
1.832360553E1,2.363211393E0,1.209571838E0,2.285145521E0
1.834356272E1,1.258923769E0,9.987043738E-1,2.009671926E0
1.836353970E1,1.486541033E0,1.109073281E0,2.194218397E0
1.838352970E1,2.391925335E0,1.109073281E0,2.541476727E0
1.840350668E1,2.727219582E0,7.256234884E-1,2.793022156E0
1.842348725E1,1.553540111E0,-1.295115203E-1,3.404089212E0
1.844346423E1,3.173480928E-1,-1.414756328E-1,4.304687977E0
1.846344079E1,-1.758724600E-1,-6.349952817E-1,4.271188259E0
1.848341777E1,1.146461129E0,-5.485545993E-1,3.425624609E0
1.850339762E1,6.778268337E0,-2.635095835E0,1.427468300E1
1.852337460E1,1.104945660E1,-6.451049805E0,3.016422081E1
1.854337480E1,1.042403316E1,-6.398407936E0,3.275594711E1
1.856335178E1,7.937591076E0,-4.520340919E0,2.344726944E1
1.858330387E1,7.422535896E0,-2.141576290E0,1.564008713E1
1.860328084E1,6.572186470E0,4.785645287E-3,1.213789177E1
1.862326006E1,4.890630245E0,1.296012521E0,9.486045837E0
1.864323704E1,3.441178083E0,2.120040894E0,6.923034191E0
1.866321100E1,2.286641121E0,2.479263306E0,4.697709084E0
1.868318798E1,1.579861164E0,2.642274380E0,3.162115097E0
1.870317158E1,1.699801445E0,2.912962437E0,2.630310297E0
1.872314855E1,2.315355062E0,3.094816923E0,2.759522676E0
1.874311788E1,2.849552631E0,3.226721287E0,2.917748213E0
1.876309486E1,3.273381472E0,3.506980658E0,3.068495989E0
1.878307829E1,3.429214001E0,3.633800268E0,2.769093990E0
1.880305527E1,3.014956474E0,3.322434187E0,2.450549603E0
1.882302808E1,1.956132531E0,2.040778637E0,3.260220766E0
1.884300506E1,1.000199914E0,3.616153300E-1,5.327619553E0
1.886298548E1,1.048056364E0,-5.748756528E-1,8.084749222E0
1.888296246E1,1.941775560E0,-8.479565382E-1,9.716055870E0
1.890293866E1,4.138386726E0,-2.922234535E-1,1.158215904E1
1.892291564E1,6.852446079E0,-2.778665423E-1,1.260030460E1
1.894291449E1,7.209275723E0,-3.294019461E0,1.505085468E1
1.896289147E1,7.415357590E0,-5.418546677E0,2.018435669E1
1.898284621E1,7.829914093E0,-4.869992256E0,2.238605309E1
1.900282319E1,5.884549141E0,-2.718844652E0,1.799492264E1
1.902279996E1,4.336990833E0,-4.648058116E-1,1.417657661E1
1.904277694E1,4.852046013E0,5.485545993E-1,1.249741364E1
1.906275220E1,4.897809029E0,1.401296735E0,9.998708725E0
1.908272918E1,4.030410767E0,2.371586323E0,7.227221489E0
1.910270699E1,3.345465183E0,3.109174013E0,5.080859661E0
1.912268397E1,2.547757864E0,3.432803154E0,3.322434187E0
1.914268178E1,1.419542074E0,3.451945782E0,1.767996788E0
1.916265881E1,3.053839803E-1,3.710669756E0,1.219442248E0
1.918261408E1,-1.021735311E0,3.768097401E0,2.105684042E0
1.920259105E1,-1.383350611E0,3.626621723E0,4.000500202E0
1.922257001E1,-1.292423368E0,3.593122244E0,6.700202465E0
1.924254699E1,-1.390529037E0,3.238685369E0,9.898209572E0
1.926252251E1,-1.282852054E0,1.897209287E0,1.271994591E1
1.928249949E1,4.755735099E-1,-1.989033818E-1,1.354905891E1
1.930247866E1,2.495115757E0,-1.604985833E0,1.308903885E1
1.932245564E1,3.707080364E0,-1.830210209E0,1.273938751E1
1.934245631E1,4.976771832E0,-3.777668715E0,1.261226940E1
1.936243345E1,5.886941910E0,-4.407878399E0,1.505803299E1
1.938238210E1,5.544469357E0,-3.183650494E0,1.681406593E1
1.940235918E1,4.097708702E0,-1.899602056E0,1.502931881E1
1.942233803E1,2.427817583E0,-4.121637046E-1,1.189591789E1
1.944231512E1,9.667003751E-1,1.327119231E0,9.411869049E0
1.946229152E1,8.877372146E-1,2.543869495E0,8.084749222E0
1.948226861E1,1.848156333E0,3.190829039E0,8.072785378E0
1.950224631E1,2.528615236E0,3.490231037E0,8.094321251E0
1.952222340E1,2.562114954E0,3.188436270E0,7.672884941E0
1.954221970E1,2.178664923E0,2.548655272E0,7.378268719E0
1.956219678E1,1.380957723E0,2.148754835E0,7.277471066E0
1.958215460E1,3.029911816E-1,2.199003935E0,6.379265308E0
1.960213168E1,-4.971089065E-1,2.330609322E0,4.970789909E0
1.962211058E1,-9.520443082E-1,1.777269006E0,4.328616142E0
1.964208767E1,-9.065806866E-1,5.024927482E-2,5.864210129E0
1.966206746E1,-1.450349569E0,-2.467299223E0,1.114875889E1
1.968204454E1,-1.498206019E0,-3.626920938E0,1.750858307E1
1.970202058E1,1.048056364E0,-2.316551447E0,1.746311951E1
1.972199767E1,3.369393349E0,3.828516230E-2,1.221476173E1
1.974197803E1,2.885445118E0,-7.926224917E-2,7.692027569E0
1.976195512E1,2.176272154E0,-1.897209287E0,7.708777428E0
1.978192387E1,2.353640079E0,-3.301198006E0,1.310818195E1
1.980190095E1,1.481755376E0,-4.060320854E0,2.042393684E1
1.982187897E1,2.527419031E-1,-3.349054337E0,2.113311005E1
1.984185605E1,1.555334684E-2,-9.176474810E-1,1.436351585E1
1.986183137E1,3.511467278E-1,1.894816399E0,7.536194801E0
1.988180845E1,4.348955154E-1,2.999104023E0,4.345366001E0
1.990178616E1,1.134197950E0,2.620738983E0,3.815953970E0
1.992176324E1,2.906980515E0,2.074577332E0,5.866602898E0
1.994175017E1,3.448356628E0,1.724626899E0,8.158926964E0
1.996172725E1,1.742872238E0,1.444367528E0,8.391329765E0
1.998169272E1,-8.204390407E-1,9.317052960E-1,6.731309414E0
2.000166980E1,-1.587039590E0,3.759722710E-1,6.278467655E0
2.002164954E1,-7.028916478E-1,1.483550072E-1,6.990033150E0
2.004162663E1,-2.527419031E-1,1.674975902E-1,6.877570629E0
2.006159871E1,-5.138586760E-1,-6.460621208E-2,6.697809696E0
2.008157579E1,-9.137591720E-1,-2.060818523E-1,7.169794083E0
2.010155522E1,-1.931905150E0,-2.132603228E-1,7.627122402E0
2.012153230E1,-3.067299604E0,-5.270192027E-1,8.484949112E0
2.014152017E1,-3.958626032E0,2.946162820E-1,8.537590981E0
2.016149725E1,-5.505885124E0,2.512762785E0,5.485546112E0
2.018146350E1,-6.545566559E0,4.618446827E0,6.827022076E0
2.020144058E1,-5.367101192E0,6.058028698E0,1.237508011E1
2.022142084E1,-1.186840057E0,4.079463482E0,1.255962658E1
2.024139793E1,-2.173879385E0,1.698305845E0,9.126823425E0
2.026137043E1,-6.363711834E0,1.743769526E0,9.687342644E0
2.028134751E1,-5.992226124E0,1.748555183E0,1.434437370E1
2.030133038E1,-4.147658825E0,2.436192513E0,1.711346817E1
2.032130746E1,-4.123730659E0,2.749951363E0,1.444008636E1
2.034129428E1,-4.756333351E0,2.285145521E0,1.029332447E1
2.036127137E1,-4.679463863E0,2.108076811E0,7.615158081E0
2.038123496E1,-4.185944080E0,2.586940289E0,5.825924873E0
2.040121194E1,-4.500001907E0,3.741776466E0,6.051149368E0
2.042118902E1,-5.141876698E0,3.916452408E0,9.632308006E0
2.044116600E1,-5.489135265E0,2.663809776E0,1.487378597E1
2.046113908E1,-4.322634220E0,1.657627940E0,1.631815338E1
2.048111605E1,-3.778865099E0,2.167897224E0,1.422921848E1
2.050109684E1,-4.315455437E0,2.910569668E0,1.214746284E1
2.052107381E1,-2.645863533E0,3.454338551E0,7.859525204E0
2.054105111E1,-1.627717614E0,4.316651821E0,3.439981699E0
2.056102808E1,-5.292923450E0,4.810171604E0,7.533802032E0
2.058099444E1,-5.496313572E0,2.632703066E0,1.328076363E1
2.060097142E1,-2.954836845E0,1.137787223E0,1.476820183E1
2.062094829E1,-3.294916868E0,2.496013165E0,1.176670551E1
2.064092527E1,-4.466203690E0,4.038785458E0,7.258328438E0
2.066090074E1,-4.849653244E0,4.072285175E0,4.769493580E0
2.068087772E1,-4.976472855E0,3.159722328E0,4.812564373E0
2.070085564E1,-4.724927425E0,2.421835661E0,6.604489803E0
2.072083262E1,-3.594318628E0,2.287538528E0,8.494520187E0
2.074081788E1,-3.172882795E0,2.989532709E0,7.857132435E0
2.076079486E1,-3.443570852E0,4.033999920E0,5.164608479E0
2.078076736E1,-3.865006685E0,3.545265913E0,2.814557552E0
2.080074434E1,-4.801796913E0,2.239681959E0,2.467299223E0
2.082071913E1,-6.078367710E0,7.474579811E-1,5.717948914E0
2.084069611E1,-6.270092487E0,-2.156531364E-1,1.021675491E1
2.086067376E1,-5.546562672E0,5.748756528E-1,1.023350430E1
2.088065074E1,-4.995615482E0,2.028814554E0,8.650053978E0
2.090063121E1,-4.842474937E0,2.498405933E0,1.200867939E1
2.092060819E1,-4.339384079E0,1.727019787E0,1.437787342E1
2.094059048E1,-3.752544165E0,1.142572761E0,1.252852058E1
2.096056746E1,-4.123730659E0,1.595414519E0,9.653842926E0
2.098054126E1,-4.641178608E0,1.830210209E0,7.751848221E0
2.100051824E1,-4.607678890E0,1.180858016E0,7.469195843E0
2.102049439E1,-4.748855591E0,1.244267747E-1,1.000588703E1
2.104047137E1,-4.832903385E0,-3.065803945E-1,1.083709335E1
2.106044892E1,-4.914259434E0,9.556335211E-1,8.690732002E0
2.108042590E1,-3.429214001E0,1.712662816E0,6.014957905E0
2.110040715E1,-2.353640079E0,1.597807288E0,4.268795490E0
2.112038413E1,-3.040978432E0,2.654238462E0,6.156433582E0
2.114036460E1,-3.781257868E0,1.925923109E0,1.184566879E1
2.116034158E1,-5.239982605E0,1.004985496E-1,1.192732334E1
2.118031314E1,-6.787540436E0,1.866401732E-1,8.290831566E0
2.120029012E1,-5.738287926E0,1.798804402E0,8.791529655E0
2.124016645E1,-1.646860242E0,2.661417007E0,7.263113976E0
2.126011624E1,-2.013261080E0,2.462513685E0,7.883453369E0
2.128009442E1,-1.888834357E0,2.663809776E0,9.457332611E0
2.130007322E1,-1.273280740E0,2.871985435E0,1.057597733E1
2.132005135E1,-1.024128079E0,3.094816923E0,1.014496994E1
2.134003093E1,-1.555932879E0,3.243471146E0,9.009575844E0
2.136000906E1,-2.003689766E0,3.195614576E0,7.910073280E0
2.137998780E1,-1.845763564E0,3.157329559E0,7.165008068E0
2.139996593E1,-2.041975021E0,2.603690147E0,7.473981380E0
2.141995989E1,-2.233700037E0,1.940280080E0,8.084749222E0
2.143993801E1,-2.367997169E0,1.291226864E0,8.367402077E0
2.145989504E1,-2.178664923E0,4.935196638E-1,9.023932457E0
2.147987317E1,-1.603789330E0,-5.174478889E-1,9.368798256E0
2.149984635E1,-1.378564954E0,-1.619342685E0,9.649057388E0
2.151982452E1,-4.707878530E-1,-1.401296735E0,1.041326523E1
2.153980817E1,3.317050338E-1,-1.113858938E0,1.177627659E1
2.155978629E1,-1.129412293E0,-5.365904570E-1,1.771945000E1
2.157976291E1,8.524430543E-2,-2.826521695E-1,1.750618935E1
2.159974103E1,3.549154282E0,-1.138086319E0,9.608379364E0
2.161969103E1,2.063809633E0,-1.511665702E0,4.599304199E0
2.163966921E1,-2.643470764E0,-2.141576290E0,8.934201598E-1
2.165966911E1,-5.609075546E0,-2.726023197E0,4.785645287E-3
2.167964728E1,-6.387639999E0,-2.577668190E0,4.169493318E-1
2.169962817E1,-5.898906231E0,-2.084148407E0,-1.028913707E-1
2.171960635E1,-3.774079561E0,-7.689933777E-1,-2.204387933E-1
2.173958364E1,-9.400802255E-1,3.352942765E-1,1.009472084E1
2.175956181E1,-2.982055247E-1,-2.002792597E0,7.665706635E0
2.177954213E1,-1.512562990E0,-2.041077614E0,3.727419376E0
2.179952030E1,-1.385743380E0,1.276870012E0,7.584051132E0
2.181951072E1,3.687937975E0,2.869592667E0,7.462017536E0
2.183948885E1,6.363711834E0,-1.068395257E0,1.043719292E1
2.185945744E1,6.378068924E0,-5.758925915E0,2.076431656E1
2.187943562E1,6.955337048E0,-6.048756599E0,2.442443848E1
2.189941551E1,6.521937370E0,-4.069892406E0,1.945634079E1
2.191939369E1,5.467898846E0,-2.881855726E0,1.416222000E1
2.193937859E1,3.858127356E0,-2.074577332E0,1.415982723E1
2.195935676E1,2.483151674E0,-1.710569143E0,1.519711590E1
2.197933525E1,1.697408557E0,-1.559522152E0,1.410000610E1
2.199931343E1,1.560718536E0,-9.272187948E-1,1.000827980E1
2.201929890E1,1.692622900E0,5.748756528E-1,7.373483181E0
2.203927702E1,1.630110383E0,7.618148923E-1,8.642875671E0
2.205925234E1,5.401797295E-1,-2.392822690E-2,9.972387314E0
2.207923051E1,-2.742772996E-1,-6.254240274E-1,8.939884186E0
2.209921067E1,2.072782665E-1,-6.541379094E-1,5.801996708E0
2.211918885E1,-4.633102715E-1,-1.056431174E0,3.708276987E0
2.213917301E1,-1.912762642E0,-2.786142826E0,5.198108196E0
2.215915119E1,-2.001296997E0,-3.998107433E0,5.935994625E0
2.217912968E1,-1.819442511E0,-3.662813187E0,3.636492252E0
2.219910786E1,-2.178664923E0,-1.909173369E0,5.202893734E0
2.221910635E1,3.870390654E-1,2.591726065E0,5.267798901E0
2.223908447E1,4.124029636E0,4.671088696E0,6.472585201E0
2.225904603E1,7.012764931E0,5.222335458E-1,9.167501450E0
2.227902416E1,6.553043842E0,-5.533701420E0,1.688824272E1
2.229900385E1,6.069095612E0,-8.329116821E0,2.607488823E1
2.231898197E1,6.677470684E0,-7.656135082E0,2.698296356E1
2.233895786E1,6.881159782E0,-4.769493580E0,2.117139626E1
2.235893598E1,6.311069489E0,-1.986042738E0,1.551087475E1
2.237891812E1,6.349354744E0,-5.503492057E-2,1.188873959E1
2.239889624E1,6.509973049E0,1.374975681E0,9.045467377E0
2.241889322E1,4.689334393E0,1.415653706E0,6.384050846E0
2.243887129E1,1.639681697E0,4.405784607E-1,3.969393730E0
2.245883614E1,-5.042873621E-1,-2.204387933E-1,2.292623281E0
2.247881426E1,-1.182054400E0,-3.643072546E-1,2.019542217E0
2.249879682E1,-8.970093727E-1,-2.467598319E-1,2.433799744E0
2.251877489E1,-3.867399693E-1,-2.587239444E-1,2.766701221E0
2.253874728E1,-1.471585929E-1,-5.126622319E-1,2.879462957E0
2.255872541E1,4.187439755E-2,-1.152443171E0,3.837489367E0
2.257870572E1,-1.172483087E0,-2.548954248E0,5.538486958E0
2.259868385E1,-2.415853500E0,-3.751347780E0,5.251049519E0
2.261867473E1,1.139581800E-1,-2.730808735E0,5.018646240E0
2.263865280E1,2.135594130E0,1.532902002E0,1.743769526E0
2.265861890E1,2.600399971E0,6.367300987E0,-2.728415966E0
2.267859702E1,4.667798996E0,3.590729475E0,6.261717796E0
2.269857656E1,6.344569206E0,-3.404089212E0,2.249372864E1
2.271855473E1,5.709873199E0,-6.415157318E0,3.274158859E1
2.273853869E1,4.193421841E0,-4.961218834E0,2.943351364E1
2.275851676E1,2.645863533E0,-1.374975681E0,2.044547272E1
2.277848926E1,1.907976985E0,9.317052960E-1,1.564965820E1
2.279846739E1,1.618146300E0,1.947458506E0,1.323500156E1
2.281846348E1,1.139282703E0,2.800200701E0,1.135932732E1
2.283844156E1,9.403793216E-1,3.456731319E0,9.634700775E0
2.285840484E1,1.220638633E0,3.578765392E0,7.967501163E0
2.287838296E1,1.577468276E0,3.262613773E0,6.259325027E0
2.289836442E1,1.476969719E0,2.855235577E0,4.120141506E0
2.291834254E1,5.521438122E-1,2.733201742E0,2.335694075E0
2.293832098E1,-6.693921089E-1,3.198007345E0,1.604985833E0
2.295829911E1,-1.440778375E0,4.913063049E0,-6.972087026E-1
2.297828030E1,1.004985452E0,5.202893734E0,1.094716311E0
2.299825843E1,7.025028229E0,-2.989532709E0,1.728126335E1
2.301824374E1,8.833403587E0,-8.070392609E0,3.029821968E1
2.303822187E1,4.749154568E0,-7.325626373E0,2.842733192E1
2.305819864E1,2.128415823E0,-3.739383698E0,1.851955032E1
2.307817676E1,1.994417667E0,-5.413761139E-1,1.099531937E1
2.309815228E1,1.922333837E0,-6.421737671E-1,1.048265648E1
2.311813041E1,3.211168051E0,-7.929216027E-1,1.145294666E1
2.313810749E1,4.428217411E0,-1.845464408E-1,1.016650486E1
2.315808562E1,4.485645294E0,2.970091105E-1,6.324230194E0
2.317807260E1,3.453142166E0,6.969096065E-1,2.529512644E0
2.319805072E1,1.907976985E0,9.340981245E-1,-2.395813614E-1
2.321804369E1,8.300103545E-1,1.353440285E0,-1.537986755E0
2.323802176E1,5.018945336E-1,1.700698733E0,-3.520440459E-1
2.325799077E1,1.071984529E0,1.966601133E0,2.244467735E0
2.327796890E1,1.376172066E0,1.628913999E0,4.441378117E0
2.329794952E1,6.505486369E-1,2.086541414E0,4.791028976E0
2.331792780E1,-4.513461590E-1,4.299902439E0,2.647060156E0
2.333790338E1,-7.677969933E-1,6.498906136E0,1.557129383E0
2.335788166E1,2.240280211E-1,6.805486679E0,1.408475280E0
2.337786187E1,4.718048096E0,3.629014730E0,1.032951641E1
2.339784015E1,1.162911797E1,8.853443712E-2,2.536601448E1
2.341782327E1,1.393340588E1,-3.499503136E-1,2.957947540E1
2.343780156E1,9.559326172E0,7.953144312E-1,2.281227303E1
2.345776843E1,5.443970680E0,2.510370016E0,1.535025597E1
2.347774671E1,4.607678890E0,3.923630953E0,9.744770050E0
2.349772749E1,4.236492634E0,4.647160530E0,6.530013084E0
2.351770577E1,3.115455151E0,4.824528694E0,5.152644634E0
2.353768004E1,1.999203324E0,4.412364960E0,4.307080746E0
2.355765833E1,1.479362607E0,3.746562004E0,3.909573078E0
2.357763197E1,2.375175476E0,3.856631994E0,3.851846218E0
2.359761025E1,3.815056562E0,4.314259052E0,3.351148129E0
2.361762145E1,4.416253090E0,4.395615101E0,2.141576290E0
2.363759973E1,3.901198149E0,4.151247978E0,9.005986452E-1
2.365754249E1,2.928515911E0,3.562015533E0,1.582254022E-1
2.367752077E1,1.975275040E0,2.972783089E0,6.442674994E-1
2.369749713E1,2.161915302E0,3.255435228E0,1.942672849E0
2.371747541E1,3.192025423E0,4.474578381E0,2.033899307E0
2.373745119E1,3.742972851E0,4.582554340E0,1.077966571E0
2.375742947E1,4.171886444E0,1.305583835E0,3.803989887E0
2.377740645E1,3.894019842E0,-4.141975880E0,7.136294365E0
2.379738473E1,4.799404144E0,-8.513663292E0,1.213549900E1
2.381737958E1,6.315855503E0,-1.019043350E1,1.613121414E1
2.383735786E1,6.806982040E0,-9.198907852E0,1.960708809E1
2.385731562E1,5.417350292E0,-6.812964439E0,2.196431732E1
2.387729390E1,3.196810961E0,-4.549055099E0,2.243390846E1
2.389726973E1,3.089133978E0,-2.191825628E0,2.069701767E1
2.391724801E1,4.924129963E0,1.118644595E0,1.977249146E1
2.393722812E1,7.410571575E0,3.581158161E0,1.712543106E1
2.395720640E1,8.069195747E0,4.213461399E0,1.115832996E1
2.397718577E1,6.035595894E0,3.918845177E0,5.627021313E0
2.399716406E1,3.203989506E0,3.006282568E0,3.006282568E0
2.401713432E1,1.515254974E0,2.170290232E0,1.526022673E0
2.403711260E1,1.016949654E0,1.664806366E0,1.073180914E0
2.405709416E1,2.455634177E-1,9.293124676E-1,2.359622240E0
2.407707244E1,-7.148557901E-1,2.012962103E-1,4.944169998E0
2.409705098E1,-9.209375978E-1,-9.840483218E-2,6.963712215E0
2.411702926E1,-7.366902828E-1,-2.060818523E-1,7.313363075E0
2.413700577E1,-2.024926096E-1,-4.121637046E-1,6.779165745E0
2.415698400E1,5.952146053E-1,-6.756733060E-1,7.253542900E0
2.417695999E1,1.175175071E0,-1.238584876E0,9.297013283E0
2.419693827E1,1.992024899E0,-1.526022673E0,1.111256790E1
2.421694468E1,3.541676521E0,-8.048857450E-1,1.204935741E1
2.423692296E1,7.034599304E0,-1.162014484E0,1.167338562E1
2.425687780E1,1.173918819E1,-2.810070992E0,1.449751377E1
2.427685609E1,1.455165195E1,-3.485445261E0,2.002403641E1
2.429682952E1,1.418734455E1,-3.595814228E0,2.183510399E1
2.431680780E1,1.105184937E1,-2.666202545E0,2.008864403E1
2.433678812E1,8.299205780E0,-1.006181955E0,1.637558174E1
2.435676629E1,6.684648991E0,3.903291821E-1,1.295952702E1
2.437674421E1,4.995914459E0,1.133001566E0,9.888638496E0
2.439672239E1,3.601796389E0,1.209571838E0,7.193722248E0
2.441670395E1,2.300997972E0,1.202393413E0,4.865206718E0
2.443668213E1,1.817049742E0,1.604985833E0,2.972783089E0
2.445665280E1,2.411067963E0,2.031207323E0,2.151147604E0
2.447663098E1,3.585046530E0,1.940280080E0,2.069791555E0
2.449661411E1,3.987339735E0,1.724626899E0,1.173679471E0
2.451659228E1,2.981158018E0,1.715055585E0,-3.209373355E-1
2.453657437E1,1.738086581E0,1.823031783E0,-2.120040894E0
2.455655254E1,4.205385745E-1,1.590628862E0,-3.585943937E0
2.457653145E1,2.240280211E-1,4.357928336E-1,-3.327219963E0
2.459650963E1,1.136590719E0,-5.748756528E-1,8.135596663E-2
2.461649333E1,3.393321514E0,-1.207478166E0,9.435796738E0
2.463647150E1,4.820939541E0,-2.237588167E0,1.667019653E1
2.465644692E1,4.262813568E0,-1.966900229E0,2.023969078E1
2.467642510E1,4.411467552E0,-2.026720762E0,1.354427338E1
2.469641515E1,6.219843388E0,-3.490231037E0,9.318549156E0
2.471639327E1,1.040010452E1,-5.260620594E0,1.890778542E1
2.473636635E1,1.296102333E1,-6.338587284E0,2.623072052E1
2.475634452E1,1.062054348E1,-5.078466892E0,2.586910439E1
2.477632603E1,8.011768341E0,-2.553740025E0,2.098445702E1
2.479630421E1,8.723334312E0,1.435693540E-2,1.623440361E1
2.481628906E1,1.046949673E1,2.194218397E0,1.177149105E1
2.483626723E1,1.052483082E1,3.219542980E0,6.844070911E0
2.485624359E1,7.583154202E0,2.941676378E0,2.682952404E0
2.487622176E1,2.559721947E0,1.518545032E0,1.374975681E0
2.489620020E1,-3.029911816E-1,1.003789067E0,1.815853238E0
2.491617838E1,-1.423729509E-1,1.394118309E0,1.925923109E0
2.493616041E1,1.019342422E0,1.348654628E0,1.279262781E0
2.495613859E1,2.315355062E0,1.566700578E0,8.120641708E-1
2.497610932E1,3.512962818E0,2.120040894E0,2.706880569E-1
2.499608749E1,3.405285835E0,2.002493382E0,-3.448655605E-1
2.501608249E1,2.111665964E0,1.319940805E0,-3.448655605E-1
2.503606062E1,6.649056077E-1,7.280163169E-1,5.988038778E-1
2.505602327E1,-3.580260873E-1,3.089732230E-1,2.493620396E0
2.507600145E1,5.449653864E-1,1.004985496E-1,5.186143875E0
2.509598525E1,2.590828657E0,-3.161516786E-1,9.766305923E0
2.511596343E1,3.534498215E0,-1.142871857E0,1.210199928E1
2.513593937E1,4.392324924E0,-1.482951880E0,1.033908749E1
2.515591760E1,6.943373203E0,-1.106680512E0,7.466803074E0
2.517589806E1,1.141107178E1,-1.374975681E0,1.118465137E1
2.519587624E1,1.635284996E1,-1.839781523E0,2.113550377E1
2.521586056E1,1.713619995E1,-1.590628862E0,2.314517593E1
2.523583874E1,1.369861031E1,-1.797607988E-1,1.750379753E1
2.525581812E1,1.063250732E1,1.844567180E0,1.328076363E1
2.527579629E1,8.311170578E0,2.721237659E0,1.168295670E1
2.529577432E1,6.320641041E0,2.656631231E0,1.082034397E1
2.531575249E1,4.667798996E0,2.074577332E0,9.138788223E0
2.533572843E1,2.875873804E0,1.456331730E0,7.447660446E0
2.535570661E1,1.402493119E0,9.819545746E-1,5.962316036E0
2.537568244E1,3.053839803E-1,3.161516786E-1,4.934598446E0
2.539566067E1,-1.399801224E-1,-4.001995921E-1,4.889134884E0
2.541564484E1,1.163510010E-1,-8.745766878E-1,4.982754230E0
2.543562306E1,3.101696372E-1,-1.233799219E0,4.465306282E0
2.545559192E1,1.474576890E-1,-1.063609719E0,3.293720484E0
2.547557015E1,9.481559694E-2,-3.858426511E-1,2.704487801E0
2.549554489E1,4.683950245E-1,1.674975902E-1,3.418446302E0
2.551552312E1,4.947160780E-1,2.153540403E-2,4.237689018E0
2.553549687E1,-6.819544733E-2,-2.392822690E-2,4.783850670E0
2.555547515E1,-4.034897089E-1,4.381856322E-1,6.654738903E0
2.557545333E1,9.960123897E-2,6.562315822E-1,9.500403404E0
2.559543156E1,9.164510965E-1,4.621138871E-1,1.081077290E1
2.561541520E1,1.266102314E0,8.958129883E-1,1.274895859E1
2.563539343E1,2.629113913E0,7.208378315E-1,1.165155029E1
2.565535926E1,6.708577156E0,-2.397907495E0,1.625354767E1
2.567533749E1,1.244118214E1,-4.369593143E0,2.752673340E1
2.569531369E1,1.402941799E1,-3.902394533E0,3.001078224E1
2.571529192E1,1.143021488E1,-2.002792597E0,2.250090790E1
2.573527187E1,1.095105171E1,2.060818523E-1,1.647877121E1
2.575525015E1,1.260389423E1,1.854138494E0,1.421007633E1
2.577523020E1,1.211545944E1,2.745165825E0,1.300050449E1
2.579520843E1,9.151947975E0,2.737987280E0,1.077488041E1
2.581518463E1,5.843871117E0,1.940280080E0,7.337291718E0
2.583516286E1,3.625724554E0,1.216750264E0,4.161118507E0
2.585513296E1,2.990729094E0,1.176072359E0,1.997707844E0
2.587511119E1,2.775375128E0,1.470688581E0,1.032503009E0
2.589508666E1,2.085345030E0,1.664806366E0,1.054038405E0
2.591506489E1,1.848156333E0,1.648056626E0,1.231406331E0
2.593504197E1,1.570289850E0,1.494616866E0,1.250548959E0
2.595502025E1,8.682954907E-1,1.360618830E0,8.599206209E-1
2.597499713E1,4.636093974E-1,1.056431174E0,7.498508096E-1
2.599497536E1,7.088737190E-2,8.216354847E-1,8.647062778E-1
2.601496645E1,-7.654041648E-1,8.001000881E-1,1.566700578E0
2.603494468E1,-9.903294444E-1,6.179464459E-1,3.686741590E0
2.605491036E1,-5.736792088E-1,4.573282301E-1,5.157430172E0
2.607488859E1,-5.018945336E-1,6.681957245E-1,5.612664700E0
2.609486129E1,1.211366430E-1,1.736590981E0,7.840382576E0
2.611483952E1,-4.851447940E-1,2.328216314E0,1.541276932E1
2.613481629E1,1.572682738E0,-2.385943174E0,2.437897491E1
2.615479458E1,1.496112347E0,-5.210371494E0,2.825026321E1
2.617477239E1,-5.258227587E-1,-3.542873144E0,2.429283333E1
2.619475062E1,-1.086341500E0,-1.430309772E0,1.649312782E1
2.621472942E1,-1.893620014E0,4.046861231E-1,1.256201935E1
2.623470765E1,-2.684148788E0,1.401296735E0,1.105035400E1
2.625467822E1,-2.456531525E0,1.703091502E0,8.180761337E0
2.627465645E1,-2.317448616E0,2.321038008E0,5.097609520E0
2.629463890E1,-2.442174673E0,2.318645239E0,2.659024239E0
2.631461718E1,-1.876870275E0,1.791625977E0,2.412264347E0
2.633459489E1,-1.752144337E0,1.581057549E0,3.830310822E0
2.635457317E1,-1.912762642E0,1.097109199E0,5.562415123E0
2.637454869E1,-1.282852054E0,9.388837814E-1,7.143472672E0
2.639452692E1,-5.042873621E-1,1.401296735E0,7.555337429E0
2.641451958E1,-2.718844712E-1,1.698305845E0,6.271288872E0
2.643449770E1,-5.808576941E-1,1.669592023E0,5.116752148E0
2.645446520E1,-9.855438471E-1,1.485045552E0,6.697809696E0
2.647444338E1,-1.622931957E0,8.168498278E-1,1.117508030E1
2.649443046E1,-1.680359721E0,-1.654038578E-1,1.434915924E1
2.651440859E1,-1.867298961E0,-6.373881102E-1,1.610010719E1
2.653438062E1,-1.388136268E0,3.329014480E-1,1.421246910E1
2.655435879E1,-1.514955878E0,1.425225019E0,8.286046028E0
2.657434265E1,-2.624328136E0,2.098505497E0,5.514558792E0
2.659432083E1,-2.822932482E0,1.066002488E0,1.086132145E1
2.661430702E1,-1.824228168E0,-9.750752449E-1,1.728365707E1
2.663428515E1,-9.735797048E-1,-1.284048438E0,2.008864403E1
2.665425458E1,-2.623131871E-1,-1.606182158E-1,1.814357758E1
2.667423275E1,2.120639086E-1,1.171286702E0,1.424596882E1
2.669421504E1,-1.232303679E-1,1.909173369E0,1.046112156E1
2.671419322E1,-7.773682475E-1,2.033600092E0,7.965108395E0
2.673417192E1,-1.481456280E0,1.712662816E0,6.544369698E0
2.675415010E1,-2.090130568E0,1.312762380E0,5.595914841E0
2.677413046E1,-2.423032045E0,1.324726462E0,5.382654667E0
2.679410864E1,-2.528316259E0,1.633699656E0,5.890531063E0
2.681408921E1,-2.499602318E0,1.700698733E0,6.551548481E0
2.683406734E1,-2.537887573E0,1.403689623E0,6.913462639E0
2.685403687E1,-2.710469961E0,1.116251707E0,7.054639339E0
2.687401504E1,-2.794218540E0,9.604191780E-1,7.224828720E0
2.689399145E1,-2.492423773E0,8.647062778E-1,6.865606308E0
2.691396963E1,-2.097309113E0,1.046859860E0,6.312266350E0
2.693394338E1,-2.020439625E0,1.571486235E0,6.336194515E0
2.695392156E1,-2.216950178E0,1.961815476E0,6.213861465E0
2.697390317E1,-2.629113913E0,1.772483349E0,6.029314995E0
2.699388135E1,-3.079263687E0,1.458724499E0,8.134998322E0
2.701387463E1,-3.517748356E0,1.671984792E0,1.075334454E1
2.703385275E1,-4.351347923E0,2.000100613E0,1.161087322E1
2.705381187E1,-5.101198673E0,2.479263306E0,1.194646645E1
2.707379004E1,-5.314459324E0,2.507977247E0,9.747162819E0
2.709377030E1,-6.068796635E0,2.076970100E0,1.217856979E1
2.711374848E1,-6.042475224E0,1.231107235E0,1.680688667E1
2.713372499E1,-4.284348965E0,2.802593410E-1,1.818664932E1
2.715370317E1,-4.792225361E0,1.080359459E0,1.662712669E1
2.717368447E1,-5.920441628E0,2.287538528E0,1.250937748E1
2.719366265E1,-5.556433201E0,2.405085802E0,9.067003250E0
2.721364228E1,-5.108377457E0,1.913959026E0,7.121937275E0
2.723362046E1,-4.581357956E0,1.624128342E0,5.665306568E0
2.725359713E1,-3.838685751E0,1.782054663E0,4.285545349E0
2.727357530E1,-3.100799084E0,1.983350873E0,3.974179268E0
2.729355286E1,-2.681756020E0,1.722234130E0,5.128716469E0
2.731353103E1,-2.542673111E0,1.288834095E0,6.381658077E0
2.733351286E1,-2.315055847E0,1.441974759E0,6.623631954E0
2.735349103E1,-2.037189484E0,1.856531262E0,6.398407936E0
2.737347348E1,-2.310270309E0,1.906780601E0,6.530013084E0
2.739345166E1,-2.674577475E0,1.813460469E0,7.167401314E0
2.741343562E1,-2.724826813E0,1.913959026E0,7.644171238E0
2.743341374E1,-3.076870918E0,2.417049885E0,8.103892326E0
2.745339041E1,-4.569394112E0,2.790629387E0,1.072941685E1
2.747336859E1,-6.334698677E0,2.500798702E0,1.455494213E1
2.749334682E1,-6.064010620E0,1.851745605E0,1.683560181E1
2.751332499E1,-3.064906597E0,2.277967215E0,1.456212044E1
2.753330395E1,-7.298108935E-2,3.585943937E0,8.621339798E0
2.755328218E1,-1.888834357E0,4.948955536E0,7.967501163E0
2.757326312E1,-4.729712963E0,4.568197727E0,1.266730404E1
2.759324124E1,-4.178765774E0,3.298506021E0,1.559462357E1
2.761322838E1,-2.854039192E0,3.265006542E0,1.445683575E1
2.763320656E1,-3.512962818E0,3.420839071E0,1.152233791E1
2.765318202E1,-5.098805904E0,2.953640461E0,7.962715626E0
2.767316020E1,-5.652146339E0,3.073281527E0,3.552444220E0
2.769314119E1,-3.419642687E0,3.200400352E0,6.618846416E0
2.771311937E1,-2.739183664E0,3.753740549E0,1.115115166E1
2.773309838E1,-5.534598827E0,2.718844652E0,8.961420059E0
2.775307661E1,-5.795715332E0,7.160521746E-1,3.164507866E0
2.778818630E1,-1.160519004E0,2.261217356E0,9.754341125E0
2.780816463E1,-9.209375978E-1,2.917748213E0,9.625128746E0
2.782813187E1,-1.290030479E0,3.389433384E0,9.273084641E0
2.784811015E1,-1.416850090E0,3.317648649E0,9.423832893E0
2.786808906E1,-1.357029557E0,3.044567823E0,9.469296455E0
2.788806734E1,-1.301994562E0,2.723630428E0,9.318549156E0
2.790804901E1,-1.278066397E0,2.455335140E0,9.335298538E0
2.792802729E1,-1.304387450E0,2.333002090E0,9.605986595E0
2.794800911E1,-1.608574986E0,2.242074728E0,9.553344727E0
2.796798739E1,-1.896012783E0,2.108076811E0,9.574879646E0
2.798796849E1,-1.833799481E0,1.693520188E0,9.833603859E0
2.800794677E1,-1.342672586E0,1.123430252E0,9.646664619E0
2.802792979E1,-5.377869010E-1,6.131607890E-1,9.843174934E0
2.804790807E1,2.273181453E-2,1.483550072E-1,1.011147022E1
2.806787922E1,3.077768087E-1,1.435693540E-2,1.045394325E1
2.808785750E1,1.067797095E-1,-2.659024298E-1,1.080838013E1
2.810784057E1,-2.407777756E-1,-3.643072546E-1,1.124686432E1
2.812781885E1,-4.465605319E-1,-3.499503136E-1,1.186481094E1
2.814780125E1,-5.282155871E-1,-3.810569942E-1,1.319671631E1
2.816777953E1,9.930213690E-1,-4.456632137E-1,1.117747307E1
2.818775349E1,1.352243900E0,-5.868397355E-1,6.173183441E0
2.820773177E1,2.512463741E-2,-1.449452281E0,2.069791555E0
2.822771531E1,-2.688934565E0,-2.747857809E0,2.871387079E-2
2.824769359E1,-3.949054718E0,-2.659024239E0,1.435693540E-2
2.826767166E1,-4.159623146E0,-2.412264347E0,1.219442248E0
2.828764994E1,-2.164308071E0,-1.569093466E0,1.619342685E0
2.830763093E1,5.234299302E-1,-4.546362907E-2,2.915355206E0
2.832760922E1,-1.021735311E0,4.546362907E-2,7.993822098E0
2.834759093E1,-2.530709028E0,4.286143482E-1,8.156534195E0
2.836756922E1,-5.545366406E-1,3.336791277E0,8.424829483E0
2.838754630E1,5.690730572E0,5.389832973E0,6.697809696E0
2.840752458E1,1.032592678E1,1.882852316E0,1.230329609E1
2.842751031E1,9.638289452E0,-4.702494621E0,2.789074135E1
2.844748859E1,7.539783955E0,-7.572386265E0,3.124697304E1
2.846747411E1,4.533501625E0,-5.737390518E0,2.352144623E1
2.848745239E1,2.645863533E0,-2.522633314E0,1.553240967E1
2.850743739E1,2.030309916E0,-1.223330572E-1,1.146969604E1
2.852741567E1,2.025524378E0,9.508479238E-1,1.076530933E1
2.854739468E1,1.254138112E0,9.221340418E-1,9.886245728E0
2.856737296E1,4.516452849E-1,8.670991063E-1,7.826025486E0
2.858735588E1,1.785643846E-1,1.054038405E0,6.252146244E0
2.860733416E1,1.761715710E-1,9.580263495E-1,5.686841965E0
2.862732192E1,4.133601189E-1,7.522436380E-1,5.279763222E0
2.864730020E1,1.100698471E0,9.747761488E-1,5.569593906E0
2.866727932E1,1.383350611E0,7.833502889E-1,5.753840923E0
2.868725760E1,6.433702111E-1,1.196411345E-2,5.432903767E0
2.870724729E1,-6.669993401E-1,-7.498508096E-1,5.461617470E0
2.872722557E1,-1.148554921E0,-1.542772412E0,6.158826351E0
2.874720994E1,-5.593222976E-1,-2.201396942E0,8.288438797E0
2.876718823E1,3.750749528E-1,-1.696212173E0,8.532805443E0
2.878716234E1,1.187139153E0,-1.343868971E0,9.134002686E0
2.880714088E1,1.711765528E0,-1.998006940E0,1.051854897E1
2.882713489E1,3.093919754E0,-3.135794163E0,8.937491417E0
2.884711343E1,5.429613590E0,-5.665306568E0,1.081077290E1
2.886708526E1,6.600900173E0,-8.765208244E0,1.829432487E1
2.888706380E1,4.751547337E0,-8.389236450E0,2.423540497E1
2.890704619E1,2.761018276E0,-5.277370453E0,2.330579376E1
2.892702474E1,3.635295868E0,-2.630310297E0,1.785614014E1
2.894701104E1,4.806582451E0,-8.670991063E-1,1.191266727E1
2.896698958E1,5.043771267E0,9.891330600E-1,6.920641422E0
2.898696015E1,4.792225361E0,2.167897224E0,4.477270126E0
2.900693869E1,3.807579041E0,1.995314956E0,3.981357813E0
2.902691911E1,2.200200319E0,1.346261859E0,3.897608995E0
2.904689765E1,1.088734269E0,9.317052960E-1,3.974179268E0
2.906687573E1,8.563314080E-1,9.723833203E-1,3.998107433E0
2.908685427E1,1.397707582E0,1.135394335E0,3.796811342E0
2.910684104E1,2.434996128E0,1.334297776E0,3.293720484E0
2.912681958E1,2.808874607E0,1.250249863E0,4.278367043E0
2.914679859E1,2.346461773E0,5.389832854E-1,6.307480335E0
2.916677713E1,1.345065475E0,-7.926224917E-2,7.730312824E0
2.918675349E1,2.742772996E-1,-5.341976285E-1,8.044071198E0
2.920673203E1,2.934198678E-1,-3.379862010E-1,8.889635086E0
2.922671192E1,4.313062668E0,-2.539383173E-1,1.185523987E1
2.924669046E1,1.034746265E1,-5.676971674E-1,2.029233170E1
2.926666521E1,1.236192036E1,-1.006181955E0,2.437418938E1
2.928664375E1,1.050060272E1,-3.547359705E-1,2.389502525E1
2.930662963E1,9.130413055E0,8.120641708E-1,2.025883293E1
2.932660817E1,7.558926582E0,1.968993902E0,1.465095425E1
2.934658588E1,5.194818020E0,2.321038008E0,8.997611046E0
2.936656442E1,2.607578516E0,2.455335140E0,4.287938118E0
2.938654489E1,5.353940725E-1,2.730808735E0,1.657627940E0
2.940652343E1,2.144567221E-1,3.034996510E0,8.623134494E-1
2.942650213E1,1.491326690E0,3.430410385E0,1.514058471E0
2.944648067E1,3.160918713E0,3.545265913E0,3.171686411E0
2.946645177E1,4.336990833E0,3.509373426E0,4.103391647E0
2.948643031E1,4.150351048E0,3.150151014E0,3.384946823E0
2.950641521E1,2.638685226E0,2.582154751E0,1.815853238E0
2.952639375E1,1.165603757E0,2.203789711E0,1.439581871E0
2.954637213E1,7.223333120E-1,1.878066659E0,2.615953445E0
2.956635067E1,6.481558084E-1,2.148754835E0,4.836492538E0
2.958632515E1,1.285244823E0,3.166900873E0,6.810272217E0
2.960630369E1,2.528615236E0,4.254438877E0,8.896813393E0
2.962628734E1,4.016053677E0,4.151247978E0,9.759127617E0
2.964626588E1,4.969593525E0,1.973779559E0,1.221236897E1
2.966624317E1,6.346961975E0,-3.810569942E-1,1.954487419E1
2.968622172E1,8.014161110E0,-8.913264275E-1,2.353580284E1
2.970621031E1,6.639185429E0,2.659024298E-1,2.189253235E1
2.972618885E1,4.265206337E0,1.161715388E0,1.717328835E1
2.974616609E1,3.546761274E0,1.717448473E0,1.202064323E1
2.976614463E1,3.395714521E0,2.812164783E0,7.656135082E0
2.978612453E1,3.433999538E0,3.981357813E0,4.716851711E0
2.980610307E1,3.611367464E0,4.520340919E0,3.372982502E0
2.982608427E1,3.249453068E0,4.290330887E0,2.639881611E0
2.984606302E1,2.226820469E0,3.552444220E0,2.081755638E0
2.986603948E1,1.107876897E0,2.735594511E0,2.108076811E0
2.988601812E1,5.138586760E-1,2.371586323E0,2.944069147E0
2.990599948E1,9.020941257E-1,2.500798702E0,4.323830605E0
2.992597817E1,1.172782183E0,2.347658157E0,6.314659119E0
2.994595875E1,2.647060156E-1,1.935494423E0,7.315756321E0
2.996593744E1,-1.186840057E0,2.313859463E0,7.068996429E0
2.998591218E1,-1.227517962E0,3.217149973E0,7.811668396E0
3.000589083E1,9.092726111E-1,4.148855209E0,1.026939678E1
3.002587401E1,4.538287163E0,2.632703066E0,1.660559082E1
3.004585276E1,6.943373203E0,-8.404789865E-2,2.444597435E1
3.006582354E1,6.955337048E0,4.785645287E-3,2.442922401E1
3.008580224E1,5.432006359E0,1.298405409E0,1.851715660E1
3.010578364E1,4.054338932E0,2.270788670E0,1.419571972E1
3.012576234E1,2.365604401E0,2.534298182E0,1.201585770E1
3.014575375E1,1.417149186E0,2.642274380E0,1.079641533E1
3.016573244E1,1.392921925E0,2.670988321E0,9.076574326E0
3.018570281E1,1.481755376E0,2.795415163E0,6.695416927E0
3.020568146E1,1.534397483E0,2.816950560E0,4.467699051E0
3.022566797E1,1.706979871E0,2.852842808E0,2.953640461E0
3.024564672E1,2.075773716E0,2.922533751E0,1.928315997E0
3.026562500E1,2.391925335E0,3.011068106E0,9.607182741E-1
3.028560369E1,2.284248352E0,2.877070189E0,2.802593410E-1
3.030557937E1,1.888834357E0,2.563012123E0,4.067798331E-2
3.032555807E1,1.340279818E0,2.210968018E0,3.616153300E-1
3.034554750E1,1.124626637E0,1.923530340E0,1.765604019E0
3.036552619E1,1.067198873E0,1.571486235E0,3.703491211E0
3.038549005E1,8.324031830E-1,1.140179992E0,6.110970020E0
3.040546869E1,9.116654396E-1,6.538388133E-1,8.504091263E0
3.042545083E1,1.412363529E0,3.975076675E-1,1.039172935E1
3.044542953E1,1.864906192E0,2.635096014E-1,1.362802219E1
3.046541437E1,2.411067963E0,8.853443712E-2,1.671087456E1
3.048539307E1,2.327319145E0,3.161516786E-1,1.460309792E1
3.050537588E1,2.339283228E0,1.316052526E-1,1.541276932E1
3.052535458E1,3.879662752E0,-3.185445070E-1,1.920000839E1
3.054535802E1,4.825725079E0,3.185445070E-1,1.932682800E1
3.056533672E1,5.386243820E0,1.353440285E0,1.862034798E1
3.058528750E1,5.831906796E0,2.201396942E0,1.696959877E1
3.060526619E1,5.843871117E0,2.852842808E0,1.364477158E1
3.062525057E1,5.338387489E0,3.504587889E0,9.356833458E0
3.064522932E1,4.409074783E0,3.768097401E0,6.139683723E0
3.066520599E1,3.367000580E0,3.332005501E0,4.592125893E0
3.068518468E1,2.449352980E0,2.726023197E0,4.197010994E0
3.070516708E1,1.994417667E0,2.572583437E0,4.141676903E0
3.072514583E1,1.879263043E0,2.651845694E0,3.789632797E0
3.074512692E1,1.515254974E0,2.666202545E0,2.639881611E0
3.076510562E1,8.973084688E-1,2.606082916E0,1.485344648E0
3.078507578E1,3.750749528E-1,2.359622240E0,1.681556106E0
3.080505442E1,4.905286431E-2,1.700698733E0,2.409871578E0
3.082503791E1,1.163510010E-1,1.284048438E0,2.290230274E0
3.084501661E1,1.160818100E0,2.110469580E0,-1.274477124E0
3.086499224E1,3.132204771E0,3.894917011E0,-3.255435228E0
3.088497099E1,9.202496529E0,1.683948994E0,8.180761337E0
3.090495677E1,1.500180149E1,-3.662813187E0,2.233311081E1
3.092493552E1,1.403420353E1,-5.322834015E0,2.760330200E1
3.094492588E1,9.092127800E0,-2.627917528E0,1.981556320E1
3.096490468E1,6.299105644E0,-3.499503136E-1,1.318475151E1
3.098486932E1,4.354039669E0,2.778665423E-1,1.217378426E1
3.100484807E1,1.860120535E0,1.703091502E0,1.247348499E1
3.102482552E1,-1.160519004E0,3.906881094E0,1.068634605E1
3.104480427E1,-2.564208508E0,5.238786221E0,7.150651455E0
3.106478052E1,-2.154736757E0,5.257928848E0,5.955137253E0
3.108475927E1,-7.316055298E-1,4.264009953E0,6.906284332E0
3.110474052E1,1.366600871E0,2.220539331E0,7.751848221E0
3.112471927E1,1.666002750E0,4.597210586E-1,7.584051132E0
3.114470031E1,1.807478428E0,5.868397355E-1,6.520441532E0
3.116467906E1,4.897809029E0,3.903291821E-1,4.656732082E0
3.118465562E1,9.861121178E0,-2.014756680E0,1.187916756E1
3.120463437E1,1.272622681E1,-2.596810818E0,2.015085602E1
3.122461635E1,1.028764153E1,-1.066002488E0,2.033540344E1
3.124459515E1,7.063313484E0,7.977072597E-1,1.470359612E1
3.126457422E1,6.272784710E0,2.297109842E0,1.012343407E1
3.128455297E1,6.327819347E0,3.300898790E0,7.533802032E0
3.130453088E1,5.539683342E0,4.218546391E0,5.406582832E0
3.132450963E1,3.944268942E0,4.711766720E0,3.844667673E0
3.134449078E1,1.675873160E0,4.742873669E0,2.668595552E0
3.136446953E1,-7.558328509E-1,4.656732082E0,1.621735573E0
3.138444776E1,-1.905584097E0,4.613661289E0,1.688734531E0
3.140442651E1,-1.649253011E0,3.918845177E0,3.169293642E0
3.142440817E1,-1.091127157E0,2.443371058E0,6.870391846E0
3.144438692E1,-1.974078715E-1,1.104287624E0,9.747162819E0
3.146437057E1,1.062413216E0,1.540379524E0,7.392625332E0
3.148434932E1,3.503391504E0,8.024929166E-1,8.221439362E0
3.150433312E1,7.063313484E0,-1.971685886E0,1.768595123E1
3.152431187E1,1.032353401E1,-3.174079180E0,2.515753937E1
3.154427760E1,9.271888733E0,-1.621735573E0,2.206720924E1
3.156425635E1,5.690730572E0,4.546362907E-2,1.279681587E1
3.158424744E1,2.619542599E0,5.940182209E-1,9.167501450E0
3.160422619E1,-2.096710801E-1,8.431708813E-1,1.019521904E1
3.162420734E1,-1.749751568E0,1.581057549E0,1.061456108E1
3.164418609E1,-2.281556368E0,2.838485956E0,8.903991699E0
3.166416271E1,-2.243271112E0,3.710669756E0,7.473981380E0
3.168414146E1,-2.140379906E0,3.696312666E0,7.148258686E0
3.170412968E1,-1.191625714E0,2.951247692E0,6.839285374E0
3.172410849E1,-1.900798440E0,1.966601133E0,5.835496426E0
3.174407849E1,-2.566601276E0,1.444367528E0,4.925027370E0
3.176405724E1,-2.013261080E0,3.592225015E-1,6.563512325E0
3.178404588E1,-7.606185079E-1,1.770688742E-1,9.773484230E0
3.180402463E1,1.263709426E0,9.628120065E-1,7.797311783E0
3.182401161E1,3.000300407E0,1.076770201E-1,4.599304199E0
3.184399036E1,4.595715046E0,-2.366800785E0,1.109581757E1
3.186397083E1,5.597111225E0,-3.518944740E0,1.821057701E1
3.188394958E1,3.424428225E0,-1.911566138E0,1.933400726E1
3.190393271E1,5.545366406E-1,1.319940805E0,1.344826126E1
3.192391161E1,-6.358926296E-1,3.300898790E0,7.318149090E0
3.194391713E1,-7.244270444E-1,2.702095032E0,4.482056141E0
3.196389609E1,-4.779663086E-1,2.175075769E0,6.388836384E0
3.198384703E1,1.019940674E-1,1.885245085E0,9.428618431E0
3.200382588E1,3.535395563E-1,1.652842283E0,1.021436119E1
3.202380994E1,-5.497509837E-1,2.117648125E0,8.774779320E0
3.204378885E1,-2.281556368E0,1.964208245E0,5.485546112E0
3.206376656E1,-4.262813568E0,1.042074203E0,3.509373426E0
3.208374546E1,-4.607678890E0,5.318048596E-1,4.057928085E0
3.210372692E1,-2.636292458E0,6.538388133E-1,6.887141705E0
3.212370588E1,3.948157281E-2,7.426723242E-1,9.629914284E0
3.214369396E1,3.058027267E0,1.353440285E0,1.128993511E1
3.216367296E1,5.019842625E0,1.296012521E0,1.216899872E1
3.218363666E1,4.428217411E0,-5.222335458E-1,1.505085468E1
3.220361557E1,2.427817583E0,-2.915355206E0,1.900110626E1
3.222359744E1,2.765803814E0,-2.822035313E0,1.902264023E1
3.224357635E1,3.481856108E0,-1.432702541E0,1.825364685E1
3.226355526E1,2.248355865E0,-5.294120312E-1,1.557308769E1
3.228353416E1,5.377869010E-1,1.914258152E-1,1.159651566E1
3.230352213E1,-1.162911773E0,9.340981245E-1,7.924430370E0
3.232350104E1,-2.133201361E0,1.796411633E0,5.159822941E0
3.234354531E1,-2.787040234E0,2.963211775E0,3.198007345E0
3.236352422E1,-4.442275047E0,3.260220766E0,3.751347780E0
3.238343416E1,-6.835396767E0,3.511766434E0,6.355337143E0
3.240341302E1,-7.829614639E0,3.629014730E0,9.589237213E0
3.242339505E1,-4.775475979E0,2.877070189E0,1.146969604E1
3.244337401E1,-8.802596331E-1,2.414657116E0,9.857531548E0
3.246335333E1,-1.079162955E0,1.837388635E0,6.000600815E0
3.248333224E1,-3.702294827E0,1.501795292E0,1.007079220E1
3.250331682E1,-3.544069529E0,9.364909530E-1,1.486660671E1
3.252329573E1,-1.481456280E0,1.106680512E0,1.473948860E1
3.254330307E1,-7.558328509E-1,2.761915445E0,1.213310623E1
3.256328198E1,-1.479063511E0,3.803989887E0,8.453842163E0
3.258323885E1,-2.578565598E0,3.978965044E0,5.696413517E0
3.260321771E1,-2.890230656E0,3.734597921E0,5.528915882E0
3.262319948E1,-2.978765011E0,3.207578659E0,7.545766354E0
3.264317838E1,-2.755933523E0,2.555833578E0,8.832207680E0
3.266316172E1,-2.619542599E0,2.002493382E0,8.051250458E0
3.268314062E1,-3.040978432E0,1.523330688E0,6.233004093E0
3.270312396E1,-3.299702406E0,1.240678549E0,4.925027370E0
3.272310286E1,-3.414856911E0,1.207179070E0,5.159822941E0
3.274311390E1,-3.479463339E0,1.408475280E0,7.124330521E0
3.276309286E1,-2.621935368E0,2.230110645E0,9.179466248E0
3.278304718E1,-2.456531525E0,2.879462957E0,9.838389397E0
3.280302609E1,-3.783650875E0,3.495016575E0,9.457332611E0
3.282300672E1,-4.856831551E0,4.412364960E0,1.119900799E1
3.284298562E1,-3.833899975E0,4.508377075E0,9.984351158E0
3.286296734E1,-4.775475979E0,3.890131474E0,7.950751305E0
3.288294625E1,-7.039085865E0,3.801596880E0,9.062217712E0
3.290293630E1,-5.889334679E0,3.645764351E0,9.316155434E0
3.292291520E1,-5.192125797E0,4.167997837E0,1.093071270E1
3.294290218E1,-5.434100151E0,3.950251102E0,1.355862999E1
3.296288135E1,-4.500001907E0,3.784847260E0,1.306511116E1
3.298285177E1,-3.661317825E0,4.230510235E0,9.088538170E0
3.300283093E1,-4.308277130E0,4.412364960E0,4.834099770E0
3.302281536E1,-5.304887772E0,4.179962158E0,3.082852840E0
3.304279453E1,-5.771787167E0,3.676871061E0,4.551447868E0
3.306276896E1,-5.122734070E0,3.190829039E0,7.200900555E0
3.308274812E1,-4.403990269E0,3.118745327E0,8.484949112E0
3.310274291E1,-4.229313850E0,3.741776466E0,8.149355888E0
3.312272208E1,-3.879363775E0,4.635196686E0,7.428517818E0
3.314270286E1,-3.987339735E0,4.611268520E0,6.614060879E0
3.316268203E1,-5.220839977E0,3.768097401E0,6.688238621E0
3.318265729E1,-5.525027275E0,3.471088409E0,7.322934628E0
3.320263646E1,-5.110770226E0,3.511766434E0,9.198608398E0
3.322261916E1,-5.949155331E0,2.685345173E0,1.047069263E1
3.324259833E1,-7.460821152E0,2.237289190E0,6.096612930E0
3.326257500E1,-3.107977629E0,4.599304199E0,5.049753189E0
3.328255416E1,-6.119644046E-1,7.287042141E0,3.796811342E0
3.330253593E1,-6.720541477E0,6.146862507E0,3.600300789E0
3.332251510E1,-9.343673706E0,2.007279158E0,4.498805523E0
3.335681094E1,-1.857727647E0,3.281756163E0,7.433303356E0
3.337674797E1,-2.456531525E0,3.679563046E0,7.888238907E0
3.339672802E1,-1.829013824E0,3.521337509E0,9.287442207E0
3.341670698E1,-9.400802255E-1,3.236292601E0,1.004177952E1
3.343668703E1,-5.784648657E-1,3.130709410E0,9.795318604E0
3.345667318E1,-6.693921089E-1,3.274577856E0,9.318549156E0
3.347665323E1,-6.693921089E-1,3.514159203E0,8.908778191E0
3.349663172E1,-7.220342159E-1,3.595515013E0,8.178368568E0
3.351661177E1,-1.170090318E0,3.367897987E0,7.540980339E0
3.353659172E1,-1.572682738E0,2.850450039E0,8.640482903E0
3.355658755E1,-1.198804140E0,2.237289190E0,1.073659515E1
3.357656760E1,-1.026520967E0,2.230110645E0,1.102403259E1
3.359654557E1,-1.136590719E0,2.795415163E0,9.143573761E0
3.361652563E1,-9.257232547E-1,3.528516054E0,7.502695560E0
3.363650130E1,-4.274179339E-1,4.033999920E0,7.447660446E0
3.365648135E1,2.527419031E-1,4.206283092E0,7.493124008E0
3.367646042E1,8.371888399E-1,4.240081787E0,7.531409264E0
3.369644047E1,1.026520967E0,3.708276987E0,7.804490089E0
3.371642406E1,8.853443861E-1,2.718844652E0,8.219046593E0
3.373640412E1,8.180462122E-1,1.765304923E0,9.153144836E0
3.375638745E1,1.134197950E0,9.867402315E-1,1.066720295E1
3.377636750E1,2.214856386E0,7.618148923E-1,1.177388382E1
3.379637474E1,2.899801970E0,8.144569993E-1,1.169492054E1
3.381635484E1,2.483151674E0,7.328019142E-1,1.094985580E1
3.383631443E1,1.278066397E0,8.958129883E-1,8.846564293E0
3.385629448E1,6.888338327E-1,1.178465128E0,7.912466049E0
3.387627901E1,5.473581553E-1,1.628913999E0,8.944669724E0
3.389625906E1,2.176272154E0,2.357229471E0,9.270691872E0
3.391624083E1,2.839981318E0,2.462513685E0,8.961420059E0
3.393622089E1,1.927119493E0,2.012064695E0,8.892027855E0
3.395620599E1,1.498505235E0,1.861316919E0,8.652446747E0
3.397618604E1,1.848156333E0,2.151147604E0,8.956634521E0
3.399617219E1,2.130808592E0,2.285145521E0,1.002263641E1
3.401615224E1,1.944168448E0,2.035992861E0,9.608379364E0
3.403612745E1,1.821835399E0,1.875673890E0,9.196215630E0
3.405610750E1,1.912762642E0,2.246860504E0,9.819247246E0
3.407609875E1,2.818445921E0,2.115255117E0,9.953245163E0
3.409607880E1,4.593322277E0,1.988136530E0,9.661021233E0
3.411605688E1,4.404289246E0,1.813460469E0,9.661021233E0
3.413603693E1,2.696112871E0,1.039681435E0,9.157930374E0
3.415601823E1,3.323929787E0,7.761718631E-1,8.786744118E0
3.417599828E1,3.335893869E0,6.897311211E-1,8.369794846E0
3.419600594E1,3.345465183E0,1.013360381E0,8.487341881E0
3.421598599E1,3.422035456E0,1.398903966E0,7.967501163E0
3.423593906E1,2.988336325E0,1.099501967E0,7.246364117E0
3.425591912E1,3.263810158E0,7.618148923E-1,7.924430370E0
3.427590443E1,3.290430307E0,8.240283132E-1,8.963812828E0
3.429588448E1,3.105883837E0,1.106680512E0,7.873881817E0
3.431586188E1,3.120240688E0,1.339083314E0,6.292824268E0
3.433584193E1,2.406282187E0,1.705484390E0,5.097609520E0
3.435582760E1,1.000199914E0,1.602592945E0,4.848456860E0
3.437580766E1,1.043868884E-1,1.022931695E0,6.067899227E0
3.439577281E1,-4.034897089E-1,4.549354017E-1,6.978068829E0
3.441575292E1,-9.233304262E-1,2.491526604E-1,6.407979012E0
3.443574359E1,-5.521438122E-1,4.573282301E-1,4.860421181E0
3.445572365E1,8.467600942E-1,9.604191780E-1,2.920140982E0
3.447571057E1,3.259024382E0,1.516152263E0,2.515454888E-1
3.449569062E1,4.830510616E0,7.136593461E-1,2.592025042E0
3.451566474E1,9.156734467E0,-3.686741590E0,1.006839943E1
3.453564479E1,1.096540928E1,-9.057432175E0,2.070419693E1
3.455562885E1,9.178568840E0,-8.599804878E0,2.690609360E1
3.457560906E1,8.653942108E0,-3.844966888E0,2.001925087E1
3.459557365E1,8.407182693E0,-1.590628862E0,1.018804073E1
3.461555391E1,5.714658737E0,-8.575277925E-1,8.012965202E0
3.463554635E1,3.323929787E0,-3.257229924E-1,9.819247246E0
3.465552656E1,3.838984728E0,8.024929166E-1,9.874281883E0
3.467551005E1,4.619942188E0,2.776272535E0,8.710173607E0
3.469549026E1,4.885844707E0,4.292723656E0,7.428517818E0
3.471547073E1,4.176671982E0,4.438685894E0,6.786344051E0
3.473545094E1,2.015953064E0,3.121138096E0,7.579265594E0
3.475542708E1,9.960123897E-2,1.552343726E0,8.367402077E0
3.477540729E1,-8.898309469E-1,7.402794957E-1,6.158826351E0
3.479539052E1,-1.031306505E0,9.571290761E-2,2.829213619E0
3.481537078E1,-8.973085135E-2,-2.146361828E0,3.128615618E0
3.483534781E1,1.467398524E0,-5.833103180E0,1.005404282E1
3.485532802E1,4.430610180E0,-8.108976364E0,1.597328758E1
3.487531292E1,6.576972008E0,-8.877671242E0,1.899632072E1
3.489529312E1,7.583154202E0,-7.495516777E0,1.823929024E1
3.491527214E1,6.234499454E0,-5.310869694E0,1.604507256E1
3.493525234E1,4.694119930E0,-4.055535316E0,1.283988667E1
3.495523813E1,4.854438782E0,-2.505883455E0,1.003460121E1
3.497521833E1,5.951548100E0,-5.557330847E-1,9.198608398E0
3.499523635E1,6.620042801E0,1.013360381E0,8.489734650E0
3.501521662E1,5.721837044E0,1.743769526E0,7.220043182E0
3.503515708E1,4.128815651E0,1.609771490E0,5.717948914E0
3.505513729E1,2.686541557E0,1.202393413E0,4.599304199E0
3.507512297E1,1.668395638E0,7.088736892E-1,4.304687977E0
3.509510318E1,1.285244823E0,3.448655605E-1,4.592125893E0
3.511507958E1,1.797907114E0,4.887340367E-1,5.536094189E0
3.513505979E1,2.446960211E0,7.905287743E-1,6.561119556E0
3.515504177E1,2.444567442E0,7.304090858E-1,6.685845375E0
3.517502198E1,2.212463617E0,2.539383173E-1,5.878567219E0
3.519505380E1,3.275774240E0,-3.930211067E-1,4.271188259E0
3.521503406E1,6.536293983E0,-1.188335538E0,1.849352837E0
3.523496484E1,1.078594685E1,-2.908176899E0,-6.346961856E-1
3.525494505E1,1.529881096E1,-5.984150410E0,9.910174370E0
3.527491849E1,1.579472351E1,-7.912466049E0,2.634318352E1
3.529489870E1,1.144217873E1,-8.022536278E0,2.357169533E1
3.531488188E1,9.216854095E0,-5.904888153E0,1.189113235E1
3.533486208E1,7.951947689E0,-3.272184849E0,8.487341881E0
3.535483578E1,4.820939541E0,-1.413560033E0,8.724530220E0
3.537481599E1,2.497508526E0,-6.349952817E-1,6.534798622E0
3.539480641E1,1.359422326E0,2.970091105E-1,3.221935749E0
3.541478662E1,1.361815214E0,1.554736495E0,1.968993902E0
3.543475667E1,2.466102839E0,2.084148407E0,3.801596880E0
3.545473688E1,2.957229614E0,9.675976634E-1,8.755637169E0
3.547471927E1,2.411067963E0,-7.211369276E-1,1.363520050E1
3.549469948E1,2.454138756E0,-1.329512119E0,1.311057472E1
3.551468344E1,3.321537018E0,-9.296116233E-1,9.845567703E0
3.553466365E1,3.937090635E0,-9.224331379E-1,8.563912392E0
3.555464651E1,3.613760471E0,-1.339083314E0,1.004177952E1
3.557462672E1,2.554936409E0,-2.663809776E0,1.035344410E1
3.559463266E1,2.722434044E0,-2.287837505E0,8.257331848E0
3.561461302E1,3.740580082E0,-1.307976723E0,9.191430092E0
3.563456287E1,4.023231983E0,-1.370190024E0,7.584051132E0
3.565454323E1,2.147558212E0,-1.240977645E0,5.274977684E0
3.567452438E1,2.048854381E-1,-6.708876491E-1,5.555236816E0
3.569450469E1,-1.129412293E0,3.828516230E-2,7.945965767E0
3.571448193E1,-1.229910851E0,4.453641176E-1,6.048756599E0
3.573446229E1,-1.656431437E0,3.589234129E-2,2.814557552E0
3.575444474E1,-1.304387450E0,-2.392822644E-3,3.102294445E0
3.577442510E1,3.058027267E0,-4.600201547E-1,4.647160530E0
3.579441250E1,9.655039787E0,5.150550604E-1,4.050749779E0
3.581439286E1,1.465454292E1,-2.433799744E0,6.396014690E0
3.583436583E1,1.237896919E1,-9.076574326E0,1.422921848E1
3.585434620E1,6.167201042E0,-8.017750740E0,2.432633209E1
3.587432021E1,7.607082367E0,-3.803989887E0,2.613022232E1
3.589430057E1,1.327478218E1,9.891330600E-1,1.943241119E1
3.591428162E1,1.585962868E1,5.320441246E0,1.240618706E1
3.593426193E1,1.524138260E1,6.081956863E0,8.118248940E0
3.595424276E1,1.303998566E1,4.093820572E0,6.448657036E0
3.597422313E1,9.846764565E0,3.664009571E-1,6.422336102E0
3.599421464E1,6.706184387E0,-2.314158678E0,8.063214302E0
3.601419495E1,5.954239845E0,-2.953640461E0,9.867103577E0
3.603415537E1,5.446363449E0,-2.505883455E0,1.117508030E1
3.605413573E1,3.400500059E0,-2.951247692E0,1.112004471E1
3.607411604E1,1.862513304E0,-3.396910906E0,8.765208244E0
3.609409641E1,1.309173107E0,-2.793321371E0,6.067899227E0
3.611407505E1,5.665007830E-1,-2.005185366E0,5.428118229E0
3.613405542E1,-2.106880426E0,-7.761718631E-1,6.822236538E0
3.615403417E1,-7.235596657E0,5.461617708E-1,7.021139622E0
3.617401453E1,-1.121695423E1,-1.049252748E0,6.707380772E0
3.619400698E1,-1.345663643E1,-1.751247048E0,6.276074886E0
3.621398729E1,-1.472632790E1,-5.437689424E-1,6.240182400E0
3.623394839E1,-1.171047401E1,3.257229924E-1,6.177968979E0
3.625392875E1,-5.532206059E0,3.975076675E-1,7.390232563E0
3.627391031E1,5.593222976E-1,-1.499701619E0,1.006600666E1
3.629389068E1,6.617650032E0,-6.654738903E0,1.168774223E1
3.631386417E1,1.447956848E1,-8.729315758E0,1.259312630E1
3.633384453E1,2.283769798E1,-5.730212212E0,1.422682571E1
3.635382635E1,2.530499649E1,-9.704391479E0,1.805713654E1
3.637380672E1,1.731835365E1,-8.618947029E0,2.064676857E1
3.639379583E1,1.441256905E1,-5.016253471E0,2.100838470E1
3.641377620E1,1.552882099E1,-2.589632273E0,1.967887306E1
3.643374094E1,1.235234833E1,-4.887340367E-1,1.498864079E1
3.645372130E1,1.021316528E1,7.304090858E-1,1.022632599E1
3.647370359E1,8.965308189E0,2.050349951E0,8.702695847E0
3.649368391E1,6.622435570E0,9.843474030E-1,9.172286987E0
3.651366167E1,4.217350006E0,-8.841479421E-1,8.997611046E0
3.653364203E1,3.898805380E0,-4.241278172E-1,7.330112934E0
3.655362698E1,4.981557846E0,8.407780528E-1,5.116752148E0
3.657360734E1,4.567001343E0,9.245268703E-1,3.756133318E0
3.659358781E1,2.339283228E0,-1.941177398E-1,2.773879766E0
3.661356818E1,-1.782652885E-1,-7.259225845E-1,2.517548561E0
3.663353943E1,-1.426421404E0,6.562315822E-1,2.757129908E0
3.665351953E1,-1.361815214E0,3.145365477E0,2.517548561E0
3.667349734E1,-1.575075507E0,4.184747696E0,1.451546073E0
3.669347745E1,-1.807478428E0,3.557229996E0,1.178465128E0
3.671345974E1,-2.319841623E0,1.731805444E0,1.738983870E0
3.673343984E1,-2.226521492E0,-4.432703853E-1,4.129712582E0
3.675341714E1,-5.353940725E-1,-1.964507341E0,8.060821533E0
3.677339724E1,2.638685226E0,-1.849352837E0,9.411869049E0
3.679337620E1,7.218846798E0,3.209373355E-1,7.121937275E0
3.681335630E1,9.899406433E0,8.374879509E-2,5.169394016E0
3.683333797E1,1.200748348E1,-4.237689018E0,1.598046589E1
3.685331807E1,1.597209072E1,-6.659524441E0,3.273919678E1
3.687329703E1,1.577318764E1,-3.816252947E0,3.314178848E1
3.689327714E1,1.467847157E1,9.436694384E-1,1.719721603E1
3.691325557E1,1.311416340E1,3.499802113E0,9.251549721E0
3.693323568E1,1.213699436E1,3.034996510E0,1.304596806E1
3.695321578E1,1.104945660E1,1.185643673E0,1.394417381E1
3.697319588E1,7.118348122E0,-3.930211067E-1,8.942276955E0
3.699318495E1,3.611367464E0,-1.207478166E0,6.752844810E0
3.701316500E1,2.768196583E0,-1.686640859E0,8.024929047E0
3.703313042E1,1.817049742E0,-2.393121719E0,8.508877754E0
3.705311052E1,-6.023930907E-1,-2.831606388E0,6.091827393E0
3.707309287E1,-2.736790895E0,-2.359622240E0,3.382553816E0
3.709307297E1,-2.945265532E0,-1.837388635E0,3.358625650E0
3.711305224E1,-3.359523058E0,-4.815555513E-1,4.328616142E0
3.713303234E1,-6.193522453E0,1.834995866E0,2.450549603E0
3.715301651E1,-8.668000221E0,3.447160006E0,1.268195957E-1
3.717299662E1,-8.677571297E0,4.182354927E0,2.970091105E-1
3.719298938E1,-7.273881912E0,4.632803917E0,2.869891644E0
3.721296943E1,-5.800501347E0,4.781457901E0,5.090431213E0
3.723293948E1,-4.641178608E0,2.208575249E0,6.990033150E0
3.725291958E1,-3.033800125E0,-2.237588167E0,1.029093170E1
3.727289729E1,1.297209024E0,-6.477370739E0,1.326879978E1
3.729287740E1,1.052722359E1,-5.890531063E0,1.097856903E1
3.731285406E1,2.167329025E1,-2.951247692E0,1.451426411E1
3.733283417E1,2.471337128E1,-8.427521706E0,2.252722931E1
3.735281641E1,1.612044525E1,-1.043240738E1,2.425454712E1
3.737279651E1,1.198116207E1,-6.094220161E0,2.011496353E1
3.739278776E1,1.260150146E1,-1.664806366E0,1.540319729E1
3.741276787E1,1.088166046E1,2.405085802E0,1.343390465E1
3.743273359E1,7.990232944E0,4.029214382E0,1.048983574E1
3.745271370E1,3.355036497E0,3.590729475E0,5.758626938E0
3.747269500E1,-1.471885085E0,2.941676378E0,4.139284134E0
3.749267510E1,-2.669791937E0,2.093719721E0,6.870391846E0
3.751265474E1,-2.027618170E0,1.765304923E0,1.056640530E1
3.753263484E1,-8.108677864E-1,1.520937920E0,1.138594723E1
3.755262151E1,-8.395816684E-1,1.298405409E0,7.349255562E0
3.757260162E1,-1.668395638E0,1.008574724E0,3.799204111E0
3.759258552E1,-1.543968797E0,-3.499503136E-1,4.429413795E0
3.761256562E1,3.846462369E-1,-2.285444736E0,8.829814911E0
3.763253766E1,2.538186550E0,-3.202793121E0,1.037737274E1
3.765251776E1,4.581357956E0,-3.696312666E0,1.201825047E1
3.767249568E1,7.724330425E0,-4.738387108E0,1.858894157E1
3.769247573E1,9.631111145E0,-5.033003330E0,2.199542427E1
3.771245495E1,8.680263519E0,-3.439981699E0,1.542951870E1
3.773243495E1,6.682256222E0,-7.187440991E-1,6.501298904E0
3.775242172E1,4.567001343E0,1.257428288E0,3.456731319E0
3.777240177E1,3.077169895E0,1.370190024E0,3.614657640E0
3.779238474E1,2.962015390E0,9.125627279E-1,4.273581028E0
3.781236479E1,2.787339211E0,1.992922187E0,5.919245243E0
3.783233734E1,1.115055323E0,2.740380049E0,7.287042141E0
3.785231740E1,2.273181453E-2,1.741376638E0,8.173283577E0
3.787229990E1,1.761715710E-1,-2.871387079E-2,8.477770805E0
3.789227995E1,1.282852054E0,-1.049252748E0,8.714959145E0
3.791225385E1,3.084348440E0,-7.211369276E-1,9.241679192E0
3.793223391E1,3.867698669E0,5.605186820E-1,7.977072716E0
3.795221964E1,2.540579557E0,-1.127617657E-1,1.032951641E1
3.797219969E1,2.039881229E0,-2.290230274E0,1.551805305E1
3.799218557E1,3.941876173E0,-1.712961912E0,1.756870270E1
3.801216563E1,6.160022736E0,-2.632104978E-2,1.601635742E1
3.803213380E1,5.046164036E0,1.142572761E0,1.152951717E1
3.805211385E1,2.085345030E0,4.334000051E-1,8.453842163E0
3.807209641E1,4.564309120E-1,-2.060818523E-1,1.094028378E1
3.809207641E1,-3.388835192E-1,1.674975827E-2,1.483998680E1
3.811204938E1,3.463610709E-1,1.365404367E0,1.262184048E1
3.813202943E1,8.012964725E-1,3.437588930E0,7.711170197E0
3.815201734E1,-1.048056364E0,3.796811342E0,6.635596275E0
3.817199740E1,-2.396710873E0,1.398903966E0,9.639486313E0
3.819198750E1,-1.654038668E0,-1.700997829E0,1.397049522E1
3.821196755E1,-1.136590719E0,-1.930708766E0,1.604028702E1
3.823193354E1,-1.902294010E-1,5.982056633E-2,1.273460197E1
3.825191359E1,4.205385745E-1,1.552343726E0,8.286046028E0
3.827189651E1,-1.127019525E0,1.578664780E0,8.676374435E0
3.829187656E1,-5.066801906E-1,8.264211416E-1,1.496710587E1
3.831185396E1,1.543968797E0,7.256234884E-1,1.768834305E1
3.833183401E1,8.781659007E-1,2.484049082E0,1.247348499E1
3.835181943E1,-1.536491275E0,4.256831646E0,6.870391846E0
3.837179948E1,-3.623032570E0,4.213461399E0,5.636592865E0
3.839178672E1,-4.025625229E0,3.195614576E0,7.775776386E0
3.841176677E1,-3.742972851E0,2.845664263E0,7.811668396E0
3.843173594E1,-3.881756544E0,2.196611166E0,3.248256683E0
3.845171599E1,-1.756929994E0,2.285145521E0,6.417550564E0
3.847169630E1,-2.832503796E0,2.915355206E0,7.054639339E0
3.851496280E1,-4.320241451E0,2.484049082E0,8.300402641E0
3.853501363E1,-3.239881754E0,3.645764351E0,7.770990849E0
3.855499592E1,-2.715255499E0,4.136891365E0,7.668099403E0
3.857497952E1,-3.069692373E0,3.923630953E0,8.465806961E0
3.859496181E1,-3.052942514E0,3.176471949E0,1.051615620E1
3.861495217E1,-3.136691332E0,2.373979092E0,1.188156128E1
3.863493446E1,-3.393022537E0,2.654238462E0,1.105035400E1
3.865491545E1,-2.933301449E0,3.631407499E0,8.659625053E0
3.867489774E1,-2.935694218E0,4.084249020E0,6.630810738E0
3.869489196E1,-3.613461256E0,3.995714664E0,6.256932259E0
3.871487426E1,-3.613461256E0,3.818346739E0,7.023532867E0
3.873484379E1,-2.995514870E0,3.736990690E0,8.170890808E0
3.875482608E1,-2.863610506E0,3.662514210E0,8.271688461E0
3.877480420E1,-3.203989506E0,3.839882135E0,7.629515171E0
3.879478655E1,-3.026621580E0,4.167997837E0,7.548159122E0
3.881477691E1,-2.372782707E0,4.376472473E0,8.168498039E0
3.883475926E1,-1.622931957E0,4.433900356E0,8.652446747E0
3.885471785E1,-1.431207061E0,4.223331928E0,8.434400558E0
3.887470014E1,-2.010868311E0,4.002892971E0,8.235795975E0
3.889467884E1,-2.166700840E0,3.976572037E0,8.571090698E0
3.891466113E1,-1.644467354E0,3.875774384E0,9.390333176E0
3.893465952E1,-1.261017561E0,3.770490170E0,9.867103577E0
3.895464181E1,-1.186840057E0,3.717848301E0,9.615557671E0
3.897461780E1,-8.347960114E-1,3.808775425E0,9.617950439E0
3.899460014E1,-2.264208496E-1,3.875774384E0,1.030768204E1
3.901456545E1,1.498505175E-1,3.916452408E0,1.016889763E1
3.903454775E1,-1.160518974E-1,3.861417532E0,8.602197647E0
3.905455853E1,-2.742772996E-1,3.906881094E0,8.645268440E0
3.907454082E1,2.982055247E-1,3.557229996E0,1.022154045E1
3.909451681E1,1.033699393E0,3.042174816E0,1.187677479E1
3.911449910E1,1.455434322E0,2.678166628E0,1.155344486E1
3.913447597E1,6.792625189E-1,2.507977247E0,8.621339798E0
3.915445827E1,-3.388835192E-1,2.417049885E0,6.180361748E0
3.917442420E1,-1.615155339E-1,2.132004976E0,6.463014126E0
3.919440644E1,8.443672657E-1,1.997707844E0,8.475378036E0
3.921438910E1,1.405185103E0,1.806282043E0,8.906385422E0
3.923437134E1,1.024128079E0,1.616949916E0,8.175975800E0
3.925433712E1,1.237388372E0,1.698305845E0,9.076574326E0
3.927431946E1,2.391925335E0,1.830210209E0,1.000349426E1
3.929432613E1,2.751446962E0,1.724626899E0,1.012582684E1
3.931430847E1,1.151246786E0,1.281655669E0,8.846564293E0
3.933425993E1,1.285244823E0,1.624128342E0,8.784351349E0
3.935424222E1,3.153740168E0,2.766701221E0,9.304191589E0
3.937422478E1,1.922333837E0,2.510370016E0,8.808279037E0
3.939420702E1,6.098706722E-1,1.523330688E0,8.427222252E0
3.941418920E1,8.925228715E-1,1.293619752E0,8.578269005E0
3.943417144E1,5.808576941E-1,2.460120678E0,8.760422707E0
3.945414254E1,2.190629244E0,2.807379246E0,7.165008068E0
3.947412483E1,3.515355587E0,2.052742720E0,6.374479294E0
3.949412660E1,3.038884640E0,1.444367528E0,7.167401314E0
3.951410889E1,2.523829699E0,9.843474030E-1,6.482156754E0
3.953406561E1,1.095912814E0,9.388837814E-1,5.013860703E0
3.955404795E1,-4.298107624E-1,1.386939883E0,3.861417532E0
3.957402571E1,-1.198804140E0,1.427617788E0,2.457727909E0
3.959400801E1,-8.587242365E-1,1.434796333E0,2.100898266E0
3.961398759E1,-5.665007830E-1,1.545165181E0,2.352443695E0
3.963396988E1,-9.451649338E-2,1.901994944E0,3.078067303E0
3.965395670E1,2.367997169E0,2.136790514E0,4.599304199E0
3.967393900E1,4.818546772E0,2.141576290E0,3.061317444E0
3.969391962E1,7.913662910E0,2.682952404E0,3.588336706E0
3.971390191E1,1.319342613E1,-4.743770957E-1,1.031755257E1
3.973387743E1,1.530120373E1,-3.509373426E0,2.056302071E1
3.975385978E1,1.256560898E1,-3.605385542E0,2.310928345E1
3.977384248E1,9.470791817E0,-1.657627940E0,1.770030785E1
3.979382483E1,7.135097980E0,-4.785645381E-2,1.381974697E1
3.981381030E1,3.915555239E0,9.699904919E-1,1.232722378E1
3.983379259E1,1.412363529E0,1.686341763E0,1.102881908E1
3.985377243E1,6.744768620E-1,2.522334099E0,9.411869049E0
3.987375478E1,1.067198873E0,3.988536358E0,7.270292282E0
3.989374728E1,8.539385796E-1,4.819743156E0,3.542873144E0
3.991372957E1,2.647060156E-1,4.017250061E0,1.992922187E0
3.993370441E1,-4.178466499E-1,2.814557552E0,4.721637249E0
3.995368676E1,1.311565876E0,1.089930773E0,5.265406132E0
3.997366462E1,4.167100430E0,-2.975175858E0,4.448556423E0
3.999364696E1,8.742476463E0,-5.945566177E0,1.485434341E1
4.001362905E1,1.196441269E1,-6.067899227E0,2.246022987E1
4.003361139E1,9.877870560E0,-3.612564087E0,2.071376801E1
4.005358905E1,6.734898567E0,-1.604985833E0,1.622483253E1
4.007357139E1,5.992525101E0,-6.972087026E-1,1.183849049E1
4.009355488E1,5.812764645E0,9.891330600E-1,8.695517540E0
4.011353722E1,5.115555763E0,2.766701221E0,7.397411346E0
4.013351816E1,3.711866140E0,3.401397467E0,6.235396862E0
4.015350051E1,1.984846354E0,2.850450039E0,4.089034557E0
4.017348707E1,1.038485050E0,2.285145521E0,2.615953445E0
4.019346941E1,5.880361795E-1,1.758126378E0,2.208575249E0
4.021345280E1,7.175477147E-1,1.389332652E0,2.222932339E0
4.023343509E1,2.332104683E0,1.341476202E0,1.741376638E0
4.025341728E1,2.559721947E0,8.838488460E-1,2.252244353E-1
4.027339957E1,2.844767094E0,-5.557330847E-1,-5.121537685E0
4.029338071E1,9.195318222E0,-2.057827473E0,-1.573879123E0
4.031336301E1,1.589552116E1,-3.392125130E0,1.451665688E1
4.033334410E1,1.398126316E1,-4.592125893E0,2.552154732E1
4.035332639E1,8.134101868E0,-5.301298618E0,2.009582138E1
4.037330910E1,6.354140759E0,-3.978965044E0,1.253091335E1
4.039329139E1,6.351747513E0,-1.054038405E0,1.160608673E1
4.041328764E1,5.707480431E0,1.873281002E0,1.262901878E1
4.043326998E1,4.531108856E0,3.830310822E0,1.127797127E1
4.045323358E1,3.556332588E0,4.592125893E0,8.970991135E0
4.047321592E1,2.746661186E0,4.378865242E0,7.023532867E0
4.049320139E1,2.109273195E0,3.801596880E0,6.046363831E0
4.051318368E1,1.888834357E0,2.967997313E0,5.873781204E0
4.053316233E1,1.282852054E0,2.132004976E0,5.174180031E0
4.055314467E1,1.074377418E0,2.045564175E0,1.279262781E0
4.057312853E1,5.038985252E0,-7.211369276E-1,-4.913063049E0
4.059311071E1,1.171765232E1,-5.411368370E0,1.100010490E1
4.061309634E1,1.285543919E1,-7.160222530E0,2.701885605E1
4.063307853E1,8.447860718E0,-4.814957142E0,2.439333153E1
4.065305743E1,8.450253487E0,-2.134397745E0,1.637797356E1
4.067303972E1,1.101805115E1,9.332008660E-2,1.108863926E1
4.069302217E1,1.022752190E1,2.045564175E0,9.694520950E0
4.071300441E1,8.349455833E0,2.584547520E0,1.095703411E1
4.073298139E1,7.185347080E0,2.749951363E0,1.034865856E1
4.075296363E1,6.373282909E0,3.063710213E0,7.680063248E0
4.077294608E1,5.729015827E0,3.166900873E0,4.402793884E0
4.079292832E1,5.022235394E0,2.860021353E0,2.153540373E0
4.081292613E1,3.659224033E0,2.275574446E0,1.756032705E0
4.083290837E1,2.514258385E0,1.523330688E0,2.438585281E0
4.085287295E1,2.051845312E0,8.623134494E-1,2.941676378E0
4.087285525E1,2.341675997E0,6.418746710E-1,3.351148129E0
4.089283618E1,3.549154282E0,3.089732230E-1,3.916751623E0
4.091281842E1,2.938086987E0,-6.469594240E-1,3.114258766E0
4.093279483E1,7.567301393E-2,-5.557330847E-1,-3.281157911E-1
4.095277712E1,-8.036893010E-1,1.085145116E0,-3.758526087E0
4.097275811E1,4.056731701E0,1.631306887E0,-2.867498875E0
4.099274035E1,1.640818214E1,1.811067581E0,8.432007790E0
4.101271217E1,2.037488556E1,1.573879123E0,2.148754692E1
4.103269441E1,1.418734455E1,4.214358926E-1,2.313321114E1
4.105268144E1,8.543573380E0,1.226321578E0,1.900110626E1
4.107266374E1,6.538686752E0,2.687737942E0,1.436351585E1
4.109263801E1,4.828117847E0,3.468695641E0,9.313762665E0
4.111262030E1,2.173879385E0,3.988536358E0,6.446264267E0
4.113260577E1,5.330012441E-1,4.726123810E0,6.372086525E0
4.115258806E1,6.170491576E-1,4.992026329E0,6.973283291E0
4.117256821E1,9.619147182E-1,4.850849628E0,7.061817646E0
4.119255051E1,1.579861164E0,4.776672363E0,6.743273258E0
4.121252264E1,2.142772675E0,4.632803917E0,6.024528980E0
4.123250493E1,2.015953064E0,4.022035599E0,4.448556423E0
4.125248946E1,1.505683661E0,3.068495989E0,3.075674295E0
4.127247176E1,2.231606245E0,2.014457464E0,4.599304199E0
4.129245691E1,4.492823601E0,7.689933777E-1,8.355437279E0
4.131243910E1,7.674081326E0,-1.582254022E-1,8.549555779E0
4.133241785E1,1.286501122E1,-1.648056626E0,1.151755238E1
4.135240014E1,1.474547005E1,-3.372982502E0,1.585334778E1
4.137238837E1,1.128156090E1,-4.156332970E0,1.621286964E1
4.139237056E1,7.405786037E0,-2.762214661E0,1.558505249E1
4.141236644E1,6.112166405E0,-6.661019921E-1,1.367348576E1
4.143234868E1,5.786443233E0,1.530509233E0,1.108863926E1
4.145231431E1,6.244070530E0,3.296113253E0,8.264510155E0
4.147229660E1,7.005586624E0,5.150251865E0,7.284649372E0
4.149228170E1,6.337390900E0,6.422336102E0,6.597311020E0
4.151226394E1,3.704687595E0,5.646163940E0,3.806382656E0
4.153224868E1,1.076770186E0,4.285545349E0,1.717448473E0
4.155223097E1,-1.136590764E-1,3.657728434E0,1.293619752E0
4.157220900E1,-9.451649338E-2,3.312862873E0,7.953144312E-1
4.159219124E1,-1.471585929E-1,2.819343328E0,4.307080805E-2
4.161217644E1,-7.701897621E-1,2.031207323E0,-1.462612897E-1
4.163215863E1,-8.276175261E-1,8.599206209E-1,5.605186820E-1
4.165214014E1,3.559323549E-1,-9.678967595E-1,-1.660020709E0
4.167212233E1,1.187139153E0,-1.770389676E0,-6.118148327E0
4.169211030E1,6.064310074E0,-2.395514488E0,-3.109472990E0
4.171209243E1,1.722503281E1,-4.719244480E0,1.539093399E1
4.173207337E1,1.804666901E1,-5.986543179E0,2.820450020E1
4.175205556E1,1.125045395E1,-4.824528694E0,2.257269287E1
4.177204004E1,7.971090317E0,-2.711666346E0,1.572652817E1
4.179202217E1,6.306283951E0,1.746760458E-1,1.653619957E1
4.181200764E1,2.717648268E0,2.203789711E0,1.672523117E1
4.183198983E1,-4.369892478E-1,3.629014730E0,1.381496143E1
4.185196644E1,-9.735797048E-1,5.250750065E0,1.146491051E1
4.187194863E1,-2.288136631E-1,5.821139336E0,9.689735413E0
4.189193962E1,1.785643846E-1,5.138287544E0,7.466803074E0
4.191192176E1,1.163510010E-1,3.396611691E0,5.660521030E0
4.193189988E1,3.391826153E-1,1.480259895E0,6.822236538E0
4.195188202E1,1.273280740E0,3.329014480E-1,7.842775345E0
4.197186686E1,5.683252811E0,-1.398903966E0,7.023532867E0
