"Time (s)","Acceleration x (m/s^2)","Acceleration y (m/s^2)","Acceleration z (m/s^2)"
7.912130600E-2,-2.750250578E0,5.613562107E0,1.041565800E1
9.912130600E-2,-2.252244234E0,5.920142174E0,7.695915699E0
1.191213060E-1,-1.217946768E0,5.230411053E0,7.083054066E0
1.391213060E-1,1.226321608E-1,4.387838364E0,6.929614544E0
1.591213060E-1,3.143570721E-1,4.042973042E0,7.810771465E0
1.791213060E-1,-1.070788130E-1,4.272983074E0,8.921639442E0
1.991213060E-1,-7.199404836E-1,4.694119930E0,9.687940598E0
2.191213060E-1,-4.902295470E-1,4.847559452E0,8.577073097E0
2.391213060E-1,-2.602194548E-1,4.809274197E0,7.274479866E0
2.591213060E-1,8.123632669E-1,4.579264164E0,5.474180222E0
2.791213060E-1,1.156929731E0,4.732704163E0,4.707878590E0
2.991213060E-1,1.992024779E-1,4.924129963E0,5.512465000E0
3.191213060E-1,-9.116654396E-1,5.460421085E0,6.316752911E0
3.391213060E-1,-2.602194548E-1,4.157828331E0,9.841081619E0
3.591213060E-1,2.267797709E0,2.855534792E0,7.772486210E0
3.791213060E-1,2.038086653E0,3.506681681E0,6.661618233E0
3.991213060E-1,8.123632669E-1,3.276970625E0,1.068395329E1
4.191213060E-1,6.206383705E-1,2.242672920E0,1.114337540E1
4.391213060E-1,-6.879365444E-2,2.778964281E0,9.074779510E0
4.591213060E-1,1.233500123E0,4.119543076E0,7.504190922E0
4.791213060E-1,6.206383705E-1,5.422136307E0,8.806783676E0
4.991213060E-1,3.526422381E-1,5.115555763E0,1.026251698E1
5.191213060E-1,1.425225019E0,4.579264164E0,9.841081619E0
5.391213060E-1,2.038086653E0,3.430111170E0,8.959924698E0
5.591213060E-1,1.693221092E0,2.587239504E0,1.099023438E1
5.791213060E-1,1.080359459E0,2.510669231E0,1.144995499E1
5.991213060E-1,8.889335990E-1,2.472383976E0,1.068395329E1
6.191213060E-1,1.226321608E-1,2.089233160E0,9.649655342E0
6.391213060E-1,-1.792523265E0,2.089233160E0,9.151649475E0
6.591213060E-1,-3.171686411E0,2.434098721E0,8.653642654E0
6.791213060E-1,-3.018545866E0,3.238685369E0,8.270492554E0
6.991213060E-1,-2.520539522E0,3.353540897E0,7.849056244E0
7.191213060E-1,-3.209971666E0,3.085245609E0,8.308777809E0
7.391213060E-1,-5.010570526E0,3.468396425E0,8.615358353E0
7.591213060E-1,-5.163711071E0,3.659822226E0,7.159624577E0
7.791213060E-1,-5.087141037E0,3.813261986E0,8.117351532E0
7.991213060E-1,-4.703989983E0,3.162115097E0,1.010907745E1
8.191213060E-1,-4.474279404E0,3.430111170E0,1.114337540E1
8.391213060E-1,-4.435994148E0,4.426123619E0,1.102851963E1
8.591213060E-1,-3.861118555E0,4.924129963E0,1.026251698E1
8.791213060E-1,-1.715952992E0,4.081258297E0,9.994221687E0
8.991213060E-1,-7.582256794E-1,2.548954248E0,1.064536858E1
9.191213060E-1,-1.070788130E-1,2.050948143E0,1.137338543E1
9.391213060E-1,4.674977362E-1,1.170090318E0,1.175653553E1
9.591213060E-1,4.292125702E-1,1.131805062E0,1.072223854E1
9.791213060E-1,8.434699476E-2,1.859522343E0,9.343074799E0
9.991213060E-1,-5.667998791E-1,2.357528448E0,8.117351532E0
1.019121306E0,-3.370888829E-1,2.319243431E0,7.581060410E0
1.039121306E0,7.776673418E-3,2.242672920E0,7.810771465E0
1.059121306E0,2.374876440E-1,1.974377751E0,8.730213165E0
1.079121306E0,1.226321608E-1,1.629811287E0,8.998209953E0
1.099121306E0,-3.050848842E-2,1.399801254E0,8.691927910E0
1.119121306E0,8.434699476E-2,1.246660590E0,8.423632622E0
1.139121306E0,3.909274042E-1,1.284945726E0,8.921639442E0
1.159121306E0,7.354938388E-1,1.399801254E0,8.845068932E0
1.179121306E0,1.080359459E0,1.514656782E0,9.113364220E0
1.199121306E0,4.674977362E-1,1.361516118E0,9.036494255E0
1.219121306E0,-1.064806104E0,1.284945726E0,9.036494255E0
1.239121306E0,-2.520539522E0,2.472383976E0,8.959924698E0
1.259121306E0,-2.022533417E0,3.468396425E0,9.534501076E0
1.279121306E0,-8.733802438E-1,4.004687786E0,9.687940598E0
1.299121306E0,-1.070788130E-1,4.272983074E0,9.189934731E0
1.319121306E0,-1.371386528E0,3.659822226E0,9.113364220E0
1.339121306E0,-3.095116138E0,3.353540897E0,9.343074799E0
1.359121306E0,-3.669692516E0,3.506681681E0,9.304789543E0
1.379121306E0,-2.022533417E0,3.353540897E0,9.419645309E0
1.399121306E0,-5.285146832E-1,3.162115097E0,9.802796364E0
1.419121306E0,-4.136592150E-1,3.200400352E0,1.099023438E1
1.439121306E0,-5.667998791E-1,2.127817631E0,1.225454235E1
1.459121306E0,-1.026520967E0,1.821237087E0,1.290568924E1
1.479121306E0,-1.026520967E0,2.280958176E0,1.282911873E1
1.499121306E0,3.526422381E-1,2.855534792E0,1.179482079E1
1.519121306E0,1.118644595E0,3.315255880E0,1.030080223E1
1.539121306E0,8.506484628E-1,3.544966698E0,9.189934731E0
1.559121306E0,7.776673418E-3,3.698406458E0,8.079066277E0
1.579121306E0,-3.753740489E-1,3.736691713E0,7.465905666E0
1.599121306E0,-7.968099117E-1,3.774976730E0,7.504190922E0
1.619121306E0,-1.103091240E0,3.391826153E0,8.500203133E0
1.639121306E0,-2.022533417E0,3.430111170E0,9.764511108E0
1.659121306E0,-2.826820850E0,4.081258297E0,9.879366875E0
1.679121306E0,-3.363112211E0,4.732704163E0,9.572786331E0
1.699121306E0,-2.865106106E0,5.230411053E0,1.026251698E1
1.719121306E0,-1.792523265E0,4.770989418E0,1.106680489E1
1.739121306E0,-4.902295470E-1,4.119543076E0,1.110509014E1
1.759121306E0,-3.050848842E-2,4.464408875E0,1.125852966E1
1.779121306E0,1.042074203E0,3.353540897E0,9.955936432E0
1.799121306E0,1.195214868E0,3.123530865E0,9.151649475E0
1.819121306E0,9.655039310E-1,2.089233160E0,8.615358353E0
1.839121306E0,5.440680385E-1,1.284945726E0,9.266505241E0
1.859121306E0,1.992024779E-1,1.399801254E0,9.841081619E0
1.879121306E0,8.889335990E-1,1.361516118E0,9.764511108E0
1.899121306E0,1.425225019E0,1.591227055E0,9.304789543E0
1.919121306E0,1.233500123E0,1.591227055E0,8.423632622E0
1.939121306E0,4.674977362E-1,1.361516118E0,7.274479866E0
1.959121306E0,-1.453639716E-1,1.476371527E0,6.891329288E0
1.979121306E0,8.434699476E-2,1.629811287E0,6.661618233E0
1.999121306E0,6.972087026E-1,1.782951951E0,6.738188744E0
2.019121306E0,1.003789067E0,1.936092615E0,6.967899323E0
2.039121306E0,9.655039310E-1,1.782951951E0,7.504190922E0
2.059121306E0,1.992024779E-1,2.089233160E0,7.772486210E0
2.079121306E0,-1.371386528E0,3.085245609E0,8.270492554E0
2.099121306E0,-2.520539522E0,4.196412563E0,9.036494255E0
2.119121306E0,-2.558824778E0,5.153841019E0,9.802796364E0
2.139121306E0,-1.754238129E0,5.920142174E0,9.534501076E0
2.159121306E0,-1.409671664E0,5.996712685E0,9.151649475E0
2.179121306E0,-1.792523265E0,6.111567974E0,8.921639442E0
2.199121306E0,-2.826820850E0,6.609574318E0,8.385348320E0
2.219121306E0,-2.405683994E0,6.341578007E0,7.734200954E0
2.239121306E0,-1.371386528E0,5.843572140E0,7.542775154E0
2.259121306E0,-5.285146832E-1,5.230411053E0,7.619345665E0
2.279121306E0,-7.199404836E-1,4.655834675E0,8.461917877E0
2.299121306E0,-1.524527073E0,4.655834675E0,9.687940598E0
2.319121306E0,-1.217946768E0,4.732704163E0,1.060708332E1
2.339121306E0,4.606183618E-2,4.311268330E0,1.095194912E1
2.359121306E0,6.589235067E-1,4.234697819E0,1.064536858E1
2.379121306E0,1.609173268E-1,4.579264164E0,9.841081619E0
2.399121306E0,-5.667998791E-1,4.962415218E0,8.921639442E0
2.419121306E0,-6.433702111E-1,4.617549419E0,8.615358353E0
2.439121306E0,7.776673418E-3,4.004687786E0,9.074779510E0
2.459121306E0,1.992024779E-1,3.659822226E0,9.381360054E0
2.479121306E0,-2.219343036E-1,3.774976730E0,9.151649475E0
2.499121306E0,-1.371386528E0,4.502694130E0,8.883354187E0
2.519121306E0,-2.405683994E0,5.651846886E0,9.496215820E0
2.539121306E0,-1.869392633E0,5.460421085E0,9.764511108E0
2.559121306E0,-6.816553473E-1,4.196412563E0,1.026251698E1
2.579121306E0,-7.968099117E-1,3.621536970E0,1.041565800E1
2.599121306E0,-2.099103689E0,3.889832258E0,1.010907745E1
2.619121306E0,-2.520539522E0,4.081258297E0,9.841081619E0
2.639121306E0,-1.333101273E0,3.162115097E0,9.496215820E0
2.659121306E0,-1.453639716E-1,2.395813704E0,1.018594646E1
2.679121306E0,3.526422381E-1,1.629811287E0,1.102851963E1
2.699121306E0,-3.370888829E-1,1.438086390E0,1.152652550E1
2.719121306E0,-1.256231904E0,1.859522343E0,1.072223854E1
2.739121306E0,-1.256231904E0,2.089233160E0,9.419645309E0
2.759121306E0,-6.816553473E-1,2.166102648E0,8.308777809E0
2.779121306E0,-6.879365444E-2,2.012662888E0,7.772486210E0
2.799121306E0,-1.836491376E-1,1.936092615E0,7.963912010E0
2.819121306E0,-6.879365444E-2,1.170090318E0,8.155636787E0
2.839121306E0,-3.050848842E-2,8.635098934E-1,8.308777809E0
2.859121306E0,5.440680385E-1,5.569294691E-1,8.117351532E0
2.879121306E0,1.386939883E0,4.803591371E-1,7.810771465E0
2.899121306E0,1.425225019E0,5.569294691E-1,7.044768810E0
2.919121306E0,5.057829022E-1,7.486543655E-1,6.393322945E0
2.939121306E0,-6.816553473E-1,1.170090318E0,6.240182400E0
2.959121306E0,-1.639382601E0,2.166102648E0,6.814758778E0
2.979121306E0,-1.677667737E0,3.391826153E0,7.619345665E0
2.999121306E0,-1.409671664E0,4.387838364E0,7.772486210E0
3.019121306E0,-1.333101273E0,4.349553585E0,8.079066277E0
3.039121306E0,-2.137388945E0,4.540979385E0,8.270492554E0
3.059121306E0,-3.669692516E0,4.847559452E0,8.423632622E0
3.079121306E0,-5.393422127E0,5.958427429E0,9.611071587E0
3.099121306E0,-5.776573181E0,6.111567974E0,1.129681492E1
3.119121306E0,-3.899403572E0,4.770989418E0,1.187139130E1
3.139121306E0,-2.558824778E0,3.085245609E0,1.275254822E1
3.159121306E0,-3.018545866E0,2.702394009E0,1.420798302E1
3.179121306E0,-3.822833300E0,2.855534792E0,1.493599892E1
3.199121306E0,-3.286541939E0,3.008675337E0,1.416969776E1
3.219121306E0,-1.984248161E0,3.123530865E0,1.290568924E1
3.239121306E0,-7.199404836E-1,3.391826153E0,1.118195915E1
3.259121306E0,-5.667998791E-1,3.736691713E0,9.764511108E0
3.279121306E0,-1.064806104E0,4.004687786E0,8.538488388E0
3.299121306E0,-2.137388945E0,4.272983074E0,7.542775154E0
3.319121306E0,-2.750250578E0,4.349553585E0,7.083054066E0
3.339121306E0,-2.482254505E0,4.042973042E0,7.351050377E0
3.359121306E0,-2.137388945E0,3.659822226E0,7.810771465E0
3.379121306E0,-2.443969250E0,3.544966698E0,8.117351532E0
3.399121306E0,-3.631407499E0,4.196412563E0,8.155636787E0
3.419121306E0,-4.512564182E0,5.077270508E0,8.155636787E0
3.439121306E0,-4.091128349E0,4.847559452E0,7.887341499E0
3.459121306E0,-3.439981699E0,4.234697819E0,8.461917877E0
3.479121306E0,-2.558824778E0,3.200400352E0,9.572786331E0
3.499121306E0,-1.141376376E0,1.821237087E0,1.087537861E1
3.519121306E0,-1.141376376E0,1.668096542E0,1.171825027E1
3.539121306E0,-1.524527073E0,2.050948143E0,1.133510017E1
3.559121306E0,-9.116654396E-1,1.552941918E0,9.687940598E0
3.579121306E0,-5.667998791E-1,1.552941918E0,8.959924698E0
3.599121306E0,-4.519443810E-1,1.782951951E0,9.419645309E0
3.619121306E0,-2.602194548E-1,1.897807479E0,9.917651176E0
3.639121306E0,-4.136592150E-1,2.434098721E0,1.018594646E1
3.659121306E0,-2.602194548E-1,2.893819809E0,9.994221687E0
3.679121306E0,3.909274042E-1,2.817249537E0,9.534501076E0
3.699121306E0,9.272187948E-1,2.702394009E0,9.036494255E0
3.719121306E0,1.118644595E0,2.166102648E0,8.347063065E0
3.739121306E0,1.118644595E0,1.668096542E0,7.695915699E0
3.759121306E0,8.506484628E-1,1.246660590E0,7.465905666E0
3.779121306E0,5.823532343E-1,1.476371527E0,7.734200954E0
3.799121306E0,6.589235067E-1,1.897807479E0,7.925626755E0
3.819121306E0,1.348654628E0,2.204387903E0,8.155636787E0
3.839121306E0,1.386939883E0,2.740679264E0,7.389335632E0
3.859121306E0,1.609173268E-1,2.932105064E0,6.546762943E0
3.879121306E0,-2.252244234E0,4.694119930E0,7.159624577E0
3.899121306E0,-3.363112211E0,6.226423740E0,7.734200954E0
3.919121306E0,-2.558824778E0,6.494719028E0,7.197909832E0
3.939121306E0,-1.984248161E0,6.571289062E0,6.776473522E0
3.959121306E0,-2.328814745E0,6.571289062E0,7.351050377E0
3.979121306E0,-5.048855782E0,8.601598740E0,8.308777809E0
3.999121306E0,-4.857131004E0,8.371888161E0,8.423632622E0
4.019121306E0,-3.171686411E0,6.762714863E0,8.002197266E0
4.039121306E0,-1.907677889E0,5.805286884E0,8.921639442E0
4.059121306E0,-1.754238129E0,4.924129963E0,9.994221687E0
4.079121306E0,-1.869392633E0,4.311268330E0,1.072223854E1
4.099121306E0,-1.639382601E0,4.004687786E0,1.137338543E1
4.119121306E0,-8.733802438E-1,3.736691713E0,1.144995499E1
4.139121306E0,-1.070788130E-1,3.430111170E0,1.114337540E1
4.159121306E0,-1.453639716E-1,3.698406458E0,1.007079220E1
4.179121306E0,-5.667998791E-1,4.196412563E0,8.691927910E0
4.199121306E0,-1.141376376E0,4.694119930E0,7.465905666E0
4.219121306E0,-1.792523265E0,4.770989418E0,7.121339321E0
4.239121306E0,-1.984248161E0,4.234697819E0,7.236194611E0
4.259121306E0,-2.137388945E0,3.506681681E0,7.619345665E0
4.279121306E0,-2.520539522E0,3.200400352E0,7.925626755E0
4.299121306E0,-3.707977772E0,4.081258297E0,8.845068932E0
4.319121306E0,-4.014558315E0,4.770989418E0,9.419645309E0
4.339121306E0,-2.865106106E0,4.196412563E0,9.381360054E0
4.359121306E0,-1.409671664E0,3.544966698E0,1.010907745E1
4.379121306E0,7.740781307E-1,2.089233160E0,1.125852966E1
4.399121306E0,1.769791484E0,1.284945726E0,1.202453232E1
4.419121306E0,1.769791484E0,1.323230863E0,1.240768242E1
4.439121306E0,1.578365684E0,1.438086390E0,1.175653553E1
4.459121306E0,1.923231244E0,1.016650558E0,1.037737274E1
4.479121306E0,2.727518797E0,5.186443329E-1,9.343074799E0
4.499121306E0,3.072384357E0,3.272185028E-1,9.228219986E0
4.519121306E0,1.731506228E0,1.016650558E0,9.343074799E0
4.539121306E0,2.760719061E-1,1.821237087E0,8.959924698E0
4.559121306E0,-1.070788130E-1,2.319243431E0,8.538488388E0
4.579121306E0,2.374876440E-1,2.740679264E0,8.193922043E0
4.599121306E0,3.526422381E-1,2.932105064E0,7.236194611E0
4.619121306E0,1.226321608E-1,3.506681681E0,7.236194611E0
4.639121306E0,-7.199404836E-1,4.042973042E0,7.274479866E0
4.659121306E0,-9.116654396E-1,4.081258297E0,7.121339321E0
4.679121306E0,-7.582256794E-1,4.196412563E0,7.542775154E0
4.699121306E0,8.434699476E-2,4.387838364E0,8.385348320E0
4.719121306E0,5.440680385E-1,3.851547241E0,8.883354187E0
4.739121306E0,4.606183618E-2,4.081258297E0,8.998209953E0
4.759121306E0,-4.519443810E-1,3.966402531E0,9.879366875E0
4.779121306E0,-9.499505758E-1,4.234697819E0,1.030080223E1
4.799121306E0,-6.050850153E-1,4.540979385E0,1.003250694E1
4.819121306E0,1.992024779E-1,3.889832258E0,9.457930565E0
4.839121306E0,8.434699476E-2,4.272983074E0,9.764511108E0
4.859121306E0,4.606183618E-2,4.349553585E0,9.841081619E0
4.879121306E0,-1.453639716E-1,4.579264164E0,9.419645309E0
4.899121306E0,-5.285146832E-1,5.077270508E0,9.726225853E0
4.919121306E0,2.760719061E-1,4.157828331E0,9.955936432E0
4.939121306E0,3.143570721E-1,4.004687786E0,1.053051376E1
4.959121306E0,3.909274042E-1,3.659822226E0,1.091366386E1
4.979121306E0,2.374876440E-1,3.353540897E0,1.072223854E1
4.999121306E0,-1.453639716E-1,3.506681681E0,1.014766216E1
5.019121306E0,-1.453639716E-1,3.813261986E0,9.266505241E0
5.039121306E0,-1.070788130E-1,4.234697819E0,8.423632622E0
5.059121306E0,-1.453639716E-1,4.502694130E0,7.963912010E0
5.079121306E0,-3.753740489E-1,4.655834675E0,8.155636787E0
5.099121306E0,-7.582256794E-1,4.809274197E0,7.772486210E0
5.119121306E0,-8.733802438E-1,4.655834675E0,7.619345665E0
5.139121306E0,-8.733802438E-1,4.004687786E0,8.308777809E0
5.159121306E0,-1.715952992E0,4.234697819E0,9.113364220E0
5.179121306E0,-2.711965322E0,4.962415218E0,9.113364220E0
5.199121306E0,-2.137388945E0,5.268995285E0,1.045394325E1
5.219121306E0,-9.499505758E-1,4.042973042E0,1.217767239E1
5.239121306E0,-2.219343036E-1,2.932105064E0,1.210110188E1
5.259121306E0,-4.519443810E-1,2.166102648E0,1.122024441E1
5.279121306E0,-1.064806104E0,2.127817631E0,9.917651176E0
5.299121306E0,-8.350951076E-1,2.089233160E0,9.496215820E0
5.319121306E0,-3.050848842E-2,1.552941918E0,9.113364220E0
5.339121306E0,5.440680385E-1,9.783653617E-1,8.959924698E0
5.359121306E0,1.080359459E0,8.635098934E-1,8.347063065E0
5.379121306E0,1.156929731E0,1.208375454E0,7.121339321E0
5.399121306E0,1.003789067E0,1.629811287E0,6.891329288E0
5.419121306E0,1.195214868E0,2.319243431E0,7.006184578E0
5.439121306E0,1.271785259E0,2.127817631E0,7.389335632E0
5.459121306E0,1.348654628E0,1.323230863E0,6.278467655E0
5.479121306E0,2.191227436E0,9.017950296E-1,7.925626755E0
5.499121306E0,2.191227436E0,9.017950296E-1,7.925626755E0
5.519121306E0,2.229512453E0,1.974377751E0,1.083709335E1
5.539121306E0,2.152942181E0,1.936092615E0,1.106680489E1
5.559121306E0,1.693221092E0,1.821237087E0,9.917651176E0
5.579121306E0,1.386939883E0,1.706381679E0,8.117351532E0
5.599121306E0,-2.602194548E-1,2.127817631E0,9.266505241E0
5.619121306E0,-1.179661512E0,3.238685369E0,1.033908749E1
5.639121306E0,-1.333101273E0,4.311268330E0,1.060708332E1
5.659121306E0,-1.486241937E0,4.732704163E0,1.099023438E1
5.679121306E0,-1.677667737E0,5.536991596E0,1.049222851E1
5.699121306E0,-1.447956800E0,5.843572140E0,9.304789543E0
5.719121306E0,-7.199404836E-1,5.460421085E0,9.266505241E0
5.739121306E0,1.609173268E-1,5.307280540E0,8.768498421E0
5.759121306E0,4.606183618E-2,5.153841019E0,9.419645309E0
5.779121306E0,-1.907677889E0,4.885844707E0,1.129681492E1
5.799121306E0,-2.328814745E0,3.774976730E0,1.210110188E1
5.819121306E0,-9.116654396E-1,2.970390320E0,1.049222851E1
5.839121306E0,-6.816553473E-1,3.085245609E0,8.806783676E0
5.859121306E0,-2.602194548E-1,3.583251953E0,8.117351532E0
5.879121306E0,-2.602194548E-1,3.583251953E0,8.117351532E0
5.899121306E0,-1.715952992E0,3.774976730E0,8.883354187E0
5.919121306E0,-2.903690338E0,3.506681681E0,1.056879807E1
5.939121306E0,-4.397409916E0,4.847559452E0,1.164138126E1
5.959121306E0,-3.401696444E0,5.843572140E0,9.649655342E0
5.979121306E0,-2.558824778E0,4.617549419E0,6.546762943E0
5.999121306E0,-2.558824778E0,3.506681681E0,6.585047722E0
6.019121306E0,-1.524527073E0,3.468396425E0,8.040482521E0
6.039121306E0,-1.409671664E0,3.774976730E0,9.994221687E0
6.059121306E0,-2.099103689E0,3.659822226E0,1.221625710E1
6.079121306E0,-1.907677889E0,4.272983074E0,1.148824024E1
6.099121306E0,-1.562812328E0,4.579264164E0,1.030080223E1
6.119121306E0,-2.443969250E0,4.540979385E0,1.033908749E1
6.139121306E0,-2.443969250E0,4.655834675E0,9.457930565E0
6.159121306E0,-2.060818434E0,4.349553585E0,9.228219986E0
6.179121306E0,-2.137388945E0,4.157828331E0,9.343074799E0
6.199121306E0,-1.907677889E0,4.502694130E0,8.845068932E0
6.219121306E0,-1.447956800E0,4.387838364E0,8.117351532E0
6.239121306E0,-1.869392633E0,4.540979385E0,7.657630444E0
6.259121306E0,-2.099103689E0,4.042973042E0,7.121339321E0
6.279121306E0,-2.213959217E0,3.583251953E0,6.891329288E0
6.299121306E0,-2.060818434E0,3.162115097E0,7.159624577E0
6.319121306E0,-2.405683994E0,3.315255880E0,7.389335632E0
6.339121306E0,-2.980260611E0,3.468396425E0,7.542775154E0
6.359121306E0,-3.171686411E0,3.659822226E0,7.427620411E0
6.379121306E0,-2.367398977E0,4.042973042E0,7.657630444E0
6.399121306E0,-1.715952992E0,3.928117514E0,8.002197266E0
6.419121306E0,-2.137388945E0,4.426123619E0,8.347063065E0
6.439121306E0,-3.171686411E0,4.847559452E0,9.151649475E0
6.459121306E0,-2.826820850E0,4.655834675E0,1.014766216E1
6.479121306E0,-2.635395050E0,4.004687786E0,1.144995499E1
6.499121306E0,-2.788535595E0,3.544966698E0,1.129681492E1
6.519121306E0,-3.133401155E0,3.889832258E0,1.099023438E1
6.539121306E0,-3.209971666E0,4.924129963E0,1.030080223E1
6.559121306E0,-3.861118555E0,5.613562107E0,9.955936432E0
6.579121306E0,-4.435994148E0,5.575276852E0,1.083709335E1
6.599121306E0,-3.784548044E0,4.962415218E0,1.198624706E1
6.619121306E0,-2.826820850E0,4.540979385E0,1.187139130E1
6.639121306E0,-2.482254505E0,4.809274197E0,1.041565800E1
6.659121306E0,-2.482254505E0,5.115555763E0,9.649655342E0
6.679121306E0,-2.328814745E0,5.383851051E0,8.653642654E0
6.699121306E0,-2.597109795E0,4.962415218E0,7.925626755E0
6.719121306E0,-2.597109795E0,4.387838364E0,7.963912010E0
6.739121306E0,-1.830808401E0,4.157828331E0,8.193922043E0
6.759121306E0,-1.754238129E0,4.081258297E0,8.232207298E0
6.779121306E0,-2.367398977E0,4.042973042E0,8.500203133E0
6.799121306E0,-2.865106106E0,3.813261986E0,9.151649475E0
6.819121306E0,-3.018545866E0,4.311268330E0,9.189934731E0
6.839121306E0,-5.201996326E0,4.426123619E0,3.060719252E0
6.859121306E0,-2.941975355E0,4.119543076E0,1.068395329E1
6.879121306E0,-2.788535595E0,2.817249537E0,1.102851963E1
6.899121306E0,-3.018545866E0,1.438086390E0,1.045394325E1
6.990055008E0,-3.095116138E0,1.821237087E0,8.921639442E0
7.010055008E0,-3.209971666E0,2.089233160E0,8.500203133E0
7.030055008E0,-4.091128349E0,2.664108992E0,8.845068932E0
7.050055008E0,-4.474279404E0,2.817249537E0,9.036494255E0
7.070055008E0,-3.861118555E0,2.510669231E0,9.572786331E0
7.090055008E0,-2.405683994E0,1.016650558E0,8.461917877E0
7.110055008E0,-3.171686411E0,1.399801254E0,9.189934731E0
7.130055008E0,-3.899403572E0,2.166102648E0,9.343074799E0
7.150055008E0,-3.439981699E0,2.702394009E0,8.806783676E0
7.170055008E0,-1.830808401E0,2.127817631E0,7.044768810E0
7.190055008E0,-1.064806104E0,1.591227055E0,6.776473522E0
7.210055008E0,-1.524527073E0,1.131805062E0,7.389335632E0
7.230055008E0,-1.984248161E0,9.400802255E-1,7.619345665E0
7.250055008E0,-1.333101273E0,2.889333367E-1,8.615358353E0
7.270055008E0,-1.070788130E-1,-1.128515005E0,9.879366875E0
7.290055008E0,-1.294517040E0,-2.086242199E0,9.879366875E0
7.310055008E0,-1.945963025E0,-1.856232166E0,1.083709335E1
7.330055008E0,-2.788535595E0,-1.013659477E0,1.152652550E1
7.350055008E0,-3.554837227E0,-8.602197170E-1,1.344198036E1
7.370055008E0,-4.014558315E0,-8.985049129E-1,1.298225880E1
7.390055008E0,-3.937987804E0,-1.205085278E0,1.236939716E1
7.410055008E0,-2.826820850E0,-1.588235974E0,1.045394325E1
7.430055008E0,-1.294517040E0,-2.277667999E0,1.198624706E1
7.450055008E0,-1.256231904E0,-1.932802439E0,1.187139130E1
7.470055008E0,-1.715952992E0,-8.219345808E-1,9.802796364E0
7.490055008E0,-2.405683994E0,4.037888348E-1,7.542775154E0
7.510055008E0,-3.439981699E0,3.655036688E-1,8.461917877E0
7.530055008E0,-6.312864304E0,-1.325025558E-1,1.252253819E1
7.550055008E0,-7.423732281E0,-5.539384484E-1,7.312765121E0
7.570055008E0,-4.703989983E0,3.272185028E-1,3.252145052E0
7.590055008E0,-7.500302792E0,9.017950296E-1,2.371287346E0
7.610055008E0,-5.355136871E0,1.054935694E0,4.478167534E0
7.630055008E0,-3.631407499E0,-1.325025558E-1,6.891329288E0
7.650055008E0,-2.788535595E0,-5.593222752E-2,8.461917877E0
7.670055008E0,-4.589134693E0,-4.770690203E-1,7.734200954E0
7.690055008E0,-4.320839405E0,-3.426821232E0,7.236194611E0
7.710055008E0,-1.984248161E0,-3.695116282E0,9.155537486E-1
7.730055008E0,-5.738287926E0,-1.013659477E0,3.941876173E0
7.750055008E0,-6.657730103E0,1.361516118E0,6.623332977E0
7.770055008E0,-4.550849438E0,8.635098934E-1,5.857031822E0
7.790055008E0,-4.972285271E0,-1.205085278E0,8.845068932E0
7.810055008E0,-4.895416260E0,-1.764706708E-2,1.190967655E1
7.830055008E0,-1.907677889E0,3.272185028E-1,1.554886055E1
7.850055008E0,2.760719061E-1,-2.473580390E-1,1.777059555E1
7.870055008E0,-1.754238129E0,-1.764706708E-2,1.665972900E1
7.890055008E0,-3.669692516E0,7.486543655E-1,1.386341572E1
7.910055008E0,-4.627419949E0,8.252246976E-1,1.321197033E1
7.930055008E0,-2.175673962E0,3.272185028E-1,1.409312725E1
7.950055008E0,2.374876440E-1,-4.387838542E-1,1.401655674E1
7.970055008E0,2.760719061E-1,-8.985049129E-1,1.252253819E1
7.990055008E0,-1.141376376E0,-4.004986882E-1,9.496215820E0
8.010055008E0,-1.639382601E0,-1.764706708E-2,8.845068932E0
8.030055008E0,-1.064806104E0,-1.707877219E-1,8.538488388E0
8.050055008E0,-3.050848842E-2,-4.004986882E-1,8.730213165E0
8.070055008E0,-3.753740489E-1,-5.593222752E-2,8.002197266E0
8.090055008E0,-1.256231904E0,1.740778536E-1,7.274479866E0
8.110055008E0,-2.022533417E0,5.186443329E-1,7.351050377E0
8.130055008E0,-2.137388945E0,1.093519926E0,7.772486210E0
8.150055008E0,-1.141376376E0,1.514656782E0,8.079066277E0
8.170055008E0,-9.116654396E-1,1.552941918E0,7.734200954E0
8.190055008E0,-1.294517040E0,1.399801254E0,7.810771465E0
8.210055008E0,-1.830808401E0,1.170090318E0,7.963912010E0
8.230055008E0,-1.945963025E0,1.668096542E0,8.461917877E0
8.250055008E0,-1.447956800E0,2.089233160E0,8.959924698E0
8.270055008E0,-3.370888829E-1,2.204387903E0,9.687940598E0
8.290055008E0,8.434699476E-2,1.782951951E0,1.060708332E1
8.310055008E0,4.292125702E-1,1.514656782E0,1.106680489E1
8.330055008E0,5.057829022E-1,2.012662888E0,1.133510017E1
8.350055008E0,5.440680385E-1,1.974377751E0,1.183310604E1
8.370055008E0,8.506484628E-1,2.204387903E0,1.279083347E1
8.390055008E0,1.578365684E0,2.166102648E0,1.271396446E1
8.410055008E0,1.923231244E0,2.434098721E0,1.183310604E1
8.430055008E0,2.191227436E0,2.472383976E0,1.053051376E1
8.450055008E0,2.038086653E0,2.510669231E0,1.003250694E1
8.470055008E0,2.114656925E0,2.357528448E0,9.955936432E0
8.490055008E0,2.459522486E0,2.893819809E0,9.304789543E0
8.510055008E0,2.727518797E0,3.430111170E0,8.232207298E0
8.530055008E0,2.536092997E0,3.774976730E0,7.197909832E0
8.550055008E0,1.769791484E0,4.157828331E0,6.585047722E0
8.570055008E0,8.123632669E-1,4.081258297E0,6.929614544E0
8.590055008E0,1.226321608E-1,3.928117514E0,7.427620411E0
8.610055008E0,2.760719061E-1,4.004687786E0,7.427620411E0
8.630055008E0,7.740781307E-1,4.004687786E0,6.891329288E0
8.650055008E0,4.292125702E-1,4.157828331E0,6.929614544E0
8.670055008E0,-4.902295470E-1,4.042973042E0,7.427620411E0
8.690055008E0,-1.217946768E0,4.196412563E0,7.925626755E0
8.710055008E0,-1.294517040E0,4.234697819E0,8.500203133E0
8.730055008E0,-4.136592150E-1,3.736691713E0,8.691927910E0
8.750055008E0,1.609173268E-1,2.204387903E0,9.611071587E0
8.770055008E0,-5.667998791E-1,8.635098934E-1,1.102851963E1
8.790055008E0,-1.601097465E0,-2.090728730E-1,1.175653553E1
8.810055008E0,-1.524527073E0,-1.707877219E-1,1.198624706E1
8.830055008E0,3.143570721E-1,5.922235921E-2,1.213938713E1
8.850055008E0,1.578365684E0,4.420739710E-1,1.053051376E1
8.870055008E0,5.823532343E-1,1.552941918E0,8.806783676E0
8.890055008E0,1.609173268E-1,2.166102648E0,9.151649475E0
8.910055008E0,2.760719061E-1,2.434098721E0,1.018594646E1
8.930055008E0,2.374876440E-1,3.276970625E0,1.156481075E1
8.950055008E0,6.972087026E-1,3.391826153E0,1.217767239E1
8.970055008E0,1.080359459E0,3.353540897E0,1.233111286E1
8.990055008E0,1.501795292E0,2.970390320E0,1.221625710E1
9.010055008E0,1.846660852E0,2.702394009E0,1.156481075E1
9.030055008E0,1.540080428E0,2.357528448E0,1.033908749E1
9.050055008E0,6.972087026E-1,2.050948143E0,9.151649475E0
9.070055008E0,5.440680385E-1,1.514656782E0,8.615358353E0
9.090055008E0,5.440680385E-1,1.093519926E0,8.538488388E0
9.110055008E0,8.123632669E-1,9.400802255E-1,7.963912010E0
9.130055008E0,8.123632669E-1,9.400802255E-1,7.542775154E0
9.150055008E0,5.440680385E-1,9.400802255E-1,7.236194611E0
9.170055008E0,-3.050848842E-2,6.337988973E-1,7.542775154E0
9.190055008E0,-1.103091240E0,9.017950296E-1,7.657630444E0
9.210055008E0,-1.601097465E0,1.514656782E0,7.849056244E0
9.230055008E0,-9.882357717E-1,2.127817631E0,8.040482521E0
9.250055008E0,-5.285146832E-1,2.472383976E0,8.193922043E0
9.270055008E0,-1.064806104E0,3.468396425E0,8.232207298E0
9.290055008E0,-2.099103689E0,4.272983074E0,8.461917877E0
9.310055008E0,-2.175673962E0,4.311268330E0,8.959924698E0
9.330055008E0,-1.715952992E0,4.732704163E0,1.033908749E1
9.350055008E0,-7.199404836E-1,4.655834675E0,1.148824024E1
9.370055008E0,-1.070788130E-1,4.081258297E0,1.217767239E1
9.390055008E0,2.374876440E-1,3.162115097E0,1.336540985E1
9.410055008E0,4.674977362E-1,2.242672920E0,1.386341572E1
9.430055008E0,1.233500123E0,1.936092615E0,1.336540985E1
9.450055008E0,2.267797709E0,2.242672920E0,1.179482079E1
9.470055008E0,3.072384357E0,2.740679264E0,9.802796364E0
9.490055008E0,2.880958557E0,3.583251953E0,7.427620411E0
9.510055008E0,2.344667196E0,3.851547241E0,6.240182400E0
9.530055008E0,1.233500123E0,3.315255880E0,7.044768810E0
9.550055008E0,1.226321608E-1,2.740679264E0,8.308777809E0
9.570055008E0,-5.667998791E-1,2.817249537E0,8.615358353E0
9.590055008E0,-3.753740489E-1,2.740679264E0,7.963912010E0
9.610055008E0,-1.026520967E0,3.851547241E0,7.197909832E0
9.630055008E0,-1.294517040E0,4.579264164E0,6.738188744E0
9.650055008E0,-9.499505758E-1,4.464408875E0,7.236194611E0
9.670055008E0,5.440680385E-1,2.395813704E0,8.308777809E0
9.690055008E0,1.310369492E0,5.955137610E-1,9.304789543E0
9.710055008E0,8.889335990E-1,-3.239283562E-1,1.091366386E1
9.730055008E0,1.992024779E-1,-5.539384484E-1,1.248425293E1
9.750055008E0,6.972087026E-1,-1.013659477E0,1.213938713E1
9.770055008E0,1.540080428E0,-1.090229869E0,1.122024441E1
9.790055008E0,1.578365684E0,-5.539384484E-1,1.122024441E1
9.810055008E0,1.348654628E0,-1.325025558E-1,1.187139130E1
9.830055008E0,5.440680385E-1,9.017950296E-1,1.252253819E1
9.850055008E0,5.057829022E-1,1.821237087E0,1.252253819E1
9.870055008E0,1.118644595E0,2.319243431E0,1.187139130E1
9.890055008E0,1.808375716E0,2.817249537E0,1.091366386E1
9.910055008E0,2.382952213E0,2.855534792E0,9.994221687E0
9.930055008E0,2.650948286E0,2.510669231E0,9.534501076E0
9.950055008E0,2.536092997E0,1.974377751E0,8.921639442E0
9.970055008E0,2.497807741E0,1.054935694E0,8.079066277E0
9.990055008E0,1.425225019E0,5.569294691E-1,6.929614544E0
1.001005501E1,4.674977362E-1,6.337988973E-1,5.933601856E0
1.003005501E1,-2.602194548E-1,8.635098934E-1,5.780461311E0
1.005005501E1,-1.103091240E0,1.438086390E0,6.010471344E0
1.007005501E1,-1.447956800E0,1.591227055E0,6.508477688E0
1.009005501E1,-1.754238129E0,1.668096542E0,7.849056244E0
1.011005501E1,-1.830808401E0,2.050948143E0,8.998209953E0
1.013005501E1,-1.754238129E0,2.664108992E0,8.806783676E0
1.015005501E1,-4.136592150E-1,3.046960592E0,7.427620411E0
1.017005501E1,2.374876440E-1,4.426123619E0,6.776473522E0
1.019005501E1,8.123632669E-1,4.387838364E0,7.197909832E0
1.021005501E1,1.310369492E0,3.774976730E0,9.228219986E0
1.023005501E1,1.540080428E0,3.276970625E0,1.233111286E1
1.025005501E1,1.999801517E0,2.050948143E0,1.305882931E1
1.027005501E1,2.191227436E0,1.629811287E0,1.382513142E1
1.029005501E1,2.650948286E0,1.668096542E0,1.462941837E1
1.031005501E1,3.493820190E0,2.089233160E0,1.424626827E1
1.033005501E1,4.259822369E0,2.778964281E0,1.267567921E1
1.035005501E1,4.566402912E0,3.468396425E0,1.068395329E1
1.037005501E1,3.570390463E0,3.928117514E0,9.036494255E0
1.039005501E1,2.459522486E0,3.813261986E0,8.193922043E0
1.041005501E1,1.923231244E0,3.659822226E0,7.810771465E0
1.043005501E1,1.386939883E0,3.736691713E0,7.619345665E0
1.045005501E1,6.206383705E-1,3.966402531E0,7.810771465E0
1.047005501E1,-3.050848842E-2,3.544966698E0,8.155636787E0
1.049005501E1,-7.582256794E-1,3.315255880E0,8.691927910E0
1.051005501E1,-1.715952992E0,4.119543076E0,8.730213165E0
1.053005501E1,-1.792523265E0,5.115555763E0,8.155636787E0
1.055005501E1,2.760719061E-1,4.502694130E0,7.312765121E0
1.057005501E1,1.616650820E0,3.085245609E0,7.810771465E0
1.059005501E1,1.846660852E0,1.246660590E0,1.030080223E1
1.061005501E1,1.226321608E-1,9.783653617E-1,1.137338543E1
1.063005501E1,-7.199404836E-1,1.668096542E0,1.079880905E1
1.065005501E1,8.889335990E-1,1.629811287E0,9.687940598E0
1.067005501E1,2.229512453E0,1.936092615E0,9.457930565E0
1.069005501E1,1.884945989E0,1.438086390E0,9.879366875E0
1.071005501E1,1.003789067E0,1.668096542E0,1.060708332E1
1.073005501E1,3.909274042E-1,2.204387903E0,1.064536858E1
1.075005501E1,5.057829022E-1,2.817249537E0,1.026251698E1
1.077005501E1,1.348654628E0,3.008675337E0,9.764511108E0
1.079005501E1,1.769791484E0,3.046960592E0,9.266505241E0
1.081005501E1,1.769791484E0,2.740679264E0,8.577073097E0
1.083005501E1,1.195214868E0,2.434098721E0,8.347063065E0
1.085005501E1,3.909274042E-1,2.089233160E0,8.270492554E0
1.087005501E1,1.609173268E-1,1.706381679E0,8.500203133E0
1.089005501E1,8.889335990E-1,1.131805062E0,8.768498421E0
1.091005501E1,1.999801517E0,7.869395614E-1,9.228219986E0
1.093005501E1,2.114656925E0,7.103692293E-1,9.457930565E0
1.095005501E1,1.118644595E0,1.093519926E0,8.959924698E0
1.097005501E1,2.760719061E-1,2.050948143E0,7.849056244E0
1.099005501E1,-1.453639716E-1,3.238685369E0,6.393322945E0
1.101005501E1,-9.499505758E-1,4.924129963E0,5.512465000E0
1.103005501E1,-1.333101273E0,5.767001629E0,6.278467655E0
1.105005501E1,-1.026520967E0,5.651846886E0,8.921639442E0
1.107005501E1,-1.715952992E0,5.115555763E0,1.099023438E1
1.109005501E1,-3.784548044E0,5.038985252E0,1.129681492E1
1.111005501E1,-5.240281582E0,5.422136307E0,1.099023438E1
1.113005501E1,-4.167698860E0,5.613562107E0,1.045394325E1
1.115005501E1,-1.486241937E0,4.042973042E0,1.060708332E1
1.117005501E1,-4.136592150E-1,2.702394009E0,1.256082344E1
1.119005501E1,-7.582256794E-1,2.127817631E0,1.302054405E1
1.121005501E1,-1.256231904E0,2.319243431E0,1.202453232E1
1.123005501E1,-1.179661512E0,3.315255880E0,1.022423172E1
1.125005501E1,-1.070788130E-1,3.621536970E0,8.040482521E0
1.127005501E1,1.992024779E-1,3.928117514E0,7.542775154E0
1.129005501E1,8.434699476E-2,3.813261986E0,8.155636787E0
1.131005501E1,-9.116654396E-1,3.736691713E0,8.691927910E0
1.133005501E1,-1.447956800E0,3.544966698E0,8.653642654E0
1.135005501E1,-1.486241937E0,3.085245609E0,8.845068932E0
1.137005501E1,-1.179661512E0,2.778964281E0,9.228219986E0
1.139005501E1,-1.524527073E0,3.276970625E0,8.998209953E0
1.141005501E1,-2.022533417E0,3.928117514E0,8.806783676E0
1.143005501E1,-1.447956800E0,4.081258297E0,8.883354187E0
1.145005501E1,1.992024779E-1,3.583251953E0,9.036494255E0
1.147005501E1,1.310369492E0,3.162115097E0,9.036494255E0
1.149005501E1,1.233500123E0,2.664108992E0,9.879366875E0
1.151005501E1,5.057829022E-1,2.395813704E0,1.033908749E1
1.153005501E1,5.823532343E-1,2.050948143E0,1.014766216E1
1.155005501E1,1.233500123E0,1.821237087E0,9.457930565E0
1.157005501E1,1.999801517E0,1.744666815E0,9.572786331E0
1.159005501E1,2.382952213E0,1.246660590E0,1.060708332E1
1.161005501E1,1.769791484E0,1.246660590E0,1.164138126E1
1.163005501E1,1.348654628E0,1.438086390E0,1.125852966E1
1.165005501E1,1.348654628E0,2.012662888E0,9.917651176E0
1.167005501E1,1.769791484E0,2.280958176E0,8.155636787E0
1.169005501E1,2.114656925E0,2.395813704E0,7.121339321E0
1.171005501E1,2.114656925E0,2.395813704E0,7.121339321E0
1.173005501E1,1.425225019E0,1.706381679E0,7.810771465E0
1.175005501E1,9.655039310E-1,1.208375454E0,8.155636787E0
1.177005501E1,8.506484628E-1,1.361516118E0,8.347063065E0
1.179005501E1,1.540080428E0,1.821237087E0,8.232207298E0
1.181005501E1,2.267797709E0,2.089233160E0,8.461917877E0
1.183005501E1,2.382952213E0,2.242672920E0,8.308777809E0
1.185005501E1,1.769791484E0,2.740679264E0,8.193922043E0
1.187005501E1,1.195214868E0,3.123530865E0,8.270492554E0
1.189005501E1,1.118644595E0,3.506681681E0,9.343074799E0
1.191005501E1,1.156929731E0,4.464408875E0,9.611071587E0
1.193005501E1,1.540080428E0,4.694119930E0,8.883354187E0
1.195005501E1,1.578365684E0,4.770989418E0,8.308777809E0
1.197005501E1,1.195214868E0,4.502694130E0,8.730213165E0
1.199005501E1,5.823532343E-1,3.851547241E0,9.419645309E0
1.201005501E1,-4.519443810E-1,4.464408875E0,1.007079220E1
1.203005501E1,-2.602194548E-1,5.230411053E0,9.534501076E0
1.205005501E1,1.310369492E0,4.579264164E0,9.228219986E0
1.207005501E1,2.267797709E0,3.200400352E0,1.137338543E1
1.209005501E1,1.654935956E0,2.127817631E0,1.344198036E1
1.211005501E1,2.760719061E-1,2.204387903E0,1.332712460E1
1.213005501E1,1.992024779E-1,2.778964281E0,1.167966652E1
1.215005501E1,1.003789067E0,3.659822226E0,9.266505241E0
1.217005501E1,1.578365684E0,4.540979385E0,7.159624577E0
1.219005501E1,1.348654628E0,4.732704163E0,6.585047722E0
1.221005501E1,4.674977362E-1,4.426123619E0,6.967899323E0
1.223005501E1,-3.370888829E-1,4.234697819E0,7.351050377E0
1.225005501E1,-1.026520967E0,4.349553585E0,7.236194611E0
1.227005501E1,-1.179661512E0,4.847559452E0,6.661618233E0
1.229005501E1,-1.294517040E0,4.885844707E0,7.465905666E0
1.231005501E1,-1.984248161E0,5.536991596E0,8.461917877E0
1.233005501E1,-1.447956800E0,5.422136307E0,8.423632622E0
1.235005501E1,-3.050848842E-2,4.119543076E0,9.764511108E0
1.237005501E1,5.057829022E-1,2.280958176E0,1.275254822E1
1.239005501E1,7.740781307E-1,1.016650558E0,1.420798302E1
1.241005501E1,1.501795292E0,-9.421738982E-2,1.351855087E1
1.243005501E1,1.693221092E0,-2.473580390E-1,1.194796181E1
1.245005501E1,1.769791484E0,2.063809521E-2,1.144995499E1
1.247005501E1,1.923231244E0,5.922235921E-2,1.141167068E1
1.249005501E1,1.386939883E0,9.017950296E-1,1.076052380E1
1.251005501E1,1.271785259E0,2.089233160E0,9.457930565E0
1.253005501E1,1.501795292E0,3.085245609E0,7.925626755E0
1.255005501E1,1.923231244E0,4.042973042E0,6.967899323E0
1.257005501E1,2.459522486E0,4.234697819E0,6.699903488E0
1.259005501E1,2.880958557E0,3.928117514E0,7.236194611E0
1.261005501E1,3.148954630E0,3.200400352E0,7.657630444E0
1.263005501E1,3.455534935E0,2.089233160E0,7.810771465E0
1.265005501E1,3.263810158E0,1.284945726E0,7.849056244E0
1.267005501E1,2.765803814E0,7.103692293E-1,7.772486210E0
1.269005501E1,2.229512453E0,3.272185028E-1,7.542775154E0
1.271005501E1,1.425225019E0,1.740778536E-1,7.772486210E0
1.273005501E1,3.526422381E-1,5.186443329E-1,7.504190922E0
1.275005501E1,-5.285146832E-1,1.438086390E0,7.197909832E0
1.277005501E1,-1.026520967E0,2.319243431E0,7.772486210E0
1.279005501E1,-1.256231904E0,3.162115097E0,8.117351532E0
1.281005501E1,-2.252244234E0,5.000699997E0,7.044768810E0
1.283005501E1,-2.826820850E0,6.188138485E0,6.316752911E0
1.285005501E1,-3.324826956E0,6.341578007E0,7.197909832E0
1.287005501E1,-2.980260611E0,4.885844707E0,1.102851963E1
1.289005501E1,-2.520539522E0,2.855534792E0,1.562543106E1
1.291005501E1,-2.252244234E0,1.936092615E0,1.711944962E1
1.293005501E1,-1.677667737E0,2.204387903E0,1.562543106E1
1.295005501E1,-1.453639716E-1,2.817249537E0,1.397827148E1
1.297005501E1,7.354938388E-1,3.200400352E0,1.305882931E1
1.299005501E1,1.233500123E0,3.391826153E0,1.175653553E1
1.301005501E1,1.195214868E0,3.774976730E0,9.649655342E0
1.303005501E1,8.506484628E-1,4.234697819E0,7.925626755E0
1.305005501E1,4.674977362E-1,4.349553585E0,7.236194611E0
1.307005501E1,4.674977362E-1,4.272983074E0,7.542775154E0
1.309005501E1,6.206383705E-1,4.081258297E0,8.461917877E0
1.311005501E1,6.972087026E-1,3.468396425E0,9.649655342E0
1.313005501E1,7.740781307E-1,3.123530865E0,1.037737274E1
1.315005501E1,1.992024779E-1,3.621536970E0,9.917651176E0
1.317005501E1,-2.988037169E-1,4.196412563E0,9.534501076E0
1.319005501E1,1.884945989E0,3.162115097E0,9.764511108E0
1.321005501E1,3.723531246E0,2.587239504E0,1.064536858E1
1.323005501E1,4.068396568E0,1.629811287E0,1.217767239E1
1.325005501E1,3.034099102E0,3.655036688E-1,1.344198036E1
1.327005501E1,2.229512453E0,5.186443329E-1,1.286740398E1
1.329005501E1,2.765803814E0,2.889333367E-1,1.087537861E1
1.331005501E1,3.187239647E0,1.208375454E0,1.030080223E1
1.333005501E1,3.034099102E0,1.476371527E0,1.033908749E1
1.335005501E1,2.152942181E0,1.629811287E0,9.649655342E0
1.337005501E1,1.310369492E0,2.280958176E0,8.193922043E0
1.339005501E1,1.271785259E0,2.932105064E0,6.738188744E0
1.341005501E1,1.654935956E0,3.162115097E0,6.278467655E0
1.343005501E1,1.884945989E0,2.740679264E0,6.699903488E0
1.345005501E1,1.654935956E0,2.280958176E0,7.044768810E0
1.347005501E1,1.195214868E0,2.127817631E0,6.891329288E0
1.349005501E1,1.080359459E0,2.089233160E0,6.393322945E0
1.351005501E1,1.386939883E0,2.127817631E0,6.087041855E0
1.353005501E1,1.540080428E0,2.319243431E0,6.010471344E0
1.355005501E1,1.310369492E0,2.242672920E0,6.738188744E0
1.357005501E1,1.042074203E0,2.089233160E0,7.006184578E0
1.359005501E1,6.206383705E-1,2.204387903E0,7.006184578E0
1.361005501E1,3.909274042E-1,2.702394009E0,7.389335632E0
1.363005501E1,7.354938388E-1,3.008675337E0,7.504190922E0
1.365005501E1,2.760719061E-1,3.966402531E0,7.465905666E0
1.367005501E1,-2.219343036E-1,5.115555763E0,7.887341499E0
1.369005501E1,7.776673418E-3,4.387838364E0,9.879366875E0
1.371005501E1,7.776673418E-3,3.544966698E0,1.167966652E1
1.373005501E1,-7.968099117E-1,2.932105064E0,1.294397449E1
1.375005501E1,-1.486241937E0,2.664108992E0,1.290568924E1
1.377005501E1,-1.294517040E0,2.778964281E0,1.206281757E1
1.379005501E1,4.292125702E-1,1.284945726E0,8.040482521E0
1.381005501E1,1.609173268E-1,-4.004986882E-1,8.921639442E0
1.383005501E1,-4.205984116E0,2.089233160E0,2.049033928E1
1.385005501E1,-4.397409916E0,2.204387903E0,1.608515167E1
1.387005501E1,-2.673680305E0,1.323230863E0,1.309711456E1
1.389005501E1,-1.601097465E0,5.955137610E-1,9.419645309E0
1.391005501E1,-2.597109795E0,1.016650558E0,8.577073097E0
1.393005501E1,-1.792523265E0,1.208375454E0,8.730213165E0
1.395005501E1,-1.715952992E0,9.783653617E-1,1.122024441E1
1.397005501E1,-1.945963025E0,1.016650558E0,1.290568924E1
1.399005501E1,-2.482254505E0,1.170090318E0,9.917651176E0
1.401005501E1,-3.516551971E0,2.089233160E0,1.003250694E1
1.403005501E1,-3.976273060E0,2.357528448E0,1.010907745E1
1.405005501E1,-3.056830883E0,2.089233160E0,1.187139130E1
1.407005501E1,-2.980260611E0,1.629811287E0,1.053051376E1
1.409005501E1,-4.550849438E0,2.127817631E0,9.955936432E0
1.411005501E1,-5.163711071E0,2.510669231E0,9.994221687E0
1.413005501E1,-4.014558315E0,2.280958176E0,8.959924698E0
1.415005501E1,-3.899403572E0,1.974377751E0,8.193922043E0
1.417005501E1,-4.742275238E0,1.821237087E0,8.461917877E0
1.419005501E1,-5.546862125E0,1.936092615E0,8.385348320E0
1.421005501E1,-5.125426292E0,2.050948143E0,8.079066277E0
1.423005501E1,-4.895416260E0,1.974377751E0,8.577073097E0
1.425005501E1,-4.818845749E0,2.050948143E0,8.998209953E0
1.427005501E1,-3.822833300E0,1.706381679E0,9.151649475E0
1.429005501E1,-3.554837227E0,1.208375454E0,9.036494255E0
1.431005501E1,-4.512564182E0,1.514656782E0,8.653642654E0
1.433005501E1,-5.393422127E0,2.050948143E0,8.270492554E0
1.435005501E1,-5.316852093E0,2.050948143E0,8.117351532E0
1.437005501E1,-5.201996326E0,1.936092615E0,8.500203133E0
1.439005501E1,-5.163711071E0,1.974377751E0,8.730213165E0
1.441005501E1,-4.933701038E0,1.974377751E0,8.921639442E0
1.443005501E1,-4.972285271E0,1.897807479E0,8.768498421E0
1.445005501E1,-5.048855782E0,1.859522343E0,8.730213165E0
1.447005501E1,-5.316852093E0,1.974377751E0,8.768498421E0
1.449005501E1,-5.163711071E0,2.050948143E0,8.768498421E0
1.451005501E1,-4.665705204E0,2.012662888E0,8.806783676E0
1.453005501E1,-4.282554150E0,1.936092615E0,8.653642654E0
1.455005501E1,-4.780560493E0,2.050948143E0,6.201897144E0
1.457005501E1,-4.895416260E0,2.664108992E0,7.925626755E0
1.459005501E1,-4.014558315E0,1.936092615E0,1.007079220E1
1.461005501E1,-3.899403572E0,1.016650558E0,1.118195915E1
1.469635397E1,-2.750250578E0,3.353540897E0,9.151649475E0
1.471635397E1,-2.022533417E0,2.548954248E0,9.228219986E0
1.473635397E1,-2.443969250E0,2.280958176E0,8.883354187E0
1.475635397E1,-2.826820850E0,2.434098721E0,8.117351532E0
1.477635397E1,-2.903690338E0,2.932105064E0,7.312765121E0
1.479635397E1,-3.095116138E0,3.162115097E0,8.423632622E0
1.481635397E1,-1.715952992E0,1.744666815E0,9.534501076E0
1.483635397E1,-1.064806104E0,2.123630047E-1,8.921639442E0
1.485635397E1,-1.333101273E0,-5.922235847E-1,9.687940598E0
1.487635397E1,-2.482254505E0,-8.985049129E-1,1.095194912E1
1.489635397E1,-2.673680305E0,-1.051944613E0,1.033908749E1
1.491635397E1,-2.558824778E0,-9.367900491E-1,1.102851963E1
1.493635397E1,-2.328814745E0,-1.128515005E0,1.064536858E1
1.495635397E1,-2.099103689E0,-1.090229869E0,9.841081619E0
1.497635397E1,-2.290529490E0,-1.205085278E0,1.099023438E1
1.499635397E1,-3.478266716E0,-1.205085278E0,1.275254822E1
1.501635397E1,-4.397409916E0,-1.128515005E0,1.217767239E1
1.503635397E1,-4.205984116E0,-1.703091502E0,1.125852966E1
1.505635397E1,-3.899403572E0,-1.703091502E0,1.068395329E1
1.507635397E1,-3.286541939E0,-1.664806366E0,8.998209953E0
1.509635397E1,-2.290529490E0,-2.392523527E0,1.125852966E1
1.511635397E1,-1.601097465E0,-2.392523527E0,7.925626755E0
1.513635397E1,-2.328814745E0,-1.588235974E0,7.504190922E0
1.515635397E1,-2.980260611E0,-1.013659477E0,8.806783676E0
1.517635397E1,-3.478266716E0,2.123630047E-1,1.420798302E1
1.519635397E1,-4.972285271E0,1.740778536E-1,6.776473522E0
1.521635397E1,-3.209971666E0,-1.664806366E0,5.895316601E0
1.523635397E1,-3.056830883E0,1.782951951E0,2.907578707E0
1.525635397E1,-4.665705204E0,2.932105064E0,6.853044033E0
1.527635397E1,-3.478266716E0,1.744666815E0,8.461917877E0
1.529635397E1,-2.137388945E0,-5.593222752E-2,7.312765121E0
1.531635397E1,-2.290529490E0,-1.013659477E0,8.079066277E0
1.533635397E1,-2.367398977E0,-1.971087694E0,6.240182400E0
1.535635397E1,-5.431707382E0,-9.367900491E-1,8.461917877E0
1.537635397E1,-7.194021225E0,-2.473580390E-1,1.271396446E1
1.539635397E1,-5.776573181E0,-2.473580390E-1,8.845068932E0
1.541635397E1,-2.405683994E0,-4.004986882E-1,8.079066277E0
1.543635397E1,2.689233541E0,-1.013659477E0,1.286740398E1
1.545635397E1,4.642973423E0,-1.358225942E0,1.194796181E1
1.547635397E1,4.106681824E0,-1.090229869E0,1.206281757E1
1.549635397E1,1.348654628E0,-2.090728730E-1,1.432313728E1
1.551635397E1,1.386939883E0,-9.421738982E-2,1.328883934E1
1.553635397E1,1.501795292E0,-1.325025558E-1,1.236939716E1
1.555635397E1,1.348654628E0,9.750752151E-2,1.018594646E1
1.557635397E1,7.740781307E-1,2.063809521E-2,9.228219986E0
1.559635397E1,5.440680385E-1,3.655036688E-1,7.695915699E0
1.561635397E1,-3.753740489E-1,1.170090318E0,7.619345665E0
1.563635397E1,-1.453639716E-1,1.936092615E0,8.002197266E0
1.565635397E1,1.992024779E-1,1.782951951E0,7.849056244E0
1.567635397E1,7.776673418E-3,1.284945726E0,8.385348320E0
1.569635397E1,-1.070788130E-1,9.783653617E-1,9.304789543E0
1.571635397E1,3.143570721E-1,1.016650558E0,9.457930565E0
1.573635397E1,9.655039310E-1,8.252246976E-1,8.845068932E0
1.575635397E1,1.769791484E0,7.486543655E-1,8.117351532E0
1.577635397E1,1.769791484E0,6.337988973E-1,7.734200954E0
1.579635397E1,1.042074203E0,1.131805062E0,8.232207298E0
1.581635397E1,2.038086653E0,1.323230863E0,7.810771465E0
1.583635397E1,2.689233541E0,1.591227055E0,7.849056244E0
1.585635397E1,3.034099102E0,1.706381679E0,8.002197266E0
1.587635397E1,3.225524902E0,1.744666815E0,8.615358353E0
1.589635397E1,2.459522486E0,2.242672920E0,7.925626755E0
1.591635397E1,2.382952213E0,3.085245609E0,7.236194611E0
1.593635397E1,3.723531246E0,3.238685369E0,7.389335632E0
1.595635397E1,4.949553490E0,3.085245609E0,8.538488388E0
1.597635397E1,4.566402912E0,2.855534792E0,8.347063065E0
1.599635397E1,2.765803814E0,2.625524759E0,8.423632622E0
1.601635397E1,2.957528830E0,2.702394009E0,9.572786331E0
1.603635397E1,3.991826296E0,2.242672920E0,1.045394325E1
1.605635397E1,3.915256023E0,2.625524759E0,1.041565800E1
1.607635397E1,4.183252335E0,2.548954248E0,9.841081619E0
1.609635397E1,3.225524902E0,2.970390320E0,9.266505241E0
1.611635397E1,1.616650820E0,3.468396425E0,8.577073097E0
1.613635397E1,1.769791484E0,3.621536970E0,8.883354187E0
1.615635397E1,2.919243574E0,2.970390320E0,9.764511108E0
1.617635397E1,3.532105207E0,2.089233160E0,1.087537861E1
1.619635397E1,3.187239647E0,7.869395614E-1,1.179482079E1
1.621635397E1,2.038086653E0,5.186443329E-1,1.164138126E1
1.623635397E1,1.769791484E0,1.170090318E0,1.099023438E1
1.625635397E1,1.616650820E0,2.242672920E0,9.955936432E0
1.627635397E1,9.655039310E-1,2.587239504E0,9.611071587E0
1.629635397E1,-4.902295470E-1,2.664108992E0,9.228219986E0
1.631635397E1,-7.582256794E-1,2.319243431E0,9.496215820E0
1.633635397E1,-1.453639716E-1,2.166102648E0,1.018594646E1
1.635635397E1,4.292125702E-1,2.204387903E0,1.022423172E1
1.637635397E1,6.972087026E-1,2.434098721E0,9.228219986E0
1.639635397E1,3.143570721E-1,2.395813704E0,8.423632622E0
1.641635397E1,-6.879365444E-2,2.204387903E0,8.691927910E0
1.643635397E1,4.292125702E-1,2.127817631E0,8.921639442E0
1.645635397E1,1.463510156E0,2.127817631E0,8.998209953E0
1.647635397E1,1.846660852E0,2.204387903E0,8.768498421E0
1.649635397E1,1.578365684E0,2.127817631E0,8.117351532E0
1.651635397E1,1.578365684E0,2.089233160E0,7.465905666E0
1.653635397E1,1.654935956E0,2.127817631E0,7.121339321E0
1.655635397E1,1.540080428E0,2.434098721E0,7.312765121E0
1.657635397E1,1.348654628E0,2.510669231E0,7.810771465E0
1.659635397E1,1.348654628E0,2.625524759E0,8.155636787E0
1.661635397E1,1.348654628E0,2.434098721E0,7.963912010E0
1.663635397E1,1.233500123E0,2.740679264E0,7.427620411E0
1.665635397E1,1.348654628E0,2.702394009E0,7.044768810E0
1.667635397E1,1.386939883E0,2.625524759E0,7.504190922E0
1.669635397E1,1.463510156E0,2.702394009E0,8.385348320E0
1.671635397E1,1.195214868E0,3.123530865E0,9.074779510E0
1.673635397E1,1.118644595E0,3.430111170E0,1.007079220E1
1.675635397E1,1.118644595E0,3.468396425E0,1.007079220E1
1.677635397E1,1.386939883E0,3.391826153E0,9.802796364E0
1.679635397E1,2.038086653E0,3.506681681E0,1.064536858E1
1.681635397E1,2.957528830E0,3.391826153E0,1.175653553E1
1.683635397E1,3.034099102E0,4.387838364E0,1.137338543E1
1.685635397E1,2.957528830E0,5.805286884E0,9.764511108E0
1.687635397E1,3.148954630E0,6.341578007E0,8.577073097E0
1.689635397E1,3.187239647E0,5.575276852E0,9.074779510E0
1.691635397E1,2.957528830E0,3.928117514E0,1.064536858E1
1.693635397E1,3.110669374E0,2.893819809E0,1.179482079E1
1.695635397E1,3.493820190E0,2.932105064E0,1.118195915E1
1.697635397E1,3.608675718E0,3.544966698E0,9.036494255E0
1.699635397E1,3.225524902E0,3.966402531E0,7.044768810E0
1.701635397E1,3.148954630E0,3.889832258E0,5.818746567E0
1.703635397E1,3.417249918E0,3.544966698E0,5.359025478E0
1.705635397E1,3.378964663E0,3.506681681E0,5.435595512E0
1.707635397E1,2.612663269E0,3.813261986E0,5.933601856E0
1.709635397E1,2.076371908E0,4.042973042E0,6.891329288E0
1.711635397E1,1.731506228E0,4.157828331E0,7.734200954E0
1.713635397E1,1.923231244E0,4.196412563E0,8.232207298E0
1.715635397E1,2.114656925E0,4.655834675E0,8.653642654E0
1.717635397E1,2.382952213E0,4.962415218E0,8.921639442E0
1.719635397E1,2.919243574E0,5.115555763E0,9.189934731E0
1.721635397E1,3.493820190E0,5.115555763E0,9.036494255E0
1.723635397E1,4.068396568E0,4.081258297E0,9.496215820E0
1.725635397E1,3.838386536E0,3.621536970E0,1.030080223E1
1.727635397E1,3.646960735E0,4.119543076E0,9.955936432E0
1.729635397E1,4.413262367E0,3.966402531E0,9.457930565E0
1.731635397E1,4.987838745E0,3.430111170E0,1.014766216E1
1.733635397E1,4.719543457E0,2.740679264E0,1.110509014E1
1.735635397E1,4.796113968E0,1.974377751E0,1.079880905E1
1.737635397E1,3.838386536E0,2.089233160E0,9.802796364E0
1.739635397E1,3.072384357E0,3.200400352E0,8.347063065E0
1.741635397E1,2.689233541E0,3.889832258E0,7.197909832E0
1.743635397E1,2.344667196E0,4.042973042E0,6.508477688E0
1.745635397E1,2.267797709E0,3.506681681E0,6.201897144E0
1.747635397E1,2.459522486E0,2.664108992E0,6.240182400E0
1.749635397E1,2.497807741E0,2.089233160E0,6.661618233E0
1.751635397E1,2.459522486E0,1.859522343E0,7.121339321E0
1.753635397E1,2.689233541E0,1.859522343E0,7.083054066E0
1.755635397E1,2.382952213E0,2.050948143E0,6.929614544E0
1.757635397E1,2.038086653E0,2.357528448E0,6.853044033E0
1.759635397E1,1.846660852E0,3.046960592E0,6.891329288E0
1.761635397E1,1.348654628E0,3.544966698E0,6.929614544E0
1.763635397E1,1.271785259E0,3.966402531E0,7.083054066E0
1.765635397E1,1.425225019E0,4.234697819E0,7.236194611E0
1.767635397E1,1.501795292E0,4.770989418E0,7.236194611E0
1.769635397E1,9.272187948E-1,4.962415218E0,7.083054066E0
1.771635397E1,8.889335990E-1,4.272983074E0,8.423632622E0
1.773635397E1,8.123632669E-1,3.506681681E0,1.033908749E1
1.775635397E1,1.310369492E0,3.353540897E0,1.137338543E1
1.777635397E1,2.229512453E0,3.889832258E0,1.110509014E1
1.779635397E1,2.574378014E0,4.694119930E0,9.687940598E0
1.781635397E1,2.612663269E0,5.345565796E0,7.849056244E0
1.783635397E1,2.459522486E0,5.728417397E0,7.849056244E0
1.785635397E1,2.842673302E0,4.962415218E0,9.036494255E0
1.787635397E1,3.034099102E0,4.157828331E0,9.687940598E0
1.789635397E1,2.536092997E0,4.349553585E0,9.611071587E0
1.791635397E1,2.344667196E0,4.579264164E0,9.266505241E0
1.793635397E1,2.497807741E0,4.272983074E0,9.802796364E0
1.795635397E1,2.842673302E0,3.506681681E0,1.045394325E1
1.797635397E1,2.727518797E0,3.276970625E0,1.037737274E1
1.799635397E1,2.689233541E0,3.621536970E0,9.457930565E0
1.801635397E1,2.727518797E0,4.387838364E0,8.040482521E0
1.803635397E1,2.497807741E0,4.655834675E0,7.197909832E0
1.805635397E1,2.344667196E0,4.349553585E0,7.465905666E0
1.807635397E1,1.769791484E0,3.966402531E0,7.772486210E0
1.809635397E1,1.156929731E0,4.196412563E0,7.504190922E0
1.811635397E1,6.589235067E-1,4.540979385E0,7.312765121E0
1.813635397E1,3.143570721E-1,4.962415218E0,7.312765121E0
1.815635397E1,1.992024779E-1,5.422136307E0,8.347063065E0
1.817635397E1,7.776673418E-3,5.268995285E0,9.113364220E0
1.819635397E1,4.606183618E-2,5.192125797E0,9.841081619E0
1.821635397E1,8.434699476E-2,5.651846886E0,1.014766216E1
1.823635397E1,1.609173268E-1,6.073283195E0,1.018594646E1
1.825635397E1,2.760719061E-1,6.609574318E0,9.611071587E0
1.827635397E1,1.195214868E0,6.073283195E0,9.036494255E0
1.829635397E1,1.884945989E0,4.502694130E0,9.496215820E0
1.831635397E1,1.846660852E0,2.970390320E0,1.248425293E1
1.833635397E1,2.536092997E0,2.319243431E0,1.336540985E1
1.835635397E1,3.761816263E0,1.782951951E0,1.236939716E1
1.837635397E1,3.915256023E0,2.127817631E0,1.095194912E1
1.839635397E1,4.106681824E0,2.089233160E0,9.764511108E0
1.841635397E1,3.991826296E0,1.706381679E0,9.343074799E0
1.843635397E1,3.378964663E0,1.629811287E0,9.151649475E0
1.845635397E1,2.689233541E0,2.089233160E0,8.577073097E0
1.847635397E1,2.421237469E0,2.204387903E0,8.040482521E0
1.849635397E1,1.961516380E0,2.280958176E0,7.619345665E0
1.851635397E1,1.808375716E0,2.280958176E0,7.312765121E0
1.853635397E1,1.846660852E0,2.242672920E0,6.929614544E0
1.855635397E1,1.884945989E0,2.280958176E0,6.776473522E0
1.857635397E1,1.769791484E0,2.280958176E0,6.776473522E0
1.859635397E1,1.884945989E0,2.050948143E0,7.274479866E0
1.861635397E1,2.038086653E0,1.782951951E0,7.810771465E0
1.863635397E1,2.382952213E0,1.514656782E0,7.619345665E0
1.865635397E1,2.382952213E0,1.897807479E0,7.236194611E0
1.867635397E1,2.344667196E0,2.089233160E0,6.469893456E0
1.869635397E1,2.038086653E0,2.510669231E0,6.508477688E0
1.871635397E1,1.463510156E0,3.162115097E0,6.661618233E0
1.873635397E1,6.972087026E-1,3.851547241E0,6.929614544E0
1.875635397E1,4.674977362E-1,4.962415218E0,7.351050377E0
1.877635397E1,6.972087026E-1,5.536991596E0,7.887341499E0
1.879635397E1,5.823532343E-1,6.149853230E0,8.730213165E0
1.881635397E1,1.992024779E-1,6.533003807E0,9.343074799E0
1.883635397E1,-1.070788130E-1,6.073283195E0,9.381360054E0
1.885635397E1,-6.433702111E-1,5.268995285E0,9.955936432E0
1.887635397E1,-7.582256794E-1,4.694119930E0,1.206281757E1
1.889635397E1,-5.667998791E-1,4.579264164E0,1.409312725E1
1.891635397E1,-9.882357717E-1,5.307280540E0,1.416969776E1
1.893635397E1,-7.968099117E-1,4.885844707E0,1.359512138E1
1.895635397E1,-2.602194548E-1,4.042973042E0,1.355683613E1
1.897635397E1,4.674977362E-1,3.123530865E0,1.336540985E1
1.899635397E1,1.118644595E0,2.472383976E0,1.256082344E1
1.901635397E1,1.195214868E0,2.357528448E0,1.102851963E1
1.903635397E1,1.348654628E0,2.702394009E0,9.611071587E0
1.905635397E1,1.310369492E0,3.123530865E0,8.079066277E0
1.907635397E1,1.348654628E0,3.353540897E0,6.699903488E0
1.909635397E1,1.118644595E0,3.544966698E0,5.703890800E0
1.911635397E1,8.889335990E-1,3.430111170E0,5.435595512E0
1.913635397E1,3.909274042E-1,3.353540897E0,6.048756599E0
1.915635397E1,2.374876440E-1,3.468396425E0,6.431608200E0
1.917635397E1,2.760719061E-1,3.621536970E0,6.125326633E0
1.919635397E1,1.992024779E-1,3.736691713E0,6.585047722E0
1.921635397E1,1.992024779E-1,3.813261986E0,7.695915699E0
1.923635397E1,2.374876440E-1,3.736691713E0,8.385348320E0
1.925635397E1,3.143570721E-1,4.042973042E0,8.730213165E0
1.927635397E1,1.992024779E-1,4.732704163E0,8.845068932E0
1.929635397E1,-1.070788130E-1,6.149853230E0,8.959924698E0
1.931635397E1,8.506484628E-1,6.264708996E0,8.193922043E0
1.933635397E1,2.574378014E0,5.690132141E0,7.465905666E0
1.935635397E1,2.919243574E0,3.774976730E0,9.611071587E0
1.937635397E1,2.612663269E0,2.012662888E0,1.156481075E1
1.939635397E1,2.191227436E0,1.399801254E0,1.190967655E1
1.941635397E1,2.306082726E0,2.089233160E0,1.122024441E1
1.943635397E1,3.263810158E0,2.702394009E0,9.764511108E0
1.945635397E1,3.608675718E0,3.046960592E0,9.074779510E0
1.947635397E1,2.995813847E0,2.625524759E0,9.381360054E0
1.949635397E1,2.267797709E0,2.664108992E0,9.457930565E0
1.951635397E1,2.038086653E0,3.123530865E0,9.036494255E0
1.953635397E1,2.152942181E0,3.468396425E0,8.500203133E0
1.955635397E1,2.574378014E0,3.659822226E0,8.002197266E0
1.957635397E1,2.995813847E0,3.200400352E0,7.389335632E0
1.959635397E1,2.689233541E0,2.395813704E0,7.542775154E0
1.961635397E1,2.421237469E0,1.859522343E0,7.734200954E0
1.963635397E1,1.961516380E0,1.706381679E0,7.810771465E0
1.965635397E1,1.884945989E0,2.204387903E0,7.427620411E0
1.967635397E1,2.421237469E0,2.625524759E0,6.853044033E0
1.969635397E1,2.650948286E0,2.740679264E0,7.083054066E0
1.971635397E1,2.459522486E0,2.319243431E0,7.925626755E0
1.973635397E1,2.114656925E0,2.166102648E0,8.193922043E0
1.975635397E1,1.540080428E0,2.510669231E0,7.887341499E0
1.977635397E1,6.589235067E-1,3.966402531E0,7.887341499E0
1.979635397E1,1.226321608E-1,5.881857395E0,7.810771465E0
1.981635397E1,6.589235067E-1,6.839584351E0,7.197909832E0
1.983635397E1,1.118644595E0,6.647859573E0,7.159624577E0
1.985635397E1,4.292125702E-1,5.536991596E0,8.577073097E0
1.987635397E1,-1.453639716E-1,4.579264164E0,1.072223854E1
1.989635397E1,-4.902295470E-1,3.774976730E0,1.236939716E1
1.991635397E1,-4.902295470E-1,4.349553585E0,1.328883934E1
1.993635397E1,8.506484628E-1,4.426123619E0,1.263739395E1
1.995635397E1,1.808375716E0,3.774976730E0,1.156481075E1
1.997635397E1,1.769791484E0,3.085245609E0,1.125852966E1
1.999635397E1,1.808375716E0,2.510669231E0,1.087537861E1
2.001635397E1,1.769791484E0,3.123530865E0,9.802796364E0
2.003635397E1,1.808375716E0,3.813261986E0,8.806783676E0
2.005635397E1,2.114656925E0,3.889832258E0,7.427620411E0
2.007635397E1,1.923231244E0,4.157828331E0,6.431608200E0
2.009635397E1,1.731506228E0,4.196412563E0,6.048756599E0
2.011635397E1,1.731506228E0,4.387838364E0,6.125326633E0
2.013635397E1,2.076371908E0,4.617549419E0,6.891329288E0
2.015635397E1,2.191227436E0,4.770989418E0,7.542775154E0
2.017635397E1,2.076371908E0,4.694119930E0,8.002197266E0
2.019635397E1,1.501795292E0,4.770989418E0,8.385348320E0
2.021635397E1,4.292125702E-1,5.498706341E0,9.343074799E0
2.023635397E1,-3.753740489E-1,6.609574318E0,9.228219986E0
2.025635397E1,-6.879365444E-2,7.605587006E0,9.304789543E0
2.027635397E1,2.038086653E0,6.418148518E0,8.845068932E0
2.029635397E1,2.995813847E0,4.502694130E0,1.125852966E1
2.031635397E1,3.302095175E0,2.472383976E0,1.210110188E1
2.033635397E1,2.880958557E0,2.089233160E0,1.125852966E1
2.035635397E1,2.574378014E0,2.472383976E0,1.003250694E1
2.037635397E1,2.497807741E0,3.008675337E0,9.419645309E0
2.039635397E1,2.267797709E0,3.046960592E0,9.457930565E0
2.041635397E1,1.540080428E0,2.932105064E0,9.457930565E0
2.043635397E1,8.123632669E-1,3.085245609E0,9.074779510E0
2.045635397E1,6.206383705E-1,3.391826153E0,8.538488388E0
2.047635397E1,1.003789067E0,3.506681681E0,7.810771465E0
2.049635397E1,1.310369492E0,3.391826153E0,7.351050377E0
2.051635397E1,1.463510156E0,3.238685369E0,7.083054066E0
2.053635397E1,1.731506228E0,2.855534792E0,7.121339321E0
2.055635397E1,1.769791484E0,2.510669231E0,7.312765121E0
2.057635397E1,1.540080428E0,2.204387903E0,7.772486210E0
2.059635397E1,1.348654628E0,2.127817631E0,7.963912010E0
2.061635397E1,1.310369492E0,2.089233160E0,7.734200954E0
2.063635397E1,1.501795292E0,2.357528448E0,7.083054066E0
2.065635397E1,1.348654628E0,2.778964281E0,6.776473522E0
2.067635397E1,1.118644595E0,3.315255880E0,6.853044033E0
2.069635397E1,1.003789067E0,3.544966698E0,7.044768810E0
2.071635397E1,4.292125702E-1,4.042973042E0,7.657630444E0
2.073635397E1,-6.879365444E-2,5.268995285E0,8.347063065E0
2.075635397E1,-2.988037169E-1,6.609574318E0,8.768498421E0
2.077635397E1,2.374876440E-1,7.758727551E0,8.577073097E0
2.079635397E1,1.156929731E0,7.490731239E0,8.423632622E0
2.081635397E1,1.540080428E0,5.728417397E0,1.030080223E1
2.083635397E1,1.156929731E0,4.196412563E0,1.359512138E1
2.085635397E1,6.206383705E-1,3.391826153E0,1.439970779E1
2.087635397E1,2.760719061E-1,4.349553585E0,1.390170097E1
2.089635397E1,1.769791484E0,4.809274197E0,1.210110188E1
2.091635397E1,3.608675718E0,4.540979385E0,1.003250694E1
2.093635397E1,4.298107624E0,3.966402531E0,9.419645309E0
2.095635397E1,3.876671791E0,3.200400352E0,9.266505241E0
2.097635397E1,2.995813847E0,3.276970625E0,8.615358353E0
2.099635397E1,2.536092997E0,3.621536970E0,7.465905666E0
2.101635397E1,2.114656925E0,3.928117514E0,6.508477688E0
2.103635397E1,1.540080428E0,4.311268330E0,5.780461311E0
2.105635397E1,1.540080428E0,4.311268330E0,5.780461311E0
2.107635397E1,3.909274042E-1,4.655834675E0,5.627320766E0
2.109635397E1,-6.879365444E-2,5.038985252E0,6.585047722E0
2.111635397E1,-6.879365444E-2,4.809274197E0,7.925626755E0
2.113635397E1,8.434699476E-2,4.464408875E0,8.998209953E0
2.115635397E1,-3.050848842E-2,4.004687786E0,9.151649475E0
2.117635397E1,-8.350951076E-1,4.655834675E0,9.189934731E0
2.119635397E1,-1.217946768E0,5.613562107E0,9.113364220E0
2.121635397E1,-6.433702111E-1,5.920142174E0,8.845068932E0
2.123635397E1,8.123632669E-1,5.613562107E0,8.730213165E0
2.125635397E1,2.114656925E0,4.732704163E0,8.691927910E0
2.127635397E1,1.961516380E0,4.042973042E0,1.045394325E1
2.129635397E1,2.038086653E0,3.315255880E0,1.099023438E1
2.131635397E1,2.076371908E0,3.276970625E0,1.106680489E1
2.133635397E1,2.765803814E0,2.932105064E0,1.072223854E1
2.135635397E1,2.995813847E0,2.740679264E0,1.083709335E1
2.137635397E1,2.765803814E0,2.702394009E0,1.033908749E1
2.139635397E1,1.769791484E0,3.085245609E0,9.649655342E0
2.141635397E1,1.310369492E0,3.659822226E0,9.036494255E0
2.143635397E1,1.578365684E0,3.889832258E0,8.538488388E0
2.145635397E1,2.114656925E0,3.851547241E0,7.925626755E0
2.147635397E1,2.267797709E0,3.774976730E0,7.121339321E0
2.149635397E1,1.808375716E0,3.659822226E0,6.623332977E0
2.151635397E1,1.042074203E0,3.813261986E0,6.508477688E0
2.153635397E1,5.057829022E-1,3.736691713E0,6.814758778E0
2.155635397E1,6.206383705E-1,3.468396425E0,7.389335632E0
2.157635397E1,1.003789067E0,3.544966698E0,7.542775154E0
2.159635397E1,1.042074203E0,3.659822226E0,6.891329288E0
2.161635397E1,8.506484628E-1,4.004687786E0,6.087041855E0
2.163635397E1,6.972087026E-1,4.426123619E0,5.857031822E0
2.165635397E1,8.123632669E-1,4.349553585E0,6.699903488E0
2.167635397E1,3.909274042E-1,4.655834675E0,7.887341499E0
2.169635397E1,1.609173268E-1,5.383851051E0,8.577073097E0
2.171635397E1,2.374876440E-1,6.341578007E0,8.691927910E0
2.173635397E1,6.589235067E-1,6.762714863E0,8.347063065E0
2.175635397E1,1.233500123E0,6.188138485E0,8.347063065E0
2.177635397E1,9.655039310E-1,5.536991596E0,9.687940598E0
2.179635397E1,4.674977362E-1,5.115555763E0,1.045394325E1
2.181635397E1,-6.879365444E-2,5.230411053E0,1.064536858E1
2.183635397E1,-4.136592150E-1,5.843572140E0,1.114337540E1
2.185635397E1,2.374876440E-1,5.728417397E0,1.110509014E1
2.187635397E1,9.655039310E-1,5.038985252E0,1.037737274E1
2.189635397E1,1.042074203E0,4.004687786E0,9.879366875E0
2.191635397E1,6.206383705E-1,3.276970625E0,9.611071587E0
2.193635397E1,3.909274042E-1,3.315255880E0,9.189934731E0
2.195635397E1,8.506484628E-1,3.774976730E0,8.347063065E0
2.197635397E1,1.386939883E0,4.349553585E0,7.312765121E0
2.199635397E1,1.501795292E0,4.540979385E0,6.699903488E0
2.201635397E1,1.271785259E0,4.426123619E0,6.585047722E0
2.203635397E1,1.156929731E0,4.540979385E0,6.661618233E0
2.205635397E1,1.271785259E0,4.732704163E0,6.699903488E0
2.207635397E1,1.540080428E0,4.962415218E0,7.351050377E0
2.209635397E1,1.616650820E0,5.230411053E0,8.040482521E0
2.211635397E1,1.884945989E0,5.038985252E0,8.308777809E0
2.213635397E1,1.463510156E0,4.885844707E0,8.615358353E0
2.215635397E1,4.292125702E-1,5.498706341E0,9.189934731E0
2.217635397E1,1.609173268E-1,6.418148518E0,9.419645309E0
2.219635397E1,1.118644595E0,6.226423740E0,9.304789543E0
2.221635397E1,2.114656925E0,5.767001629E0,9.802796364E0
2.223635397E1,3.034099102E0,3.774976730E0,1.137338543E1
2.225635397E1,2.919243574E0,2.434098721E0,1.305882931E1
2.227635397E1,2.114656925E0,2.434098721E0,1.282911873E1
2.229635397E1,2.421237469E0,2.740679264E0,1.125852966E1
2.231635397E1,3.072384357E0,3.276970625E0,9.955936432E0
2.233635397E1,3.187239647E0,3.391826153E0,9.343074799E0
2.235635397E1,2.574378014E0,3.238685369E0,8.998209953E0
2.237635397E1,1.463510156E0,3.315255880E0,8.538488388E0
2.239635397E1,5.823532343E-1,3.736691713E0,8.117351532E0
2.241635397E1,6.972087026E-1,4.004687786E0,7.925626755E0
2.243635397E1,1.271785259E0,4.157828331E0,7.657630444E0
2.245635397E1,1.271785259E0,3.889832258E0,7.121339321E0
2.247635397E1,1.118644595E0,3.315255880E0,7.083054066E0
2.249635397E1,1.042074203E0,2.855534792E0,7.427620411E0
2.251635397E1,1.195214868E0,2.548954248E0,7.351050377E0
2.253635397E1,1.463510156E0,2.472383976E0,6.776473522E0
2.255635397E1,1.578365684E0,2.319243431E0,6.967899323E0
2.257635397E1,1.118644595E0,2.166102648E0,6.929614544E0
2.259635397E1,-1.453639716E-1,2.127817631E0,6.546762943E0
2.261635397E1,-9.882357717E-1,2.932105064E0,6.853044033E0
2.263635397E1,-5.285146832E-1,2.817249537E0,6.010471344E0
2.265635397E1,2.760719061E-1,2.472383976E0,6.853044033E0
2.267635397E1,1.310369492E0,2.817249537E0,8.806783676E0
2.269635397E1,3.072384357E0,4.081258297E0,1.133510017E1
2.271635397E1,-6.816553473E-1,3.698406458E0,1.053051376E1
2.273635397E1,1.080359459E0,2.702394009E0,8.806783676E0
2.275635397E1,1.501795292E0,1.668096542E0,1.194796181E1
2.277635397E1,-1.907677889E0,3.391826153E0,1.585544109E1
2.279635397E1,-2.941975355E0,4.694119930E0,1.248425293E1
2.281635397E1,-2.711965322E0,5.077270508E0,1.263739395E1
2.283635397E1,-3.822833300E0,5.230411053E0,1.122024441E1
2.285635397E1,-3.976273060E0,3.544966698E0,1.152652550E1
2.287635397E1,-1.715952992E0,2.472383976E0,1.248425293E1
2.289635397E1,-7.968099117E-1,2.702394009E0,1.156481075E1
2.291635397E1,-5.285146832E-1,3.391826153E0,1.022423172E1
2.293635397E1,-1.141376376E0,4.349553585E0,9.841081619E0
2.295635397E1,-3.937987804E0,5.767001629E0,1.030080223E1
2.297635397E1,-4.167698860E0,4.694119930E0,9.036494255E0
2.299635397E1,-2.405683994E0,2.932105064E0,9.534501076E0
2.301635397E1,-1.294517040E0,2.702394009E0,1.060708332E1
2.303635397E1,-6.816553473E-1,2.664108992E0,1.003250694E1
2.305635397E1,-4.902295470E-1,2.778964281E0,9.534501076E0
2.307635397E1,-9.499505758E-1,3.008675337E0,9.189934731E0
2.309635397E1,-2.405683994E0,3.008675337E0,9.419645309E0
2.311635397E1,-3.209971666E0,3.085245609E0,9.457930565E0
2.313635397E1,-3.133401155E0,3.353540897E0,9.036494255E0
2.315635397E1,-3.171686411E0,3.544966698E0,9.113364220E0
2.317635397E1,-2.826820850E0,3.468396425E0,9.113364220E0
2.319635397E1,-1.984248161E0,3.391826153E0,8.768498421E0
2.321635397E1,-1.639382601E0,3.046960592E0,8.883354187E0
2.323635397E1,-2.788535595E0,2.664108992E0,9.189934731E0
2.325635397E1,-3.746263027E0,2.664108992E0,8.959924698E0
2.327635397E1,-3.554837227E0,2.740679264E0,8.653642654E0
2.329635397E1,-3.439981699E0,2.740679264E0,9.036494255E0
2.331635397E1,-3.822833300E0,2.740679264E0,9.343074799E0
2.333635397E1,-4.014558315E0,2.970390320E0,8.998209953E0
2.335635397E1,-4.129413605E0,3.123530865E0,8.461917877E0
2.337635397E1,-4.320839405E0,2.855534792E0,7.963912010E0
2.339635397E1,-5.010570526E0,3.046960592E0,8.270492554E0
2.341635397E1,-5.355136871E0,3.353540897E0,8.500203133E0
2.343635397E1,-4.857131004E0,3.162115097E0,7.963912010E0
2.345635397E1,-6.236293793E0,3.506681681E0,6.010471344E0
2.347635397E1,-5.163711071E0,2.472383976E0,8.845068932E0
2.349635397E1,-5.316852093E0,2.089233160E0,9.649655342E0
2.359336890E1,-3.363112211E0,1.208375454E0,9.113364220E0
2.361336890E1,-4.167698860E0,1.361516118E0,9.151649475E0
2.363336890E1,-4.167698860E0,1.552941918E0,8.845068932E0
2.365336890E1,-3.133401155E0,1.361516118E0,8.653642654E0
2.367336890E1,-2.367398977E0,8.252246976E-1,8.768498421E0
2.369336890E1,-3.095116138E0,9.017950296E-1,9.304789543E0
2.371336890E1,-3.631407499E0,1.438086390E0,8.921639442E0
2.373336890E1,-3.286541939E0,1.246660590E0,8.653642654E0
2.375336890E1,-2.673680305E0,2.889333367E-1,9.994221687E0
2.377336890E1,-1.984248161E0,-1.358225942E0,1.091366386E1
2.379336890E1,-2.903690338E0,-1.894517303E0,1.064536858E1
2.381336890E1,-3.937987804E0,-1.779661894E0,1.118195915E1
2.383336890E1,-3.554837227E0,-9.367900491E-1,1.018594646E1
2.385336890E1,-2.635395050E0,-1.281655669E0,9.802796364E0
2.387336890E1,-2.750250578E0,-2.124527454E0,1.014766216E1
2.389336890E1,-3.439981699E0,-2.890529871E0,9.343074799E0
2.391336890E1,-4.435994148E0,-3.503391504E0,9.496215820E0
2.393336890E1,-4.857131004E0,-3.809971809E0,1.026251698E1
2.395336890E1,-5.278566837E0,-3.158824921E0,1.122024441E1
2.397336890E1,-5.776573181E0,-1.932802439E0,1.033908749E1
2.399336890E1,-4.933701038E0,-1.358225942E0,1.175653553E1
2.401336890E1,-3.976273060E0,-1.013659477E0,1.164138126E1
2.403336890E1,-2.788535595E0,-1.779661894E0,1.470598888E1
2.405336890E1,1.609173268E-1,-1.664806366E0,8.385348320E0
2.407336890E1,-1.333101273E0,-1.319940805E0,3.865006685E0
2.409336890E1,-5.929713726E0,-1.358225942E0,5.359025478E0
2.411336890E1,-4.857131004E0,-1.281655669E0,7.238288522E-1
2.413336890E1,-5.929713726E0,2.089233160E0,8.193922043E0
2.415336890E1,-5.125426292E0,1.323230863E0,8.040482521E0
2.417336890E1,-3.018545866E0,-2.090728730E-1,1.378684616E1
2.419336890E1,-1.836491376E-1,-8.602197170E-1,1.056879807E1
2.421336890E1,-3.370888829E-1,-2.315953255E0,9.802796364E0
2.423336890E1,1.226321608E-1,-1.664806366E0,1.363340569E1
2.425336890E1,1.578365684E0,-1.396511078E0,1.390170097E1
2.427336890E1,3.143570721E-1,-2.239382982E0,1.068395329E1
2.429336890E1,-6.050850153E-1,-1.779661894E0,1.007079220E1
2.431336890E1,-1.836491376E-1,-1.549950838E0,9.917651176E0
2.433336890E1,-4.902295470E-1,-1.396511078E0,8.538488388E0
2.435336890E1,-5.667998791E-1,-1.511366606E0,7.734200954E0
2.437336890E1,-4.519443810E-1,-1.511366606E0,8.270492554E0
2.439336890E1,3.909274042E-1,-1.205085278E0,7.734200954E0
2.441336890E1,1.609173268E-1,-9.750752449E-1,7.121339321E0
2.443336890E1,-1.141376376E0,-4.770690203E-1,7.044768810E0
2.445336890E1,-1.524527073E0,-5.593222752E-2,7.849056244E0
2.447336890E1,-8.350951076E-1,-5.922235847E-1,8.385348320E0
2.449336890E1,-1.217946768E0,-4.387838542E-1,8.461917877E0
2.451336890E1,-2.060818434E0,-9.421738982E-2,9.151649475E0
2.453336890E1,-2.558824778E0,3.272185028E-1,9.611071587E0
2.455336890E1,-1.141376376E0,-5.156532526E-1,1.053051376E1
2.457336890E1,-1.486241937E0,-3.239283562E-1,1.114337540E1
2.459336890E1,-2.635395050E0,9.750752151E-2,1.072223854E1
2.461336890E1,-1.907677889E0,-1.764706708E-2,1.018594646E1
2.463336890E1,-2.602194548E-1,-5.156532526E-1,1.102851963E1
2.465336890E1,-1.070788130E-1,-3.239283562E-1,1.187139130E1
2.467336890E1,-9.882357717E-1,7.869395614E-1,1.156481075E1
2.469336890E1,-2.988037169E-1,1.208375454E0,1.060708332E1
2.471336890E1,1.271785259E0,1.016650558E0,1.037737274E1
2.473336890E1,2.459522486E0,6.337988973E-1,1.118195915E1
2.475336890E1,1.731506228E0,7.486543655E-1,1.164138126E1
2.477336890E1,1.195214868E0,5.569294691E-1,1.171825027E1
2.479336890E1,1.578365684E0,-1.707877219E-1,1.187139130E1
2.481336890E1,1.540080428E0,3.272185028E-1,1.198624706E1
2.483336890E1,2.076371908E0,4.803591371E-1,1.118195915E1
2.485336890E1,2.152942181E0,8.252246976E-1,9.917651176E0
2.487336890E1,1.080359459E0,1.284945726E0,8.577073097E0
2.489336890E1,6.206383705E-1,1.514656782E0,8.079066277E0
2.491336890E1,6.206383705E-1,1.591227055E0,8.117351532E0
2.493336890E1,1.042074203E0,1.438086390E0,8.232207298E0
2.495336890E1,1.386939883E0,9.017950296E-1,8.423632622E0
2.497336890E1,7.354938388E-1,6.337988973E-1,8.155636787E0
2.499336890E1,4.292125702E-1,4.037888348E-1,7.619345665E0
2.501336890E1,5.057829022E-1,2.506481707E-1,7.159624577E0
2.503336890E1,6.972087026E-1,4.420739710E-1,6.891329288E0
2.505336890E1,6.589235067E-1,7.103692293E-1,6.699903488E0
2.507336890E1,4.292125702E-1,1.552941918E0,6.469893456E0
2.509336890E1,7.776673418E-3,2.204387903E0,6.163611889E0
2.511336890E1,-3.753740489E-1,2.702394009E0,6.776473522E0
2.513336890E1,-3.050848842E-2,3.238685369E0,8.308777809E0
2.515336890E1,-2.988037169E-1,3.928117514E0,9.228219986E0
2.517336890E1,-6.816553473E-1,4.732704163E0,1.026251698E1
2.519336890E1,-2.988037169E-1,4.924129963E0,1.095194912E1
2.521336890E1,-4.902295470E-1,4.272983074E0,1.141167068E1
2.523336890E1,-7.968099117E-1,3.046960592E0,1.122024441E1
2.525336890E1,-1.409671664E0,2.089233160E0,1.152652550E1
2.527336890E1,-1.984248161E0,2.089233160E0,1.187139130E1
2.529336890E1,-1.869392633E0,2.204387903E0,1.190967655E1
2.531336890E1,-1.217946768E0,3.008675337E0,1.194796181E1
2.533336890E1,4.606183618E-2,3.621536970E0,1.148824024E1
2.535336890E1,1.271785259E0,3.391826153E0,1.068395329E1
2.537336890E1,1.654935956E0,2.893819809E0,1.030080223E1
2.539336890E1,1.195214868E0,2.510669231E0,1.007079220E1
2.541336890E1,6.972087026E-1,2.166102648E0,9.649655342E0
2.543336890E1,3.526422381E-1,2.166102648E0,9.381360054E0
2.545336890E1,7.740781307E-1,2.357528448E0,8.845068932E0
2.547336890E1,1.080359459E0,2.664108992E0,8.193922043E0
2.549336890E1,9.272187948E-1,3.046960592E0,7.465905666E0
2.551336890E1,8.434699476E-2,3.430111170E0,6.661618233E0
2.553336890E1,-6.816553473E-1,3.583251953E0,6.355037689E0
2.555336890E1,-1.026520967E0,3.889832258E0,6.508477688E0
2.557336890E1,-4.136592150E-1,3.659822226E0,7.312765121E0
2.559336890E1,2.760719061E-1,3.430111170E0,8.500203133E0
2.561336890E1,4.606183618E-2,3.506681681E0,9.074779510E0
2.563336890E1,-4.902295470E-1,3.736691713E0,9.228219986E0
2.565336890E1,-4.902295470E-1,4.119543076E0,1.068395329E1
2.567336890E1,-2.219343036E-1,4.196412563E0,1.083709335E1
2.569336890E1,1.992024779E-1,3.966402531E0,1.030080223E1
2.571336890E1,1.992024779E-1,3.506681681E0,1.049222851E1
2.573336890E1,-1.453639716E-1,3.276970625E0,1.125852966E1
2.575336890E1,-7.199404836E-1,3.889832258E0,1.141167068E1
2.577336890E1,1.992024779E-1,3.315255880E0,1.037737274E1
2.579336890E1,3.526422381E-1,3.506681681E0,1.102851963E1
2.581336890E1,5.440680385E-1,3.162115097E0,1.183310604E1
2.583336890E1,6.589235067E-1,2.510669231E0,1.187139130E1
2.585336890E1,2.374876440E-1,2.510669231E0,1.122024441E1
2.587336890E1,-3.050848842E-2,2.740679264E0,9.917651176E0
2.589336890E1,1.226321608E-1,3.085245609E0,8.768498421E0
2.591336890E1,3.526422381E-1,3.200400352E0,7.657630444E0
2.593336890E1,4.292125702E-1,3.200400352E0,7.006184578E0
2.595336890E1,4.606183618E-2,3.085245609E0,6.240182400E0
2.597336890E1,-2.988037169E-1,2.587239504E0,6.240182400E0
2.599336890E1,-4.519443810E-1,2.089233160E0,7.197909832E0
2.601336890E1,2.374876440E-1,2.089233160E0,7.887341499E0
2.603336890E1,1.386939883E0,2.702394009E0,8.040482521E0
2.605336890E1,1.808375716E0,3.008675337E0,8.002197266E0
2.607336890E1,1.616650820E0,3.851547241E0,6.853044033E0
2.609336890E1,7.740781307E-1,3.736691713E0,8.040482521E0
2.611336890E1,2.374876440E-1,3.276970625E0,1.129681492E1
2.613336890E1,-1.453639716E-1,3.008675337E0,1.298225880E1
2.615336890E1,-4.902295470E-1,3.698406458E0,1.179482079E1
2.617336890E1,-4.902295470E-1,3.698406458E0,1.179482079E1
2.619336890E1,-2.865106106E0,4.081258297E0,5.205884933E0
2.621336890E1,-3.822833300E0,2.893819809E0,3.980161428E0
2.623336890E1,-4.244269371E0,9.783653617E-1,5.474180222E0
2.625336890E1,-3.631407499E0,1.093519926E0,9.381360054E0
2.627336890E1,-1.217946768E0,8.635098934E-1,1.144995499E1
2.629336890E1,-1.070788130E-1,1.897807479E0,1.179482079E1
2.631336890E1,7.354938388E-1,3.046960592E0,1.183310604E1
2.633336890E1,2.382952213E0,3.430111170E0,1.148824024E1
2.635336890E1,3.148954630E0,2.855534792E0,1.236939716E1
2.637336890E1,1.999801517E0,2.587239504E0,1.367169094E1
2.639336890E1,1.808375716E0,2.970390320E0,1.413141251E1
2.641336890E1,2.191227436E0,3.391826153E0,1.317368507E1
2.643336890E1,2.536092997E0,3.889832258E0,1.144995499E1
2.645336890E1,2.497807741E0,4.081258297E0,9.802796364E0
2.647336890E1,2.229512453E0,4.655834675E0,8.500203133E0
2.649336890E1,1.961516380E0,4.349553585E0,7.197909832E0
2.651336890E1,1.386939883E0,3.736691713E0,6.929614544E0
2.653336890E1,8.506484628E-1,3.123530865E0,7.695915699E0
2.655336890E1,5.440680385E-1,3.200400352E0,7.236194611E0
2.657336890E1,4.674977362E-1,3.774976730E0,6.585047722E0
2.659336890E1,3.526422381E-1,4.119543076E0,6.240182400E0
2.661336890E1,-4.519443810E-1,4.311268330E0,6.929614544E0
2.663336890E1,-1.179661512E0,4.502694130E0,8.845068932E0
2.665336890E1,-1.371386528E0,4.540979385E0,9.917651176E0
2.667336890E1,-1.026520967E0,4.540979385E0,1.056879807E1
2.669336890E1,-2.602194548E-1,4.426123619E0,1.060708332E1
2.671336890E1,1.609173268E-1,3.966402531E0,1.022423172E1
2.673336890E1,-1.064806104E0,4.387838364E0,9.802796364E0
2.675336890E1,-1.141376376E0,3.928117514E0,1.030080223E1
2.677336890E1,3.143570721E-1,3.276970625E0,1.179482079E1
2.679336890E1,7.354938388E-1,3.621536970E0,1.305882931E1
2.681336890E1,4.606183618E-2,4.272983074E0,1.152652550E1
2.683336890E1,-1.601097465E0,5.307280540E0,9.304789543E0
2.685336890E1,-2.443969250E0,6.571289062E0,7.695915699E0
2.687336890E1,-1.601097465E0,6.609574318E0,7.963912010E0
2.689336890E1,-9.882357717E-1,6.418148518E0,8.998209953E0
2.691336890E1,-1.486241937E0,6.034997940E0,9.228219986E0
2.693336890E1,-1.830808401E0,5.422136307E0,8.500203133E0
2.695336890E1,-1.907677889E0,4.809274197E0,8.117351532E0
2.697336890E1,-1.141376376E0,4.042973042E0,7.734200954E0
2.699336890E1,-2.219343036E-1,3.353540897E0,7.772486210E0
2.701336890E1,2.374876440E-1,2.510669231E0,8.155636787E0
2.703336890E1,-6.879365444E-2,2.127817631E0,8.040482521E0
2.705336890E1,-2.219343036E-1,2.089233160E0,7.581060410E0
2.707336890E1,1.226321608E-1,2.319243431E0,6.508477688E0
2.709336890E1,4.674977362E-1,2.242672920E0,5.244169712E0
2.711336890E1,6.206383705E-1,2.280958176E0,5.205884933E0
2.713336890E1,8.889335990E-1,2.204387903E0,5.742176056E0
2.715336890E1,1.042074203E0,2.204387903E0,6.431608200E0
2.717336890E1,6.972087026E-1,2.893819809E0,6.967899323E0
2.719336890E1,6.589235067E-1,3.162115097E0,7.465905666E0
2.721336890E1,1.195214868E0,3.659822226E0,8.845068932E0
2.723336890E1,2.229512453E0,4.272983074E0,1.033908749E1
2.725336890E1,2.191227436E0,4.924129963E0,9.151649475E0
2.727336890E1,5.823532343E-1,5.651846886E0,8.270492554E0
2.729336890E1,-1.064806104E0,6.149853230E0,9.726225853E0
2.731336890E1,-1.064806104E0,6.456433773E0,1.141167068E1
2.733336890E1,3.143570721E-1,6.418148518E0,1.187139130E1
2.735336890E1,1.310369492E0,6.379863262E0,1.225454235E1
2.737336890E1,1.540080428E0,5.307280540E0,1.382513142E1
2.739336890E1,1.999801517E0,4.157828331E0,1.516570950E1
2.741336890E1,2.497807741E0,3.813261986E0,1.416969776E1
2.743336890E1,2.880958557E0,4.081258297E0,1.210110188E1
2.745336890E1,2.919243574E0,4.502694130E0,9.879366875E0
2.747336890E1,2.229512453E0,4.847559452E0,8.385348320E0
2.749336890E1,1.693221092E0,4.732704163E0,7.619345665E0
2.751336890E1,1.731506228E0,4.540979385E0,7.389335632E0
2.753336890E1,1.846660852E0,4.081258297E0,7.389335632E0
2.755336890E1,1.501795292E0,3.813261986E0,6.891329288E0
2.757336890E1,7.354938388E-1,3.698406458E0,6.393322945E0
2.759336890E1,-3.370888829E-1,3.736691713E0,5.857031822E0
2.761336890E1,-5.667998791E-1,3.621536970E0,6.010471344E0
2.763336890E1,-1.070788130E-1,3.468396425E0,6.738188744E0
2.765336890E1,-3.370888829E-1,3.353540897E0,7.006184578E0
2.767336890E1,-7.968099117E-1,3.276970625E0,7.389335632E0
2.769336890E1,-1.836491376E-1,3.315255880E0,7.657630444E0
2.771336890E1,7.354938388E-1,3.506681681E0,7.925626755E0
2.773336890E1,1.463510156E0,3.698406458E0,7.810771465E0
2.775336890E1,1.310369492E0,3.813261986E0,8.117351532E0
2.777336890E1,4.674977362E-1,4.502694130E0,8.423632622E0
2.779336890E1,2.374876440E-1,5.230411053E0,8.806783676E0
2.781336890E1,6.206383705E-1,5.690132141E0,9.649655342E0
2.783336890E1,1.731506228E0,5.000699997E0,1.060708332E1
2.785336890E1,1.501795292E0,3.889832258E0,1.202453232E1
2.787336890E1,1.609173268E-1,3.315255880E0,1.259910870E1
2.789336890E1,-3.753740489E-1,3.315255880E0,1.236939716E1
2.791336890E1,7.354938388E-1,4.004687786E0,1.110509014E1
2.793336890E1,1.961516380E0,4.540979385E0,9.955936432E0
2.795336890E1,1.693221092E0,5.268995285E0,9.189934731E0
2.797336890E1,6.206383705E-1,4.885844707E0,8.921639442E0
2.799336890E1,1.992024779E-1,4.234697819E0,9.228219986E0
2.801336890E1,3.143570721E-1,4.081258297E0,9.917651176E0
2.803336890E1,8.123632669E-1,4.042973042E0,1.014766216E1
2.805336890E1,6.206383705E-1,4.196412563E0,9.457930565E0
2.807336890E1,2.374876440E-1,4.119543076E0,8.308777809E0
2.809336890E1,-6.879365444E-2,3.813261986E0,7.542775154E0
2.811336890E1,-1.453639716E-1,3.276970625E0,7.581060410E0
2.813336890E1,8.434699476E-2,2.778964281E0,8.040482521E0
2.815336890E1,2.374876440E-1,2.472383976E0,8.385348320E0
2.817336890E1,1.226321608E-1,2.434098721E0,8.538488388E0
2.819336890E1,2.374876440E-1,2.319243431E0,8.347063065E0
2.821336890E1,3.909274042E-1,2.127817631E0,8.002197266E0
2.823336890E1,3.526422381E-1,2.089233160E0,7.619345665E0
2.825336890E1,6.589235067E-1,2.319243431E0,7.083054066E0
2.827336890E1,9.272187948E-1,2.664108992E0,6.546762943E0
2.829336890E1,6.589235067E-1,2.970390320E0,6.201897144E0
2.831336890E1,4.674977362E-1,2.893819809E0,6.585047722E0
2.833336890E1,2.374876440E-1,3.123530865E0,6.623332977E0
2.835336890E1,4.606183618E-2,3.544966698E0,6.469893456E0
2.837336890E1,-3.050848842E-2,4.042973042E0,7.312765121E0
2.839336890E1,8.434699476E-2,4.387838364E0,9.611071587E0
2.841336890E1,-1.070788130E-1,4.387838364E0,1.118195915E1
2.843336890E1,-2.602194548E-1,4.770989418E0,1.114337540E1
2.845336890E1,-3.050848842E-2,5.077270508E0,1.022423172E1
2.847336890E1,1.226321608E-1,5.000699997E0,9.841081619E0
2.849336890E1,-6.879365444E-2,4.387838364E0,1.160309601E1
2.851336890E1,-6.050850153E-1,4.234697819E0,1.294397449E1
2.853336890E1,-1.179661512E0,4.962415218E0,1.236939716E1
2.855336890E1,-1.070788130E-1,4.962415218E0,1.060708332E1
2.857336890E1,1.609173268E-1,4.617549419E0,1.095194912E1
2.859336890E1,2.374876440E-1,3.353540897E0,1.282911873E1
2.861336890E1,1.992024779E-1,2.319243431E0,1.317368507E1
2.863336890E1,2.760719061E-1,2.664108992E0,1.190967655E1
2.865336890E1,1.003789067E0,3.468396425E0,9.879366875E0
2.867336890E1,1.616650820E0,4.349553585E0,7.734200954E0
2.869336890E1,1.923231244E0,4.540979385E0,6.585047722E0
2.871336890E1,1.348654628E0,4.042973042E0,6.393322945E0
2.873336890E1,5.440680385E-1,3.736691713E0,6.469893456E0
2.875336890E1,4.292125702E-1,3.353540897E0,6.699903488E0
2.877336890E1,3.909274042E-1,3.506681681E0,6.814758778E0
2.879336890E1,1.992024779E-1,3.698406458E0,6.469893456E0
2.881336890E1,-1.070788130E-1,3.736691713E0,6.125326633E0
2.883336890E1,-6.879365444E-2,3.544966698E0,6.623332977E0
2.885336890E1,-3.050848842E-2,3.353540897E0,7.427620411E0
2.887336890E1,-3.370888829E-1,3.698406458E0,7.772486210E0
2.889336890E1,-1.836491376E-1,3.813261986E0,7.925626755E0
2.891336890E1,-1.836491376E-1,3.813261986E0,7.925626755E0
2.893336890E1,5.823532343E-1,3.813261986E0,1.095194912E1
2.895336890E1,5.440680385E-1,4.655834675E0,1.041565800E1
2.897336890E1,8.889335990E-1,5.460421085E0,8.423632622E0
2.899336890E1,1.616650820E0,5.383851051E0,7.695915699E0
2.901336890E1,1.846660852E0,4.349553585E0,9.381360054E0
2.903336890E1,1.961516380E0,3.238685369E0,1.213938713E1
2.905336890E1,9.655039310E-1,3.315255880E0,1.279083347E1
2.907336890E1,1.080359459E0,3.238685369E0,1.190967655E1
2.909336890E1,2.038086653E0,3.276970625E0,1.156481075E1
2.911336890E1,2.421237469E0,3.046960592E0,1.152652550E1
2.913336890E1,2.076371908E0,2.395813704E0,1.102851963E1
2.915336890E1,8.889335990E-1,2.510669231E0,1.018594646E1
2.917336890E1,2.760719061E-1,2.855534792E0,9.419645309E0
2.919336890E1,4.292125702E-1,3.200400352E0,9.113364220E0
2.921336890E1,7.740781307E-1,3.544966698E0,8.461917877E0
2.923336890E1,5.440680385E-1,3.698406458E0,7.772486210E0
2.925336890E1,-1.836491376E-1,3.966402531E0,7.465905666E0
2.927336890E1,-6.816553473E-1,3.736691713E0,7.312765121E0
2.929336890E1,1.992024779E-1,3.315255880E0,8.347063065E0
2.931336890E1,1.233500123E0,3.085245609E0,9.534501076E0
2.933336890E1,1.999801517E0,2.855534792E0,9.687940598E0
2.935336890E1,2.152942181E0,2.740679264E0,8.921639442E0
2.937336890E1,1.616650820E0,2.778964281E0,8.079066277E0
2.939336890E1,1.463510156E0,2.664108992E0,7.619345665E0
2.941336890E1,1.463510156E0,2.664108992E0,7.619345665E0
2.943336890E1,1.425225019E0,3.008675337E0,7.389335632E0
2.945336890E1,1.195214868E0,3.430111170E0,6.853044033E0
2.947336890E1,5.823532343E-1,3.889832258E0,6.163611889E0
2.949336890E1,-5.667998791E-1,4.426123619E0,6.087041855E0
2.951336890E1,-1.179661512E0,4.655834675E0,6.776473522E0
2.953336890E1,-9.116654396E-1,4.464408875E0,8.577073097E0
2.955336890E1,-8.350951076E-1,5.077270508E0,9.955936432E0
2.957336890E1,-2.988037169E-1,5.383851051E0,9.457930565E0
2.959336890E1,-5.667998791E-1,5.651846886E0,8.959924698E0
2.961336890E1,-8.350951076E-1,5.613562107E0,9.841081619E0
2.963336890E1,-1.070788130E-1,4.502694130E0,1.144995499E1
2.965336890E1,1.226321608E-1,4.349553585E0,1.263739395E1
2.967336890E1,2.374876440E-1,5.383851051E0,1.179482079E1
2.969336890E1,8.506484628E-1,5.498706341E0,1.007079220E1
2.971336890E1,1.156929731E0,5.268995285E0,9.726225853E0
2.973336890E1,1.425225019E0,3.966402531E0,1.072223854E1
2.975336890E1,1.654935956E0,2.664108992E0,1.141167068E1
2.977336890E1,1.731506228E0,2.204387903E0,1.122024441E1
2.979336890E1,2.076371908E0,2.855534792E0,9.879366875E0
2.981336890E1,1.884945989E0,3.353540897E0,7.772486210E0
2.983336890E1,1.501795292E0,3.698406458E0,5.971887112E0
2.985336890E1,8.889335990E-1,3.774976730E0,5.703890800E0
2.987336890E1,4.292125702E-1,3.621536970E0,6.316752911E0
2.989336890E1,3.526422381E-1,3.583251953E0,6.738188744E0
2.991336890E1,3.526422381E-1,3.698406458E0,6.355037689E0
2.993336890E1,3.526422381E-1,3.851547241E0,5.933601856E0
2.995336890E1,1.226321608E-1,3.889832258E0,6.087041855E0
2.997336890E1,-6.879365444E-2,3.889832258E0,7.351050377E0
2.999336890E1,4.674977362E-1,3.659822226E0,8.730213165E0
3.001336890E1,1.118644595E0,3.430111170E0,9.381360054E0
3.003336890E1,6.589235067E-1,4.004687786E0,9.841081619E0
3.005336890E1,8.434699476E-2,4.924129963E0,9.764511108E0
3.007336890E1,7.740781307E-1,4.809274197E0,9.266505241E0
3.009336890E1,1.425225019E0,3.928117514E0,1.014766216E1
3.011336890E1,2.382952213E0,2.319243431E0,1.256082344E1
3.013336890E1,2.152942181E0,1.552941918E0,1.462941837E1
3.015336890E1,2.038086653E0,1.591227055E0,1.432313728E1
3.017336890E1,2.382952213E0,2.510669231E0,1.171825027E1
3.019336890E1,2.957528830E0,3.813261986E0,9.841081619E0
3.021336890E1,3.417249918E0,3.813261986E0,9.074779510E0
3.023336890E1,2.612663269E0,3.162115097E0,9.802796364E0
3.025336890E1,1.731506228E0,2.395813704E0,1.068395329E1
3.027336890E1,1.233500123E0,2.357528448E0,1.102851963E1
3.029336890E1,1.616650820E0,2.625524759E0,1.007079220E1
3.031336890E1,2.076371908E0,3.085245609E0,8.500203133E0
3.033336890E1,1.769791484E0,3.276970625E0,7.006184578E0
3.035336890E1,1.042074203E0,3.238685369E0,6.163611889E0
3.037336890E1,5.057829022E-1,2.932105064E0,5.780461311E0
3.039336890E1,2.374876440E-1,2.395813704E0,6.201897144E0
3.041336890E1,4.292125702E-1,2.089233160E0,6.929614544E0
3.043336890E1,5.440680385E-1,2.127817631E0,6.891329288E0
3.045336890E1,5.440680385E-1,2.089233160E0,6.240182400E0
3.047336890E1,4.606183618E-2,2.127817631E0,5.742176056E0
3.049336890E1,-1.070788130E-1,1.897807479E0,5.167599678E0
3.051336890E1,7.776673418E-3,1.974377751E0,5.320740223E0
3.053336890E1,2.760719061E-1,2.510669231E0,6.585047722E0
3.055336890E1,8.506484628E-1,2.357528448E0,6.814758778E0
3.057336890E1,3.909274042E-1,2.702394009E0,7.465905666E0
3.059336890E1,-2.988037169E-1,4.349553585E0,7.887341499E0
3.061336890E1,7.776673418E-3,4.809274197E0,8.577073097E0
3.063336890E1,6.206383705E-1,4.464408875E0,1.037737274E1
3.065336890E1,2.191227436E0,3.583251953E0,1.271396446E1
3.067336890E1,2.382952213E0,2.855534792E0,1.382513142E1
3.069336890E1,1.310369492E0,2.089233160E0,1.474427414E1
3.071336890E1,7.354938388E-1,1.782951951E0,1.539571953E1
3.073336890E1,2.374876440E-1,2.510669231E0,1.677458382E1
3.075336890E1,-1.179661512E0,3.736691713E0,1.459113312E1
3.077336890E1,-2.099103689E0,3.736691713E0,1.233111286E1
3.079336890E1,-1.562812328E0,3.353540897E0,1.137338543E1
3.081336890E1,-6.879365444E-2,2.778964281E0,9.841081619E0
3.083336890E1,3.526422381E-1,2.587239504E0,7.274479866E0
3.085336890E1,1.003789067E0,1.897807479E0,5.282454967E0
3.087336890E1,-1.524527073E0,2.740679264E0,1.026251698E1
3.089336890E1,-2.060818434E0,3.008675337E0,6.699903488E0
3.091336890E1,-1.639382601E0,2.970390320E0,5.359025478E0
3.093336890E1,-1.639382601E0,2.778964281E0,6.738188744E0
3.095336890E1,-1.677667737E0,2.395813704E0,6.814758778E0
3.097336890E1,-1.103091240E0,1.936092615E0,5.742176056E0
3.099336890E1,-8.350951076E-1,1.821237087E0,6.508477688E0
3.101336890E1,-3.784548044E0,2.510669231E0,1.049222851E1
3.103336890E1,-6.236293793E0,3.928117514E0,1.256082344E1
3.105336890E1,-2.750250578E0,1.974377751E0,1.110509014E1
3.107336890E1,-4.902295470E-1,9.783653617E-1,1.060708332E1
3.109336890E1,-1.447956800E0,7.869395614E-1,1.079880905E1
3.111336890E1,-2.635395050E0,4.420739710E-1,1.060708332E1
3.113336890E1,-2.443969250E0,2.889333367E-1,1.210110188E1
3.115336890E1,-2.750250578E0,2.063809521E-2,1.309711456E1
3.117336890E1,-4.627419949E0,9.750752151E-2,1.443799305E1
3.119336890E1,-3.746263027E0,1.740778536E-1,1.252253819E1
3.121336890E1,-2.558824778E0,2.506481707E-1,1.030080223E1
3.123336890E1,-3.018545866E0,5.922235921E-2,9.726225853E0
3.125336890E1,-4.014558315E0,1.740778536E-1,1.060708332E1
3.127336890E1,-3.593122244E0,4.037888348E-1,9.955936432E0
3.129336890E1,-3.516551971E0,7.103692293E-1,8.921639442E0
3.131336890E1,-3.822833300E0,9.400802255E-1,7.887341499E0
3.133336890E1,-4.129413605E0,7.869395614E-1,7.695915699E0
3.135336890E1,-4.244269371E0,1.016650558E0,7.772486210E0
3.137336890E1,-3.516551971E0,8.635098934E-1,7.542775154E0
3.139336890E1,-3.439981699E0,8.635098934E-1,7.121339321E0
3.141336890E1,-3.899403572E0,1.054935694E0,7.389335632E0
3.143336890E1,-3.784548044E0,9.783653617E-1,7.197909832E0
3.145336890E1,-3.516551971E0,7.103692293E-1,7.197909832E0
3.147336890E1,-3.899403572E0,7.103692293E-1,7.389335632E0
3.149336890E1,-4.474279404E0,7.103692293E-1,8.193922043E0
3.151336890E1,-4.589134693E0,6.337988973E-1,8.385348320E0
3.153336890E1,-4.895416260E0,7.486543655E-1,8.270492554E0
3.155336890E1,-5.929713726E0,7.486543655E-1,9.726225853E0
3.157336890E1,-6.351149559E0,9.400802255E-1,1.114337540E1
3.159336890E1,-5.776573181E0,1.054935694E0,1.133510017E1
3.161336890E1,-5.623432159E0,8.635098934E-1,1.087537861E1
3.163336890E1,-5.700002670E0,8.252246976E-1,1.030080223E1
3.165336890E1,-5.316852093E0,9.783653617E-1,1.007079220E1
3.167336890E1,-5.010570526E0,1.476371527E0,1.049222851E1
3.169336890E1,-4.512564182E0,1.974377751E0,9.955936432E0
3.171336890E1,-6.121438503E0,1.897807479E0,5.742176056E0
3.173336890E1,-6.121438503E0,1.093519926E0,1.167966652E1
3.175336890E1,-6.236293793E0,1.131805062E0,1.225454235E1
3.185975229E1,-3.095116138E0,-9.421738982E-2,9.457930565E0
3.187975229E1,-4.167698860E0,5.922235921E-2,9.074779510E0
3.189975229E1,-4.167698860E0,2.506481707E-1,9.381360054E0
3.191975229E1,-2.941975355E0,4.420739710E-1,1.076052380E1
3.193975229E1,-2.290529490E0,-8.219345808E-1,1.087537861E1
3.195975229E1,-2.405683994E0,-1.894517303E0,1.110509014E1
3.197975229E1,-2.635395050E0,-2.622533560E0,1.110509014E1
3.199975229E1,-2.865106106E0,-2.315953255E0,9.611071587E0
3.201975229E1,-3.746263027E0,-1.703091502E0,1.106680489E1
3.203975229E1,-4.091128349E0,-1.588235974E0,1.129681492E1
3.205975229E1,-4.129413605E0,-1.205085278E0,1.152652550E1
3.207975229E1,-4.167698860E0,-1.473081470E0,9.534501076E0
3.209975229E1,-3.209971666E0,-1.205085278E0,7.849056244E0
3.211975229E1,-3.631407499E0,-1.894517303E0,1.026251698E1
3.213975229E1,-3.861118555E0,-2.430808783E0,9.841081619E0
3.215975229E1,-5.316852093E0,-2.660818815E0,8.768498421E0
3.217975229E1,-4.742275238E0,-2.201097727E0,6.814758778E0
3.219975229E1,-5.393422127E0,-1.664806366E0,6.355037689E0
3.221975229E1,-6.427719593E0,-2.584248543E0,9.572786331E0
3.223975229E1,-6.887440681E0,2.123630047E-1,4.401298046E0
3.225975229E1,-7.653742313E0,1.629811287E0,6.661618233E0
3.227975229E1,-7.194021225E0,1.016650558E0,7.312765121E0
3.229975229E1,-5.469992638E0,-9.421738982E-2,1.072223854E1
3.231975229E1,-4.244269371E0,-7.070791125E-1,1.007079220E1
3.233975229E1,-3.631407499E0,-1.128515005E0,8.461917877E0
3.235975229E1,-4.014558315E0,-8.219345808E-1,8.308777809E0
3.237975229E1,-6.083153248E0,-4.387838542E-1,7.849056244E0
3.239975229E1,-5.814857960E0,-1.205085278E0,7.887341499E0
3.241975229E1,-5.814857960E0,-1.205085278E0,7.887341499E0
3.243975229E1,-4.512564182E0,-1.396511078E0,6.240182400E0
3.245975229E1,-4.627419949E0,-1.473081470E0,7.006184578E0
3.247975229E1,-4.014558315E0,-1.434796333E0,7.083054066E0
3.249975229E1,-4.703989983E0,-6.305087805E-1,9.419645309E0
3.251975229E1,-3.401696444E0,-2.856431901E-1,1.125852966E1
3.253975229E1,-4.519443810E-1,-1.396511078E0,8.806783676E0
3.255975229E1,2.344667196E0,-1.051944613E0,8.155636787E0
3.257975229E1,2.497807741E0,-1.205085278E0,8.040482521E0
3.259975229E1,6.206383705E-1,-5.922235847E-1,8.691927910E0
3.261975229E1,9.655039310E-1,-8.985049129E-1,1.018594646E1
3.263975229E1,2.344667196E0,-1.205085278E0,9.687940598E0
3.265975229E1,2.382952213E0,-1.434796333E0,1.068395329E1
3.267975229E1,2.574378014E0,-1.588235974E0,9.994221687E0
3.269975229E1,2.536092997E0,-1.319940805E0,8.691927910E0
3.271975229E1,2.804089069E0,-1.434796333E0,1.102851963E1
3.273975229E1,2.995813847E0,-2.315953255E0,1.133510017E1
3.275975229E1,2.382952213E0,-2.622533560E0,1.083709335E1
3.277975229E1,1.961516380E0,-2.277667999E0,9.764511108E0
3.279975229E1,2.114656925E0,-1.741376638E0,9.457930565E0
3.281975229E1,2.765803814E0,-1.588235974E0,9.189934731E0
3.283975229E1,2.650948286E0,-1.779661894E0,8.538488388E0
3.285975229E1,2.191227436E0,-1.703091502E0,7.887341499E0
3.287975229E1,1.846660852E0,-1.319940805E0,7.657630444E0
3.289975229E1,1.501795292E0,-2.473580390E-1,8.385348320E0
3.291975229E1,9.272187948E-1,-2.090728730E-1,8.577073097E0
3.293975229E1,3.909274042E-1,-2.473580390E-1,8.232207298E0
3.295975229E1,8.506484628E-1,-1.707877219E-1,9.151649475E0
3.297975229E1,5.440680385E-1,-3.239283562E-1,1.064536858E1
3.299975229E1,6.206383705E-1,1.357926875E-1,1.045394325E1
3.301975229E1,1.003789067E0,2.063809521E-2,1.053051376E1
3.303975229E1,1.080359459E0,9.017950296E-1,1.110509014E1
3.305975229E1,1.003789067E0,1.897807479E0,1.114337540E1
3.307975229E1,1.348654628E0,1.936092615E0,1.033908749E1
3.309975229E1,2.612663269E0,1.552941918E0,1.141167068E1
3.311975229E1,3.723531246E0,8.635098934E-1,1.305882931E1
3.313975229E1,4.144967079E0,-2.473580390E-1,1.374826145E1
3.315975229E1,3.225524902E0,-5.922235847E-1,1.325025558E1
3.317975229E1,2.459522486E0,-4.004986882E-1,1.152652550E1
3.319975229E1,2.765803814E0,-1.707877219E-1,1.030080223E1
3.321975229E1,3.148954630E0,2.063809521E-2,9.572786331E0
3.323975229E1,2.957528830E0,3.655036688E-1,8.615358353E0
3.325975229E1,2.421237469E0,7.103692293E-1,7.772486210E0
3.327975229E1,1.425225019E0,1.054935694E0,6.891329288E0
3.329975229E1,7.354938388E-1,1.093519926E0,6.469893456E0
3.331975229E1,5.823532343E-1,1.170090318E0,6.623332977E0
3.333975229E1,9.655039310E-1,1.361516118E0,6.585047722E0
3.335975229E1,1.080359459E0,1.552941918E0,6.508477688E0
3.337975229E1,6.589235067E-1,1.821237087E0,6.585047722E0
3.339975229E1,7.354938388E-1,1.974377751E0,6.585047722E0
3.341975229E1,1.348654628E0,2.089233160E0,5.971887112E0
3.343975229E1,2.306082726E0,2.050948143E0,6.814758778E0
3.345975229E1,2.306082726E0,2.242672920E0,7.734200954E0
3.347975229E1,1.961516380E0,2.434098721E0,7.274479866E0
3.349975229E1,1.846660852E0,2.855534792E0,6.967899323E0
3.351975229E1,2.152942181E0,3.238685369E0,7.197909832E0
3.353975229E1,2.919243574E0,3.315255880E0,7.925626755E0
3.355975229E1,2.919243574E0,3.506681681E0,8.653642654E0
3.357975229E1,2.344667196E0,3.430111170E0,9.687940598E0
3.359975229E1,1.616650820E0,3.583251953E0,1.033908749E1
3.361975229E1,1.616650820E0,4.042973042E0,9.726225853E0
3.363975229E1,1.731506228E0,4.119543076E0,9.649655342E0
3.365975229E1,1.463510156E0,3.966402531E0,1.037737274E1
3.367975229E1,9.655039310E-1,3.774976730E0,1.118195915E1
3.369975229E1,9.655039310E-1,3.621536970E0,1.129681492E1
3.371975229E1,1.080359459E0,3.468396425E0,1.129681492E1
3.373975229E1,9.272187948E-1,4.157828331E0,1.037737274E1
3.375975229E1,1.386939883E0,3.889832258E0,9.611071587E0
3.377975229E1,1.693221092E0,2.893819809E0,1.118195915E1
3.379975229E1,1.808375716E0,1.897807479E0,1.286740398E1
3.379975229E1,1.808375716E0,1.897807479E0,1.286740398E1
3.383975229E1,1.080359459E0,1.668096542E0,1.129681492E1
3.385975229E1,1.233500123E0,2.089233160E0,8.500203133E0
3.387975229E1,1.080359459E0,2.817249537E0,6.699903488E0
3.389975229E1,1.003789067E0,3.315255880E0,6.010471344E0
3.391975229E1,6.972087026E-1,3.813261986E0,6.355037689E0
3.393975229E1,2.374876440E-1,4.119543076E0,6.776473522E0
3.395975229E1,1.609173268E-1,4.311268330E0,7.312765121E0
3.397975229E1,1.609173268E-1,4.311268330E0,7.810771465E0
3.399975229E1,1.609173268E-1,4.272983074E0,8.883354187E0
3.401975229E1,-2.219343036E-1,4.617549419E0,9.419645309E0
3.403975229E1,-8.350951076E-1,5.383851051E0,9.649655342E0
3.405975229E1,-7.199404836E-1,5.958427429E0,8.768498421E0
3.407975229E1,2.374876440E-1,5.728417397E0,9.036494255E0
3.409975229E1,1.425225019E0,3.851547241E0,1.290568924E1
3.411975229E1,1.999801517E0,1.246660590E0,1.742602921E1
3.413975229E1,1.693221092E0,2.506481707E-1,1.673629951E1
3.415975229E1,1.846660852E0,7.486543655E-1,1.275254822E1
3.417975229E1,2.804089069E0,1.897807479E0,8.883354187E0
3.419975229E1,3.072384357E0,2.357528448E0,7.810771465E0
3.421975229E1,2.536092997E0,2.050948143E0,8.461917877E0
3.423975229E1,1.923231244E0,1.552941918E0,9.113364220E0
3.425975229E1,1.310369492E0,1.591227055E0,9.074779510E0
3.427975229E1,1.195214868E0,2.089233160E0,8.232207298E0
3.429975229E1,1.310369492E0,2.548954248E0,7.274479866E0
3.431975229E1,1.233500123E0,2.625524759E0,6.776473522E0
3.433975229E1,1.310369492E0,2.242672920E0,6.853044033E0
3.435975229E1,1.271785259E0,1.974377751E0,7.465905666E0
3.437975229E1,1.616650820E0,1.936092615E0,7.657630444E0
3.439975229E1,1.923231244E0,2.089233160E0,7.006184578E0
3.441975229E1,1.731506228E0,2.664108992E0,5.895316601E0
3.443975229E1,1.425225019E0,3.162115097E0,5.435595512E0
3.445975229E1,1.233500123E0,3.621536970E0,6.087041855E0
3.447975229E1,1.463510156E0,3.774976730E0,7.389335632E0
3.449975229E1,1.654935956E0,4.119543076E0,9.343074799E0
3.451975229E1,1.616650820E0,4.809274197E0,9.994221687E0
3.453975229E1,1.501795292E0,5.575276852E0,9.649655342E0
3.455975229E1,1.578365684E0,6.379863262E0,9.228219986E0
3.457975229E1,1.961516380E0,6.341578007E0,8.538488388E0
3.459975229E1,2.152942181E0,5.613562107E0,8.921639442E0
3.461975229E1,1.463510156E0,4.655834675E0,1.014766216E1
3.463975229E1,7.740781307E-1,4.311268330E0,1.007079220E1
3.465975229E1,-3.050848842E-2,5.230411053E0,8.998209953E0
3.467975229E1,1.226321608E-1,6.379863262E0,7.389335632E0
3.469975229E1,8.506484628E-1,5.767001629E0,8.193922043E0
3.471975229E1,1.156929731E0,4.042973042E0,1.122024441E1
3.473975229E1,8.123632669E-1,2.510669231E0,1.256082344E1
3.475975229E1,5.823532343E-1,2.434098721E0,1.148824024E1
3.477975229E1,1.271785259E0,3.123530865E0,8.883354187E0
3.479975229E1,1.501795292E0,4.196412563E0,5.895316601E0
3.481975229E1,1.386939883E0,5.000699997E0,5.244169712E0
3.483975229E1,1.195214868E0,5.115555763E0,5.627320766E0
3.485975229E1,1.156929731E0,5.307280540E0,6.316752911E0
3.487975229E1,1.348654628E0,5.422136307E0,6.699903488E0
3.489975229E1,1.769791484E0,5.077270508E0,7.619345665E0
3.491975229E1,1.884945989E0,4.770989418E0,8.461917877E0
3.493975229E1,1.846660852E0,4.885844707E0,8.768498421E0
3.495975229E1,1.463510156E0,5.805286884E0,8.117351532E0
3.497975229E1,1.386939883E0,6.916154861E0,7.619345665E0
3.499975229E1,1.808375716E0,7.260721207E0,7.734200954E0
3.501975229E1,2.497807741E0,6.379863262E0,9.304789543E0
3.503975229E1,2.497807741E0,4.426123619E0,1.206281757E1
3.505975229E1,1.348654628E0,2.664108992E0,1.424626827E1
3.507975229E1,1.992024779E-1,2.740679264E0,1.298225880E1
3.509975229E1,3.526422381E-1,3.046960592E0,1.064536858E1
3.511975229E1,1.348654628E0,3.391826153E0,9.879366875E0
3.513975229E1,1.693221092E0,3.238685369E0,9.687940598E0
3.515975229E1,1.271785259E0,2.932105064E0,9.534501076E0
3.517975229E1,4.292125702E-1,2.855534792E0,8.998209953E0
3.519975229E1,2.374876440E-1,2.932105064E0,8.308777809E0
3.521975229E1,1.609173268E-1,3.200400352E0,7.810771465E0
3.523975229E1,1.992024779E-1,3.276970625E0,7.657630444E0
3.525975229E1,1.226321608E-1,3.315255880E0,7.427620411E0
3.527975229E1,-1.453639716E-1,3.200400352E0,7.121339321E0
3.529975229E1,4.606183618E-2,3.162115097E0,7.274479866E0
3.531975229E1,3.526422381E-1,3.162115097E0,8.577073097E0
3.533975229E1,6.972087026E-1,3.162115097E0,9.534501076E0
3.535975229E1,1.233500123E0,3.430111170E0,9.496215820E0
3.537975229E1,1.884945989E0,3.851547241E0,8.691927910E0
3.539975229E1,2.152942181E0,4.234697819E0,7.887341499E0
3.541975229E1,2.076371908E0,4.502694130E0,7.887341499E0
3.543975229E1,1.693221092E0,4.579264164E0,8.691927910E0
3.545975229E1,1.808375716E0,5.077270508E0,9.228219986E0
3.547975229E1,2.344667196E0,5.920142174E0,8.461917877E0
3.549975229E1,2.038086653E0,7.107580662E0,7.006184578E0
3.551975229E1,1.693221092E0,7.375875950E0,6.738188744E0
3.553975229E1,1.616650820E0,6.379863262E0,7.810771465E0
3.555975229E1,1.271785259E0,5.767001629E0,9.304789543E0
3.557975229E1,8.889335990E-1,5.920142174E0,9.074779510E0
3.559975229E1,1.271785259E0,6.456433773E0,7.887341499E0
3.561975229E1,1.693221092E0,6.609574318E0,8.079066277E0
3.563975229E1,2.306082726E0,5.192125797E0,9.534501076E0
3.565975229E1,2.344667196E0,3.813261986E0,1.079880905E1
3.567975229E1,1.731506228E0,3.430111170E0,1.003250694E1
3.569975229E1,1.654935956E0,4.042973042E0,7.887341499E0
3.571975229E1,1.961516380E0,5.153841019E0,5.971887112E0
3.573975229E1,2.152942181E0,5.881857395E0,5.129314423E0
3.575975229E1,2.382952213E0,5.843572140E0,5.474180222E0
3.577975229E1,2.306082726E0,5.153841019E0,6.853044033E0
3.579975229E1,1.884945989E0,4.579264164E0,6.891329288E0
3.581975229E1,1.386939883E0,4.770989418E0,5.895316601E0
3.583975229E1,1.118644595E0,5.077270508E0,4.899304390E0
3.585975229E1,1.118644595E0,5.268995285E0,5.091029167E0
3.587975229E1,1.425225019E0,4.924129963E0,6.393322945E0
3.589975229E1,1.731506228E0,4.502694130E0,7.963912010E0
3.591975229E1,1.501795292E0,4.770989418E0,9.189934731E0
3.593975229E1,5.057829022E-1,6.418148518E0,8.998209953E0
3.595975229E1,6.206383705E-1,7.682157040E0,7.389335632E0
3.597975229E1,2.229512453E0,7.567301750E0,6.623332977E0
3.599975229E1,2.459522486E0,6.609574318E0,8.845068932E0
3.601975229E1,1.425225019E0,4.885844707E0,1.252253819E1
3.603975229E1,2.760719061E-1,4.196412563E0,1.401655674E1
3.605975229E1,9.272187948E-1,3.468396425E0,1.279083347E1
3.607975229E1,1.616650820E0,4.540979385E0,1.167966652E1
3.609975229E1,2.459522486E0,4.732704163E0,1.060708332E1
3.611975229E1,2.421237469E0,4.426123619E0,9.726225853E0
3.613975229E1,1.961516380E0,4.272983074E0,9.036494255E0
3.615975229E1,1.540080428E0,4.464408875E0,8.653642654E0
3.617975229E1,1.386939883E0,4.464408875E0,9.074779510E0
3.619975229E1,1.578365684E0,4.464408875E0,9.496215820E0
3.621975229E1,1.578365684E0,4.464408875E0,8.691927910E0
3.623975229E1,1.156929731E0,4.540979385E0,7.887341499E0
3.625975229E1,7.354938388E-1,4.349553585E0,7.619345665E0
3.627975229E1,4.292125702E-1,3.928117514E0,7.925626755E0
3.629975229E1,9.272187948E-1,3.468396425E0,8.845068932E0
3.631975229E1,1.195214868E0,3.276970625E0,9.266505241E0
3.633975229E1,1.348654628E0,3.276970625E0,8.577073097E0
3.635975229E1,1.348654628E0,3.353540897E0,7.734200954E0
3.637975229E1,1.540080428E0,3.200400352E0,7.351050377E0
3.639975229E1,1.846660852E0,3.123530865E0,6.814758778E0
3.641975229E1,1.999801517E0,3.276970625E0,5.933601856E0
3.643975229E1,1.578365684E0,3.813261986E0,4.669593334E0
3.645975229E1,1.042074203E0,4.042973042E0,4.861019135E0
3.647975229E1,1.195214868E0,3.544966698E0,6.546762943E0
3.649975229E1,1.156929731E0,3.238685369E0,7.427620411E0
3.651975229E1,1.003789067E0,3.659822226E0,7.274479866E0
3.653975229E1,7.354938388E-1,4.042973042E0,7.044768810E0
3.655975229E1,4.674977362E-1,4.694119930E0,7.274479866E0
3.657975229E1,5.823532343E-1,5.000699997E0,7.925626755E0
3.659975229E1,9.655039310E-1,5.345565796E0,9.228219986E0
3.661975229E1,1.348654628E0,6.226423740E0,9.496215820E0
3.663975229E1,1.961516380E0,6.992724895E0,8.232207298E0
3.665975229E1,2.152942181E0,6.992724895E0,8.653642654E0
3.667975229E1,2.038086653E0,5.651846886E0,1.045394325E1
3.669975229E1,1.654935956E0,4.042973042E0,1.256082344E1
3.671975229E1,8.123632669E-1,3.659822226E0,1.294397449E1
3.673975229E1,2.374876440E-1,4.579264164E0,1.152652550E1
3.675975229E1,7.354938388E-1,5.920142174E0,9.572786331E0
3.677975229E1,1.386939883E0,6.188138485E0,9.457930565E0
3.679975229E1,1.654935956E0,5.575276852E0,1.030080223E1
3.681975229E1,1.463510156E0,4.847559452E0,1.079880905E1
3.683975229E1,1.578365684E0,4.502694130E0,1.026251698E1
3.685975229E1,1.923231244E0,4.464408875E0,8.998209953E0
3.687975229E1,1.999801517E0,4.770989418E0,7.542775154E0
3.689975229E1,1.884945989E0,4.809274197E0,7.044768810E0
3.691975229E1,1.884945989E0,4.732704163E0,7.197909832E0
3.693975229E1,1.616650820E0,4.617549419E0,7.236194611E0
3.695975229E1,1.195214868E0,4.924129963E0,6.623332977E0
3.697975229E1,7.354938388E-1,5.192125797E0,5.742176056E0
3.699975229E1,4.292125702E-1,5.383851051E0,5.397310734E0
3.701975229E1,7.740781307E-1,5.038985252E0,6.393322945E0
3.703975229E1,1.003789067E0,4.387838364E0,7.657630444E0
3.705975229E1,1.080359459E0,3.889832258E0,8.232207298E0
3.707975229E1,8.889335990E-1,3.583251953E0,8.040482521E0
3.709975229E1,1.080359459E0,3.391826153E0,7.581060410E0
3.711975229E1,1.463510156E0,3.315255880E0,7.657630444E0
3.713975229E1,2.038086653E0,3.698406458E0,7.581060410E0
3.715975229E1,2.536092997E0,3.736691713E0,7.849056244E0
3.717975229E1,2.804089069E0,3.698406458E0,8.615358353E0
3.719975229E1,2.727518797E0,4.196412563E0,8.308777809E0
3.721975229E1,2.382952213E0,5.575276852E0,6.929614544E0
3.723975229E1,2.765803814E0,6.609574318E0,6.010471344E0
3.725975229E1,3.148954630E0,6.379863262E0,8.079066277E0
3.727975229E1,3.034099102E0,4.272983074E0,1.167966652E1
3.729975229E1,2.574378014E0,2.166102648E0,1.485942841E1
3.731975229E1,1.731506228E0,2.050948143E0,1.401655674E1
3.733975229E1,1.310369492E0,3.315255880E0,1.041565800E1
3.735975229E1,1.578365684E0,5.115555763E0,7.159624577E0
3.737975229E1,2.574378014E0,5.881857395E0,7.351050377E0
3.739975229E1,3.034099102E0,5.460421085E0,9.496215820E0
3.741975229E1,2.459522486E0,4.426123619E0,1.122024441E1
3.743975229E1,1.425225019E0,3.928117514E0,1.179482079E1
3.745975229E1,9.272187948E-1,3.966402531E0,1.110509014E1
3.747975229E1,1.348654628E0,4.272983074E0,9.879366875E0
3.749975229E1,1.693221092E0,4.617549419E0,9.074779510E0
3.751975229E1,1.961516380E0,4.617549419E0,8.615358353E0
3.753975229E1,1.846660852E0,4.387838364E0,8.461917877E0
3.755975229E1,1.501795292E0,4.042973042E0,8.538488388E0
3.757975229E1,1.386939883E0,3.813261986E0,8.538488388E0
3.759975229E1,1.386939883E0,3.430111170E0,8.691927910E0
3.761975229E1,1.463510156E0,3.008675337E0,9.113364220E0
3.763975229E1,1.463510156E0,2.472383976E0,9.074779510E0
3.765975229E1,1.501795292E0,2.472383976E0,8.193922043E0
3.767975229E1,1.731506228E0,2.855534792E0,6.967899323E0
3.769975229E1,1.923231244E0,3.162115097E0,5.971887112E0
3.771975229E1,1.999801517E0,3.200400352E0,5.550750256E0
3.773975229E1,1.578365684E0,3.200400352E0,5.627320766E0
3.775975229E1,8.123632669E-1,3.391826153E0,5.627320766E0
3.777975229E1,5.440680385E-1,3.774976730E0,5.895316601E0
3.779975229E1,8.506484628E-1,4.119543076E0,6.201897144E0
3.781975229E1,1.310369492E0,4.196412563E0,7.083054066E0
3.783975229E1,1.156929731E0,4.387838364E0,7.810771465E0
3.785975229E1,8.123632669E-1,4.924129963E0,7.619345665E0
3.787975229E1,6.206383705E-1,5.383851051E0,7.427620411E0
3.789975229E1,7.354938388E-1,5.575276852E0,9.228219986E0
3.791975229E1,1.042074203E0,5.843572140E0,1.079880905E1
3.793975229E1,1.463510156E0,6.533003807E0,1.060708332E1
3.795975229E1,2.114656925E0,7.031010151E0,8.806783676E0
3.797975229E1,2.191227436E0,7.184150696E0,8.385348320E0
3.799975229E1,2.152942181E0,6.226423740E0,9.687940598E0
3.801975229E1,2.152942181E0,4.924129963E0,1.125852966E1
3.803975229E1,1.731506228E0,4.655834675E0,1.152652550E1
3.805975229E1,1.578365684E0,4.962415218E0,1.099023438E1
3.807975229E1,2.152942181E0,5.192125797E0,1.026251698E1
3.809975229E1,2.574378014E0,4.809274197E0,1.041565800E1
3.811975229E1,2.497807741E0,4.196412563E0,1.026251698E1
3.813975229E1,2.382952213E0,3.851547241E0,9.534501076E0
3.815975229E1,2.421237469E0,3.928117514E0,8.959924698E0
3.817975229E1,2.497807741E0,4.004687786E0,8.538488388E0
3.819975229E1,2.382952213E0,4.119543076E0,8.117351532E0
3.821975229E1,2.152942181E0,4.349553585E0,7.734200954E0
3.823975229E1,1.769791484E0,4.694119930E0,7.044768810E0
3.825975229E1,1.501795292E0,4.962415218E0,6.738188744E0
3.827975229E1,1.386939883E0,4.924129963E0,7.159624577E0
3.829975229E1,1.156929731E0,4.540979385E0,7.925626755E0
3.831975229E1,9.272187948E-1,4.349553585E0,8.577073097E0
3.833975229E1,6.972087026E-1,4.272983074E0,8.270492554E0
3.835975229E1,7.740781307E-1,4.464408875E0,7.772486210E0
3.837975229E1,1.003789067E0,4.540979385E0,7.351050377E0
3.839975229E1,1.195214868E0,4.387838364E0,7.427620411E0
3.841975229E1,1.195214868E0,4.272983074E0,7.504190922E0
3.843975229E1,1.233500123E0,4.157828331E0,7.274479866E0
3.845975229E1,1.233500123E0,4.004687786E0,7.351050377E0
3.847975229E1,1.348654628E0,3.736691713E0,7.887341499E0
3.849975229E1,1.195214868E0,3.698406458E0,7.963912010E0
3.851975229E1,1.271785259E0,3.966402531E0,7.734200954E0
3.853975229E1,1.310369492E0,4.349553585E0,7.197909832E0
3.855975229E1,1.386939883E0,4.387838364E0,7.044768810E0
3.857975229E1,1.233500123E0,4.349553585E0,7.772486210E0
3.859975229E1,1.271785259E0,4.196412563E0,8.308777809E0
3.861975229E1,1.654935956E0,4.119543076E0,8.385348320E0
3.863975229E1,1.808375716E0,3.966402531E0,8.423632622E0
3.865975229E1,1.616650820E0,3.966402531E0,8.883354187E0
3.867975229E1,1.156929731E0,4.809274197E0,8.845068932E0
3.869975229E1,1.042074203E0,5.805286884E0,8.117351532E0
3.871975229E1,1.386939883E0,6.264708996E0,8.079066277E0
3.873975229E1,1.808375716E0,5.728417397E0,9.687940598E0
3.875975229E1,1.808375716E0,4.196412563E0,1.229282761E1
3.877975229E1,1.616650820E0,3.046960592E0,1.344198036E1
3.879975229E1,1.501795292E0,3.008675337E0,1.240768242E1
3.881975229E1,1.961516380E0,3.506681681E0,1.072223854E1
3.883975229E1,2.382952213E0,4.464408875E0,9.228219986E0
3.885975229E1,2.306082726E0,5.038985252E0,8.193922043E0
3.887975229E1,2.191227436E0,5.115555763E0,8.079066277E0
3.889975229E1,1.731506228E0,4.617549419E0,9.151649475E0
3.891975229E1,1.578365684E0,3.851547241E0,1.079880905E1
3.893975229E1,1.425225019E0,3.238685369E0,1.137338543E1
3.895975229E1,9.655039310E-1,3.238685369E0,1.022423172E1
3.897975229E1,6.589235067E-1,3.659822226E0,8.730213165E0
3.899975229E1,8.123632669E-1,4.081258297E0,7.887341499E0
3.901975229E1,1.042074203E0,4.234697819E0,7.657630444E0
3.903975229E1,8.889335990E-1,4.311268330E0,7.504190922E0
3.905975229E1,7.740781307E-1,4.234697819E0,7.312765121E0
3.907975229E1,9.272187948E-1,3.774976730E0,7.657630444E0
3.909975229E1,1.233500123E0,3.353540897E0,8.461917877E0
3.911975229E1,1.386939883E0,3.085245609E0,8.768498421E0
3.913975229E1,1.425225019E0,3.085245609E0,8.461917877E0
3.915975229E1,1.540080428E0,3.200400352E0,7.772486210E0
3.917975229E1,1.693221092E0,3.391826153E0,7.083054066E0
3.919975229E1,1.463510156E0,3.583251953E0,6.546762943E0
3.921975229E1,1.271785259E0,3.774976730E0,6.393322945E0
3.923975229E1,1.080359459E0,3.736691713E0,6.546762943E0
3.925975229E1,1.118644595E0,3.736691713E0,6.661618233E0
3.927975229E1,1.233500123E0,3.851547241E0,6.661618233E0
3.929975229E1,9.272187948E-1,4.196412563E0,6.278467655E0
3.931975229E1,6.589235067E-1,4.349553585E0,6.240182400E0
3.933975229E1,5.057829022E-1,4.349553585E0,7.236194611E0
3.935975229E1,6.206383705E-1,4.311268330E0,8.232207298E0
3.937975229E1,8.506484628E-1,4.579264164E0,8.806783676E0
3.939975229E1,1.233500123E0,5.077270508E0,8.845068932E0
3.941975229E1,9.655039310E-1,5.575276852E0,9.572786331E0
3.943975229E1,6.206383705E-1,5.575276852E0,1.030080223E1
3.945975229E1,1.992024779E-1,5.383851051E0,1.144995499E1
3.947975229E1,1.992024779E-1,4.349553585E0,1.290568924E1
3.949975229E1,4.606183618E-2,3.506681681E0,1.424626827E1
3.951975229E1,-4.902295470E-1,3.276970625E0,1.340369511E1
3.953975229E1,-6.816553473E-1,3.621536970E0,1.160309601E1
3.955975229E1,-1.453639716E-1,4.387838364E0,9.955936432E0
3.957975229E1,2.374876440E-1,4.885844707E0,9.343074799E0
3.959975229E1,6.206383705E-1,5.192125797E0,9.457930565E0
3.961975229E1,1.003789067E0,4.694119930E0,1.037737274E1
3.963975229E1,1.233500123E0,3.698406458E0,1.137338543E1
3.965975229E1,1.156929731E0,3.162115097E0,1.133510017E1
3.967975229E1,1.080359459E0,3.200400352E0,9.917651176E0
3.969975229E1,1.233500123E0,3.813261986E0,8.117351532E0
3.971975229E1,1.156929731E0,4.502694130E0,6.891329288E0
3.973975229E1,1.156929731E0,4.809274197E0,6.814758778E0
3.975975229E1,9.272187948E-1,5.115555763E0,6.891329288E0
3.977975229E1,7.354938388E-1,5.498706341E0,6.814758778E0
3.979975229E1,5.440680385E-1,5.575276852E0,6.929614544E0
3.981975229E1,4.674977362E-1,5.307280540E0,8.040482521E0
3.983975229E1,8.889335990E-1,4.617549419E0,9.419645309E0
3.985975229E1,9.655039310E-1,4.042973042E0,1.056879807E1
3.987975229E1,9.272187948E-1,3.698406458E0,1.079880905E1
3.989975229E1,1.156929731E0,3.621536970E0,9.802796364E0
3.991975229E1,1.271785259E0,4.004687786E0,8.538488388E0
3.993975229E1,1.348654628E0,4.311268330E0,7.465905666E0
3.995975229E1,1.386939883E0,4.579264164E0,6.469893456E0
3.997975229E1,1.233500123E0,4.655834675E0,6.278467655E0
3.999975229E1,1.003789067E0,4.387838364E0,6.623332977E0
4.001975229E1,9.272187948E-1,3.621536970E0,7.312765121E0
4.003975229E1,6.972087026E-1,3.353540897E0,7.389335632E0
4.005975229E1,6.972087026E-1,3.391826153E0,6.967899323E0
4.007975229E1,6.589235067E-1,3.506681681E0,6.201897144E0
4.009975229E1,6.206383705E-1,3.468396425E0,6.048756599E0
4.011975229E1,5.823532343E-1,3.353540897E0,6.776473522E0
4.013975229E1,8.889335990E-1,3.544966698E0,7.389335632E0
4.015975229E1,1.195214868E0,3.928117514E0,7.849056244E0
4.017975229E1,1.386939883E0,4.004687786E0,8.653642654E0
4.019975229E1,1.616650820E0,4.004687786E0,9.802796364E0
4.021975229E1,1.463510156E0,5.077270508E0,9.726225853E0
4.023975229E1,1.310369492E0,6.303293228E0,8.193922043E0
4.025975229E1,1.999801517E0,6.686144829E0,7.887341499E0
4.027975229E1,2.459522486E0,5.651846886E0,1.049222851E1
4.029975229E1,2.536092997E0,3.583251953E0,1.393998623E1
4.031975229E1,1.501795292E0,2.740679264E0,1.482114315E1
4.033975229E1,5.440680385E-1,3.123530865E0,1.275254822E1
4.035975229E1,9.272187948E-1,3.889832258E0,1.068395329E1
4.037975229E1,1.769791484E0,4.502694130E0,9.841081619E0
4.039975229E1,2.038086653E0,4.809274197E0,9.074779510E0
4.041975229E1,1.693221092E0,5.115555763E0,8.002197266E0
4.043975229E1,8.506484628E-1,5.498706341E0,7.351050377E0
4.045975229E1,2.760719061E-1,5.651846886E0,6.623332977E0
4.047975229E1,6.589235067E-1,5.192125797E0,6.393322945E0
4.049975229E1,8.889335990E-1,4.004687786E0,6.738188744E0
4.051975229E1,-1.217946768E0,3.391826153E0,6.661618233E0
4.053975229E1,-4.519443810E-1,1.936092615E0,7.734200954E0
4.055975229E1,-1.179661512E0,1.438086390E0,8.117351532E0
4.057975229E1,-5.667998791E-1,1.284945726E0,9.304789543E0
4.059975229E1,2.497807741E0,4.803591371E-1,1.041565800E1
4.061975229E1,1.003789067E0,1.668096542E0,1.317368507E1
4.063975229E1,-6.050850153E-1,2.050948143E0,9.381360054E0
4.065975229E1,-8.733802438E-1,1.284945726E0,7.887341499E0
4.067975229E1,-5.285146832E-1,4.037888348E-1,7.197909832E0
4.069975229E1,-3.050848842E-2,-1.707877219E-1,4.516452789E0
4.071975229E1,-2.635395050E0,2.506481707E-1,7.963912010E0
4.073975229E1,-2.290529490E0,1.629811287E0,1.095194912E1
4.075975229E1,-2.213959217E0,3.046960592E0,9.534501076E0
4.077975229E1,-2.520539522E0,3.123530865E0,7.695915699E0
4.079975229E1,-2.405683994E0,2.166102648E0,7.389335632E0
4.081975229E1,-2.252244234E0,2.127817631E0,7.274479866E0
4.083975229E1,-3.324826956E0,2.280958176E0,9.036494255E0
4.085975229E1,-3.248256683E0,2.050948143E0,1.091366386E1
4.087975229E1,-2.252244234E0,1.859522343E0,1.106680489E1
4.089975229E1,-1.830808401E0,2.089233160E0,1.095194912E1
4.091975229E1,-2.405683994E0,2.548954248E0,9.879366875E0
4.093975229E1,-2.443969250E0,2.664108992E0,1.033908749E1
4.095975229E1,-2.367398977E0,2.242672920E0,1.202453232E1
4.097975229E1,-2.520539522E0,1.552941918E0,1.302054405E1
4.099975229E1,-2.443969250E0,1.131805062E0,1.175653553E1
4.101975229E1,-2.941975355E0,2.050948143E0,1.053051376E1
4.103975229E1,-2.750250578E0,2.357528448E0,1.187139130E1
4.105975229E1,-2.750250578E0,2.089233160E0,1.370997620E1
4.107975229E1,-2.635395050E0,1.361516118E0,1.401655674E1
4.109975229E1,-2.099103689E0,4.803591371E-1,1.309711456E1
4.111975229E1,-2.137388945E0,7.486543655E-1,1.160309601E1
4.113975229E1,-1.945963025E0,1.552941918E0,9.994221687E0
4.115975229E1,-1.677667737E0,2.357528448E0,8.845068932E0
4.117975229E1,-1.256231904E0,3.123530865E0,8.768498421E0
4.119975229E1,-1.294517040E0,2.932105064E0,9.151649475E0
4.121975229E1,-1.830808401E0,2.050948143E0,9.036494255E0
4.123975229E1,-2.788535595E0,1.668096542E0,8.768498421E0
4.125975229E1,-2.980260611E0,1.514656782E0,8.577073097E0
4.127975229E1,-2.903690338E0,1.438086390E0,9.266505241E0
4.129975229E1,-3.209971666E0,1.170090318E0,9.841081619E0
4.131975229E1,-3.324826956E0,1.208375454E0,9.879366875E0
4.133975229E1,-3.248256683E0,1.054935694E0,9.649655342E0
4.135975229E1,-3.669692516E0,9.017950296E-1,1.007079220E1
4.137975229E1,-3.707977772E0,9.400802255E-1,1.026251698E1
4.139975229E1,-3.439981699E0,1.093519926E0,1.026251698E1
4.141975229E1,-3.171686411E0,1.208375454E0,9.994221687E0
4.143975229E1,-2.788535595E0,1.361516118E0,1.003250694E1
4.145975229E1,-2.597109795E0,1.399801254E0,1.033908749E1
4.147975229E1,-2.750250578E0,7.486543655E-1,1.060708332E1
4.149975229E1,-2.980260611E0,4.803591371E-1,1.049222851E1
4.151975229E1,-2.941975355E0,5.186443329E-1,1.010907745E1
4.153975229E1,-3.171686411E0,7.486543655E-1,9.687940598E0
4.155975229E1,-3.401696444E0,8.635098934E-1,9.228219986E0
4.157975229E1,-3.133401155E0,9.400802255E-1,9.189934731E0
4.159975229E1,-2.941975355E0,7.103692293E-1,9.113364220E0
4.161975229E1,-3.171686411E0,5.569294691E-1,9.113364220E0
4.163975229E1,-3.669692516E0,6.337988973E-1,8.653642654E0
4.165975229E1,-3.669692516E0,9.783653617E-1,8.500203133E0
4.167975229E1,-3.707977772E0,7.486543655E-1,8.730213165E0
4.169975229E1,-5.929713726E0,1.170090318E0,4.822733879E0
4.171975229E1,-4.703989983E0,8.635098934E-1,8.002197266E0
4.173975229E1,-3.401696444E0,2.889333367E-1,9.764511108E0
4.175975229E1,-3.976273060E0,-2.473580390E-1,9.343074799E0
