"Time (s)","Acceleration x (m/s^2)","Acceleration y (m/s^2)","Acceleration z (m/s^2)"
2.229318800E-2,-5.716950417E0,2.121000051E0,1.600950122E0
4.235315200E-2,-5.326950073E0,2.071050167E0,1.879050136E0
6.241286400E-2,-4.900950432E0,2.143050194E0,2.568000078E0
8.247232500E-2,-4.474050045E0,2.077950001E0,2.965950251E0
1.025320200E-1,-4.491000175E0,2.086050034E0,2.812950134E0
1.225919430E-1,-4.696950436E0,2.140950203E0,2.520000219E0
1.426516370E-1,-4.666050434E0,2.100000143E0,2.437050104E0
1.627113340E-1,-4.410000324E0,2.023050070E0,2.596950054E0
1.827707960E-1,-4.000050068E0,1.956000090E0,2.851050138E0
2.028304900E-1,-3.534000158E0,1.984950066E0,2.932050228E0
2.228904130E-1,-3.067050219E0,1.992000103E0,2.805000067E0
2.429501070E-1,-2.905950069E0,2.038050175E0,2.650050163E0
2.630097950E-1,-2.872950077E0,2.020950079E0,2.728950024E0
2.830695060E-1,-2.821950197E0,1.971000075E0,3.004050255E0
3.031292040E-1,-2.644950151E0,1.999050140E0,3.379950047E0
3.231888960E-1,-2.473050117E0,2.029950142E0,3.490050077E0
3.432485740E-1,-2.386950016E0,1.899000049E0,3.658050060E0
3.633082370E-1,-2.413050175E0,1.786050081E0,3.772950172E0
3.833679290E-1,-2.341050148E0,1.681050062E0,3.837000132E0
4.034276210E-1,-2.059050083E0,1.663950086E0,3.841950178E0
4.234873130E-1,-1.635000110E0,1.554000020E0,3.754050255E0
4.435470050E-1,-1.515000105E0,1.393950105E0,3.643050194E0
4.636067160E-1,-1.603950024E0,1.374000072E0,3.793950081E0
4.836664140E-1,-1.707000136E0,1.510950089E0,3.730050087E0
5.037261020E-1,-1.518000126E0,1.621050119E0,3.598050117E0
5.237857800E-1,-1.362000108E0,1.591950059E0,3.526050091E0
5.438454680E-1,-1.446000099E0,1.552050114E0,3.619050264E0
5.639051560E-1,-1.633050084E0,1.540050030E0,3.745950222E0
5.839648570E-1,-1.786050081E0,1.518000126E0,3.829950094E0
6.040246110E-1,-1.815000057E0,1.434000015E0,3.775050163E0
6.240843000E-1,-1.764000058E0,1.422000051E0,3.612000227E0
6.441439250E-1,-1.780950069E0,1.492050052E0,3.435000181E0
6.642036150E-1,-1.855050087E0,1.492050052E0,3.385050058E0
6.842633220E-1,-1.882050037E0,1.420050025E0,3.301050186E0
7.043230870E-1,-1.836000085E0,1.366950035E0,3.220050097E0
7.243827810E-1,-1.750050068E0,1.339050055E0,3.105000257E0
7.444423910E-1,-1.696950078E0,1.366950035E0,2.995050192E0
7.645021590E-1,-1.690050125E0,1.405950069E0,2.832000017E0
7.845618480E-1,-1.732950091E0,1.425000072E0,2.640000105E0
8.046214580E-1,-1.747050047E0,1.354950070E0,2.607000113E0
8.246812450E-1,-1.876950145E0,1.389000058E0,2.650050163E0
8.447411830E-1,-2.029950142E0,1.429050088E0,2.743050098E0
8.648008770E-1,-2.032050133E0,1.365000010E0,2.829000235E0
8.848605740E-1,-2.044049978E0,1.291050076E0,2.809950113E0
9.049202660E-1,-2.164050102E0,1.276050091E0,2.704950094E0
9.249799530E-1,-2.317050219E0,1.318950057E0,2.572950125E0
9.450396560E-1,-2.430000067E0,1.449000120E0,2.548950195E0
9.650993380E-1,-2.487000227E0,1.645050049E0,2.647050142E0
9.851590160E-1,-2.431950092E0,1.717050076E0,2.832000017E0
1.005218779E0,-2.301000118E0,1.651950121E0,3.112050056E0
1.025278473E0,-2.158950090E0,1.602000117E0,3.375000238E0
1.045338083E0,-2.025000095E0,1.561050057E0,3.658050060E0
1.065397774E0,-1.836000085E0,1.552050114E0,3.937950134E0
1.085457543E0,-1.933950067E0,1.729050040E0,4.033950329E0
1.105517246E0,-2.454000235E0,2.224050045E0,3.919050217E0
1.125576939E0,-2.383949995E0,2.470950127E0,4.048050404E0
1.145636617E0,-1.671000123E0,2.361000061E0,4.270950317E0
1.165696309E0,-1.369050026E0,2.302950144E0,4.480950356E0
1.185756021E0,-1.858050108E0,2.485050201E0,4.623000145E0
1.205815942E0,-2.386950016E0,2.835000038E0,4.726050377E0
1.225875434E0,-2.121000051E0,2.787000179E0,4.819050312E0
1.245935361E0,-1.177950025E0,2.064000130E0,4.699050426E0
1.265995059E0,-6.559500098E-1,1.417950034E0,4.411950111E0
1.286054756E0,-9.330000281E-1,1.317000031E0,3.994950294E0
1.306114464E0,-1.482000113E0,1.446000099E0,3.580950260E0
1.326174175E0,-1.621050119E0,1.477050066E0,3.325050116E0
1.346233867E0,-1.527000070E0,1.531950116E0,3.271950245E0
1.366293579E0,-1.699950099E0,1.638000131E0,2.920050144E0
1.386353276E0,-2.371950150E0,1.767000079E0,2.509050131E0
1.406413062E0,-3.613050222E0,2.469000101E0,2.650050163E0
1.426472747E0,-4.125000000E0,3.208050251E0,2.925000191E0
1.446532439E0,-2.605050087E0,2.836950064E0,2.884050131E0
1.466592146E0,-9.240000248E-1,2.023050070E0,3.202950239E0
1.486651853E0,-4.879500270E-1,1.465050101E0,3.598050117E0
1.506711526E0,-7.300500274E-1,1.018050075E0,4.005000114E0
1.526771223E0,-1.326000094E0,8.329500556E-1,4.146000385E0
1.546830872E0,-1.960950136E0,8.880000710E-1,3.691050291E0
1.566890569E0,-2.146950006E0,1.024950027E0,2.856000185E0
1.586950480E0,-2.518050194E0,1.365000010E0,2.293050051E0
1.607010175E0,-3.048000097E0,1.870050073E0,1.837950110E0
1.627069651E0,-3.091050148E0,1.903950095E0,2.017950058E0
1.647129557E0,-2.695950031E0,1.602000117E0,2.413050175E0
1.667189252E0,-2.370000124E0,1.450950027E0,3.169050217E0
1.687248934E0,-2.298000097E0,1.294950008E0,4.122000217E0
1.707308636E0,-2.157000065E0,1.123050094E0,4.575000286E0
1.727368385E0,-1.981950045E0,9.630000591E-1,4.477050304E0
1.747428079E0,-1.870050073E0,8.500500321E-1,4.165050030E0
1.767487771E0,-1.876950145E0,7.690500617E-1,3.765000105E0
1.787547697E0,-2.059050083E0,7.060500383E-1,3.325050116E0
1.807607383E0,-2.281050205E0,6.349500418E-1,3.301050186E0
1.827667075E0,-2.443950176E0,4.140000343E-1,3.670050144E0
1.847726852E0,-2.535000086E0,4.800000042E-2,4.137000084E0
1.867786560E0,-2.617050171E0,-4.300500154E-1,4.270950317E0
1.887846248E0,-2.944950104E0,-7.510500550E-1,4.405050278E0
1.907905941E0,-3.382950068E0,-6.739500165E-1,4.321050167E0
1.927965857E0,-3.648000240E0,-5.160000324E-1,4.219950199E0
1.948025551E0,-3.466950178E0,-5.850000381E-1,3.958950281E0
1.968085228E0,-3.433050156E0,-6.520500183E-1,3.708000183E0
1.988144921E0,-3.625050068E0,-5.659500360E-1,3.556950092E0
2.008204683E0,-3.568950176E0,-6.019500494E-1,3.235950232E0
2.028264348E0,-3.394950151E0,-6.450000405E-1,2.803050041E0
2.048324041E0,-3.675000191E0,-4.900500178E-1,2.347950220E0
2.068383733E0,-3.592950106E0,-7.600500584E-1,2.382000208E0
2.088443654E0,-3.619950056E0,-3.940500319E-1,1.618050098E0
2.108503335E0,-4.324050426E0,5.100000501E-1,1.158000112E0
2.128563022E0,-4.635000229E0,8.410500288E-1,1.861950040E0
2.148622789E0,-4.791000366E0,9.199500680E-1,3.307950258E0
2.168682484E0,-4.510050297E0,6.250500083E-1,5.350050449E0
2.188742176E0,-4.065000057E0,3.589500189E-1,6.624000549E0
2.208801872E0,-4.891050339E0,1.183050036E0,6.214950085E0
2.228861809E0,-5.290950298E0,1.804950118E0,5.776950359E0
2.248921508E0,-3.438000202E0,5.170500278E-1,5.665950298E0
2.268981185E0,-2.863050222E0,1.849500090E-1,5.544000149E0
2.289040892E0,-3.277050257E0,5.650500059E-1,5.128050327E0
2.309100645E0,-3.603000164E0,1.093950033E0,4.351950169E0
2.329160353E0,-3.534000158E0,1.627950072E0,3.940050125E0
2.349220075E0,-3.007050037E0,2.203050137E0,3.640950203E0
2.369279996E0,-2.178000212E0,2.088000059E0,3.564000130E0
2.389339695E0,-1.554000020E0,1.558950067E0,3.342000246E0
2.409399462E0,-1.453050017E0,1.245000005E0,2.950950146E0
2.429459152E0,-1.744950056E0,1.216050029E0,2.449050188E0
2.449518849E0,-2.206950188E0,1.329000115E0,2.169000149E0
2.469578526E0,-2.356050014E0,1.317000031E0,1.900050044E0
2.489638433E0,-2.065950155E0,1.225950003E0,1.519950032E0
2.509698204E0,-1.648950100E0,1.048950076E0,1.177050114E0
2.529757896E0,-1.549050093E0,1.066050053E0,1.110000014E0
2.549817574E0,-1.735950112E0,1.183050036E0,1.273050070E0
2.569877262E0,-2.052000046E0,1.410000086E0,1.576950073E0
2.589937192E0,-2.290950060E0,1.618950129E0,2.038950205E0
2.609996891E0,-2.305050135E0,1.621050119E0,2.662050009E0
2.630056598E0,-2.155050039E0,1.549050093E0,3.457050085E0
2.650116365E0,-2.260050058E0,1.755000114E0,4.162950039E0
2.670176050E0,-2.746050119E0,2.349000216E0,4.809000015E0
2.690235971E0,-2.961000204E0,2.920950174E0,5.374050140E0
2.710295666E0,-2.442000151E0,2.916000128E0,5.278950214E0
2.730355372E0,-2.004000187E0,2.650950193E0,5.137050152E0
2.750415153E0,-1.876950145E0,2.416050196E0,5.817000389E0
2.770474839E0,-1.783050060E0,2.212050200E0,6.186000347E0
2.790534550E0,-1.542000055E0,1.837050080E0,5.872050285E0
2.810594471E0,-1.704000115E0,1.839000106E0,5.017950058E0
2.830654243E0,-1.980000138E0,1.863000035E0,3.868050098E0
2.850713930E0,-2.178000212E0,1.948950052E0,2.839050055E0
2.870773636E0,-2.443950176E0,2.128950119E0,2.263950109E0
2.890833329E0,-2.631000042E0,2.257950068E0,2.002950191E0
2.910893255E0,-2.722050190E0,2.428050041E0,2.286000013E0
2.930952930E0,-2.490000010E0,2.526000023E0,2.566050053E0
2.951012701E0,-1.894050121E0,2.452050209E0,2.820000172E0
2.971072396E0,-1.443000078E0,2.392050028E0,2.908050060E0
2.991132084E0,-1.302000046E0,2.221950054E0,3.037950039E0
3.011192004E0,-1.419000030E0,2.050050020E0,3.022950172E0
3.031251695E0,-1.551000118E0,1.810050130E0,2.977950096E0
3.051311452E0,-1.702050090E0,1.621050119E0,2.788950205E0
3.071371122E0,-1.816950083E0,1.522950053E0,2.464950085E0
3.091431048E0,-1.885950089E0,1.555950046E0,2.212050200E0
3.111490738E0,-1.944000125E0,1.675950050E0,2.029950142E0
3.131550520E0,-1.929000139E0,1.756950140E0,1.881000042E0
3.151610214E0,-1.906050086E0,1.705050111E0,1.741950035E0
3.171670150E0,-1.909950137E0,1.602000117E0,1.591950059E0
3.191729830E0,-1.968000054E0,1.552050114E0,1.399950027E0
3.211789527E0,-1.968000054E0,1.401000023E0,1.342950106E0
3.231849294E0,-2.133000135E0,1.410000086E0,1.612950087E0
3.251909218E0,-2.158950090E0,1.638000131E0,2.238000154E0
3.271968926E0,-1.708950043E0,2.167050123E0,2.968050241E0
3.292028589E0,-1.518000126E0,3.055050135E0,4.462050438E0
3.312088357E0,-1.984950066E0,4.177950382E0,6.234000206E0
3.332148280E0,-1.462950110E0,3.642000198E0,6.588000298E0
3.352207969E0,-1.804950118E0,3.357000113E0,5.413050175E0
3.372267671E0,-2.320050001E0,3.217950106E0,5.133000374E0
3.392327364E0,-1.776000142E0,2.386950016E0,5.893950462E0
3.412387362E0,-9.979500771E-1,1.282950044E0,6.823050499E0
3.432447070E0,-7.660500407E-1,7.710000277E-1,6.694050312E0
3.452506757E0,-9.330000281E-1,7.090500593E-1,5.829000473E0
3.472566436E0,-1.264050007E0,8.550000191E-1,4.761000156E0
3.492626188E0,-1.795050144E0,1.402950048E0,3.604950190E0
3.512685877E0,-1.989000082E0,1.798050046E0,2.197050095E0
3.532745794E0,-2.166000128E0,2.089950085E0,1.255950093E0
3.552805556E0,-2.403000116E0,2.284050226E0,1.137000084E0
3.572865262E0,-2.683950186E0,2.433000088E0,1.789950132E0
3.592924936E0,-2.611950159E0,2.428050041E0,2.616000175E0
3.612984886E0,-2.289000034E0,2.275050163E0,3.030000210E0
3.633044657E0,-1.980000138E0,2.244000196E0,2.986950159E0
3.653104334E0,-1.767000079E0,2.203050137E0,2.785950184E0
3.673164246E0,-1.539000034E0,2.143050194E0,2.554050207E0
3.693223926E0,-1.317000031E0,1.992000103E0,2.487000227E0
3.713283632E0,-1.324050069E0,1.887000084E0,2.635050058E0
3.733343399E0,-1.360050082E0,1.795950055E0,2.607000113E0
3.753403080E0,-1.314000010E0,1.659000039E0,2.365050077E0
3.773462996E0,-1.318950057E0,1.714050055E0,2.058000088E0
3.793522705E0,-1.372050047E0,1.825050116E0,1.825950146E0
3.813582398E0,-1.459950089E0,1.882050037E0,1.741950035E0
3.833642184E0,-1.539000034E0,1.888950109E0,1.752000093E0
3.853702102E0,-1.429050088E0,1.804950118E0,1.945950150E0
3.873761777E0,-1.300050020E0,1.828950047E0,2.353049994E0
3.893821516E0,-1.254000068E0,1.891950130E0,2.713950157E0
3.913881224E0,-1.242000103E0,1.930050135E0,2.764950037E0
3.933940916E0,-1.137000084E0,1.911000133E0,2.707050085E0
3.954000838E0,-1.008000016E0,1.884000063E0,2.773950100E0
3.974060609E0,-9.259500504E-1,1.872000098E0,2.980050087E0
3.994120315E0,-1.045950055E0,1.863000035E0,3.148050070E0
4.014180004E0,-1.527000070E0,2.095050097E0,3.220050097E0
4.034239920E0,-2.185950041E0,2.515950203E0,3.078000069E0
4.054299618E0,-2.518050194E0,2.944950104E0,3.094950199E0
4.074359385E0,-2.260050058E0,3.081000090E0,3.634050131E0
4.094419070E0,-2.169000149E0,3.297000170E0,4.207950115E0
4.114478996E0,-2.716950178E0,3.907050133E0,4.714050293E0
4.134538690E0,-2.278950214E0,3.642000198E0,5.149050236E0
4.154598452E0,-1.467000127E0,2.986050129E0,5.428950310E0
4.174658151E0,-1.204050064E0,2.703000069E0,5.473050117E0
4.194717858E0,-1.410000086E0,2.707950115E0,5.122950077E0
4.214777793E0,-1.780950069E0,2.950050116E0,4.749000072E0
4.234837551E0,-1.836000085E0,3.093000174E0,4.048050404E0
4.254897223E0,-1.506000042E0,3.000000238E0,3.232050180E0
4.274956901E0,-1.252050042E0,2.851950169E0,2.614050150E0
4.295016836E0,-1.206000090E0,2.550000191E0,2.503950119E0
4.315076608E0,-1.135050058E0,2.136000156E0,2.769000053E0
4.335136305E0,-1.077000022E0,1.834050059E0,2.917950153E0
4.355196226E0,-9.810000658E-1,1.657050133E0,2.872050047E0
4.375255920E0,-9.720000625E-1,1.588050127E0,2.662050009E0
4.395315618E0,-1.096050024E0,1.561050057E0,2.293050051E0
4.415375389E0,-1.321050048E0,1.555950046E0,1.777950048E0
4.435435093E0,-1.518000126E0,1.542000055E0,1.342950106E0
4.455495015E0,-1.702050090E0,1.585050106E0,1.113000035E0
4.475554699E0,-1.810050130E0,1.674000025E0,1.255950093E0
4.495614481E0,-1.756950140E0,1.747950077E0,1.635000110E0
4.515674176E0,-1.675950050E0,1.786050081E0,1.999050140E0
4.535734097E0,-1.630050063E0,1.792950034E0,2.130000114E0
4.555793805E0,-1.398000121E0,1.743000031E0,2.073000193E0
4.575853562E0,-1.159050107E0,1.693050027E0,1.909950137E0
4.595913272E0,-1.185000062E0,1.762050033E0,1.683000088E0
4.615972963E0,-1.333050013E0,1.798050046E0,1.453050017E0
4.636032889E0,-1.354950070E0,1.789050102E0,1.492950082E0
4.656092660E0,-1.599000096E0,1.996950150E0,2.094000101E0
4.676152368E0,-2.250000000E0,2.617050171E0,2.881950140E0
4.696212269E0,-2.892000198E0,3.565050125E0,4.014000416E0
4.716271973E0,-2.320050001E0,3.855000257E0,4.989000320E0
4.736331761E0,-2.180999994E0,3.987000227E0,4.951050282E0
4.756391441E0,-2.289000034E0,4.189949989E0,4.831050396E0
4.776451133E0,-9.409500360E-1,2.719950199E0,5.290950298E0
4.796511068E0,-1.021950006E0,2.422950029E0,5.704950333E0
4.816570825E0,-1.455000043E0,2.362950087E0,5.977950096E0
4.836630513E0,-7.750500441E-1,2.196000099E0,6.010950089E0
4.856690209E0,2.530499995E-1,2.133000135E0,5.631000042E0
4.876750117E0,4.399500191E-1,2.180999994E0,4.861950397E0
4.896809902E0,5.700000376E-2,2.128950119E0,3.900000095E0
4.916869517E0,-7.660500407E-1,2.205000162E0,2.851050138E0
4.936929300E0,-1.531950116E0,2.341950178E0,2.017950058E0
4.956989218E0,-1.852950096E0,2.344050169E0,1.495950103E0
4.977048926E0,-1.756950140E0,2.275050163E0,1.228050113E0
4.997108679E0,-1.747050047E0,2.248050213E0,1.315950036E0
5.017168374E0,-1.750050068E0,2.145000219E0,1.489050031E0
5.037228280E0,-1.855050087E0,2.052000046E0,1.587000132E0
5.057287954E0,-2.035050154E0,2.086050034E0,1.801950097E0
5.077347726E0,-2.035050154E0,2.251049995E0,1.951050043E0
5.097407411E0,-1.455000043E0,2.074050188E0,2.065950155E0
5.117467332E0,-9.649500251E-1,1.798050046E0,2.020050049E0
5.137527026E0,-9.259500504E-1,1.621050119E0,1.813950062E0
5.157586797E0,-1.209000111E0,1.594950080E0,1.603950024E0
5.177646502E0,-1.489050031E0,1.614000082E0,1.516950130E0
5.197706423E0,-1.699950099E0,1.683000088E0,1.648950100E0
5.217766131E0,-1.795050144E0,1.837050080E0,1.948050141E0
5.237825810E0,-1.828950047E0,1.930050135E0,2.293050051E0
5.257885558E0,-2.016000032E0,1.915950060E0,2.788950205E0
5.277945252E0,-2.674050093E0,2.317950010E0,3.520950079E0
5.298005158E0,-2.976000071E0,2.607000113E0,4.431000233E0
5.318064853E0,-2.389050007E0,2.433000088E0,5.527950287E0
5.338124635E0,-1.612950087E0,2.071050167E0,6.442050457E0
5.358184343E0,-1.992000103E0,2.266950130E0,6.837000370E0
5.378244265E0,-2.262000084E0,2.361000061E0,6.780000210E0
5.398303954E0,-1.755000114E0,2.209950209E0,6.291000366E0
5.418363716E0,-1.305000067E0,2.466000080E0,5.688000202E0
5.438423397E0,-1.441050053E0,2.761050224E0,5.025000095E0
5.458483318E0,-1.762050033E0,2.764950037E0,4.201050282E0
5.478543084E0,-2.314950228E0,2.875950098E0,3.310950041E0
5.498602694E0,-2.674050093E0,2.992950201E0,2.515950203E0
5.518662462E0,-2.641050100E0,2.986050129E0,2.169000149E0
5.538722371E0,-2.635950089E0,3.007050037E0,2.182950020E0
5.558782098E0,-2.562000036E0,2.890050173E0,2.422049999E0
5.578841870E0,-2.358000040E0,2.512050152E0,2.803050041E0
5.598901560E0,-2.212050200E0,2.092950106E0,3.234000206E0
5.618961252E0,-2.212050200E0,1.816950083E0,3.493050098E0
5.639021173E0,-2.281050205E0,1.663950086E0,3.421050072E0
5.659080849E0,-2.395950079E0,1.663950086E0,3.009000063E0
5.679140602E0,-2.518050194E0,1.756950140E0,2.443950176E0
5.699200306E0,-2.688000202E0,1.975050092E0,2.020050049E0
5.719260217E0,-2.941950083E0,2.197950125E0,1.795050144E0
5.739319922E0,-3.265050173E0,2.418000221E0,1.804950118E0
5.759379688E0,-3.531000137E0,2.470950127E0,1.951050043E0
5.779439382E0,-3.687000275E0,2.380050182E0,1.989000082E0
5.799499080E0,-3.364050150E0,2.044950008E0,2.068050146E0
5.819558987E0,-2.920950174E0,1.756950140E0,2.449050188E0
5.839618753E0,-2.712000132E0,1.717050076E0,2.917950153E0
5.859678459E0,-2.368050098E0,1.456050038E0,3.289050102E0
5.879738362E0,-2.023050070E0,1.312050104E0,3.154950142E0
5.899798056E0,-1.861950040E0,1.276050091E0,2.722050190E0
5.919857753E0,-1.815000057E0,1.342950106E0,2.334000111E0
5.939917506E0,-1.828950047E0,1.564050078E0,2.311950207E0
5.959977200E0,-1.932000041E0,2.029950142E0,2.647050142E0
5.980037140E0,-1.882050037E0,2.514000177E0,3.169050217E0
6.000096820E0,-1.527000070E0,2.956950188E0,3.640950203E0
6.020156573E0,-7.369500399E-1,2.590950012E0,4.033950329E0
6.040216291E0,-6.889500618E-1,2.212050200E0,4.606050014E0
6.060276221E0,-1.831050038E0,2.791950226E0,4.728000164E0
6.080335911E0,-2.575950146E0,3.418950081E0,4.672950268E0
6.100395693E0,-1.779000044E0,3.285000086E0,4.161000252E0
6.120455372E0,-1.129950047E0,3.139050245E0,3.691050291E0
6.140515303E0,-1.126950026E0,3.256050110E0,3.607050180E0
6.160574998E0,-1.093950033E0,3.184050083E0,3.811050177E0
6.180634750E0,-1.117950082E0,3.046050072E0,4.014000416E0
6.200694444E0,-1.387950063E0,2.836950064E0,3.934950113E0
6.220754379E0,-1.546050072E0,2.583000183E0,3.679050207E0
6.240814074E0,-1.419000030E0,2.454000235E0,3.349050045E0
6.260873856E0,-1.387950063E0,2.224050045E0,2.722050190E0
6.280933550E0,-1.615950108E0,1.896000147E0,1.788000107E0
6.300993462E0,-1.936950088E0,1.462950110E0,1.042950034E0
6.321053175E0,-2.377050161E0,1.185000062E0,7.630500197E-1
6.341112962E0,-2.806050062E0,1.072950006E0,9.430500269E-1
6.361172648E0,-2.920950174E0,9.750000238E-1,1.189050078E0
6.381232578E0,-2.775000095E0,8.520000577E-1,1.387950063E0
6.401292262E0,-2.836950064E0,9.390000701E-1,1.455000043E0
6.421352020E0,-3.001950026E0,1.140000105E0,1.560000062E0
6.441411744E0,-3.217950106E0,1.516050100E0,2.098950148E0
6.461471669E0,-3.558000088E0,2.068950176E0,2.863050222E0
6.481531368E0,-4.108050346E0,2.847000122E0,3.664950132E0
6.501591060E0,-4.005000114E0,3.259050131E0,4.579950333E0
6.521650828E0,-3.021000147E0,2.545050144E0,5.173050404E0
6.541710741E0,-3.514050245E0,2.583000183E0,5.319000244E0
6.561770435E0,-4.350000381E0,3.295050144E0,5.713950157E0
6.581830133E0,-2.992050171E0,2.682000160E0,6.124050140E0
6.601889886E0,-1.783050060E0,2.040000200E0,6.358050346E0
6.621949818E0,-2.131050110E0,2.128950119E0,6.049950123E0
6.642009517E0,-2.605050087E0,2.203050137E0,5.358000278E0
6.662069195E0,-2.905950069E0,2.278950214E0,4.381050110E0
6.682128957E0,-2.992050171E0,2.377950191E0,3.375000238E0
6.702188851E0,-2.779050112E0,2.251049995E0,2.674050093E0
6.722248559E0,-2.530050039E0,2.125950098E0,2.347950220E0
6.742308247E0,-2.272050142E0,2.041949987E0,2.353049994E0
6.762368005E0,-2.236050129E0,2.131050110E0,2.635050058E0
6.782427690E0,-2.422950029E0,2.275050163E0,3.078000069E0
6.802487383E0,-2.619000196E0,2.377950191E0,3.339000225E0
6.822547304E0,-2.656950235E0,2.224050045E0,3.447000265E0
6.842607088E0,-2.715000153E0,1.930050135E0,3.366000175E0
6.862666763E0,-2.820000172E0,1.738050103E0,3.157050133E0
6.882726689E0,-3.141000032E0,1.702050090E0,2.949000120E0
6.902786373E0,-3.613050222E0,1.912950039E0,2.845950127E0
6.922846083E0,-3.759000063E0,2.205000162E0,2.827050209E0
6.942905866E0,-3.459000111E0,2.398950100E0,2.856000185E0
6.962965794E0,-2.983050108E0,2.392050028E0,2.950950146E0
6.983025483E0,-2.533050060E0,2.215050220E0,3.150000095E0
7.003085250E0,-2.269050121E0,2.040000200E0,3.351000071E0
7.023144964E0,-2.128050089E0,1.959000111E0,3.457050085E0
7.043204890E0,-1.981950045E0,1.948950052E0,3.409050226E0
7.063264588E0,-1.888950109E0,1.992000103E0,3.187950134E0
7.083324262E0,-1.726050138E0,1.959000111E0,2.857950211E0
7.103384039E0,-1.570050120E0,1.887000084E0,2.494050026E0
7.123443733E0,-1.510050058E0,1.779000044E0,2.137050152E0
7.143503654E0,-1.515000105E0,1.678050041E0,1.809000134E0
7.163563320E0,-1.587000132E0,1.578000069E0,1.515000105E0
7.183623116E0,-1.660950065E0,1.602000117E0,1.231950045E0
7.203683034E0,-1.522050023E0,1.630950093E0,1.149000049E0
7.223742747E0,-1.329000115E0,1.786050081E0,1.287000060E0
7.243802496E0,-1.330950022E0,1.896000147E0,1.321050048E0
7.263862180E0,-2.595000029E0,2.734050035E0,1.672950029E0
7.283921858E0,-4.087049961E0,3.919050217E0,3.037950039E0
7.303981770E0,-4.012050152E0,4.144950390E0,4.539000034E0
7.324041464E0,-1.870050073E0,2.794050217E0,5.346000195E0
7.344101226E0,-1.426950097E0,2.425050020E0,5.295000076E0
7.364161158E0,-2.446950197E0,2.919000149E0,5.989950180E0
7.384220853E0,-2.362950087E0,2.698050022E0,6.205050468E0
7.404280555E0,-1.429050088E0,2.124000072E0,5.857950211E0
7.424340312E0,-7.399500608E-1,1.932000041E0,5.584950447E0
7.444400240E0,-6.250500083E-1,2.047049999E0,5.053950310E0
7.464459940E0,-8.400000334E-1,2.341950178E0,4.141050339E0
7.484519646E0,-1.108050108E0,2.551950216E0,2.808000088E0
7.504579389E0,-1.342950106E0,2.413950205E0,1.480950117E0
7.524639323E0,-1.788000107E0,2.173950195E0,7.420500517E-1
7.544699002E0,-2.313000202E0,2.172000170E0,6.430500150E-1
7.564758784E0,-2.712000132E0,2.161950111E0,9.670500755E-1
7.584818474E0,-2.734050035E0,2.299050093E0,1.414050102E0
7.604878380E0,-2.578050137E0,2.470950127E0,1.800000072E0
7.624938084E0,-2.224050045E0,2.539950132E0,2.056050062E0
7.644997851E0,-1.738050103E0,2.476050138E0,2.050950050E0
7.665057546E0,-1.249050021E0,2.257950068E0,1.927050114E0
7.685117452E0,-7.950000167E-1,2.086050034E0,1.789950132E0
7.705177141E0,-6.460500360E-1,1.915950060E0,1.765950084E0
7.725236918E0,-1.012050033E0,1.882050037E0,1.861950040E0
7.745296613E0,-1.539000034E0,1.894050121E0,2.026950121E0
7.765356529E0,-1.917000055E0,1.987050056E0,2.065950155E0
7.785416233E0,-1.872000098E0,2.116950035E0,1.873950124E0
7.805476001E0,-1.647000074E0,2.263050079E0,1.651050091E0
7.825535933E0,-1.551000118E0,2.313000202E0,1.750050068E0
7.845595617E0,-1.836000085E0,2.193000078E0,2.347950220E0
7.865655394E0,-2.149950027E0,1.924950123E0,3.579000235E0
7.885715075E0,-1.933950067E0,1.350000024E0,4.326000214E0
7.905774991E0,-2.278950214E0,1.473000050E0,4.237050056E0
7.925834665E0,-2.896950245E0,2.265000105E0,4.279950142E0
7.945894438E0,-2.145000219E0,2.598000050E0,4.630050182E0
7.965954119E0,-8.280000687E-1,2.358000040E0,4.519950390E0
7.986014040E0,-1.182000041E0,2.655000210E0,5.086950302E0
8.006073734E0,-2.953950167E0,3.943050146E0,5.937000275E0
8.026133506E0,-2.506050110E0,4.410000324E0,6.040050507E0
8.046193196E0,-7.440000176E-1,4.408050060E0,5.881950378E0
8.066253131E0,-5.700000376E-2,4.420050144E0,5.809950352E0
8.086312887E0,-3.520500064E-1,4.018050194E0,6.117000103E0
8.106372566E0,-7.039500475E-1,3.523950100E0,5.785950184E0
8.126432497E0,-5.029500127E-1,3.024000168E0,4.788000107E0
8.146492191E0,-2.059500068E-1,2.526000023E0,3.616950274E0
8.166551958E0,-2.850000262E-1,2.089950085E0,2.752950191E0
8.186611886E0,-6.750000119E-1,1.774050117E0,2.020050049E0
8.206671364E0,-1.053000093E0,1.456050038E0,1.407000065E0
8.226731275E0,-1.306950092E0,1.255050063E0,1.137000084E0
8.246791066E0,-1.495950103E0,1.252050042E0,9.240000248E-1
8.266850987E0,-1.759050131E0,1.398000121E0,8.569500446E-1
8.286910695E0,-1.977000117E0,1.542000055E0,8.880000710E-1
8.306970453E0,-2.166000128E0,1.657050133E0,9.760500193E-1
8.327030148E0,-2.332050085E0,1.791000128E0,1.153050065E0
8.347090059E0,-2.422950029E0,1.972950101E0,1.411950111E0
8.367149767E0,-2.401050091E0,2.145000219E0,1.699050069E0
8.387209525E0,-2.092050076E0,2.179050207E0,1.942950130E0
8.407269233E0,-1.668000102E0,2.176050186E0,2.101950169E0
8.427329159E0,-1.372050047E0,2.236050129E0,2.122950077E0
8.447388844E0,-1.237950087E0,2.278950214E0,2.056050062E0
8.467448626E0,-1.261050105E0,2.086050034E0,1.936050057E0
8.487508320E0,-1.495950103E0,1.899000049E0,1.924050093E0
8.507568217E0,-1.708950043E0,1.911000133E0,1.855050087E0
8.527627988E0,-1.696950078E0,1.900950074E0,1.828950047E0
8.547687691E0,-1.621050119E0,1.948950052E0,2.068050146E0
8.567747640E0,-1.872000098E0,2.116950035E0,2.532000065E0
8.587807411E0,-2.617050171E0,2.710050106E0,2.959050179E0
8.607867103E0,-2.857950211E0,3.165000200E0,3.588000059E0
8.627926791E0,-2.119050026E0,3.313950062E0,4.414050102E0
8.647986726E0,-1.218000054E0,3.271050215E0,5.167950153E0
8.668046745E0,-1.357050061E0,3.687000275E0,5.487000465E0
8.688106430E0,-2.035050154E0,4.360050201E0,5.355000019E0
8.708166118E0,-9.570000172E-1,3.970050097E0,5.158950329E0
8.728225899E0,-2.220000178E-1,3.840000153E0,4.788000107E0
8.748285813E0,-3.439500034E-1,3.508050203E0,5.053950310E0
8.768345506E0,-7.249500155E-1,3.049950123E0,5.032050133E0
8.788405260E0,-1.230000019E0,2.932950258E0,4.407000065E0
8.808464963E0,-1.312050104E0,2.824950218E0,3.277050257E0
8.828524889E0,-1.474950075E0,2.884950161E0,2.197050095E0
8.848584651E0,-1.819050074E0,2.938050032E0,1.575000048E0
8.868644349E0,-2.086950064E0,2.707950115E0,1.386000037E0
8.888704255E0,-2.427000046E0,2.389950037E0,1.467000127E0
8.908763949E0,-2.550000191E0,2.169000149E0,1.656000137E0
8.928823717E0,-2.511000156E0,1.738050103E0,1.942950130E0
8.948883654E0,-2.470950127E0,1.594950080E0,1.908000112E0
8.968943353E0,-2.382000208E0,1.531950116E0,1.905000091E0
8.989003106E0,-2.205000162E0,1.518000126E0,1.867050052E0
9.009062810E0,-2.049000025E0,1.597050071E0,1.869000077E0
9.029122507E0,-1.909950137E0,1.723950028E0,1.824000120E0
9.049182423E0,-1.843050122E0,1.810050130E0,1.825950146E0
9.069242213E0,-1.798050046E0,1.789050102E0,1.884000063E0
9.089301906E0,-1.936950088E0,1.746000051E0,2.094000101E0
9.109361827E0,-2.059050083E0,1.543950081E0,2.350050211E0
9.129421584E0,-2.101950169E0,1.372050047E0,2.631000042E0
9.149481282E0,-2.269050121E0,1.486950040E0,3.081000090E0
9.169540983E0,-2.722050190E0,1.980000138E0,3.519000053E0
9.189600675E0,-3.349050045E0,2.755950212E0,3.988050222E0
9.209660582E0,-3.742050171E0,3.760950089E0,4.647000313E0
9.229720354E0,-3.238950253E0,4.099050045E0,4.957950115E0
9.249780041E0,-2.923050165E0,4.063050270E0,4.957950115E0
9.269839957E0,-3.133950233E0,3.891000271E0,4.821000099E0
9.289899632E0,-2.551950216E0,3.084000111E0,4.855050087E0
9.309959400E0,-2.128050089E0,2.746050119E0,5.106000423E0
9.330019308E0,-2.080049992E0,2.521050215E0,5.346000195E0
9.350078994E0,-2.703000069E0,2.548050165E0,4.927050114E0
9.370138691E0,-3.462000132E0,2.827950239E0,3.813000202E0
9.390198449E0,-3.735000134E0,3.216000080E0,2.736000061E0
9.410258367E0,-3.304050207E0,3.388050079E0,2.226000071E0
9.430318152E0,-2.881950140E0,3.574950218E0,2.233050108E0
9.450377859E0,-2.518050194E0,3.370950222E0,2.667000055E0
9.470437550E0,-2.482950211E0,2.976000071E0,2.896050215E0
9.490497471E0,-2.619000196E0,2.635950089E0,2.929950237E0
9.510557257E0,-2.655000210E0,2.289000034E0,2.949000120E0
9.530616950E0,-2.643000126E0,2.104950190E0,3.042000055E0
9.550676876E0,-2.605050087E0,1.999050140E0,3.175950050E0
9.570736561E0,-2.502000093E0,1.930050135E0,3.234000206E0
9.590796319E0,-2.406000137E0,2.076000214E0,3.030000210E0
9.610856018E0,-2.277000189E0,2.172000170E0,2.683050156E0
9.630915953E0,-2.190000057E0,2.265000105E0,2.262000084E0
9.650975729E0,-2.257050037E0,2.346000195E0,1.921950102E0
9.671035427E0,-2.290950060E0,2.398950100E0,1.848000050E0
9.691095333E0,-2.334000111E0,2.566950083E0,2.073000193E0
9.711155090E0,-2.125950098E0,2.503950119E0,2.509050131E0
9.731214801E0,-2.041949987E0,2.530950069E0,2.923050165E0
9.751274474E0,-2.134950161E0,2.718000174E0,2.956050158E0
9.771334400E0,-2.205000162E0,2.899950027E0,2.748000145E0
9.791394162E0,-2.205000162E0,2.944950104E0,2.470050097E0
9.811453854E0,-2.226000071E0,2.859000206E0,2.230950117E0
9.831513775E0,-2.434950113E0,2.788950205E0,2.109000206E0
9.851573489E0,-2.644950151E0,2.727000237E0,2.046000004E0
9.871633235E0,-2.746050119E0,2.677050114E0,1.987050056E0
9.891692945E0,-2.719950199E0,2.695950031E0,1.897950053E0
9.911752880E0,-2.611950159E0,2.610000134E0,1.804950118E0
9.931812584E0,-2.451000214E0,2.401950121E0,1.750050068E0
9.951872327E0,-2.314950228E0,2.083050013E0,1.765950084E0
9.971932251E0,-2.169000149E0,1.753050089E0,1.687050104E0
9.991991945E0,-2.097000122E0,1.504050016E0,1.465050101E0
1.001205173E1,-1.948950052E0,1.233000040E0,1.162950039E0
1.003211166E1,-1.945950150E0,1.233000040E0,1.084050059E0
1.005217132E1,-2.233950138E0,1.462950110E0,1.285050035E0
1.007223101E1,-2.988000154E0,2.203050137E0,1.716000080E0
1.009229077E1,-3.742050171E0,3.346950054E0,2.932050228E0
1.011235070E1,-3.262950182E0,4.328999996E0,4.410000324E0
1.013241047E1,-1.518000126E0,3.634950161E0,5.152050018E0
1.015247014E1,-2.338950157E0,3.963000298E0,4.639050007E0
1.017253007E1,-3.304050207E0,4.281000137E0,3.876000166E0
1.019258978E1,-2.410950184E0,3.493050098E0,3.744000196E0
1.021264954E1,-1.338000059E0,2.872950077E0,4.443000317E0
1.023270921E1,-6.940500140E-1,2.374950171E0,5.652000427E0
1.025276913E1,-1.020000100E0,2.167050123E0,5.860050201E0
1.027282884E1,-1.885950089E0,2.335050106E0,4.792950153E0
1.029288861E1,-2.403000116E0,2.311050177E0,3.508950233E0
1.031294853E1,-2.647950172E0,2.482950211E0,2.542050123E0
1.033300820E1,-2.629050016E0,2.380050182E0,2.532000065E0
1.035306799E1,-2.812950134E0,2.076000214E0,2.983050108E0
1.037312769E1,-3.343950272E0,1.956000090E0,3.082950115E0
1.039318763E1,-3.936000109E0,1.912950039E0,2.701950073E0
1.041324731E1,-4.198950291E0,2.386950016E0,2.827050209E0
1.043330709E1,-3.796950102E0,2.653050184E0,3.042000055E0
1.045336677E1,-3.354000092E0,2.727000237E0,3.567000151E0
1.047342670E1,-3.406950235E0,2.623950243E0,3.832950115E0
1.049348646E1,-3.727050066E0,2.569050074E0,3.390000105E0
1.051354614E1,-3.628950119E0,2.574000120E0,2.875050068E0
1.053360608E1,-3.562050104E0,2.983050108E0,2.383949995E0
1.055366579E1,-3.900000095E0,3.429000139E0,2.497050047E0
1.057372555E1,-4.123050213E0,3.460050106E0,2.785950184E0
1.059378550E1,-4.864950180E0,3.340050220E0,1.285050035E0
1.061384527E1,-4.233000278E0,2.776950121E0,2.152050018E0
1.063390497E1,-4.185000420E0,2.895000219E0,3.385050058E0
1.065621015E1,-4.703999996E0,2.823000193E0,1.294950008E0
1.067627026E1,-4.896000385E0,2.782050133E0,8.920500278E-1
1.069633026E1,-4.695000172E0,2.611950159E0,1.540950060E0
1.071639049E1,-4.225049973E0,2.527950048E0,2.556000233E0
1.073645050E1,-3.960000277E0,2.509050131E0,2.917950153E0
1.075651058E1,-4.054950237E0,2.526000023E0,2.494050026E0
1.077657052E1,-4.327950001E0,2.587950230E0,2.001000166E0
1.079663058E1,-4.240050316E0,2.545050144E0,2.013000011E0
1.081669058E1,-3.904950142E0,2.497050047E0,2.430000067E0
1.083675081E1,-3.658050060E0,2.500050068E0,2.833950043E0
1.085681080E1,-3.631950140E0,2.454000235E0,2.937000036E0
1.087687086E1,-3.640950203E0,2.397000074E0,2.797950029E0
1.089693085E1,-3.534000158E0,2.287050009E0,2.640000105E0
1.091699110E1,-3.382950068E0,2.217000008E0,2.566050053E0
1.093705110E1,-3.067050219E0,2.229000092E0,2.749950171E0
1.095711111E1,-2.674050093E0,2.260050058E0,2.917950153E0
1.097717140E1,-2.274000168E0,2.161950111E0,2.913000107E0
1.099723140E1,-2.238000154E0,2.071050167E0,3.129000187E0
1.101729140E1,-2.230950117E0,1.896000147E0,3.267000198E0
1.103735147E1,-2.109000206E0,1.827000141E0,3.610050201E0
1.105741169E1,-1.738050103E0,1.717050076E0,3.682050228E0
1.107747176E1,-1.513050079E0,1.650000095E0,3.622050285E0
1.109753175E1,-1.209000111E0,1.453050017E0,3.676950216E0
1.111759198E1,-6.870000362E-1,8.479500413E-1,3.777000189E0
1.113765198E1,-2.770500183E-1,5.170500278E-1,4.045950413E0
1.115771229E1,-1.510500014E-1,7.090500593E-1,4.195950031E0
1.117777229E1,-3.109500110E-1,9.240000248E-1,4.090950012E0
1.119783237E1,-5.550000072E-1,9.220500588E-1,4.138950348E0
1.121789237E1,-8.620500565E-1,9.480000734E-1,4.090950012E0
1.123795267E1,-1.117950082E0,1.099050045E0,3.912000179E0
1.125801267E1,-1.204050064E0,1.305000067E0,3.664950132E0
1.127807290E1,-1.165950060E0,1.473000050E0,3.402000189E0
1.129813298E1,-1.194000006E0,1.650000095E0,3.226950169E0
1.131819322E1,-1.230000019E0,1.795950055E0,2.998950243E0
1.133825322E1,-1.230000019E0,1.863000035E0,2.737950087E0
1.135831330E1,-1.261050105E0,1.860000134E0,2.616000175E0
1.137837362E1,-1.324050069E0,1.923000097E0,2.560950041E0
1.139843362E1,-1.312050104E0,1.912950039E0,2.452950001E0
1.141849385E1,-1.339950085E0,1.839000106E0,2.323950052E0
1.143855392E1,-1.462950110E0,1.734000087E0,2.248050213E0
1.145861416E1,-1.606050134E0,1.654950023E0,2.037000179E0
1.147867424E1,-1.645050049E0,1.473000050E0,1.897950053E0
1.149873447E1,-1.542000055E0,1.231050014E0,1.893000126E0
1.151879456E1,-1.396050096E0,1.245000005E0,2.008050203E0
1.153885479E1,-1.374000072E0,1.384050012E0,2.194950104E0
1.155891485E1,-1.162950039E0,1.444050074E0,2.640000105E0
1.157897509E1,-6.840000153E-1,1.456050038E0,3.141000032E0
1.159903518E1,-4.830000103E-1,1.615950108E0,3.349050045E0
1.161909542E1,-4.810500145E-1,1.558950067E0,3.256050110E0
1.163915571E1,-7.590000629E-1,1.413000107E0,2.820000172E0
1.165921579E1,-1.390950084E0,1.570950031E0,2.485050201E0
1.167927577E1,-1.825950146E0,1.717050076E0,2.422049999E0
1.169933607E1,-1.968000054E0,1.678050041E0,2.740950108E0
1.171939632E1,-1.891050100E0,1.462950110E0,3.033000231E0
1.173945641E1,-1.752000093E0,1.219050050E0,3.330000162E0
1.175951665E1,-1.672950029E0,1.008000016E0,3.511950254E0
1.177957674E1,-2.023050070E0,1.260000110E0,3.957000256E0
1.179963694E1,-2.890050173E0,2.089950085E0,4.498050213E0
1.181969702E1,-3.256050110E0,2.406000137E0,4.402050018E0
1.183975725E1,-2.905950069E0,1.978050113E0,3.505050182E0
1.185981732E1,-2.904000044E0,1.848000050E0,2.704950094E0
1.187987764E1,-2.475000143E0,1.951050043E0,2.884050131E0
1.189993786E1,-1.185000062E0,1.693050027E0,3.993000269E0
1.191999792E1,-3.439500034E-1,1.458000064E0,5.121000290E0
1.194005823E1,-2.029500157E-1,4.810500145E-1,6.208050251E0
1.196011846E1,-7.159500122E-1,-3.510000110E-1,6.274950504E0
1.198017854E1,-1.714050055E0,-5.205000192E-2,5.437050343E0
1.200023884E1,-2.350950003E0,5.749500394E-1,4.318950176E0
1.202029909E1,-2.647950172E0,1.042050004E0,3.315000057E0
1.204035916E1,-3.024000168E0,1.249950051E0,2.758050203E0
1.206041946E1,-3.483000278E0,1.200000048E0,2.700000048E0
1.208047946E1,-3.909000158E0,7.380000353E-1,2.736000061E0
1.210053977E1,-4.206000328E0,3.780000210E-1,3.421050072E0
1.212060002E1,-4.288050175E0,4.069500268E-1,4.896000385E0
1.214066034E1,-4.384050369E0,1.099500060E-1,6.382050514E0
1.216072043E1,-3.546000242E0,-1.426050067E0,6.367950439E0
1.218078074E1,-2.992050171E0,-2.884050131E0,5.848050117E0
1.220084098E1,-3.916950226E0,-2.986950159E0,6.579000473E0
1.222090106E1,-4.105950356E0,-1.528950095E0,6.868050098E0
1.224096137E1,-3.277050257E0,-2.340000153E0,5.668950081E0
1.226102157E1,-3.949950218E0,-2.091000080E0,3.199950218E0
1.228108163E1,-4.482000351E0,-1.668000102E0,1.696950078E0
1.230114194E1,-3.640950203E0,-1.027950048E0,1.603950024E0
1.232120218E1,-2.511000156E0,-6.400500536E-1,1.864050031E0
1.234126222E1,-1.563000083E0,-5.230500102E-1,1.972050071E0
1.236132252E1,-1.350000024E0,-8.295000345E-2,1.576950073E0
1.238138275E1,-1.522050023E0,3.040500283E-1,1.656000137E0
1.240144305E1,-1.465050101E0,3.660000265E-1,1.792950034E0
1.242150313E1,-1.410000086E0,4.410000145E-1,2.322000027E0
1.244156336E1,-2.226000071E0,1.509000063E0,2.968050241E0
1.246162366E1,-2.920950174E0,2.727000237E0,4.216050148E0
1.248168372E1,-2.224050045E0,2.706000090E0,5.269050121E0
1.250174395E1,-2.128050089E0,2.659950018E0,5.674050331E0
1.252180426E1,-2.650050163E0,3.220050097E0,5.422050476E0
1.254186456E1,-1.707000136E0,2.398950100E0,5.458050251E0
1.256192464E1,-1.168050051E0,2.344050169E0,6.033000469E0
1.258198488E1,-6.220500469E-1,2.239050150E0,6.952050209E0
1.260204522E1,-3.160500228E-1,1.774050117E0,6.679050446E0
1.262210553E1,-6.169500351E-1,1.870050073E0,5.422050476E0
1.264216561E1,-8.070000410E-1,1.887000084E0,3.883050203E0
1.266222586E1,-1.000050068E0,1.951050043E0,2.458050013E0
1.268228595E1,-1.273050070E0,1.990050077E0,1.429050088E0
1.270234626E1,-1.800000072E0,2.131050110E0,9.810000658E-1
1.272240655E1,-2.113950014E0,2.180999994E0,9.400500655E-1
1.274246677E1,-2.623950243E0,2.421000004E0,1.120050073E0
1.276252706E1,-2.961000204E0,2.598000050E0,1.351950049E0
1.278258713E1,-3.129000187E0,2.515950203E0,1.519950032E0
1.280264744E1,-3.013950109E0,2.302950144E0,1.720950127E0
1.282270769E1,-2.845950127E0,2.269950151E0,1.924050093E0
1.284276799E1,-2.563950062E0,2.305950165E0,2.149049997E0
1.286282808E1,-2.137950182E0,2.257950068E0,2.386050224E0
1.288288841E1,-1.798050046E0,2.257950068E0,2.590050220E0
1.290294864E1,-1.599000096E0,2.263050079E0,2.737950087E0
1.292300872E1,-1.405050039E0,2.302950144E0,2.817000151E0
1.294306901E1,-1.321050048E0,2.260050058E0,2.758050203E0
1.296312933E1,-1.408050060E0,2.284050226E0,2.724000216E0
1.298318957E1,-1.522050023E0,2.326950073E0,2.713950157E0
1.300324987E1,-1.618050098E0,2.326950073E0,2.640000105E0
1.302330995E1,-1.600950122E0,2.248050213E0,2.544000149E0
1.304337025E1,-1.579950094E0,2.104950190E0,2.497050047E0
1.306343048E1,-1.530000091E0,1.947000146E0,2.473050117E0
1.308349079E1,-1.531950116E0,1.765050054E0,2.370000124E0
1.310355087E1,-1.501050115E0,1.626000047E0,2.170950174E0
1.312361119E1,-1.566000104E0,1.686000109E0,1.920000076E0
1.314367149E1,-1.726050138E0,1.825050116E0,1.855050087E0
1.316373150E1,-1.720950127E0,1.750050068E0,2.025000095E0
1.318379202E1,-1.828950047E0,1.707000136E0,2.149049997E0
1.320385208E1,-2.491950035E0,2.179050207E0,1.896000147E0
1.322391231E1,-3.100050211E0,2.919000149E0,1.564950109E0
1.324397261E1,-2.374950171E0,2.943000078E0,1.759050131E0
1.326403269E1,-1.501050115E0,3.013950109E0,2.949000120E0
1.328409298E1,-1.041000009E0,2.524050236E0,6.097050190E0
1.330415328E1,-1.864950061E0,2.011049986E0,8.134950638E0
1.332421351E1,-3.366000175E0,2.586000204E0,7.294950485E0
1.334427382E1,-3.759000063E0,3.031050205E0,6.186000347E0
1.336433390E1,-2.899050236E0,3.256050110E0,5.206950188E0
1.338439420E1,-2.017950058E0,3.067050219E0,5.314950466E0
1.340445445E1,-2.274000168E0,3.019050121E0,5.443950176E0
1.342451474E1,-2.925000191E0,2.956950188E0,4.884000301E0
1.344457505E1,-3.337050200E0,2.788950205E0,3.805950165E0
1.346463514E1,-3.277050257E0,2.482950211E0,2.821950197E0
1.348469535E1,-2.976000071E0,2.266950130E0,2.166000128E0
1.350475566E1,-2.698050022E0,2.241000175E0,1.804950118E0
1.352481572E1,-2.497050047E0,2.253000021E0,1.671000123E0
1.354487627E1,-2.392050028E0,2.266950130E0,1.792950034E0
1.356493635E1,-2.344050169E0,2.272050142E0,2.215950012E0
1.358499664E1,-2.212050200E0,2.205000162E0,2.652000189E0
1.360505688E1,-2.017950058E0,2.185950041E0,2.995050192E0
1.362511718E1,-1.846050143E0,2.169000149E0,3.076050043E0
1.364517726E1,-1.872000098E0,2.254950047E0,2.853000164E0
1.366523756E1,-2.013000011E0,2.382000208E0,2.470050097E0
1.368529779E1,-2.149950027E0,2.503950119E0,2.086950064E0
1.370535810E1,-2.194950104E0,2.578950167E0,1.908000112E0
1.372541816E1,-2.188050032E0,2.599950075E0,1.860000134E0
1.374547849E1,-2.140050173E0,2.526000023E0,1.828950047E0
1.376553878E1,-2.065950155E0,2.374950171E0,1.860000134E0
1.378559900E1,-2.001000166E0,2.101950169E0,1.987050056E0
1.380565928E1,-1.987050056E0,1.912950039E0,2.230950117E0
1.382571936E1,-1.864950061E0,1.714050055E0,2.524950027E0
1.384577966E1,-1.659000039E0,1.509000063E0,2.575950146E0
1.386583996E1,-1.474950075E0,1.384050012E0,2.322000027E0
1.388590019E1,-1.276050091E0,1.255050063E0,2.062950134E0
1.390596050E1,-1.300050020E0,1.342950106E0,1.989000082E0
1.392602081E1,-1.675950050E0,1.783950090E0,2.200050116E0
1.394608089E1,-1.921950102E0,2.260050058E0,2.599050045E0
1.396614119E1,-2.065950155E0,2.964000225E0,2.983050108E0
1.398620143E1,-2.213999987E0,4.099050045E0,3.409050226E0
1.400626174E1,-1.554000020E0,4.537050247E0,3.820950270E0
1.402632181E1,-5.929500461E-1,4.176000118E0,4.170000076E0
1.404638212E1,-1.126950026E0,4.507950306E0,3.979050159E0
1.406644235E1,-1.647000074E0,4.654050350E0,3.958950281E0
1.408650266E1,-8.640000224E-1,3.847950220E0,3.985950232E0
1.410656274E1,-6.679500341E-1,3.666000128E0,3.933000088E0
1.412662307E1,-1.008000016E0,3.738000154E0,3.919050217E0
1.414668339E1,-1.144050002E0,3.673050165E0,3.813000202E0
1.416674364E1,-7.990500331E-1,3.418950081E0,3.508950233E0
1.418680394E1,-4.500000179E-1,3.100950241E0,2.937000036E0
1.420686402E1,-6.769500375E-1,3.001950026E0,2.224050045E0
1.422692431E1,-1.293000102E0,3.007050037E0,1.588950038E0
1.424698454E1,-1.810050130E0,2.920950174E0,1.134000063E0
1.426704485E1,-2.149950027E0,2.739000082E0,9.499500394E-1
1.428710494E1,-2.296050072E0,2.619000196E0,9.690000415E-1
1.430716524E1,-2.152050018E0,2.461050034E0,1.194000006E0
1.432722548E1,-1.792950034E0,2.338950157E0,1.635000110E0
1.434728578E1,-1.447950125E0,2.320050001E0,2.049000025E0
1.436734609E1,-1.045950055E0,2.221950054E0,2.251950026E0
1.438740617E1,-9.019500613E-1,2.251049995E0,2.191950083E0
1.440746648E1,-9.840000272E-1,2.445000172E0,2.128050089E0
1.442752671E1,-8.740500212E-1,2.493000031E0,2.166000128E0
1.444758701E1,-6.990000606E-1,2.365950108E0,2.282999992E0
1.446764708E1,-6.649500132E-1,2.169000149E0,2.394000053E0
1.448770733E1,-7.729500532E-1,2.080950022E0,2.341050148E0
1.450776764E1,-9.240000248E-1,2.111999989E0,2.158950090E0
1.452782794E1,-8.260500431E-1,2.016000032E0,1.963050127E0
1.454788804E1,-7.110000253E-1,1.899000049E0,1.848000050E0
1.456794828E1,-7.920000553E-1,1.789050102E0,1.884000063E0
1.458800859E1,-8.400000334E-1,1.510950089E0,1.989000082E0
1.460806890E1,-9.529500604E-1,1.378950119E0,2.242950201E0
1.462812890E1,-1.357050061E0,1.801050067E0,2.683050156E0
1.464818921E1,-2.028000116E0,2.842050076E0,3.337050200E0
1.466824951E1,-2.194950104E0,3.622950077E0,4.459950447E0
1.468830959E1,-1.453050017E0,3.526950121E0,5.190000057E0
1.470836990E1,-1.623000026E0,3.840000153E0,4.825950146E0
1.472843013E1,-3.052050114E0,5.172000408E0,3.957000256E0
1.474849044E1,-2.607000113E0,5.017950058E0,3.550050259E0
1.476855075E1,-1.435950041E0,4.762050152E0,3.571950197E0
1.478861077E1,-9.430500269E-1,4.350000381E0,4.231950283E0
1.480867106E1,-1.278000116E0,3.757050276E0,4.491000175E0
1.482873114E1,-1.828950047E0,3.361950159E0,4.273050308E0
1.484879144E1,-1.929000139E0,3.073950052E0,3.684000254E0
1.486885168E1,-1.429050088E0,2.742000103E0,3.121050119E0
1.488891199E1,-1.036050081E0,2.595000029E0,2.712000132E0
1.490897205E1,-8.140500188E-1,2.410950184E0,2.386050224E0
1.492903234E1,-8.539500237E-1,2.221950054E0,2.094000101E0
1.494909258E1,-1.161000013E0,2.116950035E0,1.927050114E0
1.496915266E1,-1.465050101E0,2.056950092E0,1.975050092E0
1.498921297E1,-1.537050128E0,1.947000146E0,2.146950006E0
1.500927321E1,-1.534050107E0,1.918050051E0,2.311950207E0
1.502933352E1,-1.594050050E0,1.987050056E0,2.391000032E0
1.504939358E1,-1.591950059E0,2.002050161E0,2.367000103E0
1.506945389E1,-1.587000132E0,2.119050026E0,2.317050219E0
1.508951410E1,-1.621050119E0,2.215050220E0,2.227950096E0
1.510957418E1,-1.732950091E0,2.254950047E0,2.145000219E0
1.512963450E1,-1.882050037E0,2.296050072E0,2.154000044E0
1.514969473E1,-1.800000072E0,2.293950081E0,2.145000219E0
1.516975481E1,-1.543950081E0,2.208000183E0,2.128050089E0
1.518981511E1,-1.408050060E0,2.038050175E0,2.092050076E0
1.520987533E1,-1.503000021E0,1.867950082E0,1.873950124E0
1.522993542E1,-1.639950037E0,1.717050076E0,1.519950032E0
1.524999574E1,-1.615950108E0,1.558950067E0,1.249050021E0
1.527005598E1,-1.534050107E0,1.627950072E0,1.225050092E0
1.529011630E1,-1.149000049E0,1.822050095E0,1.419000030E0
1.531017636E1,-5.029500127E-1,1.566000104E0,1.459950089E0
1.533023657E1,-6.720000505E-1,1.519950032E0,1.474050045E0
1.535029688E1,-1.960950136E0,2.655000210E0,2.154000044E0
1.537035696E1,-2.983050108E0,4.225950241E0,3.672000170E0
1.539041720E1,-2.155050039E0,4.791000366E0,5.346000195E0
1.541047731E1,-1.297050118E0,4.813050270E0,5.779050350E0
1.543053760E1,-7.780500650E-1,4.116000175E0,5.881950378E0
1.545059784E1,-8.760000467E-1,3.630000114E0,6.945000172E0
1.547065790E1,-5.959500074E-1,2.607000113E0,8.266950607E0
1.549071821E1,-9.450000525E-1,2.428050041E0,8.010000229E0
1.551077844E1,-9.859500527E-1,2.557050228E0,6.523950100E0
1.553083852E1,-5.170500278E-1,2.545050144E0,4.855050087E0
1.555089881E1,-2.850000262E-1,2.641050100E0,3.415950060E0
1.557095904E1,-4.830000103E-1,2.512050152E0,2.250000000E0
1.559101910E1,-1.108050108E0,2.416050196E0,1.395000100E0
1.561107931E1,-1.663950086E0,2.254950047E0,1.041000009E0
1.563113963E1,-2.044049978E0,2.203050137E0,9.739500284E-1
1.565119972E1,-2.277000189E0,2.365950108E0,1.108050108E0
1.567126002E1,-2.401050091E0,2.638950109E0,1.383000016E0
1.569132034E1,-2.158950090E0,2.755950212E0,1.642050028E0
1.571138056E1,-1.455000043E0,2.602950096E0,1.816950083E0
1.573144062E1,-7.900500298E-1,2.416050196E0,2.098950148E0
1.575150086E1,-4.470000267E-1,2.514000177E0,2.656950235E0
1.577156113E1,-2.920500040E-1,2.488050222E0,3.265050173E0
1.579162122E1,-1.339500099E-1,2.251049995E0,3.478050232E0
1.581168145E1,-1.909500062E-1,2.071050167E0,3.054000139E0
1.583174177E1,-5.410500169E-1,2.278950214E0,2.461050034E0
1.585180184E1,-7.630500197E-1,2.500050068E0,1.927050114E0
1.587186208E1,-8.020500541E-1,2.715000153E0,1.486050129E0
1.589192216E1,-7.710000277E-1,2.848950148E0,1.195950031E0
1.591198248E1,-7.710000277E-1,2.847000122E0,1.077000022E0
1.593204271E1,-9.840000272E-1,2.818050146E0,1.156050086E0
1.595210280E1,-1.216050029E0,2.722050190E0,1.314000010E0
1.597216309E1,-1.336050034E0,2.542950153E0,1.552950025E0
1.599222332E1,-1.411950111E0,2.422950029E0,1.792950034E0
1.601228340E1,-1.494000077E0,2.335050106E0,1.891050100E0
1.603234363E1,-1.642050028E0,2.338950157E0,1.788000107E0
1.605240372E1,-1.692000031E0,2.428050041E0,1.599000096E0
1.607246402E1,-1.386000037E0,2.410950184E0,1.522050023E0
1.609252427E1,-7.750500441E-1,2.227050066E0,1.692000031E0
1.611258435E1,-9.795000404E-2,2.002050161E0,2.113049984E0
1.613264458E1,-1.905000024E-2,2.044950008E0,2.631000042E0
1.615270464E1,-1.009950042E0,2.622000217E0,2.752950191E0
1.617276487E1,-2.206950188E0,3.405000210E0,2.829000235E0
1.619282494E1,-2.383949995E0,3.502950191E0,2.809950113E0
1.621288516E1,-2.146950006E0,3.292050123E0,2.932050228E0
1.623294525E1,-2.977950096E0,4.132950306E0,3.196050167E0
1.625300555E1,-2.128050089E0,3.715950251E0,3.856050253E0
1.627306578E1,-1.065000057E0,3.225000143E0,4.831050396E0
1.629312588E1,-6.960000396E-1,2.799000025E0,6.037950516E0
1.631318612E1,-7.729500532E-1,2.253000021E0,6.508950233E0
1.633324643E1,-1.245000005E0,2.128950119E0,5.757000446E0
1.635330644E1,-1.750050068E0,2.385000229E0,4.551000118E0
1.637336674E1,-1.822050095E0,2.643000126E0,3.402000189E0
1.639342680E1,-1.530000091E0,2.872950077E0,2.419950008E0
1.641348705E1,-1.384050012E0,3.040950060E0,1.647000074E0
1.643354713E1,-1.438950062E0,2.880000114E0,1.660950065E0
1.645360735E1,-1.684950113E0,2.677050114E0,2.158950090E0
1.647366768E1,-1.920000076E0,2.442000151E0,2.755050182E0
1.649372776E1,-2.056050062E0,2.229000092E0,3.241050243E0
1.651378798E1,-2.028000116E0,2.005950212E0,3.430050135E0
1.653384798E1,-2.061000109E0,1.903950095E0,3.363000154E0
1.655390827E1,-2.176050186E0,1.801050067E0,3.052050114E0
1.657396835E1,-2.341050148E0,1.843950033E0,2.644950151E0
1.659402858E1,-2.407950163E0,1.884000063E0,2.263950109E0
1.661408866E1,-2.437050104E0,1.923000097E0,2.026950121E0
1.663414895E1,-2.338950157E0,1.839000106E0,1.864050031E0
1.665420918E1,-2.157000065E0,1.686000109E0,1.738050103E0
1.667426925E1,-1.896000147E0,1.501050115E0,1.555950046E0
1.669432948E1,-1.795050144E0,1.362000108E0,1.390050054E0
1.671438957E1,-1.896000147E0,1.324050069E0,1.351950049E0
1.673444978E1,-1.929000139E0,1.228050113E0,1.423950076E0
1.675450986E1,-1.909950137E0,1.192050099E0,1.531950116E0
1.677457011E1,-1.684950113E0,1.175999999E0,1.816950083E0
1.679463018E1,-1.792950034E0,1.429050088E0,2.164050102E0
1.681469049E1,-2.557050228E0,2.203050137E0,3.030000210E0
1.683475072E1,-3.784950256E0,3.301950216E0,4.795050144E0
1.685481080E1,-4.912950039E0,5.241000175E0,5.386050224E0
1.687487103E1,-2.266950130E0,5.404050350E0,4.845000267E0
1.689493112E1,2.305050135E0,3.189000130E0,5.137050152E0
1.691499136E1,3.178950071E0,1.552050114E0,7.359000206E0
1.693505143E1,1.230000019E0,-1.399500072E-1,9.423000336E0
1.695511167E1,-1.933950067E0,6.000000238E-2,8.821949959E0
1.697517197E1,-3.589050055E0,8.790000677E-1,5.985000134E0
1.699523205E1,-2.818050146E0,1.012950063E0,4.033950329E0
1.701529228E1,-2.269050121E0,1.834050059E0,2.808000088E0
1.703535228E1,-2.289000034E0,2.791950226E0,2.254950047E0
1.705541259E1,-2.040000200E0,2.931000233E0,2.607000113E0
1.707547267E1,-1.756950140E0,2.563950062E0,2.893950224E0
1.709553288E1,-1.836000085E0,2.064000130E0,2.764950037E0
1.711559294E1,-2.004000187E0,1.582950115E0,2.628000021E0
1.713565317E1,-2.121000051E0,1.317000031E0,2.590050220E0
1.715571349E1,-2.202000141E0,1.386000037E0,2.566050053E0
1.717577348E1,-2.206950188E0,1.702050090E0,2.452950001E0
1.719583356E1,-1.843050122E0,1.875000119E0,2.271000147E0
1.721589378E1,-1.312050104E0,1.954050064E0,2.049000025E0
1.723595409E1,-1.029000044E0,2.155050039E0,1.861950040E0
1.725601409E1,-9.889500737E-1,2.193000078E0,1.912050128E0
1.727607415E1,-1.129950047E0,1.975050092E0,2.212050200E0
1.729613439E1,-1.431000113E0,1.746000051E0,2.536950111E0
1.731619469E1,-1.645050049E0,1.623000026E0,2.767050028E0
1.733625471E1,-1.663950086E0,1.453050017E0,2.923050165E0
1.735631502E1,-1.561050057E0,1.288050056E0,2.980050087E0
1.737637504E1,-1.453050017E0,1.164000034E0,2.961000204E0
1.739643511E1,-1.458000064E0,1.117950082E0,2.947050095E0
1.741649542E1,-1.458000064E0,1.006049991E0,2.748000145E0
1.743655544E1,-1.599000096E0,1.012950063E0,2.322000027E0
1.745661573E1,-1.894050121E0,1.164000034E0,1.960050106E0
1.747667596E1,-2.097000122E0,1.057950020E0,2.278950214E0
1.749673606E1,-2.298000097E0,8.929500580E-1,4.085999966E0
1.751679606E1,-2.827050209E0,9.240000248E-1,5.578050137E0
1.753685636E1,-3.103050232E0,5.149500370E-1,6.448950291E0
1.755691658E1,-2.904000044E0,-5.595000088E-2,7.333050251E0
1.757697666E1,-2.698050022E0,-1.900500059E-1,7.912050247E0
1.759703690E1,-2.667000055E0,8.205000311E-2,7.396950245E0
1.761709697E1,-2.695950031E0,4.570500255E-1,6.904050350E0
1.763715720E1,-2.518050194E0,7.260000110E-1,6.763050556E0
1.765721725E1,-2.064000130E0,8.569500446E-1,6.033000469E0
1.767727725E1,-1.627950072E0,8.599500656E-1,5.178000450E0
1.769733747E1,-2.101950169E0,1.125000000E0,3.982950211E0
1.771739778E1,-2.830050230E0,1.345950007E0,2.671050072E0
1.773745786E1,-3.313050270E0,1.425000072E0,1.837950110E0
1.775751808E1,-3.736950159E0,1.759950042E0,1.198950052E0
1.777757808E1,-3.682050228E0,1.815000057E0,9.520500302E-1
1.779763838E1,-3.459000111E0,1.554000020E0,1.359000087E0
1.781769837E1,-3.316050053E0,1.621050119E0,1.993950129E0
1.783775845E1,-3.366000175E0,2.044950008E0,2.638050079E0
1.785781867E1,-3.274950266E0,2.227050066E0,3.028050184E0
1.787787874E1,-2.854050159E0,2.005950212E0,3.069000244E0
1.789793896E1,-2.652000189E0,1.798050046E0,3.001950026E0
1.791799905E1,-2.976000071E0,1.731000066E0,3.234000206E0
1.793805926E1,-3.349050045E0,1.434000015E0,3.481050253E0
1.795811934E1,-3.507000208E0,1.045950055E0,3.526050091E0
1.797817959E1,-3.604950190E0,8.140500188E-1,3.301050186E0
1.799823966E1,-3.591000080E0,7.350000143E-1,3.007050037E0
1.801829989E1,-3.409050226E0,7.039500475E-1,2.662050009E0
1.803835989E1,-3.166950226E0,6.970500350E-1,2.286000013E0
1.805842017E1,-2.908950090E0,6.730500460E-1,2.050950050E0
1.807848019E1,-2.740950108E0,6.559500098E-1,1.987050056E0
1.809854051E1,-2.526000023E0,5.479500294E-1,1.891050100E0
1.811860051E1,-2.449050188E0,4.069500268E-1,1.606050134E0
1.813866059E1,-2.619000196E0,3.379500210E-1,1.170000076E0
1.815872082E1,-2.788950205E0,2.059500068E-1,1.089000106E0
1.817878090E1,-2.679000139E0,-1.095000096E-2,2.282999992E0
1.819884114E1,-3.282000065E0,4.930500090E-1,3.922950268E0
1.821890123E1,-4.144050121E0,1.482000113E0,5.331000328E0
1.823896122E1,-4.157999992E0,1.876950145E0,6.793950558E0
1.825902154E1,-4.483950138E0,2.895000219E0,6.412950516E0
1.827908153E1,-2.830050230E0,1.789050102E0,6.445050240E0
1.829914176E1,-9.570000172E-1,2.539499998E-1,7.417050362E0
1.831920183E1,-5.530500412E-1,-1.740000099E-1,9.376950264E0
1.833926206E1,-6.370500326E-1,-3.529500067E-1,9.801000595E0
1.835932214E1,-1.125000000E0,2.130000144E-1,7.855050564E0
1.837938238E1,-1.170000076E0,8.209500313E-1,5.548950195E0
1.839944240E1,-1.567950130E0,1.738050103E0,3.721950293E0
1.841950246E1,-2.217000008E0,2.470950127E0,2.257050037E0
1.843956270E1,-2.410950184E0,2.172000170E0,2.188050032E0
1.845962278E1,-2.748000145E0,1.822050095E0,2.191950083E0
1.847968301E1,-2.941950083E0,1.516050100E0,1.893000126E0
1.849974308E1,-3.162000179E0,1.429050088E0,1.600950122E0
1.851980331E1,-3.409050226E0,1.683000088E0,1.362000108E0
1.853986339E1,-3.463950157E0,1.731000066E0,1.326000094E0
1.855992338E1,-3.325050116E0,1.669050097E0,1.551000118E0
1.857998360E1,-3.033000231E0,1.651950121E0,2.164050102E0
1.860004369E1,-2.502000093E0,1.603950024E0,3.037950039E0
1.862010392E1,-1.716000080E0,1.449000120E0,3.682050228E0
1.864016393E1,-1.174950004E0,1.192050099E0,3.873000145E0
1.866022400E1,-1.093950033E0,9.960000515E-1,3.765000105E0
1.868028423E1,-1.410000086E0,1.036949992E0,3.543000221E0
1.870034430E1,-1.591950059E0,8.910000324E-1,3.315000057E0
1.872040429E1,-1.630050063E0,8.170500398E-1,3.057000160E0
1.874046462E1,-1.515000105E0,7.570500374E-1,2.820000172E0
1.876052459E1,-1.422000051E0,7.350000143E-1,2.583000183E0
1.878058480E1,-1.408050060E0,7.930500507E-1,2.353049994E0
1.880064489E1,-1.357050061E0,9.720000625E-1,2.317050219E0
1.882070512E1,-1.374000072E0,1.185000062E0,2.395950079E0
1.884076520E1,-1.915050149E0,1.791000128E0,2.748000145E0
1.886082520E1,-2.562000036E0,2.926050186E0,3.622050285E0
1.888088551E1,-2.023050070E0,3.259050131E0,5.374050140E0
1.890094552E1,-1.513050079E0,3.108000040E0,6.339000225E0
1.892100574E1,-1.774050117E0,3.346950054E0,6.282000065E0
1.894106582E1,-9.910500646E-1,2.277000189E0,6.078000069E0
1.896112605E1,-3.109500110E-1,1.714050055E0,6.162000179E0
1.898118605E1,-3.180000186E-1,1.509000063E0,6.535950184E0
1.900124614E1,-9.379500151E-1,1.611000061E0,6.042000294E0
1.902130637E1,-1.345050097E0,1.819950104E0,4.833000183E0
1.904136637E1,-1.350000024E0,1.996950150E0,3.592950106E0
1.906142645E1,-1.419000030E0,2.088000059E0,2.686050177E0
1.908148669E1,-1.627950072E0,1.888950109E0,2.370000124E0
1.910154680E1,-1.987050056E0,1.831950068E0,2.542050123E0
1.912160703E1,-2.166000128E0,1.738050103E0,2.938950062E0
1.914166704E1,-2.104050159E0,1.609050035E0,3.223950148E0
1.916172711E1,-1.909950137E0,1.420050025E0,3.253050089E0
1.918178734E1,-1.855050087E0,1.438950062E0,3.094950199E0
1.920184736E1,-1.917000055E0,1.599000096E0,2.920050144E0
1.922190744E1,-1.900950074E0,1.747950077E0,2.752950191E0
1.924196767E1,-1.917000055E0,1.798050046E0,2.595000029E0
1.926202776E1,-1.933950067E0,1.870050073E0,2.487000227E0
1.928208799E1,-1.996050119E0,1.912950039E0,2.410050154E0
1.930214800E1,-2.212050200E0,2.008949995E0,2.371950150E0
1.932220806E1,-2.446950197E0,2.062050104E0,2.278950214E0
1.934226829E1,-2.511000156E0,2.113950014E0,2.158950090E0
1.936232831E1,-2.335950136E0,2.023050070E0,2.169000149E0
1.938238836E1,-2.113950014E0,1.984950066E0,2.202000141E0
1.940244860E1,-1.981950045E0,1.995000124E0,2.227950096E0
1.942250859E1,-1.855050087E0,1.876950145E0,2.158950090E0
1.944256866E1,-1.699950099E0,1.717050076E0,1.953000069E0
1.946262891E1,-1.467000127E0,1.609050035E0,1.618050098E0
1.948268890E1,-1.350000024E0,1.564050078E0,1.279950023E0
1.950274899E1,-1.447950125E0,1.609050035E0,1.254000068E0
1.952280920E1,-1.278000116E0,1.566000104E0,1.531950116E0
1.954286920E1,-9.810000658E-1,1.606950045E0,2.089950085E0
1.956292927E1,-1.402950048E0,2.172000170E0,2.595000029E0
1.958298950E1,-2.190000057E0,3.175050259E0,3.463950157E0
1.960304950E1,-2.143050194E0,3.895950079E0,4.905000210E0
1.962310959E1,-1.132050037E0,3.678000212E0,6.018000126E0
1.964316980E1,-1.021950006E0,3.904950142E0,6.289050102E0
1.966322987E1,-7.630500197E-1,3.532050133E0,6.712950230E0
1.968329008E1,-8.350500464E-1,2.818050146E0,7.242000580E0
1.970335010E1,-1.588950038E0,2.739000082E0,6.981000423E0
1.972341010E1,-1.968000054E0,2.823000193E0,5.965950489E0
1.974347018E1,-1.573050022E0,3.012000084E0,4.768950462E0
1.976353039E1,-6.649500132E-1,3.120000124E0,3.768000126E0
1.978359038E1,-2.989500165E-1,3.067050219E0,2.892000198E0
1.980365046E1,-1.033950090E0,3.007050037E0,2.109000206E0
1.982371068E1,-1.984950066E0,2.767950058E0,1.410000086E0
1.984377070E1,-2.479950190E0,2.356050014E0,8.130000234E-1
1.986383076E1,-2.812950134E0,2.077950001E0,4.690500200E-1
1.988389076E1,-3.112050056E0,2.005950212E0,3.799500167E-1
1.990395099E1,-3.274950266E0,1.990050077E0,5.479500294E-1
1.992401108E1,-3.088050127E0,1.975050092E0,7.300500274E-1
1.994407129E1,-2.820000172E0,2.089950085E0,8.710500598E-1
1.996413132E1,-2.509050131E0,2.209950209E0,9.709500670E-1
1.998419141E1,-2.095050097E0,2.157000065E0,1.065000057E0
2.000425142E1,-1.728000045E0,1.978050113E0,1.359000087E0
2.002431164E1,-1.534050107E0,1.669050097E0,1.690050125E0
2.004437164E1,-1.702050090E0,1.432050109E0,1.896000147E0
2.006443171E1,-1.948950052E0,1.312050104E0,2.022000074E0
2.008449194E1,-2.089950085E0,1.273950100E0,2.097000122E0
2.010455196E1,-2.190000057E0,1.420050025E0,2.212050200E0
2.012461203E1,-2.155050039E0,1.590000033E0,2.464950085E0
2.014467204E1,-2.164050102E0,1.651950121E0,2.611050129E0
2.016473228E1,-2.644950151E0,2.152950048E0,2.455950022E0
2.018479238E1,-3.136050224E0,2.718000174E0,2.619000196E0
2.020485236E1,-3.378000259E0,2.856000185E0,3.756000280E0
2.022491259E1,-3.385050058E0,3.031050205E0,5.215950012E0
2.024497267E1,-2.968950033E0,2.950050116E0,6.727050304E0
2.026503267E1,-3.019050121E0,2.287050009E0,7.972050190E0
2.028509288E1,-3.756000280E0,1.947000146E0,8.098950386E0
2.030515288E1,-4.498050213E0,2.121000051E0,7.290000439E0
2.032521295E1,-5.317050457E0,2.590950012E0,6.028050423E0
2.034527319E1,-5.971050262E0,3.100950241E0,4.929000378E0
2.036533319E1,-5.214000225E0,3.127050161E0,3.754050255E0
2.038539318E1,-3.724950075E0,2.761050224E0,2.554050207E0
2.040545326E1,-3.334950209E0,2.998050213E0,1.471950054E0
2.042551347E1,-2.443950176E0,1.813050032E0,1.222950101E0
2.044557346E1,-2.467950106E0,2.071050167E0,3.202950239E0
2.046563352E1,-3.318000078E0,1.834050059E0,3.129000187E0
2.048569352E1,-2.764950037E0,1.216050029E0,2.905950069E0
2.050575375E1,-2.410950184E0,8.839500546E-1,2.845950127E0
2.052581376E1,-2.346000195E0,6.990000606E-1,2.473050117E0
2.054587384E1,-2.293050051E0,8.760000467E-1,2.061000109E0
2.056593382E1,-2.415000200E0,1.204050064E0,2.140050173E0
2.058599405E1,-2.650050163E0,1.201950073E0,2.286000013E0
2.060605413E1,-2.806050062E0,8.910000324E-1,2.104050159E0
2.062611405E1,-3.073950052E0,1.197000027E0,1.881000042E0
2.064617414E1,-2.961000204E0,1.639950037E0,2.166000128E0
2.066623436E1,-2.562000036E0,1.930050135E0,2.494050026E0
2.068629437E1,-2.182950020E0,1.654950023E0,2.475000143E0
2.070635443E1,-2.569050074E0,1.582950115E0,2.536950111E0
2.072641466E1,-3.346950054E0,1.494000077E0,2.475000143E0
2.074647467E1,-3.823050261E0,1.456050038E0,2.851050138E0
2.076653474E1,-3.877950191E0,1.590000033E0,2.956050158E0
2.078659474E1,-3.483000278E0,1.113000035E0,2.892000198E0
2.080665496E1,-3.346950054E0,6.940500140E-1,2.997000217E0
2.082671494E1,-3.972000122E0,7.620000243E-1,3.679050207E0
2.084677502E1,-4.381050110E0,1.011000037E0,4.591050148E0
2.086683500E1,-4.668000221E0,1.240050077E0,5.104050159E0
2.088689525E1,-4.720950127E0,1.851000071E0,4.714050293E0
2.090695527E1,-4.968000412E0,2.500050068E0,4.153050423E0
2.092701535E1,-4.843050003E0,2.751000166E0,4.048050404E0
2.094707536E1,-4.537050247E0,2.619000196E0,3.912000179E0
2.096713534E1,-4.792950153E0,2.722050190E0,3.646050215E0
2.098719557E1,-5.454000473E0,3.280050039E0,3.114000082E0
2.100725557E1,-5.140050411E0,3.691950083E0,3.196050167E0
2.102731568E1,-4.714050293E0,4.378950119E0,3.724950075E0
2.104737568E1,-4.216050148E0,3.598950148E0,4.297049999E0
2.106743589E1,-4.081950188E0,2.742000103E0,4.467000008E0
2.108749591E1,-3.948000193E0,2.344050169E0,4.048050404E0
2.110755598E1,-3.840000153E0,2.385000229E0,3.295950174E0
2.112761600E1,-3.742050171E0,2.569050074E0,2.500950098E0
2.114767623E1,-3.880950212E0,2.434950113E0,1.920000076E0
2.116773625E1,-4.351950169E0,2.301000118E0,1.342950106E0
2.118779635E1,-5.274000168E0,2.682000160E0,-3.520500064E-1
2.120785635E1,-5.311950207E0,2.791950226E0,7.609500289E-1
2.122791634E1,-4.848000050E0,2.824950218E0,2.140050173E0
2.124609050E1,-4.591950417E0,3.043050051E0,3.672000170E0
2.126615075E1,-4.276050091E0,2.773050070E0,3.342000246E0
2.128621084E1,-4.197000027E0,2.836950064E0,4.005000114E0
2.130627085E1,-3.565050125E0,2.734050035E0,4.584000111E0
2.132633111E1,-2.940000057E0,2.578950167E0,4.378050327E0
2.134639119E1,-2.977950096E0,2.521050215E0,3.655050278E0
2.136645151E1,-3.139050245E0,2.481000185E0,3.184050083E0
2.138651173E1,-2.964000225E0,2.221950054E0,3.331950188E0
2.140657181E1,-2.698050022E0,1.912950039E0,3.411000252E0
2.142663204E1,-2.712000132E0,1.786050081E0,3.214950085E0
2.144669206E1,-2.784000158E0,1.711950064E0,3.007050037E0
2.146675236E1,-2.593050241E0,1.674000025E0,2.896050215E0
2.148681245E1,-2.262000084E0,1.714050055E0,2.893950224E0
2.150687268E1,-2.086950064E0,1.807950139E0,2.724000216E0
2.152693276E1,-1.993950129E0,1.992000103E0,2.572950125E0
2.154699299E1,-2.431950092E0,2.029950142E0,2.176050186E0
2.156705307E1,-3.613050222E0,2.497050047E0,-8.689500690E-1
2.158711328E1,-3.304050207E0,2.244000196E0,2.227950096E0
2.160717337E1,-2.740950108E0,2.180999994E0,3.543000221E0
2.163846354E1,-4.668000221E0,2.722050190E0,1.804950118E0
2.165852331E1,-4.498050213E0,2.974050045E0,1.903050065E0
2.167858357E1,-4.102950096E0,2.940000057E0,2.166000128E0
2.169864357E1,-3.712950230E0,2.815950155E0,2.431950092E0
2.171870365E1,-3.631950140E0,2.737050056E0,2.719050169E0
2.173876367E1,-3.603000164E0,2.671950102E0,2.884050131E0
2.175882391E1,-3.592950106E0,2.737050056E0,2.746050119E0
2.177888389E1,-3.547950268E0,2.751000166E0,2.463000059E0
2.179894391E1,-3.526050091E0,2.653050184E0,2.463000059E0
2.181900400E1,-3.174000263E0,2.437050104E0,2.635050058E0
2.183906402E1,-2.968950033E0,2.626950026E0,2.797950029E0
2.185912402E1,-3.081000090E0,2.980950117E0,2.893950224E0
2.187918426E1,-3.105000257E0,2.971050024E0,2.829000235E0
2.189924426E1,-2.949000120E0,2.671950102E0,2.616000175E0
2.191930425E1,-2.920950174E0,2.551950216E0,2.656950235E0
2.193936423E1,-2.937000036E0,2.521050215E0,2.913000107E0
2.195942431E1,-2.736000061E0,2.410950184E0,3.246000051E0
2.197948432E1,-2.523000002E0,2.241000175E0,3.481050253E0
2.199954430E1,-2.449050188E0,2.149950027E0,3.624000072E0
2.201960453E1,-2.487000227E0,2.124000072E0,3.660000086E0
2.203966453E1,-2.380050182E0,2.109000206E0,3.658050060E0
2.205972455E1,-2.145000219E0,2.100000143E0,3.478050232E0
2.207978454E1,-2.023050070E0,2.188050032E0,3.190950155E0
2.209984457E1,-2.185950041E0,2.401950121E0,2.836950064E0
2.211990463E1,-2.380050182E0,2.662950039E0,2.575950146E0
2.213996461E1,-2.365050077E0,2.821050167E0,2.479950190E0
2.216002459E1,-2.052000046E0,2.883000135E0,2.406000137E0
2.218008482E1,-1.747050047E0,2.799000025E0,2.338950157E0
2.220014481E1,-1.666050076E0,2.631000042E0,2.418000221E0
2.222020481E1,-1.795050144E0,2.476050138E0,2.688000202E0
2.224026488E1,-2.074949980E0,2.287050009E0,2.956050158E0
2.226032489E1,-2.382000208E0,2.071050167E0,3.109050035E0
2.228038489E1,-2.824950218E0,2.107050180E0,2.953950167E0
2.230044510E1,-3.319950104E0,2.293950081E0,2.803050041E0
2.232050510E1,-3.543000221E0,2.469000101E0,2.632950068E0
2.234056510E1,-3.478050232E0,2.560050011E0,2.595000029E0
2.236062510E1,-3.229050159E0,2.476050138E0,2.845950127E0
2.238068517E1,-3.007050037E0,2.353950024E0,3.145050049E0
2.240074518E1,-2.836950064E0,2.269950151E0,3.436950207E0
2.242080518E1,-2.716950178E0,2.233950138E0,3.415950060E0
2.244086518E1,-2.724000216E0,2.232000113E0,3.250950098E0
2.246092542E1,-2.752950191E0,2.251049995E0,2.935050249E0
2.248098542E1,-2.833950043E0,2.332050085E0,2.632950068E0
2.250104542E1,-2.901000023E0,2.445000172E0,2.515950203E0
2.252110550E1,-2.961000204E0,2.595000029E0,2.383949995E0
2.254116550E1,-3.012000084E0,2.626950026E0,2.322000027E0
2.256122552E1,-2.935050249E0,2.545050144E0,2.274000168E0
2.258128550E1,-2.856000185E0,2.341950178E0,2.245050192E0
2.260134572E1,-2.932950258E0,2.184000015E0,2.224050045E0
2.262140574E1,-3.019050121E0,2.068950176E0,2.178000212E0
2.264146572E1,-2.956950188E0,1.918050051E0,1.993950129E0
2.266152580E1,-2.821950197E0,1.686000109E0,1.612950087E0
2.268158580E1,-2.748000145E0,1.537050128E0,1.393050075E0
2.270164581E1,-2.716950178E0,1.408050060E0,1.381050110E0
2.272170602E1,-2.632950068E0,1.125000000E0,1.849950075E0
2.274176603E1,-2.631000042E0,8.070000410E-1,2.509050131E0
2.276182604E1,-2.667000055E0,5.410500169E-1,3.150000095E0
2.278188610E1,-2.490000010E0,4.290000200E-1,3.603000164E0
2.280194610E1,-2.643000126E0,2.680500150E-1,3.141000032E0
2.282200610E1,-2.566050053E0,2.440500110E-1,2.590050220E0
2.284206633E1,-3.124050140E0,4.360500276E-1,2.821950197E0
2.286212635E1,-3.625050068E0,6.559500098E-1,3.217050076E0
2.288218634E1,-4.692000389E0,8.880000710E-1,2.880000114E0
2.290224642E1,-5.194950104E0,7.140000463E-1,3.373050213E0
2.292230644E1,-5.152050018E0,4.410000145E-1,3.841950178E0
2.294236642E1,-4.747050285E0,5.359500051E-1,3.789000273E0
2.296242645E1,-4.269000053E0,4.650000334E-1,3.628950119E0
2.298248667E1,-5.277000427E0,9.529500604E-1,3.540000200E0
2.300254670E1,-7.407000542E0,2.470950127E0,3.387000084E0
2.302260670E1,-5.554050446E0,1.093950033E0,4.729950428E0
2.304266678E1,-3.724950075E0,2.539499998E-1,5.422050476E0
2.306272677E1,-3.925950289E0,9.360000491E-1,6.315000534E0
2.308278676E1,-3.708000183E0,1.140000105E0,5.638050079E0
2.310284676E1,-3.541050196E0,8.929500580E-1,4.189050198E0
2.312290699E1,-3.268050194E0,3.880500197E-1,3.466050148E0
2.314296699E1,-3.742050171E0,6.180000305E-1,3.007050037E0
2.316302699E1,-3.931050301E0,3.810000122E-1,3.378000259E0
2.318308704E1,-3.904950142E0,-4.005000368E-2,3.342000246E0
2.320314728E1,-3.787050247E0,7.050000131E-3,3.085950136E0
2.322320728E1,-3.493050098E0,8.895000070E-2,2.704950094E0
2.324326726E1,-3.367950201E0,-1.330500096E-1,2.556000233E0
2.326332726E1,-3.442950249E0,-8.505000174E-2,2.929950237E0
2.328338726E1,-3.433050156E0,-4.350000322E-1,3.600000143E0
2.330344735E1,-2.923050165E0,-1.275000095E0,4.222949982E0
2.332350734E1,-2.643000126E0,-1.890000105E0,4.005000114E0
2.334356758E1,-2.896950245E0,-1.828050137E0,3.619050264E0
2.336362759E1,-3.511950254E0,-1.315950036E0,3.088050127E0
2.338368760E1,-4.390950203E0,-1.267950058E0,3.841950178E0
2.340374760E1,-4.597050190E0,-1.624950051E0,4.042950153E0
2.342380767E1,-4.066950321E0,-2.422049999E0,4.918950081E0
2.344386768E1,-4.465050220E0,-2.563050032E0,6.319950104E0
2.346392768E1,-5.569050312E0,-1.495050073E0,5.346000195E0
2.348398792E1,-5.209950447E0,1.905000024E-2,4.138950348E0
2.350404792E1,-3.928950071E0,-1.500000060E-1,2.188050032E0
2.352410800E1,-3.198000193E0,-7.650000453E-1,3.295950174E0
2.354416800E1,-4.153950214E0,-1.288950086E0,6.670050144E0
2.356422801E1,-5.149950027E0,-1.198050022E0,6.346050262E0
2.358428803E1,-4.609050274E0,-1.051950097E0,4.684950352E0
2.360434824E1,-3.088050127E0,-6.690000296E-1,3.550050259E0
2.362440822E1,-2.044049978E0,-3.220500052E-1,3.295950174E0
2.364446822E1,-1.953000069E0,-4.420500100E-1,3.346050262E0
2.366452829E1,-2.356050014E0,-5.569500327E-1,2.881950140E0
2.368458828E1,-2.392050028E0,-6.640500426E-1,2.295000076E0
2.370464850E1,-2.286000013E0,-4.060500264E-1,2.080049992E0
2.372470851E1,-2.023050070E0,1.369500011E-1,2.497050047E0
2.374476851E1,-1.635000110E0,1.770000011E-1,2.194950104E0
2.376482858E1,-2.197950125E0,1.500000060E-2,1.402050018E0
2.378488857E1,-3.435000181E0,1.219500080E-1,1.102950096E0
2.380494856E1,-4.503000259E0,5.560500026E-1,1.407000065E0
2.382500880E1,-5.212050438E0,1.020000100E0,2.274000168E0
2.384506883E1,-5.212050438E0,8.310000300E-1,3.238950253E0
2.386512884E1,-4.846050262E0,3.520500064E-1,4.761000156E0
2.388518891E1,-4.609050274E0,-1.110000089E-1,6.070950508E0
2.390524891E1,-4.678050041E0,9.795000404E-2,6.346050262E0
2.392530914E1,-4.054950237E0,2.560500205E-1,5.734050274E0
2.394536916E1,-2.989950180E0,1.905000024E-2,5.250000477E0
2.396542916E1,-2.923050165E0,2.370000184E-1,5.532000065E0
2.398548916E1,-2.989950180E0,1.390500069E-1,5.476950169E0
2.400554923E1,-2.455950022E0,-1.519500017E-1,4.816950321E0
2.402560923E1,-2.193000078E0,5.295000225E-2,4.594050407E0
2.404566946E1,-2.443950176E0,5.029500127E-1,4.431000233E0
2.406572947E1,-2.422950029E0,5.239500403E-1,3.876000166E0
2.408578947E1,-2.611950159E0,6.229500175E-1,2.856000185E0
2.410584954E1,-3.249000072E0,8.569500446E-1,2.161050081E0
2.412590956E1,-4.065000057E0,1.245000005E0,2.389050007E0
2.414596954E1,-4.261050224E0,1.252050042E0,3.424950123E0
2.416602951E1,-3.724950075E0,8.860500455E-1,4.105050087E0
2.418608973E1,-3.142950058E0,3.469500244E-1,4.491000175E0
2.420614973E1,-2.842050076E0,-9.000000358E-2,4.381050110E0
2.422620979E1,-2.602050066E0,-4.180500209E-1,3.837000132E0
2.424626979E1,-2.350950003E0,-6.190500259E-1,3.379950047E0
2.426633002E1,-1.981950045E0,-6.619500518E-1,3.274950266E0
2.428639002E1,-1.707000136E0,-5.380499959E-1,3.250950098E0
2.430645002E1,-2.487000227E0,9.105000645E-2,3.220050097E0
2.432651009E1,-3.696000099E0,9.169500470E-1,3.232050180E0
2.434657008E1,-3.928950071E0,1.255050063E0,3.310950041E0
2.436663007E1,-4.051050186E0,1.534950018E0,3.451950073E0
2.438669031E1,-3.514050245E0,1.149000049E0,3.568950176E0
2.440675033E1,-3.598050117E0,1.270950079E0,3.532950163E0
2.442681042E1,-4.326000214E0,1.480050087E0,4.929000378E0
2.444687040E1,-4.474050045E0,1.185000062E0,6.145050526E0
2.446693042E1,-3.691950083E0,7.999500632E-1,5.595000267E0
2.448699065E1,-3.121950150E0,8.880000710E-1,5.431950092E0
2.450705064E1,-2.523000002E0,9.199500680E-1,4.735050201E0
2.452711065E1,-1.623000026E0,-3.000000119E-2,4.069950104E0
2.454717073E1,-1.317000031E0,-7.530000210E-1,3.190950155E0
2.456723096E1,-1.543950081E0,-8.730000257E-1,2.512950182E0
2.458729096E1,-1.351950049E0,-7.840500474E-1,2.097000122E0
2.460735096E1,-1.474950075E0,-4.710000157E-1,2.020050049E0
2.462741097E1,-2.061000109E0,-1.309500039E-1,1.939050078E0
2.464747095E1,-2.359950066E0,-2.329500169E-1,1.714050055E0
2.466753103E1,-2.635950089E0,-5.899500251E-1,2.164050102E0
2.468759127E1,-4.194000244E0,2.350500077E-1,3.136050224E0
2.470765126E1,-4.759050369E0,9.199500680E-1,4.287000179E0
2.472771124E1,-3.832950115E0,9.820500612E-1,4.740000248E0
2.474777133E1,-2.892000198E0,1.012950063E0,4.696950436E0
2.476783133E1,-2.623950243E0,7.969500422E-1,4.333050251E0
2.478789133E1,-2.932950258E0,5.340000391E-1,3.853950262E0
2.480795157E1,-3.498000145E0,6.109500527E-1,3.670050144E0
2.482801158E1,-3.640950203E0,9.630000591E-1,3.793950081E0
2.484807166E1,-2.712000132E0,9.460500479E-1,3.679050207E0
2.486813166E1,-2.782050133E0,1.441050053E0,3.394050121E0
2.488819190E1,-3.337050200E0,1.804950118E0,3.684000254E0
2.490825188E1,-3.643950224E0,1.687950134E0,3.957000256E0
2.492831188E1,-4.156050205E0,1.935000062E0,4.030950069E0
2.494837189E1,-3.699000120E0,1.852950096E0,4.038000107E0
2.496843196E1,-2.782050133E0,1.393950105E0,4.129050255E0
2.498849196E1,-2.185950041E0,7.350000143E-1,4.201050282E0
2.500855216E1,-2.250000000E0,4.189500213E-1,4.333050251E0
2.502861217E1,-2.221950054E0,2.950500250E-1,4.194000244E0
2.504867224E1,-1.684950113E0,1.960500032E-1,4.017000198E0
2.506873222E1,-1.486950040E0,2.710500062E-1,3.922950268E0
2.508879222E1,-1.695000052E0,2.205000073E-2,3.768000126E0
2.510885246E1,-2.527950048E0,-2.295000106E-2,3.354000092E0
2.512891246E1,-3.474000216E0,4.140000343E-1,3.211950064E0
2.514897254E1,-3.118950129E0,5.440500379E-1,4.225049973E0
2.516903254E1,-2.676000118E0,8.980500698E-1,5.299950123E0
2.518909254E1,-2.662050009E0,8.790000677E-1,5.437050343E0
2.520915254E1,-4.087049961E0,9.910500646E-1,4.819050312E0
2.522921278E1,-5.929950237E0,1.768950105E0,4.711050034E0
2.524927279E1,-5.056050301E0,2.145000219E0,4.551000118E0
2.526933279E1,-3.445050240E0,2.433000088E0,4.129050255E0
2.528939289E1,-3.130950212E0,2.743950129E0,3.840000153E0
2.530945289E1,-3.160050154E0,2.064000130E0,3.751050234E0
2.532951289E1,-2.880000114E0,9.199500680E-1,3.856050253E0
2.534957312E1,-2.803050041E0,2.320500165E-1,3.967050076E0
2.536963312E1,-2.377050161E0,-2.295000106E-2,3.913950205E0
2.538969314E1,-1.702050090E0,-1.189500093E-1,3.475950241E0
2.540975322E1,-9.840000272E-1,7.905000448E-2,2.944050074E0
2.542981319E1,-3.300000131E-1,1.150500029E-1,2.518050194E0
2.544987318E1,-3.210000098E-1,6.495000422E-2,2.260050058E0
2.546993341E1,-9.739500284E-1,2.280000150E-1,2.137050152E0
2.548999339E1,-1.419000030E0,3.109500110E-1,1.963050127E0
2.551005347E1,-1.483950019E0,2.490000129E-1,1.797000051E0
2.553011348E1,-1.860000134E0,3.780000210E-1,1.960050106E0
2.555017348E1,-2.578050137E0,5.920500159E-1,2.548950195E0
2.557023349E1,-2.965950251E0,4.500000179E-1,2.611050129E0
2.559029370E1,-3.213000059E0,3.430500031E-1,3.133050203E0
2.561035371E1,-3.945000172E0,7.300500274E-1,4.954950333E0
2.563041380E1,-3.886050224E0,9.750000238E-1,5.971050262E0
2.565047382E1,-2.703000069E0,5.290500522E-1,5.607000351E0
2.567053384E1,-2.296050072E0,7.710000277E-1,5.482050419E0
2.569059386E1,-2.478000164E0,1.678050041E0,6.423000336E0
2.571065408E1,-2.098950148E0,1.599000096E0,7.077000141E0
2.573071408E1,-2.787000179E0,2.050050020E0,6.235950470E0
2.575077418E1,-3.258000135E0,2.581050158E0,5.037000179E0
2.577083418E1,-3.297000170E0,2.325000048E0,4.254000187E0
2.579089417E1,-3.577050209E0,1.815000057E0,3.520950079E0
2.581095416E1,-3.744000196E0,1.099050045E0,3.004050255E0
2.583101438E1,-3.780000210E0,6.850500107E-1,2.592000008E0
2.585107414E1,-3.913950205E0,6.660000086E-1,2.275950193E0
2.587113437E1,-3.808950186E0,7.660500407E-1,2.154000044E0
2.589119436E1,-3.354000092E0,7.180500627E-1,1.939050078E0
2.591125444E1,-3.688950062E0,3.379500210E-1,1.690050125E0
2.593131443E1,-4.348050117E0,-2.959500253E-1,2.032050133E0
2.595137442E1,-4.690050125E0,-2.220000178E-1,2.523000002E0
2.597143464E1,-3.546000242E0,8.170500398E-1,2.413050175E0
2.599149461E1,-1.450950027E0,1.125000000E0,3.730050087E0
2.601155459E1,-2.221950054E0,7.350000143E-1,6.343950272E0
2.603161458E1,-2.995050192E0,-2.295000106E-2,5.856000423E0
2.605167466E1,-2.176050186E0,-8.269500136E-1,5.745000362E0
2.607173466E1,-2.715000153E0,1.695000008E-2,6.676950455E0
2.609179466E1,-3.142950058E0,6.250500083E-1,5.944050312E0
2.611185467E1,-3.153000116E0,1.024950027E0,3.160050154E0
2.613191489E1,-3.354000092E0,1.948950052E0,1.113000035E0
2.615197487E1,-3.565050125E0,2.311050177E0,1.624950051E0
2.617203488E1,-2.947050095E0,1.554000020E0,4.831050396E0
2.619209496E1,-1.944000125E0,3.930000067E-1,7.575000286E0
2.621215489E1,-9.379500151E-1,-6.090000272E-1,7.014000416E0
2.623221497E1,-3.589500189E-1,-6.910500526E-1,4.740000248E0
2.625227519E1,-1.189500093E-1,-2.295000106E-2,2.643000126E0
2.627233497E1,-6.900000572E-2,4.140000343E-1,1.182000041E0
2.629239521E1,-3.300000131E-1,-3.195000067E-2,1.012050033E0
2.631245521E1,-1.159050107E0,-6.880500317E-1,5.260500312E-1
2.633251528E1,-2.180999994E0,-8.419500589E-1,-6.010500193E-1
2.635257528E1,-3.325050116E0,-5.929500461E-1,-1.234950066E0
2.637263528E1,-5.137950420E0,6.870000362E-1,-1.600950122E0
2.639269551E1,-8.652000427E0,2.698050022E0,-1.366950035E0
2.641275552E1,-7.786050320E0,2.641050100E0,1.531950116E0
2.643281551E1,-4.567950249E0,1.501050115E0,3.406050205E0
2.645287553E1,-2.545050144E0,9.910500646E-1,6.487950325E0
2.647293555E1,-3.220050097E0,8.670000434E-1,9.712950706E0
2.649299564E1,-3.507000208E0,9.000000358E-1,9.696000099E0
2.651305563E1,-1.960950136E0,7.570500374E-1,7.921950340E0
2.653311561E1,-6.220500469E-1,1.546950102E0,6.400950432E0
2.655317584E1,-1.740000099E-1,1.470000029E0,6.492000103E0
2.657323586E1,-1.362000108E0,1.216050029E0,6.853950500E0
2.659329586E1,-2.451000214E0,1.039050102E0,6.199950218E0
2.661335584E1,-2.700000048E0,8.329500556E-1,4.989000320E0
2.663341584E1,-2.518050194E0,8.910000324E-1,4.066950321E0
2.665347595E1,-2.269050121E0,1.329000115E0,3.543000221E0
2.667353596E1,-2.008050203E0,1.756950140E0,3.579000235E0
2.669359596E1,-1.888950109E0,1.839000106E0,3.469050169E0
2.671365595E1,-2.037000179E0,1.639950037E0,2.712000132E0
2.673371617E1,-2.394000053E0,1.695000052E0,1.897950053E0
2.675377597E1,-2.743050098E0,1.864950061E0,1.680000067E0
2.677383619E1,-2.494050026E0,1.558950067E0,2.180999994E0
2.679389620E1,-2.193000078E0,1.087050080E0,2.695050240E0
2.681395620E1,-2.131050110E0,9.480000734E-1,2.932050228E0
2.683401621E1,-2.224050045E0,9.310500622E-1,2.844000101E0
2.685407630E1,-2.611950159E0,9.550500512E-1,2.808000088E0
2.687413629E1,-3.136050224E0,1.224000096E0,2.986950159E0
2.689419629E1,-3.246000051E0,1.578000069E0,3.595050097E0
2.691425628E1,-2.703000069E0,1.819950104E0,4.527000427E0
2.693431628E1,-2.511000156E0,1.971000075E0,5.094000340E0
2.695437650E1,-2.775000095E0,2.068950176E0,4.563000202E0
2.697443648E1,-2.542050123E0,1.864950061E0,3.945000172E0
2.699449648E1,-2.025000095E0,1.908000112E0,4.077000141E0
2.701455648E1,-2.052000046E0,1.669050097E0,4.860000134E0
2.703461649E1,-2.497050047E0,1.267050028E0,4.591050148E0
2.705467658E1,-2.881950140E0,1.161000013E0,3.061950207E0
2.707473657E1,-2.959050179E0,1.306950092E0,1.780950069E0
2.709479656E1,-2.617050171E0,1.528050065E0,1.750050068E0
2.711485657E1,-2.334000111E0,1.695000052E0,2.652000189E0
2.713491678E1,-1.518000126E0,9.750000238E-1,3.619050264E0
2.715497678E1,-1.105949998E0,3.570000231E-1,3.682050228E0
2.717503677E1,-1.510050058E0,5.530500412E-1,3.174000263E0
2.719509680E1,-1.591950059E0,4.530000091E-1,2.497050047E0
2.721515687E1,-1.386000037E0,1.249500066E-1,1.659000039E0
2.723521686E1,-1.651950121E0,2.895000204E-2,1.114950061E0
2.725527686E1,-2.155050039E0,1.819500029E-1,4.350000322E-1
2.727533687E1,-3.190950155E0,7.260000110E-1,7.969500422E-1
2.729539687E1,-3.651000261E0,1.240050077E0,1.623000026E0
2.731545709E1,-3.277050257E0,1.339050055E0,2.596950054E0
2.733551711E1,-3.571950197E0,1.354950070E0,3.591000080E0
2.735557711E1,-3.732000113E0,1.084950089E0,4.837950230E0
2.737563711E1,-3.940950155E0,1.300050020E0,5.656950474E0
2.739569718E1,-3.610050201E0,1.999050140E0,5.695050240E0
2.741575718E1,-3.012000084E0,1.996950150E0,6.591000080E0
2.743581716E1,-2.932950258E0,2.629050016E0,7.989000320E0
2.745587716E1,-1.408050060E0,1.896000147E0,7.981950283E0
2.747593714E1,-8.760000467E-1,1.588050127E0,6.864000320E0
2.749599737E1,-1.051050067E0,2.172000170E0,5.410050392E0
2.751605736E1,-1.162950039E0,2.241000175E0,4.014000416E0
2.753611713E1,-1.447950125E0,2.145000219E0,3.418050051E0
2.755617739E1,-1.570050120E0,2.041949987E0,3.126000166E0
2.757623741E1,-1.470000029E0,1.566000104E0,2.809950113E0
2.759629742E1,-1.486950040E0,1.093950033E0,2.335950136E0
2.761635742E1,-1.740000129E0,1.159050107E0,2.185050011E0
2.763641751E1,-1.743000031E0,1.161000013E0,2.362050056E0
2.765647749E1,-1.431000113E0,9.409500360E-1,2.455950022E0
2.767653749E1,-1.185000062E0,6.679500341E-1,2.281050205E0
2.769659748E1,-1.831050038E0,5.239500403E-1,2.719050169E0
2.771665748E1,-2.992050171E0,6.420000196E-1,3.958950281E0
2.773671748E1,-3.241050243E0,8.359500170E-1,4.560000420E0
2.775677771E1,-2.475000143E0,1.639950037E0,4.228050232E0
2.777683772E1,-1.582050085E0,2.482950211E0,4.363950253E0
2.779689773E1,-8.590500355E-1,2.311050177E0,5.058000088E0
2.781695773E1,-9.360000491E-1,1.329000115E0,5.461050034E0
2.783701772E1,-2.200050116E0,1.264050007E0,5.377050400E0
2.785707779E1,-3.342000246E0,1.798050046E0,4.867050171E0
2.787713778E1,-3.181950092E0,1.803000093E0,3.861000299E0
2.789719778E1,-2.961000204E0,1.966050148E0,3.109050035E0
2.791725777E1,-2.722050190E0,2.149950027E0,2.881950140E0
2.793731778E1,-2.205000162E0,1.947000146E0,3.193050146E0
2.795737803E1,-1.879050136E0,1.414950013E0,3.793950081E0
2.797743780E1,-1.917000055E0,1.066050053E0,3.981000185E0
2.799749804E1,-2.095050097E0,1.212000012E0,3.832950115E0
2.801755803E1,-1.968000054E0,1.492050052E0,3.682050228E0
2.803761805E1,-1.822050095E0,1.599000096E0,3.670050144E0
2.805767806E1,-1.810050130E0,1.426950097E0,3.808950186E0
2.807773806E1,-1.960950136E0,1.261950016E0,3.639000177E0
2.809779807E1,-2.104050159E0,1.249950051E0,2.769000053E0
2.811785807E1,-2.157000065E0,1.401000023E0,1.717950106E0
2.813791815E1,-2.182950020E0,1.519950032E0,1.285050035E0
2.815797814E1,-2.347950220E0,1.714050055E0,1.110000014E0
2.817803814E1,-2.566050053E0,1.671000123E0,1.363950014E0
2.819809814E1,-2.155050039E0,1.213950038E0,1.735050082E0
2.821815812E1,-1.606050134E0,7.729500532E-1,1.486050129E0
2.823821812E1,-1.891050100E0,7.420500517E-1,1.915050149E0
2.825827833E1,-3.615000248E0,1.267050028E0,3.547950268E0
2.827833830E1,-4.089000225E0,1.366950035E0,4.812000275E0
2.829839830E1,-3.115050077E0,1.261950016E0,5.872050285E0
2.831845828E1,-3.009000063E0,1.678050041E0,7.129050255E0
2.833851827E1,-3.406950235E0,1.693050027E0,6.931050301E0
2.835857825E1,-4.105950356E0,2.229000092E0,4.548000336E0
2.837863826E1,-3.811050177E0,2.779950142E0,2.746050119E0
2.839869826E1,-2.976000071E0,2.938050032E0,2.800950050E0
2.841875833E1,-2.878050089E0,2.362950087E0,4.468950272E0
2.843881826E1,-3.201000214E0,1.498950124E0,5.113050461E0
2.845887857E1,-3.841950178E0,1.585050106E0,3.235950232E0
2.847893836E1,-4.039050102E0,2.148000002E0,1.668000102E0
2.849899858E1,-3.406950235E0,2.107050180E0,1.093950033E0
2.851905859E1,-3.471000195E0,1.827000141E0,1.588950038E0
2.853911858E1,-4.240050316E0,1.480050087E0,1.522050023E0
2.855917858E1,-4.510050297E0,1.249950051E0,1.278000116E0
2.857923858E1,-4.189949989E0,1.209000111E0,1.315950036E0
2.859929860E1,-4.089000225E0,1.390950084E0,1.800000072E0
2.861935861E1,-4.003050327E0,1.561050057E0,2.041949987E0
2.863941862E1,-3.895050287E0,1.437000036E0,1.927050114E0
2.865947862E1,-4.194000244E0,1.327050090E0,2.118000031E0
2.867953869E1,-4.764000416E0,1.398000121E0,2.700000048E0
2.869959868E1,-4.860000134E0,1.401000023E0,3.009000063E0
2.871965869E1,-4.467000008E0,1.585050106E0,2.905950069E0
2.873971869E1,-4.585050106E0,2.004000187E0,2.932050228E0
2.875977869E1,-5.341050148E0,2.076000214E0,3.279000044E0
2.877983868E1,-5.803050041E0,2.020950079E0,3.559950113E0
2.879989868E1,-5.667000294E0,2.530950069E0,4.183950424E0
2.881995868E1,-5.680950165E0,3.249000072E0,4.335000038E0
2.884001870E1,-6.340050220E0,3.313950062E0,1.837950110E0
2.886007895E1,-5.710050106E0,2.662950039E0,4.489050388E0
2.888013897E1,-5.509050369E0,2.872950077E0,5.355000019E0
2.890429276E1,-5.145000458E0,2.638950109E0,2.566050053E0
2.892435256E1,-5.272050381E0,2.490000010E0,1.764000058E0
2.894441226E1,-4.795050144E0,2.634000063E0,1.933950067E0
2.896447220E1,-4.258950233E0,2.797050238E0,3.085950136E0
2.898453189E1,-3.751050234E0,2.284050226E0,3.835050106E0
2.900459168E1,-4.096050262E0,2.119050026E0,3.481050253E0
2.902465137E1,-4.599000454E0,2.338950157E0,2.382000208E0
2.904471130E1,-4.780950069E0,2.374950171E0,1.881000042E0
2.906477102E1,-4.453050137E0,2.248050213E0,2.062950134E0
2.908483080E1,-3.814050198E0,2.095050097E0,2.652000189E0
2.910489070E1,-3.517050266E0,2.040000200E0,3.042000055E0
2.912495039E1,-3.748950243E0,1.960950136E0,2.643000126E0
2.914501015E1,-4.213950157E0,1.930050135E0,2.185050011E0
2.916506986E1,-4.354950428E0,1.834050059E0,2.215950012E0
2.918512978E1,-4.234950066E0,1.710000038E0,2.578050137E0
2.920518948E1,-3.706050158E0,1.642950058E0,2.965950251E0
2.922524924E1,-3.052050114E0,1.465050101E0,3.424950123E0
2.924530890E1,-2.688000202E0,1.240050077E0,3.591000080E0
2.926536882E1,-2.617050171E0,1.081950068E0,3.751050234E0
2.928542850E1,-2.947050095E0,9.910500646E-1,4.411950111E0
2.930548825E1,-3.193950176E0,8.959500194E-1,4.821000099E0
2.932554816E1,-2.893950224E0,5.410500169E-1,4.579950333E0
2.934560785E1,-2.310000181E0,-2.239500135E-1,4.558050156E0
2.936566762E1,-1.690050125E0,-8.890500665E-1,4.684950352E0
2.938572728E1,-1.479000092E0,-1.483050108E0,4.503000259E0
2.940578719E1,-1.732950091E0,-2.448000193E0,4.361999989E0
2.942584690E1,-3.249000072E0,-3.166050196E0,4.294950008E0
2.944590667E1,-3.795000076E0,-2.617950201E0,4.599000454E0
2.946596637E1,-3.672000170E0,-1.489950061E0,5.580000401E0
2.948602628E1,-2.257050037E0,-3.181050062E0,6.451950073E0
2.950608598E1,-2.748000145E0,-2.877000093E0,5.215950012E0
2.952614572E1,-3.205950260E0,-1.620000124E0,2.761950016E0
2.954620564E1,-2.461050034E0,4.909500182E-1,1.644000053E0
2.956626534E1,-2.080049992E0,1.614000082E0,2.463000059E0
2.958632510E1,-2.413050175E0,2.169000149E0,3.724950075E0
2.960638480E1,-3.073950052E0,2.695950031E0,4.041000366E0
2.962644474E1,-3.258000135E0,2.842050076E0,3.703050137E0
2.964650444E1,-2.698050022E0,2.169000149E0,4.077000141E0
2.966656414E1,-2.326950073E0,1.831950068E0,4.306950092E0
2.968662391E1,-2.614050150E0,1.884000063E0,4.249050140E0
2.970668383E1,-2.716950178E0,1.995000124E0,4.137000084E0
2.972674353E1,-2.652000189E0,1.798050046E0,3.583950281E0
2.974680329E1,-2.740950108E0,1.510950089E0,3.013950109E0
2.976686322E1,-2.863050222E0,1.588050127E0,2.875050068E0
2.978692291E1,-2.611950159E0,1.825050116E0,2.997000217E0
2.980698268E1,-2.226000071E0,1.825050116E0,2.844000101E0
2.982704261E1,-1.896000147E0,1.674000025E0,2.578050137E0
2.984710231E1,-1.563000083E0,1.378950119E0,2.367000103E0
2.986716208E1,-1.503000021E0,1.233000040E0,2.452950001E0
2.988722177E1,-1.410000086E0,1.165950060E0,2.686050177E0
2.990728170E1,-1.312050104E0,8.760000467E-1,2.326950073E0
2.992734142E1,-1.546050072E0,6.589500308E-1,1.836000085E0
2.994740119E1,-1.852950096E0,4.549500346E-1,1.407000065E0
2.996746111E1,-2.157000065E0,3.949500322E-1,1.021950006E0
2.998752079E1,-2.485050201E0,4.549500346E-1,7.680000067E-1
3.000758056E1,-2.758050203E0,5.100000501E-1,6.430500150E-1
3.002764046E1,-3.094950199E0,3.469500244E-1,6.310500503E-1
3.004770016E1,-3.996000290E0,4.810500145E-1,1.105949998E0
3.006775992E1,-5.407950401E0,1.279050112E0,1.855050087E0
3.008781947E1,-5.679000378E0,1.723950028E0,2.536950111E0
3.010787941E1,-4.738050461E0,1.485000014E0,2.845950127E0
3.012793917E1,-4.846050262E0,2.358000040E0,3.823050261E0
3.014799909E1,-4.204050064E0,1.930050135E0,6.478050232E0
3.016805879E1,-3.495000124E0,1.224000096E0,8.544000626E0
3.018811856E1,-3.706050158E0,2.301000118E0,8.845950127E0
3.020817848E1,-3.960000277E0,3.915000200E0,7.843050480E0
3.022823819E1,-3.928950071E0,5.112000465E0,6.591000080E0
3.024829796E1,-3.687000275E0,5.334000111E0,5.358000278E0
3.026835764E1,-3.529050112E0,4.738050461E0,4.663050175E0
3.028841756E1,-2.932950258E0,3.390000105E0,4.447950363E0
3.030847737E1,-2.643000126E0,2.251049995E0,4.060050011E0
3.032853707E1,-2.310000181E0,1.312050104E0,3.483000278E0
3.034859701E1,-2.071050167E0,6.870000362E-1,2.740950108E0
3.036865681E1,-2.257050037E0,4.339500070E-1,2.122950077E0
3.038871649E1,-2.434950113E0,3.139500022E-1,1.705950022E0
3.040877656E1,-2.437050104E0,3.520500064E-1,1.410000086E0
3.042883631E1,-2.212050200E0,5.560500026E-1,1.041000009E0
3.044889625E1,-1.671000123E0,8.359500170E-1,8.280000687E-1
3.046895602E1,-9.910500646E-1,1.015050054E0,9.000000358E-1
3.048901573E1,-8.449500203E-1,1.327050090E0,1.267950058E0
3.050907566E1,-1.204050064E0,1.438950062E0,1.678050041E0
3.052913543E1,-1.651950121E0,1.497000098E0,1.620000124E0
3.054919511E1,-1.747050047E0,1.867950082E0,1.453050017E0
3.056925501E1,-1.366950035E0,2.442000151E0,1.560000062E0
3.058931479E1,-1.173000097E0,3.189000130E0,2.379000187E0
3.060937448E1,-1.561050057E0,4.021950245E0,3.375000238E0
3.062943439E1,-1.408050060E0,4.104000092E0,3.861000299E0
3.064949416E1,-8.760000467E-1,3.606000185E0,4.201050282E0
3.066955385E1,-1.944000125E0,4.836000443E0,3.967050076E0
3.068961374E1,-1.189950109E0,5.160000324E0,3.916050196E0
3.070967352E1,5.209500194E-1,5.155050278E0,4.717950344E0
3.072973344E1,1.423950076E0,4.908000469E0,6.058950424E0
3.074979322E1,1.378050089E0,3.702000141E0,6.418050289E0
3.076985291E1,1.530000120E-1,2.892000198E0,5.239950180E0
3.078991283E1,-1.126950026E0,2.764950037E0,3.454050064E0
3.080997259E1,-1.588950038E0,2.844000101E0,1.807050109E0
3.083003226E1,-1.549050093E0,3.064950228E0,7.680000067E-1
3.085009218E1,-1.300050020E0,3.199050188E0,5.719500184E-1
3.087015196E1,-1.258950114E0,3.036000252E0,1.434000015E0
3.089021188E1,-1.506000042E0,2.694000244E0,2.335950136E0
3.091027157E1,-1.894050121E0,2.422950029E0,2.497050047E0
3.093033133E1,-2.137950182E0,2.509050131E0,2.233050108E0
3.095039125E1,-1.921950102E0,2.764950037E0,1.833000064E0
3.097045102E1,-1.422000051E0,2.952000141E0,1.587000132E0
3.099051094E1,-8.400000334E-1,2.974050045E0,1.611000061E0
3.101057064E1,-4.860000312E-1,2.832000017E0,1.828950047E0
3.103063041E1,-6.150000095E-1,2.746050119E0,2.025000095E0
3.105069036E1,-8.500500321E-1,2.631000042E0,2.046000004E0
3.107075014E1,-1.032000065E0,2.533050060E0,1.864050031E0
3.109080981E1,-1.177950025E0,2.554950237E0,1.716000080E0
3.111086975E1,-1.329000115E0,2.611950159E0,1.708950043E0
3.113092952E1,-1.489050031E0,2.605050087E0,1.705950022E0
3.115098921E1,-1.573050022E0,2.629050016E0,1.587000132E0
3.117104921E1,-1.554000020E0,2.737050056E0,1.405050039E0
3.119110890E1,-1.441050053E0,2.671950102E0,1.318950057E0
3.121116882E1,-1.288050056E0,2.581050158E0,1.363950014E0
3.123122860E1,-1.141950011E0,2.344050169E0,1.503000021E0
3.125128852E1,-1.150950074E0,2.109000206E0,1.591950059E0
3.127134830E1,-1.257000089E0,1.899000049E0,1.534050107E0
3.129140798E1,-1.447950125E0,1.935000062E0,1.434000015E0
3.131146792E1,-1.518000126E0,2.107050180E0,1.534050107E0
3.133152769E1,-1.266000032E0,2.086050034E0,1.855050087E0
3.135158761E1,-7.510500550E-1,1.939050078E0,2.281050205E0
3.137164736E1,-7.279500365E-1,2.217000008E0,2.722050190E0
3.139170728E1,-1.645050049E0,3.603000164E0,3.294000149E0
3.141176699E1,-1.855050087E0,4.750050068E0,4.455000401E0
3.143182673E1,-7.540500164E-1,4.486950397E0,5.254950047E0
3.145188666E1,-2.850000262E-1,4.128000259E0,5.271000385E0
3.147194643E1,-1.482000113E0,4.495950222E0,4.519950390E0
3.149200636E1,-1.695000052E0,3.790050268E0,3.793950081E0
3.151206607E1,-1.324050069E0,3.400050163E0,3.937950134E0
3.153212607E1,-7.350000143E-1,3.081000090E0,4.821000099E0
3.155218576E1,-1.111050010E0,2.980950117E0,4.948050022E0
3.157224553E1,-2.037000179E0,3.040950060E0,4.014000416E0
3.159230547E1,-2.647950172E0,3.139050245E0,2.905950069E0
3.161236524E1,-2.868000031E0,3.181950092E0,2.061000109E0
3.163242514E1,-2.896950245E0,3.217950106E0,1.702050090E0
3.165248491E1,-2.869950056E0,3.192000151E0,1.857000113E0
3.167254483E1,-2.539950132E0,2.743950129E0,2.251950026E0
3.169260452E1,-2.230950117E0,2.227050066E0,2.572950125E0
3.171266430E1,-2.242950201E0,2.176050186E0,2.839050055E0
3.173272421E1,-2.224050045E0,2.260050058E0,3.022950172E0
3.175278398E1,-2.110949993E0,2.320050001E0,3.001950026E0
3.177284390E1,-1.939050078E0,2.365950108E0,2.793000221E0
3.179290367E1,-1.858050108E0,2.394000053E0,2.563950062E0
3.181296336E1,-1.936950088E0,2.410950184E0,2.413050175E0
3.183302329E1,-2.166000128E0,2.449050188E0,2.347950220E0
3.185308308E1,-2.419950008E0,2.545050144E0,2.317050219E0
3.187314307E1,-2.515950203E0,2.572050095E0,2.382000208E0
3.189320278E1,-2.326950073E0,2.494950056E0,2.572950125E0
3.191326268E1,-2.073000193E0,2.409000158E0,2.719050169E0
3.193332245E1,-1.939050078E0,2.278950214E0,2.710050106E0
3.195338238E1,-1.873950124E0,2.229000092E0,2.616000175E0
3.197344215E1,-1.723950028E0,2.184000015E0,2.353049994E0
3.199350207E1,-1.692000031E0,2.200050116E0,2.011049986E0
3.201356178E1,-1.615950108E0,2.164950132E0,1.663050056E0
3.203362177E1,-1.501050115E0,2.076000214E0,1.347000122E0
3.205368153E1,-1.507950068E0,1.936950088E0,1.231950045E0
3.207374122E1,-1.716000080E0,1.837050080E0,1.287000060E0
3.209380114E1,-1.948950052E0,1.807950139E0,1.498050094E0
3.211386114E1,-1.992000103E0,1.786050081E0,1.939050078E0
3.213392082E1,-1.783050060E0,1.900950074E0,2.359950066E0
3.215398058E1,-1.783050060E0,2.149950027E0,2.788950205E0
3.217404048E1,-2.494050026E0,3.165000200E0,3.310950041E0
3.219410026E1,-2.374950171E0,4.249950409E0,4.072050095E0
3.221416017E1,-4.830000103E-1,4.099050045E0,4.672950268E0
3.223421994E1,6.599999964E-2,3.295050144E0,4.656000137E0
3.225427988E1,-2.025000095E0,3.631950140E0,4.438050270E0
3.227433966E1,-2.812950134E0,3.613050222E0,5.104050159E0
3.229439959E1,-2.140050173E0,3.220050097E0,6.279000282E0
3.231445929E1,-1.024049997E0,2.658000231E0,6.610050201E0
3.233451928E1,-5.380499959E-1,2.442000151E0,6.445050240E0
3.235457904E1,-6.799500585E-1,2.311050177E0,5.868000507E0
3.237463898E1,-1.185000062E0,2.193000078E0,4.732950211E0
3.239469876E1,-1.714050055E0,2.281949997E0,3.325050116E0
3.241475845E1,-2.064000130E0,2.473050117E0,2.101950169E0
3.243481845E1,-2.265000105E0,2.683950186E0,1.393050075E0
3.245487837E1,-2.274000168E0,2.860950232E0,1.326000094E0
3.247493806E1,-2.298000097E0,3.046050072E0,1.491000056E0
3.249499784E1,-2.113950014E0,2.974050045E0,1.771050096E0
3.251505776E1,-1.767000079E0,2.686050177E0,2.013000011E0
3.253511751E1,-1.479000092E0,2.442000151E0,2.014950037E0
3.255517744E1,-1.309050083E0,2.272050142E0,2.113049984E0
3.257523721E1,-1.204050064E0,2.124000072E0,2.359950066E0
3.259529711E1,-1.257000089E0,2.160000086E0,2.724000216E0
3.261535687E1,-1.213950038E0,2.071050167E0,2.932050228E0
3.263541656E1,-1.105949998E0,1.978050113E0,2.667000055E0
3.265547657E1,-1.240050077E0,2.044950008E0,2.176050186E0
3.267553649E1,-1.474950075E0,2.128950119E0,1.705950022E0
3.269559626E1,-1.728000045E0,2.121000051E0,1.366050124E0
3.271565619E1,-1.837950110E0,1.972950101E0,1.053000093E0
3.273571589E1,-1.864950061E0,1.896000147E0,8.569500446E-1
3.275577590E1,-1.836000085E0,1.846050143E0,8.760000467E-1
3.277583567E1,-1.819050074E0,1.906050086E0,1.048050046E0
3.279589535E1,-1.815000057E0,1.894050121E0,1.249050021E0
3.281595528E1,-1.819050074E0,1.903950095E0,1.423950076E0
3.283601505E1,-1.651950121E0,1.932000041E0,1.738050103E0
3.285607498E1,-1.297050118E0,1.840950131E0,2.350050211E0
3.287613473E1,-1.329000115E0,2.062050104E0,3.112050056E0
3.289619466E1,-2.011049986E0,2.991000175E0,3.727050066E0
3.291625444E1,-2.197950125E0,3.967050076E0,4.414050102E0
3.293631435E1,-1.221000075E0,3.879000187E0,4.998000145E0
3.295637411E1,-5.479500294E-1,3.651000261E0,5.680950165E0
3.297643402E1,-1.081950068E0,3.747000217E0,6.331950188E0
3.299649380E1,-1.726050138E0,3.963000298E0,6.354000092E0
3.301655372E1,-1.264050007E0,3.940950155E0,5.619000435E0
3.303661349E1,-8.899500370E-1,4.129950047E0,4.792950153E0
3.305667342E1,-1.230000019E0,4.228050232E0,4.471950054E0
3.307673317E1,-1.882050037E0,4.120950222E0,4.323000431E0
3.309679309E1,-2.358000040E0,4.054049969E0,3.670050144E0
3.311685288E1,-2.041949987E0,3.781050205E0,2.539950132E0
3.313691279E1,-1.483950019E0,3.532050133E0,1.620000124E0
3.315697256E1,-1.021950006E0,3.261000156E0,1.156050086E0
3.317703249E1,-6.370500326E-1,2.866050243E0,1.158000112E0
3.319709226E1,-7.920000553E-1,2.623950243E0,1.474050045E0
3.321715218E1,-1.017000079E0,2.370000124E0,1.776000142E0
3.323721191E1,-1.087050080E0,2.169000149E0,1.905000091E0
3.325727183E1,-1.137000084E0,2.155050039E0,1.945950150E0
3.327733162E1,-1.132050037E0,2.217000008E0,1.903050065E0
3.329739154E1,-1.168050051E0,2.325000048E0,1.852950096E0
3.331745130E1,-1.314000010E0,2.518950224E0,1.771050096E0
3.333751121E1,-1.525050044E0,2.731950045E0,1.716000080E0
3.335757096E1,-1.776000142E0,2.995050192E0,1.836000085E0
3.337763088E1,-1.884000063E0,3.163050175E0,2.140050173E0
3.339769065E1,-1.855050087E0,3.297000170E0,2.451000214E0
3.341775059E1,-1.768950105E0,3.405000210E0,2.578050137E0
3.343781036E1,-1.573050022E0,3.334950209E0,2.575950146E0
3.345787028E1,-1.372050047E0,3.168000221E0,2.638050079E0
3.347793005E1,-1.264050007E0,2.992950201E0,2.767050028E0
3.349798995E1,-1.240050077E0,2.812950134E0,2.916000128E0
3.351804972E1,-1.276050091E0,2.614950180E0,2.901000023E0
3.353810965E1,-1.338000059E0,2.563950062E0,2.700000048E0
3.355816946E1,-1.317000031E0,2.512050152E0,2.395950079E0
3.357822940E1,-1.276050091E0,2.478000164E0,2.164050102E0
3.359828937E1,-1.329000115E0,2.434950113E0,1.954950094E0
3.361834906E1,-1.410000086E0,2.284050226E0,1.750050068E0
3.363840885E1,-1.494000077E0,2.097000122E0,1.510050058E0
3.365846884E1,-1.611000061E0,1.947000146E0,1.297050118E0
3.367852877E1,-1.624950051E0,1.846050143E0,1.077000022E0
3.369858854E1,-1.630050063E0,1.803000093E0,8.680500388E-1
3.371864846E1,-1.708950043E0,1.819950104E0,8.449500203E-1
3.373870823E1,-1.744950056E0,1.750050068E0,1.006950021E0
3.375876815E1,-1.786050081E0,1.690050125E0,1.333050013E0
3.377882792E1,-1.660950065E0,1.705050111E0,1.960050106E0
3.379888786E1,-1.680000067E0,2.212050200E0,2.851050138E0
3.381894787E1,-2.083050013E0,3.340050220E0,3.787050247E0
3.383900764E1,-2.425050020E0,4.417050362E0,4.504950047E0
3.385906733E1,-2.323950052E0,4.638000011E0,4.402050018E0
3.387912723E1,-2.602050066E0,4.954050064E0,3.493050098E0
3.389918700E1,-2.346000195E0,5.028000355E0,3.220050097E0
3.391924693E1,-9.979500771E-1,4.015050411E0,4.393050194E0
3.393930671E1,2.820000052E-1,2.542950153E0,6.399000168E0
3.395936670E1,-1.909500062E-1,2.035050154E0,7.531950474E0
3.397942663E1,-1.138950109E0,2.111999989E0,6.940050125E0
3.399948641E1,-1.458000064E0,2.180999994E0,5.338050365E0
3.401954633E1,-9.409500360E-1,2.028000116E0,3.892050266E0
3.403960605E1,-4.710000157E-1,2.196000099E0,2.664000034E0
3.405966604E1,-4.879500270E-1,2.425050020E0,1.881000042E0
3.407972580E1,-7.440000176E-1,2.323050022E0,1.618050098E0
3.409978572E1,-1.588950038E0,2.490000010E0,1.495950103E0
3.411984548E1,-2.253000021E0,2.763000250E0,1.735050082E0
3.413990516E1,-1.984950066E0,2.815950155E0,2.188050032E0
3.415996506E1,-1.230000019E0,2.866050243E0,2.619000196E0
3.418002485E1,-5.719500184E-1,2.875950098E0,3.106950045E0
3.420008477E1,-6.405000389E-2,2.713050127E0,3.358050108E0
3.422014455E1,-1.605000161E-2,2.550000191E0,3.303000212E0
3.424020454E1,-2.629500031E-1,2.353950024E0,2.875050068E0
3.426026448E1,-4.639500082E-1,2.193000078E0,2.406000137E0
3.428032424E1,-7.990500331E-1,2.197950125E0,2.166000128E0
3.430038393E1,-1.294950008E0,2.229000092E0,2.134950161E0
3.432044392E1,-1.714050055E0,2.287050009E0,1.999050140E0
3.434050384E1,-1.848000050E0,2.418000221E0,1.836000085E0
3.436056358E1,-1.573050022E0,2.457000017E0,1.953000069E0
3.438062350E1,-1.156050086E0,2.464050055E0,2.331000090E0
3.440068327E1,-1.003050089E0,2.397000074E0,2.656950235E0
3.442074319E1,-1.192050099E0,2.421000004E0,2.656950235E0
3.444080289E1,-1.491000056E0,2.506950140E0,2.398050070E0
3.446086290E1,-1.695000052E0,2.619000196E0,2.098950148E0
3.448092269E1,-1.687950134E0,2.674050093E0,1.888050079E0
3.450098260E1,-1.503000021E0,2.599950075E0,1.785000086E0
3.452104237E1,-1.294950008E0,2.476050138E0,1.831050038E0
3.454110230E1,-1.266000032E0,2.302950144E0,1.942950130E0
3.456116209E1,-1.339950085E0,1.999050140E0,1.857000113E0
3.458122199E1,-1.387950063E0,1.734000087E0,1.635000110E0
3.460128177E1,-1.378950119E0,1.561050057E0,1.480950117E0
3.462134168E1,-1.453050017E0,1.504050016E0,1.524000049E0
3.464140168E1,-1.506000042E0,1.590000033E0,1.807050109E0
3.466146136E1,-1.474950075E0,1.609050035E0,2.212050200E0
3.468152137E1,-1.506000042E0,1.738050103E0,2.688000202E0
3.470158114E1,-1.953000069E0,2.362950087E0,3.121050119E0
3.472164108E1,-2.272050142E0,3.430950165E0,3.567000151E0
3.474170085E1,-1.599000096E0,3.831000090E0,4.101000309E0
3.476176077E1,-1.170000061E-1,3.268050194E0,5.236050129E0
3.478182054E1,2.430000156E-1,2.883000135E0,6.813000202E0
3.480188046E1,-7.680000067E-1,3.442950249E0,7.426050186E0
3.482194022E1,-7.780500650E-1,3.313950062E0,6.469050407E0
3.484200015E1,-2.820000052E-1,3.010050058E0,4.848000050E0
3.486205993E1,-5.290500522E-1,3.168000221E0,3.742050171E0
3.488211986E1,-1.036050081E0,3.141000032E0,2.917950153E0
3.490217963E1,-1.873950124E0,3.241950035E0,2.238000154E0
3.492223965E1,-2.571000099E0,3.280050039E0,1.825950146E0
3.494229959E1,-2.842050076E0,3.072000027E0,1.732950091E0
3.496235929E1,-2.989950180E0,2.914050102E0,1.872000098E0
3.498241929E1,-2.812950134E0,2.605050087E0,2.335950136E0
3.500247905E1,-2.605050087E0,2.167050123E0,2.977950096E0
3.502253873E1,-2.700000048E0,1.872000098E0,3.366000175E0
3.504259864E1,-2.952000141E0,1.803000093E0,3.685950279E0
3.506265862E1,-2.935050249E0,1.731000066E0,3.985950232E0
3.508271839E1,-2.686050177E0,1.698000073E0,4.326000214E0
3.510277832E1,-2.514000177E0,1.747950077E0,4.483950138E0
3.512283809E1,-2.515950203E0,1.816950083E0,4.243950367E0
3.514289801E1,-2.638050079E0,1.975050092E0,3.696000099E0
3.516295777E1,-2.763000250E0,2.241000175E0,3.181050062E0
3.518301768E1,-2.643000126E0,2.406000137E0,2.920050144E0
3.520307743E1,-2.394000053E0,2.515950203E0,3.057000160E0
3.522313734E1,-1.981950045E0,2.524050236E0,3.337050200E0
3.524319709E1,-1.642050028E0,2.482950211E0,3.409050226E0
3.526325700E1,-1.381050110E0,2.440050125E0,3.190950155E0
3.528331677E1,-1.282950044E0,2.413950205E0,2.938950062E0
3.530337670E1,-1.309050083E0,2.362950087E0,2.872050047E0
3.532343647E1,-1.282950044E0,2.278950214E0,2.923050165E0
3.534349641E1,-1.206000090E0,2.220000029E0,2.961000204E0
3.536355618E1,-1.174950004E0,2.245950222E0,2.841000080E0
3.538361619E1,-1.233000040E0,2.329950094E0,2.602050066E0
3.540367612E1,-1.273050070E0,2.442000151E0,2.299950123E0
3.542373580E1,-1.246950030E0,2.493000031E0,2.073000193E0
3.544379559E1,-1.242000103E0,2.445000172E0,1.957950115E0
3.546385558E1,-1.357050061E0,2.287050009E0,1.884000063E0
3.548391552E1,-1.566000104E0,1.996950150E0,1.726050138E0
3.550397529E1,-1.812000036E0,1.639950037E0,1.479000092E0
3.552403520E1,-1.956000090E0,1.345950007E0,1.243950009E0
3.554409497E1,-2.061000109E0,1.201950073E0,1.029000044E0
3.556415491E1,-2.194950104E0,1.180050015E0,9.360000491E-1
3.558421468E1,-2.206950188E0,1.216050029E0,1.012050033E0
3.560427460E1,-2.020050049E0,1.294950008E0,1.456950068E0
3.562433439E1,-2.212050200E0,1.795950055E0,2.070000172E0
3.564439440E1,-3.097950220E0,3.052950144E0,2.824950218E0
3.566445432E1,-3.382950068E0,4.377000332E0,3.646050215E0
3.568451403E1,-2.559000015E0,4.852950096E0,3.789000273E0
3.570457403E1,-2.137950182E0,5.442000389E0,3.646050215E0
3.572463380E1,-1.254000068E0,4.683000088E0,3.979050159E0
3.574469349E1,-4.470000267E-1,2.932950258E0,5.662050247E0
3.576475348E1,1.210500076E-1,1.200000048E0,7.531950474E0
3.578481341E1,-7.395000011E-2,1.080000043E0,7.644000530E0
3.580487318E1,-2.580000162E-1,1.609050035E0,6.277050495E0
3.582493311E1,-6.319500208E-1,2.278950214E0,4.918950081E0
3.584499288E1,-7.800000310E-1,2.445000172E0,3.562050104E0
3.586505281E1,-1.033950090E0,2.503950119E0,2.359950066E0
3.588511258E1,-1.465050101E0,2.524050236E0,1.876050115E0
3.590517258E1,-1.858050108E0,2.631000042E0,1.942950130E0
3.592523227E1,-2.025000095E0,2.752950191E0,2.281050205E0
3.594529225E1,-2.344050169E0,2.800950050E0,2.386050224E0
3.596535216E1,-2.502000093E0,2.715000153E0,2.282999992E0
3.598541184E1,-1.927050114E0,2.329950094E0,2.335950136E0
3.600547159E1,-1.147050023E0,1.999050140E0,2.680950165E0
3.602553160E1,-4.230000079E-1,1.803000093E0,3.291000128E0
3.604559152E1,-8.100000024E-2,1.707000136E0,3.787050247E0
3.606565129E1,-1.630500108E-1,1.719000101E0,3.700950146E0
3.608571121E1,-5.860500336E-1,1.771950126E0,3.037950039E0
3.610577097E1,-9.000000358E-1,1.915950060E0,2.236050129E0
3.612583089E1,-1.077000022E0,2.111999989E0,1.819050074E0
3.614589064E1,-1.161000013E0,2.341950178E0,1.785000086E0
3.616595058E1,-1.123050094E0,2.454000235E0,1.990950108E0
3.618601035E1,-1.081950068E0,2.503950119E0,2.346000195E0
3.620607027E1,-1.072050095E0,2.490000010E0,2.619000196E0
3.622613026E1,-1.144050002E0,2.502000093E0,2.671050072E0
3.624618995E1,-1.245000005E0,2.550000191E0,2.563950062E0
3.626624973E1,-1.230000019E0,2.539950132E0,2.415000200E0
3.628630967E1,-1.084050059E0,2.493000031E0,2.263950109E0
3.630636967E1,-1.057950020E0,2.418000221E0,2.116050005E0
3.632642938E1,-1.180050015E0,2.269950151E0,1.999050140E0
3.634648915E1,-1.204050064E0,2.053950071E0,1.848000050E0
3.636654914E1,-1.204050064E0,1.888950109E0,1.720950127E0
3.638660906E1,-1.417050123E0,1.828950047E0,1.639050126E0
3.640666883E1,-1.558050036E0,1.747950077E0,1.600950122E0
3.642672876E1,-1.707000136E0,1.695000052E0,1.747050047E0
3.644678853E1,-1.933950067E0,1.722000122E0,2.164050102E0
3.646684846E1,-1.932000041E0,1.591950059E0,2.803050041E0
3.648690824E1,-2.029950142E0,1.516050100E0,3.399000168E0
3.650696815E1,-2.868000031E0,2.077950001E0,3.895050287E0
3.652702792E1,-3.124050140E0,2.404050112E0,4.563000202E0
3.654708786E1,-2.212050200E0,1.947000146E0,4.849950314E0
3.656714763E1,-3.121950150E0,3.642000198E0,4.930950165E0
3.658720754E1,-2.005950212E0,3.274950266E0,5.329050064E0
3.660726730E1,-2.100000083E-1,1.674000025E0,6.220050335E0
3.662732723E1,-2.869500220E-1,1.486950040E0,6.919050217E0
3.664738723E1,-9.360000491E-1,1.543950081E0,6.526050091E0
3.666744699E1,-1.804950118E0,1.884000063E0,5.017950058E0
3.668750691E1,-2.748000145E0,2.595000029E0,3.325050116E0
3.670756669E1,-3.004050255E0,3.004950047E0,2.104050159E0
3.672762663E1,-2.698050022E0,3.109950066E0,2.014950037E0
3.674768638E1,-2.245050192E0,3.204000235E0,2.820000172E0
3.676774629E1,-1.434000015E0,2.743950129E0,3.664950132E0
3.678780608E1,-1.033950090E0,2.152950048E0,3.931050301E0
3.680786599E1,-9.210000634E-1,1.759950042E0,4.060050011E0
3.682792578E1,-8.830500245E-1,1.626000047E0,4.273050308E0
3.684798572E1,-8.929500580E-1,1.615950108E0,4.198950291E0
3.686804548E1,-9.259500504E-1,1.567950130E0,3.631050110E0
3.688810540E1,-1.153950095E0,1.537050128E0,2.848050117E0
3.690816518E1,-1.501050115E0,1.633050084E0,2.257050037E0
3.692822510E1,-1.768950105E0,1.777050138E0,2.020050049E0
3.694828511E1,-1.791000128E0,1.831950068E0,2.142000198E0
3.696834488E1,-1.636950135E0,1.843950033E0,2.386050224E0
3.698840481E1,-1.618050098E0,1.972950101E0,2.841000080E0
3.700846459E1,-1.618050098E0,2.071050167E0,3.196050167E0
3.702852451E1,-1.663950086E0,2.128950119E0,3.286950111E0
3.704858426E1,-1.636950135E0,2.176050186E0,3.244050264E0
3.706864420E1,-1.471950054E0,2.215050220E0,3.271950245E0
3.708870399E1,-1.249050021E0,2.257950068E0,3.516000271E0
3.710876389E1,-9.190500379E-1,2.244000196E0,3.835050106E0
3.712882367E1,-5.550000072E-1,2.137950182E0,4.024050236E0
3.714888357E1,-2.770500183E-1,2.077950001E0,4.029000282E0
3.716894333E1,-1.240500063E-1,2.050050020E0,3.813000202E0
3.718900324E1,-1.939500123E-1,2.164950132E0,3.411000252E0
3.720906301E1,-2.340000123E-1,2.248050213E0,3.136050224E0
3.722912293E1,-2.749500275E-1,2.362950087E0,3.121050119E0
3.724918270E1,-2.820000052E-1,2.494950056E0,3.174000263E0
3.726924270E1,-1.630500108E-1,2.590950012E0,3.114000082E0
3.728930238E1,5.400000140E-2,2.539950132E0,2.899050236E0
3.730936238E1,1.260000020E-1,2.506950140E0,2.743050098E0
3.732942230E1,2.805000171E-2,2.515950203E0,2.695050240E0
3.734948207E1,-2.389500141E-1,2.617050171E0,2.626050234E0
3.736954199E1,-3.280500174E-1,2.671950102E0,2.523000002E0
3.738960176E1,-3.109500110E-1,2.650950193E0,2.440950155E0
3.740966168E1,-4.330500066E-1,2.719950199E0,2.425050020E0
3.742972143E1,-6.870000362E-1,2.647950172E0,2.515950203E0
3.744978134E1,-9.550500512E-1,2.466000080E0,2.524950027E0
3.746984114E1,-1.189950109E0,2.311050177E0,2.470050097E0
3.748990106E1,-1.281000018E0,2.121000051E0,2.335950136E0
3.750996084E1,-1.168050051E0,1.908000112E0,2.046000004E0
3.753002078E1,-1.032000065E0,1.540050030E0,1.765950084E0
3.755008055E1,-1.386000037E0,1.312050104E0,1.591950059E0
3.757014054E1,-2.101950169E0,1.336050034E0,1.435950041E0
3.759020047E1,-2.551950216E0,1.341000080E0,1.129050016E0
3.761026023E1,-2.386950016E0,1.180050015E0,7.729500532E-1
3.763031992E1,-2.065950155E0,1.240050077E0,7.219500542E-1
3.765037984E1,-1.702050090E0,1.294950008E0,1.231950045E0
3.767043984E1,-1.168050051E0,8.070000410E-1,2.130000114E0
3.769049962E1,-9.310500622E-1,5.560500026E-1,3.562050104E0
3.771055954E1,-7.510500550E-1,2.920500040E-1,4.666050434E0
3.773061932E1,-2.695950031E0,2.109000206E0,3.922950268E0
3.775067925E1,-2.935050249E0,4.506000042E0,3.220050097E0
3.777073901E1,-4.980000257E-1,3.237000227E0,3.634050131E0
3.779079892E1,-1.033950090E0,2.718000174E0,3.943050146E0
3.781085869E1,-2.236050129E0,-1.500000060E-1,1.042605019E1
3.783091862E1,-4.254000187E0,-9.520500302E-1,1.081395054E1
3.785097860E1,-3.631950140E0,-2.020500153E-1,6.801000118E0
3.787103838E1,-2.308050156E0,8.620500565E-1,5.652000427E0
3.789109808E1,-2.563950062E0,2.161950111E0,7.714050293E0
3.791115799E1,-3.246000051E0,2.607000113E0,6.339000225E0
3.793121798E1,-2.728950024E0,1.543950081E0,4.534049988E0
3.795127776E1,-2.509050131E0,1.042050004E0,3.391950130E0
3.797133768E1,-2.608950138E0,1.159050107E0,2.848050117E0
3.799139745E1,-2.758050203E0,1.255050063E0,2.688000202E0
3.801145736E1,-2.727000237E0,1.318950057E0,2.200050116E0
3.803151714E1,-2.061000109E0,1.297950029E0,1.093950033E0
3.805157705E1,-1.837950110E0,1.425000072E0,1.207950115E0
3.807163685E1,-1.948950052E0,1.413000107E0,1.849950075E0
3.809169677E1,-2.430000067E0,1.614000082E0,2.362050056E0
3.811175655E1,-2.418000221E0,1.540050030E0,2.322000027E0
3.813181647E1,-2.605050087E0,1.954050064E0,2.110949993E0
3.815187625E1,-2.868000031E0,2.598000050E0,2.122950077E0
3.817193625E1,-2.676000118E0,3.139050245E0,2.001000166E0
3.819199595E1,-2.155050039E0,3.232050180E0,2.182950020E0
3.821205594E1,-1.695000052E0,2.878050089E0,2.563950062E0
3.823211587E1,-1.750050068E0,2.658000231E0,2.923050165E0
3.825217566E1,-1.953000069E0,2.578950167E0,2.932050228E0
3.827223556E1,-2.005950212E0,2.428050041E0,2.736000061E0
3.829229533E1,-2.269050121E0,2.695950031E0,2.560950041E0
3.831235526E1,-2.037000179E0,2.875950098E0,2.851050138E0
3.833241504E1,-1.326000094E0,2.794050217E0,3.090000153E0
3.835247496E1,-1.102950096E0,2.731950045E0,3.138000250E0
3.837253473E1,-1.170000076E0,2.562000036E0,2.800950050E0
3.839259465E1,-1.090950012E0,2.373000145E0,2.343000174E0
3.841265442E1,-1.090950012E0,2.377950191E0,1.993950129E0
3.843271432E1,-1.126950026E0,2.539950132E0,1.963050127E0
3.845277432E1,-9.810000658E-1,2.335050106E0,1.984050035E0
3.847283409E1,-1.135050058E0,2.023050070E0,1.945950150E0
3.849289378E1,-1.429050088E0,1.777050138E0,1.704000115E0
3.851295371E1,-1.599000096E0,1.555950046E0,1.165050030E0
3.853301371E1,-1.708950043E0,1.378950119E0,7.890000343E-1
3.855307350E1,-1.648950100E0,1.149000049E0,7.080000043E-1
3.857313340E1,-1.639950037E0,1.236000061E0,1.050000072E0
3.859319317E1,-1.446000099E0,1.168950081E0,1.531950116E0
3.861325309E1,-1.162950039E0,1.188000083E0,2.002950191E0
3.863331278E1,-1.399950027E0,1.579950094E0,2.587950230E0
3.865337276E1,-3.213000059E0,2.931000233E0,3.235950232E0
3.867343252E1,-5.893950462E0,5.421000481E0,3.223950148E0
3.869349245E1,-3.973950148E0,4.312050343E0,5.262000084E0
3.871355222E1,-1.138950109E0,1.935000062E0,7.246950150E0
3.873361220E1,-2.053950071E0,1.822050095E0,9.124050140E0
3.875367192E1,-3.840000153E0,2.809050083E0,7.981950283E0
3.877373191E1,-3.655950069E0,3.067050219E0,5.427000046E0
3.879379161E1,-2.821950197E0,3.334950209E0,4.005000114E0
3.881385153E1,-1.944000125E0,2.967000246E0,4.872000217E0
3.883391128E1,-1.633050084E0,2.208000183E0,6.142950058E0
3.885397129E1,-2.049000025E0,1.876950145E0,6.138000488E0
3.887403120E1,-2.212050200E0,1.567950130E0,5.286000252E0
3.889409098E1,-1.743000031E0,1.410000086E0,4.162950039E0
3.891415093E1,-1.441050053E0,1.663950086E0,2.929950237E0
3.893421070E1,-1.398000121E0,1.822050095E0,2.440950155E0
3.895427063E1,-1.738050103E0,1.609050035E0,2.748000145E0
3.897433038E1,-2.326950073E0,1.354950070E0,2.896050215E0
3.899439031E1,-2.935050249E0,1.327050090E0,2.556000233E0
3.901445008E1,-3.658050060E0,1.780950069E0,2.266950130E0
3.903450998E1,-3.859050274E0,2.056950092E0,2.158950090E0
3.905456976E1,-3.505050182E0,2.020950079E0,2.271000147E0
3.907462969E1,-3.081000090E0,2.032950163E0,2.443950176E0
3.909468947E1,-2.901000023E0,2.121000051E0,2.667000055E0
3.911474938E1,-2.715000153E0,2.208000183E0,2.932050228E0
3.913480938E1,-2.467950106E0,2.281949997E0,3.241050243E0
3.915486907E1,-2.068050146E0,2.361000061E0,3.435000181E0
3.917492906E1,-1.599000096E0,2.326950073E0,3.373050213E0
3.919498883E1,-1.300050020E0,2.196000099E0,3.256050110E0
3.921504875E1,-1.411950111E0,2.137950182E0,3.346050262E0
3.923510851E1,-2.028000116E0,2.191050053E0,3.454050064E0
3.925516844E1,-2.929950237E0,2.602950096E0,3.457050085E0
3.927522822E1,-3.598050117E0,3.024000168E0,3.526050091E0
3.929528815E1,-3.718050241E0,2.971050024E0,3.382050276E0
3.931534792E1,-3.433050156E0,2.410950184E0,2.977950096E0
3.933540785E1,-2.980950117E0,1.795950055E0,2.607000113E0
3.935546763E1,-2.619000196E0,1.414950013E0,2.250000000E0
3.937552754E1,-2.104050159E0,1.132950068E0,1.861950040E0
3.939558730E1,-1.326000094E0,8.599500656E-1,1.551000118E0
3.941564722E1,-9.409500360E-1,8.410500288E-1,1.522050023E0
3.943570722E1,-8.089500666E-1,8.790000677E-1,1.627050042E0
3.945576693E1,-6.700500250E-1,7.999500632E-1,1.543950081E0
3.947582693E1,-6.610500216E-1,7.729500532E-1,1.426050067E0
3.949588662E1,-9.120000601E-1,7.380000353E-1,1.375950098E0
3.951594664E1,-1.221000075E0,7.849500179E-1,1.588950038E0
3.953600641E1,-1.471950054E0,1.021950006E0,2.488950014E0
3.955606632E1,-1.513050079E0,1.369950056E0,3.805950165E0
3.957612609E1,-1.518000126E0,1.579950094E0,4.761000156E0
3.959618599E1,-4.108050346E0,3.715950251E0,3.274950266E0
3.961624576E1,-4.132050037E0,4.027050018E0,3.739050150E0
3.963630568E1,-1.825950146E0,2.815950155E0,2.607000113E0
3.965636544E1,-1.984950066E0,3.886050224E0,4.467000008E0
3.967642536E1,-1.465050101E0,3.108000040E0,7.515000343E0
3.969648516E1,-2.049000025E0,2.749050140E0,7.809000492E0
3.971654509E1,-2.572950125E0,2.320050001E0,5.796000481E0
3.973660509E1,-2.497050047E0,1.501050115E0,4.903050423E0
3.975666479E1,-2.953950167E0,2.035050154E0,6.391950130E0
3.977672453E1,-2.964000225E0,2.380050182E0,7.089000225E0
3.979678445E1,-2.056050062E0,2.097000122E0,5.986950397E0
3.981684422E1,-1.096050024E0,1.180050015E0,4.800000191E0
3.983690420E1,-1.194000006E0,1.240050077E0,4.500000000E0
3.985696414E1,-1.939050078E0,1.647000074E0,3.792000294E0
3.987702391E1,-1.716000080E0,1.021950006E0,2.578050137E0
3.989708383E1,-1.566000104E0,5.800500512E-1,1.996050119E0
3.991714362E1,-1.588950038E0,8.089500666E-1,1.374000072E0
3.993720354E1,-1.779000044E0,1.384050012E0,1.045950055E0
3.995726332E1,-1.803000093E0,1.702050090E0,1.098000050E0
3.997732324E1,-1.633050084E0,1.734000087E0,1.480950117E0
3.999738303E1,-1.612950087E0,1.900950074E0,1.942950130E0
4.001744294E1,-1.387950063E0,1.899000049E0,2.407950163E0
4.003750293E1,-1.177950025E0,1.948950052E0,2.443950176E0
4.005756270E1,-1.402950048E0,2.172000170E0,2.209050179E0
4.007762261E1,-1.419000030E0,2.236050129E0,2.116050005E0
4.009768240E1,-1.174950004E0,2.050050020E0,2.383949995E0
4.011774210E1,-1.099050045E0,1.891950130E0,2.698050022E0
4.013780210E1,-1.114950061E0,1.723950028E0,2.607000113E0
4.015786201E1,-1.348050117E0,1.714050055E0,2.122950077E0
4.017792178E1,-1.539000034E0,1.774050117E0,1.594050050E0
4.019798170E1,-1.531950116E0,1.759950042E0,1.264050007E0
4.021804147E1,-1.549050093E0,1.743000031E0,1.342950106E0
4.023810139E1,-1.582050085E0,1.662000060E0,1.732950091E0
4.025816116E1,-1.551000118E0,1.522950053E0,2.281050205E0
4.027822108E1,-1.443000078E0,1.414950013E0,2.704950094E0
4.029828087E1,-1.285050035E0,1.366950035E0,3.081000090E0
4.031834085E1,-1.213950038E0,1.438950062E0,3.859050274E0
4.033840056E1,-9.240000248E-1,1.573050022E0,4.873950005E0
4.035846054E1,-2.821950197E0,3.213000059E0,4.174950123E0
4.037852048E1,-4.431000233E0,5.334000111E0,4.144050121E0
4.039858028E1,-1.903050065E0,3.738000154E0,4.885950089E0
4.041864020E1,-1.000050068E0,3.232050180E0,7.303950310E0
4.043869997E1,-1.642050028E0,3.168000221E0,7.648950577E0
4.045875989E1,-2.667000055E0,3.733050108E0,6.064050198E0
4.047881969E1,-2.310000181E0,4.153950214E0,4.005000114E0
4.049887969E1,-1.374000072E0,4.081950188E0,2.928000212E0
4.051893936E1,-8.640000224E-1,3.442950249E0,3.598050117E0
4.053899930E1,-9.960000515E-1,2.551950216E0,4.636950016E0
4.055905930E1,-1.660950065E0,2.119050026E0,4.555950165E0
4.057911897E1,-1.980000138E0,1.924950123E0,3.640950203E0
4.059917874E1,-1.944000125E0,2.026050091E0,2.406000137E0
4.061923872E1,-2.202000141E0,2.325000048E0,1.467000127E0
4.063929865E1,-2.607000113E0,2.016000032E0,1.675050020E0
4.065935840E1,-2.763000250E0,1.602000117E0,1.753950119E0
4.067941833E1,-3.009000063E0,1.735950112E0,1.744950056E0
4.069947809E1,-2.527950048E0,1.576050043E0,2.341050148E0
4.071953800E1,-2.326950073E0,1.425000072E0,3.090000153E0
4.073959801E1,-2.820000172E0,1.315050006E0,2.913000107E0
4.075965772E1,-4.052999973E0,1.947000146E0,2.604000092E0
4.077971771E1,-4.989000320E0,2.743950129E0,1.804950118E0
4.079977739E1,-5.334000111E0,3.181950092E0,1.267950058E0
4.081983716E1,-4.075050354E0,2.232000113E0,1.903050065E0
4.083989708E1,-3.510000229E0,1.645050049E0,3.514050245E0
4.085995708E1,-3.876000166E0,1.510950089E0,4.840050220E0
4.088001685E1,-3.829950094E0,1.341000080E0,4.639050007E0
4.090007679E1,-3.493050098E0,1.519950032E0,3.516000271E0
4.092013656E1,-3.181950092E0,1.803000093E0,2.406000137E0
4.094019648E1,-3.115050077E0,1.755000114E0,2.178000212E0
4.096025625E1,-3.229050159E0,1.735950112E0,2.391000032E0
4.098031616E1,-2.908950090E0,1.815000057E0,2.452950001E0
4.100037592E1,-2.437050104E0,1.710000038E0,2.182950020E0
4.102043584E1,-2.515950203E0,1.702050090E0,2.053950071E0
4.104049584E1,-3.007050037E0,1.894050121E0,2.046000004E0
4.106055550E1,-3.226950169E0,1.995000124E0,2.130000114E0
4.108061526E1,-3.498000145E0,1.896000147E0,2.145000219E0
4.110067526E1,-3.850050211E0,1.968000054E0,1.792950034E0
4.112073518E1,-3.766050100E0,2.257950068E0,1.606050134E0
4.114079517E1,-3.775050163E0,2.422950029E0,1.693950057E0
4.116085496E1,-4.099050045E0,2.368050098E0,1.591950059E0
4.118091486E1,-4.384050369E0,2.526000023E0,1.362000108E0
4.120097464E1,-4.431000233E0,2.848950148E0,1.659000039E0
4.122103456E1,-4.855050087E0,3.037950039E0,2.619000196E0
4.124109433E1,-5.080050468E0,3.286950111E0,2.938950062E0
4.126115425E1,-4.675950050E0,3.322950125E0,2.137050152E0
4.128121402E1,-4.671000004E0,3.685050249E0,2.154000044E0
4.130127396E1,-5.121000290E0,4.565999985E0,3.370050192E0
4.132133397E1,-5.347950459E0,3.328050137E0,4.563000202E0
4.134139376E1,-5.533050060E0,2.074050188E0,5.737950325E0
4.136145368E1,-5.097000122E0,2.076000214E0,5.659050465E0
4.138151346E1,-4.489050388E0,2.971050024E0,4.480950356E0
4.140157339E1,-4.348050117E0,3.546000242E0,2.740950108E0
4.142163309E1,-4.270950317E0,3.180000067E0,1.168050051E0
4.144169308E1,-4.204050064E0,2.706000090E0,8.449500203E-1
4.146175286E1,-4.012050152E0,2.587950230E0,1.410000086E0
4.148181278E1,-3.886050224E0,2.871000051E0,2.188050032E0
4.150187256E1,-4.141950130E0,2.812950134E0,2.355000019E0
4.152193247E1,-4.687950134E0,2.449050188E0,2.323950052E0
4.154199224E1,-4.876950264E0,2.236050129E0,2.655000210E0
4.156205218E1,-4.189949989E0,2.346000195E0,2.796000242E0
4.158211196E1,-4.692000389E0,3.354000092E0,8.640000224E-1
4.160217191E1,-4.555950165E0,2.821050167E0,2.848050117E0
4.162223193E1,-4.831050396E0,2.667000055E0,2.355000019E0
