"Time (s)","Acceleration x (m/s^2)","Acceleration y (m/s^2)","Acceleration z (m/s^2)"
5.243523100E-2,-2.916850805E0,4.742574692E0,7.961519241E0
7.230387600E-2,-2.552543640E0,4.392624378E0,9.373882294E0
9.216705400E-2,-2.830111027E0,4.162913322E0,9.125029564E0
1.120356990E-1,-3.486342669E0,4.363910198E0,7.472784996E0
1.318989290E-1,-3.802195072E0,4.785645485E0,6.247061729E0
1.517675220E-1,-3.615555048E0,4.828716278E0,6.299703598E0
1.716307510E-1,-3.424129248E0,4.532006264E0,6.735197544E0
1.914993970E-1,-3.218346357E0,4.292125702E0,6.774080753E0
2.113625740E-1,-2.979064226E0,4.153341770E0,6.481558323E0
2.312312200E-1,-2.993421078E0,4.124628067E0,5.816353798E0
2.510944490E-1,-3.093919754E0,4.167698860E0,5.327619553E0
2.709630950E-1,-2.902493954E0,4.115056515E0,5.145765305E0
2.908262720E-1,-3.002992392E0,4.441078663E0,5.083551884E0
3.106949180E-1,-3.749552965E0,5.316852093E0,5.557330608E0
3.305580950E-1,-3.524627686E0,5.321637630E0,6.898507595E0
3.504267410E-1,-2.509472847E0,4.272983074E0,7.716853142E0
3.702899180E-1,-1.887338877E0,3.751347780E0,7.238288403E0
3.901586160E-1,-1.978266120E0,4.387838364E0,5.825924873E0
4.100217930E-1,-2.921636343E0,5.508875847E0,5.169693470E0
4.298904390E-1,-3.299702406E0,5.733801365E0,6.170491219E0
4.497536160E-1,-2.447259426E0,4.756931305E0,7.750352383E0
4.696222620E-1,-2.590828657E0,4.177269936E0,8.368298531E0
4.894854910E-1,-4.257429600E0,4.263411522E0,8.081160545E0
5.093541370E-1,-5.449653625E0,4.613361835E0,9.163313866E0
5.292173140E-1,-4.496711731E0,3.995415688E0,1.189711380E1
5.490859600E-1,-3.787838221E0,3.262613773E0,1.342971706E1
5.689491890E-1,-4.357928276E0,3.555136204E0,1.268734360E1
5.888178350E-1,-2.691327333E0,3.023331404E0,1.333400440E1
6.086810120E-1,-2.638685226E0,2.425125837E0,1.413859081E1
6.285497100E-1,-2.562114954E0,2.702693224E0,1.358285809E1
6.484128870E-1,-2.988635540E0,2.391626120E0,1.255334568E1
6.682815330E-1,-4.319643021E0,3.238685369E0,1.081974602E1
6.881447620E-1,-3.510270834E0,3.042474031E0,9.168100357E0
7.080134080E-1,-2.026122570E0,2.951546669E0,8.248658180E0
7.279924180E-1,-1.149751306E0,2.626122952E0,7.745566845E0
7.478611680E-1,-1.398604870E0,2.209173441E0,7.066005230E0
7.676088240E-1,-2.006979942E0,2.146960020E0,6.634698868E0
7.874774180E-1,-2.423331022E0,2.079961061E0,6.716054916E0
8.073405950E-1,-2.404188633E0,2.156531334E0,6.946363926E0
8.272091370E-1,-1.685743570E0,2.046461582E0,6.553342819E0
8.470723660E-1,-4.169493318E-1,1.606182218E0,6.060421467E0
8.669410120E-1,1.190429255E-1,1.677966833E0,5.868995667E0
8.868041890E-1,4.881358147E-1,1.534397483E0,6.160920143E0
9.066727830E-1,-6.759724021E-2,1.912463546E0,7.051648140E0
9.265360120E-1,-1.776670814E-1,2.008176327E0,7.697710514E0
9.464046580E-1,-1.202393398E-1,2.161317110E0,8.162516594E0
9.662678870E-1,-1.872383654E-1,1.931606054E0,8.454441071E0
9.861365330E-1,1.286142170E-1,1.088734269E0,8.478368759E0
1.005999762E0,8.039883971E-1,8.925228715E-1,8.952746391E0
1.025868408E0,9.714859724E-1,1.974676847E0,1.057567787E1
1.045731637E0,7.465606928E-1,2.894119024E0,1.367378521E1
1.065600283E0,1.469791293E0,2.894119024E0,1.659960938E1
1.085463564E0,2.365305185E0,2.151745796E0,1.650389671E1
1.105332158E0,2.815155745E0,1.314257860E0,1.395135212E1
1.125195387E0,2.039283037E0,2.151745796E0,1.131326580E1
1.145064085E0,9.990034252E-2,3.937987804E0,9.172885895E0
1.164927262E0,-5.318048596E-1,4.847858906E0,8.617152214E0
1.184795960E0,5.551348329E-1,5.072783947E0,1.068574810E1
1.204659189E0,2.633301258E0,3.741776466E0,1.277348518E1
1.224527835E0,3.178864956E0,2.549552441E0,1.260120201E1
1.244391116E0,1.651645780E0,2.650051117E0,1.103091240E1
1.264259762E0,3.589234054E-1,2.980260611E0,8.833105087E0
1.284122991E0,4.067798555E-1,2.970689297E0,7.133004189E0
1.303991689E0,1.124626637E0,2.731407166E0,6.304489613E0
1.323854918E0,1.603789330E0,2.386840582E0,5.662614822E0
1.343723616E0,1.536790371E0,2.185245275E0,5.064409256E0
1.363586793E0,9.284151793E-1,2.156531334E0,4.173680782E0
1.383455543E0,5.455635786E-1,1.922034740E0,3.211168051E0
1.403318720E0,1.076770186E0,1.198804140E0,3.752544165E0
1.423187418E0,1.800000787E0,1.304686546E0,5.571687698E0
1.443050699E0,1.957927108E0,2.056032896E0,7.042077065E0
1.462919345E0,1.733001828E0,2.213959217E0,7.889734268E0
1.482782574E0,9.858429432E-1,1.960319996E0,8.559724808E0
1.502651272E0,-5.802594870E-2,2.032104731E0,8.947959900E0
1.522514501E0,-8.147560954E-1,2.980260611E0,9.029315948E0
1.542383199E0,-3.260220885E-1,2.673979282E0,1.000139999E1
1.562246481E0,-1.345962733E-1,1.476969719E0,1.127976608E1
1.582115126E0,-8.530412912E-1,1.079162955E0,1.229492092E1
1.601978356E0,-1.757528186E0,1.783251047E0,1.310429287E1
1.621847054E0,-2.672184706E0,2.951546669E0,1.351585865E1
1.641710283E0,-3.093919754E0,4.086342812E0,1.227577877E1
1.661578981E0,-2.164906263E0,4.599005222E0,1.102134132E1
1.681442210E0,5.647061467E-1,3.545564890E0,1.137069321E1
1.701310960E0,6.317051649E-1,3.119044304E0,1.306122208E1
1.721174189E0,-8.386843204E-1,3.291327477E0,1.400878048E1
1.741042887E0,-6.945167780E-1,2.377269268E0,1.336271763E1
1.760906116E0,-1.495514158E-2,1.558325768E0,1.181097221E1
1.780774814E0,6.640082598E-2,1.524826288E0,1.012582684E1
1.800638043E0,-3.164508045E-1,1.596610904E0,9.311669350E0
1.820506741E0,-8.291130662E-1,1.476969719E0,8.967103004E0
1.840370022E0,-1.149751306E0,1.620539188E0,8.358727455E0
1.860238720E0,-9.535398483E-1,1.907677889E0,7.971090317E0
1.880101949E0,-5.318048596E-1,2.103889227E0,7.794021606E0
1.899970647E0,-1.010967568E-1,2.190030813E0,7.721638680E0
1.919833929E0,3.397808075E-1,2.084746838E0,7.794021606E0
1.939702626E0,4.977070987E-1,1.783251047E0,7.745566845E0
1.959565856E0,7.597211748E-2,1.725823283E0,7.511070251E0
1.979434554E0,-2.925225794E-1,1.840678811E0,7.027719975E0
1.999297835E0,-7.615157962E-1,2.261815548E0,6.361917019E0
2.019166533E0,-1.513460279E0,3.190829039E0,5.849853039E0
2.039029762E0,-1.518245935E0,3.674777269E0,6.017350674E0
2.058898460E0,-1.178465128E0,3.535993576E0,6.505486488E0
2.078761741E0,-1.647458434E0,3.775275946E0,7.123433113E0
2.098630439E0,-1.987837434E0,4.028914928E0,7.937591076E0
2.118493668E0,-1.609173179E0,3.851846218E0,9.125029564E0
2.138362418E0,-1.360319614E0,3.914059639E0,1.069531918E1
2.158225647E0,-6.083751321E-1,4.474578381E0,1.255334568E1
2.178094345E0,1.465005636E0,4.589433670E0,1.378864002E1
2.197957626E0,3.183650494E0,4.004986763E0,1.389392471E1
2.217826324E0,3.221935749E0,3.224328518E0,1.251984596E1
2.237689554E0,2.398804665E0,2.717050076E0,1.172483063E1
2.257558251E0,8.374879360E-1,3.535993576E0,1.296012592E1
2.277421533E0,6.460621357E-1,4.503292084E0,1.357807255E1
2.297290231E0,1.091127157E0,5.580660820E0,1.240977669E1
2.317153512E0,1.393221021E0,5.997011662E0,1.059003448E1
2.337022210E0,1.220339537E0,5.446064472E0,8.957531929E0
2.356885439E0,6.125625968E-1,4.622933388E0,8.052446365E0
2.376754189E0,1.573280841E-1,3.617349625E0,7.611568928E0
2.396617418E0,-3.020938635E-1,2.941975355E0,7.228717327E0
2.416486168E0,-6.993024349E-1,2.784049034E0,6.582056999E0
2.436349449E0,-3.403790295E-1,2.621337175E0,6.170491219E0
2.456218147E0,-3.409772366E-2,2.678765059E0,5.888138294E0
2.476081376E0,-8.147560954E-1,2.989831924E0,5.519045353E0
2.495950126E0,-8.051848412E-1,2.496910334E0,5.514259815E0
2.515813408E0,-1.393819153E-1,2.142174482E0,5.605186939E0
2.535682106E0,2.632105052E-1,2.477767944E0,5.528616905E0
2.555545335E0,6.460621357E-1,2.989831924E0,5.581258774E0
2.575414085E0,4.402793646E-1,3.454637766E0,5.528616905E0
2.595277366E0,-9.152546525E-2,3.914059639E0,5.638686657E0
2.615145989E0,-4.552344978E-1,4.680361271E0,6.342774391E0
2.635009270E0,-1.877767563E0,6.288936138E0,8.119445801E0
2.654877968E0,-4.313062727E-1,5.992226124E0,1.025025368E1
2.674741249E0,5.934200287E-1,6.044867992E0,1.156690502E1
2.694609947E0,5.838487148E-1,6.360720634E0,1.237627697E1
2.714473229E0,-7.280163169E-1,7.256234646E0,1.218006516E1
2.734341926E0,-5.461617708E-1,7.495516777E0,1.116491032E1
2.754205208E0,-1.144965649E0,7.558328629E0,1.058046341E1
2.774073958E0,-7.423732281E-1,6.111867428E0,1.191625690E1
2.794091562E0,-1.728814393E-1,4.776073933E0,1.336750412E1
2.813806145E0,-5.383851007E-3,3.483351469E0,1.266820145E1
2.833669426E0,-1.968096644E-1,2.688336134E0,1.016411209E1
2.853538072E0,-1.154536903E-1,2.693121910E0,7.056434155E0
2.873401354E0,2.578266263E-1,2.827120066E0,4.978267670E0
2.893269999E0,4.725824669E-2,3.128615618E0,5.260620594E0
2.913133281E0,-4.695914388E-1,2.913261652E0,7.176074982E0
2.933001979E0,-6.849454641E-1,2.449054003E0,8.559724808E0
2.952865260E0,-7.758727670E-1,2.290529490E0,8.626724243E0
2.972733958E0,-7.812566161E-1,2.520838737E0,7.884948730E0
2.992597239E0,-3.499503136E-1,2.951546669E0,7.109076023E0
3.012465885E0,-5.982056609E-4,3.315255880E0,6.428916454E0
3.032329218E0,-2.159522474E-1,3.646063566E0,5.859424591E0
3.052197916E0,-6.083751321E-1,3.947559118E0,5.423332691E0
3.072061249E0,-1.073180914E0,4.263411522E0,5.442475319E0
3.091929947E0,-1.508674622E0,4.512863636E0,5.969494343E0
3.111793176E0,-1.336391449E0,4.833501816E0,7.027719975E0
3.131661926E0,-8.865407705E-1,5.302495003E0,8.420941353E0
3.151525208E0,-5.174478889E-1,5.489733219E0,9.948758125E0
3.171509687E0,-8.721838593E-1,5.571089268E0,1.180140114E1
3.191257395E0,-1.307677627E0,6.011368752E0,1.340578842E1
3.211126093E0,-7.238288224E-2,6.734599113E0,1.341536045E1
3.230989374E0,3.092723370E0,6.466004848E0,1.276391411E1
3.250858072E0,4.251447678E0,5.561518192E0,1.417687607E1
3.270721301E0,2.925225735E0,4.411766529E0,1.681496239E1
3.290589999E0,9.858429432E-1,4.004986763E0,1.631725502E1
3.310453281E0,4.259224236E-1,4.048057556E0,1.291226959E1
3.330322031E0,8.662018180E-1,4.033700943E0,8.876175880E0
3.350185312E0,1.253839016E0,4.167698860E0,6.113063812E0
3.370053958E0,1.167697430E0,4.024129391E0,5.011766911E0
3.389917291E0,4.881358147E-1,3.885345697E0,5.059623718E0
3.409785989E0,4.187439568E-3,3.555136204E0,5.432903767E0
3.429649322E0,-2.925225794E-1,3.262613773E0,5.653043270E0
3.449518020E0,-3.499503136E-1,2.860619545E0,5.318048477E0
3.469381249E0,-4.743770957E-1,2.650051117E0,4.508676052E0
3.489249999E0,-7.567301393E-1,2.817548752E0,3.915256023E0
3.509113281E0,-1.269392371E0,3.104687452E0,3.838685751E0
3.528982031E0,-1.733600020E0,3.794418573E0,4.561318398E0
3.548845260E0,-1.384247899E0,4.411766529E0,5.950351715E0
3.568714062E0,-4.121637046E-1,4.718646049E0,7.875377655E0
3.588577343E0,4.498506486E-1,4.689932346E0,9.622735977E0
3.608446041E0,5.599204898E-1,4.541577339E0,1.040818024E1
3.628309322E0,1.375873014E-2,4.670789719E0,1.038425159E1
3.648178072E0,-1.240678549E0,5.426921844E0,9.910472870E0
3.668157135E0,-7.088736892E-1,5.335994720E0,1.022154045E1
3.687910260E0,-1.054038405E0,6.504888535E0,1.206042480E1
3.707773541E0,-3.658625841E0,8.645268440E0,1.594337749E1
3.727642239E0,-1.374676585E0,5.590231895E0,1.851506424E1
3.747505520E0,-1.495514158E-2,2.616551638E0,1.659960938E1
3.767374218E0,-1.882553220E0,2.870190859E0,1.216570854E1
3.787237499E0,-1.968694806E0,2.903690338E0,8.626724243E0
3.807106197E0,-1.384247899E0,3.004188776E0,6.927221775E0
3.826969479E0,-5.318048596E-1,2.937189817E0,6.884150982E0
3.846838176E0,-5.605186820E-1,2.822334290E0,7.640282631E0
3.866701510E0,-1.049252748E0,2.511267424E0,8.157731056E0
3.886570208E0,-1.365105271E0,2.242672920E0,7.563712597E0
3.906433541E0,-1.240678549E0,2.285743713E0,6.562914371E0
3.926302239E0,-8.099704385E-1,2.597409010E0,5.892923832E0
3.946165520E0,-8.195417374E-2,2.932404041E0,5.916851997E0
3.966034270E0,1.477568001E-1,3.224328518E0,6.189633846E0
3.985897551E0,-2.255235314E-1,3.421138287E0,5.979065418E0
4.005766301E0,-7.567301393E-1,3.521636724E0,5.538187981E0
4.025629583E0,-1.039681435E0,3.914059639E0,5.557330608E0
4.045498333E0,-8.003991842E-1,4.344767570E0,6.620342255E0
4.065361614E0,-2.542374134E-1,4.397409916E0,8.349156380E0
4.085230364E0,-1.345962733E-1,4.436293125E0,1.000618649E1
4.105093645E0,-5.383851007E-3,4.790431023E0,1.034596729E1
4.124962395E0,-4.366901144E-2,5.992226124E0,1.229970646E1
4.144825676E0,1.057627559E0,6.667600155E0,1.597687721E1
4.164694426E0,2.930011272E0,5.580660820E0,1.666660881E1
4.184557708E0,2.437089920E0,4.493721008E0,1.454058456E1
4.204426458E0,1.381855011E-1,3.765704632E0,1.276391411E1
4.224289791E0,-1.623530149E0,3.832703590E0,1.196471119E1
4.244158541E0,-1.322034478E0,4.172484398E0,1.097348499E1
4.264021822E0,-1.776670814E-1,4.455435753E0,1.011625576E1
4.283890572E0,4.307080805E-1,4.479363918E0,9.570094109E0
4.303753854E0,3.493520916E-1,4.048057556E0,8.516654015E0
4.323622604E0,2.811566554E-2,3.526422262E0,6.879364967E0
4.343485885E0,-4.169493318E-1,3.209971666E0,5.337191105E0
4.363354635E0,-6.897311211E-1,3.052045345E0,4.479962349E0
4.383217916E0,-5.892325640E-1,3.056830883E0,4.317250252E0
4.403086666E0,-2.303091735E-1,3.219542980E0,4.829912663E0
4.422949947E0,-6.759724021E-2,3.358326674E0,5.375475883E0
4.442818697E0,8.973085321E-3,3.445066452E0,5.442475319E0
4.462681979E0,-2.973082066E-1,3.521636724E0,5.447260857E0
4.482550729E0,-8.338986635E-1,3.708276987E0,5.633901119E0
4.502414062E0,-9.774680734E-1,3.832703590E0,5.547759533E0
4.522282812E0,-9.104689956E-1,4.134199142E0,6.002993584E0
4.542146093E0,-1.389033556E0,4.742574692E0,7.367500782E0
4.562014843E0,-1.911267042E0,5.125426292E0,7.971090317E0
4.581878124E0,-1.767099500E0,5.537590027E0,9.163313866E0
4.601746874E0,-1.695314884E0,6.255436420E0,1.190668583E1
4.621610208E0,-1.892124534E0,6.610172749E0,1.313300705E1
4.641478906E0,-2.638086975E-1,5.566303730E0,1.294576836E1
4.661342239E0,-3.308077157E-1,5.426921844E0,1.359242916E1
4.681210989E0,-1.527817249E0,5.829514027E0,1.345364571E1
4.701074270E0,-1.326820135E0,5.461019516E0,1.182532978E1
4.720943020E0,9.619147182E-1,3.166900873E0,1.046560764E1
4.740806354E0,2.147558331E-1,2.764906645E0,9.522237778E0
4.760675051E0,-1.887338877E0,3.392424345E0,8.751151085E0
4.780538385E0,-2.160120726E0,3.535993576E0,7.913662910E0
4.800407135E0,-1.623530149E0,3.300898790E0,7.113861561E0
4.820270416E0,-7.758727670E-1,3.320041418E0,7.056434155E0
4.840139166E0,-4.121637046E-1,3.248256683E0,7.899305820E0
4.860002499E0,4.785645306E-1,2.003390789E0,8.368298531E0
4.879871249E0,6.939185858E-1,1.160519004E0,7.951947689E0
4.899734531E0,5.120640397E-1,6.819544435E-1,7.496713161E0
4.919603281E0,-7.088736892E-1,1.060020447E0,7.573283672E0
4.939466562E0,-2.485544443E0,1.902892232E0,7.592426300E0
4.959335312E0,-1.585245013E0,9.451649189E-1,7.104290485E0
4.979198645E0,-1.039681435E0,9.547362328E-1,6.577271461E0
4.999067395E0,-1.432104349E0,1.716252089E0,7.051648140E0
5.018930729E0,-1.829911113E0,2.180459738E0,7.808378696E0
5.038799479E0,-1.623530149E0,2.970689297E0,8.779864311E0
5.058662760E0,-1.101894855E0,3.492922783E0,1.149033451E1
5.078531562E0,-1.130608678E0,3.947559118E0,1.429651737E1
5.098394843E0,-4.695914388E-1,4.943571568E0,1.550788403E1
5.118263593E0,7.561319470E-1,5.461019516E0,1.421516132E1
5.138126926E0,1.484148264E0,5.590231895E0,1.203171062E1
5.157995676E0,1.249053478E0,6.011368752E0,1.205085278E1
5.177858958E0,8.279166222E-1,5.551946640E0,1.331007576E1
5.197727760E0,6.640082598E-2,5.321637630E0,1.314257812E1
5.217591041E0,-2.638086975E-1,5.441278458E0,1.089631653E1
5.237459791E0,-5.126622319E-1,5.364708424E0,8.377870560E0
5.257323124E0,-3.978067636E-1,5.111069202E0,6.572485447E0
5.277191874E0,-1.633101404E-1,4.622933388E0,5.160121918E0
5.297055208E0,-8.195417374E-2,4.182055950E0,4.801198483E0
5.316923958E0,1.142572835E-1,3.602992773E0,4.839483738E0
5.336787239E0,4.689932466E-1,3.028116941E0,4.331607342E0
5.356656041E0,5.551348329E-1,2.458625317E0,3.814757586E0
5.376519322E0,8.973085321E-3,2.170888424E0,4.436891556E0
5.396388072E0,-2.590230405E-1,2.032104731E0,5.859424591E0
5.416251406E0,2.679961324E-1,1.855035782E0,6.812366009E0
5.436120156E0,8.949156404E-1,1.807179332E0,7.094718933E0
5.455983437E0,1.316650629E0,1.658824325E0,7.511070251E0
5.475852239E0,1.234696507E0,1.515254974E0,7.783852100E0
5.495715520E0,1.142572835E-1,1.821536183E0,8.200801849E0
5.515584322E0,-9.774680734E-1,2.559123755E0,8.866603851E0
5.535447604E0,-1.920838356E0,3.976273060E0,9.775876999E0
5.555316406E0,-2.839682341E0,6.102295876E0,9.689735413E0
5.575179687E0,-1.834696770E0,7.261020184E0,8.641080856E0
5.595048437E0,-1.771885157E0,7.883752346E0,8.803792953E0
5.614911770E0,-2.595614433E0,7.490731239E0,1.115533924E1
5.634780520E0,-2.710469961E0,6.859025955E0,1.293619728E1
5.654643854E0,-1.743171334E0,6.887740135E0,1.179183006E1
5.674512604E0,2.147558331E-1,7.304090977E0,9.306883812E0
5.694375937E0,4.259224236E-1,7.706683636E0,8.813364029E0
5.714244687E0,7.597211748E-2,6.451648235E0,1.094477081E1
5.734108020E0,-2.159522474E-1,4.780859470E0,1.226142120E1
5.753976770E0,-1.164108157E0,4.445864677E0,1.198385429E1
5.773840104E0,-1.393819213E0,5.240281582E0,1.134676456E1
5.793708854E0,-3.409772366E-2,6.346364021E0,1.047039413E1
5.813572187E0,1.469791293E0,6.844669342E0,9.838089943E0
5.833440937E0,3.140579700E0,5.465805054E0,1.057567787E1
5.853304270E0,4.217947960E0,3.224328518E0,1.242891884E1
5.873173020E0,3.174079180E0,2.874976397E0,1.255334568E1
5.893036354E0,1.311864972E0,4.009772778E0,1.010668468E1
5.912905104E0,-2.255235314E-1,4.905286312E0,7.228717327E0
5.932768437E0,-7.758727670E-1,4.957928658E0,5.437689304E0
5.952637187E0,-9.439685345E-1,4.723432064E0,5.648257732E0
5.972500520E0,-1.259821177E0,4.986642361E0,6.908079147E0
5.992369270E0,-1.704886079E0,5.048855782E0,7.008577347E0
6.012232604E0,-1.829911113E0,4.618147850E0,5.730212212E0
6.032101406E0,-7.663014531E-1,3.866203070E0,4.475176334E0
6.051964687E0,1.046859920E-1,3.310470104E0,3.723830223E0
6.071833437E0,-4.743770957E-1,3.760919094E0,3.594019651E0
6.091696770E0,-7.423732281E-1,3.732205153E0,4.365106583E0
6.111565572E0,-7.328019142E-1,3.281756163E0,5.107480049E0
6.131428854E0,-1.527817249E0,3.430709362E0,5.676971912E0
6.151297656E0,-2.466402054E0,3.885345697E0,5.365904808E0
6.171160937E0,-3.227917671E0,4.742574692E0,4.997410297E0
6.191029739E0,-3.854837179E0,5.772086620E0,5.466403484E0
6.210893072E0,-5.090730190E0,6.854240417E0,6.812366009E0
6.230761822E0,-4.558925152E0,7.064808846E0,9.292527199E0
6.250625156E0,-4.889134884E0,7.816753387E0,9.268598557E0
6.270493958E0,-7.087540627E0,9.320044518E0,8.770293236E0
6.290357239E0,-6.402595043E0,9.061619759E0,1.056610680E1
6.310226041E0,-4.788636208E0,8.032107353E0,1.510110378E1
6.330089322E0,-3.294916868E0,6.547959328E0,1.716012764E1
6.349958124E0,-2.270190477E0,5.595017433E0,1.466979790E1
6.369821458E0,-1.451246977E0,5.335994720E0,9.661021233E0
6.389690208E0,-5.844469070E-1,5.130211830E0,5.389832973E0
6.409553541E0,3.254238665E-1,4.656432629E0,4.255036831E0
6.429422343E0,-1.896910191E0,4.363910198E0,4.661816597E0
6.449285676E0,-4.214358807E0,4.378267288E0,6.845865726E0
6.469270156E0,-2.767897606E0,3.564707518E0,7.530212879E0
6.489017968E0,-1.868196249E0,3.401995659E0,7.506284714E0
6.508886666E0,-1.422533035E0,3.708276987E0,6.333203316E0
6.528749999E0,-1.274178028E0,4.105485439E0,4.527818680E0
6.548618749E0,-2.097907305E0,4.048057556E0,4.068396568E0
6.568482083E0,-3.127419233E0,3.358326674E0,4.422534466E0
6.588350781E0,-3.404986620E0,2.884547710E0,4.570889473E0
6.608214114E0,-3.845266104E0,3.329612732E0,4.691128731E0
6.628082916E0,-4.089931965E0,3.851846218E0,5.117051125E0
6.647946249E0,-3.658625841E0,4.258625984E0,5.490331650E0
6.667814947E0,-3.151347399E0,5.273781300E0,6.122634888E0
6.687678333E0,-3.965505362E0,6.437291145E0,8.540582657E0
6.707547083E0,-5.052444935E0,7.131807804E0,1.155254745E1
6.727410468E0,-5.129015446E0,8.276175499E0,1.152383423E1
6.747279218E0,-4.611567497E0,1.012463093E1,1.081496048E1
6.767142551E0,-3.438486099E0,9.698708534E0,1.349671650E1
6.787011301E0,-1.551745534E0,5.930012703E0,1.966900253E1
6.806874635E0,-1.825125456E0,4.311268330E0,1.864906120E1
6.826743385E0,-3.515056372E0,6.403791428E0,1.107876873E1
6.846606770E0,-2.710469961E0,7.658827305E0,5.907280922E0
6.866475520E0,-3.294916868E0,7.414160728E0,5.691328526E0
6.886338854E0,-5.291727066E0,6.308078766E0,9.507881165E0
6.906207656E0,-5.727221012E0,4.378267288E0,1.217049408E1
6.926071041E0,-5.401797295E0,3.416352510E0,1.137069321E1
6.945939739E0,-4.506283283E0,3.765704632E0,8.712865829E0
6.965803072E0,-2.921636343E0,4.249054909E0,6.299703598E0
6.985671874E0,-3.218346357E0,4.320839405E0,2.349153519E0
7.005535208E0,-3.476771355E0,3.751347780E0,4.796412945E0
7.025404010E0,-3.333201885E0,3.343969584E0,9.067601204E0
7.045267343E0,-3.424129248E0,3.775275946E0,1.085324574E1
7.065136093E0,-3.476771355E0,4.330410957E0,7.774280548E0
7.121305525E0,-2.227119684E0,5.240281582E0,8.186444283E0
7.141169015E0,-1.882553220E0,5.292923450E0,9.014959335E0
7.161037921E0,-1.432104349E0,5.082355499E0,8.794221878E0
7.180901411E0,-1.647458434E0,5.077569485E0,8.057231903E0
7.200770317E0,-1.930409670E0,5.134997368E0,7.496713161E0
7.220633807E0,-1.872981906E0,4.914857864E0,7.195217609E0
7.240502713E0,-1.767099500E0,4.718646049E0,7.377072334E0
7.260366203E0,-1.580459356E0,4.368695736E0,7.697710514E0
7.280235161E0,-1.479960799E0,4.004986763E0,7.735995770E0
7.300098598E0,-1.283749342E0,3.650849104E0,7.223931789E0
7.319967557E0,-1.183250785E0,3.425923824E0,6.266204357E0
7.339830994E0,-1.355534077E0,3.559921980E0,5.241477966E0
7.359699953E0,-1.690529227E0,3.952344894E0,4.570889473E0
7.379563442E0,-1.997408748E0,4.306482315E0,4.489533424E0
7.399432348E0,-2.571686029E0,4.685146809E0,4.896911621E0
7.419295838E0,-2.902493954E0,4.905286312E0,5.686542988E0
7.439164744E0,-2.767897606E0,4.699503899E0,6.764509678E0
7.459028234E0,-2.542972326E0,4.589433670E0,7.525427341E0
7.478897140E0,-2.294118643E0,4.900500774E0,7.534998417E0
7.498760630E0,-2.700898647E0,5.590231895E0,6.754938126E0
7.518629588E0,-3.586841106E0,6.269793510E0,6.869793892E0
7.538493025E0,-3.658625841E0,5.997011662E0,8.631509781E0
7.558285005E0,-3.797409534E0,5.388636589E0,1.017846966E1
7.578225369E0,-5.330012321E0,5.590231895E0,1.056610680E1
7.598094275E0,-5.870790482E0,5.499304771E0,1.127498055E1
7.617957817E0,-4.032504559E0,4.363910198E0,1.315693569E1
7.637826723E0,-3.323630571E0,4.158127785E0,1.472243977E1
7.657690265E0,-4.013361931E0,4.546362877E0,1.310429287E1
7.677559223E0,-4.635495663E0,4.924428940E0,1.022154045E1
7.697422661E0,-4.482355118E0,4.914857864E0,9.450452805E0
7.717291619E0,-3.850051641E0,4.479363918E0,1.033160973E1
7.737155057E0,-3.605983734E0,4.210769653E0,1.025982571E1
7.757024015E0,-3.735196114E0,4.220340729E0,8.967103004E0
7.776887505E0,-4.200001717E0,4.272983074E0,7.798807144E0
7.796756411E0,-4.290929317E0,4.263411522E0,7.156932354E0
7.816619900E0,-3.629911900E0,3.971487284E0,6.409773827E0
7.836488859E0,-2.748754978E0,3.464209080E0,6.180062771E0
7.856352296E0,-2.619542599E0,3.445066452E0,6.270989895E0
7.876221255E0,-2.380260229E0,3.401995659E0,6.251847267E0
7.896084744E0,-1.580459356E0,3.229114056E0,6.505486488E0
7.915953650E0,-6.323033571E-1,3.028116941E0,6.744768620E0
7.935817140E0,2.386840582E-1,2.678765059E0,6.687341213E0
7.955686098E0,2.291127741E-1,2.472982168E0,7.348358154E0
7.975549536E0,4.594219327E-1,1.945963025E0,8.857032776E0
7.995418494E0,9.523434043E-1,1.021735311E0,9.953543663E0
8.015281984E0,-2.452643216E-2,1.214357466E-1,8.033304214E0
8.035150890E0,-4.887340367E-1,-1.848455518E-1,7.611568928E0
8.055014380E0,-1.001396298E0,-1.704886109E-1,8.081160545E0
8.074883338E0,-6.035895348E-1,3.517449200E-1,8.708079338E0
8.094746775E0,7.657032609E-1,8.063812256E-1,9.512666702E0
8.114615734E0,1.402792215E0,4.713860750E-1,9.335597992E0
8.134479223E0,-6.131607890E-1,-8.913264424E-2,8.971888542E0
8.154348130E0,-4.209573269E0,3.948157430E-1,9.153742790E0
8.174211619E0,-4.391427994E0,8.315058798E-2,9.005388260E0
8.194080578E0,-3.026920557E0,5.144568682E-1,7.391428947E0
8.213944067E0,-3.232703447E0,3.281756163E0,7.995018482E0
8.233812973E0,-3.558127165E0,3.751347780E0,9.915258408E0
8.253676463E0,-4.128217220E0,2.980260611E0,1.193061352E1
8.273545421E0,-4.568496704E0,3.119044304E0,1.466501141E1
8.293408911E0,-4.209573269E0,3.425923824E0,1.413859081E1
8.313277817E0,-2.681756020E0,3.047259569E0,1.318086338E1
8.333141307E0,-1.637887120E0,3.018545866E0,1.483729458E1
8.353010265E0,-2.638685226E0,3.660420418E0,1.540259933E1
8.372873755E0,-4.252644062E0,5.044070244E0,1.426301765E1
8.392742661E0,-3.256631613E0,4.071985722E0,1.193539906E1
8.412606150E0,-1.676172256E0,3.286541939E0,1.023589706E1
8.432590838E0,-1.892124534E0,4.110270977E0,1.021675491E1
8.452338755E0,-1.930409670E0,4.177269936E0,9.469595909E0
8.472207661E0,-1.211964726E0,3.770490170E0,8.210372925E0
8.492071150E0,-2.685943544E-1,3.109472990E0,7.042077065E0
8.511940057E0,2.823530734E-1,2.678765059E0,5.940780640E0
8.531803546E0,4.737788737E-1,2.779263496E0,5.054837704E0
8.551672400E0,-2.931207791E-2,3.440280676E0,4.590032101E0
8.571535890E0,-7.136593461E-1,4.033700943E0,4.963910580E0
8.591404796E0,-7.040880919E-1,3.765704632E0,5.720640659E0
8.611268338E0,1.908276081E-1,2.941975355E0,5.868995667E0
8.631137244E0,5.407779217E-1,2.333600283E0,5.562116146E0
8.651000734E0,4.642075896E-1,2.314457655E0,5.380261898E0
8.670869640E0,-2.638086975E-1,3.066402197E0,5.198407173E0
8.690733130E0,-1.369890928E0,4.354339123E0,5.164907455E0
8.710602088E0,-1.537388563E0,5.216353416E0,5.365904808E0
8.730465578E0,-6.514459848E-1,4.919643402E0,5.533402443E0
8.750334484E0,1.142572835E-1,4.402195454E0,6.141777515E0
8.770197973E0,3.768695518E-2,5.000999451E0,7.630711555E0
8.790066932E0,-6.753742099E-1,5.977869034E0,8.641080856E0
8.809930473E0,-1.283749342E0,6.701099873E0,8.962317467E0
8.829799380E0,1.142572835E-1,6.748956203E0,8.569295883E0
8.849662869E0,1.302293777E0,6.485147476E0,7.444071293E0
8.869531828E0,-2.973082066E-1,7.438089371E0,6.055635929E0
8.889395317E0,-1.503889084E0,8.913264275E0,5.821139336E0
8.909264275E0,1.091127157E0,8.510671616E0,8.641080856E0
8.929127765E0,3.054438114E0,7.855038643E0,1.298943806E1
8.948996723E0,3.107080221E0,7.079165936E0,1.516810226E1
8.968860265E0,2.403590441E0,6.169294834E0,1.436830139E1
8.988729171E0,1.637288928E0,6.126224041E0,1.311386490E1
9.008592713E0,1.670788407E0,5.504090309E0,1.150469112E1
9.028461619E0,1.627717614E0,5.101497650E0,1.066181946E1
9.048325161E0,1.239482164E0,5.187639713E0,1.051346493E1
9.068194119E0,6.125625968E-1,4.938786030E0,9.977472305E0
9.088057609E0,3.780659735E-1,4.508078098E0,8.554939270E0
9.107926567E0,7.178468108E-1,4.795216560E0,7.827520847E0
9.127790057E0,1.512862086E0,5.020142078E0,9.522237778E0
9.147659067E0,2.101496458E0,4.785645485E0,1.044167995E1
9.167522557E0,1.689931035E0,4.287340164E0,9.182456970E0
9.187391515E0,1.967498422E0,3.789632797E0,7.080362320E0
9.207255005E0,2.662015200E0,3.555136204E0,5.648257732E0
9.227124015E0,2.867797852E0,3.363112211E0,5.117051125E0
9.246987505E0,2.590230465E0,2.970689297E0,4.839483738E0
9.266856463E0,2.044068813E0,2.870190859E0,4.801198483E0
9.286720005E0,1.445863128E0,3.023331404E0,4.686343193E0
9.306588963E0,1.153340459E0,3.109472990E0,4.345963955E0
9.326452505E0,7.561319470E-1,3.392424345E0,4.111467361E0
9.346321463E0,3.206382394E-1,3.942773581E0,4.073182583E0
9.366185005E0,-7.423732281E-1,4.512863636E0,4.278964996E0
9.386053963E0,-2.083550215E0,4.996213913E0,4.772484779E0
9.405917505E0,-1.704886079E0,6.092724800E0,5.236692429E0
9.425786463E0,4.977070987E-1,8.003393173E0,7.448856831E0
9.445650005E0,3.140579700E0,8.894122124E0,1.085803127E1
9.465518963E0,4.548755646E0,7.926823139E0,1.257248878E1
9.485382505E0,4.064807415E0,7.591827869E0,1.179183006E1
9.505251515E0,4.448257446E0,7.658827305E0,1.116969585E1
9.525115057E0,6.200401783E0,7.304090977E0,1.208913803E1
9.544984015E0,6.598208427E0,6.605386734E0,1.201256752E1
9.564847609E0,5.381458282E0,6.135795593E0,1.116491032E1
9.584716567E0,4.002593994E0,5.834300041E0,1.008754253E1
9.604580109E0,3.428316593E0,5.326423168E0,9.230313301E0
9.624449119E0,3.288934708E0,4.833501816E0,8.411369324E0
9.644312661E0,3.011367321E0,4.474578381E0,7.568498135E0
9.664181671E0,2.767299414E0,4.191627026E0,7.037291527E0
9.684045213E0,2.461018085E0,4.009772778E0,6.428916454E0
9.703914223E0,2.355733871E0,3.784847260E0,5.629115105E0
9.723777765E0,2.379662037E0,3.545564890E0,5.140979290E0
9.743646775E0,2.504088879E0,3.238685369E0,4.892126083E0
9.763510369E0,2.341377020E0,2.851048231E0,4.858626366E0
9.783379380E0,1.723430514E0,2.798406124E0,4.710271358E0
9.803242921E0,9.954141974E-1,3.133401155E0,4.202394962E0
9.823111984E0,7.992027402E-1,3.646063566E0,3.963112593E0
9.842975525E0,9.379864931E-1,4.421936035E0,4.748556614E0
9.862844536E0,1.828714728E0,5.201996326E0,6.538986206E0
9.882708130E0,3.174079180E0,5.714658737E0,6.586842537E0
9.902577140E0,2.087139606E0,5.714658737E0,4.939982414E0
9.922440734E0,2.291127741E-1,6.025725842E0,6.342774391E0
9.942309744E0,5.072783828E-1,6.480361938E0,9.120243073E0
9.962173338E0,1.436291814E0,6.796812534E0,9.268598557E0
9.982042348E0,1.277767301E0,7.902894974E0,9.115457535E0
1.000190594E1,1.860419661E-1,8.702695847E0,8.986245155E0
1.002177500E1,6.987041831E-1,7.639684677E0,8.794221878E0
1.004163860E1,1.962712765E0,6.528816700E0,1.060439205E1
1.006150766E1,2.048854351E0,5.934798241E0,1.317607784E1
1.008137131E1,1.852642894E0,4.943571568E0,1.504786301E1
1.010124027E1,2.547159672E0,3.655634880E0,1.524945831E1
1.012110391E1,2.111067772E0,2.535195589E0,1.229492092E1
1.014097292E1,1.190429255E-1,2.280958176E0,8.770293236E0
1.016083652E1,-5.126622319E-1,3.095116138E0,7.549355507E0
1.018070558E1,-4.887340367E-1,3.583850145E0,7.185646534E0
1.020056917E1,5.312066078E-1,3.813561201E0,6.821937561E0
1.022043829E1,5.407779217E-1,3.095116138E0,6.074778557E0
1.024030188E1,-6.514459848E-1,2.328814745E0,5.907280922E0
1.026017094E1,-1.465603828E0,2.994617462E0,7.113861561E0
1.028003454E1,-8.865407705E-1,2.922832966E0,7.640282631E0
1.029990360E1,1.573280841E-1,2.358126640E0,7.745566845E0
1.031976724E1,4.498506486E-1,2.429911375E0,7.789236069E0
1.033963631E1,4.115654826E-1,2.946761131E0,7.947162151E0
1.035949995E1,3.062812984E-1,2.941975355E0,8.435297966E0
1.037936902E1,-4.217349887E-1,2.156531334E0,8.215158463E0
1.039923261E1,-1.331605792E0,2.166102648E0,7.530212879E0
1.041910172E1,-2.150549412E0,3.372683525E0,5.878567219E0
1.043896537E1,-2.480758905E0,4.622933388E0,4.939982414E0
1.045883443E1,-1.317248821E0,4.785645485E0,6.615556240E0
1.047869808E1,-1.345962733E-1,4.268197536E0,9.259027481E0
1.049856714E1,6.508477330E-1,3.382853031E0,1.153819084E1
1.051843079E1,-5.383851007E-3,2.965903759E0,1.375035572E1
1.053829990E1,-3.212364316E-1,3.445066452E0,1.391785336E1
1.055816355E1,5.168496966E-1,4.613361835E0,1.358764362E1
1.057803261E1,1.158126116E0,5.647659779E0,1.268734360E1
1.059789626E1,2.130210400E0,5.331208706E0,1.242413330E1
1.061776537E1,3.806382656E0,4.220340729E0,1.522553062E1
1.063762902E1,4.563112736E0,2.956332445E0,1.695853233E1
1.065749813E1,3.485744476E0,2.592623234E0,1.490907955E1
1.067736178E1,1.977069736E0,3.238685369E0,1.158126163E1
1.069723089E1,1.536790371E0,3.142972469E0,8.736793518E0
1.071709454E1,1.091127157E0,3.765704632E0,7.372286797E0
1.073696365E1,1.522433400E0,3.559921980E0,6.668198586E0
1.075682730E1,1.890928149E0,3.559921980E0,6.903293133E0
1.077669641E1,1.866999865E0,3.464209080E0,6.860222340E0
1.079656006E1,1.426720500E0,3.171686411E0,5.681757450E0
1.081642917E1,1.622931957E0,2.468196630E0,5.131408215E0
1.083629287E1,9.667003751E-1,2.324028969E0,4.791627407E0
1.085616198E1,-2.111666054E-1,2.592623234E0,4.930410862E0
1.087602563E1,3.349951804E-1,2.468196630E0,5.629115105E0
1.089589474E1,1.421934843E0,2.367697954E0,6.807580471E0
1.091575844E1,1.326221943E0,2.228316069E0,7.597211838E0
1.093562756E1,8.327022791E-1,1.993819475E0,7.621140003E0
1.095549126E1,6.843472719E-1,1.893320918E0,7.458428383E0
1.097536037E1,7.561319470E-1,1.926820397E0,7.683353424E0
1.099522402E1,1.004985452E0,2.089532375E0,8.320442200E0
1.101509318E1,1.014556766E0,2.592623234E0,9.110671997E0
1.103495683E1,1.603789330E0,2.439482689E0,1.023111153E1
1.105482599E1,1.067198873E0,2.559123755E0,1.148554897E1
1.107468964E1,6.221339107E-1,3.008974552E0,1.247198963E1
1.109455881E1,1.575075507E0,2.650051117E0,1.341536045E1
1.111442250E1,7.800601721E-1,2.898904562E0,1.409073448E1
1.113429162E1,-8.817551732E-1,3.497708559E0,1.397049522E1
1.115415532E1,-9.296116233E-1,3.636492252E0,1.283569908E1
1.117402443E1,-7.040880919E-1,4.392624378E0,1.167218876E1
1.119388813E1,-5.982056609E-4,4.287340164E0,1.177747345E1
1.121375724E1,8.614161611E-1,2.472982168E0,1.250548935E1
1.123362094E1,2.578266263E-1,1.280160069E0,1.270648670E1
1.125349011E1,-1.101894855E0,1.194018483E0,1.138026428E1
1.127335370E1,-1.570888042E0,1.371685624E0,9.158528328E0
1.129322292E1,-1.973480463E0,1.424327731E0,6.884150982E0
1.131308662E1,-2.059622049E0,1.213161111E0,4.762913704E0
1.133295579E1,-3.428914785E0,2.338385820E0,4.949553490E0
1.135281948E1,-2.605185747E0,2.492124796E0,7.113861561E0
1.137268860E1,1.421934843E0,7.872386575E-1,7.654639721E0
1.139255235E1,3.677170277E0,4.905286431E-1,7.769495010E0
1.141242146E1,4.280161381E0,1.170090318E0,8.703293800E0
1.143228516E1,3.528815269E0,2.113460541E0,9.402596474E0
1.145215433E1,2.403590441E0,2.492124796E0,8.895318031E0
1.147201802E1,8.327022791E-1,2.764906645E0,6.941578388E0
1.149188719E1,-6.759724021E-2,2.884547710E0,4.681557655E0
1.151175089E1,4.247260094E-2,3.981058598E0,4.475176334E0
1.153162011E1,-1.776670814E-1,4.785645485E0,6.687341213E0
1.155148376E1,3.768695518E-2,4.177269936E0,1.010668468E1
1.157135292E1,2.811566554E-2,3.985844374E0,1.311386490E1
1.159121667E1,-3.260220885E-1,4.646861553E0,1.432523060E1
1.161108584E1,1.525424421E-1,4.138985157E0,1.360200024E1
1.163094954E1,5.982056856E-1,2.812762976E0,1.324307728E1
1.165081870E1,3.206382394E-1,1.931606054E0,1.492343616E1
1.167068245E1,-2.781656384E-1,1.783251047E0,1.612582970E1
1.169055162E1,-2.973082066E-1,2.060818434E0,1.437787342E1
1.171041532E1,1.091127157E0,2.377269268E0,1.104048347E1
1.173028448E1,2.571087837E0,2.611765862E0,8.487939835E0
1.175014823E1,2.480160713E0,2.520838737E0,7.338787079E0
1.177001740E1,1.182054400E0,2.156531334E0,8.172087669E0
1.178988110E1,1.716850251E-1,1.280160069E0,8.986245155E0
1.180975027E1,-1.016949583E-2,9.212366939E-1,8.559724808E0
1.182961396E1,-7.908278704E-1,1.960319996E0,8.129016876E0
1.184948318E1,-1.283749342E0,2.626122952E0,7.755138397E0
1.186934688E1,-1.494317770E0,2.831905603E0,7.271788120E0
1.188921610E1,-2.446661144E-1,1.524826288E0,6.371488571E0
1.190907980E1,-3.409772366E-2,1.289731383E0,6.060421467E0
1.192894896E1,-4.504488707E-1,1.658824325E0,6.328417778E0
1.194881271E1,-3.260220885E-1,1.572682738E0,6.888936520E0
1.196864339E1,-3.595215976E-1,1.811964989E0,7.496713161E0
1.198854563E1,-6.370890141E-1,2.333600283E0,7.635497093E0
1.200841474E1,-8.530412912E-1,2.841476917E0,7.697710514E0
1.202827855E1,-6.801598072E-1,3.047259569E0,8.138587952E0
1.204814771E1,2.051845491E-1,2.760120869E0,8.928817749E0
1.206801146E1,5.216353536E-1,2.697907448E0,1.017368412E1
1.208788063E1,-1.298106313E-1,2.702693224E0,1.097348499E1
1.210782152E1,-1.125823021E0,1.955534339E0,1.114098263E1
1.212772938E1,-2.351546526E0,1.610967875E0,1.174875927E1
1.214747761E1,-2.504687071E0,2.932404041E0,1.237149143E1
1.216734667E1,-1.849053741E0,4.570291042E0,1.229970646E1
1.218721047E1,-1.499103427E0,5.158925533E0,1.182532978E1
1.220707954E1,-2.394617319E0,4.737788677E0,1.101177025E1
1.222694329E1,-3.227917671E0,4.158127785E0,1.041296577E1
1.224681245E1,-1.805384636E0,2.879761934E0,1.038903809E1
1.226667620E1,-3.403790295E-1,2.146960020E0,1.101177025E1
1.228654537E1,1.908276081E-1,1.668395638E0,1.085803127E1
1.230640912E1,-7.716853172E-2,1.467398524E0,9.958329201E0
1.232627829E1,-1.030110121E0,1.749751568E0,8.833105087E0
1.234614209E1,-1.623530149E0,2.123031855E0,8.339585304E0
1.236601120E1,-1.494317770E0,2.142174482E0,8.818149567E0
1.238587495E1,-1.077966571E0,1.912463546E0,9.029315948E0
1.240574417E1,-8.673982024E-1,1.792822361E0,8.876175880E0
1.242560792E1,-6.323033571E-1,1.567897081E0,8.406583786E0
1.244547714E1,-5.174478889E-1,1.284945726E0,7.937591076E0
1.246534089E1,-5.892325640E-1,1.016949654E0,7.668996811E0
1.248521006E1,-5.988038778E-1,7.202396393E-1,7.448856831E0
1.250507386E1,-9.200403094E-1,7.202396393E-1,6.888936520E0
1.252494302E1,-1.360319614E0,1.093519926E0,5.859424591E0
1.254480678E1,-1.657029629E0,1.601396561E0,4.772484779E0
1.256467599E1,-1.825125456E0,1.907677889E0,3.867399693E0
1.258453969E1,-2.375474691E0,2.132603168E0,4.077968121E0
1.260440896E1,-3.366701365E0,2.295315027E0,6.409773827E0
1.262427271E1,-4.200001717E0,2.185245275E0,9.814162254E0
1.264414193E1,-4.869992256E0,2.194816589E0,1.285005569E1
1.266400568E1,-4.874777794E0,2.650051117E0,1.533559990E1
1.268387485E1,-4.094717979E0,2.650051117E0,1.521595955E1
1.270373865E1,-2.801397085E0,1.993819475E0,1.514417458E1
1.272360782E1,-2.408974171E0,2.146960020E0,1.892662811E1
1.274347157E1,-1.628315806E0,1.366899967E0,2.066501427E1
1.276334079E1,-1.527817249E0,1.965105653E0,1.765304947E1
1.278320454E1,6.412764788E-1,2.568695068E0,1.293141174E1
1.280307376E1,-2.159522474E-1,5.039284706E0,9.498309135E0
1.282293750E1,-1.149751306E0,5.235496044E0,7.396214962E0
1.284280672E1,-9.104689956E-1,3.626920938E0,6.562914371E0
1.286267047E1,-2.006979942E0,3.324826956E0,6.409773827E0
1.288253969E1,-2.676970243E0,3.090330362E0,5.845067501E0
1.290240344E1,-2.791825771E0,2.918047190E0,5.198407173E0
1.292227266E1,-2.509472847E0,2.755335331E0,4.853840828E0
1.294213641E1,-2.021337032E0,2.477767944E0,4.844269276E0
1.296200563E1,-1.968694806E0,2.180459738E0,4.944767952E0
1.298186938E1,-1.987837434E0,1.888535261E0,5.203192711E0
1.300173860E1,-2.255833626E0,1.610967875E0,5.370690346E0
1.302160235E1,-2.533401012E0,1.520040631E0,5.389832973E0
1.304147157E1,-2.557329178E0,1.524826288E0,5.523830891E0
1.306133532E1,-2.169692039E0,1.462612867E0,5.806782246E0
1.308120448E1,-1.849053741E0,1.424327731E0,6.400202274E0
1.310106823E1,-1.968694806E0,1.821536183E0,7.525427341E0
1.312093745E1,-1.939980984E0,2.597409010E0,8.947959900E0
1.314080120E1,-1.618744493E0,3.296113253E0,9.426525116E0
1.316067042E1,-1.235892892E0,3.990629911E0,9.704092026E0
1.318053417E1,-1.192822099E0,4.335196495E0,1.133240795E1
1.320040339E1,-1.030110121E0,3.756133318E0,1.355414391E1
1.322026714E1,-1.661815286E0,3.607778311E0,1.421037579E1
1.324013636E1,-2.700898647E0,4.383052826E0,1.364507103E1
1.326000011E1,-2.432902336E0,5.087141037E0,1.274955750E1
1.327986933E1,-2.184048891E0,5.417350292E0,1.213220882E1
1.329973308E1,-2.270190477E0,5.015356064E0,1.192582798E1
1.331960224E1,-1.771885157E0,3.866203070E0,1.229970646E1
1.333946605E1,-1.216750264E0,2.688336134E0,1.263948727E1
1.335933521E1,-8.530412912E-1,1.701895118E0,1.179661560E1
1.337919896E1,-1.207179070E0,1.615753531E0,1.001097202E1
1.339906818E1,-1.336391449E0,1.797608018E0,8.181658745E0
1.341893193E1,-2.829512656E-1,1.974676847E0,7.061219692E0
1.343880115E1,-6.281159073E-2,2.544766903E0,6.337988853E0
1.345866485E1,2.338984162E-1,2.937189817E0,5.514259815E0
1.347853407E1,7.752745152E-1,2.956332445E0,5.045266628E0
1.349839782E1,1.326221943E0,2.851048231E0,5.155336380E0
1.351826698E1,1.766501307E0,2.587837696E0,5.720640659E0
1.353813079E1,1.479362607E0,2.338385820E0,6.256632805E0
1.355799995E1,8.374879360E-1,2.276172638E0,6.194419384E0
1.357786370E1,1.238285750E-1,2.530410051E0,5.365904808E0
1.359773287E1,-9.152546525E-1,3.310470104E0,4.652245522E0
1.361759662E1,-1.939980984E0,4.373481750E0,4.628317356E0
1.363746584E1,-2.059622049E0,5.120640278E0,5.212764263E0
1.365732954E1,-7.184450030E-1,4.316053867E0,7.899305820E0
1.367719876E1,-9.631111026E-1,3.085544825E0,1.415773296E1
1.369706245E1,-1.360319614E0,2.396411896E0,1.975514412E1
1.371693167E1,-1.020538807E0,3.875774384E0,1.952543259E1
1.373679542E1,-4.743770957E-1,5.891727448E0,1.566580963E1
1.375666459E1,-5.844469070E-1,6.456433773E0,1.308036518E1
1.377652834E1,-1.077966571E0,4.479363918E0,1.412423420E1
1.379639751E1,-2.844467878E0,3.291327477E0,1.627418518E1
1.381626126E1,-2.724826813E0,3.257827997E0,1.622632790E1
1.383613042E1,-1.728814393E-1,3.684348583E0,1.389392471E1
1.385599417E1,2.173281193E0,4.383052826E0,1.203171062E1
1.387586339E1,2.968296528E0,4.522434711E0,1.052303600E1
1.389572709E1,2.087139606E0,4.081557274E0,8.665008545E0
1.391559626E1,8.757730722E-1,3.459423304E0,6.841079712E0
1.393546001E1,1.716850251E-1,2.903690338E0,5.337191105E0
1.395532922E1,-2.931207791E-2,2.712264538E0,4.475176334E0
1.397519292E1,4.498506486E-1,2.740978241E0,4.355535507E0
1.399506209E1,1.311864972E0,3.042474031E0,4.484747887E0
1.401492584E1,1.886142492E0,3.320041418E0,4.666602135E0
1.403479501E1,2.067996979E0,3.229114056E0,4.758127689E0
1.405465876E1,2.063211441E0,2.870190859E0,4.930410862E0
1.407452792E1,1.431506157E0,2.257030010E0,5.160121918E0
1.409439162E1,-1.968096644E-1,1.922034740E0,5.475974560E0
1.411426079E1,-1.068395257E0,1.831107497E0,5.605186939E0
1.413412454E1,-6.179464459E-1,1.591825247E0,5.912066460E0
1.415399370E1,-1.130608678E0,2.520838737E0,6.562914371E0
1.417385745E1,-1.302891970E0,2.879761934E0,7.032505512E0
1.419372662E1,-1.001396298E0,2.779263496E0,7.659425259E0
1.421359032E1,-1.637887120E0,3.248256683E0,8.952746391E0
1.423345954E1,-2.557329178E0,2.559123755E0,1.006839943E1
1.425332323E1,-3.577269793E0,1.878963947E0,1.171047401E1
1.427319240E1,-4.530211449E0,2.621337175E0,1.337707520E1
1.429305615E1,-2.950350285E0,3.358326674E0,1.460758400E1
1.431292526E1,7.944171429E-1,4.953142643E0,1.814597130E1
1.433278902E1,1.996212244E0,5.580660820E0,1.964507484E1
1.435265818E1,2.087139606E0,3.995415688E0,1.955414581E1
1.437252188E1,2.134995937E0,2.377269268E0,1.857249069E1
1.439239105E1,1.028913736E0,2.410768747E0,1.572323799E1
1.441225474E1,6.987041831E-1,3.722633839E0,1.182532978E1
1.443212391E1,8.805587292E-1,4.292125702E0,7.832306862E0
1.445198761E1,8.901300430E-1,4.555934429E0,5.356333256E0
1.447185683E1,4.187439568E-3,5.015356064E0,5.126622677E0
1.449172047E1,2.530409992E-1,3.823132277E0,5.672185898E0
1.451158969E1,9.475577474E-1,2.079961061E0,6.156134605E0
1.453145339E1,-3.690928817E-1,2.123031855E0,6.452844620E0
1.455132256E1,-1.322034478E0,2.223530531E0,6.132206440E0
1.457118626E1,-1.077966571E0,2.252244234E0,5.351547718E0
1.459105542E1,-2.015953064E-1,2.487339020E0,4.097110748E0
1.461091912E1,-4.839483798E-1,2.980260611E0,3.671188116E0
1.463078829E1,-1.479960799E0,3.598206997E0,4.298107624E0
1.465065193E1,-1.542174220E0,3.416352510E0,4.360321045E0
1.467052115E1,-2.030908108E0,3.545564890E0,3.853042603E0
1.469038480E1,-2.940778971E0,4.594219685E0,4.274179459E0
1.471025396E1,-2.763111830E0,4.900500774E0,6.486343861E0
1.473011766E1,-1.326820135E0,4.244269371E0,9.872187614E0
1.474998683E1,-7.716853172E-2,4.138985157E0,1.267298698E1
1.476985052E1,-9.918249846E-1,5.455635548E0,1.264905834E1
1.478971969E1,-4.504488707E-1,6.863811970E0,9.565308571E0
1.480958339E1,1.043270707E0,8.865407944E0,7.515855789E0
1.482945256E1,1.014556766E0,9.636494637E0,1.244327641E1
1.484931626E1,2.666800737E0,5.949155331E0,1.986521339E1
1.486918537E1,3.691527128E0,4.282554150E0,2.043051720E1
1.488904912E1,1.843071699E0,6.097510338E0,1.484208107E1
1.490891823E1,1.450648785E0,6.543173313E0,1.153819084E1
1.492878193E1,1.479362607E0,6.586244106E0,8.962317467E0
1.494865110E1,3.206382394E-1,6.844669342E0,7.789236069E0
1.496851474E1,5.503492355E-1,5.714658737E0,8.334799767E0
1.498838391E1,7.130611539E-1,4.833501816E0,8.382656097E0
1.500824761E1,-8.673982322E-2,4.823930264E0,7.621140003E0
1.502811672E1,-2.159522474E-1,4.934000492E0,7.190432072E0
1.504798042E1,-5.982056609E-4,4.780859470E0,7.247859955E0
1.506784959E1,2.434697002E-1,4.584648132E0,7.223931789E0
1.508771323E1,1.429711580E-1,4.546362877E0,6.677769661E0
1.510758240E1,-4.600201547E-1,4.795216560E0,6.208776474E0
1.512744610E1,-1.135394335E0,5.115854740E0,6.127420425E0
1.514731521E1,-1.580459356E0,5.245067120E0,6.203990936E0
1.516717891E1,-1.465603828E0,5.230710506E0,6.605985165E0
1.518704808E1,-1.369890928E0,5.173282623E0,6.836294174E0
1.520691172E1,-1.724028707E0,5.595017433E0,6.999006271E0
1.522678084E1,-2.093121529E0,6.126224041E0,7.932805061E0
1.524664454E1,-2.174477577E0,6.111867428E0,8.602795601E0
1.526651370E1,-2.404188633E0,6.054439545E0,7.692924976E0
1.528637735E1,-2.940778971E0,6.332006931E0,6.409773827E0
1.530624652E1,-3.893122435E0,6.997809887E0,6.079564095E0
1.532611016E1,-5.952146530E0,8.084749222E0,7.123433113E0
1.534597933E1,-4.999803066E0,6.701099873E0,9.263813019E0
1.536584297E1,-2.969492912E0,4.991427898E0,1.025982571E1
1.538571214E1,-2.475973129E0,4.646861553E0,8.636295319E0
1.540557579E1,-3.275774240E0,5.402993679E0,5.873781204E0
1.542544490E1,-4.472783566E0,6.030511379E0,2.723032236E0
1.544530860E1,-5.621936798E0,6.427719593E0,2.636890650E0
1.546517771E1,-4.247858524E0,5.748157978E0,7.329215527E0
1.548504141E1,-4.649852753E0,5.719444275E0,9.546165466E0
1.554258204E1,-5.224728107E0,4.914857864E0,6.783652306E0
1.556244553E1,-4.860421181E0,4.828716278E0,7.204789162E0
1.558231438E1,-4.759922504E0,4.737788677E0,6.778866768E0
1.560217782E1,-4.812564373E0,4.680361271E0,5.988636971E0
1.562204673E1,-5.014159679E0,4.828716278E0,5.825924873E0
1.564191017E1,-4.640281200E0,4.747360229E0,6.668198586E0
1.566177907E1,-4.410570145E0,4.517649174E0,7.956733704E0
1.568164251E1,-4.482355118E0,4.138985157E0,9.077172279E0
1.570151142E1,-4.424927235E0,3.808775425E0,9.306883812E0
1.572137485E1,-4.022933006E0,3.976273060E0,8.578866959E0
1.574124371E1,-3.323630571E0,4.527220249E0,7.894520283E0
1.576110714E1,-2.777468920E0,5.101497650E0,8.057231903E0
1.578097605E1,-2.294118643E0,5.106283665E0,8.641080856E0
1.580083949E1,-1.757528186E0,4.694717884E0,9.134600639E0
1.582070839E1,-1.599601984E0,4.277768612E0,9.129815102E0
1.584068756E1,-1.747956991E0,4.373481750E0,8.986245155E0
1.586044089E1,-1.389033556E0,4.551148891E0,8.880961418E0
1.588030433E1,-1.039681435E0,4.680361271E0,8.688937187E0
1.590017319E1,-1.159322619E0,4.747360229E0,8.550153732E0
1.592003662E1,-1.245464206E0,4.431507587E0,8.143373489E0
1.593990537E1,-1.231107235E0,4.119842529E0,7.659425259E0
1.595976886E1,-1.235892892E0,3.928416491E0,7.362715244E0
1.597963777E1,-1.245464206E0,3.856631994E0,6.979863644E0
1.599950121E1,-1.130608678E0,3.909274101E0,6.754938126E0
1.601937006E1,-1.092323542E0,3.942773581E0,6.716054916E0
1.603923350E1,-1.211964726E0,3.923630953E0,6.692126751E0
1.605910235E1,-1.336391449E0,3.693919897E0,6.553342819E0
1.607896584E1,-7.088736892E-1,3.095116138E0,6.927221775E0
1.609883470E1,1.477568001E-1,2.630908489E0,7.999804497E0
1.611869813E1,-1.384247899E0,2.683550596E0,8.760722160E0
1.613856699E1,-1.877767563E0,3.281756163E0,9.148957253E0
1.615843043E1,9.990034252E-2,2.472982168E0,9.316454887E0
1.617829933E1,-2.685943544E-1,1.816750646E0,9.244669914E0
1.619816277E1,-7.232306600E-1,2.084746838E0,8.871390343E0
1.621803162E1,-6.035895348E-1,1.520040631E0,7.688138962E0
1.623789506E1,8.075776696E-2,5.958128572E-1,6.223133564E0
1.625776397E1,-1.680957973E-1,6.388836503E-1,5.332405090E0
1.627762741E1,4.247260094E-2,9.068797827E-1,4.916054249E0
1.629749631E1,2.067996979E0,1.371685624E0,4.949553490E0
1.631735970E1,1.718644857E0,1.328614831E0,5.883352757E0
1.633722860E1,-1.240678549E0,1.673181176E0,7.985447407E0
1.635709204E1,3.589234054E-1,1.438684583E0,8.334799767E0
1.637696095E1,4.596612453E0,-1.630708575E0,8.215158463E0
1.639682438E1,5.463412285E0,-1.061216831E0,7.865806103E0
1.641669324E1,3.768097401E0,2.425125837E0,1.041775131E1
1.643655668E1,7.780860901E0,8.446664214E-1,1.276391411E1
1.645642558E1,8.331210136E0,7.058826685E-1,1.555095482E1
1.647628897E1,5.841478348E0,1.821536183E0,1.677667809E1
1.649615787E1,4.366302967E0,2.606980324E0,1.509153271E1
1.651602126E1,5.678766251E0,3.272184849E0,1.181575775E1
1.653589016E1,5.994618893E0,4.100699902E0,1.147119141E1
1.655575360E1,3.911666870E0,3.713062525E0,1.210349560E1
1.657562251E1,2.015354872E0,3.013760090E0,1.120798111E1
1.659548589E1,1.503290772E0,2.956332445E0,8.674580574E0
1.661535480E1,2.729014158E0,2.343769789E0,7.247859955E0
1.663521824E1,4.610969067E0,2.922832966E0,8.387441635E0
1.665508709E1,4.146163464E0,3.176471949E0,9.929615974E0
1.667495053E1,1.862214208E0,3.521636724E0,1.103091240E1
1.669481938E1,8.949156404E-1,3.765704632E0,1.153340530E1
1.671475996E1,2.283350945E0,3.099901676E0,1.368335629E1
1.673455178E1,2.350948334E0,3.023331404E0,1.620718575E1
1.675441522E1,1.474576950E0,2.252244234E0,1.556531143E1
1.677428407E1,-2.452643216E-2,2.779263496E0,1.191625690E1
1.679414746E1,-8.099704385E-1,4.153341770E0,7.783852100E0
1.681401636E1,-3.212364316E-1,4.929214478E0,6.333203316E0
1.683387975E1,1.143769264E0,4.823930264E0,6.663413048E0
1.685374860E1,1.124626637E0,4.311268330E0,6.419344902E0
1.687361204E1,-4.791627228E-1,3.550350666E0,4.916054249E0
1.689348089E1,-1.887338877E0,3.296113253E0,3.546163082E0
1.691334438E1,-2.078764677E0,2.831905603E0,2.330011129E0
1.693321319E1,-7.812566161E-1,2.056032896E0,1.707877159E0
1.695307662E1,1.286142170E-1,1.855035782E0,2.133799553E0
1.697294548E1,-2.446661144E-1,1.797608018E0,3.058027267E0
1.699280892E1,-2.973082066E-1,1.141376376E0,3.742972851E0
1.701267777E1,4.450650215E-1,7.154539824E-1,4.968696117E0
1.703254121E1,1.148554921E0,9.260223508E-1,6.970292568E0
1.705241011E1,1.086341500E0,1.572682738E0,8.507082939E0
1.707227355E1,1.086341500E0,2.946761131E0,9.948758125E0
1.709214241E1,2.178066730E0,4.977071285E0,1.258684540E1
1.711200584E1,2.350948334E0,6.849454880E0,1.563709641E1
1.713187470E1,-9.296116233E-1,7.117451191E0,1.602951813E1
1.715173813E1,-5.521438122E0,6.973881721E0,1.282134151E1
1.717160699E1,-5.042873859E0,6.159723759E0,1.050867844E1
1.719147043E1,-3.811766386E0,5.580660820E0,1.172961617E1
1.721133928E1,-3.706482172E0,4.306482315E0,1.029332447E1
1.723120266E1,-3.309273720E0,3.540779352E0,7.640282631E0
1.725107157E1,-2.150549412E0,3.123830080E0,6.567699909E0
1.727093501E1,-1.916052699E0,2.458625317E0,6.725626469E0
1.729080386E1,-2.595614433E0,3.133401155E0,7.429714203E0
1.731066730E1,-3.605983734E0,5.134997368E0,6.975078106E0
1.733053616E1,-2.796611547E0,5.925227165E0,6.404987812E0
1.735039959E1,-1.537388563E0,6.591030121E0,9.153742790E0
1.737026845E1,-1.207179070E0,5.058426857E0,1.122233772E1
1.739013188E1,-2.566900492E0,3.315255880E0,1.262513065E1
1.741000074E1,-4.214358807E0,3.272184849E0,1.338186073E1
1.742986418E1,-3.553341627E0,4.234697819E0,1.171047401E1
1.744973303E1,-1.125823021E0,5.249852657E0,9.148957253E0
1.746959647E1,2.051845491E-1,5.853442192E0,6.582056999E0
1.748946532E1,-7.812566161E-1,5.283352375E0,3.982254982E0
1.750932876E1,-2.499901533E0,3.914059639E0,2.330011129E0
1.752919761E1,-3.184846878E0,2.434697151E0,2.301297188E0
1.754906105E1,-1.140179992E0,1.749751568E0,3.062813044E0
1.756892996E1,1.326221943E0,2.146960020E0,3.584448338E0
1.758879334E1,1.307079315E0,2.300100803E0,3.359523058E0
1.760866220E1,7.513462901E-1,2.127817631E0,3.393022537E0
1.762852563E1,9.236295223E-1,1.725823283E0,3.781257868E0
1.764839449E1,1.771286964E0,1.941177368E0,5.045266628E0
1.766825793E1,2.958725214E0,2.764906645E0,7.243073940E0
1.768812678E1,3.811168194E0,3.310470104E0,9.072386742E0
1.770799022E1,3.686741590E0,3.851846218E0,1.044646549E1
1.772785907E1,2.676372051E0,4.320839405E0,1.119362450E1
1.774772251E1,2.906083107E0,3.693919897E0,1.172961617E1
1.776759136E1,2.681157827E0,3.224328518E0,1.363071442E1
1.778745480E1,7.848458290E-1,3.847060680E0,1.351107311E1
1.780732371E1,1.091127157E0,4.009772778E0,1.181097221E1
1.782718709E1,2.206780672E0,4.004986763E0,1.256770229E1
1.784705600E1,2.422732830E0,3.751347780E0,1.323829174E1
1.786691938E1,2.149353027E0,3.985844374E0,1.219920826E1
1.788678829E1,2.072782516E0,4.914857864E0,1.020239735E1
1.790665168E1,1.579861164E0,6.524031162E0,7.166503906E0
1.792652058E1,3.145365477E0,6.624529362E0,6.117849350E0
1.794638402E1,5.922834396E0,5.187639713E0,1.225663567E1
1.796625287E1,5.511268616E0,3.454637766E0,1.792104530E1
1.798611631E1,2.810370207E0,1.472184181E0,1.603909111E1
1.800598517E1,7.417750359E-1,1.284945726E0,1.251506042E1
1.802584860E1,7.896314859E-1,2.290529490E0,8.631509781E0
1.804571751E1,1.594218135E0,3.765704632E0,4.226323128E0
1.806558089E1,2.288136721E0,4.680361271E0,7.405785918E-1
1.808544980E1,2.413161755E0,4.560719967E0,9.870393574E-2
1.810531319E1,1.756929994E0,3.512065411E0,3.671188116E0
1.812518209E1,1.570289850E0,2.985046148E0,8.191229820E0
1.814504548E1,2.096710920E0,2.851048231E0,1.120319557E1
1.816491433E1,2.542374134E0,3.008974552E0,1.126062298E1
1.818477777E1,3.016152859E0,2.951546669E0,9.775876999E0
1.820464668E1,2.757728100E0,2.918047190E0,9.172885895E0
1.822451006E1,3.202793121E0,2.678765059E0,9.316454887E0
1.824437897E1,3.835096598E0,3.329612732E0,1.067617607E1
1.826424235E1,3.969094515E0,5.005784988E0,1.084367371E1
1.828411126E1,6.291328907E0,4.469792843E0,1.046560764E1
1.830397464E1,6.756134510E0,4.551148891E0,1.384606838E1
1.832384355E1,5.889334679E0,3.756133318E0,1.588116360E1
1.834370694E1,4.399802685E0,2.602194548E0,1.539302826E1
1.836357584E1,1.977069736E0,2.812762976E0,1.260598755E1
1.838343923E1,1.062413216E0,3.622135162E0,8.813364029E0
1.840330813E1,1.776072621E0,4.210769653E0,5.787639618E0
1.842317152E1,1.852642894E0,4.373481750E0,4.245465755E0
1.844304043E1,1.091127157E0,4.095914364E0,4.537389755E0
1.846290381E1,6.556333899E-1,3.382853031E0,6.548557281E0
1.848273423E1,1.076770186E0,2.874976397E0,8.052446365E0
1.850263610E1,1.943570137E0,3.090330362E0,8.076375008E0
1.852250496E1,2.752942562E0,3.502494097E0,6.677769661E0
1.854236839E1,3.274577856E0,3.521636724E0,5.227120876E0
1.856223730E1,3.193221807E0,3.171686411E0,4.326821327E0
1.858210069E1,3.135794163E0,2.597409010E0,4.508676052E0
1.860196959E1,3.524029493E0,2.578266382E0,6.639484406E0
1.862183298E1,5.530411243E0,3.512065411E0,9.598808289E0
1.864170183E1,8.479565620E0,4.814359188E0,1.087717342E1
1.866156527E1,9.681958199E0,4.843072891E0,1.180140114E1
1.868143418E1,8.920442581E0,4.335196495E0,1.570888042E1
1.870129756E1,7.876574039E0,3.353540897E0,1.727019691E1
1.872116647E1,5.602196217E0,3.171686411E0,1.458365536E1
1.874102985E1,4.184448719E0,3.847060680E0,1.049910736E1
1.876089876E1,5.453242779E0,4.804787636E0,8.172087669E0
1.878076214E1,5.468197823E0,5.187639713E0,6.098706722E0
1.880063105E1,2.958725214E0,4.565505505E0,3.733401537E0
1.882049449E1,5.204389244E-2,3.401995659E0,3.378665686E0
1.884036334E1,-1.580459356E0,2.573480844E0,4.983053207E0
1.886022673E1,-8.961120844E-1,2.358126640E0,6.069993019E0
1.888009563E1,2.243271172E-1,2.425125837E0,6.175277233E0
1.889995907E1,5.982056856E-1,2.103889227E0,4.959125042E0
1.891982793E1,1.599003673E0,1.083948612E0,3.278167009E0
1.893969136E1,3.092723370E0,3.661018610E-1,2.239083767E0
1.895956022E1,4.131806374E0,5.144568682E-1,2.550150633E0
1.897942366E1,5.573482037E0,1.174875975E0,5.428118229E0
1.899929251E1,7.019345284E0,1.634896040E0,8.382656097E0
1.901915595E1,6.957131863E0,1.754537225E0,8.152944565E0
1.903902480E1,5.280959606E0,2.726621389E0,5.700900078E0
1.905888824E1,4.448257446E0,4.469792843E0,1.841875196E0
1.907875709E1,6.588637352E0,4.411766529E0,3.364308596E0
1.909862053E1,7.086344242E0,4.191627026E0,1.858684731E1
1.911848938E1,4.294518471E0,3.233899832E0,2.242254257E1
1.913835282E1,1.477568001E-1,3.435495138E0,1.486600876E1
1.915822168E1,-3.308077157E-1,5.407779217E0,9.211171150E0
1.917808511E1,2.278565407E0,6.988238335E0,5.950351715E0
1.919795397E1,4.539184570E0,7.366304398E0,4.906482697E0
1.921781740E1,4.725824833E0,6.461219311E0,6.409773827E0
1.923768626E1,3.365504980E0,5.800800323E0,9.077172279E0
1.925754970E1,3.457030535E0,6.854240417E0,8.215158463E0
1.927741855E1,8.800801277E0,5.513661385E0,8.315656662E0
1.929728199E1,1.105603695E1,4.182055950E0,1.510110378E1
1.931715084E1,9.897313118E0,1.572682738E0,1.740419579E1
1.933701428E1,5.726622581E0,4.953143001E-1,1.236670589E1
1.935688313E1,4.050450325E0,1.831107497E0,8.895318031E0
1.937674657E1,5.525625706E0,3.559921980E0,7.396214962E0
1.939661543E1,7.488338470E0,4.339982033E0,7.214360237E0
1.941647886E1,5.511268616E0,3.832703590E0,7.640282631E0
1.943634772E1,2.729014158E0,2.798406124E0,6.586842537E0
1.945621116E1,1.244267821E0,2.520838737E0,5.590830326E0
1.947608001E1,1.742573142E0,2.903690338E0,5.749354839E0
1.949594345E1,2.571087837E0,3.353540897E0,6.175277233E0
1.951592803E1,2.537588358E0,3.367897987E0,6.127420425E0
1.953567595E1,2.264208317E0,3.090330362E0,6.668198586E0
1.955554480E1,2.168495417E0,2.980260611E0,6.893722057E0
1.957540819E1,2.139781713E0,2.985046148E0,6.404987812E0
1.959527704E1,2.120639086E0,2.937189817E0,6.189633846E0
1.961514043E1,2.173281193E0,2.640479803E0,6.452844620E0
1.963500928E1,2.398804665E0,2.247458696E0,7.166503906E0
1.965487267E1,2.829512835E0,2.118246317E0,7.803592682E0
1.967474157E1,2.379662037E0,3.468994617E0,7.692924976E0
1.969460496E1,1.110269666E0,5.992226124E0,6.117849350E0
1.971447381E1,3.538386583E0,5.618945599E0,9.737591743E0
1.973433725E1,5.199603558E0,4.052843571E0,1.914198303E1
1.975420610E1,3.006581545E0,2.261815548E0,2.099043846E1
1.977406949E1,-4.845465720E-2,2.242672920E0,1.694417572E1
1.979393839E1,-1.025324464E0,3.579064369E0,1.150947666E1
1.981380183E1,-3.930211067E-1,4.962714195E0,7.597211838E0
1.983367069E1,8.327022791E-1,5.901299000E0,6.156134605E0
1.985353412E1,1.900499344E0,6.303293228E0,5.566901684E0
1.987340298E1,1.622931957E0,5.772086620E0,4.877768993E0
1.989326642E1,4.929214716E-1,4.613361835E0,4.796412945E0
1.991313527E1,1.381855011E-1,3.722633839E0,6.285346985E0
1.993299871E1,1.182054400E0,3.612564087E0,8.612366676E0
1.995286761E1,3.317648649E0,3.574278831E0,1.053260708E1
1.997273100E1,3.820739508E0,4.479363918E0,1.095434189E1
1.999259991E1,2.321636200E0,7.093522549E0,6.658627033E0
2.001246329E1,3.404388428E0,7.256234646E0,4.791627407E0
2.003233220E1,3.600599766E0,6.446862221E0,1.214177990E1
2.005219558E1,2.192423820E0,4.244269371E0,1.745683670E1
2.007206449E1,-5.078766346E-1,3.569493294E0,1.590030670E1
2.009192787E1,-1.604387641E0,4.642076015E0,1.160519028E1
2.011179678E1,-9.343972206E-1,5.379065514E0,7.774280548E0
2.013166022E1,6.556333899E-1,5.504090309E0,5.662614822E0
2.015152907E1,1.838286042E0,5.048855782E0,4.168895245E0
2.017139251E1,1.584646821E0,4.196412563E0,2.215155602E0
2.019126136E1,9.188438654E-1,3.397209883E0,5.778666735E-1
2.021112480E1,7.226324677E-1,2.994617462E0,4.480560422E-1
2.023099366E1,1.115055323E0,2.712264538E0,1.655235052E0
2.025085709E1,2.154138565E0,2.592623234E0,3.158525944E0
2.027072600E1,3.111865759E0,2.669193745E0,3.939184189E0
2.029058938E1,3.121437073E0,2.726621389E0,4.427320004E0
2.031045829E1,3.054438114E0,2.989831924E0,5.073980331E0
2.033032168E1,3.390031576E0,3.555136204E0,5.825924873E0
2.035019058E1,3.624528170E0,4.004986763E0,6.553342819E0
2.037005402E1,3.375076294E0,4.172484398E0,7.109076023E0
2.039003860E1,2.513660192E0,4.115056515E0,7.252645493E0
2.040978652E1,2.034497499E0,4.306482315E0,7.008577347E0
2.042965532E1,2.283350945E0,4.373481750E0,8.200801849E0
2.044951876E1,3.461816072E0,3.052045345E0,1.143769264E1
2.046938756E1,2.082353830E0,4.052843571E0,1.483250904E1
2.048925100E1,-4.793421745E0,1.110628605E1,1.242413330E1
2.050911985E1,1.331007600E0,1.186301613E1,8.449654579E0
2.052898324E1,6.186044693E0,9.272188187E0,1.976471519E1
2.054885214E1,3.490530014E0,4.934000492E0,3.019383240E1
2.056871558E1,-9.248259664E-1,4.924428940E0,2.211087799E1
2.058858438E1,-3.797409534E0,7.184450150E0,1.195514011E1
2.060844787E1,3.445664644E-1,8.089534760E0,7.750352383E0
2.062831668E1,3.969094515E0,9.104690552E0,7.779066563E0
2.064818011E1,3.322434187E0,8.352746010E0,1.015932655E1
2.066804897E1,1.512862086E0,5.020142078E0,1.068096161E1
2.068791241E1,-2.733799815E-1,1.582253933E0,1.018804073E1
2.070778126E1,-2.389831543E0,1.203589797E0,1.010668468E1
2.072764470E1,-1.944766641E0,1.012163997E0,9.896116257E0
2.074751360E1,-6.466603279E-1,8.350951076E-1,1.016889763E1
2.076737704E1,6.699903607E-1,8.159525394E-1,1.121755219E1
2.078724589E1,-6.281159073E-2,1.869392633E0,1.175354481E1
2.080710933E1,-7.716853172E-2,2.434697151E0,1.117448139E1
2.082697824E1,1.024128079E0,2.123031855E0,1.034596729E1
2.084684162E1,1.752144337E0,2.894119024E0,7.764709473E0
2.086671053E1,2.243271172E-1,3.421138287E0,9.728020668E0
2.088657397E1,6.747759581E-1,2.578266382E0,1.001575756E1
2.090644282E1,2.446661234E0,3.061616659E0,9.737591743E0
2.092630621E1,1.981855392E0,4.484149456E0,1.200299644E1
2.094617511E1,9.619147182E-1,4.349553585E0,1.196471119E1
2.096603855E1,-6.179464459E-1,4.292125702E0,1.086281681E1
2.098590751E1,-9.248259664E-1,4.182055950E0,9.972686768E0
2.100577084E1,-4.791627228E-1,4.153341770E0,8.641080856E0
2.102563975E1,-3.882354796E-1,4.406980991E0,7.491927624E0
2.104550319E1,-1.020538807E0,4.795216560E0,6.951149940E0
2.106537204E1,-1.298106313E0,4.986642361E0,7.396214962E0
2.108523548E1,-1.992623091E0,5.206781864E0,7.357929707E0
2.110510438E1,-2.447259426E0,5.264209747E0,6.218348026E0
2.112496782E1,-2.523829699E0,5.106283665E0,5.313262463E0
2.114483668E1,-2.667398930E0,4.977071285E0,6.237490654E0
2.116470011E1,-2.088335991E0,4.484149456E0,7.022934437E0
2.118456902E1,-2.442473650E0,4.406980991E0,5.117051125E0
2.120443241E1,-3.802195072E0,4.957928658E0,4.479962349E0
2.122430131E1,-3.562912941E0,5.120640278E0,6.663413048E0
2.124416475E1,-2.241476536E0,5.805585861E0,8.674580574E0
2.126403360E1,-1.652244091E0,6.231508255E0,7.659425259E0
2.131763840E1,-3.768695593E0,4.316053867E0,9.182456970E0
2.133750720E1,-3.897907972E0,4.847858906E0,8.497511864E0
2.135737059E1,-3.361915827E0,5.480162144E0,7.286144733E0
2.137723944E1,-3.170490026E0,5.748157978E0,6.845865726E0
2.139710277E1,-3.562912941E0,5.518447399E0,7.319644451E0
2.141697163E1,-3.232703447E0,5.192425251E0,7.764709473E0
2.143683496E1,-2.030908108E0,4.847858906E0,7.985447407E0
2.145670382E1,-1.197607756E0,4.795216560E0,8.698508263E0
2.147656715E1,-1.192822099E0,5.106283665E0,8.991030693E0
2.149643600E1,-1.542174220E0,5.412564754E0,7.439285755E0
2.151629939E1,-1.901695848E0,5.465805054E0,5.921638012E0
2.153616819E1,-2.059622049E0,5.393422127E0,5.466403484E0
2.155603152E1,-1.800599098E0,5.331208706E0,5.840281963E0
2.157590038E1,-1.561316729E0,5.249852657E0,6.629913330E0
2.159576371E1,-1.585245013E0,5.321637630E0,7.104290485E0
2.161563257E1,-1.609173179E0,5.240281582E0,7.233502865E0
2.163549590E1,-1.786242127E0,4.934000492E0,7.228717327E0
2.165536475E1,-2.308475733E0,4.689932346E0,7.214360237E0
2.167522809E1,-2.662613392E0,4.584648132E0,7.085147858E0
2.169509694E1,-2.514258385E0,4.608576298E0,7.185646534E0
2.171496027E1,-2.356332064E0,4.608576298E0,7.496713161E0
2.173482908E1,-2.341975212E0,4.498506546E0,7.578069210E0
2.175469246E1,-2.629113913E0,4.421936035E0,7.735995770E0
2.177456132E1,-2.820539713E0,4.229912281E0,7.947162151E0
2.179442465E1,-2.600399971E0,4.196412563E0,8.248658180E0
2.181429350E1,-2.442473650E0,3.880560160E0,8.967103004E0
2.183415684E1,-2.150549412E0,3.775275946E0,9.872187614E0
2.185402569E1,-9.056833982E-1,3.119044304E0,1.089153004E1
2.187388902E1,-7.280163169E-1,2.472982168E0,1.145683479E1
2.189375783E1,-6.514459848E-1,1.869392633E0,1.051825047E1
2.191362121E1,-1.628315806E0,1.922034740E0,9.211171150E0
2.193349001E1,-2.447259426E0,2.257030010E0,8.876175880E0
2.195335340E1,-1.542174220E0,2.084746838E0,1.001097202E1
2.197322220E1,-1.393819153E-1,1.620539188E0,1.102134132E1
2.199308553E1,5.886343718E-1,1.203589797E0,1.126062298E1
2.201295439E1,1.129412293E0,5.479564071E-1,1.070489025E1
2.203281777E1,1.503290772E0,2.847459018E-1,1.066660500E1
2.205268658E1,1.172483087E0,3.996013701E-1,1.043689442E1
2.207254991E1,1.239482164E0,7.441678643E-1,1.023589706E1
2.209241871E1,1.642074585E0,8.542376757E-1,9.809376717E0
2.211228210E1,1.661217093E0,6.340979934E-1,9.565308571E0
2.213215095E1,1.728216171E0,7.776673436E-1,8.219944000E0
2.215201428E1,1.795215130E0,9.786644578E-1,7.104290485E0
2.217188309E1,1.383649707E0,1.069591761E0,6.404987812E0
2.219174647E1,1.503290772E0,9.260223508E-1,6.309275150E0
2.221161527E1,1.771286964E0,8.255237937E-1,6.629913330E0
2.223147866E1,1.890928149E0,4.857429862E-1,6.908079147E0
2.225134746E1,2.278565407E0,2.656033039E-1,7.180860519E0
2.227121080E1,2.034497499E0,-5.084748194E-2,7.463213921E0
2.229107965E1,1.182054400E0,-5.676971674E-1,7.099504948E0
2.231094298E1,6.125625968E-1,-9.559326172E-1,6.605985165E0
2.233081184E1,6.604190469E-1,-1.147358418E0,7.027719975E0
2.235067517E1,1.268195987E0,-1.233500123E0,8.688937187E0
2.237054397E1,2.211566210E0,-1.247856975E0,1.071924686E1
2.239040736E1,3.083152056E0,-1.611566067E0,1.165304661E1
2.241027611E1,2.010569334E0,-2.901297510E-1,1.196471119E1
2.243013955E1,8.183453679E-1,5.240281820E-1,1.293141174E1
2.245000835E1,5.599204898E-1,7.633104324E-1,1.241456223E1
2.246987173E1,-4.265206456E-1,2.223530531E0,1.084845924E1
2.248974053E1,4.163511395E-1,2.237887383E0,9.345169067E0
2.250960387E1,1.943570137E0,1.472184181E0,1.119362450E1
2.252947272E1,1.536790371E0,5.527420044E-1,1.651825333E1
2.254933606E1,6.221339107E-1,-4.049852192E-1,1.814597130E1
2.256920491E1,6.795616150E-1,-4.127619043E-2,1.650868225E1
2.258906824E1,2.268994093E0,6.197410822E-1,1.352542973E1
2.260893710E1,3.255435228E0,1.289731383E0,9.953543663E0
2.262880043E1,2.134995937E0,2.065604210E0,7.880163193E0
2.264866928E1,7.848458290E-1,2.170888424E0,7.463213921E0
2.266853262E1,2.434697002E-1,1.945963025E0,6.783652306E0
2.268840147E1,4.737788737E-1,1.816750646E0,5.571687698E0
2.270826481E1,3.290131316E-2,2.377269268E0,4.657031059E0
2.272813366E1,-5.988038778E-1,2.922832966E0,4.527818680E0
2.274799704E1,-4.408775866E-1,2.487339020E0,4.925625324E0
2.276786585E1,-2.446661144E-1,1.893320918E0,5.083551884E0
2.278772923E1,-9.200403094E-1,2.017747641E0,5.107480049E0
2.280759803E1,-1.259821177E0,1.941177368E0,5.351547718E0
2.282746142E1,-1.020538807E0,1.759322882E0,6.366703033E0
2.284733027E1,-5.509474277E-1,1.443470240E0,7.707281590E0
2.286719366E1,-4.025924206E-1,8.733802438E-1,9.182456970E0
2.288706246E1,-2.590230405E-1,1.136590727E-2,1.093519974E1
2.290692585E1,2.482553422E-1,-7.399803996E-1,1.303729439E1
2.292679470E1,2.051845491E-1,-2.039881349E-1,1.400399494E1
2.294665809E1,-1.020538807E0,1.510469317E0,1.157647610E1
2.296652694E1,7.657032609E-1,1.807179332E0,9.474381447E0
2.298639033E1,1.493719578E0,1.721037745E0,1.257248878E1
2.300625918E1,1.431506157E0,-8.434699476E-2,1.620240021E1
2.302612256E1,8.374879360E-1,-1.271785259E0,1.774397659E1
2.304610715E1,-3.499503136E-1,-1.066002488E0,1.592423439E1
2.306585501E1,-1.355534077E0,3.948157430E-1,1.221835041E1
2.308572382E1,-1.168893814E0,1.543968797E0,8.967103004E0
2.310558720E1,-9.774680734E-1,2.266601324E0,8.105088234E0
2.312545600E1,-8.482556343E-1,2.065604210E0,8.617152214E0
2.314531944E1,-7.280163169E-1,1.591825247E0,9.857233047E0
2.316518824E1,-2.781656384E-1,9.690931439E-1,1.061396313E1
2.318505163E1,1.190429255E-1,6.867401004E-1,1.037946606E1
2.320492053E1,2.775674164E-1,8.015955687E-1,9.388239861E0
2.322478392E1,3.110669553E-1,8.446664214E-1,8.909674644E0
2.324465277E1,1.812563092E-1,5.718846321E-1,8.660223007E0
2.326451621E1,-8.195417374E-2,4.474578202E-1,8.286943436E0
2.328438507E1,3.768695518E-2,6.675975323E-1,7.880163193E0
2.330424845E1,8.554340899E-2,6.005984545E-1,7.587640762E0
2.332411736E1,2.823530734E-1,8.781659007E-1,7.104290485E0
2.334398080E1,5.551348329E-1,1.472184181E0,7.233502865E0
2.336384965E1,7.082754970E-1,2.276172638E0,8.344370842E0
2.338371314E1,2.063211441E0,2.213959217E0,1.019282627E1
2.340358199E1,3.892524242E0,1.539183140E0,1.199821091E1
2.342344543E1,4.366302967E0,1.491326690E0,1.266820145E1
2.344331434E1,2.729014158E0,3.037688255E0,1.165783215E1
2.346317777E1,2.642872572E0,4.239483356E0,9.201599121E0
2.348304663E1,1.632503271E0,5.595017433E0,8.239086151E0
2.350291012E1,2.003988922E-1,6.068796635E0,1.023111153E1
2.352277902E1,1.398006678E0,3.464209080E0,1.324307728E1
2.354264246E1,1.651645780E0,2.673979282E0,1.483250904E1
2.356251137E1,1.546361685E0,3.483351469E0,1.382213974E1
2.358237486E1,2.824727058E0,4.234697819E0,1.101177025E1
2.360224376E1,3.500101328E0,4.479363918E0,8.736793518E0
2.362210720E1,2.451446772E0,4.153341770E0,7.774280548E0
2.364197611E1,9.475577474E-1,3.516851187E0,7.314858913E0
2.366183960E1,3.349951804E-1,3.267399311E0,7.209574699E0
2.368170850E1,8.566305041E-1,3.219542980E0,6.893722057E0
2.370157199E1,1.599003673E0,3.190829039E0,6.127420425E0
2.372144090E1,1.613360643E0,3.099901676E0,5.308476925E0
2.374130439E1,1.048056364E0,2.836691141E0,4.805984497E0
2.376117330E1,4.929214716E-1,2.573480844E0,4.796412945E0
2.378103678E1,2.003988922E-1,2.449054003E0,5.830710411E0
2.380102142E1,4.498506486E-1,2.185245275E0,7.530212879E0
2.382076939E1,1.004985452E0,1.945963025E0,8.770293236E0
2.384063830E1,1.728216171E0,1.673181176E0,8.822935104E0
2.386050173E1,2.130210400E0,1.716252089E0,7.975875854E0
2.388037069E1,1.694716692E0,2.247458696E0,7.305287361E0
2.390023418E1,1.220339537E0,2.874976397E0,7.458428383E0
2.392021871E1,1.148554921E0,3.181257725E0,8.564510345E0
2.393996678E1,6.604190469E-1,3.435495138E0,1.043210888E1
2.395983559E1,-9.822536707E-1,4.570291042E0,1.105962658E1
2.397969913E1,-1.499103427E0,5.321637630E0,1.012104130E1
2.399956798E1,-1.633101404E-1,5.355136871E0,1.050389290E1
2.401943152E1,-7.040880919E-1,6.001797199E0,1.260598755E1
2.403930043E1,1.375873014E-2,4.441078663E0,1.396570969E1
2.405916392E1,-6.897311211E-1,3.602992773E0,1.506222057E1
2.407903288E1,-1.475175142E0,3.358326674E0,1.444008636E1
2.409889637E1,-1.369890928E0,3.736990690E0,1.220399380E1
2.411876527E1,-4.504488707E-1,4.363910198E0,1.003489971E1
2.413862887E1,-4.073780477E-1,4.761716843E0,9.460023880E0
2.415849777E1,-4.887340367E-1,4.024129391E0,1.004447079E1
2.417836126E1,-1.154536903E-1,3.243471146E0,1.029811001E1
2.419823022E1,5.982056856E-1,2.841476917E0,9.799804688E0
2.421809371E1,1.153340459E0,2.841476917E0,9.043673515E0
2.423796272E1,1.374078393E0,2.860619545E0,8.607581139E0
2.425782614E1,1.388435364E0,2.396411896E0,7.928019524E0
2.427769510E1,9.427721500E-1,1.984248161E0,7.075576782E0
2.429755864E1,3.589234054E-1,1.859821439E0,6.328417778E0
2.431742760E1,1.190429255E-1,2.012962103E0,5.681757450E0
2.433729114E1,3.684946895E-1,2.247458696E0,5.227120876E0
2.435716010E1,6.891329288E-1,2.420340061E0,5.490331650E0
2.437702364E1,8.470591903E-1,2.204387903E0,5.758925915E0
2.439689260E1,5.838487148E-1,2.056032896E0,5.217549801E0
2.441675608E1,-1.974078640E-2,2.449054003E0,4.417748928E0
2.443662510E1,-1.872383654E-1,3.320041418E0,4.317250252E0
2.445648858E1,5.024927258E-1,3.995415688E0,5.892923832E0
2.447635760E1,1.378864050E0,3.861417532E0,8.598010063E0
2.449622108E1,1.627717614E0,4.532006264E0,1.172961617E1
2.451609004E1,2.125424623E0,6.111867428E0,1.276391411E1
2.453595358E1,3.696312666E0,6.806384087E0,1.333400440E1
2.455582260E1,1.924427629E0,6.500102520E0,1.716969872E1
2.457568608E1,2.051845491E-1,4.124628067E0,2.003271103E1
2.459555510E1,-6.801598072E-1,3.602992773E0,1.839063644E1
2.461541864E1,1.429711580E-1,5.201996326E0,1.516810226E1
2.463528760E1,3.279363394E0,5.882156372E0,1.193061352E1
2.465515114E1,5.204389095E0,5.355136871E0,8.583653450E0
2.467502010E1,2.910868645E0,5.288137913E0,6.534200668E0
2.469488364E1,5.503492355E-1,3.971487284E0,5.566901684E0
2.471475260E1,-6.275177598E-1,2.678765059E0,5.845067501E0
2.473461614E1,-1.211964726E0,2.151745796E0,6.658627033E0
2.475448515E1,-1.116251707E0,2.108675003E0,6.903293133E0
2.477434864E1,-4.887340367E-1,2.247458696E0,6.381059647E0
2.479421765E1,5.682953820E-2,2.391626120E0,5.346762180E0
2.481408119E1,-6.759724021E-2,2.434697151E0,4.020540237E0
2.483395015E1,-5.700899959E-1,2.175673962E0,3.067598581E0
2.485381369E1,-4.025924206E-1,1.941177368E0,2.617748022E0
2.487368270E1,-1.495514158E-2,2.022533417E0,2.703889608E0
2.489354619E1,2.530409992E-1,1.974676847E0,3.378665686E0
2.491341520E1,5.216353536E-1,1.419542074E0,5.140979290E0
2.493327874E1,1.038485050E0,6.005984545E-1,6.884150982E0
2.495314775E1,1.933998942E0,6.771687865E-1,8.483154297E0
2.497301129E1,3.116651535E0,2.008176327E0,1.078146076E1
2.499288025E1,3.748954773E0,3.109472990E0,1.235713387E1
2.501274379E1,3.073580742E0,3.780061483E0,1.226142120E1
2.503261280E1,2.044068813E0,4.129413605E0,1.081496048E1
2.505247635E1,7.226324677E-1,4.493721008E0,1.012104130E1
2.507234530E1,-1.020538807E0,5.077569485E0,1.094477081E1
2.509220885E1,-1.116251707E0,4.747360229E0,1.147119141E1
2.511207786E1,-4.504488707E-1,4.833501816E0,1.155254745E1
2.513194140E1,1.668993831E-1,4.570291042E0,1.026939678E1
2.515181036E1,5.982056856E-1,4.613361835E0,8.535796165E0
2.517167390E1,1.445863128E0,4.828716278E0,7.712067604E0
2.519154291E1,2.355733871E0,4.522434711E0,8.425726891E0
2.521140645E1,2.618944407E0,4.244269371E0,9.455238342E0
2.523127546E1,3.538386583E0,5.139782906E0,9.330811501E0
2.525113900E1,5.573482037E0,6.049654007E0,9.373882294E0
2.527100796E1,5.247459888E0,5.614160061E0,1.364985657E1
2.529087150E1,4.941178799E0,1.826321840E0,1.744726562E1
2.531074051E1,2.480160713E0,1.002592683E0,1.627418518E1
2.533060405E1,8.374879360E-1,3.257827997E0,1.391785336E1
2.535047301E1,2.125424623E0,4.608576298E0,1.164347458E1
2.537033655E1,2.968296528E0,4.742574692E0,9.278169632E0
2.539020556E1,2.839084148E0,3.971487284E0,6.960721016E0
2.541006910E1,1.948355794E0,3.119044304E0,6.299703598E0
2.542993812E1,5.982056856E-1,2.874976397E0,7.381857872E0
2.544980160E1,-2.350948304E-1,3.233899832E0,8.904889107E0
2.546967062E1,1.095912814E0,3.128615618E0,9.436096191E0
2.548964989E1,1.790429592E0,3.392424345E0,8.468797684E0
2.550940332E1,1.833500385E0,3.343969584E0,6.529414654E0
2.552926687E1,1.326221943E0,3.267399311E0,4.628317356E0
2.554913582E1,6.221339107E-1,2.989831924E0,3.455235958E0
2.556899937E1,6.556333899E-1,2.635694027E0,3.402593851E0
2.558886827E1,1.354935765E0,2.444268227E0,4.197608948E0
2.560873187E1,1.747358680E0,2.180459738E0,4.705485821E0
2.562860082E1,1.766501307E0,2.012962103E0,5.002195835E0
2.564846437E1,2.532802820E0,1.826321840E0,5.892923832E0
2.566833327E1,3.777668715E0,1.500898004E0,7.549355507E0
2.568819692E1,4.036093712E0,1.419542074E0,1.132762241E1
2.570806582E1,3.930809498E0,2.032104731E0,1.524467278E1
2.572792936E1,4.515256405E0,1.668395638E0,1.503350639E1
2.574779838E1,3.485744476E0,1.869392633E0,1.468894005E1
2.576766192E1,9.140582681E-1,2.985046148E0,1.426780319E1
2.578753093E1,-1.824527234E-1,3.421138287E0,1.253420353E1
2.580739447E1,-3.260220885E-1,3.794418573E0,1.147119141E1
2.582726343E1,-2.063809484E-1,3.588635683E0,1.076710415E1
2.584712697E1,2.243271172E-1,2.985046148E0,9.603593826E0
2.586699598E1,4.307080805E-1,3.329612732E0,8.569295883E0
2.588685952E1,2.333002165E-2,3.593421459E0,9.570094109E0
2.590672853E1,-2.303091735E-1,2.194816589E0,1.060917759E1
2.592659207E1,-2.733799815E-1,2.003390789E0,9.699306488E0
2.594646103E1,5.072783828E-1,3.502494097E0,8.928817749E0
2.596632457E1,5.312066078E-1,4.646861553E0,1.044167995E1
2.598619358E1,5.694918036E-1,3.468994617E0,1.209392357E1
2.600605713E1,3.254238665E-1,2.472982168E0,1.316172123E1
2.602592608E1,-3.403790295E-1,2.382055044E0,1.273998642E1
2.604578963E1,-1.393819153E-1,2.760120869E0,1.159083271E1
2.606565864E1,1.465005636E0,3.497708559E0,1.045125103E1
2.608552218E1,2.273779631E0,4.004986763E0,8.919246674E0
2.610539114E1,1.004985452E0,3.923630953E0,7.511070251E0
2.612525468E1,-1.633101404E-1,3.531208038E0,6.481558323E0
2.614512369E1,-3.888336942E-2,3.708276987E0,5.806782246E0
2.616498723E1,8.757730722E-1,4.043272018E0,6.113063812E0
2.618485624E1,1.747358680E0,4.009772778E0,6.658627033E0
2.620471973E1,1.321436286E0,3.593421459E0,6.793223381E0
2.622458874E1,6.747759581E-1,2.970689297E0,6.596413612E0
2.624445223E1,3.493520916E-1,2.879761934E0,6.079564095E0
2.626432124E1,1.956132501E-1,3.248256683E0,6.184848309E0
2.628418478E1,1.621137410E-1,3.540779352E0,7.702496052E0
2.630405379E1,5.838487148E-1,3.555136204E0,9.407382011E0
2.632391728E1,1.296909928E0,3.516851187E0,9.732806206E0
2.634378629E1,1.402792215E0,3.976273060E0,9.187242508E0
2.636364983E1,1.167697430E0,4.182055950E0,9.163313866E0
2.638351884E1,7.417750359E-1,4.024129391E0,1.006839943E1
2.640338233E1,-1.010967568E-1,4.426722050E0,1.068096161E1
2.642325135E1,-2.398804724E-1,4.756931305E0,1.154776192E1
2.644311489E1,1.589432478E0,3.894917011E0,1.526860142E1
2.646298385E1,2.106282234E0,1.907677889E0,1.733719635E1
2.648284739E1,-8.195417374E-2,1.572682738E0,1.599123383E1
2.650271640E1,-1.738385677E0,2.726621389E0,1.342971706E1
2.652257989E1,-1.570888042E0,3.276970625E0,1.086760235E1
2.654244890E1,-1.140179992E0,3.937987804E0,8.861818314E0
2.656231244E1,-8.291130662E-1,4.397409916E0,7.745566845E0
2.658218140E1,-1.058824062E0,4.191627026E0,8.033304214E0
2.660204494E1,-1.930409670E0,3.286541939E0,8.779864311E0
2.662191395E1,-2.002194405E0,2.386840582E0,9.168100357E0
2.664177744E1,-1.518245935E0,2.070389748E0,8.693722725E0
2.666164645E1,-9.774680734E-1,2.372483730E0,7.544569969E0
2.668150983E1,-1.393819153E-1,2.616551638E0,6.347560406E0
2.670137895E1,-5.383851007E-3,2.769692183E0,5.811567783E0
2.672124249E1,-2.207378894E-1,2.621337175E0,6.194419384E0
2.674111145E1,-3.786641955E-1,2.358126640E0,6.385845661E0
2.676097499E1,-2.877369225E-1,2.358126640E0,6.443273067E0
2.678084395E1,4.187439568E-3,2.487339020E0,6.208776474E0
2.680070749E1,3.768695518E-2,2.563909531E0,5.523830891E0
2.682057650E1,-5.078766346E-1,2.693121910E0,5.318048477E0
2.684044004E1,-1.001396298E0,2.583052158E0,5.523830891E0
2.686030900E1,-1.073180914E0,2.377269268E0,5.859424591E0
2.688017254E1,-1.006181955E0,2.185245275E0,5.466403484E0
2.690004145E1,-1.192822099E0,2.170888424E0,4.436891556E0
2.691990504E1,-1.312463164E0,2.257030010E0,3.546163082E0
2.693977400E1,-1.025324464E0,2.319243431E0,3.144168854E0
2.695963754E1,-2.112264156E0,3.013760090E0,3.541377544E0
2.697950655E1,-1.930409670E0,3.262613773E0,5.241477966E0
2.699937004E1,1.381855011E-1,2.458625317E0,8.133802414E0
2.701923895E1,2.072782516E0,1.984248161E0,1.194497108E1
2.703910254E1,3.145365477E0,3.224328518E0,1.429173183E1
2.705897150E1,2.480160713E0,7.610970497E0,1.304207993E1
2.707883504E1,4.840680122E0,9.209974289E0,1.396092415E1
2.709870405E1,6.890132904E0,3.200400352E0,2.863311386E1
2.711856754E1,7.986643791E0,-2.933600664E0,3.328715515E1
2.713843650E1,3.926023722E0,-7.884350419E-1,2.607099915E1
2.715830004E1,3.158525825E-1,4.603790760E0,1.675753593E1
2.717816900E1,3.562314749E0,5.537590027E0,7.630711555E0
2.719803254E1,3.164507866E0,6.772884369E0,2.737389088E0
2.721790150E1,1.062413216E0,6.930810928E0,2.861815929E0
2.723776504E1,-1.743171334E0,5.748157978E0,6.113063812E0
2.725763400E1,-8.578268886E-1,1.931606054E0,7.999804497E0
2.727749754E1,8.973085321E-3,1.118644550E-1,8.282156944E0
2.729736650E1,-2.685943544E-1,9.738788009E-1,7.999804497E0
2.731723004E1,3.110669553E-1,1.515254974E0,6.333203316E0
2.733709900E1,8.279166222E-1,1.620539188E0,4.734199524E0
2.735696254E1,8.422735929E-1,1.558325768E0,3.579662561E0
2.737683150E1,8.039883971E-1,1.582253933E0,3.838685751E0
2.739669504E1,8.997012973E-1,1.265803218E0,4.460819721E0
2.741656400E1,1.182054400E0,1.150947690E0,4.427320004E0
2.743642749E1,1.100698471E0,1.472184181E0,3.728615999E0
2.745629650E1,4.307080805E-1,1.922034740E0,3.024527788E0
2.747615999E1,-3.595215976E-1,2.358126640E0,2.574079037E0
2.749602895E1,-1.106680512E0,2.300100803E0,2.952743053E0
2.751589249E1,-1.700100541E0,2.252244234E0,3.719044685E0
2.753576145E1,-1.829911113E0,2.271386862E0,4.489533424E0
2.755562499E1,-1.551745534E0,2.602194548E0,6.213562012E0
2.757549395E1,-2.892922640E0,4.196412563E0,9.330811501E0
2.759543463E1,-4.869992256E0,6.533602238E0,1.411466217E1
2.761522655E1,-4.936991215E0,7.610970497E0,2.057408714E1
2.763509010E1,-5.760720730E0,6.825526714E0,2.689472771E1
2.765495900E1,-5.076373100E0,3.851846218E0,2.746900558E1
2.767482254E1,-6.014957905E0,4.057629108E0,2.566421890E1
2.769469150E1,-3.476771355E0,4.086342812E0,2.090908241E1
2.771455504E1,7.130611539E-1,3.569493294E0,1.521117401E1
2.773442395E1,1.441077471E0,3.066402197E0,1.325264835E1
2.775428749E1,-1.963909149E0,3.995415688E0,1.426780319E1
2.777415645E1,-3.031706333E0,3.372683525E0,1.300379467E1
2.779401994E1,6.161518395E-2,7.680960894E-1,1.090588760E1
2.781388890E1,8.949156404E-1,1.165304661E0,9.929615974E0
2.783375244E1,1.594218135E0,1.855035782E0,8.071588516E0
2.785362140E1,2.403590441E0,2.280958176E0,6.069993019E0
2.787348494E1,2.264208317E0,2.127817631E0,4.211966038E0
2.789335390E1,1.627717614E0,1.534397483E0,3.982254982E0
2.791321744E1,9.810572863E-1,7.633104324E-1,6.165705681E0
2.793308640E1,1.689931035E0,7.357929647E-2,8.598010063E0
2.795294989E1,2.604587555E0,1.788634956E-1,1.002054310E1
2.797281890E1,2.628515720E0,3.038884699E-1,9.656235695E0
2.799268239E1,1.828714728E0,5.431707501E-1,8.967103004E0
2.801255140E1,5.838487148E-1,1.386042476E0,9.359525681E0
2.803241494E1,1.286142170E-1,2.213959217E0,1.059960651E1
2.805228390E1,8.901300430E-1,2.736192703E0,1.173918819E1
2.807214739E1,1.565504193E0,3.741776466E0,1.159083271E1
2.809201640E1,2.920439959E0,3.746562004E0,1.088674450E1
2.811187989E1,1.929213285E0,4.551148891E0,1.178704453E1
2.813174890E1,1.142572835E-1,4.383052826E0,1.506760406E1
2.815161239E1,-7.812566161E-1,2.554338217E0,1.601516151E1
2.817148135E1,-1.939980984E0,2.070389748E0,1.289312649E1
2.819134489E1,-2.322832584E0,2.673979282E0,9.225527763E0
2.821121385E1,-1.738385677E0,3.023331404E0,6.960721016E0
2.823107739E1,-1.240678549E0,3.507279873E0,5.801996708E0
2.825094635E1,-1.049252748E0,4.320839405E0,6.687341213E0
2.827080983E1,-3.409772366E-2,3.894917011E0,8.425726891E0
2.829067885E1,1.522433400E0,2.041675806E0,9.958329201E0
2.831054233E1,3.397808075E-1,1.457827210E0,9.977472305E0
2.833041134E1,-1.618744493E0,2.161317110E0,9.637093544E0
2.835027483E1,-2.787040234E0,2.779263496E0,9.617950439E0
2.837014384E1,-1.240678549E0,2.516052961E0,8.784649849E0
2.839000733E1,2.967100143E-1,2.353341103E0,8.492725372E0
2.840987629E1,-2.638086975E-1,3.047259569E0,8.847461700E0
2.842973983E1,-1.484746456E0,3.937987804E0,8.085946083E0
2.844960885E1,-2.284547329E0,4.215555191E0,7.789236069E0
2.846947233E1,-1.456032634E0,3.430709362E0,8.306085587E0
2.848934129E1,-1.767099500E0,3.229114056E0,9.421739578E0
2.850920483E1,-3.275774240E0,3.406781197E0,9.891330719E0
2.852907379E1,-4.243072987E0,4.143770695E0,6.927221775E0
2.854893733E1,-4.022933006E0,4.570291042E0,5.140979290E0
2.856880629E1,-3.371487141E0,4.325624943E0,9.728020668E0
2.862379687E1,-3.007778168E0,4.387838364E0,6.750152588E0
2.864366031E1,-3.285345554E0,4.191627026E0,6.841079712E0
2.866352916E1,-3.084348440E0,4.009772778E0,7.243073940E0
2.868339260E1,-2.399402857E0,3.540779352E0,7.324429989E0
2.870326146E1,-1.781456470E0,3.099901676E0,6.912864685E0
2.872312489E1,-1.192822099E0,2.793620348E0,6.371488571E0
2.874299375E1,-6.466603279E-1,2.568695068E0,5.696114540E0
2.876285718E1,-4.217349887E-1,2.520838737E0,5.026124001E0
2.878272604E1,-6.993024349E-1,2.788834810E0,4.566103935E0
2.880258953E1,-1.475175142E0,3.430709362E0,4.274179459E0
2.882245833E1,-2.724826813E0,4.272983074E0,4.197608948E0
2.884232177E1,-3.309273720E0,5.010570526E0,4.968696117E0
2.886219067E1,-3.012563705E0,5.359922886E0,6.658627033E0
2.888205411E1,-2.380260229E0,5.475376606E0,8.033304214E0
2.890192296E1,-2.902493954E0,6.231508255E0,8.871390343E0
2.892178640E1,-4.008575916E0,7.539186001E0,8.799007416E0
2.894165531E1,-4.099503517E0,7.883752346E0,9.934401512E0
2.896151875E1,-6.275177598E-1,5.369493961E0,1.270648670E1
2.898138760E1,5.886343718E-1,4.057629108E0,1.572323799E1
2.900125104E1,-8.147560954E-1,3.531208038E0,1.658046722E1
2.902111994E1,-2.782254457E0,4.249054909E0,1.347278786E1
2.904098338E1,-2.107478619E0,5.791228771E0,1.056132126E1
2.906085224E1,1.182054400E0,5.508875847E0,1.120798111E1
2.908071567E1,2.130210400E0,4.948357105E0,1.306600761E1
2.910058458E1,9.762716293E-1,4.622933388E0,1.218006516E1
2.912044802E1,-1.537388563E-1,3.870988846E0,9.034101486E0
2.914031687E1,-7.232306600E-1,3.808775425E0,6.400202274E0
2.916018031E1,-5.030909777E-1,3.837489367E0,5.787639618E0
2.918004922E1,-4.552344978E-1,3.760919094E0,6.146563053E0
2.919991260E1,4.725824669E-2,3.588635683E0,7.089933395E0
2.921978151E1,1.046859920E-1,3.008974552E0,7.520641804E0
2.923964494E1,-5.748756528E-1,2.678765059E0,6.596413612E0
2.925951385E1,-8.769695163E-1,3.157329559E0,6.031707764E0
2.927937724E1,-9.678967595E-1,3.157329559E0,5.739783287E0
2.929924614E1,-1.068395257E0,3.075973511E0,5.959922791E0
2.931910953E1,2.811566554E-2,3.162115097E0,6.672984123E0
2.933897843E1,5.024927258E-1,3.655634880E0,6.275775433E0
2.935884187E1,-3.643072546E-1,3.152543783E0,5.380261898E0
2.937871073E1,-1.930409670E0,3.808775425E0,5.614758492E0
2.939857416E1,-1.101894855E0,4.392624378E0,8.306085587E0
2.941844302E1,1.033699393E0,3.497708559E0,1.018804073E1
2.943830646E1,8.997012973E-1,2.932404041E0,1.052782154E1
2.945817536E1,-1.495514158E-2,4.000201225E0,1.259163094E1
2.947803880E1,1.067198873E0,4.819144726E0,1.563230991E1
2.949790765E1,1.866999865E0,4.431507587E0,1.609651756E1
2.951777109E1,1.239482164E0,3.928416491E0,1.306600761E1
2.953763994E1,5.264210105E-1,3.899702787E0,1.168654537E1
2.955750338E1,-6.562315822E-1,4.752145767E0,1.162911797E1
2.957737229E1,-7.663014531E-1,4.373481750E0,1.145204926E1
2.959723567E1,-3.020938635E-1,4.780859470E0,1.161476135E1
2.961710453E1,4.785645306E-1,4.622933388E0,1.208913803E1
2.963696796E1,6.029912829E-1,4.383052826E0,1.229013538E1
2.965683682E1,8.327022791E-1,3.128615618E0,1.135633659E1
2.967670026E1,-4.360919297E-1,2.870190859E0,8.947959900E0
2.969656916E1,-6.945167780E-1,2.989831924E0,7.735995770E0
2.971643255E1,2.195414752E-1,3.535993576E0,8.545368195E0
2.973630146E1,1.191625714E0,3.631706476E0,9.493523598E0
2.975616484E1,1.335793257E0,2.487339020E0,8.957531929E0
2.977603375E1,-1.393819153E-1,1.783251047E0,7.209574699E0
2.979589718E1,-7.860422134E-1,1.419542074E0,5.514259815E0
2.981576604E1,-6.759724021E-2,1.969891191E0,5.160121918E0
2.983562942E1,6.364908218E-1,2.774477959E0,5.246263504E0
2.985549833E1,9.762716293E-1,3.569493294E0,5.700900078E0
2.987536172E1,1.162911773E0,3.856631994E0,5.979065418E0
2.989523062E1,1.142572835E-1,3.713062525E0,5.236692429E0
2.991509401E1,-1.757528186E0,4.081557274E0,3.781257868E0
2.993496291E1,-2.748754978E0,4.575077057E0,2.632104874E0
2.995482635E1,-1.652244091E0,5.264209747E0,3.388236761E0
2.997469520E1,-3.547359705E-1,6.849454880E0,6.261418819E0
2.999455859E1,7.034898400E-1,7.423732281E0,7.999804497E0
3.001442750E1,1.833500385E0,7.850253105E0,8.224729538E0
3.003429093E1,2.441875458E0,8.635697365E0,8.813364029E0
3.005415979E1,2.010569334E0,9.305686951E0,8.698508263E0
3.007402323E1,1.747358680E0,8.956335068E0,7.942376614E0
3.009389208E1,2.249851465E0,8.300103188E0,9.517452240E0
3.011375552E1,3.466601849E0,7.692326546E0,1.229013538E1
3.013362437E1,3.614956856E0,7.284948349E0,1.399920845E1
3.015348781E1,2.551945448E0,6.959524632E0,1.308515072E1
3.017335666E1,1.991426587E0,6.672386169E0,1.041775131E1
3.019322010E1,2.221137524E0,6.432505608E0,9.024530411E0
3.021308896E1,2.015354872E0,5.796014786E0,8.334799767E0
3.023295239E1,1.321436286E0,5.307280540E0,7.764709473E0
3.025282125E1,8.614161611E-1,4.819144726E0,7.338787079E0
3.027268468E1,3.972085714E-1,4.368695736E0,6.750152588E0
3.029255354E1,3.062812984E-1,4.143770695E0,6.117849350E0
3.031241698E1,7.513462901E-1,4.110270977E0,5.346762180E0
3.033228583E1,8.327022791E-1,3.842274904E0,4.829912663E0
3.035214927E1,4.881358147E-1,3.276970625E0,4.604389191E0
3.037201817E1,7.896314859E-1,3.013760090E0,4.710271358E0
3.039188156E1,7.465606928E-1,2.697907448E0,5.093122959E0
3.041175046E1,8.279166222E-1,2.659622431E0,5.246263504E0
3.043161385E1,1.086341500E0,3.004188776E0,5.475974560E0
3.045148270E1,1.014556766E0,3.267399311E0,6.347560406E0
3.047134614E1,1.599003673E0,3.190829039E0,7.233502865E0
3.049121505E1,2.427518606E0,3.047259569E0,8.129016876E0
3.051107843E1,1.345364571E0,3.626920938E0,8.607581139E0
3.053094729E1,2.530409992E-1,3.693919897E0,9.924830437E0
3.055081073E1,5.455635786E-1,3.626920938E0,1.303250885E1
3.057067958E1,2.919243574E-1,3.976273060E0,1.490429401E1
3.059054302E1,-1.374676585E0,4.991427898E0,1.377906895E1
3.061041187E1,-1.920240223E-1,5.422136307E0,1.126062298E1
3.063027531E1,4.307080805E-1,6.576673031E0,1.000139999E1
3.065014416E1,-1.585244983E-1,6.524031162E0,1.060917759E1
3.067000760E1,8.279166222E-1,4.632504463E0,1.282134151E1
3.068987646E1,2.530409992E-1,3.166900873E0,1.482293797E1
3.070973989E1,-1.087537885E0,3.157329559E0,1.353978729E1
3.072960875E1,-5.413761139E-1,3.760919094E0,9.852447510E0
3.074947218E1,1.764706671E-1,4.220340729E0,7.233502865E0
3.076934104E1,-3.116651475E-1,4.067200184E0,7.190432072E0
3.078920442E1,-4.408775866E-1,3.574278831E0,8.550153732E0
3.080907333E1,-1.154536903E-1,2.683550596E0,8.995817184E0
3.082893672E1,4.642075896E-1,2.309672117E0,8.746364594E0
3.084880562E1,1.378864050E0,2.113460541E0,8.052446365E0
3.086866901E1,1.685145378E0,1.807179332E0,6.922435760E0
3.088853791E1,1.119840980E0,1.481755376E0,5.456831932E0
3.090840130E1,2.338984162E-1,1.304686546E0,4.456034184E0
3.092827020E1,-1.058823988E-1,1.754537225E0,4.030111313E0
3.094813359E1,2.811566554E-2,2.199602127E0,4.398606300E0
3.096800250E1,1.142572835E-1,2.492124796E0,5.346762180E0
3.098786588E1,2.051845491E-1,3.047259569E0,7.214360237E0
3.100773474E1,8.805587292E-1,4.196412563E0,9.833304405E0
3.102759817E1,5.599204898E-1,4.852644444E0,1.223749352E1
3.104746703E1,1.621137410E-1,6.509674072E0,1.381256866E1
3.106733046E1,7.369893789E-1,7.026523590E0,1.185882950E1
3.108731505E1,1.268195987E0,6.916453838E0,9.153742790E0
3.110706296E1,1.263410330E0,7.304090977E0,1.159083271E1
3.112693177E1,1.785643935E0,5.915655613E0,1.528295803E1
3.114679520E1,1.589432478E0,4.713860512E0,1.542652798E1
3.116666401E1,1.412363529E0,4.436293125E0,1.322871971E1
3.118652739E1,1.866999865E0,4.642076015E0,1.064746284E1
3.120639625E1,1.843071699E0,4.838287354E0,8.373085022E0
3.122625963E1,1.656431437E0,4.967499733E0,6.625127792E0
3.124612854E1,1.953141451E0,4.871787071E0,5.854638577E0
3.126599198E1,1.905285001E0,4.455435753E0,5.902495384E0
3.128586078E1,1.838286042E0,3.875774384E0,5.979065418E0
3.130572427E1,1.694716692E0,3.343969584E0,6.103492260E0
3.132559307E1,1.431506157E0,2.903690338E0,6.251847267E0
3.134545646E1,8.997012973E-1,2.568695068E0,6.031707764E0
3.136532536E1,2.003988922E-1,2.420340061E0,5.447260857E0
3.138518875E1,-2.207378894E-1,2.468196630E0,4.829912663E0
3.140505765E1,-8.673982322E-2,2.583052158E0,5.456831932E0
3.142492104E1,1.716850251E-1,2.774477959E0,7.228717327E0
3.144478994E1,4.450650215E-1,3.085544825E0,8.636295319E0
3.146465333E1,6.364908218E-1,3.626920938E0,9.048459053E0
3.148452224E1,4.450650215E-1,4.406980991E0,8.943174362E0
3.150438562E1,7.800601721E-1,5.020142078E0,1.062831974E1
3.152425453E1,6.125625968E-1,5.762515068E0,1.234756279E1
3.154411791E1,2.386840582E-1,6.427719593E0,1.160997581E1
3.156398682E1,8.997012973E-1,6.538387775E0,1.108355427E1
3.158385020E1,2.823530734E-1,6.839883327E0,1.166261768E1
3.160371911E1,-3.882354796E-1,6.796812534E0,1.193539906E1
3.162358250E1,7.322037220E-1,5.973083496E0,1.331007576E1
3.164345140E1,1.780858278E0,4.967499733E0,1.542652798E1
3.166331479E1,9.332008362E-1,4.411766529E0,1.499522114E1
3.168318369E1,-1.920240223E-1,4.465006828E0,1.220399380E1
3.170304708E1,-3.643072546E-1,4.761716843E0,8.770293236E0
3.172291599E1,-3.786641955E-1,4.756931305E0,6.390631199E0
3.174277937E1,-4.313062727E-1,4.368695736E0,5.667400360E0
3.176264828E1,-3.547359705E-1,3.780061483E0,5.964708805E0
3.178251172E1,-1.058823988E-1,3.229114056E0,6.601199627E0
3.180238057E1,3.110669553E-1,2.918047190E0,6.955935478E0
3.182224401E1,7.417750359E-1,2.860619545E0,6.534200668E0
3.184211281E1,9.906286001E-1,2.884547710E0,5.471189022E0
3.186197625E1,8.039883971E-1,2.831905603E0,4.594817638E0
3.188184515E1,3.684946895E-1,2.750549555E0,4.288536549E0
3.190170859E1,-3.978067636E-1,2.985046148E0,4.298107624E0
3.192157744E1,-1.231107235E0,3.693919897E0,4.245465755E0
3.194144088E1,-1.542174220E0,4.670789719E0,5.337191105E0
3.196142546E1,-1.054038405E0,5.484947681E0,8.229515076E0
3.198117333E1,-1.058823988E-1,6.068796635E0,1.108833981E1
3.200104218E1,-1.073180914E0,7.127022266E0,1.130848026E1
3.202090562E1,-1.800599098E0,8.017750740E0,8.267800331E0
3.204077442E1,-1.935195327E0,8.453244209E0,7.568498135E0
3.206063786E1,-6.323033571E-1,7.241877556E0,1.149990559E1
3.208050666E1,1.234696507E0,5.388636589E0,1.657089424E1
3.210037010E1,1.316650629E0,4.642076015E0,1.679582024E1
3.212023901E1,1.153340459E0,4.972285271E0,1.310907841E1
3.214010239E1,1.756929994E0,5.245067120E0,9.177671432E0
3.215997125E1,1.737787485E0,5.178068161E0,6.831508636E0
3.217983474E1,8.997012973E-1,4.881358147E0,5.538187981E0
3.219970354E1,4.247260094E-2,4.397409916E0,4.911268711E0
3.221956698E1,-2.925225794E-1,4.091128349E0,5.408975601E0
3.223943588E1,1.333998591E-1,3.894917011E0,6.012565136E0
3.225929932E1,7.896314859E-1,3.708276987E0,6.065207005E0
3.227916817E1,9.810572863E-1,3.445066452E0,5.538187981E0
3.229903161E1,7.513462901E-1,3.186043262E0,4.992624283E0
3.231890052E1,3.684946895E-1,3.114258766E0,4.748556614E0
3.233876390E1,3.732803464E-1,3.416352510E0,5.150550842E0
3.235863281E1,6.652047038E-1,3.875774384E0,6.189633846E0
3.237849619E1,1.551147223E0,4.062414646E0,7.645068169E0
3.239836510E1,2.623729944E0,4.129413605E0,9.704092026E0
3.241822854E1,3.193221807E0,4.095914364E0,1.073838997E1
3.243809739E1,3.097508907E0,4.296911240E0,1.076710415E1
3.245796083E1,3.274577856E0,4.699503899E0,1.121276665E1
3.247779125E1,3.801596880E0,4.852644444E0,1.251506042E1
3.249769317E1,3.796811342E0,5.144568920E0,1.348714447E1
3.251756208E1,3.092723370E0,5.259424210E0,1.239541912E1
3.253742546E1,2.235494614E0,5.221138954E0,1.039382362E1
3.255729437E1,4.402793646E-1,6.107081413E0,8.497511864E0
3.257715781E1,-2.015953064E-1,6.863811970E0,7.305287361E0
3.259702672E1,9.858429432E-1,6.835097790E0,8.330014229E0
3.261689015E1,2.776870728E0,5.939583778E0,1.112662506E1
3.263675901E1,3.174079180E0,5.182853699E0,1.339621735E1
3.265662250E1,2.288136721E0,4.833501816E0,1.332921886E1
3.267649135E1,1.436291814E0,4.790431023E0,1.187318611E1
3.269635479E1,1.263410330E0,4.656432629E0,1.045125103E1
3.271622369E1,1.838286042E0,4.469792843E0,9.742377281E0
3.273608708E1,2.815155745E0,4.383052826E0,9.239884377E0
3.275595599E1,3.500101328E0,4.354339123E0,8.373085022E0
3.277581942E1,4.127020836E0,4.249054909E0,7.377072334E0
3.279568833E1,3.557528973E0,3.827918053E0,6.318846226E0
3.281555177E1,2.685943365E0,3.262613773E0,5.408975601E0
3.283542062E1,1.718644857E0,2.922832966E0,4.978267670E0
3.285528411E1,5.838487148E-1,2.702693224E0,4.570889473E0
3.287515296E1,-4.217349887E-1,2.568695068E0,4.322035789E0
3.289501640E1,-1.470389485E0,2.573480844E0,4.508676052E0
3.291488531E1,-1.892124534E0,2.535195589E0,4.585246563E0
3.293474875E1,-2.251047850E0,2.673979282E0,4.422534466E0
3.295461760E1,-2.988635540E0,3.147758245E0,3.838685751E0
3.297448099E1,-3.577269793E0,3.803989887E0,3.369094372E0
3.299434994E1,-2.854039192E0,4.584648132E0,4.556532383E0
3.301421338E1,-4.839483798E-1,4.876572609E0,7.501499176E0
3.303408229E1,1.771286964E0,4.924428940E0,1.055653572E1
3.305394573E1,2.273779631E0,5.575874805E0,1.125583744E1
3.307381463E1,1.426720500E0,6.365506649E0,1.081974602E1
3.309367807E1,1.210768223E0,6.092724800E0,1.236192036E1
3.311354692E1,2.877369165E0,5.523232937E0,1.622154236E1
3.313341041E1,3.878167391E0,5.326423168E0,1.822313881E1
3.315327927E1,3.107080221E0,5.326423168E0,1.647996712E1
3.317314276E1,3.360719442E0,5.359922886E0,1.350628757E1
3.319301161E1,4.184448719E0,5.335994720E0,1.139462185E1
3.321287505E1,3.250649452E0,4.905286312E0,9.531808853E0
3.323274396E1,2.178066730E0,4.431507587E0,8.459226608E0
3.325260739E1,2.082353830E0,4.182055950E0,7.817949772E0
3.327247630E1,2.532802820E0,4.115056515E0,6.793223381E0
3.329233974E1,2.662015200E0,4.186841488E0,5.562116146E0
3.331220864E1,2.072782516E0,4.067200184E0,4.604389191E0
3.333207208E1,1.407577872E0,3.598206997E0,4.111467361E0
3.335194099E1,1.345364571E0,3.348755360E0,3.939184189E0
3.337180442E1,1.589432478E0,3.492922783E0,3.790829182E0
3.339167333E1,1.272981644E0,3.607778311E0,3.786043644E0
3.341153677E1,1.062413216E0,3.574278831E0,4.839483738E0
3.343140567E1,1.296909928E0,3.569493294E0,7.037291527E0
3.345126911E1,1.637288928E0,3.382853031E0,8.866603851E0
3.347113802E1,1.196411371E0,3.435495138E0,9.292527199E0
3.349100146E1,4.115654826E-1,4.162913322E0,8.981459618E0
3.351087036E1,5.551348329E-1,4.790431023E0,9.000602722E0
3.353073380E1,1.956132501E-1,5.130211830E0,9.934401512E0
3.355060270E1,-1.523031592E0,6.001797199E0,1.034118080E1
3.357046614E1,-2.897708178E0,5.824728489E0,9.732806206E0
3.359033510E1,-2.117049932E0,4.838287354E0,1.006361389E1
3.361019854E1,-2.102692842E0,5.523232937E0,1.122712421E1
3.363006744E1,-1.125823021E0,5.547161102E0,1.112183952E1
3.364993088E1,3.397808075E-1,4.565505505E0,1.169611740E1
3.366979979E1,-6.179464459E-1,4.244269371E0,1.295534039E1
3.368966323E1,-2.442473650E0,4.153341770E0,1.231884956E1
3.370953213E1,-1.930409670E0,4.368695736E0,1.048953629E1
3.372939557E1,-5.030909777E-1,4.028914928E0,1.057089233E1
3.374926448E1,1.381855011E-1,3.032902718E0,1.266341591E1
3.376912796E1,4.067798555E-1,2.304886341E0,1.279262829E1
3.378899687E1,1.277767301E0,2.084746838E0,1.144726372E1
3.380886031E1,1.565504193E0,2.070389748E0,9.474381447E0
3.382872922E1,1.000199914E0,2.405983210E0,7.348358154E0
3.384859265E1,8.374879360E-1,2.860619545E0,6.208776474E0
3.386846156E1,8.422735929E-1,3.186043262E0,5.274977684E0
3.388832505E1,2.024926186E0,3.123830080E0,4.863411903E0
3.390819390E1,3.940380573E0,2.989831924E0,5.490331650E0
3.392805739E1,2.920439959E0,3.473780155E0,4.183252335E0
3.394792630E1,1.857428551E0,5.930012703E0,2.526222467E0
3.396778974E1,2.154138565E0,6.576673031E0,1.214357495E0
3.398765869E1,2.321636200E0,5.958726406E0,2.833101988E0
3.400752213E1,2.225923300E0,5.561518192E0,6.366703033E0
3.402739099E1,9.762716293E-1,5.528018475E0,8.947959900E0
3.404725448E1,9.332008362E-1,6.806384087E0,1.014496994E1
3.406712338E1,7.561319470E-1,7.845467091E0,9.651450157E0
3.408698687E1,1.043270707E0,8.070392609E0,8.502297401E0
3.410685573E1,1.253839016E0,7.390232563E0,9.684949875E0
3.412671922E1,1.886142492E0,7.366304398E0,1.232842064E1
3.414658812E1,8.949156404E-1,7.375875950E0,1.204128170E1
3.416645151E1,1.138983607E0,7.055237770E0,1.028853893E1
3.418632046E1,1.158126116E0,8.209176064E0,1.023589706E1
3.420618396E1,6.412764788E-1,8.333602905E0,1.019282627E1
3.422605286E1,1.900499344E0,6.293721676E0,8.736793518E0
3.424591630E1,1.436291814E0,5.901299000E0,6.970292568E0
3.426578520E1,1.637288928E0,5.359922886E0,6.395416737E0
3.428564869E1,1.910070658E0,4.680361271E0,6.639484406E0
3.430551760E1,1.225125194E0,3.847060680E0,6.615556240E0
3.432538109E1,6.412764788E-1,2.879761934E0,5.801996708E0
3.434525000E1,1.094716340E-1,2.482553482E0,4.556532383E0
3.436511343E1,-1.010967568E-1,2.276172638E0,4.097110748E0
3.438498234E1,4.307080805E-1,1.950748682E0,4.259822369E0
3.440484583E1,1.910070658E0,2.199602127E0,5.959922791E0
3.442471474E1,3.150151014E0,2.367697954E0,7.434499741E0
3.444457817E1,2.389233351E0,2.468196630E0,7.477570534E0
3.446444713E1,8.039883971E-1,2.089532375E0,7.137789726E0
3.448431057E1,1.375873014E-2,2.827120066E0,7.856235027E0
3.450417948E1,7.130611539E-1,4.268197536E0,7.329215527E0
3.452404291E1,6.747759581E-1,6.207580090E0,7.487142086E0
3.454391187E1,7.034898400E-1,8.142177582E0,9.067601204E0
3.456377531E1,2.398804665E0,7.514659405E0,9.987043381E0
3.458364427E1,4.259224236E-1,7.821538925E0,1.081017494E1
3.460350770E1,-1.585245013E0,8.012965202E0,1.028853893E1
3.462337661E1,-2.145763636E0,7.945965767E0,9.388239861E0
3.464324010E1,-2.231905222E0,7.797610760E0,9.134600639E0
3.466310901E1,-1.642672777E0,7.155735970E0,7.841877937E0
3.468297244E1,-1.422533035E0,7.016952515E0,6.524629116E0
3.470284140E1,-1.293320656E0,7.064808846E0,6.778866768E0
3.472270484E1,-1.795813441E0,7.127022266E0,8.799007416E0
3.474257380E1,-1.594816327E0,6.581458569E0,9.574879646E0
3.476255296E1,-7.280163169E-1,5.719444275E0,8.799007416E0
3.478230630E1,-1.369890928E0,7.481160164E0,7.726424217E0
3.480216979E1,-1.341177106E0,8.204390526E0,8.602795601E0
3.482203864E1,-2.389831543E0,8.697910309E0,1.005404282E1
3.484190208E1,7.034898400E-1,6.605386734E0,9.646664619E0
3.486177099E1,1.943570137E0,5.752943993E0,8.042875290E0
3.488163442E1,9.571290612E-1,6.494719028E0,7.971090317E0
3.490150333E1,3.302095234E-1,7.031309128E0,8.928817749E0
3.492136682E1,2.051845491E-1,6.567101955E0,9.958329201E0
3.494123567E1,1.508076429E0,4.905286312E0,9.862018585E0
3.496109922E1,1.234696507E0,4.124628067E0,8.224729538E0
3.498096812E1,-8.673982024E-1,4.172484398E0,6.869793892E0
3.500083156E1,-1.283749342E0,4.249054909E0,6.424130440E0
3.502070047E1,-6.131607890E-1,3.713062525E0,7.386643410E0
3.504056396E1,-5.509474277E-1,3.219542980E0,9.541379929E0
3.506043286E1,-2.063809484E-1,2.702693224E0,1.048475075E1
3.508029635E1,1.234696507E0,2.669193745E0,9.215956688E0
3.510016526E1,2.211566210E0,3.032902718E0,7.511070251E0
3.512002875E1,1.833500385E0,3.751347780E0,5.389832973E0
3.513989765E1,1.316650629E0,4.258625984E0,3.359523058E0
3.515976109E1,1.335793257E0,4.737788677E0,2.675175667E0
3.517963005E1,1.287338614E0,5.752943993E0,3.144168854E0
3.519949354E1,1.364507079E0,6.097510338E0,4.479962349E0
3.521936244E1,2.099701911E-1,6.442076683E0,5.155336380E0
3.523922588E1,-1.508674622E0,7.323233604E0,5.289334297E0
3.525909484E1,-4.463212490E0,9.516255379E0,6.467201233E0
3.527895828E1,-5.540580750E0,1.156570816E1,8.535796165E0
3.529882724E1,-1.666600943E0,9.291330338E0,1.150469112E1
3.531869067E1,-1.058823988E-1,6.610172749E0,1.314257812E1
3.533855963E1,-2.705684185E0,8.204390526E0,1.293619728E1
3.535842307E1,-2.093121529E0,8.271389961E0,1.220399380E1
3.537829203E1,-9.631111473E-2,6.811169624E0,1.289312649E1
3.539815546E1,-1.025324464E0,5.326423168E0,1.216570854E1
3.541802442E1,-2.979064226E0,5.139782906E0,1.139940739E1
3.543788786E1,-3.797409534E0,5.106283665E0,1.160040379E1
3.545775682E1,-2.935993433E0,4.953142643E0,1.155733299E1
3.547762031E1,-2.394617319E0,5.005784988E0,1.031725311E1
3.549748922E1,-2.270190477E0,4.785645485E0,8.334799767E0
3.551735265E1,-2.475973129E0,4.325624943E0,7.080362320E0
3.553722156E1,-2.868994236E0,3.870988846E0,6.706483841E0
3.555708505E1,-3.213560820E0,3.751347780E0,6.084349632E0
3.557695401E1,-3.529413462E0,3.904488325E0,5.547759533E0
3.559681744E1,-3.653840065E0,3.976273060E0,5.662614822E0
3.561668640E1,-3.845266104E0,4.086342812E0,6.357131481E0
3.563666557E1,-3.778266907E0,4.263411522E0,7.022934437E0
3.565641896E1,-3.160918713E0,4.330410957E0,7.142575741E0
3.567628239E1,-3.395415306E0,4.512863636E0,6.793223381E0
3.569615130E1,-4.066003799E0,5.465805054E0,6.113063812E0
3.571601479E1,-4.439284325E0,6.777669907E0,5.730212212E0
3.573588364E1,-3.601198196E0,6.997809887E0,5.916851997E0
3.575574708E1,-3.419343472E0,6.332006931E0,7.214360237E0
3.577561604E1,-3.491128206E0,5.662016392E0,9.910472870E0
3.579547953E1,-3.400201082E0,6.241079807E0,1.075753212E1
3.581534838E1,-2.609971285E0,6.930810928E0,1.015932655E1
3.588108667E1,-2.327618122E0,5.571089268E0,8.727222443E0
3.590095552E1,-2.298904419E0,5.551946640E0,9.115457535E0
3.592081886E1,-2.581257343E0,5.518447399E0,8.727222443E0
3.594068771E1,-2.796611547E0,5.523232937E0,7.937591076E0
3.596055110E1,-2.858824968E0,5.441278458E0,7.616354465E0
3.598041990E1,-2.854039192E0,5.321637630E0,7.491927624E0
3.600028328E1,-3.285345554E0,5.379065514E0,7.329215527E0
3.602015214E1,-3.486342669E0,5.412564754E0,8.062017441E0
3.604001552E1,-3.060420275E0,4.795216560E0,9.751948357E0
3.605988433E1,-2.380260229E0,3.875774384E0,9.896116257E0
3.607974771E1,-2.533401012E0,3.784847260E0,7.999804497E0
3.609961656E1,-3.663411379E0,4.599005222E0,5.940780640E0
3.611947990E1,-3.989433527E0,4.919643402E0,5.495117188E0
3.613934875E1,-3.917648792E0,4.819144726E0,6.347560406E0
3.615921208E1,-3.706482172E0,4.335196495E0,7.137789726E0
3.617908094E1,-3.773481369E0,3.827918053E0,7.219145775E0
3.619894433E1,-4.070789337E0,3.492922783E0,6.716054916E0
3.621881318E1,-4.257429600E0,3.550350666E0,5.969494343E0
3.623867651E1,-4.209573269E0,3.899702787E0,5.657829285E0
3.625854537E1,-3.951148272E0,4.043272018E0,5.835496426E0
3.627840875E1,-3.850051641E0,3.803989887E0,6.261418819E0
3.629827755E1,-3.409772158E0,3.181257725E0,6.677769661E0
3.631814094E1,-2.969492912E0,2.702693224E0,6.951149940E0
3.633800974E1,-2.447259426E0,2.563909531E0,6.634698868E0
3.635787313E1,-1.609173179E0,2.367697954E0,6.989434719E0
3.637774193E1,-1.302891970E0,2.606980324E0,7.396214962E0
3.639760531E1,-5.413761139E-1,2.382055044E0,6.999006271E0
3.641758990E1,-1.495514158E-2,2.453839540E0,7.089933395E0
3.643733771E1,4.402793646E-1,2.290529490E0,7.152146816E0
3.645720651E1,8.757730722E-1,1.453041553E0,6.831508636E0
3.647706985E1,8.566305041E-1,1.381256819E0,6.534200668E0
3.649693865E1,6.269195080E-1,1.069591761E0,7.133004189E0
3.651680198E1,5.694918036E-1,1.069591761E0,7.109076023E0
3.653667078E1,7.800601721E-1,9.786644578E-1,6.476772785E0
3.655653417E1,1.445863128E0,1.150947690E0,6.586842537E0
3.657640297E1,2.360519648E0,1.802393675E0,8.842676163E0
3.659626636E1,1.991426587E0,1.323829174E0,1.151904774E1
3.661613511E1,1.776072621E0,1.184447169E0,1.242891884E1
3.663599854E1,2.048854351E0,1.150947690E0,1.238106251E1
3.665586729E1,8.614161611E-1,2.070389748E0,1.195035458E1
3.667573073E1,1.094716340E-1,2.975475073E0,1.075274658E1
3.669559948E1,3.801596880E0,2.640479803E0,1.074317551E1
3.671546292E1,7.579864025E0,1.409970760E0,1.580459309E1
3.673533172E1,7.670791149E0,6.400800496E-2,2.221137619E1
3.675519505E1,6.243472576E0,5.479564071E-1,2.115793610E1
3.677506386E1,5.132604599E0,2.012962103E0,1.518724537E1
3.679492724E1,4.429114819E0,2.975475073E0,1.090110207E1
3.681479610E1,4.826323509E0,3.885345697E0,7.434499741E0
3.683465943E1,5.472983360E0,3.961916208E0,7.798807144E0
3.685452828E1,4.184448719E0,3.090330362E0,9.316454887E0
3.687439162E1,2.297708035E0,2.242672920E0,8.444869041E0
3.689426047E1,1.943570137E0,1.792822361E0,6.821937561E0
3.691412380E1,6.556333899E-1,1.907677889E0,5.121836662E0
3.693399266E1,-1.144965649E0,2.261815548E0,4.767699242E0
3.695385604E1,-1.762313843E0,2.228316069E0,4.825126648E0
3.697372485E1,-1.197607756E0,1.692323804E0,4.805984497E0
3.699358823E1,-9.104689956E-1,1.510469317E0,4.796412945E0
3.701345703E1,-1.121037364E0,1.658824325E0,5.408975601E0
3.703332037E1,-1.240678549E0,1.572682738E0,6.151348591E0
3.705318922E1,-1.082752228E0,1.319043517E0,6.605985165E0
3.707305261E1,-8.578268886E-1,1.155733347E0,6.696912289E0
3.709292141E1,-1.097109199E0,1.246660590E0,7.472784996E0
3.711278479E1,-1.326820135E0,1.203589797E0,8.818149567E0
3.713265360E1,-5.383851007E-3,9.355936646E-1,9.469595909E0
3.715251698E1,1.009771109E0,8.925228715E-1,1.031725311E1
3.717238578E1,6.652047038E-1,1.155733347E0,1.176790142E1
3.719224917E1,1.158126116E0,1.103091240E0,1.228056431E1
3.721211797E1,2.312064886E0,7.872386575E-1,1.166740322E1
3.723198136E1,1.091127157E0,1.217946768E0,1.167218876E1
3.725185016E1,3.158525825E-1,1.141376376E0,1.238106251E1
3.727171349E1,5.551348329E-1,5.192425251E-1,1.295055389E1
3.729158235E1,1.316650629E0,2.608176768E-1,1.318086338E1
3.731144568E1,1.307079315E0,6.293123364E-1,1.294098282E1
3.733131453E1,1.239482164E0,1.328614831E0,1.131326580E1
3.735117787E1,1.234696507E0,1.893320918E0,9.230313301E0
3.737104672E1,5.599204898E-1,2.242672920E0,7.817949772E0
3.739091005E1,4.187439568E-3,2.199602127E0,7.142575741E0
3.741077886E1,1.668993831E-1,1.778465390E0,7.032505512E0
3.743064224E1,4.689932466E-1,1.587039590E0,7.329215527E0
3.745051104E1,1.282552958E0,1.457827210E0,7.396214962E0
3.747037443E1,1.277767301E0,7.872386575E-1,7.971090317E0
3.749024328E1,7.130611539E-1,4.618147612E-1,8.976674080E0
3.751010662E1,1.239482164E0,3.948157430E-1,9.125029564E0
3.752997542E1,1.579861164E0,3.852444589E-1,9.704092026E0
3.754983880E1,2.254637241E0,-8.913264424E-2,1.070010471E1
3.756966912E1,2.599801779E0,-6.999006122E-2,1.173440266E1
3.758957099E1,2.858226538E0,2.075773627E-1,1.261555958E1
3.760943979E1,2.824727058E0,9.978070259E-1,1.217049408E1
3.762930313E1,1.689931035E0,1.912463546E0,9.818947792E0
3.764917198E1,1.651645780E0,2.233101845E0,9.139386177E0
3.766903537E1,3.610171080E0,9.020941257E-1,1.221356487E1
3.768890417E1,4.371088982E0,3.050848842E-2,1.721755600E1
3.770876755E1,5.903691769E0,1.189232826E0,1.840499306E1
3.772863636E1,5.539982796E0,3.195614576E0,1.574238014E1
3.774861547E1,4.079164505E0,4.421936035E0,1.145204926E1
3.776836870E1,3.696312666E0,4.517649174E0,7.223931789E0
3.778823203E1,3.154936552E0,4.339982033E0,5.040481091E0
3.780810084E1,2.384447813E0,3.713062525E0,5.375475883E0
3.782796417E1,7.417750359E-1,4.028914928E0,7.104290485E0
3.784783297E1,4.067798555E-1,3.492922783E0,7.764709473E0
3.786769630E1,6.843472719E-1,2.846262455E0,6.510272026E0
3.788756516E1,8.422735929E-1,2.635694027E0,5.284548759E0
3.790742849E1,8.279166222E-1,2.377269268E0,4.863411903E0
3.792729724E1,6.460621357E-1,2.137388945E0,5.303691387E0
3.794716068E1,8.997012973E-1,1.649253011E0,6.127420425E0
3.796702948E1,1.445863128E0,1.007378340E0,6.831508636E0
3.798689287E1,1.790429592E0,6.436693072E-1,7.319644451E0
3.800676167E1,1.603789330E0,9.212366939E-1,7.846663475E0
3.802662500E1,7.130611539E-1,1.409970760E0,7.975875854E0
3.804649380E1,3.254238665E-1,1.630110383E0,8.550153732E0
3.806635719E1,6.795616150E-1,2.161317110E0,1.073838997E1
3.808622604E1,1.814357758E0,1.869392633E0,1.292662621E1
3.810608938E1,1.752144337E0,1.280160069E0,1.372164154E1
3.812595818E1,6.652047038E-1,1.673181176E0,1.287398434E1
3.814582156E1,2.578266263E-1,2.204387903E0,1.069531918E1
3.816569037E1,7.992027402E-1,2.401197433E0,1.063789082E1
3.818555375E1,8.422735929E-1,2.807977438E0,1.261555958E1
3.820542255E1,1.670788407E0,2.218744755E0,1.407159138E1
3.822528594E1,3.528815269E0,1.433898926E0,1.505743504E1
3.824515474E1,3.835096598E0,1.328614831E0,1.557488251E1
3.826501813E1,2.134995937E0,1.965105653E0,1.328136253E1
3.828488693E1,1.302293777E0,2.659622431E0,9.383454323E0
3.830475031E1,1.258624673E0,3.253042459E0,5.711069584E0
3.832461912E1,1.129412293E0,3.674777269E0,4.317250252E0
3.834448250E1,1.081555843E0,3.550350666E0,5.375475883E0
3.836435130E1,7.896314859E-1,3.052045345E0,6.922435760E0
3.838421464E1,6.029912829E-1,2.501696110E0,7.434499741E0
3.840408349E1,6.843472719E-1,2.261815548E0,7.401000500E0
3.842394682E1,1.129412293E0,2.276172638E0,6.984649181E0
3.844381563E1,1.407577872E0,2.343769789E0,6.323632240E0
3.846367901E1,1.503290772E0,2.468196630E0,5.624329567E0
3.848354781E1,1.359721422E0,2.439482689E0,5.792425632E0
3.850341115E1,9.906286001E-1,2.420340061E0,6.970292568E0
3.852328000E1,9.044869542E-1,2.726621389E0,7.396214962E0
3.854314334E1,1.599003673E0,2.922832966E0,7.861020565E0
3.856301214E1,2.786442041E0,2.697907448E0,9.775876999E0
3.858287552E1,3.634099483E0,2.621337175E0,1.232842064E1
3.860274432E1,3.921238184E0,3.233899832E0,1.358285809E1
3.862276209E1,3.265006542E0,4.402195454E0,1.226620674E1
3.864240208E1,3.619742393E0,5.163711071E0,1.083410263E1
3.866233959E1,4.443471432E0,5.690730572E0,1.306600761E1
3.868220844E1,4.060021877E0,5.508875847E0,1.631725502E1
3.870207183E1,3.524029493E0,4.579862595E0,1.694896126E1
3.872194073E1,2.413161755E0,4.766502857E0,1.614018631E1
3.874180412E1,1.780858278E0,5.388636589E0,1.285005569E1
3.876167297E1,2.437089920E0,5.872584820E0,8.588438988E0
3.878153636E1,3.418745279E0,6.379863262E0,5.519045353E0
3.880140516E1,2.370090723E0,5.968297958E0,4.278964996E0
3.882126860E1,6.077769399E-1,5.063212872E0,3.503092289E0
3.884113745E1,-2.931207791E-2,4.234697819E0,2.052443504E0
3.886100078E1,-3.116651475E-1,3.856631994E0,1.985444546E0
3.888086959E1,8.973085321E-3,3.459423304E0,2.148156643E0
3.890073292E1,7.609176040E-1,3.272184849E0,2.502294302E0
3.892060177E1,1.172483087E0,3.109472990E0,2.976671457E0
3.894046511E1,1.019342422E0,2.980260611E0,3.326023579E0
3.896033396E1,8.853443861E-1,3.047259569E0,3.762115479E0
3.898019729E1,7.944171429E-1,3.291327477E0,4.231108665E0
3.900006615E1,7.609176040E-1,3.607778311E0,4.661816597E0
3.901992948E1,1.086341500E0,3.971487284E0,5.782854080E0
3.903979834E1,1.148554921E0,4.411766529E0,8.047660828E0
3.905966167E1,1.043270707E0,4.402195454E0,1.030289650E1
3.907953047E1,9.332008362E-1,4.981856823E0,1.152383423E1
3.909939386E1,-5.605186820E-1,7.563114166E0,9.799804688E0
3.911926266E1,1.263410330E0,7.792825222E0,8.009375572E0
3.913912604E1,3.064009428E0,6.926024914E0,1.211306667E1
3.915899485E1,1.814357758E0,6.849454880E0,1.669053650E1
3.917885823E1,7.896314859E-1,5.268995285E0,1.608694649E1
3.919872708E1,9.236295223E-1,4.119842529E0,1.421037579E1
3.921859042E1,6.173482537E-1,3.985844374E0,1.276869965E1
3.923845927E1,-6.035895348E-1,3.957130432E0,1.021675491E1
3.925832261E1,-1.278963685E0,4.263411522E0,8.009375572E0
3.927819141E1,-9.774680734E-1,4.488935471E0,8.085946083E0
3.929805479E1,-4.839483798E-1,3.914059639E0,1.001097202E1
3.931792360E1,-2.733799815E-1,2.937189817E0,1.102134132E1
3.933778698E1,2.967100143E-1,2.760120869E0,1.082453156E1
3.935765578E1,1.153340459E0,2.879761934E0,9.570094109E0
3.937751917E1,1.196411371E0,3.119044304E0,7.726424217E0
3.939738802E1,1.091127157E0,3.032902718E0,6.720840454E0
3.941725136E1,1.158126116E0,2.511267424E0,6.663413048E0
3.943712021E1,5.168496966E-1,2.166102648E0,6.419344902E0
3.945698360E1,-6.801598072E-1,2.156531334E0,5.361119270E0
3.947685240E1,-1.570888042E0,2.261815548E0,4.082753658E0
3.949671573E1,-2.298904419E0,2.535195589E0,4.101896286E0
3.951658459E1,-2.935993433E0,2.520838737E0,5.825924873E0
3.953644797E1,-2.121835470E0,1.835893154E0,7.429714203E0
3.955631677E1,-7.136593461E-1,1.189232826E0,1.054217815E1
3.957618016E1,-4.025924206E-1,1.587039590E0,1.343928814E1
3.959604896E1,-1.974078640E-2,2.209173441E0,1.138504982E1
3.961591235E1,2.197209358E0,1.424327731E0,1.087717342E1
3.963578120E1,3.715455294E0,8.446664214E-1,1.845763588E1
3.965564453E1,2.829512835E0,-9.870393574E-2,2.158445740E1
3.967551334E1,1.421934843E0,7.968099117E-1,1.727976799E1
3.969537672E1,2.039283037E0,2.544766903E0,1.147597694E1
3.971524558E1,3.452244759E0,3.842274904E0,8.770293236E0
3.973510896E1,3.428316593E0,3.866203070E0,9.847661972E0
3.975497776E1,1.709073544E0,3.109472990E0,1.176790142E1
3.977484115E1,1.333998591E-1,2.760120869E0,1.172483063E1
3.979470995E1,-3.260220885E-1,3.013760090E0,9.617950439E0
3.981457334E1,-2.973082066E-1,3.353540897E0,7.190432072E0
3.983444214E1,-4.025924206E-1,3.425923824E0,5.983851433E0
3.985430552E1,-6.323033571E-1,3.209971666E0,5.825924873E0
3.987417438E1,-5.365904570E-1,2.836691141E0,5.868995667E0
3.989403776E1,-2.350948304E-1,2.693121910E0,6.294918060E0
3.991390656E1,1.429711580E-1,2.707478762E0,6.553342819E0
3.993376995E1,8.757730722E-1,2.812762976E0,6.798008919E0
3.995363875E1,1.862214208E0,2.717050076E0,7.085147858E0
3.997350214E1,2.182852507E0,2.429911375E0,7.803592682E0
3.999337099E1,1.977069736E0,2.094317913E0,9.201599121E0
4.001323438E1,2.528017044E0,1.630110383E0,9.565308571E0
4.003310318E1,3.576671600E0,1.419542074E0,9.402596474E0
4.005296656E1,3.183650494E0,1.572682738E0,8.842676163E0
4.007283537E1,2.729014158E0,1.764108539E0,8.928817749E0
4.009269875E1,2.695514679E0,2.137388945E0,9.991828918E0
4.011256761E1,2.134995937E0,3.320041418E0,1.021196842E1
4.013243099E1,2.278565407E0,4.091128349E0,9.440881729E0
4.015229979E1,2.824727058E0,3.684348583E0,1.042732334E1
4.017216318E1,1.632503271E0,3.512065411E0,1.211785221E1
4.019203203E1,3.780659735E-1,3.703491211E0,1.202692509E1
4.021189537E1,-2.207378894E-1,4.134199142E0,1.158126163E1
4.023176422E1,1.046859920E-1,4.570291042E0,1.108833981E1
4.025162761E1,9.236295223E-1,4.277768612E0,1.099741268E1
4.027149641E1,9.284151793E-1,3.497708559E0,1.179183006E1
4.029135979E1,2.099701911E-1,2.726621389E0,1.180618668E1
4.031122865E1,-4.217349887E-1,2.563909531E0,1.099262714E1
4.033109203E1,-2.590230405E-1,2.712264538E0,9.689735413E0
4.035096084E1,3.876372576E-1,2.918047190E0,8.435297966E0
4.037082422E1,6.508477330E-1,2.898904562E0,7.861020565E0
4.039069308E1,4.881358147E-1,2.477767944E0,8.081160545E0
4.041055646E1,1.573280841E-1,2.079961061E0,7.999804497E0
4.043042526E1,-1.154536903E-1,2.017747641E0,7.281359196E0
4.045028865E1,-3.260220885E-1,2.051247120E0,6.500700951E0
4.047015750E1,-4.839483798E-1,2.089532375E0,5.983851433E0
4.049002084E1,-7.088736892E-1,2.137388945E0,5.892923832E0
4.050988969E1,-1.049252748E0,2.151745796E0,6.199205399E0
4.052975308E1,-1.140179992E0,2.237887383E0,5.705685616E0
4.054962193E1,-8.243274093E-1,2.597409010E0,5.040481091E0
4.056948526E1,-1.968096644E-1,2.530410051E0,5.686542988E0
4.058935412E1,-2.781656384E-1,2.554338217E0,7.386643410E0
4.060921750E1,-5.324030295E-2,2.860619545E0,8.114660263E0
4.062908636E1,1.081555843E0,3.713062525E0,8.243872643E0
4.064894974E1,2.259422779E0,4.699503899E0,1.060917759E1
4.066881860E1,4.313661098E0,3.343969584E0,1.379821205E1
4.068868193E1,6.928418159E0,1.979462504E0,1.716012764E1
4.070855078E1,6.564708710E0,2.276172638E0,1.672403526E1
4.072841417E1,4.539184570E0,2.975475073E0,1.091127110E1
4.074828302E1,5.784050465E0,3.751347780E0,8.607581139E0
4.076814636E1,7.541578770E0,4.469792843E0,1.038903809E1
4.078801526E1,6.937989235E0,4.105485439E0,1.196949673E1
4.080787860E1,5.065605640E0,3.099901676E0,1.149033451E1
4.082774745E1,3.720241070E0,2.717050076E0,9.527023315E0
4.084761084E1,3.035295486E0,3.176471949E0,7.037291527E0
4.086747964E1,3.312862873E0,3.411566973E0,5.270191669E0
4.088734302E1,3.452244759E0,3.008974552E0,5.313262463E0
4.090721188E1,3.174079180E0,2.271386862E0,6.280561447E0
4.092707526E1,2.666800737E0,1.735394597E0,7.305287361E0
4.094694412E1,1.709073544E0,1.467398524E0,7.458428383E0
4.096680750E1,1.296909928E0,1.409970760E0,6.754938126E0
4.098667630E1,1.517647743E0,1.644467354E0,6.424130440E0
4.100653969E1,1.785643935E0,1.984248161E0,6.812366009E0
4.102640854E1,2.292922258E0,1.878963947E0,7.649854183E0
4.104627193E1,3.016152859E0,1.831107497E0,8.416155815E0
4.106614078E1,3.806382656E0,2.094317913E0,9.948758125E0
4.108600417E1,5.438885689E0,2.046461582E0,1.224706459E1
4.110587297E1,6.870990276E0,1.907677889E0,1.328136253E1
4.112573641E1,6.430112839E0,2.237887383E0,1.129412270E1
4.114560526E1,5.434100151E0,2.755335331E0,9.684949875E0
4.116546865E1,2.848655462E0,4.062414646E0,8.420941353E0
4.118533745E1,3.198007345E0,3.276970625E0,1.027418232E1
4.120520084E1,3.346362352E0,1.850250125E0,1.415294743E1
4.122506969E1,5.024927258E-1,1.381256819E0,1.486122322E1
4.124493308E1,-1.302891970E0,1.620539188E0,1.464108372E1
4.126480193E1,-5.653043389E-1,1.658824325E0,1.477508163E1
4.128466531E1,-1.585244983E-1,2.328814745E0,1.441137218E1
4.130453422E1,-3.451646566E-1,2.870190859E0,1.302772331E1
4.132439755E1,-4.313062727E-1,2.860619545E0,1.060439205E1
4.134426636E1,-2.015953064E-1,2.798406124E0,8.919246674E0
4.136412979E1,6.077769399E-1,2.784049034E0,7.870592117E0
4.138399865E1,1.474576950E0,2.525624275E0,6.970292568E0
4.140386203E1,2.331207514E0,2.084746838E0,6.582056999E0
4.142373084E1,2.652443886E0,1.706680775E0,6.371488571E0
4.144359422E1,2.609373093E0,7.106683254E-1,5.523830891E0
4.146346313E1,2.201995134E0,3.565305769E-1,4.489533424E0
4.148332646E1,1.637288928E0,7.537391186E-1,4.001397610E0
4.150319531E1,1.603789330E0,9.786644578E-1,4.106681824E0
4.152305870E1,1.876571178E0,3.996013701E-1,5.260620594E0
4.154292755E1,1.852642894E0,2.656033039E-1,5.806782246E0
4.156279094E1,1.905285001E0,1.026520967E0,5.471189022E0
4.158265979E1,1.833500385E0,1.945963025E0,6.299703598E0
4.160252318E1,1.680359721E0,2.434697151E0,9.718449593E0
4.162239203E1,9.810572863E-1,3.837489367E0,1.387956810E1
4.164225542E1,8.997012973E-1,5.915655613E0,1.443530083E1
4.166212427E1,1.527219057E0,6.317649841E0,1.160997581E1
4.168198766E1,-6.801598072E-1,5.364708424E0,1.141854954E1
4.170185651E1,-4.056432724E0,4.287340164E0,1.584766483E1
4.172171990E1,-3.390629768E0,3.952344894E0,1.934357834E1
4.174158875E1,-2.733799815E-1,5.307280540E0,1.886920166E1
4.176145214E1,2.111067772E0,5.461019516E0,1.564666748E1
4.178132099E1,7.226324677E-1,4.718646049E0,1.000139999E1
4.180118438E1,-2.088335991E0,4.067200184E0,5.035695076E0
4.182105323E1,-3.529413462E0,3.310470104E0,3.407379389E0
4.184091662E1,-3.932005882E0,2.951546669E0,4.398606300E0
4.186078547E1,-3.227917671E0,2.731407166E0,5.107480049E0
4.188064891E1,-1.762313843E0,2.774477959E0,5.643472195E0
4.190051771E1,-1.211964726E0,2.994617462E0,6.165705681E0
4.192038115E1,-1.436890006E0,2.812762976E0,5.888138294E0
4.194025000E1,-1.791027784E0,2.319243431E0,5.797211170E0
4.196011339E1,-1.887338877E0,2.017747641E0,5.993422508E0
4.197998224E1,-1.791027784E0,2.233101845E0,5.931209087E0
4.199984563E1,-1.503889084E0,2.807977438E0,5.571687698E0
4.201971448E1,-1.389033556E0,3.421138287E0,5.389832973E0
4.203957787E1,-1.570888042E0,4.019343853E0,5.251049519E0
4.205944672E1,-1.140179992E0,4.249054909E0,6.591628075E0
