"Time (s)","Acceleration x (m/s^2)","Acceleration y (m/s^2)","Acceleration z (m/s^2)"
1.160700200E-2,-1.082777739E0,5.059546947E0,7.735067368E0
3.151184500E-2,-1.518522382E0,5.179256916E0,7.869142532E0
5.141668900E-2,-1.623867273E0,5.275024891E0,7.782951355E0
7.132153300E-2,-1.283890605E0,5.217564106E0,7.802104950E0
9.122637700E-2,-1.049258947E0,5.145738125E0,7.821258545E0
1.111312200E-1,-8.720879555E-1,5.059546947E0,8.046313286E0
1.310360640E-1,-9.151836038E-1,5.246294498E0,7.931391716E0
1.509409080E-1,-9.774328470E-1,5.437830448E0,7.557896137E0
1.708457520E-1,-8.672995567E-1,5.409100056E0,7.586626530E0
1.907505950E-1,-7.140706778E-1,5.409100056E0,7.811681747E0
2.106554390E-1,-5.273229480E-1,5.495291233E0,7.955333710E0
2.305602830E-1,-5.273229480E-1,5.725134850E0,7.711124897E0
2.504651270E-1,-8.002619147E-1,5.878363609E0,7.342418194E0
2.703699700E-1,-7.428010702E-1,5.629366875E0,7.371148586E0
2.902748140E-1,-6.326677799E-1,5.222352505E0,7.730278969E0
3.101796580E-1,-5.752069354E-1,4.805761337E0,7.945756912E0
3.300845020E-1,-5.847837925E-1,4.700416565E0,7.950545311E0
3.499893450E-1,-8.433575630E-1,4.724358559E0,8.031948090E0
3.698941890E-1,-9.678560495E-1,4.671686172E0,7.926603317E0
3.897990330E-1,-8.672995567E-1,4.609436989E0,7.778162956E0
4.097038770E-1,-9.774328470E-1,4.604648590E0,7.811681747E0
4.296087200E-1,-1.298255920E0,4.633378983E0,7.763797760E0
4.495135640E-1,-1.518522382E0,4.422688961E0,7.658452511E0
4.694184080E-1,-1.374870300E0,4.077924252E0,7.452551365E0
4.893232520E-1,-8.625111580E-1,4.053982258E0,6.834847450E0
5.092280950E-1,-4.842272997E-1,4.365228176E0,6.063914299E0
5.291329390E-1,-5.608417392E-1,4.796184540E0,5.575497150E0
5.490377830E-1,-8.577227592E-1,5.016450882E0,5.929839134E0
5.689426270E-1,-1.010951638E0,5.093065739E0,6.873154640E0
5.888471350E-1,-1.259948611E0,5.490502834E0,7.088632584E0
6.087522390E-1,-1.762730956E0,5.959766388E0,6.456563473E0
6.286570830E-1,-1.858499050E0,5.902305603E0,6.202777863E0
6.485619270E-1,-1.288679123E0,5.528810501E0,6.892308235E0
6.684667700E-1,-8.385691643E-1,5.581482887E0,7.768586159E0
6.883716140E-1,-6.470330358E-1,6.438606739E0,8.003217697E0
7.082764580E-1,-1.188122630E0,7.214328289E0,7.883507729E0
7.281813020E-1,-2.500145197E0,7.468113422E0,8.625710487E0
7.480861450E-1,-4.142567635E0,6.654085159E0,9.865906715E0
7.679909890E-1,-4.501697540E0,5.591059685E0,1.081401062E1
7.878958330E-1,-3.299808502E0,5.136161327E0,1.079485703E1
8.078006770E-1,-2.227206230E0,5.643732071E0,9.166799545E0
8.277055200E-1,-2.921524525E0,6.194398403E0,7.902661324E0
8.476103640E-1,-3.582324266E0,6.007650852E0,8.467693329E0
8.675152080E-1,-2.916736126E0,5.088277340E0,9.564237595E0
8.874200520E-1,-1.935113549E0,4.331709385E0,9.885060310E0
9.073248950E-1,-1.207276225E0,4.374804974E0,9.200318336E0
9.272297390E-1,-7.763199210E-1,4.695628166E0,8.180388451E0
9.471345830E-1,-3.357867897E-1,4.968566895E0,7.074267387E0
9.670394270E-1,-3.411737457E-2,5.097854137E0,5.987299919E0
9.869442700E-1,2.053027898E-1,4.891952515E0,5.158905983E0
1.006849114E0,2.914940715E-1,4.341286182E0,5.034407616E0
1.026753958E0,1.717839688E-1,3.694851875E0,5.982511520E0
1.046658802E0,1.813607812E-1,3.225588322E0,6.849212646E0
1.066563645E0,5.021837950E-1,3.081936121E0,7.270592213E0
1.086468489E0,8.804676533E-1,3.642179251E0,7.510012150E0
1.106373333E0,9.570821524E-1,4.168903828E0,7.102997780E0
1.126278177E0,2.244564146E-1,4.824914932E0,6.672041416E0
1.146183020E0,-8.625111580E-1,5.509656429E0,6.940192223E0
1.166087864E0,-9.870096445E-1,5.753865242E0,8.075043678E0
1.185992708E0,-4.507084787E-1,5.978919983E0,9.085396767E0
1.205897552E0,-9.391255975E-1,6.409876347E0,9.066243172E0
1.225802395E0,-1.834557056E0,6.716334343E0,8.774150848E0
1.245707239E0,-2.385223389E0,6.888716698E0,9.181164742E0
1.265612083E0,-2.327762604E0,7.568670273E0,9.913790703E0
1.285516927E0,-4.453813553E0,7.630919456E0,9.430161476E0
1.305421770E0,-5.291784286E0,6.194398403E0,1.206378365E1
1.325326614E0,-3.826532841E0,3.982156038E0,1.393126106E1
1.345231458E0,-1.341351509E0,3.201646328E0,1.226489639E1
1.365136302E0,-6.278793812E-1,3.939060450E0,9.104550362E0
1.385041145E0,-9.199720025E-1,5.174468517E0,6.260239124E0
1.404945989E0,-1.250371814E0,5.950189590E0,4.660912037E0
1.424850833E0,-1.188122630E0,5.653308868E0,4.622604847E0
1.444755677E0,-1.082777739E0,4.925471306E0,5.020042419E0
1.464660520E0,-1.279102206E0,4.504091740E0,5.221155167E0
1.484565364E0,-1.824980259E0,4.116231441E0,5.810129166E0
1.504470208E0,-2.399588585E0,3.996521235E0,6.236296654E0
1.524375052E0,-3.098695517E0,4.326920986E0,6.092644691E0
1.544279895E0,-3.515286684E0,4.279036999E0,6.442198277E0
1.564184739E0,-2.998139143E0,3.488950491E0,7.960122108E0
1.584089583E0,-1.643020868E0,2.933495522E0,9.521142006E0
1.603994427E0,-7.475894690E-1,4.207211018E0,9.545084000E0
1.623899270E0,-1.183334231E0,6.467337132E0,8.434173584E0
1.643804114E0,-1.183334231E0,8.382699013E0,7.677606106E0
1.663708958E0,-1.145026922E0,9.503185272E0,8.151658058E0
1.683613802E0,-9.965864420E-1,1.057099915E1,8.802881241E0
1.703518645E0,-2.524087191E0,1.022144604E1,8.367136002E0
1.723423489E0,-3.314173698E0,8.037933350E0,9.683947563E0
1.743328333E0,-1.944690347E0,4.935048103E0,1.130721569E1
1.763233177E0,-2.926911712E-1,2.765901566E0,1.139819527E1
1.783138020E0,8.080431074E-2,2.248754025E0,1.065120506E1
1.803042864E0,-1.599925280E0,2.981379747E0,1.044530392E1
1.822947708E0,-3.256712914E0,3.948637247E0,1.006701946E1
1.842852552E0,-3.132214308E0,3.905541420E0,8.084620476E0
1.862757395E0,-1.834557056E0,3.153762102E0,5.407903194E0
1.882662239E0,-6.805518270E-1,2.497750998E0,3.655347347E0
1.902567083E0,-1.873462796E-1,2.373252392E0,3.550002575E0
1.922471927E0,-1.442506462E-1,2.574365377E0,4.320935726E0
1.942376770E0,-1.969230920E-1,2.670133352E0,5.082291603E0
1.962281614E0,-6.763619930E-2,2.770689964E0,5.747879505E0
1.982186458E0,-9.636662155E-2,3.335721493E0,5.743091106E0
2.002091302E0,-2.783259451E-1,4.250306606E0,5.379172802E0
2.021996145E0,-4.554968774E-1,5.705981255E0,5.934627533E0
2.041900989E0,-7.906851172E-1,7.262212276E0,7.026383400E0
2.061805833E0,-2.054823637E0,8.377910614E0,6.571485043E0
2.081710677E0,-2.820968151E0,8.851962090E0,8.122927666E0
2.101615520E0,-3.577535868E0,9.843161583E0,8.769362450E0
2.121520364E0,-4.731541157E0,8.507197380E0,8.501212120E0
2.141425208E0,-4.530427933E0,5.567117691E0,1.011969185E1
2.161330052E0,-4.607042789E0,3.627814054E0,1.299752235E1
2.181234895E0,-5.569511890E0,3.292625904E0,1.757044792E1
2.201139739E0,-4.865616322E0,3.646967649E0,1.735496902E1
2.221044583E0,-2.619855165E0,4.202422619E0,1.341411400E1
2.240949427E0,-8.289923668E-1,4.350862980E0,9.707889557E0
2.260854270E0,-2.926911712E-1,4.192845821E0,7.711124897E0
2.280759114E0,-4.459200799E-1,3.709217072E0,7.337629795E0
2.300663958E0,-1.049258947E0,3.445854902E0,6.667253017E0
2.320568802E0,-1.556829691E0,3.201646328E0,6.207566261E0
2.340473645E0,-1.532887697E0,3.029263735E0,5.738302708E0
2.360378489E0,-1.097142935E0,2.914341927E0,4.976946831E0
2.380283333E0,-6.326677799E-1,2.866457939E0,4.301782131E0
2.400188177E0,-5.752069354E-1,3.062782526E0,3.602674961E0
2.420093020E0,-1.006163239E0,3.292625904E0,3.320159197E0
2.439997864E0,-9.487023950E-1,3.038840532E0,4.962581635E0
2.459902708E0,-6.949170232E-1,3.718793869E0,7.902661324E0
2.479807552E0,-1.671751380E0,5.423465252E0,7.988852501E0
2.499712395E0,-2.835333347E0,6.778583527E0,7.505223751E0
2.519617239E0,-2.318185806E0,6.850409508E0,9.032724380E0
2.539522083E0,-2.117072821E0,8.009202957E0,1.037347698E1
2.559426927E0,-3.836109638E0,9.670779228E0,1.075176144E1
2.579331770E0,-5.808931828E0,9.177573204E0,1.161846256E1
2.599236614E0,-5.301361084E0,6.414664745E0,1.300709915E1
2.619141458E0,-3.084330320E0,4.101866245E0,1.388816547E1
2.639046302E0,-1.374870300E0,3.737947464E0,1.266712284E1
2.658951145E0,-9.917980433E-1,4.906317711E0,9.300874710E0
2.678855989E0,-1.173757434E0,5.916670799E0,6.135740280E0
2.698760833E0,-1.403600693E0,5.773018837E0,4.660912037E0
2.718665677E0,-1.523310781E0,4.939836502E0,4.153341293E0
2.738570520E0,-1.164180517E0,4.346074581E0,3.775057554E0
2.758475364E0,-3.501519859E-1,3.991732836E0,4.201225281E0
2.778380208E0,5.452794433E-1,3.766677856E0,4.766256809E0
2.798285052E0,1.416768909E0,3.589506865E0,4.756680012E0
2.818189895E0,2.144606113E0,3.278260708E0,5.441421986E0
2.838094739E0,3.413532972E0,2.861669540E0,7.021595001E0
2.857999583E0,4.299387932E0,3.594295263E0,6.724713802E0
2.877904427E0,3.724779367E0,6.036381245E0,4.502894878E0
2.897809270E0,1.771110654E0,8.904634476E0,4.287416458E0
2.917714114E0,1.813607812E-1,8.301296234E0,8.319252014E0
2.937618958E0,-4.985924959E-1,6.429029942E0,1.223137760E1
2.957523802E0,-1.868075848E0,6.697180748E0,1.182436371E1
2.977428645E0,-5.694010258E0,5.796960831E0,1.147002220E1
2.997333489E0,-7.906252384E0,3.599083662E0,1.756087112E1
3.017238333E0,-6.632537365E0,1.903988957E0,2.104203987E1
3.037143177E0,-3.898358822E0,1.611896276E0,1.717779922E1
3.057048020E0,-2.864063740E0,2.933495522E0,1.145565701E1
3.076952864E0,-2.433107376E0,4.164115429E0,7.572261333E0
3.096857708E0,-1.724423766E0,4.422688961E0,5.704783916E0
3.116762552E0,-1.039682031E0,3.953425646E0,5.020042419E0
3.136667395E0,-1.097142935E0,3.354875088E0,5.010465622E0
3.156572239E0,-1.461061597E0,2.943072557E0,5.005677223E0
3.176477083E0,-2.179322004E0,3.034052134E0,4.402338505E0
3.196381927E0,-3.031657934E0,3.383605480E0,3.439869404E0
3.216286770E0,-3.692457676E0,3.776254654E0,4.196436882E0
3.236191614E0,-3.682880878E0,4.264671803E0,6.806117058E0
3.256096458E0,-3.405153275E0,5.030816555E0,8.113350868E0
3.276001302E0,-3.807379246E0,6.725911140E0,6.006453514E0
3.295906145E0,-2.830544949E0,7.903858185E0,5.877166748E0
3.315810989E0,-2.452261209E0,7.942165375E0,8.185176849E0
3.335715833E0,-4.420294762E0,8.215105057E0,1.053628349E1
3.355620677E0,-5.880757809E0,7.659649849E0,1.323215389E1
3.375525520E0,-5.799355030E0,5.557540894E0,1.412758541E1
3.395430364E0,-5.598242283E0,4.518456936E0,1.574606609E1
3.415335208E0,-4.496909142E0,4.168903828E0,1.556889534E1
3.435240052E0,-3.194463730E0,4.245518208E0,1.253783607E1
3.455144895E0,-2.217629433E0,4.484938145E0,9.592967987E0
3.475049739E0,-1.279102206E0,4.264671803E0,8.060678482E0
3.494954583E0,-3.262099922E-1,3.814561844E0,7.217919350E0
3.514859427E0,3.298012912E-1,3.421912670E0,6.825270653E0
3.534764270E0,6.075286865E-1,3.172915697E0,7.059902191E0
3.554669114E0,8.804676533E-1,3.134608507E0,7.050325394E0
3.574573958E0,1.196502328E0,3.053205729E0,6.585850239E0
3.594478802E0,1.354519606E0,2.904765129E0,6.356007099E0
3.614383645E0,1.086369038E0,2.770689964E0,6.763021469E0
3.634288489E0,1.220444322E0,2.813785553E0,7.050325394E0
3.654193333E0,1.914762855E0,3.374028683E0,6.490082264E0
3.674098177E0,2.441487074E0,4.274248600E0,5.561131954E0
3.694003020E0,1.972223639E0,5.610213280E0,6.221931458E0
3.713907864E0,1.277905107E0,6.505644798E0,7.984064102E0
3.733812708E0,1.641823769E0,6.845621109E0,9.511565208E0
3.753717552E0,1.823783159E0,6.994061947E0,9.401431084E0
3.773622395E0,1.517325282E0,6.874351501E0,9.358335495E0
3.793527239E0,8.613140583E-1,6.725911140E0,1.001434708E1
3.813432083E0,2.340332121E-1,7.817667007E0,1.136946487E1
3.833336927E0,-1.475426793E0,8.425794601E0,1.136467648E1
3.853241770E0,-2.988562346E0,7.760206223E0,1.321300030E1
3.873146666E0,-3.548805475E0,6.663661957E0,1.359128475E1
3.893051562E0,-3.261501312E0,6.242282391E0,1.245643330E1
3.912956458E0,-2.203263998E0,6.294954777E0,1.004307747E1
3.932861354E0,-6.901286244E-1,6.500856400E0,6.930615425E0
3.952766249E0,5.835866928E-1,6.668450356E0,4.751891613E0
3.972671145E0,1.445499301E0,6.448183537E0,3.794211149E0
3.992576041E0,1.742380261E0,5.911882401E0,3.669712543E0
4.012480937E0,1.383249998E0,4.954201698E0,4.641758442E0
4.032385833E0,8.804676533E-1,3.781043053E0,5.652111530E0
4.052290729E0,-4.848258570E-2,2.856881142E0,6.135740280E0
4.072195624E0,-1.801038265E0,3.043628931E0,6.231508255E0
4.092100520E0,-3.476979494E0,3.254318714E0,7.136516571E0
4.112005416E0,-4.156932831E0,2.224812031E0,7.931391716E0
4.131910312E0,-3.874416828E0,1.027711034E0,7.715913296E0
4.151815208E0,-3.065176725E0,8.026561141E-1,7.170035362E0
4.171720104E0,-2.672527552E0,2.023699045E0,6.288969517E0
4.191624999E0,-3.031657934E0,3.527257681E0,4.866813660E0
4.211529895E0,-2.782660961E0,5.547964096E0,3.760692358E0
4.231434791E0,-2.021304846E0,7.879916191E0,2.803011656E0
4.251339687E0,-2.600701571E0,1.027411842E1,2.597110271E0
4.271244583E0,-4.434659958E0,1.170585060E1,3.818153143E0
4.291149479E0,-6.139331818E0,1.120785713E1,6.293757915E0
4.311054374E0,-7.523180485E0,1.001075554E1,1.011969185E1
4.330959270E0,-7.173626900E0,8.588600159E0,1.224095440E1
4.350864166E0,-5.301361084E0,7.444171429E0,1.220264721E1
4.370769062E0,-3.912724018E0,7.075464725E0,1.181478691E1
4.390673958E0,-3.232770920E0,6.941389084E0,1.067514706E1
4.410578854E0,-2.720411777E0,6.634931564E0,9.430161476E0
4.430483749E0,-1.437119603E0,5.696404457E0,8.534730911E0
4.450388645E0,2.867056429E-1,4.709993362E0,7.950545311E0
4.470293541E0,1.450287700E0,4.116231441E0,7.691971302E0
4.490198437E0,1.895609140E0,3.781043053E0,7.524377346E0
4.510103333E0,2.154182911E0,3.407547474E0,7.735067368E0
4.530008229E0,2.494159698E0,2.842515945E0,8.362347603E0
4.549913124E0,3.073556423E0,2.339733601E0,8.764574051E0
4.569818020E0,3.470993996E0,2.354098797E0,7.988852501E0
4.589722916E0,2.494159698E0,2.976591349E0,6.691195011E0
4.609627812E0,7.894880176E-1,3.699640274E0,6.221931458E0
4.629532708E0,4.495113790E-1,4.422688961E0,7.155670166E0
4.649437604E0,6.410474777E-1,4.968566895E0,6.672041416E0
4.669342499E0,4.926069975E-1,4.901529312E0,6.514024258E0
4.689247395E0,-9.487023950E-1,3.795408249E0,1.100075817E1
4.709152291E0,-2.648585558E0,3.230376720E0,1.585619926E1
4.729057187E0,-4.329315186E0,4.911106110E0,1.666065025E1
4.748962083E0,-7.518392086E0,7.444171429E0,1.354340076E1
4.768866979E0,-6.694786549E0,8.176796913E0,1.126412010E1
4.788771822E0,-4.003703594E0,7.075464725E0,9.003993988E0
4.808676666E0,-2.212841034E0,6.548740387E0,7.189188957E0
4.828581510E0,-2.050035238E0,7.085041523E0,6.537966251E0
4.848486354E0,-2.643797159E0,7.314884663E0,6.451775074E0
4.868391197E0,-3.572747469E0,6.764218330E0,6.605003834E0
4.888296041E0,-4.271854401E0,5.725134850E0,7.562684536E0
4.908200885E0,-4.377199173E0,4.930259705E0,7.600991726E0
4.928105729E0,-4.056376457E0,4.853645325E0,6.351218700E0
4.948010572E0,-3.405153275E0,4.882375717E0,5.489305973E0
4.967915416E0,-1.906383157E0,5.083488941E0,5.905897141E0
4.987820260E0,-3.214215636E-1,5.509656429E0,6.346430302E0
5.007725104E0,-2.064998895E-1,6.510433197E0,5.580285549E0
5.027629947E0,-7.619546652E-1,7.429806232E0,4.909909248E0
5.047534791E0,4.878185987E-1,7.463325024E0,6.662464619E0
5.067439635E0,1.684919477E0,7.966107368E0,7.289745808E0
5.087344479E0,-1.634042710E-1,7.942165375E0,6.303334713E0
5.107249322E0,-4.650736749E-1,5.954977989E0,1.113004494E1
5.127154166E0,3.872621357E-1,3.584718466E0,1.454896545E1
5.147059010E0,1.809417963E0,2.804208755E0,1.372057152E1
5.166963854E0,1.076792240E0,4.346074581E0,1.023940182E1
5.186868697E0,-6.997054219E-1,6.017227650E0,8.008006096E0
5.206773541E0,-1.872864246E0,6.654085159E0,6.949769020E0
5.226678385E0,-1.523310781E0,5.921459198E0,5.824494362E0
5.246583229E0,-8.864531517E-1,5.097854137E0,4.962581635E0
5.266488072E0,-1.274313807E0,5.447407246E0,4.747103214E0
5.286392916E0,-1.690904975E0,6.055534840E0,4.675277233E0
5.306297760E0,-1.279102206E0,6.194398403E0,4.636970043E0
5.326202604E0,-5.368997455E-1,5.940612793E0,4.076726913E0
5.346107447E0,-2.543839216E-1,5.490502834E0,3.798999548E0
5.366012291E0,-6.901286244E-1,5.246294498E0,5.134963989E0
5.385917135E0,-1.398812294E0,5.624578476E0,7.361571789E0
5.405821979E0,-1.609502077E0,7.281365871E0,7.979275703E0
5.425726822E0,-2.998139143E0,9.316437721E0,5.637746334E0
5.445631666E0,-3.807379246E0,9.349956512E0,7.610568523E0
5.465536510E0,-3.716399670E0,6.778583527E0,1.193449688E1
5.485441354E0,-2.409165382E0,5.863998413E0,1.422335339E1
5.505346197E0,-3.189675331E0,7.061099529E0,1.128806210E1
5.525251041E0,-3.965396643E0,7.650073051E0,1.031122780E1
5.545155885E0,-2.586336374E0,6.529586792E0,1.017715263E1
5.565060729E0,-8.433575630E-1,5.533598900E0,9.367912292E0
5.584965572E0,9.714473486E-1,5.117007732E0,8.036736488E0
5.604870416E0,1.886032343E0,5.504868031E0,6.035183907E0
5.624775260E0,1.938704848E0,5.921459198E0,4.263474464E0
5.644680156E0,1.550844193E0,5.504868031E0,4.440645695E0
5.664585052E0,1.287482023E0,4.384381771E0,6.159682274E0
5.684489947E0,1.474229693E0,3.005321741E0,7.821258545E0
5.704394843E0,1.421557307E0,2.162562609E0,8.338405609E0
5.724299739E0,-7.721300423E-2,3.168127298E0,7.136516571E0
5.744204635E0,-2.399588585E0,4.542399406E0,7.332841396E0
5.764109531E0,-3.931877851E0,4.834491730E0,9.420584679E0
5.784014427E0,-3.725976467E0,3.958214045E0,1.006701946E1
5.803919322E0,-3.405153275E0,3.579930067E0,9.655217171E0
5.823824218E0,-4.042010784E0,4.384381771E0,8.726266861E0
5.843729114E0,-4.003703594E0,5.437830448E0,7.510012150E0
5.863634010E0,-3.002927542E0,6.812102318E0,6.806117058E0
5.883538906E0,-3.074753523E0,7.884704590E0,6.681618214E0
5.903443802E0,-3.453037500E0,8.406641006E0,6.935403824E0
5.923348697E0,-2.763507366E0,8.373122215E0,7.620145321E0
5.943253593E0,-1.935113549E0,8.765770912E0,7.974487305E0
5.963158489E0,-2.452261209E0,9.254188538E0,6.801328659E0
5.983063385E0,-4.343680382E0,8.737040520E0,8.415019989E0
6.002968281E0,-4.391564369E0,6.888716698E0,1.137425327E1
6.022873177E0,-3.352480888E0,5.480926037E0,1.167113495E1
6.042778072E0,-2.916736126E0,5.662885666E0,9.123703957E0
6.062682968E0,-3.673303843E0,6.812102318E0,6.470928669E0
6.082587864E0,-4.530427933E0,7.477690697E0,5.192424774E0
6.102492760E0,-6.153697014E0,7.195174694E0,7.179612160E0
6.122397656E0,-6.393116951E0,7.602189064E0,9.707889557E0
6.142302552E0,-2.921524525E0,5.021239281E0,5.020042419E0
6.162207447E0,-3.214215636E-1,4.274248600E0,3.363254786E0
6.182112343E0,-4.650736749E-1,4.657320976E0,3.564367771E0
6.202017239E0,-1.073200941E0,4.963778496E0,4.019266129E0
6.221922135E0,-9.487023950E-1,5.107430935E0,4.196436882E0
6.241827031E0,-7.236474752E-1,5.404311657E0,4.584297657E0
6.261731927E0,-1.360505104E0,5.801749229E0,5.340865612E0
6.281636822E0,-1.743577361E0,6.036381245E0,6.461351871E0
6.301541718E0,-1.652597666E0,5.978919983E0,7.773374557E0
6.321446614E0,-1.762730956E0,6.180033207E0,8.223484039E0
6.341351510E0,-1.255160213E0,6.213551998E0,7.313687801E0
6.361256406E0,-1.389235497E0,7.037157536E0,6.892308235E0
6.381161302E0,-2.107496023E0,8.756194115E0,5.901108742E0
6.401066197E0,-3.692457676E0,9.824007988E0,5.575497150E0
6.420971093E0,-3.869628429E0,8.555081367E0,9.315239906E0
6.440875989E0,-3.065176725E0,6.840832710E0,1.099596977E1
6.460780885E0,-2.342127800E0,7.147290707E0,9.296086311E0
6.504944275E0,-1.073200941E0,6.529586792E0,6.600215435E0
6.524849171E0,-1.154603720E0,6.314108372E0,7.682394505E0
6.544754066E0,-7.906851172E-1,5.926247597E0,8.194753647E0
6.564658962E0,-6.230909824E-1,5.883152008E0,7.687182903E0
6.584563858E0,-9.056068063E-1,6.194398403E0,6.973711014E0
6.604468754E0,-1.087566137E0,6.448183537E0,6.346430302E0
6.624373650E0,-1.331774712E0,6.385934353E0,6.576273441E0
6.644278546E0,-1.461061597E0,6.122572422E0,7.107786179E0
6.664183441E0,-1.523310781E0,5.964554787E0,6.992864609E0
6.684088337E0,-1.772307754E0,6.347627163E0,6.499659061E0
6.703993233E0,-2.088342428E0,6.826467514E0,5.982511520E0
6.723898129E0,-2.011728048E0,6.644508362E0,5.858013153E0
6.743803025E0,-2.265513420E0,6.529586792E0,6.480505466E0
6.763707921E0,-2.428318977E0,6.433818340E0,7.112574577E0
6.783612816E0,-2.945466757E0,6.701969147E0,7.529165745E0
6.803517712E0,-3.017292738E0,7.238270283E0,7.304111004E0
6.823422608E0,-3.524863482E0,7.501632690E0,6.509235859E0
6.843327504E0,-3.764283657E0,7.530363083E0,6.174047470E0
6.863232400E0,-3.888782024E0,7.204751492E0,6.245873451E0
6.883137296E0,-3.682880878E0,6.812102318E0,6.126163483E0
6.903042191E0,-3.352480888E0,6.448183537E0,5.781398773E0
6.922947087E0,-2.931101322E0,6.151302814E0,5.350442410E0
6.942851983E0,-2.562394381E0,5.787384033E0,4.929062843E0
6.962756879E0,-1.882441044E0,5.275024891E0,4.924274445E0
6.982661775E0,-1.274313807E0,4.729146957E0,5.034407616E0
7.002566671E0,-6.709750295E-1,4.413112164E0,4.914697647E0
7.022471566E0,-1.496376097E-2,4.298190594E0,5.096656799E0
7.042376462E0,5.261258483E-1,4.422688961E0,5.307346821E0
7.062281358E0,8.277952671E-1,4.642955780E0,5.168482780E0
7.082186254E0,9.331400990E-1,4.791396141E0,5.034407616E0
7.102091150E0,1.139041424E0,4.647744179E0,5.829282761E0
7.121996046E0,1.637035370E0,4.585494995E0,7.016806602E0
7.141900941E0,1.991377234E0,5.054758549E0,7.399878979E0
7.161805837E0,1.996165633E0,5.911882401E0,7.131728172E0
7.181710733E0,1.325789213E0,6.673238754E0,6.758233070E0
7.201615629E0,6.266822815E-1,6.893505096E0,8.046313286E0
7.221520525E0,9.522937536E-1,6.812102318E0,1.018194103E1
7.241425421E0,1.239597917E0,7.482479095E0,1.090499020E1
7.261330316E0,6.027402878E-1,7.755417824E0,1.079006863E1
7.281235212E0,1.526303589E-1,7.386710644E0,1.112046814E1
7.301140108E0,5.207388848E-2,6.898293495E0,1.152269459E1
7.321045004E0,1.382651478E-1,7.018003941E0,1.134552288E1
7.340949900E0,-1.394622475E-1,7.654861450E0,1.046445751E1
7.360854796E0,-5.225345492E-1,8.052298546E0,9.071031570E0
7.380759691E0,-1.786673069E0,7.827243805E0,8.635287285E0
7.400664587E0,-2.231994629E0,6.342838764E0,1.050755310E1
7.420569483E0,-1.523310781E0,4.480149746E0,1.169986534E1
7.440474379E0,-2.352303118E-1,3.627814054E0,1.045966911E1
7.460379275E0,2.962824702E-1,3.757101059E0,7.859565735E0
7.480284171E0,3.292027488E-2,4.393958569E0,5.905897141E0
7.500189066E0,-1.825578809E-1,4.681262970E0,4.938639641E0
7.520093962E0,-1.538274586E-1,4.513668537E0,4.536413670E0
7.539998858E0,-1.059434265E-1,4.116231441E0,4.450222492E0
7.559903702E0,-2.687491477E-1,3.895964622E0,4.373608112E0
7.579808546E0,-5.033808947E-1,3.560776472E0,4.972158432E0
7.599713389E0,-9.247604012E-1,3.388393879E0,5.412691593E0
7.619618233E0,-1.346139908E0,3.393182278E0,5.958569527E0
7.639523077E0,-1.729212165E0,3.244741917E0,7.079055786E0
7.659427921E0,-1.556829691E0,2.943072557E0,7.361571789E0
7.679332764E0,-9.391255975E-1,2.703652382E0,7.213130951E0
7.699237608E0,-5.464765429E-1,3.014898539E0,6.044760704E0
7.719142452E0,1.478419602E-1,4.259883404E0,5.240308762E0
7.739047296E0,1.210867524E0,6.802525520E0,5.403114796E0
7.758952139E0,-6.997054219E-1,9.235034943E0,4.737526417E0
7.778856983E0,-2.672527552E0,9.503185272E0,7.117362976E0
7.798761827E0,-2.385223389E0,8.205527306E0,1.066078186E1
7.818666671E0,-1.140238523E0,8.181585312E0,1.210687923E1
7.838571514E0,-2.030881643E0,9.278130531E0,1.195365047E1
7.858476358E0,-3.807379246E0,9.014767647E0,1.365353394E1
7.878381202E0,-3.788225651E0,7.233481884E0,1.570775890E1
7.898286046E0,-2.485780001E0,5.734711647E0,1.486021137E1
7.918190889E0,-1.058835745E0,5.485714436E0,1.199674606E1
7.938095733E0,-6.183025837E-1,5.859210014E0,9.042301178E0
7.958000577E0,-7.906851172E-1,6.160879612E0,7.208342552E0
7.977905421E0,-1.097142935E0,6.069900036E0,6.322488308E0
7.997810264E0,-1.054047346E0,5.533598900E0,5.905897141E0
8.017715108E0,-6.183025837E-1,4.834491730E0,5.321712017E0
8.037619952E0,-5.386953708E-3,4.255095005E0,4.627393246E0
8.057524796E0,5.165489912E-1,3.929483652E0,3.985747337E0
8.077429639E0,8.517372608E-1,3.747524261E0,3.827729940E0
8.097334483E0,9.139865041E-1,3.560776472E0,4.306570530E0
8.117239327E0,6.889315248E-1,3.321356297E0,5.005677223E0
8.137144171E0,6.266822815E-1,3.062782526E0,5.642534733E0
8.157049014E0,8.230068088E-1,3.163338900E0,5.939415932E0
8.176953858E0,6.841431260E-1,3.733159065E0,5.752667904E0
8.196858702E0,4.189853091E-3,4.437054157E0,5.790975571E0
8.216763546E0,-4.602852762E-1,5.375581264E0,6.748656273E0
8.236668441E0,-4.554968774E-1,6.802525520E0,7.979275703E0
8.256573337E0,-1.532887697E0,7.932588577E0,9.147645950E0
8.276478233E0,-2.270301819E0,8.109759331E0,1.121623611E1
8.296383129E0,-1.829768658E0,8.119336128E0,1.288260078E1
8.316288025E0,-1.786673069E0,8.713098526E0,1.186745930E1
8.336192921E0,-3.156156301E0,8.392275810E0,1.168071175E1
8.356097816E0,-3.165733099E0,7.137713909E0,1.280119801E1
8.376002712E0,-2.155380011E0,5.902305603E0,1.207336044E1
8.395907608E0,-1.154603720E0,5.389946461E0,9.636063576E0
8.415812504E0,-4.459200799E-1,5.313332081E0,7.462128162E0
8.435717400E0,1.334767491E-1,5.375581264E0,5.489305973E0
8.455622296E0,4.064157307E-1,5.591059685E0,3.827729940E0
8.475527191E0,3.441664875E-1,5.710769653E0,3.176506996E0
8.495432087E0,6.165069342E-2,5.705981255E0,3.229179621E0
8.515336983E0,-5.225345492E-1,5.672462463E0,3.842095137E0
8.535241879E0,-1.279102206E0,5.164891720E0,5.316923618E0
8.555146775E0,-2.265513420E0,4.810549736E0,6.729502201E0
8.575051671E0,-3.505709887E0,4.681262970E0,8.874707222E0
8.594956566E0,-4.195240021E0,4.360439777E0,1.049318790E1
8.614861462E0,-3.534440279E0,3.824138641E0,1.034953499E1
8.634766358E0,-2.164956808E0,3.991732836E0,9.114127159E0
8.654671254E0,-1.073200941E0,5.466560841E0,7.251438618E0
8.674576150E0,-9.630676508E-1,7.099406719E0,6.097433090E0
8.694481046E0,-1.499368787E0,7.563881874E0,7.337629795E0
8.714385941E0,-1.504157186E0,7.482479095E0,8.415019989E0
8.734290837E0,-1.044470549E0,7.645284653E0,9.128492355E0
8.754195733E0,-8.672995567E-1,8.320449829E0,8.822034836E0
8.774100629E0,-1.164180517E0,8.631695747E0,8.338405609E0
8.794005525E0,-1.791461468E0,8.085817337E0,9.162011147E0
8.813910421E0,-2.002151251E0,6.812102318E0,1.152269459E1
8.833815316E0,-1.690904975E0,5.509656429E0,1.299273396E1
8.853720212E0,-1.101931334E0,5.265448093E0,1.153705978E1
8.873625108E0,-8.050503135E-1,5.380369663E0,8.817246437E0
8.893530004E0,-7.523778677E-1,5.452195644E0,6.892308235E0
8.913434900E0,-9.008184075E-1,5.241506100E0,6.035183907E0
8.933339796E0,-6.374561787E-1,4.657320976E0,5.302558422E0
8.953244691E0,-2.783259451E-1,4.432265759E0,4.201225281E0
8.973149587E0,-2.831143439E-1,4.791396141E0,3.109469414E0
8.993054483E0,-3.309983909E-1,5.188833714E0,2.630629063E0
9.012959379E0,-5.847837925E-1,5.413888454E0,3.123834610E0
9.032864275E0,-1.202487826E0,5.916670799E0,4.182071686E0
9.052769171E0,-2.006939650E0,6.548740387E0,5.666476727E0
9.072674066E0,-3.002927542E0,7.166444302E0,5.929839134E0
9.092578962E0,-3.639785051E0,7.219116688E0,5.676053524E0
9.112483858E0,-3.702034473E0,7.108983517E0,6.992864609E0
9.132388754E0,-3.414730072E0,7.650073051E0,8.242637634E0
9.152293650E0,-3.860051632E0,8.607753754E0,7.208342552E0
9.172198546E0,-3.965396643E0,8.545504570E0,7.002441406E0
9.192103441E0,-3.275866508E0,7.156867504E0,8.951321602E0
9.212008337E0,-2.394800186E0,6.127360821E0,1.098639297E1
9.231913233E0,-1.638232470E0,6.625354767E0,1.097202778E1
9.251818129E0,-2.806602955E0,6.941389084E0,8.601768494E0
9.271723025E0,-3.022081137E0,6.630143166E0,8.630498886E0
9.291627921E0,-1.461061597E0,5.964554787E0,8.209118843E0
9.311532816E0,1.047463268E-1,5.533598900E0,6.265027523E0
9.331437712E0,6.841431260E-1,5.777807236E0,4.263474464E0
9.351342608E0,1.095347255E-1,6.486490726E0,3.363254786E0
9.371247504E0,-1.188122630E0,7.008427143E0,3.827729940E0
9.391152400E0,-2.634220362E0,7.348403454E0,4.842871666E0
9.411057296E0,-3.199252129E0,6.869563103E0,5.537189960E0
9.430962191E0,-3.285443306E0,6.041169643E0,5.781398773E0
9.450867087E0,-3.438672304E0,5.255871296E0,6.581061840E0
9.470771983E0,-3.405153275E0,4.805761337E0,7.553107738E0
9.490676879E0,-2.864063740E0,5.002085686E0,7.629722118E0
9.510581775E0,-1.355716705E0,5.988496780E0,7.083844185E0
9.530486671E0,-4.507084787E-1,7.319673061E0,4.948216438E0
9.550391566E0,-1.082777739E0,8.277354240E0,3.482964993E0
9.570296462E0,-1.283890605E0,8.871115685E0,4.383184910E0
9.590201358E0,-7.188590765E-1,9.316437721E0,5.905897141E0
9.610106254E0,-6.278793812E-1,9.824007988E0,6.418256283E0
9.630011150E0,-1.982997537E0,9.756970406E0,5.316923618E0
9.649916046E0,-3.419518471E0,9.220669746E0,6.418256283E0
9.669820941E0,-4.051588058E0,8.095394135E0,9.104550362E0
9.689725837E0,-3.745130062E0,7.137713909E0,1.050276470E1
9.709630733E0,-2.792237759E0,6.721122742E0,9.679159164E0
9.729535629E0,-2.337339401E0,6.620566368E0,8.247426033E0
9.749440525E0,-2.662950754E0,7.027580738E0,7.351994991E0
9.769345421E0,-2.677315950E0,7.161655903E0,6.446986675E0
9.789250316E0,-2.164956808E0,6.883928299E0,5.690418720E0
9.809155212E0,-1.652597666E0,6.496067524E0,4.670488834E0
9.829060108E0,-1.250371814E0,6.074688435E0,3.717596769E0
9.848965004E0,-9.439139962E-1,5.404311657E0,3.602674961E0
9.868869900E0,-4.507084787E-1,4.844068527E0,4.340089321E0
9.888774796E0,1.430535465E-1,4.508880138E0,4.957793236E0
9.908679691E0,4.064157307E-1,4.575918198E0,5.546766758E0
9.928584535E0,1.526303589E-1,4.571129799E0,5.632957935E0
9.948489379E0,-8.242039084E-1,4.868010521E0,6.265027523E0
9.968394223E0,-1.437119603E0,4.939836502E0,7.792528152E0
9.988299066E0,-6.566098332E-1,5.002085686E0,8.606556892E0
1.000820391E1,-4.848258570E-2,6.017227650E0,7.270592213E0
1.002810875E1,-1.341351509E0,7.008427143E0,6.480505466E0
1.004801360E1,-2.811391354E0,7.463325024E0,7.826046944E0
1.006791844E1,-2.978985548E0,6.836044312E0,9.999981880E0
1.008782328E1,-2.610278368E0,6.223128796E0,1.130721569E1
1.010772813E1,-2.504933596E0,7.008427143E0,1.090020180E1
1.012763297E1,-4.070741653E0,7.808090210E0,9.104550362E0
1.014753782E1,-4.908711910E0,7.161655903E0,9.205106735E0
1.016744266E1,-3.697246075E0,5.777807236E0,9.784503937E0
1.018734750E1,-2.097919226E0,5.054758549E0,8.625710487E0
1.020725235E1,-1.451484799E0,5.131372929E0,6.906673431E0
1.022715719E1,-1.523310781E0,5.581482887E0,5.771821976E0
1.024706204E1,-1.762730956E0,5.849633217E0,5.259462357E0
1.026696688E1,-1.863287449E0,5.677250862E0,5.139752388E0
1.028687172E1,-1.939901948E0,5.222352505E0,4.962581635E0
1.030677657E1,-2.198475599E0,4.676474571E0,5.412691593E0
1.032668141E1,-3.271078110E0,4.757877350E0,6.274604321E0
1.034658625E1,-4.396352768E0,5.021239281E0,7.170035362E0
1.036649110E1,-4.022857189E0,4.513668537E0,8.166023254E0
1.038639594E1,-1.963843942E0,4.595071793E0,8.343194008E0
1.040630078E1,-8.481459618E-1,6.658873558E0,5.872378349E0
1.042620563E1,-1.973420739E0,8.425794601E0,4.584297657E0
1.044611047E1,-3.093907118E0,8.727463722E0,6.954557419E0
1.046601532E1,-2.701258183E0,7.966107368E0,9.056666374E0
1.048592016E1,-1.523310781E0,7.463325024E0,1.001434708E1
1.050582500E1,-1.145026922E0,7.458536625E0,1.069430065E1
1.052572990E1,-1.729212165E0,6.955754280E0,1.172859573E1
1.054563480E1,-2.035670042E0,6.132149220E0,1.275331402E1
1.056553969E1,-1.930325150E0,5.471349239E0,1.192970848E1
1.058544459E1,-1.901594758E0,5.318120480E0,1.031601620E1
1.060534948E1,-2.366069794E0,5.504868031E0,9.071031570E0
1.062525438E1,-2.500145197E0,5.543175697E0,7.725490570E0
1.064515928E1,-2.164956808E0,5.447407246E0,6.341641903E0
1.066506417E1,-1.647809267E0,5.332485676E0,5.106233597E0
1.068496907E1,-1.221641421E0,5.231929302E0,4.047996521E0
1.070487396E1,-1.020528436E0,4.815338135E0,3.698443174E0
1.072477886E1,-7.284358740E-1,4.183269024E0,4.421492100E0
1.074468375E1,-1.107318252E-1,3.718793869E0,5.618592739E0
1.076458865E1,6.410474777E-1,3.512892485E0,6.188412666E0
1.078449355E1,9.618705511E-1,3.656544447E0,5.824494362E0
1.080439844E1,3.633201122E-1,4.125808239E0,5.321712017E0
1.082430334E1,-6.183025837E-1,4.384381771E0,6.686406612E0
1.084420823E1,-8.864531517E-1,4.513668537E0,9.195529938E0
1.086411313E1,-6.470330358E-1,5.093065739E0,9.468469620E0
1.088401802E1,-1.920748353E0,6.261435986E0,8.405443192E0
1.090392292E1,-3.520075083E0,7.018003941E0,9.621698380E0
1.092382782E1,-4.089895248E0,6.831255913E0,1.122102451E1
1.094373271E1,-3.606266260E0,6.725911140E0,1.199195766E1
1.096363761E1,-4.085106850E0,7.458536625E0,1.057459068E1
1.098354250E1,-5.703587055E0,6.931812286E0,1.036390018E1
1.100344740E1,-4.630984783E0,5.581482887E0,1.150354099E1
1.102335230E1,-2.457049608E0,4.465784550E0,1.022982502E1
1.104325719E1,-1.269525409E0,4.614225388E0,7.419032574E0
1.106316209E1,-1.202487826E0,5.389946461E0,5.628169537E0
1.108306698E1,-1.087566137E0,5.677250862E0,4.914697647E0
1.110297188E1,-7.954735160E-1,5.528810501E0,4.469376087E0
1.112287678E1,-6.518214345E-1,5.198410511E0,4.555567265E0
1.114278167E1,-8.098387122E-1,4.844068527E0,5.264250755E0
1.116268657E1,-1.341351509E0,4.508880138E0,6.470928669E0
1.118259146E1,-2.198475599E0,4.470572948E0,7.466916561E0
1.120249636E1,-3.218405724E0,4.829703331E0,8.151658058E0
1.122240125E1,-3.634996653E0,4.652532578E0,9.377489090E0
1.124230615E1,-3.041234732E0,4.087501049E0,9.291297913E0
1.126221105E1,-1.973420739E0,4.197634220E0,8.793304443E0
1.128211594E1,-1.264737010E0,5.691616058E0,7.318476200E0
1.130202084E1,-1.724423766E0,7.027580738E0,6.341641903E0
1.132192573E1,-2.586336374E0,7.386710644E0,7.462128162E0
1.134183063E1,-2.409165382E0,7.204751492E0,8.778939247E0
1.136173552E1,-1.475426793E0,7.626131058E0,8.415019989E0
1.138164042E1,-2.088342428E0,8.497620583E0,7.907449722E0
1.140154532E1,-3.922300816E0,8.823231697E0,8.711901665E0
1.142145021E1,-4.970961094E0,8.066663742E0,1.152748299E1
1.144135511E1,-4.884769917E0,6.371569157E0,1.373972511E1
1.146126000E1,-3.998915434E0,5.126584530E0,1.369184113E1
1.148116490E1,-3.318962097E0,5.150526524E0,1.176211452E1
1.150106980E1,-2.935889721E0,5.605424881E0,9.205106735E0
1.152097469E1,-2.222417831E0,5.816114426E0,6.830059052E0
1.154087959E1,-1.523310781E0,5.916670799E0,4.900332451E0
1.156078448E1,-1.006163239E0,5.998073578E0,3.535637379E0
1.158068938E1,-6.230909824E-1,5.830479622E0,2.970605850E0
1.160059428E1,-2.974795699E-1,5.385158062E0,3.123834610E0
1.162049917E1,1.334767491E-1,4.585494995E0,3.851671934E0
1.164040407E1,7.511807680E-1,3.848080635E0,5.120598793E0
1.166030896E1,1.546055794E0,3.417124271E0,5.944204330E0
1.168021386E1,1.938704848E0,3.144185305E0,5.905897141E0
1.170011875E1,1.991377234E0,2.976591349E0,5.881955147E0
1.172002365E1,1.852513552E0,3.187281132E0,6.197989464E0
1.173992855E1,1.273116708E0,3.445854902E0,6.312911510E0
1.175983344E1,-7.242459804E-2,3.963002443E0,6.241085052E0
1.177973834E1,-2.050035238E0,5.298966885E0,7.615356922E0
1.179964323E1,-2.974197149E0,7.204751492E0,8.122927666E0
1.181954813E1,-3.898358822E0,8.861538887E0,6.552331448E0
1.183945303E1,-5.430647850E0,9.704298019E0,6.231508255E0
1.185935792E1,-5.784989834E0,9.555857658E0,8.721478462E0
1.187926282E1,-3.749918461E0,9.795277596E0,9.252990723E0
1.189916771E1,-4.434659958E0,1.031721401E1,5.652111530E0
1.191907261E1,-7.623736858E0,1.023581123E1,6.322488308E0
1.193897750E1,-7.532757282E0,8.382699013E0,1.005265427E1
1.195888240E1,-4.817732334E0,5.792172432E0,1.109652615E1
1.197878730E1,-2.078765631E0,4.513668537E0,9.640851974E0
1.199869219E1,-9.295488000E-1,4.513668537E0,7.658452511E0
1.201859709E1,-8.768763542E-1,5.112219334E0,6.174047470E0
1.203850198E1,-9.103952050E-1,5.361216068E0,5.221155167E0
1.205840688E1,-7.188590765E-1,5.030816555E0,4.699219227E0
1.207831178E1,-3.980360329E-1,4.370016575E0,4.929062843E0
1.209821667E1,-2.112883031E-1,3.752312660E0,5.805340767E0
1.211812157E1,-5.081692934E-1,3.541622877E0,6.633734226E0
1.213802646E1,-9.582792521E-1,3.603872061E0,6.514024258E0
1.215793136E1,-1.575983286E0,3.905541420E0,6.470928669E0
1.217783625E1,-1.743577361E0,3.714005470E0,7.936180115E0
1.219774115E1,-1.475426793E0,3.374028683E0,8.606556892E0
1.221764605E1,-5.464765429E-1,4.030039787E0,7.696759701E0
1.223755094E1,-4.363432527E-1,6.285377979E0,6.030395508E0
1.225745584E1,-2.390011787E0,7.894281387E0,5.120598793E0
1.227736078E1,-3.271078110E0,8.607753754E0,7.150881767E0
1.229726573E1,-2.136226416E0,8.306084633E0,8.060678482E0
1.231717068E1,-5.656301379E-1,9.019556046E0,8.094197273E0
1.233707563E1,-2.356492996E0,9.742605209E0,7.150881767E0
1.235698058E1,-3.974973440E0,9.345168114E0,1.025855541E1
1.237688552E1,-3.567959070E0,7.238270283E0,1.354818916E1
1.239679047E1,-1.772307754E0,5.193622112E0,1.412279701E1
1.241669542E1,-7.044938207E-1,4.848856926E0,1.289217758E1
1.243660037E1,-1.374870300E0,5.643732071E0,1.066078186E1
1.245650532E1,-1.796249866E0,6.175244808E0,8.913014412E0
1.247641026E1,-1.700481772E0,6.127360821E0,7.902661324E0
1.249631521E1,-1.154603720E0,5.792172432E0,6.719925404E0
1.251622016E1,-5.177460909E-1,5.361216068E0,5.446210384E0
1.253612511E1,-3.411737457E-2,5.073912144E0,4.632181644E0
1.255603006E1,8.080431074E-2,4.968566895E0,3.952228546E0
1.257593500E1,-1.442506462E-1,5.097854137E0,3.535637379E0
1.259583995E1,-5.225345492E-1,5.064335346E0,3.947440147E0
1.261574490E1,-5.177460909E-1,4.566341400E0,4.866813660E0
1.263564985E1,-2.974795699E-1,4.216787815E0,5.805340767E0
1.265555480E1,-8.678980917E-2,4.077924252E0,6.561908245E0
1.267545974E1,-3.118447661E-1,4.528033733E0,6.241085052E0
1.269536469E1,-1.125873327E0,5.078700542E0,5.977723122E0
1.271526964E1,-1.437119603E0,4.944624901E0,7.098209381E0
1.273517459E1,-1.825578809E-1,4.671686172E0,8.826823235E0
1.275507954E1,8.373720646E-1,5.677250862E0,8.673594475E0
1.277498448E1,-5.386953708E-3,7.243058681E0,8.319252014E0
1.279488943E1,-1.408389091E0,8.478466988E0,8.616133690E0
1.281479438E1,-1.935113549E0,8.301296234E0,1.014363384E1
1.283469933E1,-1.939901948E0,6.931812286E0,1.207336044E1
1.285460428E1,-1.508945584E0,6.491279125E0,1.349072838E1
1.287450917E1,-2.533663988E0,6.893505096E0,1.240854931E1
1.289441407E1,-3.362057686E0,7.219116688E0,1.135988808E1
1.291431896E1,-2.619855165E0,6.941389084E0,1.051712990E1
1.293422386E1,-1.523310781E0,6.424241543E0,8.860342026E0
1.295412875E1,-7.188590765E-1,6.237493992E0,6.887519836E0
1.297403365E1,-5.081692934E-1,6.438606739E0,5.221155167E0
1.299393855E1,-7.428010702E-1,6.610989571E0,4.545990467E0
1.301384344E1,-1.106719732E0,6.280589581E0,4.689642429E0
1.303374834E1,-1.298255920E0,5.418676853E0,5.360019207E0
1.305365323E1,-1.073200941E0,4.293402195E0,6.140528679E0
1.307355813E1,-5.177460909E-1,3.651756048E0,6.078279495E0
1.309346303E1,-3.740940094E-1,3.819350243E0,5.676053524E0
1.311336792E1,-1.269525409E0,4.595071793E0,5.307346821E0
1.313327282E1,-2.222417831E0,5.322908878E0,6.662464619E0
1.315317771E1,-2.279878616E0,5.026028156E0,8.103774071E0
1.317308261E1,-1.647809267E0,4.264671803E0,9.348758698E0
1.319298750E1,-8.960300088E-1,5.002085686E0,1.003828907E1
1.321289240E1,-9.822212458E-1,7.515997887E0,7.725490570E0
1.323279730E1,-2.500145197E0,9.752182007E0,5.709572315E0
1.325270219E1,-3.711611271E0,9.699509621E0,7.672817707E0
1.327260709E1,-2.883217335E0,7.573458672E0,1.031601620E1
1.329251198E1,-6.709750295E-1,6.280589581E0,1.058895588E1
1.331241688E1,-2.304419130E-1,6.893505096E0,8.261791229E0
1.333232178E1,-1.868075848E0,8.239047050E0,7.553107738E0
1.335222667E1,-3.017292738E0,8.358757019E0,8.328828812E0
1.337213157E1,-3.132214308E0,7.142502308E0,9.229048729E0
1.339203646E1,-3.022081137E0,6.242282391E0,9.071031570E0
1.341194136E1,-2.844910145E0,5.964554787E0,8.443750381E0
1.343184625E1,-2.552817583E0,5.897517204E0,7.663240910E0
1.345175115E1,-2.442684174E0,6.017227650E0,6.916250229E0
1.347165605E1,-2.332551003E0,6.103418827E0,6.260239124E0
1.349156094E1,-1.858499050E0,5.840056419E0,6.164470673E0
1.351146584E1,-1.595136881E0,5.725134850E0,6.073491096E0
1.353137073E1,-1.801038265E0,5.892728806E0,5.838859558E0
1.355127563E1,-2.193687201E0,5.916670799E0,6.217143059E0
1.357118052E1,-2.313397408E0,5.749076843E0,6.959345818E0
1.359108542E1,-2.150591612E0,5.696404457E0,7.088632584E0
1.361099032E1,-2.351704597E0,5.734711647E0,7.524377346E0
1.363089521E1,-2.270301819E0,6.074688435E0,8.711901665E0
1.365080011E1,-2.026093245E0,5.763442039E0,8.218695641E0
1.367070500E1,-1.743577361E0,6.242282391E0,8.084620476E0
1.369060990E1,-2.088342428E0,6.740276337E0,7.759009361E0
1.371051480E1,-2.792237759E0,6.338050365E0,8.070255280E0
1.373041969E1,-2.639008760E0,5.739500046E0,9.224260330E0
1.375032459E1,-1.848922253E0,5.126584530E0,9.023147583E0
1.377022948E1,-1.312621117E0,5.093065739E0,8.046313286E0
1.379013438E1,-1.427542806E0,5.217564106E0,7.840412140E0
1.381003928E1,-1.183334231E0,5.188833714E0,7.993640900E0
1.382994417E1,-7.715315223E-1,5.184045315E0,7.797316551E0
1.384984907E1,-9.199720025E-1,5.576694489E0,7.533954144E0
1.386975396E1,-1.034893632E0,5.720346451E0,7.586626530E0
1.388965886E1,-1.049258947E0,5.686827660E0,7.787739754E0
1.390956375E1,-9.151836038E-1,5.495291233E0,8.089408875E0
1.392946865E1,-8.720879555E-1,5.500079632E0,8.175600052E0
1.394937355E1,-1.077989340E0,5.696404457E0,8.098985672E0
1.396927844E1,-1.441908002E0,5.825691223E0,8.261791229E0
1.398918334E1,-1.690904975E0,5.729923248E0,8.419808388E0
1.400908823E1,-1.805826664E0,5.509656429E0,8.458115578E0
1.402899313E1,-1.949478745E0,5.571906090E0,8.151658058E0
1.404889802E1,-1.997362733E0,5.715558052E0,7.265803814E0
1.406880292E1,-2.208052635E0,6.156091213E0,6.485293865E0
1.408870782E1,-1.906383157E0,5.567117691E0,8.592191696E0
1.412693220E1,-1.710058570E0,4.949413300E0,6.499659061E0
1.414683709E1,-1.542464495E0,4.566341400E0,6.293757915E0
1.416674199E1,-1.451484799E0,4.370016575E0,5.810129166E0
1.418664688E1,-1.451484799E0,4.317344189E0,5.541978359E0
1.420655178E1,-1.930325150E0,4.566341400E0,4.948216438E0
1.422645668E1,-1.604713678E0,5.136161327E0,5.264250755E0
1.424636157E1,-1.489791989E0,5.495291233E0,4.957793236E0
1.426626647E1,-1.173757434E0,5.978919983E0,4.565144062E0
1.428617136E1,-1.259948611E0,6.084265232E0,4.675277233E0
1.430607626E1,-1.403600693E0,5.825691223E0,6.083067894E0
1.432598116E1,-1.518522382E0,5.500079632E0,7.241861820E0
1.434588605E1,-1.020528436E0,6.122572422E0,7.711124897E0
1.436579095E1,-1.317409515E0,7.080253124E0,7.198765755E0
1.438569584E1,-2.868852139E0,7.635707855E0,6.877943039E0
1.440560074E1,-4.252700806E0,6.807313919E0,9.185953140E0
1.442550563E1,-3.773860455E0,4.590283394E0,1.231278038E1
1.444541053E1,-1.824980259E0,3.465008497E0,1.345720959E1
1.446531543E1,-1.969230920E-1,4.551976204E0,1.214039803E1
1.448522032E1,-9.343371987E-1,5.950189590E0,1.037347698E1
1.450512522E1,-2.299032211E0,5.773018837E0,1.165676975E1
1.452503011E1,-2.667739153E0,4.221576214E0,1.400787544E1
1.454493501E1,-2.193687201E0,3.005321741E0,1.444840908E1
1.456483991E1,-1.245583415E0,3.000533342E0,1.279162121E1
1.458474480E1,-8.385691643E-1,3.872022629E0,9.722254753E0
1.460464970E1,-6.949170232E-1,4.676474571E0,7.059902191E0
1.462455459E1,-5.752069354E-1,5.083488941E0,5.609015942E0
1.464445949E1,-5.752069354E-1,4.882375717E0,5.575497150E0
1.466436438E1,-7.380126715E-1,4.221576214E0,5.858013153E0
1.468426928E1,-8.720879555E-1,3.541622877E0,6.226719856E0
1.470417418E1,-8.050503135E-1,3.110666513E0,6.451775074E0
1.472407907E1,-5.368997455E-1,3.216011524E0,6.087856293E0
1.474398397E1,-2.879027426E-1,3.752312660E0,5.149329185E0
1.476388886E1,-4.219780564E-1,4.192845821E0,4.435857296E0
1.478379376E1,-9.439139962E-1,4.240729809E0,5.096656799E0
1.480369866E1,-6.901286244E-1,3.967790842E0,6.408679485E0
1.482360360E1,-5.805939063E-2,3.819350243E0,7.160458565E0
1.484350855E1,1.376665942E-2,4.106654644E0,7.021595001E0
1.486341350E1,-9.534908533E-1,4.619013786E0,7.055113792E0
1.488331845E1,-1.532887697E0,4.839280128E0,8.156446457E0
1.490322339E1,-1.269525409E0,4.877587318E0,9.013570786E0
1.492312834E1,-3.645172119E-1,5.571906090E0,9.660005569E0
1.494303329E1,-3.309983909E-1,6.304531574E0,9.094973564E0
1.496293824E1,-1.944690347E0,6.467337132E0,9.056666374E0
1.498284319E1,-3.041234732E0,5.840056419E0,1.181478691E1
1.500274813E1,-2.069188833E0,5.002085686E0,1.429517937E1
1.502265308E1,-7.188590765E-1,5.854421616E0,1.264318085E1
1.504255803E1,-3.160944700E0,6.002861977E0,1.012448025E1
1.506246298E1,-4.951807499E0,5.777807236E0,1.228404999E1
1.508236793E1,-4.109048843E0,4.858433723E0,1.371578312E1
1.510227287E1,-1.666962981E0,4.393958569E0,1.151790619E1
1.512217782E1,-4.554968774E-1,4.844068527E0,8.438961983E0
1.514208277E1,-7.428010702E-1,5.787384033E0,6.858789444E0
1.516198772E1,-1.298255920E0,6.271012783E0,6.418256283E0
1.518189267E1,-1.432331204E0,5.825691223E0,6.576273441E0
1.520179761E1,-1.599925280E0,4.757877350E0,6.887519836E0
1.522170256E1,-2.126649618E0,3.891176224E0,7.691971302E0
1.524160751E1,-2.849698544E0,3.206434727E0,8.328828812E0
1.526151246E1,-3.467402697E0,2.780266762E0,8.611345291E0
1.528141741E1,-3.860051632E0,2.378040791E0,8.314463615E0
1.530132235E1,-4.070741653E0,2.114678621E0,8.089408875E0
1.532122730E1,-3.989338636E0,2.047641039E0,7.725490570E0
1.534113225E1,-3.658938646E0,2.071583033E0,6.533177853E0
1.536103720E1,-3.476979494E0,2.267907619E0,4.890755653E0
1.538094214E1,-3.151367903E0,2.358887196E0,3.291428804E0
1.540084709E1,-2.682104349E0,2.411559582E0,1.462258697E0
1.542075204E1,-1.935113549E0,3.321356297E0,8.397662640E-1
1.544065699E1,-4.746504724E-1,5.399523258E0,1.313818216E0
1.546056194E1,-3.597288132E-1,6.816890717E0,-1.610100716E-1
1.548046688E1,-1.757942557E0,6.625354767E0,1.414374709E0
1.550037183E1,-2.514510393E0,4.982932091E0,9.018359184E0
1.552027678E1,-1.293467522E0,4.508880138E0,1.495597935E1
1.554018173E1,-2.002151251E0,4.681262970E0,1.585141087E1
1.556008668E1,-4.243124008E0,4.614225388E0,1.820730591E1
1.557999162E1,-4.611831188E0,4.379593372E0,2.030462646E1
1.559989657E1,-3.816956043E0,4.848856926E0,1.872924042E1
1.561980152E1,-3.065176725E0,5.758653641E0,1.512836170E1
1.563970647E1,-2.691681147E0,6.462548733E0,1.161846256E1
1.565961142E1,-2.212841034E0,6.620566368E0,9.296086311E0
1.567951636E1,-1.719635367E0,6.271012783E0,8.108562469E0
1.569942131E1,-1.178545833E0,5.686827660E0,7.562684536E0
1.571932626E1,-6.661866307E-1,5.045181751E0,7.213130951E0
1.573923121E1,-1.155202314E-1,4.484938145E0,6.681618214E0
1.575913616E1,4.016273320E-1,4.082712650E0,6.193201065E0
1.577904110E1,8.086416125E-1,3.852869034E0,5.666476727E0
1.579894605E1,1.091157436E0,3.517680883E0,5.350442410E0
1.581885100E1,1.435922503E0,3.115454912E0,5.518036366E0
1.583875595E1,2.039261341E0,2.684498549E0,6.217143059E0
1.585866089E1,2.374449492E0,2.368463993E0,6.140528679E0
1.587856584E1,2.350507498E0,2.181716204E0,5.297770023E0
1.589847079E1,2.254739523E0,1.932719350E0,4.871602058E0
1.591837574E1,2.249951124E0,1.894412041E0,5.058349609E0
1.593828069E1,2.024896145E0,2.114678621E0,5.379172802E0
1.595818563E1,1.718438268E0,2.162562609E0,6.662464619E0
1.597809058E1,1.680131078E0,2.334945202E0,8.850765228E0
1.599799553E1,1.637035370E0,3.441066504E0,1.041178417E1
1.601790048E1,1.316212416E0,5.634155273E0,1.058895588E1
1.603780543E1,5.261258483E-1,6.452971935E0,1.319384670E1
1.605771032E1,-1.634042710E-1,5.054758549E0,1.871487617E1
1.607761522E1,-9.726444483E-1,4.063559055E0,2.200450897E1
1.609752011E1,-1.911171556E0,4.360439777E0,2.081219673E1
1.611742501E1,-2.634220362E0,5.739500046E0,1.721131706E1
1.613732990E1,-3.563170671E0,7.314884663E0,1.402702904E1
1.615723480E1,-4.089895248E0,7.875127792E0,1.177169132E1
1.617713970E1,-3.831321239E0,7.635707855E0,9.257779121E0
1.619704459E1,-3.457825899E0,7.334038258E0,6.964134216E0
1.621694949E1,-3.333327293E0,7.511209488E0,5.360019207E0
1.623685438E1,-3.333327293E0,7.549516678E0,3.990535736E0
1.625675928E1,-3.438672304E0,7.444171429E0,2.712032080E0
1.627666418E1,-3.481767893E0,7.305307865E0,1.280299306E0
1.629656907E1,-3.299808502E0,7.300519466E0,-2.214636654E-2
1.631647397E1,-3.275866508E0,7.492055893E0,-5.105634928E-1
1.633637886E1,-3.184886694E0,7.506421089E0,-2.663549483E-1
1.635628376E1,-2.811391354E0,7.420229435E0,2.890998423E-1
1.637618866E1,-2.528875589E0,7.180809498E0,1.060032845E0
1.639609355E1,-2.442684174E0,6.505644798E0,2.223614931E0
1.641599845E1,-2.179322004E0,5.207987309E0,3.626616955E0
1.643590334E1,-1.681328177E0,3.953425646E0,4.766256809E0
1.645580824E1,-1.398812294E0,3.067570925E0,5.211578369E0
1.647571313E1,-1.465849996E0,2.665344954E0,5.561131954E0
1.649561803E1,-1.461061597E0,2.411559582E0,5.747879505E0
1.651552293E1,-8.146271110E-1,2.229600430E0,5.834071159E0
1.653542782E1,3.250128925E-1,2.368463993E0,4.953004837E0
1.655533272E1,8.038532138E-1,2.957437754E0,3.851671934E0
1.657523761E1,4.207809567E-1,3.675698042E0,3.928286552E0
1.659514251E1,1.855506375E-2,4.279036999E0,5.623381138E0
1.661504741E1,5.740098357E-1,5.064335346E0,8.113350868E0
1.663495230E1,6.123170853E-1,6.606201172E0,9.329605103E0
1.665485720E1,-6.763619930E-2,8.353968620E0,9.597756386E0
1.667476209E1,-2.831143439E-1,8.468890190E0,1.271021843E1
1.669466699E1,-2.783259451E-1,8.224681854E0,1.774283028E1
1.671457188E1,-1.307832718E0,8.444948196E0,1.976353645E1
1.673447678E1,-2.495356798E0,7.908646584E0,2.027110672E1
1.675438168E1,-2.820968151E0,7.180809498E0,2.017533875E1
1.677428657E1,-2.251148224E0,6.706757545E0,1.802534676E1
1.679419147E1,-1.480215192E0,6.625354767E0,1.476923180E1
1.681409636E1,-6.518214345E-1,6.419453144E0,1.166634655E1
1.683400126E1,-2.208651006E-1,6.203975201E0,9.066243172E0
1.685390621E1,-1.777694821E-1,5.978919983E0,7.026383400E0
1.687381116E1,-5.386953708E-3,5.581482887E0,5.527613163E0
1.689371610E1,1.717839688E-1,5.126584530E0,4.397550106E0
1.691362105E1,2.675520480E-1,4.805761337E0,3.425503969E0
1.693352600E1,3.968389332E-1,4.523245335E0,2.640205860E0
1.695343095E1,4.399345517E-1,4.235941410E0,2.036867142E0
1.697333589E1,4.830302000E-1,3.838503838E0,1.706467271E0
1.699324084E1,5.548562407E-1,3.402759075E0,1.668160081E0
1.701314579E1,7.080851793E-1,3.062782526E0,1.845330954E0
1.703305074E1,8.804676533E-1,2.832939148E0,1.907580256E0
1.705295569E1,1.014542937E0,2.550423384E0,1.898003340E0
1.707286063E1,1.158195019E0,2.287061214E0,2.333748102E0
1.709276558E1,1.282693505E0,2.425924778E0,3.267486811E0
1.711267053E1,1.373673201E0,2.794631958E0,3.741538763E0
1.713257548E1,7.703344226E-1,3.594295263E0,3.985747337E0
1.715248042E1,-5.560533404E-1,4.695628166E0,4.823718071E0
1.717238537E1,-1.700481772E0,4.872798920E0,7.261015415E0
1.719229032E1,-1.963843942E0,4.695628166E0,1.151790619E1
1.721219527E1,-2.050035238E0,5.476137638E0,1.479317379E1
1.723210022E1,-3.400364876E0,6.347627163E0,1.459206104E1
1.725200516E1,-4.358045578E0,6.400299549E0,1.610519600E1
1.727191011E1,-4.348468781E0,6.089053631E0,1.961988449E1
1.729181506E1,-3.826532841E0,7.118560314E0,2.007478333E1
1.731172001E1,-3.615843058E0,8.957306862E0,1.716343307E1
1.733162496E1,-3.160944700E0,9.689932823E0,1.506611252E1
1.735152990E1,-2.026093245E0,8.689156532E0,1.549706936E1
1.737143485E1,-9.534908533E-1,7.013215542E0,1.585619926E1
1.739133980E1,-3.262099922E-1,5.806537628E0,1.494161415E1
1.741124475E1,1.855506375E-2,5.222352505E0,1.274373722E1
1.743114970E1,2.148796022E-1,4.915894508E0,1.011490345E1
1.745105464E1,3.202244639E-1,4.604648590E0,7.806893349E0
1.747095959E1,3.106476665E-1,4.312555790E0,6.073491096E0
1.749086454E1,3.058592677E-1,3.986944437E0,4.814141273E0
1.751076949E1,2.675520480E-1,3.666121244E0,3.909132719E0
1.753067444E1,2.723404467E-1,3.316567898E0,3.415927172E0
1.755057938E1,3.393780887E-1,3.057994127E0,3.013701439E0
1.757048433E1,4.016273320E-1,2.871246338E0,2.573168278E0
1.759038928E1,5.021837950E-1,2.727594376E0,2.237980127E0
1.761029423E1,5.740098357E-1,2.583942175E0,2.233191729E0
1.763019918E1,8.517372608E-1,2.445078373E0,3.214814425E0
1.765010412E1,1.076792240E0,2.330156803E0,3.803787947E0
1.767000907E1,9.522937536E-1,2.440289974E0,3.693654776E0
1.768991402E1,7.655459642E-1,2.765901566E0,3.751115561E0
1.770981897E1,6.649895310E-1,2.990956545E0,3.880402327E0
1.772972392E1,3.920505345E-1,3.024475336E0,4.215590477E0
1.774962886E1,-6.763619930E-2,3.101089716E0,5.225943565E0
1.776953381E1,-4.315548539E-1,3.225588322E0,6.389525890E0
1.778943876E1,-2.304419130E-1,3.369240284E0,6.734290600E0
1.780934371E1,1.095347255E-1,4.312555790E0,6.815693855E0
1.782924866E1,3.202244639E-1,5.969343185E0,8.003217697E0
1.784915360E1,1.238999367E-1,7.391499043E0,9.224260330E0
1.786905855E1,-2.352303118E-1,8.775347710E0,9.966463089E0
1.788896350E1,9.618705511E-1,8.583811760E0,1.302146435E1
1.790886845E1,2.192490101E0,6.912658691E0,1.789127159E1
1.792877339E1,9.714473486E-1,6.898293495E0,2.038124084E1
1.794867834E1,-1.839345455E0,8.229470253E0,2.011787796E1
1.796858329E1,-4.094683647E0,9.555857658E0,1.809717178E1
1.798848824E1,-5.200804710E0,9.943717957E0,1.560241413E1
1.800839319E1,-5.196016312E0,8.899846077E0,1.348593998E1
1.802829813E1,-4.669291973E0,7.817667007E0,1.164719296E1
1.804820308E1,-4.271854401E0,7.372345448E0,9.549872398E0
1.806810803E1,-4.099472046E0,7.468113422E0,7.093420982E0
1.808801298E1,-3.735553265E0,7.755417824E0,4.531625271E0
1.810791793E1,-3.055599928E0,7.530363083E0,2.635417461E0
1.812782287E1,-2.102707624E0,6.974907875E0,1.519719481E0
1.814772782E1,-1.408389091E0,6.448183537E0,8.206126094E-1
1.816763277E1,-1.164180517E0,5.969343185E0,7.535749674E-1
1.818753772E1,-6.997054219E-1,5.222352505E0,1.165377736E0
1.820744267E1,-1.538274586E-1,4.336497784E0,1.591545582E0
1.822734761E1,5.644330382E-1,3.436278105E0,1.921945453E0
1.824725256E1,1.435922503E0,2.536058187E0,2.300229311E0
1.826715746E1,2.067991734E0,2.282272816E0,2.410362482E0
1.828706235E1,2.307411909E0,2.421136379E0,2.233191729E0
1.830696725E1,2.345719099E0,2.373252392E0,2.161365509E0
1.832687214E1,2.015319347E0,2.603095770E0,1.864484549E0
1.834677704E1,1.603516579E0,2.904765129E0,2.266710520E0
1.836668194E1,1.344942808E0,2.583942175E0,3.406350374E0
1.838658683E1,9.044097066E-1,2.071583033E0,5.364807606E0
1.840649173E1,6.218938828E-1,1.257554412E0,9.185953140E0
1.842639662E1,7.416039705E-1,1.066018343E0,1.288738918E1
1.844630152E1,9.522937536E-1,1.937507749E0,1.459684944E1
1.846620642E1,9.953893423E-1,3.642179251E0,1.336623001E1
1.848611131E1,4.351461530E-1,5.638943672E0,1.153227139E1
1.850601621E1,-5.464765429E-1,7.295731068E0,1.152748299E1
1.852592110E1,-6.039373875E-1,6.773795128E0,1.353382397E1
1.854582600E1,-1.975216344E-2,5.777807236E0,1.493203735E1
1.856573089E1,-4.076128304E-1,5.940612793E0,1.439094830E1
1.858563579E1,-1.643020868E0,6.989273548E0,1.308850193E1
1.860554069E1,-2.619855165E0,7.702745438E0,1.207336044E1
1.862544558E1,-2.734776974E0,7.669226646E0,1.139340687E1
1.864535048E1,-2.294243813E0,7.276577473E0,1.076133823E1
1.866525537E1,-1.801038265E0,7.003638744E0,1.012448025E1
1.868516027E1,-1.599925280E0,6.874351501E0,9.923367500E0
1.870506516E1,-1.561618090E0,6.630143166E0,1.019151783E1
1.872497006E1,-1.513733983E0,6.103418827E0,1.027292061E1
1.874487496E1,-1.250371814E0,5.366004467E0,9.875483513E0
1.876477985E1,-7.619546652E-1,4.571129799E0,9.032724380E0
1.878468475E1,-3.597288132E-1,3.919906616E0,8.017582893E0
1.880458964E1,-2.974795699E-1,3.450643301E0,7.093420982E0
1.882449454E1,-5.847837925E-1,3.292625904E0,6.351218700E0
1.884439944E1,-8.146271110E-1,3.125031710E0,5.647323132E0
1.886430433E1,-9.343371987E-1,2.588730574E0,5.518036366E0
1.888420923E1,-1.130661726E0,2.018910646E0,5.819705963E0
1.890411412E1,-1.461061597E0,1.688510776E0,5.786187172E0
1.892401902E1,-1.686116576E0,1.042076349E0,5.728725910E0
1.894392397E1,-1.619078875E0,4.674678743E-1,5.685630322E0
1.896382892E1,-1.432331204E0,3.525462151E-1,5.355230808E0
1.898373386E1,-9.295488000E-1,5.297171474E-1,5.355230808E0
1.900363881E1,-4.267664552E-1,7.451952696E-1,5.767033577E0
1.902354376E1,-3.836708367E-1,1.180940032E0,4.627393246E0
1.904344871E1,-1.269525409E0,2.627037764E0,2.812588453E0
1.906335366E1,-2.097919226E0,4.470572948E0,3.593098164E0
1.908325860E1,-2.088342428E0,5.753865242E0,5.623381138E0
1.910316355E1,-2.428318977E0,7.185597897E0,6.150105476E0
1.912306850E1,-3.175309896E0,8.555081367E0,6.877943039E0
1.914297345E1,-4.578312397E0,8.837596893E0,9.846753120E0
1.916287839E1,-6.551134586E0,6.223128796E0,1.610998535E1
1.918278334E1,-7.791330814E0,4.307767391E0,2.338835716E1
1.920268829E1,-7.322067261E0,4.571129799E0,2.488233948E1
1.922259324E1,-6.259041786E0,5.868786812E0,2.070685196E1
1.924249819E1,-5.286995888E0,7.080253124E0,1.534862900E1
1.926240313E1,-4.343680382E0,7.219116688E0,1.125933170E1
1.928230808E1,-3.295020103E0,6.759429932E0,9.770138741E0
1.930221303E1,-2.758718967E0,6.055534840E0,9.190741539E0
1.932211798E1,-2.299032211E0,5.576694489E0,8.170811653E0
1.934202293E1,-1.556829691E0,5.064335346E0,6.399102688E0
1.936192787E1,-6.087257862E-1,4.705204964E0,4.569932461E0
1.938183282E1,1.478419602E-1,4.676474571E0,3.583521366E0
1.940173777E1,6.123170853E-1,4.590283394E0,3.976170540E0
1.942164272E1,6.410474777E-1,4.475361347E0,5.369596004E0
1.944154766E1,5.596446395E-1,4.077924252E0,6.533177853E0
1.946145261E1,8.277952671E-1,3.273472309E0,7.294534206E0
1.948135756E1,1.162983418E0,2.746747971E0,6.901885033E0
1.950126251E1,1.033696532E0,2.852092743E0,6.169259071E0
1.952116746E1,7.320271730E-1,2.952649355E0,6.154893875E0
1.954107240E1,4.016273320E-1,2.765901566E0,6.518812656E0
1.956097735E1,8.080431074E-2,2.373252392E0,6.897096634E0
1.958088230E1,2.196680009E-1,2.392405987E0,6.997653008E0
1.960078725E1,3.968389332E-1,3.311779499E0,5.709572315E0
1.962069220E1,2.813187055E-2,4.240729809E0,4.809352875E0
1.964059714E1,-1.575983286E0,4.135385036E0,8.017582893E0
1.966050209E1,-4.726752758E0,3.287837505E0,1.441967869E1
1.968040704E1,-6.709151745E0,3.005321741E0,1.930385017E1
1.970031199E1,-7.647678852E0,3.776254654E0,1.873881721E1
1.972021694E1,-9.539097786E0,6.060323238E0,1.738848877E1
1.974012188E1,-9.759365082E0,7.405864239E0,1.630630875E1
1.976002683E1,-7.911040783E0,7.539939880E0,1.497034454E1
1.977993178E1,-6.249464989E0,7.678803444E0,1.294484997E1
1.979983673E1,-5.306149483E0,8.018779755E0,1.022982502E1
1.981974168E1,-4.535216331E0,8.167220116E0,7.955333710E0
1.983964662E1,-3.826532841E0,7.707533836E0,6.389525890E0
1.985955157E1,-3.290231705E0,6.697180748E0,5.173271179E0
1.987945652E1,-2.897582531E0,5.638943672E0,4.440645695E0
1.989936147E1,-2.758718967E0,4.853645325E0,3.880402327E0
1.991926642E1,-2.734776974E0,4.097077847E0,3.894767523E0
1.993917136E1,-2.643797159E0,3.273472309E0,4.416703701E0
1.995907631E1,-2.538452387E0,2.765901566E0,4.823718071E0
1.997898126E1,-2.150591612E0,2.564788580E0,4.550778866E0
1.999888621E1,-1.915959954E0,2.607884169E0,3.928286552E0
2.001879116E1,-1.781884670E0,2.627037764E0,3.827729940E0
2.003869610E1,-1.676539779E0,2.540846586E0,4.273051262E0
2.005860105E1,-1.513733983E0,2.378040791E0,4.953004837E0
2.007850600E1,-1.063624144E0,2.483385801E0,5.292981625E0
2.009841095E1,-3.884592354E-1,2.890399933E0,5.134963989E0
2.011831589E1,2.388216257E-1,3.714005470E0,5.125387192E0
2.013822084E1,-7.242459804E-2,5.366004467E0,5.585073948E0
2.015812579E1,-8.050503135E-1,7.056311131E0,6.035183907E0
2.017803074E1,-9.822212458E-1,7.587823868E0,7.026383400E0
2.019793569E1,-6.183025837E-1,7.300519466E0,9.736619949E0
2.021784063E1,-2.256535143E-1,7.386710644E0,1.262402725E1
2.023774558E1,-5.895721912E-1,8.368333817E0,1.339017200E1
2.025765053E1,-2.605489969E0,9.761758804E0,1.361522675E1
2.027755548E1,-4.396352768E0,9.416994095E0,1.619617653E1
2.029746042E1,-4.674080372E0,7.918223381E0,1.758002472E1
2.031736537E1,-3.826532841E0,6.845621109E0,1.601900482E1
2.033727032E1,-3.318962097E0,6.721122742E0,1.236545277E1
2.035717527E1,-3.122637510E0,6.840832710E0,8.908226013E0
2.037708022E1,-2.643797159E0,6.438606739E0,6.375160694E0
2.039698516E1,-1.868075848E0,5.739500046E0,4.589086056E0
2.041689011E1,-1.077989340E0,4.973355293E0,3.281852007E0
2.043679506E1,-3.405751884E-1,4.365228176E0,2.352901697E0
2.045670001E1,3.824737072E-1,3.996521235E0,1.720832467E0
2.047660496E1,1.028908134E0,3.795408249E0,1.050456047E0
2.049650991E1,1.756745458E0,3.536834478E0,1.208473325E0
2.051641485E1,2.293046713E0,3.350086689E0,2.305017710E0
2.053631980E1,2.297835112E0,3.374028683E0,3.976170540E0
2.055622475E1,2.623446465E0,3.484162092E0,5.383961201E0
2.057612970E1,2.996942043E0,3.316567898E0,5.752667904E0
2.059603464E1,2.656965256E0,3.488950491E0,6.221931458E0
2.061593959E1,1.718438268E0,3.996521235E0,7.739855766E0
2.063584454E1,1.273116708E0,4.020462990E0,1.027770901E1
2.065574949E1,1.541267395E0,4.571129799E0,1.217870522E1
2.067565444E1,4.495113790E-1,6.505644798E0,1.084274101E1
2.069555938E1,-1.001374841E0,8.243835449E0,9.808445930E0
2.071546433E1,-1.317409515E0,8.301296234E0,1.187703609E1
2.073536928E1,-1.073200941E0,7.755417824E0,1.421377659E1
2.075527423E1,-9.726444483E-1,8.641272545E0,1.438615990E1
2.077517918E1,-1.920748353E0,1.025017643E1,1.158494377E1
2.079508412E1,-2.854486942E0,1.037467480E1,9.655217171E0
2.081498907E1,-2.126649618E0,7.894281387E0,1.096245098E1
2.083489402E1,-1.307832718E0,5.567117691E0,1.169986534E1
2.085479897E1,-9.726444483E-1,4.580706596E0,9.597756386E0
2.087470392E1,-1.197699428E0,4.642955780E0,6.925827026E0
2.089460886E1,-1.734000564E0,4.772242546E0,4.909909248E0
2.091451381E1,-2.380434990E0,4.930259705E0,3.976170540E0
2.093441876E1,-2.476203203E0,4.609436989E0,3.329735994E0
2.095432371E1,-2.246359825E0,4.202422619E0,2.745550871E0
2.097422866E1,-2.236783028E0,4.049193859E0,3.080739021E0
2.099413360E1,-2.610278368E0,4.240729809E0,4.143764496E0
2.101403855E1,-2.888005733E0,4.609436989E0,4.900332451E0
2.103394350E1,-2.753930569E0,5.112219334E0,4.885967255E0
2.105384845E1,-2.342127800E0,5.179256916E0,5.111021996E0
2.107375339E1,-1.997362733E0,4.882375717E0,5.910685539E0
2.109365834E1,-1.935113549E0,5.428253651E0,7.275380611E0
2.111356329E1,-1.724423766E0,7.161655903E0,7.557896137E0
2.113346824E1,-1.465849996E0,9.172784805E0,5.910685539E0
2.115337319E1,-2.849698544E0,1.021186924E1,4.498106480E0
2.117327813E1,-4.324526787E0,9.766547203E0,6.686406612E0
2.119318308E1,-3.850474834E0,8.210315704E0,1.140777302E1
2.121308803E1,-2.390011787E0,7.970896244E0,1.172380733E1
2.123299298E1,-2.231994629E0,9.742605209E0,7.653664112E0
2.125289793E1,-2.878428936E0,1.005863953E1,7.414244175E0
2.127280287E1,-2.600701571E0,8.507197380E0,9.755773544E0
2.129270782E1,-2.629431963E0,7.305307865E0,1.077570343E1
2.131261277E1,-2.217629433E0,6.850409508E0,9.449316025E0
2.133251772E1,-1.762730956E0,6.706757545E0,7.730278969E0
2.135242267E1,-1.547252893E0,6.687603951E0,6.466140270E0
2.137232761E1,-1.480215192E0,6.390722752E0,5.757456303E0
2.139223256E1,-1.164180517E0,5.739500046E0,5.489305973E0
2.141213751E1,-8.433575630E-1,5.030816555E0,4.933851242E0
2.143204246E1,-6.087257862E-1,4.753088951E0,4.378396511E0
2.145194741E1,-2.639607489E-1,4.508880138E0,4.263474464E0
2.147185235E1,-6.284779310E-2,4.307767391E0,4.598662853E0
2.149175730E1,3.154360652E-1,4.092289448E0,4.933851242E0
2.151166225E1,3.776853085E-1,3.771466255E0,5.690418720E0
2.153156720E1,1.376665942E-2,3.977367640E0,6.379949093E0
2.155147214E1,-4.315548539E-1,4.714781761E0,6.466140270E0
2.157137709E1,-6.135141850E-1,5.217564106E0,6.035183907E0
2.159128204E1,-1.092354536E0,5.840056419E0,5.948992729E0
2.161118699E1,-1.580771685E0,6.323685169E0,6.284181118E0
2.163109194E1,-1.604713678E0,6.735487938E0,6.921038628E0
2.165099688E1,-1.432331204E0,7.836820602E0,7.170035362E0
2.167090183E1,-1.508945584E0,9.594164848E0,6.628945827E0
2.169080678E1,-2.715623379E0,1.009694672E1,6.676829815E0
2.171071173E1,-3.654150248E0,8.411429405E0,9.454104424E0
2.173061668E1,-3.342904091E0,6.290166378E0,1.231756878E1
2.175052162E1,-1.738788962E0,6.448183537E0,1.152748299E1
2.177042657E1,-8.433575630E-1,7.836820602E0,9.300874710E0
2.179033152E1,-2.016516447E0,8.770559311E0,8.170811653E0
2.181023647E1,-3.079541922E0,8.861538887E0,9.080608368E0
2.183014142E1,-2.907159328E0,7.108983517E0,1.031122780E1
2.185004636E1,-1.925536752E0,5.887940407E0,1.067993546E1
2.186995131E1,-1.547252893E0,6.007650852E0,9.310451508E0
2.188985626E1,-1.599925280E0,6.697180748E0,5.901108742E0
2.190976121E1,-2.634220362E0,6.907870293E0,7.773374557E0
2.192966616E1,-2.758718967E0,6.342838764E0,9.099761963E0
2.194957110E1,-1.643020868E0,5.385158062E0,7.792528152E0
2.198121793E1,-1.413177609E0,4.810549736E0,6.921038628E0
2.200112288E1,-1.753154159E0,4.968566895E0,7.222707748E0
2.202102783E1,-1.915959954E0,4.887164116E0,7.294534206E0
2.204093277E1,-2.054823637E0,4.848856926E0,7.107786179E0
2.206083772E1,-1.848922253E0,4.508880138E0,7.141304970E0
2.208074267E1,-1.801038265E0,4.255095005E0,7.021595001E0
2.210064762E1,-1.786673069E0,4.154538631E0,7.088632584E0
2.212055256E1,-1.777096152E0,4.106654644E0,6.949769020E0
2.214045751E1,-1.585560083E0,4.082712650E0,6.624157429E0
2.216036246E1,-1.379658699E0,4.144961834E0,6.312911510E0
2.218026741E1,-1.303044319E0,4.350862980E0,6.025607109E0
2.220017236E1,-1.403600693E0,4.571129799E0,5.867589951E0
2.222007730E1,-1.470638394E0,4.705204964E0,6.087856293E0
2.223998225E1,-1.451484799E0,4.753088951E0,6.269815922E0
2.225988720E1,-1.384447098E0,4.824914932E0,6.533177853E0
2.227979215E1,-1.245583415E0,4.949413300E0,7.160458565E0
2.229969710E1,-1.034893632E0,5.121796131E0,7.524377346E0
2.231960204E1,-6.470330358E-1,5.547964096E0,7.950545311E0
2.233950699E1,-3.453635871E-1,6.429029942E0,8.242637634E0
2.235941194E1,-9.199720025E-1,6.998850346E0,8.003217697E0
2.237931689E1,-1.844133854E0,6.534375191E0,8.553884506E0
2.239922184E1,-2.208052635E0,5.294178486E0,1.042615032E1
2.241912678E1,-1.365293503E0,4.614225388E0,1.204463005E1
2.243903173E1,-4.848258570E-2,5.792172432E0,1.142213821E1
2.245893668E1,-6.278793812E-1,7.645284653E0,8.860342026E0
2.247884163E1,-3.261501312E0,8.219893456E0,8.189965248E0
2.249874658E1,-4.530427933E0,6.864774704E0,1.150354099E1
2.251865152E1,-4.008491993E0,4.767454147E0,1.324173069E1
2.253855647E1,-2.437895775E0,3.618237257E0,1.227926159E1
2.255846142E1,-2.050035238E0,3.852869034E0,1.016278744E1
2.257836637E1,-2.169745207E0,4.628590584E0,8.142081261E0
2.259827131E1,-1.695693374E0,4.925471306E0,6.710348606E0
2.261817626E1,-1.125873327E0,4.709993362E0,5.776610374E0
2.263808121E1,-8.385691643E-1,4.322132587E0,5.350442410E0
2.265798616E1,-8.625111580E-1,4.001309395E0,5.216366768E0
2.267789111E1,-1.298255920E0,4.001309395E0,5.360019207E0
2.269779605E1,-2.040458441E0,4.053982258E0,5.853224754E0
2.271770100E1,-2.773084164E0,4.044404984E0,6.413467884E0
2.273760595E1,-3.419518471E0,3.915118217E0,6.399102688E0
2.275751090E1,-3.682880878E0,3.474585295E0,6.863577843E0
2.277741585E1,-3.227982521E0,3.134608507E0,7.577049732E0
2.279732080E1,-3.496133089E0,3.848080635E0,6.825270653E0
2.281722574E1,-5.033210754E0,5.002085686E0,5.067926407E0
2.283713069E1,-5.904699802E0,5.313332081E0,4.158129692E0
2.285703564E1,-5.037999153E0,4.135385036E0,4.000112534E0
2.287694059E1,-3.414730072E0,3.000533342E0,4.158129692E0
2.289684553E1,-1.341351509E0,2.440289974E0,4.953004837E0
2.291675048E1,9.475052953E-1,3.426701069E0,7.644087315E0
2.293665543E1,3.169324398E0,5.207987309E0,8.424596786E0
2.295656038E1,2.838924646E0,6.074688435E0,7.687182903E0
2.297646533E1,1.938704848E0,4.705204964E0,1.334228706E1
2.299637027E1,1.459864497E0,3.862445831E0,1.853770447E1
2.301627522E1,8.559270948E-2,5.524022102E0,1.781465721E1
2.303618017E1,-2.409165382E0,6.721122742E0,1.508047771E1
2.305608512E1,-3.893570423E0,6.974907875E0,1.408448982E1
2.307599006E1,-3.793014050E0,6.256647587E0,1.341890240E1
2.309589501E1,-2.916736126E0,5.648520470E0,1.144129181E1
2.311579996E1,-2.050035238E0,5.380369663E0,8.908226013E0
2.313570491E1,-1.652597666E0,5.308543682E0,6.968922615E0
2.315560986E1,-1.571194887E0,5.169680119E0,6.054337502E0
2.317551480E1,-1.432331204E0,4.748300552E0,6.063914299E0
2.319541975E1,-1.269525409E0,4.432265759E0,6.068702698E0
2.321532470E1,-1.149815321E0,4.307767391E0,5.790975571E0
2.323522965E1,-1.034893632E0,4.111443043E0,5.479729176E0
2.325513465E1,-6.039373875E-1,3.867234230E0,5.120598793E0
2.327503965E1,3.292027488E-2,3.704428673E0,4.909909248E0
2.329494465E1,6.458359361E-1,3.761889458E0,4.689642429E0
2.331484965E1,9.810241461E-1,3.943848848E0,4.708796024E0
2.333475465E1,1.048061848E0,4.068347454E0,4.747103214E0
2.335465965E1,1.153406620E0,4.202422619E0,4.943428040E0
2.337456465E1,1.354519606E0,4.030039787E0,5.556343555E0
2.339446965E1,1.603516579E0,3.867234230E0,6.332065105E0
2.341437465E1,1.206079125E0,3.771466255E0,7.203554153E0
2.343427965E1,1.669955701E-1,3.982156038E0,9.669582367E0
2.345418465E1,-8.481459618E-1,4.863222122E0,1.291611958E1
2.347408965E1,-3.826532841E0,6.816890717E0,1.397435665E1
2.349399465E1,-6.206369400E0,8.061875343E0,1.599027443E1
2.351389965E1,-5.119401932E0,5.691616058E0,1.904048729E1
2.353380465E1,-4.046799660E0,4.470572948E0,2.028068352E1
2.355370965E1,-4.161721230E0,5.634155273E0,1.805407715E1
2.357361465E1,-4.630984783E0,6.448183537E0,1.528637886E1
2.359351965E1,-2.940678120E0,5.495291233E0,1.281556320E1
2.361342465E1,-1.202487826E0,4.906317711E0,9.727043152E0
2.363332965E1,-5.368997455E-1,5.279813290E0,6.470928669E0
2.365323465E1,-2.160767019E-1,5.820902824E0,3.411138773E0
2.367313965E1,9.516951442E-2,6.084265232E0,1.629852772E0
2.369304465E1,1.191115379E-1,5.959766388E0,9.929951429E-1
2.371294965E1,-1.969230920E-1,5.691616058E0,1.093551636E0
2.373285465E1,-4.028244317E-1,5.227140903E0,1.342548609E0
2.375275965E1,-9.008184075E-1,4.652532578E0,1.802235365E0
2.377266465E1,-1.441908002E0,4.197634220E0,2.530072689E0
2.379256965E1,-1.982997537E0,3.651756048E0,3.535637379E0
2.381247460E1,-2.370858192E0,3.091512918E0,4.646546841E0
2.383237954E1,-2.581547976E0,2.732382774E0,5.518036366E0
2.385228449E1,-2.648585558E0,3.077147722E0,5.561131954E0
2.387218944E1,-2.940678120E0,3.172915697E0,5.685630322E0
2.389209439E1,-2.998139143E0,2.885611534E0,7.016806602E0
2.391199934E1,-2.375646591E0,2.105101824E0,8.659229279E0
2.393190428E1,-1.451484799E0,2.727594376E0,8.817246437E0
2.395180923E1,-1.599925280E0,5.002085686E0,6.815693855E0
2.397171418E1,-2.433107376E0,6.452971935E0,6.087856293E0
2.399161913E1,-2.878428936E0,6.127360821E0,9.200318336E0
2.401152408E1,-3.275866508E0,5.892728806E0,1.221222401E1
2.403142902E1,-2.940678120E0,6.553528786E0,1.293048477E1
2.405133397E1,-2.931101322E0,7.314884663E0,1.238939571E1
2.407123892E1,-3.242347717E0,6.826467514E0,1.355776596E1
2.409114387E1,-3.476979494E0,5.773018837E0,1.558804893E1
2.411104882E1,-3.414730072E0,4.978143692E0,1.664149666E1
2.413095376E1,-2.394800186E0,4.652532578E0,1.568860531E1
2.415085871E1,-1.125873327E0,4.551976204E0,1.317469311E1
2.417076366E1,-1.203086376E-1,4.484938145E0,1.066078186E1
2.419066861E1,6.314706802E-1,4.279036999E0,8.826823235E0
2.421057356E1,1.100734234E0,4.020462990E0,7.490858555E0
2.423047850E1,1.354519606E0,3.838503838E0,6.327276707E0
2.425038340E1,1.785475969E0,3.690063477E0,4.948216438E0
2.427028830E1,2.264316320E0,3.479373693E0,3.626616955E0
2.429019319E1,2.666542053E0,3.378817081E0,2.989759445E0
2.431009809E1,2.968211651E0,3.388393879E0,2.788646460E0
2.433000298E1,3.126228809E0,3.503315687E0,3.186083794E0
2.434990788E1,2.982576847E0,3.766677856E0,3.727173567E0
2.436981277E1,2.369661093E0,4.049193859E0,4.273051262E0
2.438971767E1,1.507748485E0,4.121019840E0,5.934627533E0
2.440962256E1,3.489548862E-1,3.848080635E0,8.740632057E0
2.442952746E1,-6.901286244E-1,3.158550501E0,1.150354099E1
2.444943236E1,-9.726444483E-1,2.622249365E0,1.278204441E1
2.446933725E1,-3.740940094E-1,3.096301317E0,1.171423054E1
2.448924215E1,-3.980360329E-1,4.326920986E0,1.033995819E1
2.450914704E1,-1.537676096E0,5.097854137E0,1.141256142E1
2.452905249E1,-3.510498285E0,4.858433723E0,1.389774227E1
2.454895697E1,-5.124190331E0,4.116231441E0,1.570775890E1
2.456886186E1,-5.545569897E0,3.785831451E0,1.491288376E1
2.458876676E1,-4.798578739E0,3.876811028E0,1.210209084E1
2.460867166E1,-3.433883905E0,4.293402195E0,9.434949875E0
2.462857655E1,-2.959831953E0,5.198410511E0,7.083844185E0
2.464848145E1,-3.089118719E0,5.964554787E0,5.479729176E0
2.466838634E1,-2.763507366E0,5.883152008E0,4.469376087E0
2.468829124E1,-1.963843942E0,5.231929302E0,3.631405354E0
2.470819614E1,-1.528099179E0,4.724358559E0,3.636193752E0
2.472810103E1,-1.465849996E0,4.451419353E0,4.435857296E0
2.474800598E1,-1.805826664E0,4.039616585E0,5.848436356E0
2.476791093E1,-2.691681147E0,3.575141668E0,7.845200539E0
2.478781588E1,-4.132990837E0,3.292625904E0,1.005265427E1
2.480772082E1,-5.483320236E0,3.589506865E0,9.640851974E0
2.482762577E1,-5.267842293E0,4.235941410E0,7.797316551E0
2.484753072E1,-3.745130062E0,5.313332081E0,6.686406612E0
2.486743567E1,-2.921524525E0,7.089829922E0,5.757456303E0
2.488734062E1,-4.563947201E0,8.277354240E0,6.375160694E0
2.490724556E1,-5.784989834E0,7.487267494E0,9.621698380E0
2.492715051E1,-4.654926777E0,5.624578476E0,1.197280407E1
2.494705546E1,-2.562394381E0,4.868010521E0,1.211166763E1
2.496696041E1,-1.853710651E0,5.399523258E0,1.108216095E1
2.498686536E1,-1.997362733E0,5.902305603E0,1.053628349E1
2.500677030E1,-2.021304846E0,5.796960831E0,1.032559299E1
2.502667525E1,-1.638232470E0,5.279813290E0,1.033038139E1
2.504658020E1,-1.168969035E0,4.690839767E0,1.026813221E1
2.506648515E1,-8.960300088E-1,4.379593372E0,9.794080734E0
2.508639009E1,-7.380126715E-1,4.302978992E0,8.534730911E0
2.510629504E1,-5.608417392E-1,4.202422619E0,7.165246964E0
2.512619999E1,-1.681926697E-1,3.939060450E0,6.049549103E0
2.514610494E1,4.830302000E-1,3.627814054E0,5.082291603E0
2.516600989E1,1.124676228E0,3.546411276E0,4.186860085E0
2.518591483E1,1.411980510E0,3.714005470E0,3.578732967E0
2.520581978E1,1.210867524E0,4.034828186E0,3.425503969E0
2.522572473E1,6.123170853E-1,4.092289448E0,3.918709517E0
2.524562968E1,2.005143911E-1,3.886387825E0,4.862025261E0
2.526553462E1,6.171054840E-1,3.493738890E0,5.676053524E0
2.528543957E1,6.937199235E-1,3.335721493E0,6.087856293E0
2.530534452E1,-4.507084787E-1,3.694851875E0,7.548319340E0
2.532524947E1,-9.630676508E-1,4.379593372E0,9.755773544E0
2.534515442E1,-2.639607489E-1,5.892728806E0,9.564237595E0
2.536505936E1,-2.035670042E0,7.075464725E0,9.061454773E0
2.538496431E1,-5.425859451E0,7.065887928E0,1.336144066E1
2.540486926E1,-6.924629688E0,5.892728806E0,1.886331749E1
2.542477421E1,-6.881534100E0,5.796960831E0,1.991197777E1
2.544467916E1,-6.938994884E0,6.285377979E0,1.633503914E1
2.546458410E1,-6.067505836E0,6.151302814E0,1.396477985E1
2.548448905E1,-4.267066002E0,6.089053631E0,1.124975491E1
2.550439400E1,-2.935889721E0,6.563105583E0,7.711124897E0
2.552429895E1,-2.016516447E0,7.018003941E0,4.541202068E0
2.554420390E1,-1.331774712E0,6.730699539E0,2.984971046E0
2.556410884E1,-1.274313807E0,6.103418827E0,3.550002575E0
2.558401379E1,-1.963843942E0,5.538387299E0,5.307346821E0
2.560391874E1,-2.571971178E0,4.896740913E0,6.288969517E0
2.562382369E1,-3.165733099E0,4.676474571E0,6.016030312E0
2.564372864E1,-4.223970413E0,4.930259705E0,5.527613163E0
2.566363358E1,-5.349245071E0,5.203198910E0,5.853224754E0
2.568353853E1,-6.134543419E0,4.939836502E0,6.595427036E0
2.570344348E1,-6.211157799E0,4.164115429E0,6.672041416E0
2.572334843E1,-5.727529049E0,3.177704096E0,6.614580631E0
2.574325338E1,-4.932653904E0,2.306214809E0,6.461351871E0
2.576315832E1,-4.204816818E0,2.473809004E0,5.446210384E0
2.578306327E1,-3.625419855E0,3.800196648E0,4.340089321E0
2.580296822E1,-3.055599928E0,5.117007732E0,3.487753391E0
2.582287317E1,-3.050811529E0,6.045958042E0,3.396773577E0
2.584277812E1,-3.036446333E0,5.725134850E0,5.738302708E0
2.586268306E1,-2.203263998E0,4.997297287E0,8.956110001E0
2.588258801E1,-1.116296530E0,5.112219334E0,1.073260784E1
2.590249296E1,-1.643020868E0,5.911882401E0,1.106779575E1
2.592239791E1,-2.102707624E0,5.648520470E0,1.350988197E1
2.594230286E1,-1.552041292E0,5.117007732E0,1.561677933E1
2.596220780E1,-1.202487826E0,5.356427670E0,1.492724895E1
2.598211275E1,-1.293467522E0,6.108207226E0,1.245164490E1
2.600201770E1,-1.556829691E0,6.788160324E0,9.971251488E0
2.602192265E1,-1.729212165E0,7.003638744E0,8.367136002E0
2.604182759E1,-1.753154159E0,6.601412773E0,7.634510517E0
2.606173254E1,-1.499368787E0,5.964554787E0,7.318476200E0
2.608163749E1,-7.188590765E-1,5.246294498E0,7.055113792E0
2.610154244E1,2.148796022E-1,4.475361347E0,6.485293865E0
2.612144739E1,1.158195019E0,3.795408249E0,5.733514309E0
2.614135233E1,2.072780132E0,3.302202702E0,5.015254021E0
2.616125728E1,2.905962229E0,2.899976730E0,5.082291603E0
2.618116223E1,3.470993996E0,2.430713177E0,5.853224754E0
2.620106718E1,3.169324398E0,2.119467020E0,6.590638638E0
2.622097212E1,2.111087322E0,2.272696018E0,7.146093369E0
2.624087707E1,5.883750916E-1,2.392405987E0,8.563461304E0
2.626078202E1,-9.965864420E-1,1.951872945E0,1.013405704E1
2.628068697E1,-1.192911029E0,9.510966539E-1,1.091456699E1
2.630059192E1,7.122749835E-2,1.228824019E0,9.415796280E0
2.632049686E1,4.064157307E-1,2.718017578E0,6.844424248E0
2.634040181E1,-1.312621117E0,4.106654644E0,6.150105476E0
2.636030676E1,-2.557605982E0,4.489726543E0,8.783727646E0
2.638021171E1,-2.284667015E0,3.498527288E0,1.159452057E1
2.640011666E1,-1.552041292E0,3.273472309E0,1.218349361E1
2.642002160E1,-1.489791989E0,4.298190594E0,1.108694935E1
2.643992655E1,-2.188898802E0,5.480926037E0,1.006701946E1
2.645983150E1,-2.768295765E0,5.658097267E0,1.008138466E1
2.647973645E1,-2.040458441E0,5.203198910E0,9.889848709E0
2.649964140E1,-9.247604012E-1,5.073912144E0,8.525154114E0
2.651954634E1,-1.969230920E-1,5.418676853E0,6.399102688E0
2.653945129E1,3.298012912E-1,5.638943672E0,5.872378349E0
2.655935624E1,6.218938828E-1,5.140949726E0,7.486070156E0
2.657926119E1,5.452794433E-1,4.365228176E0,1.003828907E1
2.659916614E1,3.441664875E-1,3.522469282E0,1.250431728E1
2.661907108E1,-2.932897024E-2,3.445854902E0,1.235587597E1
2.663897603E1,-6.566098332E-1,4.106654644E0,1.105343056E1
2.665888098E1,-1.130661726E0,4.422688961E0,1.079485703E1
2.667878593E1,-1.154603720E0,4.197634220E0,1.104864216E1
2.669869088E1,-5.943605900E-1,3.800196648E0,1.099118137E1
2.671859582E1,1.286883354E-1,4.140173435E0,9.894637108E0
2.673850077E1,1.047463268E-1,4.590283394E0,9.018359184E0
2.675840572E1,-1.107318252E-1,4.456207752E0,9.367912292E0
2.677831067E1,3.106476665E-1,3.876811028E0,1.042615032E1
2.679821562E1,1.019331336E0,3.814561844E0,1.048839951E1
2.681812056E1,1.253963113E0,4.561553001E0,9.482834816E0
2.683802551E1,8.373720646E-1,5.624578476E0,8.410231590E0
2.685793046E1,1.047463268E-1,6.208763599E0,8.127716064E0
2.687783541E1,-3.597288132E-1,5.308543682E0,9.731831551E0
2.689774036E1,-5.512649417E-1,4.283825397E0,1.127369690E1
2.691764530E1,-4.028244317E-1,4.044404984E0,1.032080460E1
2.693755025E1,-1.921346933E-1,4.374804974E0,8.185176849E0
2.695745520E1,-2.932897024E-2,4.695628166E0,6.514024258E0
2.697736015E1,3.872621357E-1,4.599860191E0,5.292981625E0
2.699726509E1,5.309142470E-1,4.326920986E0,4.459799290E0
2.701717004E1,3.441664875E-1,3.934272051E0,4.885967255E0
2.703707499E1,1.526303589E-1,3.498527288E0,6.360795498E0
2.705697994E1,8.080431074E-2,3.374028683E0,6.480505466E0
2.707688489E1,7.122749835E-2,3.412335873E0,5.527613163E0
2.709678983E1,1.430535465E-1,3.646967649E0,4.823718071E0
2.711669478E1,3.585317135E-1,3.900753021E0,4.574720860E0
2.713659973E1,6.602011323E-1,4.049193859E0,4.747103214E0
2.715650468E1,6.266822815E-1,4.154538631E0,5.254673958E0
2.717640962E1,4.159925580E-1,4.034828186E0,6.523601055E0
2.719631457E1,-1.634042710E-1,3.924695253E0,7.577049732E0
2.721621952E1,-8.337807655E-1,4.221576214E0,9.535507202E0
2.723612447E1,-1.365293503E0,5.203198910E0,1.164719296E1
2.725602942E1,-2.782660961E0,6.409876347E0,1.171423054E1
2.727593436E1,-4.319738388E0,6.381145954E0,1.244206810E1
2.729583931E1,-4.827309132E0,5.385158062E0,1.407491302E1
2.731574426E1,-3.788225651E0,4.944624901E0,1.501344013E1
2.733564921E1,-3.668515444E0,6.050746441E0,1.263360405E1
2.735555416E1,-4.654926777E0,6.117784023E0,1.141734982E1
2.737545910E1,-4.176086426E0,5.021239281E0,1.213082123E1
2.739536405E1,-2.495356798E0,3.900753021E0,1.135031128E1
2.741526900E1,-1.197699428E0,3.685275078E0,9.185953140E0
2.743517395E1,-9.439139962E-1,4.178480625E0,7.222707748E0
2.745507890E1,-1.001374841E0,4.853645325E0,5.886743546E0
2.747498384E1,-1.087566137E0,5.160103321E0,5.010465622E0
2.749488879E1,-9.965864420E-1,4.982932091E0,4.488529682E0
2.751479374E1,-8.146271110E-1,4.432265759E0,4.780622005E0
2.753469869E1,-1.039682031E0,3.761889458E0,5.666476727E0
2.755460364E1,-1.240795016E0,3.053205729E0,6.868366241E0
2.757450858E1,-1.647809267E0,2.612672567E0,7.893084526E0
2.759441353E1,-2.500145197E0,2.789843559E0,7.960122108E0
2.761431848E1,-3.563170671E0,3.316567898E0,8.166023254E0
2.763422343E1,-3.563170671E0,3.096301317E0,8.989628792E0
2.765412838E1,-2.375646591E0,2.550423384E0,8.711901665E0
2.767403332E1,-1.020528436E0,2.885611534E0,7.490858555E0
2.769393827E1,-7.667431235E-1,4.647744179E0,5.331288815E0
2.771384322E1,-2.868852139E0,6.941389084E0,3.516483784E0
2.773374817E1,-4.410717964E0,7.923011780E0,6.025607109E0
2.775365312E1,-3.855263233E0,7.243058681E0,9.784503937E0
2.777355806E1,-2.576759577E0,6.960542679E0,1.039263058E1
2.779346301E1,-1.326986313E0,7.247847080E0,1.031122780E1
2.781336796E1,-4.842272997E-1,7.199963093E0,1.058416748E1
2.783327291E1,2.914940715E-1,6.290166378E0,1.280598640E1
2.785317786E1,7.894880176E-1,4.824914932E0,1.532468700E1
2.787308280E1,6.841431260E-1,4.317344189E0,1.552101135E1
2.789298775E1,4.542997777E-1,4.508880138E0,1.363438034E1
2.791289270E1,-5.805939063E-2,5.054758549E0,1.094329739E1
2.793279765E1,-3.262099922E-1,5.428253651E0,8.438961983E0
2.795270265E1,-2.448071241E-1,5.332485676E0,6.437409878E0
2.797260765E1,-6.763619930E-2,4.958990097E0,5.125387192E0
2.799251265E1,2.244564146E-1,4.537611008E0,4.210802078E0
2.801241765E1,5.021837950E-1,4.188057423E0,3.372831583E0
2.803232265E1,7.080851793E-1,3.982156038E0,2.956240654E0
2.805222765E1,7.607575655E-1,3.781043053E0,3.315370798E0
2.807213265E1,5.740098357E-1,3.637390852E0,4.239532471E0
2.809203765E1,3.154360652E-1,3.694851875E0,5.647323132E0
2.811194265E1,3.920505345E-1,3.733159065E0,6.011241913E0
2.813184765E1,1.478419602E-1,4.030039787E0,5.379172802E0
2.815175265E1,-4.315548539E-1,4.216787815E0,6.178835869E0
2.817165765E1,-6.039373875E-1,4.006097794E0,8.735843658E0
2.819156265E1,7.942764163E-1,3.996521235E0,1.175253773E1
2.821146765E1,1.407191992E0,5.404311657E0,1.115877533E1
2.823137265E1,-1.107318252E-1,6.840832710E0,9.243413925E0
2.825127765E1,-1.542464495E0,7.453748226E0,1.063205147E1
2.827118265E1,-1.427542806E0,6.543951988E0,1.244685650E1
2.829108765E1,-2.400187254E-1,6.089053631E0,1.202547646E1
2.831099265E1,-6.949170232E-1,6.084265232E0,9.865906715E0
2.833089765E1,-3.984550238E0,6.314108372E0,8.625710487E0
2.835080265E1,-6.302137375E0,6.122572422E0,9.913790703E0
2.837070765E1,-5.828085423E0,5.222352505E0,1.100554657E1
2.839061265E1,-4.080318451E0,4.111443043E0,9.214683533E0
2.841051765E1,-2.945466757E0,3.623025656E0,7.102997780E0
2.843042265E1,-3.041234732E0,4.331709385E0,5.824494362E0
2.845032765E1,-3.869628429E0,5.318120480E0,5.292981625E0
2.847023265E1,-4.156932831E0,5.677250862E0,5.326500416E0
2.849013765E1,-3.754706860E0,5.294178486E0,5.580285549E0
2.851004259E1,-3.175309896E0,4.733935356E0,5.992088318E0
2.852994754E1,-3.022081137E0,4.393958569E0,6.638522625E0
2.854985249E1,-3.007715940E0,4.437054157E0,7.538742542E0
2.856975744E1,-2.658162355E0,4.973355293E0,8.745420456E0
2.858966239E1,-2.208052635E0,5.916670799E0,1.008617306E1
2.860956733E1,-2.423530579E0,7.271789074E0,1.113962173E1
2.862947228E1,-3.663727045E0,8.636484146E0,9.626486778E0
2.864937723E1,-4.683657169E0,8.387487411E0,8.467693329E0
2.866928218E1,-3.242347717E0,7.032369137E0,1.054586029E1
2.868918712E1,-4.315548539E-1,7.166444302E0,1.104864216E1
2.870909207E1,-1.058835745E0,7.980473042E0,7.361571789E0
2.872899702E1,-2.892794132E0,7.458536625E0,7.208342552E0
2.874890197E1,-2.600701571E0,5.547964096E0,1.177169132E1
2.876880692E1,-1.394023895E0,3.814561844E0,1.321300030E1
2.878871186E1,-7.092822790E-1,3.814561844E0,1.046924591E1
2.880861681E1,-1.652597666E0,5.203198910E0,7.356783390E0
2.882852176E1,-2.600701571E0,6.184821606E0,6.288969517E0
2.884842671E1,-3.050811529E0,6.414664745E0,5.747879505E0
2.886833166E1,-2.260725021E0,5.892728806E0,5.350442410E0
2.888823660E1,-1.058835745E0,5.145738125E0,5.058349609E0
2.890814155E1,-2.879027426E-1,4.829703331E0,5.154117584E0
2.892804650E1,-3.166331649E-1,5.045181751E0,5.048772812E0
2.894795145E1,-6.853402257E-1,5.351639271E0,5.412691593E0
2.896785640E1,-8.242039084E-1,5.361216068E0,6.245873451E0
2.898776134E1,-5.656301379E-1,5.212775707E0,7.328052998E0
2.900766629E1,-2.304419130E-1,5.265448093E0,7.773374557E0
2.902757124E1,9.038111567E-2,5.935824394E0,7.754220963E0
2.904747619E1,-1.777694821E-1,6.974907875E0,7.055113792E0
2.906738114E1,-2.169745207E0,7.391499043E0,6.164470673E0
2.908728608E1,-4.223970413E0,6.965331078E0,8.362347603E0
2.910719103E1,-4.291007996E0,5.428253651E0,1.140777302E1
2.912709598E1,-2.993350744E0,4.121019840E0,1.183872890E1
2.914700093E1,-1.987785935E0,4.092289448E0,9.727043152E0
2.916690588E1,-2.073977232E0,4.939836502E0,7.883507729E0
2.918681082E1,-2.112284422E0,5.437830448E0,7.275380611E0
2.920671577E1,-1.619078875E0,5.270236492E0,7.347206593E0
2.922662072E1,-1.221641421E0,5.207987309E0,7.217919350E0
2.924652567E1,-1.068412542E0,5.519233704E0,6.619369030E0
2.926643062E1,-1.164180517E0,5.892728806E0,6.212354660E0
2.928633556E1,-1.552041292E0,6.213551998E0,6.384737492E0
2.930624051E1,-1.920748353E0,6.069900036E0,6.930615425E0
2.932614546E1,-2.255936623E0,5.437830448E0,7.998429298E0
2.934605041E1,-4.726752758E0,5.327697277E0,1.271979523E1
2.936595536E1,-2.571971178E0,4.513668537E0,1.046924591E1
2.938586030E1,-2.533663988E0,4.269460201E0,9.300874710E0
2.940576525E1,-2.437895775E0,4.820126534E0,8.568249702E0
2.942567020E1,-1.987785935E0,4.709993362E0,7.677606106E0
2.944557515E1,-1.896806240E0,4.781819344E0,7.672817707E0
2.946548009E1,-1.872864246E0,4.820126534E0,7.840412140E0
2.948538504E1,-1.595136881E0,4.642955780E0,7.940968513E0
2.950528999E1,-1.537676096E0,4.652532578E0,7.960122108E0
2.952519494E1,-1.542464495E0,4.978143692E0,7.332841396E0
2.954509989E1,-2.639008760E0,5.796960831E0,6.437409878E0
2.956500483E1,-2.466626406E0,5.006874084E0,9.032724380E0
2.958490978E1,-1.087566137E0,4.283825397E0,9.396642685E0
2.960481473E1,-4.890156984E-1,3.977367640E0,8.807669640E0
2.964291150E1,-1.389235497E0,4.753088951E0,8.046313286E0
2.966281650E1,-1.595136881E0,4.628590584E0,8.448538780E0
2.968272150E1,-1.489791989E0,4.370016575E0,8.946533203E0
2.970262650E1,-1.432331204E0,4.274248600E0,8.932168007E0
2.972253150E1,-1.542464495E0,4.484938145E0,8.395866394E0
2.974243650E1,-1.666962981E0,4.724358559E0,7.955333710E0
2.976234150E1,-1.705270171E0,4.824914932E0,7.902661324E0
2.978224650E1,-1.844133854E0,4.844068527E0,8.075043678E0
2.980215150E1,-2.045246840E0,4.820126534E0,8.285733223E0
2.982205650E1,-2.112284422E0,4.719570160E0,8.381501198E0
2.984196150E1,-2.179322004E0,4.700416565E0,8.424596786E0
2.986186650E1,-2.270301819E0,4.743512154E0,8.510788918E0
2.988177150E1,-2.265513420E0,4.872798920E0,8.429385185E0
2.990167650E1,-2.155380011E0,5.030816555E0,8.027159691E0
2.992158150E1,-2.054823637E0,5.131372929E0,7.744644165E0
2.994148650E1,-1.829768658E0,5.193622112E0,7.610568523E0
2.996139150E1,-1.647809267E0,5.246294498E0,7.433397770E0
2.998129650E1,-1.628655672E0,5.318120480E0,7.332841396E0
3.000120150E1,-1.518522382E0,5.385158062E0,7.390302181E0
3.002110650E1,-1.202487826E0,5.193622112E0,7.419032574E0
3.004101150E1,-1.006163239E0,5.059546947E0,7.548319340E0
3.006091650E1,-1.398812294E0,5.059546947E0,7.591414928E0
3.008082150E1,-1.379658699E0,5.112219334E0,7.873930931E0
3.010072650E1,-1.413177609E0,4.777030945E0,8.084620476E0
3.012063150E1,-1.360505104E0,4.561553001E0,8.137292862E0
3.014053650E1,-1.504157186E0,4.484938145E0,8.079832077E0
3.016044150E1,-1.738788962E0,4.446630955E0,8.051101685E0
3.018034650E1,-1.853710651E0,4.355651379E0,8.098985672E0
3.020025150E1,-1.748365760E0,4.197634220E0,8.008006096E0
3.022015650E1,-1.647809267E0,4.144961834E0,7.658452511E0
3.024006150E1,-1.590348482E0,4.125808239E0,7.361571789E0
3.025996650E1,-1.499368787E0,4.197634220E0,6.997653008E0
3.027987150E1,-1.350928307E0,4.370016575E0,6.571485043E0
3.029977650E1,-1.346139908E0,4.489726543E0,6.202777863E0
3.031968150E1,-1.427542806E0,4.604648590E0,6.107009888E0
3.033958650E1,-1.461061597E0,4.537611008E0,6.408679485E0
3.035949150E1,-1.317409515E0,4.379593372E0,6.887519836E0
3.037939650E1,-1.154603720E0,4.542399406E0,7.122151375E0
3.039930150E1,-1.188122630E0,4.935048103E0,7.040748596E0
3.041920650E1,-1.077989340E0,5.231929302E0,7.179612160E0
3.043911150E1,-8.529343605E-1,5.361216068E0,7.802104950E0
3.045901650E1,-4.985924959E-1,5.610213280E0,8.549096107E0
3.047892150E1,9.516951442E-2,6.390722752E0,9.128492355E0
3.049882650E1,1.957259923E-1,7.041945934E0,8.410231590E0
3.051873156E1,-1.921346933E-1,6.989273548E0,7.567472935E0
3.053863661E1,-7.236474752E-1,6.050746441E0,7.897872925E0
3.055854166E1,-4.890156984E-1,4.896740913E0,9.655217171E0
3.057844671E1,4.303577542E-1,4.777030945E0,1.089541340E1
3.059835176E1,9.570821524E-1,6.175244808E0,1.047403431E1
3.061825682E1,4.249707982E-2,7.539939880E0,8.003217697E0
3.063816187E1,-1.724423766E0,7.535151482E0,7.917026520E0
3.065806692E1,-2.366069794E0,6.069900036E0,1.157536697E1
3.067797197E1,-2.409165382E0,4.279036999E0,1.402224064E1
3.069787702E1,-1.853710651E0,3.436278105E0,1.390731907E1
3.071778208E1,-1.518522382E0,3.555988073E0,1.186745930E1
3.073768713E1,-1.212064624E0,4.001309395E0,9.616909981E0
3.075759218E1,-8.002619147E-1,4.077924252E0,7.658452511E0
3.077749723E1,-4.507084787E-1,3.857657433E0,6.241085052E0
3.079740228E1,-2.448071241E-1,3.661332846E0,5.393537998E0
3.081730734E1,-3.118447661E-1,3.828927040E0,5.067926407E0
3.083721239E1,-4.363432527E-1,4.049193859E0,5.000888824E0
3.085711744E1,-4.746504724E-1,4.235941410E0,4.804564476E0
3.087702249E1,-5.464765429E-1,4.403535366E0,4.431068897E0
3.089692755E1,-9.534908533E-1,4.255095005E0,4.469376087E0
3.091683260E1,-1.537676096E0,3.637390852E0,5.460575581E0
3.093673765E1,-1.992574334E0,2.856881142E0,7.538742542E0
3.095664270E1,-1.954267144E0,2.397194386E0,9.205106735E0
3.097654775E1,-1.633444071E0,2.607884169E0,8.324040413E0
3.099645281E1,-2.093130827E0,3.249530315E0,5.920262337E0
3.101635786E1,-3.922300816E0,3.785831451E0,4.847660065E0
3.103626291E1,-5.392340660E0,4.346074581E0,9.013570786E0
3.105616796E1,-4.334103584E0,5.504868031E0,1.403660583E1
3.107607302E1,-3.582324266E0,6.807313919E0,1.347157478E1
3.109597807E1,-4.779425144E0,7.583035469E0,1.011969185E1
3.111588312E1,-4.846462727E0,7.611765862E0,9.808445930E0
3.113578817E1,-2.773084164E0,7.645284653E0,1.046445751E1
3.115569322E1,-1.417966008E0,7.664438248E0,1.017715263E1
3.117559828E1,-1.987785935E0,6.395511150E0,9.731831551E0
3.119550333E1,-1.724423766E0,5.093065739E0,1.021545982E1
3.121540838E1,-1.063624144E0,4.202422619E0,1.061768627E1
3.123531338E1,-3.836708367E-1,4.025251389E0,1.002392387E1
3.125521838E1,-1.777694821E-1,4.642955780E0,8.506000519E0
3.127512338E1,-6.518214345E-1,5.385158062E0,6.954557419E0
3.129502838E1,-1.255160213E0,5.749076843E0,6.130951881E0
3.131493338E1,-1.734000564E0,5.476137638E0,5.944204330E0
3.133483838E1,-1.686116576E0,4.743512154E0,6.236296654E0
3.135474338E1,-1.437119603E0,3.819350243E0,6.394314289E0
3.137464838E1,-9.199720025E-1,2.995744944E0,6.317699909E0
3.139455338E1,-1.777694821E-1,2.531269789E0,5.819705963E0
3.141445838E1,5.404910445E-1,2.603095770E0,5.178059578E0
3.143436338E1,1.148618221E0,3.239953518E0,4.708796024E0
3.145426838E1,1.435922503E0,4.580706596E0,4.335300922E0
3.147417338E1,5.309142470E-1,5.543175697E0,3.669712543E0
3.149407838E1,-5.512649417E-1,5.160103321E0,4.464587688E0
3.151398338E1,-3.788824081E-1,4.269460201E0,7.265803814E0
3.153388838E1,1.143231317E-1,3.249530315E0,9.559449196E0
3.155379338E1,5.686229095E-2,3.278260708E0,1.104864216E1
3.157369838E1,-5.081692934E-1,4.451419353E0,1.165676975E1
3.159360338E1,-1.001374841E0,6.529586792E0,1.052191830E1
3.161350838E1,-1.446696401E0,8.210315704E0,8.558672905E0
3.163341338E1,-1.920748353E0,8.052298546E0,8.975263596E0
3.165331838E1,-1.240795016E0,6.615777969E0,1.211645603E1
3.167322338E1,-3.411737457E-2,6.055534840E0,1.384028149E1
3.169312838E1,-3.501519859E-1,7.458536625E0,1.228883839E1
3.171303338E1,-2.279878616E0,8.320449829E0,1.027292061E1
3.173293838E1,-3.472191095E0,6.960542679E0,1.057459068E1
3.175284338E1,-2.945466757E0,4.700416565E0,1.191534328E1
3.177274838E1,-1.408389091E0,2.971802950E0,1.223137760E1
3.179265338E1,-5.464765429E-1,2.713229179E0,1.021545982E1
3.181255838E1,-8.529343605E-1,3.469796896E0,7.122151375E0
3.183246338E1,-1.015740037E0,4.015674591E0,4.723161221E0
3.185236838E1,-1.413177609E0,3.852869034E0,3.210026026E0
3.187227338E1,-2.346916199E0,3.388393879E0,2.884414434E0
3.189217838E1,-3.362057686E0,2.866457939E0,3.765480757E0
3.191208338E1,-3.931877851E0,2.627037764E0,5.000888824E0
3.193198838E1,-4.032433987E0,2.670133352E0,5.431845188E0
3.195189338E1,-4.065953255E0,3.014898539E0,4.737526417E0
3.197179838E1,-3.879205227E0,3.239953518E0,4.632181644E0
3.199170338E1,-3.333327293E0,3.254318714E0,5.790975571E0
3.201160838E1,-2.241571426E0,3.790619850E0,7.098209381E0
3.203151338E1,-7.475894690E-1,5.744288445E0,7.797316551E0
3.205141838E1,-2.932897024E-2,7.932588577E0,7.356783390E0
3.207132338E1,-6.805518270E-1,9.364321709E0,5.920262337E0
3.209122838E1,-5.129576921E-1,9.675567627E0,6.384737492E0
3.211113338E1,3.058592677E-1,9.057863235E0,7.893084526E0
3.213103838E1,-1.049258947E0,7.415441036E0,9.195529938E0
3.215094338E1,-2.974197149E0,5.184045315E0,1.361043835E1
3.217084838E1,-3.840898037E0,3.857657433E0,1.646432686E1
3.219075338E1,-3.903147221E0,4.034828186E0,1.434785271E1
3.221065838E1,-4.305373192E0,4.604648590E0,1.138861847E1
3.223056338E1,-4.348468781E0,4.810549736E0,9.913790703E0
3.225046838E1,-3.529651880E0,4.580706596E0,8.941744804E0
3.227037338E1,-2.236783028E0,3.991732836E0,7.639298916E0
3.229027838E1,-8.912416101E-1,3.220799923E0,6.514024258E0
3.231018338E1,1.238999367E-1,2.502539396E0,6.001665115E0
3.233008838E1,8.852560520E-1,2.162562609E0,5.508459568E0
3.234999338E1,1.488594890E0,2.047641039E0,5.101445198E0
3.236989838E1,2.058414936E0,2.162562609E0,4.986523628E0
3.238980338E1,2.656965256E0,2.478597403E0,5.240308762E0
3.240970838E1,3.006518841E0,3.115454912E0,5.589862347E0
3.242961338E1,2.805405855E0,3.718793869E0,5.819705963E0
3.244951838E1,2.513313293E0,3.675698042E0,7.270592213E0
3.246942338E1,2.882020235E0,3.963002443E0,8.314463615E0
3.248932838E1,2.340930700E0,3.804985046E0,8.510788918E0
3.250923338E1,7.559691668E-1,4.537611008E0,9.339181900E0
3.252913838E1,-1.441908002E0,6.706757545E0,1.058895588E1
3.254904338E1,-4.563947201E0,6.309319973E0,1.227447319E1
3.256894838E1,-5.550358295E0,5.016450882E0,1.600464058E1
3.258885338E1,-4.391564369E0,4.322132587E0,1.656009483E1
3.260875838E1,-4.046799660E0,4.628590584E0,1.300231075E1
3.262866338E1,-3.898358822E0,5.911882401E0,9.583391190E0
3.264856838E1,-3.328538895E0,6.338050365E0,6.581061840E0
3.266847338E1,-2.567182779E0,5.777807236E0,5.403114796E0
3.268837838E1,-2.318185806E0,5.054758549E0,6.111798286E0
3.270828338E1,-2.782660961E0,4.571129799E0,6.834847450E0
3.272818838E1,-3.773860455E0,4.484938145E0,7.533954144E0
3.274809338E1,-4.736329556E0,4.470572948E0,7.821258545E0
3.276799838E1,-4.741117954E0,4.144961834E0,8.659229279E0
3.278790338E1,-3.429095268E0,3.656544447E0,9.913790703E0
3.280780838E1,-1.312621117E0,4.010886192E0,9.382277489E0
3.282771338E1,-9.295488000E-1,5.634155273E0,7.050325394E0
3.284761838E1,-2.212841034E0,6.802525520E0,5.795763969E0
3.286752338E1,-1.834557056E0,8.018779755E0,8.209118843E0
3.288742838E1,-1.116296530E0,8.387487411E0,9.051877975E0
3.290733338E1,-3.314173698E0,6.160879612E0,9.257779121E0
3.292723838E1,-3.716399670E0,3.943848848E0,1.318426991E1
3.294714338E1,-2.600701571E0,2.770689964E0,1.561199093E1
3.296704843E1,-1.398812294E0,3.388393879E0,1.434785271E1
3.298695348E1,-1.475426793E0,4.963778496E0,1.056501389E1
3.300685854E1,-1.432331204E0,6.055534840E0,7.538742542E0
3.302676359E1,-9.870096445E-1,5.935824394E0,6.375160694E0
3.304666864E1,-3.597288132E-1,5.188833714E0,5.858013153E0
3.306657369E1,1.143231317E-1,4.528033733E0,5.273828030E0
3.308647874E1,1.334767491E-1,3.953425646E0,4.924274445E0
3.310638380E1,-5.985504249E-4,3.421912670E0,5.115810394E0
3.312628885E1,4.447229803E-1,2.880823135E0,5.173271179E0
3.314619390E1,1.196502328E0,2.555211782E0,5.106233597E0
3.316609895E1,1.996165633E0,2.708440781E0,5.173271179E0
3.318600400E1,2.417545080E0,3.297414303E0,4.742314816E0
3.320590906E1,1.584362984E0,3.886387825E0,3.952228546E0
3.322581411E1,-2.926911712E-1,3.972579241E0,4.814141273E0
3.324571916E1,-1.063624144E0,3.551199675E0,8.285733223E0
3.326562421E1,-1.250970364E-1,2.804208755E0,1.050276470E1
3.328552926E1,7.224503756E-1,3.048417330E0,9.214683533E0
3.330543432E1,4.973953962E-1,4.580706596E0,7.840412140E0
3.332533937E1,-5.943605900E-1,6.543951988E0,8.142081261E0
3.334524442E1,-2.294243813E0,7.013215542E0,9.501988411E0
3.336514947E1,-2.184110403E0,6.060323238E0,1.105343056E1
3.338505452E1,-9.582792521E-1,5.083488941E0,1.110131454E1
3.340495958E1,-5.273229480E-1,5.193622112E0,1.078049183E1
3.342486463E1,-1.326986313E0,6.213551998E0,1.133115768E1
3.344476968E1,-2.442684174E0,7.539939880E0,1.153705978E1
3.346467473E1,-3.730764866E0,7.171232700E0,1.140777302E1
3.348457978E1,-3.946243048E0,4.896740913E0,1.140298462E1
3.350448484E1,-2.801814556E0,3.201646328E0,1.139819527E1
3.352438989E1,-1.288679123E0,2.694075346E0,9.272144318E0
3.354429494E1,-8.433575630E-1,3.019686937E0,6.174047470E0
3.356419999E1,-9.630676508E-1,3.843292236E0,4.579509258E0
3.358410505E1,-9.630676508E-1,4.384381771E0,4.828506470E0
3.360401010E1,-9.056068063E-1,4.302978992E0,5.125387192E0
3.362391515E1,-9.822212458E-1,3.790619850E0,5.546766758E0
3.364382015E1,-1.729212165E0,3.326144695E0,7.917026520E0
3.366372515E1,-3.108272314E0,3.512892485E0,1.038305378E1
3.368363015E1,-3.184886694E0,4.705204964E0,1.060810947E1
3.370353515E1,-1.609502077E0,7.008427143E0,9.233837128E0
3.372344015E1,-1.192911029E0,8.583811760E0,7.040748596E0
3.374334515E1,-2.394800186E0,8.028356552E0,7.610568523E0
3.376325015E1,-2.792237759E0,6.520009995E0,1.062726307E1
3.378315515E1,-1.633444071E0,5.653308868E0,1.164719296E1
3.380306015E1,-4.219780564E-1,6.543951988E0,9.966463089E0
3.382296515E1,-1.432331204E0,6.601412773E0,8.122927666E0
3.384287015E1,-2.035670042E0,5.993285179E0,9.765350342E0
3.386277515E1,-2.088342428E0,4.963778496E0,1.180521011E1
3.388268015E1,-2.073977232E0,4.566341400E0,1.191534328E1
3.390258515E1,-2.342127800E0,5.121796131E0,1.015321064E1
3.392249015E1,-2.514510393E0,5.686827660E0,7.993640900E0
3.394239515E1,-2.150591612E0,5.806537628E0,6.427833080E0
3.396230015E1,-1.370081902E0,5.437830448E0,5.479729176E0
3.398220515E1,-6.901286244E-1,4.805761337E0,4.943428040E0
3.400211015E1,-2.448071241E-1,4.274248600E0,4.708796024E0
3.402201515E1,9.038111567E-2,3.867234230E0,4.684854031E0
3.404192015E1,4.830302000E-1,3.690063477E0,4.641758442E0
3.406182515E1,7.894880176E-1,3.589506865E0,4.306570530E0
3.408173015E1,8.182184100E-1,3.335721493E0,4.177283287E0
3.410163515E1,1.765723825E-1,2.607884169E0,4.368819714E0
3.412154015E1,-1.106719732E0,1.228824019E0,5.441421986E0
3.414144515E1,-1.848922253E0,-2.172738016E-1,7.045536995E0
3.416135015E1,-1.532887697E0,-1.275510907E0,7.035960197E0
3.418125515E1,-5.177460909E-1,-1.385644197E0,6.427833080E0
3.420116015E1,3.489548862E-1,3.381809890E-1,6.801328659E0
3.422106515E1,9.522937536E-1,4.997297287E0,6.442198277E0
3.424097015E1,-7.475894690E-1,8.430583000E0,1.179742932E0
3.426087515E1,-4.975749493E0,7.654861450E0,-2.136825025E-1
3.428078015E1,-4.832097530E0,6.180033207E0,8.410231590E0
3.430068515E1,-1.111508131E0,5.840056419E0,1.502780533E1
3.432059015E1,-1.757942557E0,4.604648590E0,1.358649635E1
3.434049515E1,-3.261501312E0,4.504091740E0,1.346199799E1
3.436040015E1,-1.786673069E0,4.709993362E0,1.465909863E1
3.438030515E1,-8.678980917E-2,4.336497784E0,1.225053120E1
3.440021015E1,3.681085110E-1,4.322132587E0,1.111089134E1
3.442011515E1,3.776853085E-1,4.279036999E0,1.180521011E1
3.444002015E1,2.723404467E-1,3.929483652E0,1.261445045E1
3.445992515E1,3.872621357E-1,4.551976204E0,1.300231075E1
3.447983015E1,-4.746504724E-1,5.543175697E0,1.226968479E1
3.449973515E1,-1.762730956E0,5.634155273E0,1.116835213E1
3.451964015E1,-1.963843942E0,5.380369663E0,1.100075817E1
3.453954515E1,-1.437119603E0,4.896740913E0,1.076133823E1
3.455945015E1,-1.638232470E0,4.077924252E0,1.113483334E1
3.457935515E1,-1.355716705E0,3.594295263E0,1.248516369E1
3.459926015E1,-1.197699428E0,3.120243311E0,1.265275764E1
3.461916515E1,-1.762730956E0,3.172915697E0,1.167113495E1
3.463907015E1,-2.069188833E0,3.541622877E0,1.036868858E1
3.465897515E1,-1.451484799E0,3.795408249E0,8.850765228E0
3.467888015E1,-7.523778677E-1,4.144961834E0,7.074267387E0
3.469878515E1,-4.842272997E-1,4.504091740E0,5.470152378E0
3.471869015E1,-5.416881442E-1,4.676474571E0,4.522048473E0
3.473859515E1,-6.901286244E-1,4.365228176E0,4.507683277E0
3.475850015E1,-6.470330358E-1,3.680486679E0,5.144540787E0
3.477840515E1,-1.921346933E-1,3.053205729E0,5.446210384E0
3.479831015E1,2.627636492E-1,2.540846586E0,5.431845188E0
3.481821515E1,1.765723825E-1,2.425924778E0,5.369596004E0
3.483812015E1,-1.969230920E-1,2.737171173E0,5.958569527E0
3.485802515E1,-4.650736749E-1,3.005321741E0,6.988076210E0
3.487793015E1,-8.242039084E-1,3.235165119E0,7.926603317E0
3.489783515E1,-1.255160213E0,3.474585295E0,8.822034836E0
3.491774015E1,-9.151836038E-1,4.518456936E0,9.272144318E0
3.493764515E1,-5.081692934E-1,5.835268021E0,9.061454773E0
3.495755015E1,-1.178545833E0,5.978919983E0,9.411007881E0
3.497745515E1,-1.317409515E0,6.515221596E0,1.105821896E1
3.499736015E1,2.244564146E-1,8.195950508E0,1.161846256E1
3.501726515E1,-1.298255920E0,8.258200645E0,9.209895134E0
3.503717015E1,-3.759495258E0,6.567893982E0,9.861118317E0
3.505707515E1,-4.860827923E0,5.030816555E0,1.229362679E1
3.507698015E1,-3.668515444E0,4.269460201E0,1.204463005E1
3.509688515E1,-2.275090218E0,3.876811028E0,9.463681221E0
3.511679015E1,-1.633444071E0,3.771466255E0,7.414244175E0
3.513669515E1,-1.599925280E0,3.929483652E0,5.910685539E0
3.515660015E1,-1.892017841E0,3.929483652E0,5.364807606E0
3.517650515E1,-1.872864246E0,3.536834478E0,5.920262337E0
3.519641020E1,-1.293467522E0,2.737171173E0,6.490082264E0
3.521631525E1,-7.619546652E-1,2.411559582E0,6.470928669E0
3.523622031E1,-1.149815321E0,2.765901566E0,6.595427036E0
3.525612536E1,-2.088342428E0,3.417124271E0,7.452551365E0
3.527603041E1,-2.476203203E0,3.862445831E0,8.553884506E0
3.529593546E1,-1.326986313E0,4.518456936E0,9.138069153E0
3.531584052E1,-3.890577704E-2,5.954977989E0,8.012794495E0
3.533574557E1,-4.602852762E-1,6.855197906E0,7.629722118E0
3.535565062E1,-1.892017841E0,6.869563103E0,9.712677956E0
3.537555567E1,-8.337807655E-1,7.568670273E0,1.152748299E1
3.539546072E1,-1.154603720E0,7.051522732E0,8.778939247E0
3.541536578E1,-3.587112665E0,5.006874084E0,9.774927139E0
3.543527083E1,-3.879205227E0,3.704428673E0,1.458727264E1
3.545517588E1,-2.586336374E0,3.077147722E0,1.557368374E1
3.547508093E1,-1.777096152E0,4.049193859E0,1.218828201E1
3.549498598E1,-2.241571426E0,5.782595634E0,8.534730911E0
3.551489104E1,-2.768295765E0,6.678027153E0,6.552331448E0
3.553479609E1,-2.629431963E0,6.333261967E0,6.399102688E0
3.555470114E1,-1.791461468E0,5.227140903E0,6.695983410E0
3.557460619E1,-1.092354536E0,4.135385036E0,7.031171799E0
3.559451124E1,-6.949170232E-1,3.369240284E0,7.624933720E0
3.561441630E1,-2.831143439E-1,2.986168146E0,7.184400558E0
3.563432135E1,1.286883354E-1,2.722805977E0,6.212354660E0
3.565422640E1,6.362590790E-1,2.684498549E0,5.585073948E0
3.567413145E1,8.086416125E-1,2.780266762E0,5.230731964E0
3.569403650E1,5.309142470E-1,3.182492495E0,5.163694382E0
3.571394156E1,2.819172442E-1,3.412335873E0,5.336077213E0
3.573384661E1,3.770867735E-2,3.326144695E0,6.475717068E0
3.575375166E1,-7.242459804E-2,3.163338900E0,7.596203327E0
3.577365671E1,-1.921346933E-1,3.177704096E0,7.294534206E0
3.579356176E1,-1.346738487E-1,3.972579241E0,7.792528152E0
3.581346682E1,-5.985504249E-4,5.638943672E0,8.798092842E0
3.583337187E1,-1.058835745E0,7.089829922E0,8.568249702E0
3.585327692E1,-2.605489969E0,7.501632690E0,8.252214432E0
3.587318197E1,-3.534440279E0,6.855197906E0,1.074697304E1
3.589308702E1,-3.117849112E0,6.203975201E0,1.308850193E1
3.591299202E1,-2.629431963E0,7.228693485E0,1.200632286E1
3.593289702E1,-2.921524525E0,7.923011780E0,8.640075684E0
3.595280202E1,-4.654926777E0,7.199963093E0,7.902661324E0
3.597270702E1,-5.267842293E0,6.376357555E0,1.059374428E1
3.599261202E1,-2.543240786E0,4.422688961E0,9.846753120E0
3.601251702E1,-1.398812294E0,3.694851875E0,7.337629795E0
3.603242202E1,-1.786673069E0,4.820126534E0,5.771821976E0
3.605232702E1,-2.366069794E0,5.409100056E0,4.555567265E0
3.607223202E1,-1.805826664E0,5.150526524E0,4.081515312E0
3.609213702E1,-1.408389091E0,4.293402195E0,5.484517574E0
3.611204202E1,-1.537676096E0,3.886387825E0,6.571485043E0
3.613194702E1,-2.251148224E0,3.996521235E0,7.380725384E0
3.615185202E1,-2.734776974E0,3.934272051E0,9.396642685E0
3.617175702E1,-2.476203203E0,3.838503838E0,1.071345425E1
3.619166202E1,-1.705270171E0,5.021239281E0,9.885060310E0
3.621156702E1,-1.408389091E0,6.510433197E0,8.740632057E0
3.623147202E1,-3.026869535E0,6.472125530E0,9.229048729E0
3.625137702E1,-3.654150248E0,5.715558052E0,1.172859573E1
3.627128202E1,-2.141014814E0,7.817667007E0,1.059853268E1
3.629118702E1,-3.826532841E0,7.999626637E0,8.999205589E0
3.631109202E1,-3.812167645E0,5.054758549E0,1.108694935E1
3.633099702E1,-2.145803213E0,2.746747971E0,1.211166763E1
3.635090202E1,-1.058835745E0,2.569576979E0,1.067514706E1
3.637080702E1,-1.331774712E0,3.402759075E0,8.913014412E0
3.639071202E1,-2.131438017E0,4.159327030E0,8.822034836E0
3.641061702E1,-2.586336374E0,4.695628166E0,8.754997253E0
3.643052202E1,-2.265513420E0,4.796184540E0,7.802104950E0
3.645042702E1,-1.508945584E0,4.298190594E0,6.892308235E0
3.647033202E1,-1.595136881E0,3.929483652E0,7.577049732E0
3.649023702E1,-2.222417831E0,3.963002443E0,8.175600052E0
3.651014202E1,-2.184110403E0,3.915118217E0,8.400654793E0
3.653004702E1,-1.935113549E0,3.752312660E0,8.257002831E0
3.654995202E1,-2.289455414E0,4.293402195E0,7.083844185E0
3.656985702E1,-2.557605982E0,3.761889458E0,9.999981880E0
3.658976202E1,-2.375646591E0,3.527257681E0,1.107737255E1
3.660966702E1,-2.538452387E0,3.565564871E0,1.038784218E1
3.662957202E1,-2.662950754E0,3.895964622E0,8.544307709E0
3.666006625E1,-5.023633480E0,6.203975201E0,9.995193481E0
3.667997115E1,-4.923077106E0,4.331709385E0,1.206857204E1
3.669987604E1,-3.433883905E0,3.038840532E0,1.255220127E1
3.671978094E1,-2.615066767E0,3.369240284E0,1.072781944E1
3.673968584E1,-2.413953781E0,4.437054157E0,7.739855766E0
3.675959073E1,-2.078765631E0,5.255871296E0,5.671265125E0
3.677949563E1,-1.542464495E0,5.547964096E0,5.225943565E0
3.679940052E1,-1.298255920E0,5.346850872E0,5.723937511E0
3.681930542E1,-1.221641421E0,4.748300552E0,6.063914299E0
3.683921032E1,-1.073200941E0,4.077924252E0,6.456563473E0
3.685911521E1,-6.278793812E-1,3.469796896E0,6.298546314E0
3.687902011E1,-1.145026922E0,3.383605480E0,6.652887821E0
3.689892500E1,-2.476203203E0,3.714005470E0,7.495646954E0
3.691882990E1,-1.585560083E0,2.488174200E0,7.696759701E0
3.693873480E1,-7.571662664E-1,1.899200439E0,7.184400558E0
3.695863969E1,-5.943605900E-1,2.028487444E0,6.499659061E0
3.697854459E1,-1.015740037E0,2.727594376E0,5.944204330E0
3.699844948E1,-1.379658699E0,3.407547474E0,5.546766758E0
3.701835438E1,-1.480215192E0,3.982156038E0,5.484517574E0
3.703825927E1,-1.370081902E0,4.240729809E0,5.541978359E0
3.705816417E1,-1.283890605E0,4.542399406E0,5.594650745E0
3.707806907E1,-1.125873327E0,5.117007732E0,5.977723122E0
3.709797396E1,-8.912416101E-1,5.931035995E0,7.615356922E0
3.711787886E1,-1.518522382E0,6.855197906E0,9.114127159E0
3.713778375E1,-3.309385300E0,7.185597897E0,1.126412010E1
3.715768865E1,-3.663727045E0,6.567893982E0,1.410364342E1
3.717759354E1,-2.322974205E0,4.925471306E0,1.483148098E1
3.719749844E1,-5.985504249E-4,4.820126534E0,1.490330696E1
3.721740334E1,-8.672995567E-1,5.456984043E0,1.299752235E1
3.723730823E1,-2.624643564E0,5.490502834E0,1.307892513E1
3.725721313E1,-2.471414804E0,4.484938145E0,1.465431023E1
3.727711802E1,-1.236006618E0,3.426701069E0,1.369662952E1
3.729702292E1,-7.188590765E-1,3.388393879E0,1.125454330E1
3.731692782E1,-7.332242727E-1,3.819350243E0,8.984840393E0
3.733683271E1,-5.943605900E-1,4.068347454E0,7.131728172E0
3.735673761E1,-4.842272997E-1,4.106654644E0,5.790975571E0
3.737664250E1,-4.602852762E-1,3.919906616E0,5.436633587E0
3.739654735E1,-4.363432527E-1,3.488950491E0,5.671265125E0
3.741645219E1,-5.129576921E-1,3.043628931E0,5.757456303E0
3.743635704E1,-7.667431235E-1,2.876034737E0,5.757456303E0
3.745626188E1,-1.604713678E0,2.861669540E0,5.977723122E0
3.747616672E1,-2.763507366E0,2.799420357E0,6.796540260E0
3.749607157E1,-3.429095268E0,2.492962599E0,8.371924400E0
3.751597641E1,-2.911947727E0,1.846528053E0,9.085396767E0
3.753588125E1,-1.944690347E0,1.674145579E0,8.189965248E0
3.755578610E1,-1.508945584E0,2.215235233E0,6.327276707E0
3.757569094E1,-1.192911029E0,3.053205729E0,4.727949619E0
3.759559578E1,-1.073200941E0,3.675698042E0,4.929062843E0
3.761550063E1,-7.140706778E-1,3.824138641E0,7.112574577E0
3.763540547E1,1.143231317E-1,4.307767391E0,8.984840393E0
3.765531032E1,-3.309983909E-1,4.982932091E0,1.003828907E1
3.767521516E1,-2.040458441E0,5.768230438E0,1.111567974E1
3.769512000E1,-3.084330320E0,5.983708382E0,1.226489639E1
3.771502485E1,-1.786673069E0,6.879139900E0,1.269106483E1
3.773492969E1,-3.002927542E0,7.247847080E0,9.832387924E0
3.775483454E1,-6.029198647E0,6.769006729E0,9.990405083E0
3.777473938E1,-5.952583790E0,4.686051369E0,1.441010189E1
3.779464422E1,-3.438672304E0,2.540846586E0,1.529595566E1
3.781454907E1,-1.111508131E0,2.387617588E0,1.180042171E1
3.783445391E1,-6.709750295E-1,3.752312660E0,7.514800549E0
3.785435875E1,-1.001374841E0,5.145738125E0,5.134963989E0
3.787426360E1,-1.547252893E0,5.820902824E0,4.306570530E0
3.789416844E1,-1.772307754E0,5.844844818E0,4.249109268E0
3.791407328E1,-1.394023895E0,5.102642536E0,4.354454517E0
3.793397813E1,-6.901286244E-1,4.408323765E0,4.809352875E0
3.795388297E1,-3.890577704E-2,4.250306606E0,5.087080002E0
3.797378782E1,3.393780887E-1,4.480149746E0,4.838083267E0
3.799369266E1,3.345896900E-1,4.891952515E0,4.431068897E0
3.801359750E1,-2.687491477E-1,5.528810501E0,4.708796024E0
3.803350235E1,-1.298255920E0,5.926247597E0,5.474940777E0
3.805340719E1,-2.710834980E0,6.223128796E0,6.753444672E0
3.807331204E1,-3.022081137E0,5.686827660E0,9.343970299E0
3.809321688E1,-2.452261209E0,5.389946461E0,1.113962173E1
3.811312172E1,-3.098695517E0,6.175244808E0,1.002871227E1
3.813302662E1,-4.511274338E0,6.960542679E0,9.214683533E0
3.815293151E1,-4.449025154E0,7.051522732E0,1.068951225E1
3.817283641E1,-4.463390350E0,7.391499043E0,1.025855541E1
3.819274131E1,-5.914276600E0,7.204751492E0,9.109338760E0
3.821264620E1,-6.795342922E0,5.835268021E0,1.009574986E1
3.823255110E1,-5.923853397E0,3.584718466E0,1.113483334E1
3.825245599E1,-3.424306870E0,1.918354154E0,9.918579102E0
3.827236089E1,-1.868075848E0,1.645415068E0,7.610568523E0
3.829226579E1,-1.681328177E0,2.516904593E0,5.254673958E0
3.831217068E1,-1.791461468E0,3.474585295E0,4.057573318E0
3.833207558E1,-1.255160213E0,3.742735863E0,3.913921118E0
3.835198047E1,-4.602852762E-1,3.666121244E0,3.971382141E0
3.837188537E1,2.196680009E-1,3.579930067E0,4.603451252E0
3.839179026E1,5.644330382E-1,3.326144695E0,5.489305973E0
3.841169516E1,-1.346738487E-1,3.431489468E0,5.762245178E0
3.843160006E1,-1.973420739E0,3.651756048E0,7.237073421E0
3.845150495E1,-3.347692490E0,4.207211018E0,1.013405704E1
3.847140985E1,-3.620631456E0,4.930259705E0,1.235587597E1
3.849131474E1,-3.285443306E0,6.342838764E0,1.243249130E1
3.851121964E1,-4.037222385E0,8.234258652E0,9.679159164E0
3.853112454E1,-4.544793606E0,8.693944931E0,8.874707222E0
3.855102943E1,-2.864063740E0,8.104970932E0,1.131200409E1
3.857093433E1,-2.184110403E0,7.970896244E0,1.182436371E1
3.859083922E1,-2.514510393E0,6.706757545E0,1.238460732E1
3.861074412E1,-1.748365760E0,4.619013786E0,1.362480354E1
3.863064901E1,-1.317409515E0,3.833715439E0,1.296879196E1
3.865055391E1,-2.006939650E0,4.551976204E0,1.070866585E1
3.867045880E1,-2.706046581E0,5.461772442E0,8.122927666E0
3.869036370E1,-2.729988575E0,5.543175697E0,6.221931458E0
3.871026860E1,-2.164956808E0,5.117007732E0,5.091868401E0
3.873017349E1,-1.671751380E0,4.958990097E0,3.889979124E0
3.875007839E1,-9.726444483E-1,4.705204964E0,2.927510023E0
3.876998328E1,-2.112883031E-1,4.245518208E0,2.439092875E0
3.878988818E1,3.489548862E-1,3.833715439E0,3.339312792E0
3.880979308E1,7.942764163E-1,3.670909643E0,4.766256809E0
3.882969797E1,1.105522633E0,3.714005470E0,5.570708752E0
3.884960287E1,9.091981053E-1,3.718793869E0,5.316923618E0
3.886950776E1,6.123170853E-1,3.804985046E0,5.589862347E0
3.888941266E1,5.404910445E-1,3.555988073E0,6.901885033E0
3.890931756E1,8.325836658E-1,3.714005470E0,8.989628792E0
3.892922245E1,1.665765882E0,5.303755283E0,9.861118317E0
3.894912735E1,2.531868219E-1,7.616554260E0,8.592191696E0
3.896903224E1,-2.706046581E0,8.698733330E0,1.091456699E1
3.898893714E1,-3.405153275E0,7.420229435E0,1.605252457E1
3.900884204E1,-9.151836038E-1,6.376357555E0,1.694316673E1
3.902874693E1,-9.726444483E-1,6.668450356E0,1.339974880E1
3.904865183E1,-3.371634483E0,7.257423878E0,1.216912842E1
3.906855672E1,-3.117849112E0,6.601412773E0,1.226010799E1
3.908846162E1,-1.307832718E0,5.332485676E0,1.032559299E1
3.910836651E1,-5.847837925E-1,4.623802185E0,7.811681747E0
3.912827141E1,-6.757634282E-1,4.700416565E0,6.288969517E0
3.914817631E1,-9.391255975E-1,5.040393353E0,5.202001572E0
3.916808120E1,-1.116296530E0,5.160103321E0,4.258686066E0
3.918798610E1,-1.073200941E0,4.709993362E0,3.784634352E0
3.920789099E1,-7.523778677E-1,3.814561844E0,3.717596769E0
3.922779589E1,-1.921346933E-1,2.741959572E0,5.082291603E0
3.924770079E1,2.148796022E-1,2.416347980E0,6.930615425E0
3.926760568E1,-4.985924959E-1,3.555988073E0,7.069478989E0
3.928751058E1,-2.231994629E0,5.222352505E0,6.083067894E0
3.930741547E1,-3.290231705E0,6.055534840E0,6.858789444E0
3.932732037E1,-3.338115692E0,5.471349239E0,8.429385185E0
3.934722526E1,-2.423530579E0,3.982156038E0,9.698312759E0
3.936713016E1,-1.365293503E0,3.484162092E0,9.889848709E0
3.938703506E1,-6.326677799E-1,4.824914932E0,8.515577316E0
3.940693990E1,-2.926911712E-1,7.070676327E0,6.274604321E0
3.942684474E1,-7.140706778E-1,8.425794601E0,5.618592739E0
3.944674959E1,-1.178545833E0,8.081028938E0,8.438961983E0
3.946665443E1,-5.991489887E-1,6.524798393E0,1.064162827E1
3.948655927E1,9.187749028E-1,6.093842030E0,1.110131454E1
3.950646412E1,1.134253025E0,7.357980251E0,9.444527626E0
3.952636896E1,-1.781884670E0,7.721899033E0,7.744644165E0
3.954627381E1,-3.156156301E0,6.706757545E0,1.135031128E1
3.956617865E1,-1.772307754E0,4.906317711E0,1.313638592E1
3.958608349E1,-4.459200799E-1,4.393958569E0,1.118750572E1
3.960598834E1,-4.938040972E-1,4.978143692E0,8.970475197E0
3.962589318E1,-9.391255975E-1,5.576694489E0,7.308899403E0
3.964579802E1,-1.456273198E0,5.538387299E0,6.480505466E0
3.966570287E1,-1.499368787E0,5.078700542E0,6.873154640E0
3.968560771E1,-8.433575630E-1,4.144961834E0,6.672041416E0
3.970551256E1,-2.112883031E-1,3.316567898E0,6.030395508E0
3.972541740E1,-1.017535757E-2,3.038840532E0,5.417479992E0
3.974532224E1,7.601590455E-2,3.038840532E0,5.235520363E0
3.976522709E1,2.531868219E-1,3.034052134E0,5.307346821E0
3.978513193E1,4.686649740E-1,3.110666513E0,5.302558422E0
3.980503677E1,7.272387743E-1,3.168127298E0,5.206789970E0
3.982494162E1,4.734533727E-1,3.589506865E0,5.379172802E0
3.984484646E1,-3.788824081E-1,4.370016575E0,6.710348606E0
3.986475131E1,-7.428010702E-1,4.891952515E0,7.500435352E0
3.988465615E1,-5.177460909E-1,5.490502834E0,8.271368027E0
3.990456099E1,-1.063624144E0,6.390722752E0,9.760561943E0
3.992446584E1,-2.993350744E0,6.515221596E0,1.132158089E1
3.994437068E1,-3.716399670E0,5.998073578E0,1.374451351E1
3.996427552E1,-1.801038265E0,5.552752495E0,1.452023506E1
3.998418037E1,-1.634042710E-1,7.137713909E0,1.209730244E1
4.000408521E1,-2.935889721E0,7.501632690E0,9.525930405E0
4.002399006E1,-4.664503574E0,6.936600685E0,1.113962173E1
4.004389490E1,-2.495356798E0,5.289390087E0,1.229362679E1
4.006379974E1,2.723404467E-1,4.188057423E0,1.018194103E1
4.008370459E1,5.692214370E-1,4.460996151E0,7.634510517E0
4.010360943E1,-4.650736749E-1,5.279813290E0,6.897096634E0
4.012351427E1,-1.082777739E0,5.294178486E0,6.423044682E0
4.014341912E1,-9.439139962E-1,4.619013786E0,5.944204330E0
4.016332396E1,-7.715315223E-1,3.584718466E0,5.848436356E0
4.018322886E1,-9.295488000E-1,2.823362350E0,6.317699909E0
4.020313375E1,-1.384447098E0,2.650979757E0,7.126939774E0
4.022303865E1,-2.011728048E0,2.866457939E0,7.438186169E0
4.024294354E1,-2.394800186E0,3.187281132E0,6.983287811E0
4.026284844E1,-2.193687201E0,3.441066504E0,6.676829815E0
4.028275334E1,-1.441908002E0,3.536834478E0,7.007229805E0
4.030265823E1,-6.278793812E-1,3.594295263E0,7.495646954E0
4.032256313E1,-6.518214345E-1,4.015674591E0,7.423820972E0
4.034246802E1,-8.481459618E-1,4.590283394E0,7.615356922E0
4.036237292E1,-2.735375464E-1,5.744288445E0,7.950545311E0
4.038227782E1,3.058592677E-1,6.989273548E0,8.237849236E0
4.040218271E1,-8.289923668E-1,6.883928299E0,8.649652481E0
4.042208761E1,-2.418742180E0,5.840056419E0,1.019151783E1
4.044199250E1,-1.480215192E0,4.633378983E0,1.226489639E1
4.046189740E1,1.354519606E0,6.146514416E0,1.124017811E1
4.048180230E1,-5.321113467E-1,7.219116688E0,7.720701694E0
4.050170719E1,-3.725976467E0,6.491279125E0,8.822034836E0
4.052161209E1,-3.903147221E0,4.542399406E0,1.302625275E1
4.054151698E1,-1.575983286E0,2.871246338E0,1.334707546E1
4.056142188E1,3.010708690E-1,3.062782526E0,1.018194103E1
4.058132677E1,5.021837950E-1,4.346074581E0,6.863577843E0
4.060123167E1,-1.017535757E-2,5.643732071E0,5.034407616E0
4.062113657E1,-3.693056107E-1,6.089053631E0,4.536413670E0
4.064104146E1,-5.416881442E-1,5.409100056E0,4.981735229E0
4.066094636E1,-5.656301379E-1,4.312555790E0,6.001665115E0
4.068085125E1,-4.076128304E-1,3.249530315E0,6.628945827E0
4.070075615E1,3.292027488E-2,2.646191359E0,6.451775074E0
4.072066104E1,6.458359361E-1,2.842515945E0,6.107009888E0
4.074056594E1,9.379284978E-1,3.450643301E0,5.585073948E0
4.076047084E1,4.542997777E-1,4.231153011E0,5.656899929E0
4.078037573E1,-3.357867897E-1,4.551976204E0,6.250661850E0
4.080028063E1,-1.346139908E0,4.092289448E0,7.289745808E0
4.082018552E1,-1.489791989E0,3.158550501E0,9.367912292E0
4.084009042E1,-4.315548539E-1,2.904765129E0,1.042136192E1
4.085999532E1,4.973953962E-1,4.130596638E0,9.707889557E0
4.087990021E1,9.044097066E-1,6.055534840E0,7.993640900E0
4.089980511E1,-3.309983909E-1,6.735487938E0,7.308899403E0
4.091971000E1,-2.246359825E0,6.266224384E0,9.511565208E0
4.093961490E1,-3.046023130E0,5.160103321E0,1.241812611E1
4.095951980E1,-2.677315950E0,3.766677856E0,1.346199799E1
4.097942469E1,-2.117072821E0,3.541622877E0,1.184830570E1
4.099932959E1,-1.987785935E0,3.910329819E0,9.827599525E0
4.101923448E1,-1.791461468E0,4.125808239E0,8.716690063E0
4.103913938E1,-1.077989340E0,4.101866245E0,8.448538780E0
4.105904427E1,-4.028244317E-1,4.192845821E0,8.194753647E0
4.107894917E1,8.978256024E-3,4.207211018E0,7.711124897E0
4.109885407E1,-2.831143439E-1,4.307767391E0,7.548319340E0
4.111875896E1,-1.015740037E0,4.666897774E0,8.194753647E0
4.113866386E1,-1.777096152E0,4.777030945E0,8.941744804E0
4.115856875E1,-1.638232470E0,4.810549736E0,1.001913548E1
4.117847365E1,-5.416881442E-1,5.509656429E0,1.032080460E1
4.119837855E1,-3.357867897E-1,6.074688435E0,8.788516045E0
4.121828344E1,-1.374870300E0,5.591059685E0,8.774150848E0
4.123818834E1,-7.715315223E-1,4.777030945E0,1.099596977E1
4.125809323E1,1.134253025E0,5.490502834E0,1.045966911E1
4.127799813E1,-8.672995567E-1,5.212775707E0,8.683171272E0
4.129790302E1,-2.495356798E0,4.647744179E0,1.132636929E1
4.131780792E1,-1.786673069E0,3.752312660E0,1.320821190E1
4.133771282E1,-3.214215636E-1,3.402759075E0,1.101991177E1
4.135761771E1,-2.256535143E-1,4.255095005E0,9.224260330E0
4.137752261E1,-1.226429820E0,5.327697277E0,8.324040413E0
4.139742750E1,-1.748365760E0,5.437830448E0,7.447762966E0
4.141733240E1,-1.394023895E0,4.614225388E0,7.189188957E0
4.143723730E1,-7.236474752E-1,3.493738890E0,7.251438618E0
4.145714219E1,-2.974795699E-1,2.770689964E0,7.112574577E0
4.147704709E1,-6.763619930E-2,2.521692991E0,6.581061840E0
4.149695198E1,8.080431074E-2,2.718017578E0,6.025607109E0
4.151685688E1,4.159925580E-1,3.086724520E0,5.925050735E0
4.153676177E1,4.159925580E-1,3.450643301E0,6.054337502E0
4.155666667E1,1.855506375E-2,3.819350243E0,6.427833080E0
4.157657157E1,-3.166331649E-1,4.235941410E0,6.667253017E0
4.159647646E1,-5.321113467E-1,4.767454147E0,6.748656273E0
4.161638136E1,-8.720879555E-1,5.394734859E0,7.198765755E0
4.163628625E1,-1.312621117E0,5.729923248E0,7.878719330E0
4.165619115E1,-1.528099179E0,5.749076843E0,8.769362450E0
4.167609604E1,-1.236006618E0,6.132149220E0,9.411007881E0
4.169600094E1,-1.360505104E0,6.395511150E0,9.348758698E0
4.171590584E1,-2.006939650E0,6.338050365E0,9.597756386E0
4.173581073E1,-2.260725021E0,6.065111637E0,1.042615032E1
4.175571563E1,-2.969408751E0,6.754641533E0,1.137904167E1
4.177562052E1,-4.938040972E-1,6.644508362E0,8.807669640E0
4.179552542E1,-8.912416101E-1,6.587047577E0,8.338405609E0
