"Time (s)","Acceleration x (m/s^2)","Acceleration y (m/s^2)","Acceleration z (m/s^2)"
8.390952100E-2,-1.431000113E0,4.408050060E0,8.965050697E0
1.034869780E-1,-1.488000035E0,4.398000240E0,8.946000099E0
1.230703480E-1,-1.573950052E0,4.321950436E0,8.850000381E0
1.426500350E-1,-1.488000035E0,4.234950066E0,8.887950897E0
1.622248040E-1,-1.258050084E0,4.197000027E0,9.118050575E0
1.817968330E-1,-1.066950083E0,4.177950382E0,9.280950546E0
2.013685160E-1,-9.130500555E-1,4.101000309E0,9.252000809E0
2.209393660E-1,-7.699500322E-1,3.958050251E0,9.031949997E0
2.405091640E-1,-6.550500393E-1,3.843000174E0,8.793000221E0
2.600817790E-1,-5.590500236E-1,3.795000076E0,8.629950523E0
2.796557120E-1,-3.960000277E-1,3.891000271E0,8.581950188E0
2.992326350E-1,-1.380000114E-1,4.044000149E0,8.611050606E0
3.188092600E-1,1.390500069E-1,4.101000309E0,8.638950348E0
3.383806300E-1,2.830500007E-1,4.015050411E0,8.611050606E0
3.579535160E-1,2.920500040E-1,3.871950150E0,8.553000450E0
3.775282080E-1,3.210000098E-1,3.736950159E0,8.544000626E0
3.971063660E-1,4.170000255E-1,3.651000261E0,8.620050430E0
4.166789870E-1,5.220000148E-1,3.651000261E0,8.725950241E0
4.362556890E-1,6.559500098E-1,3.603000164E0,8.782950401E0
4.558328510E-1,9.049500227E-1,3.373950243E0,8.745000839E0
4.754082940E-1,1.144950032E0,3.010050058E0,8.716050148E0
4.949879100E-1,1.201950073E0,2.683950186E0,8.850000381E0
5.145593610E-1,1.057950020E0,2.482950211E0,9.042000771E0
5.341322800E-1,8.860500455E-1,2.368050098E0,9.136950493E0
5.537078810E-1,8.190000653E-1,2.263050079E0,9.061050415E0
5.732805730E-1,8.959500194E-1,2.185950041E0,8.782950401E0
5.928550390E-1,1.078050017E0,2.100000143E0,8.428950310E0
6.124281840E-1,1.192050099E0,2.032950163E0,8.140950203E0
6.319974820E-1,1.144950032E0,2.041949987E0,7.978950500E0
6.515743180E-1,9.820500612E-1,2.119050026E0,7.854000568E0
6.711461260E-1,7.900500298E-1,2.205000162E0,7.816050529E0
6.907233420E-1,6.559500098E-1,2.253000021E0,7.930950165E0
7.103039380E-1,5.509500504E-1,2.310000181E0,8.275950432E0
7.298860920E-1,4.549500346E-1,2.406000137E0,8.745000839E0
7.494623230E-1,3.499500155E-1,2.502000093E0,9.147000313E0
7.690420060E-1,3.019500077E-1,2.521050215E0,9.339000702E0
7.886303140E-1,3.109500110E-1,2.502000093E0,9.454050064E0
8.082232650E-1,1.960500032E-1,2.626950026E0,9.979950905E0
8.278220260E-1,-1.279500127E-1,3.019050121E0,1.099500084E1
8.474161830E-1,-4.060500264E-1,3.478950262E0,1.180005074E1
8.670091070E-1,-3.769500256E-1,3.679950237E0,1.180995083E1
8.865990400E-1,-5.205000192E-2,3.642000198E0,1.141695023E1
9.061947320E-1,4.170000255E-1,3.546000242E0,1.129200077E1
9.257894810E-1,7.519500256E-1,3.594000101E0,1.147395039E1
9.453783370E-1,6.850500107E-1,3.832950115E0,1.143600082E1
9.649661210E-1,4.260000288E-1,3.948000193E0,1.090005016E1
9.845546540E-1,2.639999986E-1,3.679950237E0,1.023900032E1
1.004144558E0,1.290000081E-1,3.334950209E0,9.865050316E0
1.023731265E0,-1.090500057E-1,3.238950253E0,9.808050156E0
1.043316817E0,-3.679500222E-1,3.277950048E0,9.885000229E0
1.062903038E0,-4.540500343E-1,3.181950092E0,9.769950867E0
1.082493486E0,-3.390000165E-1,2.884950161E0,9.328950882E0
1.102076855E0,-2.620500028E-1,2.578950167E0,8.773950577E0
1.121652149E0,-3.390000165E-1,2.434950113E0,8.476950645E0
1.141233125E0,-5.299500227E-1,2.550000191E0,8.515049934E0
1.160816736E0,-6.640500426E-1,2.779950142E0,8.611050606E0
1.180410956E0,-6.840000153E-1,2.875950098E0,8.515049934E0
1.199992404E0,-7.219500542E-1,2.808000088E0,8.295000076E0
1.219575159E0,-8.179500103E-1,2.751000166E0,8.266050339E0
1.239155265E0,-9.040500522E-1,2.818050146E0,8.476950645E0
1.258735573E0,-8.749500513E-1,2.932950258E0,8.677950859E0
1.278317328E0,-7.030500174E-1,2.980950117E0,8.734950066E0
1.297895800E0,-4.830000103E-1,2.952000141E0,8.649000168E0
1.317477342E0,-3.289500177E-1,2.989950180E0,8.533950806E0
1.337055891E0,-2.719500065E-1,3.172050238E0,8.467050552E0
1.356635506E0,-3.199500144E-1,3.402000189E0,8.362050056E0
1.376222281E0,-4.350000322E-1,3.546000242E0,8.170050621E0
1.395802588E0,-5.590500236E-1,3.574950218E0,7.864050388E0
1.415388742E0,-6.739500165E-1,3.478950262E0,7.452000141E0
1.434968434E0,-7.890000343E-1,3.364050150E0,7.098000526E0
1.454548761E0,-9.709500670E-1,3.364050150E0,7.002000332E0
1.474131237E0,-1.201050043E0,3.478950262E0,7.192950249E0
1.493712770E0,-1.239000082E0,3.583950281E0,7.480950356E0
1.513295910E0,-9.610500336E-1,3.574950218E0,7.710000515E0
1.532876535E0,-4.920000136E-1,3.478950262E0,7.921050549E0
1.552458048E0,-3.195000067E-2,3.498000145E0,8.332950592E0
1.572033433E0,3.019500077E-1,3.679950237E0,9.051000595E0
1.591608428E0,6.079500318E-1,3.843000174E0,1.006605053E1
1.611184409E0,1.030050039E0,3.948000193E0,1.123500061E1
1.630765635E0,1.566000104E0,4.054049969E0,1.207800102E1
1.650339227E0,2.083050013E0,4.111050129E0,1.218300056E1
1.669915535E0,2.313000202E0,4.140000343E0,1.158000088E1
1.689494227E0,2.111999989E0,4.216050148E0,1.101495075E1
1.709073997E0,1.815000057E0,4.159049988E0,1.139805031E1
1.728654304E0,1.603950024E0,3.967050076E0,1.241295052E1
1.748236371E0,1.518000126E0,3.814050198E0,1.268100071E1
1.767816399E0,1.671000123E0,3.508050203E0,1.180995083E1
1.787396784E0,1.920000076E0,3.000000238E0,1.052595043E1
1.806980476E0,1.920000076E0,2.683950186E0,9.616050720E0
1.826560092E0,1.566000104E0,2.856000185E0,9.328950882E0
1.846139866E0,1.116000056E0,3.345000267E0,9.252000809E0
1.865720761E0,1.000950098E0,3.747000217E0,9.109050751E0
1.885306284E0,1.221000075E0,3.948000193E0,8.821050644E0
1.904890193E0,1.441950083E0,3.996000290E0,8.314050674E0
1.924476361E0,1.480050087E0,3.928950071E0,7.749000549E0
1.944064981E0,1.297950029E0,3.766050100E0,7.393950462E0
1.963652351E0,1.020000100E0,3.574950218E0,7.327050209E0
1.983233889E0,7.999500632E-1,3.393000126E0,7.452000141E0
2.002805260E0,6.660000086E-1,3.220050097E0,7.663050175E0
2.022382260E0,6.559500098E-1,3.010050058E0,7.921050549E0
2.041960106E0,8.089500666E-1,2.740950108E0,8.227950096E0
2.061535491E0,1.078050017E0,2.530950069E0,8.592000008E0
2.081113255E0,1.317000031E0,2.502000093E0,8.841000557E0
2.100687751E0,1.461000085E0,2.635950089E0,8.869050026E0
2.120265808E0,1.546950102E0,2.740950108E0,8.659049988E0
2.139840573E0,1.594950080E0,2.722050190E0,8.295000076E0
2.159414419E0,1.509000063E0,2.683950186E0,7.902000427E0
2.178992058E0,1.231050014E0,2.703000069E0,7.624050140E0
2.198571761E0,9.150000215E-1,2.713050127E0,7.537950516E0
2.218145304E0,7.330500484E-1,2.713050127E0,7.615050316E0
2.237715977E0,7.420500517E-1,2.731950045E0,7.786950588E0
2.257289804E0,9.430500269E-1,2.770050049E0,8.065050125E0
2.276872973E0,1.240050077E0,2.761050224E0,8.314050674E0
2.296463049E0,1.489050031E0,2.731950045E0,8.458050728E0
2.316051741E0,1.651950121E0,2.740950108E0,8.515049934E0
2.335645833E0,1.681050062E0,2.788950205E0,8.659049988E0
2.355238838E0,1.537050128E0,2.827950239E0,9.175950050E0
2.374827697E0,1.057950020E0,2.962050200E0,1.022895050E1
2.394413558E0,4.170000255E-1,3.211050034E0,1.115805054E1
2.413997655E0,2.830500007E-1,3.153000116E0,1.142595100E1
2.433577966E0,8.190000653E-1,2.559000015E0,1.159905052E1
2.453159760E0,1.212000012E0,2.080950022E0,1.195305061E1
2.472744370E0,8.290500641E-1,2.349000216E0,1.204905033E1
2.492330303E0,2.059500068E-1,2.788950205E0,1.169505024E1
2.511921949E0,-1.090500057E-1,2.751000166E0,1.116795063E1
2.531509391E0,-3.480000198E-1,2.607000113E0,1.092795086E1
2.551094650E0,-6.840000153E-1,2.808000088E0,1.097595024E1
2.570682901E0,-7.699500322E-1,3.067050219E0,1.096695042E1
2.590277132E0,-4.350000322E-1,2.952000141E0,1.076595020E1
2.609864747E0,-7.095000148E-2,2.713050127E0,1.036305046E1
2.629453747E0,-7.095000148E-2,2.635950089E0,9.817050934E0
2.649047501E0,-3.390000165E-1,2.665050030E0,9.262050629E0
2.668636112E0,-6.640500426E-1,2.694000244E0,8.773950577E0
2.688223482E0,-9.610500336E-1,2.799000025E0,8.389950752E0
2.707811790E0,-1.162050009E0,3.037950039E0,8.094000816E0
2.727400093E0,-1.182000041E0,3.181950092E0,7.864050388E0
2.746989722E0,-1.018950105E0,3.028950214E0,7.633950233E0
2.766576703E0,-7.890000343E-1,2.646000147E0,7.557000160E0
2.786165934E0,-8.370000124E-1,2.358000040E0,7.912050247E0
2.805756103E0,-1.249050021E0,2.464050055E0,8.544000626E0
2.825343838E0,-1.420950055E0,2.683950186E0,8.974950790E0
2.844928116E0,-9.709500670E-1,2.607000113E0,9.166050911E0
2.864515823E0,-2.530499995E-1,2.368050098E0,9.232950211E0
2.884101352E0,1.960500032E-1,2.290950060E0,9.157050133E0
2.903691814E0,3.109500110E-1,2.338950157E0,8.956050873E0
2.923279429E0,3.589500189E-1,2.338950157E0,8.629950523E0
2.942866568E0,4.360500276E-1,2.310000181E0,8.227950096E0
2.962443833E0,3.979500234E-1,2.397000074E0,7.930950165E0
2.982020371E0,2.730000019E-1,2.578950167E0,7.854000568E0
3.001599770E0,1.290000081E-1,2.722050190E0,8.035950661E0
3.021177385E0,4.305000231E-2,2.788950205E0,8.410050392E0
3.040749987E0,1.390500069E-1,2.779950142E0,8.869050026E0
3.060324063E0,3.880500197E-1,2.770050049E0,9.328950882E0
3.079902818E0,6.850500107E-1,2.875950098E0,9.817050934E0
3.099479447E0,1.020000100E0,3.124950171E0,1.040205002E1
3.119051452E0,1.306950092E0,3.487950087E0,1.102395058E1
3.138624760E0,1.393950105E0,3.967050076E0,1.133100033E1
3.158198535E0,1.164000034E0,4.408050060E0,1.118700027E1
3.177775164E0,9.430500269E-1,4.522950172E0,1.099500084E1
3.197349612E0,1.078050017E0,4.092000008E0,1.125405025E1
3.216923842E0,1.221000075E0,3.631950140E0,1.195305061E1
3.236497318E0,1.173000097E0,3.642000198E0,1.220205021E1
3.256067793E0,1.317000031E0,3.594000101E0,1.169505024E1
3.275636376E0,1.681050062E0,3.085950136E0,1.099500084E1
3.295207458E0,1.834050059E0,2.569050074E0,1.052595043E1
3.314780675E0,1.594950080E0,2.454000235E0,1.033500004E1
3.334357290E0,1.183050036E0,2.646000147E0,1.026795006E1
3.353937385E0,9.820500612E-1,2.808000088E0,1.005705070E1
3.373519861E0,1.125000000E0,2.856000185E0,9.559050560E0
3.393100096E0,1.345950007E0,2.884950161E0,8.860050201E0
3.412682620E0,1.393950105E0,2.914050102E0,8.188950539E0
3.432260371E0,1.192050099E0,2.980950117E0,7.825050354E0
3.451836106E0,8.569500446E-1,3.124950171E0,7.710000515E0
3.471414644E0,6.370500326E-1,3.163050175E0,7.701000214E0
3.490993630E0,6.180000305E-1,3.000000238E0,7.701000214E0
3.510570952E0,7.230000496E-1,2.713050127E0,7.681950569E0
3.530150644E0,8.479500413E-1,2.473050117E0,7.738950253E0
3.549733034E0,1.011000037E0,2.329950094E0,7.939950466E0
3.569313957E0,1.192050099E0,2.253000021E0,8.275950432E0
3.588898971E0,1.279050112E0,2.224050045E0,8.572050095E0
3.608481952E0,1.327050090E0,2.157000065E0,8.659049988E0
3.628068125E0,1.422000051E0,2.032950163E0,8.476950645E0
3.647654039E0,1.470000029E0,1.956000090E0,8.179950714E0
3.667238327E0,1.374000072E0,2.014050007E0,7.921050549E0
3.686824486E0,1.153950095E0,2.215050220E0,7.681950569E0
3.706406260E0,9.430500269E-1,2.434950113E0,7.509000301E0
3.725990279E0,8.479500413E-1,2.578950167E0,7.528950214E0
3.745574971E0,8.380500674E-1,2.607000113E0,7.854000568E0
3.765155250E0,8.290500641E-1,2.646000147E0,8.400000572E0
3.784739173E0,7.900500298E-1,2.722050190E0,8.935950279E0
3.804322539E0,7.620000243E-1,2.788950205E0,9.424950600E0
3.823908779E0,7.620000243E-1,2.904000044E0,1.001895046E1
3.843495534E0,7.330500484E-1,3.172050238E0,1.079400063E1
3.863081991E0,6.559500098E-1,3.469050169E0,1.154100037E1
3.882665342E0,5.989500284E-1,3.487950087E0,1.194405079E1
3.902246476E0,5.700000525E-1,3.268050194E0,1.190505028E1
3.921828385E0,4.450500309E-1,3.105000257E0,1.178100014E1
3.941412630E0,1.870500147E-1,3.076950073E0,1.185705090E1
3.961000304E0,-7.995000482E-2,3.067050219E0,1.203900051E1
3.980585866E0,-2.340000123E-1,3.019050121E0,1.203900051E1
4.000170871E0,-1.950000077E-1,2.895000219E0,1.174200058E1
4.019754160E0,2.400000021E-2,2.674050093E0,1.127295017E1
4.039336919E0,3.109500110E-1,2.473050117E0,1.071795082E1
4.058918827E0,5.320500135E-1,2.338950157E0,1.012395000E1
4.078496054E0,5.800500512E-1,2.281949997E0,9.540000916E0
4.098072991E0,3.499500155E-1,2.320050001E0,9.090000153E0
4.117648632E0,-1.305000018E-2,2.434950113E0,8.830950737E0
4.137231377E0,-2.530499995E-1,2.569050074E0,8.649000168E0
4.156809622E0,-2.910000086E-1,2.665050030E0,8.553000450E0
4.176390160E0,-1.759500057E-1,2.731950045E0,8.592000008E0
4.195970550E0,-3.195000067E-2,2.799000025E0,8.716050148E0
4.215549646E0,2.400000021E-2,2.799000025E0,8.812050819E0
4.235128347E0,-4.050000105E-3,2.635950089E0,8.764050484E0
4.254705651E0,-7.095000148E-2,2.386950016E0,8.524950027E0
4.274287113E0,-1.189500093E-1,2.205000162E0,8.151000023E0
4.293870487E0,-1.380000114E-1,2.137950182E0,7.777950287E0
4.313450790E0,-1.469999999E-1,2.148000002E0,7.461000443E0
4.333032699E0,-1.860000044E-1,2.185950041E0,7.270050526E0
4.352615381E0,-1.660500020E-1,2.205000162E0,7.192950249E0
4.372195165E0,-2.295000106E-2,2.205000162E0,7.165050507E0
4.391779785E0,2.160000056E-1,2.196000099E0,7.039950371E0
4.411363785E0,3.400500119E-1,2.215050220E0,6.906000137E0
4.430945944E0,1.770000011E-1,2.329950094E0,7.002000332E0
4.450523420E0,-1.279500127E-1,2.550000191E0,7.452000141E0
4.470097252E0,-3.390000165E-1,2.722050190E0,8.131950378E0
4.489669871E0,-3.960000277E-1,2.751000166E0,8.793000221E0
4.509244035E0,-3.679500222E-1,2.731950045E0,9.348000526E0
4.528814208E0,-3.870000243E-1,2.818050146E0,9.961050034E0
4.548381068E0,-4.830000103E-1,3.037950039E0,1.076595020E1
4.567948088E0,-6.070500016E-1,3.345000267E0,1.168500042E1
4.587521400E0,-7.030500174E-1,3.642000198E0,1.241295052E1
4.607093708E0,-7.030500174E-1,3.880950212E0,1.265205097E1
4.626667174E0,-6.259500384E-1,4.054049969E0,1.246095085E1
4.646237111E0,-3.769500256E-1,4.081950188E0,1.224000072E1
4.665805443E0,2.250000089E-1,3.805050135E0,1.237500095E1
4.685375275E0,9.630000591E-1,3.508050203E0,1.258500099E1
4.704939583E0,1.461000085E0,3.382950068E0,1.239405060E1
4.724508819E0,1.719000101E0,3.115050077E0,1.175205040E1
4.744082055E0,1.815000057E0,2.694000244E0,1.085205078E1
4.763654689E0,1.603950024E0,2.406000137E0,1.016205025E1
4.783226997E0,1.087050080E0,2.416050196E0,9.894000053E0
4.802799626E0,6.370500326E-1,2.550000191E0,9.808050156E0
4.822374338E0,5.410500169E-1,2.530950069E0,9.568050385E0
4.841942732E0,5.890500546E-1,2.454000235E0,9.232950211E0
4.861510035E0,5.220000148E-1,2.502000093E0,8.850000381E0
4.881081713E0,3.589500189E-1,2.617050171E0,8.400000572E0
4.900653473E0,3.019500077E-1,2.607000113E0,7.969050407E0
4.920230011E0,3.780000210E-1,2.482950211E0,7.624050140E0
4.939803886E0,3.780000210E-1,2.397000074E0,7.500000477E0
4.959376901E0,2.639999986E-1,2.425050020E0,7.642950535E0
4.978953521E0,2.639999986E-1,2.416050196E0,7.959000587E0
4.998529814E0,4.740000367E-1,2.272050142E0,8.323050499E0
5.018101521E0,8.479500413E-1,2.052000046E0,8.629950523E0
5.037675617E0,1.201950073E0,1.860000134E0,8.841000557E0
5.057251367E0,1.384050012E0,1.755000114E0,8.917050362E0
5.076825116E0,1.450950027E0,1.735950112E0,8.860050201E0
5.096397731E0,1.498950124E0,1.812000036E0,8.734950066E0
5.115971885E0,1.528050065E0,1.936950088E0,8.515049934E0
5.135544808E0,1.537050128E0,2.004000187E0,8.170050621E0
5.155117121E0,1.498950124E0,1.993950129E0,7.701000214E0
5.174688582E0,1.297950029E0,2.004000187E0,7.155000210E0
5.194258053E0,9.240000248E-1,2.089950085E0,6.685950279E0
5.213823366E0,4.549500346E-1,2.310000181E0,6.513000488E0
5.233397765E0,-4.200000316E-2,2.722050190E0,6.705000401E0
5.252968207E0,-3.870000243E-1,3.163050175E0,7.393950462E0
5.272542053E0,-4.350000322E-1,3.430950165E0,8.485950470E0
5.292113525E0,-2.719500065E-1,3.546000242E0,9.577950478E0
5.311684621E0,6.195000187E-2,3.460050106E0,1.063200092E1
5.331258154E0,6.370500326E-1,3.037950039E0,1.173300076E1
5.350827289E0,1.105949998E0,2.512050152E0,1.285305023E1
5.370389226E0,1.212000012E0,2.253000021E0,1.367700100E1
5.389950380E0,1.336050034E0,2.205000162E0,1.384005070E1
5.409513529E0,1.671000123E0,2.032950163E0,1.364805031E1
5.429079900E0,1.815000057E0,1.870050073E0,1.337100029E1
5.448647035E0,1.470000029E0,2.023050070E0,1.290105057E1
5.468212866E0,8.959500194E-1,2.281949997E0,1.209705067E1
5.487781698E0,4.930500090E-1,2.320050001E0,1.115805054E1
5.507346375E0,2.160000056E-1,2.338950157E0,1.042995071E1
5.526909674E0,-1.570500135E-1,2.598000050E0,1.000905037E1
5.546475208E0,-5.500500202E-1,3.000000238E0,9.673950195E0
5.566042275E0,-7.219500542E-1,3.201000214E0,9.243000031E0
5.585609953E0,-6.930000186E-1,3.181950092E0,8.716050148E0
5.605170275E0,-6.840000153E-1,3.124950171E0,8.218050003E0
5.624728731E0,-8.080500364E-1,3.133950233E0,7.864050388E0
5.644288121E0,-1.038000107E0,3.181950092E0,7.710000515E0
5.663846981E0,-1.297050118E0,3.286950111E0,7.681950569E0
5.683406582E0,-1.372950077E0,3.364050150E0,7.749000549E0
5.702965073E0,-1.153050065E0,3.297000170E0,7.845000267E0
5.722524444E0,-8.080500364E-1,3.058050156E0,7.816050529E0
5.742093680E0,-6.640500426E-1,2.751000166E0,7.633950233E0
5.761658680E0,-8.749500513E-1,2.607000113E0,7.404000282E0
5.781226064E0,-1.335000038E0,2.674050093E0,7.222050190E0
5.800795314E0,-1.765950084E0,2.751000166E0,7.135950565E0
5.820365992E0,-1.870950103E0,2.646000147E0,7.117050171E0
5.839937078E0,-1.680000067E0,2.454000235E0,7.212000370E0
5.859503834E0,-1.459050059E0,2.377950191E0,7.500000477E0
5.879071819E0,-1.297050118E0,2.377950191E0,7.939950466E0
5.898647506E0,-1.134000063E0,2.301000118E0,8.447999954E0
5.918217381E0,-9.810000658E-1,2.148000002E0,8.974950790E0
5.937786978E0,-8.940000534E-1,2.004000187E0,9.406050682E0
5.957358040E0,-7.699500322E-1,1.899000049E0,9.664050102E0
5.976930257E0,-5.500500202E-1,1.822050095E0,9.798000336E0
5.996491780E0,-3.580500185E-1,1.822050095E0,9.952050209E0
6.016056410E0,-3.010500073E-1,1.908000112E0,1.018095016E1
6.035623857E0,-2.719500065E-1,1.956000090E0,1.050705051E1
6.055192396E0,-9.900000691E-2,1.822050095E0,1.073700047E1
6.074761088E0,2.059500068E-1,1.659000039E0,1.061205006E1
6.094334011E0,4.549500346E-1,1.687950134E0,1.015305042E1
6.113906823E0,7.620000243E-1,1.707000136E0,9.865050316E0
6.133477621E0,1.288050056E0,1.324050069E0,1.039200020E1
6.153040684E0,1.623000026E0,9.790500402E-1,1.163700008E1
6.172609011E0,1.489050031E0,1.132050037E0,1.254705048E1
6.192179487E0,1.450950027E0,1.228050113E0,1.255695057E1
6.211756487E0,1.651950121E0,8.830500245E-1,1.215405083E1
6.231330237E0,1.614000082E0,6.919500232E-1,1.191495037E1
6.250896169E0,1.173000097E0,1.045950055E0,1.195305061E1
6.270460400E0,7.230000496E-1,1.554000020E0,1.204905033E1
6.290027549E0,6.079500318E-1,1.792950034E0,1.187700081E1
6.309596795E0,6.660000086E-1,1.822050095E0,1.140705013E1
6.329164477E0,6.270000339E-1,1.840950131E0,1.078500080E1
6.348733006E0,4.549500346E-1,1.831950068E0,1.014300060E1
6.368296087E0,1.960500032E-1,1.717050076E0,9.616050720E0
6.387860390E0,-7.095000148E-2,1.563000083E0,9.300000191E0
6.407426649E0,-2.430000156E-1,1.438950062E0,9.252000809E0
6.426994063E0,-3.010500073E-1,1.353000045E0,9.454050064E0
6.446569760E0,-1.950000077E-1,1.228050113E0,9.808050156E0
6.466146299E0,9.105000645E-2,1.036949992E0,1.016205025E1
6.485716765E0,4.260000288E-1,7.879500389E-1,1.037295055E1
6.505287904E0,7.039500475E-1,5.959500074E-1,1.035405064E1
6.524853154E0,8.860500455E-1,5.290500522E-1,1.014300060E1
6.544416145E0,9.340500236E-1,6.250500083E-1,9.837000847E0
6.563982352E0,9.340500236E-1,8.359500170E-1,9.463050842E0
6.583549967E0,9.910500646E-1,9.979500771E-1,9.090000153E0
6.603115587E0,1.087050080E0,1.075049996E0,8.821050644E0
6.622685419E0,1.192050099E0,1.132050037E0,8.638950348E0
6.642255178E0,1.297950029E0,1.180050015E0,8.544000626E0
6.661822019E0,1.413000107E0,1.228050113E0,8.410050392E0
6.681384799E0,1.489050031E0,1.285950065E0,8.218050003E0
6.700947491E0,1.461000085E0,1.305000067E0,7.987950325E0
6.720516679E0,1.279050112E0,1.314000010E0,7.749000549E0
6.740088135E0,1.020000100E0,1.410000086E0,7.528950214E0
6.759664351E0,7.900500298E-1,1.573050022E0,7.375050545E0
6.779239736E0,6.370500326E-1,1.698000073E0,7.336950302E0
6.798816351E0,5.890500546E-1,1.783950090E0,7.441950321E0
6.818392423E0,6.270000339E-1,1.803000093E0,7.749000549E0
6.837962505E0,6.850500107E-1,1.765050054E0,8.161050797E0
6.857533635E0,7.999500632E-1,1.659000039E0,8.592000008E0
6.877106890E0,9.340500236E-1,1.486950040E0,9.013050079E0
6.896683847E0,1.020000100E0,1.294950008E0,9.406050682E0
6.916265020E0,1.011000037E0,1.152000070E0,9.712050438E0
6.935845948E0,9.150000215E-1,1.045950055E0,9.952050209E0
6.955420697E0,8.290500641E-1,9.409500360E-1,1.028700066E1
6.974996087E0,7.810500264E-1,9.120000601E-1,1.079400063E1
6.994569933E0,6.370500326E-1,1.141950011E0,1.113900089E1
7.014145703E0,4.069500268E-1,1.506000042E0,1.114905071E1
7.033719861E0,3.019500077E-1,1.630950093E0,1.104300022E1
7.053293029E0,3.780000210E-1,1.410000086E0,1.117695045E1
7.072869024E0,2.639999986E-1,1.237950087E0,1.156095028E1
7.092446655E0,-9.000000358E-2,1.390950084E0,1.176195049E1
7.112021347E0,-3.100500107E-1,1.410000086E0,1.156095028E1
7.131601404E0,-3.580500185E-1,1.018050075E0,1.117695045E1
7.151177708E0,-5.209500194E-1,6.919500232E-1,1.085205078E1
7.170753107E0,-9.520500302E-1,7.399500608E-1,1.064100075E1
7.190329708E0,-1.431000113E0,9.310500622E-1,1.044000053E1
7.209904736E0,-1.621950030E0,1.045950055E0,1.016205025E1
7.229480332E0,-1.632000089E0,1.141950011E0,9.865050316E0
7.249056635E0,-1.651050091E0,1.342950106E0,9.645000458E0
7.268636717E0,-1.708050132E0,1.611000061E0,9.559050560E0
7.288212640E0,-1.785000086E0,1.822050095E0,9.577950478E0
7.307785640E0,-1.765950084E0,1.851000071E0,9.607050896E0
7.327358472E0,-1.584000111E0,1.659000039E0,9.577950478E0
7.346934155E0,-1.335000038E0,1.362000108E0,9.511050224E0
7.366505342E0,-1.153050065E0,1.104000092E0,9.367050171E0
7.386080039E0,-1.057050109E0,8.640000224E-1,9.098999977E0
7.405657635E0,-1.038000107E0,6.820500493E-1,8.745000839E0
7.425237851E0,-1.057050109E0,6.540000439E-1,8.410050392E0
7.444812948E0,-1.075950027E0,7.780500650E-1,8.188950539E0
7.464389885E0,-1.057050109E0,1.027050018E0,8.065050125E0
7.483963813E0,-9.610500336E-1,1.333950043E0,8.122050285E0
7.503544106E0,-6.640500426E-1,1.591950059E0,8.284950256E0
7.523121587E0,-1.570500135E-1,1.783950090E0,8.400000572E0
7.542699505E0,2.830500007E-1,1.956000090E0,8.467050552E0
7.562274197E0,3.109500110E-1,2.109000206E0,8.533950806E0
7.581854525E0,-7.995000482E-2,2.205000162E0,8.638950348E0
7.601431765E0,-6.360000372E-1,2.224050045E0,8.745000839E0
7.621011848E0,-1.105050087E0,2.242950201E0,8.898000717E0
7.640586313E0,-1.324950099E0,2.406000137E0,9.300000191E0
7.660163256E0,-1.123950005E0,2.827950239E0,9.999000549E0
7.679735775E0,-5.779500008E-1,3.364050150E0,1.086105061E1
7.699312766E0,7.200000435E-2,3.823950291E0,1.146495056E1
7.718892151E0,5.130000114E-1,4.216050148E0,1.155105019E1
7.738472703E0,7.620000243E-1,4.360050201E0,1.149300098E1
7.758046929E0,1.068000078E0,4.140000343E0,1.168500042E1
7.777627535E0,1.402950048E0,3.862050295E0,1.193400097E1
7.797203151E0,1.642950058E0,3.565050125E0,1.196295071E1
7.816786526E0,1.681050062E0,3.144000053E0,1.181895065E1
7.836367237E0,1.374000072E0,2.703000069E0,1.152195072E1
7.855949328E0,8.190000653E-1,2.320050001E0,1.110105038E1
7.875530338E0,4.069500268E-1,1.927050114E0,1.048800087E1
7.895112164E0,3.019500077E-1,1.563000083E0,9.712050438E0
7.914691559E0,2.639999986E-1,1.390950084E0,9.127950668E0
7.934269025E0,1.290000081E-1,1.563000083E0,8.850000381E0
7.953846559E0,-4.200000316E-2,2.023050070E0,8.659049988E0
7.973426323E0,-1.380000114E-1,2.521050215E0,8.332950592E0
7.993008400E0,-1.305000018E-2,2.788950205E0,7.921050549E0
8.012590006E0,2.539499998E-1,2.808000088E0,7.596000195E0
8.032166236E0,3.780000210E-1,2.770050049E0,7.414050579E0
8.051741318E0,3.109500110E-1,2.731950045E0,7.414050579E0
8.071317626E0,2.539499998E-1,2.674050093E0,7.519050121E0
8.090897626E0,3.690000176E-1,2.607000113E0,7.681950569E0
8.110475237E0,6.750000119E-1,2.559000015E0,7.969050407E0
8.130051462E0,1.048950076E0,2.473050117E0,8.247000694E0
8.149633001E0,1.269000053E0,2.416050196E0,8.389950752E0
8.169204784E0,1.240050077E0,2.377950191E0,8.332950592E0
8.188776087E0,1.068000078E0,2.320050001E0,8.131950378E0
8.208350578E0,9.240000248E-1,2.253000021E0,7.978950500E0
8.227929333E0,8.569500446E-1,2.242950201E0,7.912050247E0
8.247505337E0,7.710000277E-1,2.301000118E0,7.950000286E0
8.267081661E0,7.519500256E-1,2.301000118E0,7.998000145E0
8.286664213E0,8.190000653E-1,2.157000065E0,8.017050743E0
8.306245680E0,8.569500446E-1,2.032950163E0,7.998000145E0
8.325825690E0,6.940500140E-1,2.109000206E0,7.959000587E0
8.345402305E0,3.019500077E-1,2.397000074E0,8.218050003E0
8.364979916E0,-2.050500065E-1,2.703000069E0,8.926950455E0
8.384564160E0,-4.729500115E-1,2.943000078E0,9.682950020E0
8.404149497E0,-3.580500185E-1,3.115050077E0,1.022895050E1
8.423731333E0,2.400000021E-2,3.153000116E0,1.075605011E1
8.443307598E0,4.260000288E-1,3.115050077E0,1.153200054E1
8.462881733E0,4.170000255E-1,3.238950253E0,1.250895023E1
8.482459319E0,1.390500069E-1,3.364050150E0,1.311195087E1
8.502044554E0,1.390500069E-1,3.019050121E0,1.301595020E1
8.521629093E0,4.450500309E-1,2.329950094E0,1.258500099E1
8.541210406E0,5.599500537E-1,1.899000049E0,1.209705067E1
8.560789483E0,3.109500110E-1,1.947000146E0,1.141695023E1
8.580372241E0,-6.105000153E-2,2.089950085E0,1.053600025E1
8.599953702E0,-2.719500065E-1,2.137950182E0,9.540000916E0
8.619537179E0,-2.910000086E-1,2.089950085E0,8.611050606E0
8.639124784E0,-2.239500135E-1,2.071050167E0,7.930950165E0
8.658709424E0,-2.719500065E-1,2.137950182E0,7.432950497E0
8.678296501E0,-5.110500455E-1,2.205000162E0,6.954000473E0
8.697879645E0,-7.890000343E-1,2.167050123E0,6.493950367E0
8.717463231E0,-9.810000658E-1,2.052000046E0,6.244950294E0
8.737049785E0,-1.182000041E0,2.041949987E0,6.370050430E0
8.756632443E0,-1.363950014E0,2.148000002E0,6.877050400E0
8.776215231E0,-1.267950058E0,2.215050220E0,7.624050140E0
8.795804770E0,-8.850000501E-1,2.128950119E0,8.476950645E0
8.815391938E0,-4.830000103E-1,1.860000134E0,9.328950882E0
8.834974318E0,-1.759500057E-1,1.554000020E0,1.005705070E1
8.854553155E0,7.200000435E-2,1.401000023E0,1.057395077E1
8.874129765E0,3.690000176E-1,1.506000042E0,1.102395058E1
8.893703842E0,8.959500194E-1,1.744950056E0,1.158900070E1
8.913275900E0,1.651950121E0,1.984950066E0,1.219305038E1
8.932853423E0,2.140950203E0,2.358000040E0,1.252800083E1
8.952428395E0,2.179050207E0,2.683950186E0,1.246995068E1
8.972000375E0,2.302950144E0,2.473050117E0,1.229805088E1
8.991574813E0,2.629050016E0,2.004000187E0,1.236495018E1
9.011143736E0,2.494950056E0,2.071050167E0,1.249905014E1
9.030717577E0,1.852950096E0,2.598000050E0,1.234605026E1
9.050292948E0,1.297950029E0,2.731950045E0,1.198200035E1
9.069867482E0,1.068000078E0,2.368050098E0,1.160805035E1
9.089437265E0,9.049500227E-1,2.100000143E0,1.118700027E1
9.109013631E0,6.750000119E-1,2.128950119E0,1.066005039E1
9.128589323E0,4.549500346E-1,2.167050123E0,1.009500027E1
9.148166559E0,3.019500077E-1,2.014050007E0,9.472949982E0
9.167738861E0,1.579500139E-1,1.765050054E0,8.821050644E0
9.187311790E0,-4.050000105E-3,1.678050041E0,8.236949921E0
9.206883077E0,-1.279500127E-1,1.792950034E0,7.768050194E0
9.226455713E0,-1.469999999E-1,1.947000146E0,7.414050579E0
9.246025574E0,-7.095000148E-2,2.041949987E0,7.212000370E0
9.265595521E0,-4.050000105E-3,2.071050167E0,7.192950249E0
9.285174920E0,-1.305000018E-2,2.089950085E0,7.299000263E0
9.304759151E0,-9.000000358E-2,2.109000206E0,7.452000141E0
9.324341948E0,-9.000000358E-2,2.071050167E0,7.585950375E0
9.343925428E0,-5.205000192E-2,2.004000187E0,7.786950588E0
9.363503910E0,-9.000000358E-2,2.023050070E0,8.006999969E0
9.383083242E0,-2.239500135E-1,2.224050045E0,8.035950661E0
9.402662693E0,-4.060500264E-1,2.635950089E0,7.729950428E0
9.422243847E0,-5.299500227E-1,3.133950233E0,7.203000546E0
9.441826371E0,-4.729500115E-1,3.526950121E0,7.078050137E0
9.461413058E0,-3.480000198E-1,3.747000217E0,7.537950516E0
9.480997150E0,-3.100500107E-1,3.852000237E0,8.140950203E0
9.500577703E0,-2.809500098E-1,3.775950193E0,8.659049988E0
9.520156477E0,-1.380000114E-1,3.469050169E0,9.367050171E0
9.539736842E0,4.950000439E-3,3.181950092E0,1.066005039E1
9.559319833E0,5.295000225E-2,3.096000195E0,1.235505104E1
9.578897952E0,-4.050000105E-3,3.037950039E0,1.366695023E1
9.598475188E0,5.295000225E-2,2.799000025E0,1.403100109E1
9.618056727E0,1.579500139E-1,2.539950132E0,1.360995102E1
9.637639804E0,5.295000225E-2,2.646000147E0,1.296795082E1
9.657222636E0,-2.530499995E-1,3.181950092E0,1.245105076E1
9.676802308E0,-6.360000372E-1,3.747000217E0,1.184805012E1
9.696377356E0,-1.038000107E0,3.939000130E0,1.098600006E1
9.715954265E0,-1.536000013E0,3.852000237E0,1.003800011E1
9.735529910E0,-2.139000177E0,3.880950212E0,9.262050629E0
9.755103145E0,-2.713950157E0,4.149000168E0,8.764050484E0
9.774678842E0,-3.097050190E0,4.437000275E0,8.485950470E0
9.794254227E0,-3.145050049E0,4.561050415E0,8.218050003E0
9.813832064E0,-2.944050074E0,4.494000435E0,7.864050388E0
9.833411136E0,-2.733000040E0,4.360050201E0,7.414050579E0
9.852988746E0,-2.617950201E0,4.255050182E0,6.973050117E0
9.872564459E0,-2.608950138E0,4.177950382E0,6.762000084E0
9.892143843E0,-2.617950201E0,4.072950363E0,6.733950138E0
9.911721310E0,-2.542050123E0,3.967050076E0,6.714000225E0
9.931293318E0,-2.388000011E0,3.900000095E0,6.600000381E0
9.950870333E0,-2.139000177E0,3.814050198E0,6.370050430E0
9.970449078E0,-1.929000139E0,3.766050100E0,6.196950436E0
9.990026905E0,-1.785000086E0,3.862050295E0,6.244950294E0
1.000960163E1,-1.669950128E0,3.967050076E0,6.418050289E0
1.002917948E1,-1.765950084E0,3.900000095E0,6.571050167E0
1.004875740E1,-2.245050192E0,3.805050135E0,6.552000523E0
1.006833606E1,-3.040050030E0,3.880950212E0,6.408000469E0
1.008791114E1,-3.921000242E0,4.168050289E0,6.513000488E0
1.010748475E1,-4.427999973E0,4.531949997E0,6.973050117E0
1.012706006E1,-4.476000309E0,4.915050030E0,7.681950569E0
1.014663428E1,-4.438050270E0,5.374950409E0,8.601000786E0
1.016621092E1,-4.620000362E0,5.872950077E0,9.607050896E0
1.018578716E1,-4.888050079E0,6.295050144E0,1.025805092E1
1.020536193E1,-4.831050396E0,6.505050182E0,1.017195034E1
1.022493456E1,-4.360949993E0,6.505050182E0,9.931950569E0
1.024450973E1,-3.853950262E0,6.630000114E0,1.021005058E1
1.026408410E1,-3.471000195E0,6.772950172E0,1.063200092E1
1.028364971E1,-3.154950142E0,6.352050304E0,1.048800087E1
1.030321983E1,-2.973000050E0,5.643000126E0,9.655050278E0
1.032278822E1,-3.040050030E0,5.365950108E0,8.638950348E0
1.034235586E1,-3.375000238E0,5.643000126E0,7.902000427E0
1.036192418E1,-3.700050116E0,6.064950466E0,7.519050121E0
1.038149250E1,-3.882000208E0,6.322950363E0,7.240950108E0
1.040106244E1,-3.997050285E0,6.361950397E0,6.858000278E0
1.042063505E1,-3.997050285E0,6.228000164E0,6.513000488E0
1.044020635E1,-3.835050106E0,6.025950432E0,6.408000469E0
1.045977804E1,-3.681000233E0,5.844000340E0,6.484950542E0
1.047935279E1,-3.691050291E0,5.749050140E0,6.456000328E0
1.049892908E1,-3.691050291E0,5.701050282E0,6.264000416E0
1.051850354E1,-3.633000135E0,5.710050106E0,6.034050465E0
1.053807399E1,-3.709950209E0,5.776950359E0,5.881050110E0
1.055764319E1,-3.910950184E0,5.749050140E0,5.899950504E0
1.057721459E1,-4.102950096E0,5.643000126E0,6.073050499E0
1.059678537E1,-4.198050022E0,5.595000267E0,6.322050095E0
1.061635490E1,-4.207950115E0,5.623950481E0,6.600000381E0
1.063592567E1,-4.303950310E0,5.739000320E0,6.580050468E0
1.065549467E1,-4.534049988E0,5.892000198E0,6.705000401E0
1.067506392E1,-4.600950241E0,5.835000515E0,7.203000546E0
1.069462877E1,-4.486050129E0,5.701050282E0,7.270050526E0
1.071419960E1,-4.399950027E0,5.671950340E0,7.050000191E0
1.078625366E1,-3.346050262E0,4.723950386E0,8.323050499E0
1.080584449E1,-3.394050121E0,4.734000206E0,8.343000412E0
1.082543463E1,-3.471000195E0,4.771950245E0,8.389950752E0
1.084502349E1,-3.460950136E0,4.801050186E0,8.410050392E0
1.086461559E1,-3.307950258E0,4.791000366E0,8.400000572E0
1.088419653E1,-3.067950249E0,4.734000206E0,8.447999954E0
1.090377779E1,-2.857950211E0,4.675950050E0,8.496000290E0
1.092336172E1,-2.656950235E0,4.561050415E0,8.629950523E0
1.094294303E1,-2.484000206E0,4.408050060E0,9.013050079E0
1.096252182E1,-2.215950012E0,4.225950241E0,9.385950089E0
1.098209995E1,-1.833000064E0,4.024950027E0,9.682950020E0
1.100168366E1,-1.479000092E0,3.862050295E0,9.952050209E0
1.102126880E1,-1.219950080E0,3.679950237E0,1.008600044E1
1.104085066E1,-1.095000029E0,3.535950184E0,1.004700089E1
1.106043406E1,-1.027950048E0,3.382950068E0,9.913050652E0
1.108001598E1,-8.940000534E-1,3.153000116E0,9.789000511E0
1.109959936E1,-7.120500207E-1,2.962050200E0,9.750000000E0
1.111918730E1,-5.400000215E-1,2.856000185E0,9.837000847E0
1.113877507E1,-4.440000355E-1,2.799000025E0,9.979950905E0
1.115835871E1,-4.540500343E-1,2.683950186E0,1.014300060E1
1.117794147E1,-5.879999995E-1,2.521050215E0,1.024800014E1
1.119752145E1,-7.990500331E-1,2.310000181E0,1.015305042E1
1.121710400E1,-9.229500294E-1,2.080950022E0,9.942000389E0
1.123668546E1,-8.560500145E-1,1.860000134E0,9.778950691E0
1.125626761E1,-6.550500393E-1,1.687950134E0,9.664050102E0
1.127584792E1,-4.540500343E-1,1.554000020E0,9.577950478E0
1.129542456E1,-3.100500107E-1,1.420050025E0,9.454050064E0
1.131499811E1,-2.530499995E-1,1.246950030E0,9.271950722E0
1.133457779E1,-2.719500065E-1,1.045950055E0,9.157050133E0
1.135416424E1,-2.430000156E-1,9.510000348E-1,9.319050789E0
1.137374861E1,-1.380000114E-1,1.123050094E0,9.664050102E0
1.139332699E1,1.009500027E-1,1.477050066E0,9.826950073E0
1.141291693E1,5.320500135E-1,1.735950112E0,9.664050102E0
1.143249784E1,1.087050080E0,1.755000114E0,9.271950722E0
1.145207406E1,1.555950046E0,1.650000095E0,8.830950737E0
1.147165250E1,1.795950055E0,1.602000117E0,8.553000450E0
1.149122664E1,1.795950055E0,1.698000073E0,8.553000450E0
1.151080511E1,1.710000038E0,1.870050073E0,8.686950684E0
1.153037985E1,1.614000082E0,1.993950129E0,8.707050323E0
1.154995030E1,1.555950046E0,1.984950066E0,8.447999954E0
1.156952239E1,1.528050065E0,1.840950131E0,7.969050407E0
1.158908970E1,1.537050128E0,1.611000061E0,7.393950462E0
1.160866362E1,1.623000026E0,1.495950103E0,6.934950352E0
1.162824937E1,1.603950024E0,1.630950093E0,6.838950157E0
1.164782668E1,1.432050109E0,1.822050095E0,7.098000526E0
1.166740444E1,1.374000072E0,1.908000112E0,7.356000423E0
1.168698752E1,1.480050087E0,1.936950088E0,7.414050579E0
1.170656505E1,1.603950024E0,1.947000146E0,7.432950497E0
1.172613890E1,1.804950118E0,1.899000049E0,7.500000477E0
1.174571488E1,1.987050056E0,1.888950109E0,7.642950535E0
1.176528967E1,1.968000054E0,1.956000090E0,7.663050175E0
1.178486598E1,1.891950130E0,1.966050148E0,7.452000141E0
1.180444544E1,1.920000076E0,1.899000049E0,7.423050404E0
1.182403898E1,1.987050056E0,1.956000090E0,8.151000023E0
1.184362443E1,1.978050113E0,2.128950119E0,9.367050171E0
1.186320266E1,1.930050135E0,2.137950182E0,1.027695084E1
1.188278260E1,1.804950118E0,1.908000112E0,1.080405045E1
1.190236235E1,1.422000051E0,1.735950112E0,1.159905052E1
1.192193641E1,5.410500169E-1,2.071050167E0,1.252800083E1
1.194151282E1,-4.830000103E-1,2.626950026E0,1.275795078E1
1.196109806E1,-6.169500351E-1,2.559000015E0,1.268100071E1
1.198068139E1,9.105000645E-2,1.803000093E0,1.339005089E1
1.200026662E1,7.519500256E-1,1.075049996E0,1.420395088E1
1.201985224E1,1.144950032E0,7.489500642E-1,1.377300072E1
1.203943500E1,1.461000085E0,7.210500240E-1,1.242195034E1
1.205901370E1,1.747950077E0,6.919500232E-1,1.109100056E1
1.207858295E1,1.891950130E0,5.770500302E-1,1.017195034E1
1.209814825E1,1.758000135E0,4.429500103E-1,9.636000633E0
1.211770948E1,1.306950092E0,3.180000186E-1,9.243000031E0
1.213727558E1,7.330500484E-1,3.280500174E-1,8.668050766E0
1.215684736E1,2.730000019E-1,5.580000281E-1,7.882950306E0
1.217641630E1,5.295000225E-2,9.220500588E-1,7.192950249E0
1.219598951E1,5.295000225E-2,1.294950008E0,6.820050240E0
1.221556213E1,1.870500147E-1,1.582950115E0,6.657000542E0
1.223513353E1,3.210000098E-1,1.707000136E0,6.493950367E0
1.225471750E1,3.400500119E-1,1.717050076E0,6.292950153E0
1.227429926E1,2.639999986E-1,1.812000036E0,6.111000061E0
1.229388416E1,1.680000126E-1,2.089950085E0,6.091950417E0
1.231346939E1,-2.295000106E-2,2.482950211E0,6.523050308E0
1.233305380E1,-2.239500135E-1,2.788950205E0,7.423050404E0
1.235263896E1,-7.995000482E-2,2.731950045E0,8.295000076E0
1.237222487E1,4.450500309E-1,2.434950113E0,8.956050873E0
1.239180640E1,9.430500269E-1,2.109000206E0,9.625950813E0
1.241138580E1,1.048950076E0,1.774050117E0,1.039200020E1
1.243096634E1,7.620000243E-1,1.458000064E0,1.122495079E1
1.245055102E1,3.310500085E-1,1.237950087E0,1.221195030E1
1.247013224E1,-6.105000153E-2,1.171050072E0,1.307400036E1
1.248971184E1,-3.199500144E-1,1.314000010E0,1.326495075E1
1.250928783E1,-4.630500078E-1,1.678050041E0,1.273800087E1
1.252886108E1,-6.640500426E-1,2.263050079E0,1.203900051E1
1.254843962E1,-8.749500513E-1,2.875950098E0,1.160805035E1
1.256802054E1,-8.560500145E-1,3.229950190E0,1.150305080E1
1.258760361E1,-6.640500426E-1,3.172050238E0,1.146495056E1
1.260718545E1,-5.110500455E-1,2.827950239E0,1.117695045E1
1.262676886E1,-5.500500202E-1,2.502000093E0,1.057395077E1
1.264634910E1,-7.320000529E-1,2.338950157E0,9.865050316E0
1.266593037E1,-8.749500513E-1,2.281949997E0,9.291000366E0
1.268550821E1,-9.420000315E-1,2.290950060E0,8.812050819E0
1.270508752E1,-9.900000691E-1,2.290950060E0,8.352000237E0
1.272466944E1,-9.610500336E-1,2.176050186E0,7.912050247E0
1.274425344E1,-8.460000157E-1,2.041949987E0,7.500000477E0
1.276383335E1,-7.410000563E-1,2.032950163E0,7.144950390E0
1.278341827E1,-7.030500174E-1,2.119050026E0,6.858000278E0
1.280299434E1,-6.450000405E-1,2.196000099E0,6.657000542E0
1.282257188E1,-6.070500016E-1,2.233950138E0,6.600000381E0
1.284215098E1,-5.879999995E-1,2.242950201E0,6.705000401E0
1.286172819E1,-4.830000103E-1,2.205000162E0,6.895950317E0
1.288131125E1,-2.050500065E-1,2.119050026E0,7.174050331E0
1.290089218E1,1.099500060E-1,2.014050007E0,7.480950356E0
1.292047425E1,2.160000056E-1,1.956000090E0,7.816050529E0
1.294005802E1,8.205000311E-2,2.004000187E0,8.236949921E0
1.295964225E1,-1.660500020E-1,2.167050123E0,8.773950577E0
1.297922135E1,-3.100500107E-1,2.578950167E0,9.597000122E0
1.299880021E1,-1.759500057E-1,3.316050053E0,1.088100052E1
1.301837706E1,4.450500309E-1,3.996000290E0,1.246095085E1
1.303795837E1,1.336050034E0,4.389000416E0,1.369605064E1
1.305754966E1,1.719000101E0,4.734000206E0,1.427100086E1
1.307713337E1,1.681050062E0,4.839000225E0,1.446195030E1
1.309671398E1,1.987050056E0,4.330950260E0,1.430895042E1
1.311629245E1,2.398950100E0,3.613050222E0,1.347600079E1
1.313586914E1,2.208000183E0,3.238950253E0,1.197195053E1
1.315544258E1,1.422000051E0,3.316050053E0,1.038300037E1
1.317502413E1,5.599500537E-1,3.583950281E0,9.291000366E0
1.319459373E1,-4.200000316E-2,3.727950096E0,8.908050537E0
1.321417034E1,-2.430000156E-1,3.631950140E0,8.850000381E0
1.323374726E1,-4.200000316E-2,3.316050053E0,8.725950241E0
1.325332973E1,3.109500110E-1,2.952000141E0,8.476950645E0
1.327290695E1,5.890500546E-1,2.740950108E0,8.074049950E0
1.329248101E1,6.559500098E-1,2.740950108E0,7.509000301E0
1.331205822E1,4.840500355E-1,2.799000025E0,6.954000473E0
1.333163237E1,1.489500105E-1,2.770050049E0,6.628050327E0
1.335120962E1,-1.279500127E-1,2.617050171E0,6.445950508E0
1.337078754E1,-2.430000156E-1,2.464050055E0,6.331050396E0
1.339036600E1,-2.719500065E-1,2.445000172E0,6.379050255E0
1.340994008E1,-2.430000156E-1,2.530950069E0,6.600000381E0
1.342950969E1,-9.000000358E-2,2.569050074E0,6.934950352E0
1.344907770E1,2.160000056E-1,2.464050055E0,7.356000423E0
1.346864041E1,5.989500284E-1,2.263050079E0,7.854000568E0
1.348820847E1,8.959500194E-1,2.052000046E0,8.362050056E0
1.350778416E1,9.720000625E-1,1.956000090E0,8.812050819E0
1.352736102E1,9.630000591E-1,1.956000090E0,9.175950050E0
1.354693370E1,1.030050039E0,1.984950066E0,9.492000580E0
1.356650632E1,1.057950020E0,2.080950022E0,9.979950905E0
1.358607552E1,9.240000248E-1,2.242950201E0,1.084200096E1
1.360565337E1,6.180000305E-1,2.310000181E0,1.186695099E1
1.362523300E1,1.390500069E-1,2.301000118E0,1.252800083E1
1.364480716E1,-4.920000136E-1,2.530950069E0,1.269105053E1
1.366439024E1,-1.027950048E0,2.980950117E0,1.276695061E1
1.368396536E1,-9.900000691E-1,3.211050034E0,1.301595020E1
1.370353944E1,-5.110500455E-1,3.181950092E0,1.321695042E1
1.372311606E1,-5.205000192E-2,3.028950214E0,1.296795082E1
1.374269421E1,2.350500077E-1,2.722050190E0,1.208700085E1
1.376226537E1,2.440500110E-1,2.434950113E0,1.082295036E1
1.378185236E1,-4.050000105E-3,2.349000216E0,9.492000580E0
1.380143584E1,-3.769500256E-1,2.368050098E0,8.275950432E0
1.382102107E1,-7.890000343E-1,2.377950191E0,7.375050545E0
1.384060530E1,-1.162050009E0,2.368050098E0,6.916050434E0
1.386018285E1,-1.468950033E0,2.377950191E0,6.810000420E0
1.387975823E1,-1.660050035E0,2.445000172E0,6.943950176E0
1.389934039E1,-1.680000067E0,2.512050152E0,7.212000370E0
1.391892419E1,-1.498050094E0,2.473050117E0,7.414050579E0
1.393851249E1,-1.219950080E0,2.338950157E0,7.624050140E0
1.395809735E1,-1.018950105E0,2.109000206E0,7.939950466E0
1.397768289E1,-9.810000658E-1,1.726050138E0,8.266050339E0
1.399726113E1,-1.009050012E0,1.228050113E0,8.581950188E0
1.401684476E1,-8.560500145E-1,7.210500240E-1,8.821050644E0
1.403643131E1,-5.879999995E-1,2.989500165E-1,8.764050484E0
1.405601406E1,-4.150500298E-1,4.095000029E-2,8.419050217E0
1.407559214E1,-5.110500455E-1,9.795000404E-2,8.083950043E0
1.409517309E1,-9.810000658E-1,4.999500215E-1,8.131950378E0
1.411475252E1,-1.708050132E0,1.161000013E0,8.686950684E0
1.413432483E1,-2.340000153E0,1.966050148E0,9.625950813E0
1.415390323E1,-2.608950138E0,2.703000069E0,1.077495098E1
1.417348045E1,-2.484000206E0,3.229950190E0,1.194405079E1
1.419306302E1,-2.407950163E0,3.823950291E0,1.280595016E1
1.421264668E1,-2.350050211E0,4.312050343E0,1.329405022E1
1.423223777E1,-1.785000086E0,4.024950027E0,1.386900043E1
1.425182332E1,-8.370000124E-1,3.268050194E0,1.456800079E1
1.427141223E1,4.950000439E-3,2.703000069E0,1.464405060E1
1.429099676E1,4.450500309E-1,2.434950113E0,1.374405098E1
1.431058539E1,3.589500189E-1,2.473050117E0,1.228800011E1
1.433016970E1,-3.195000067E-2,2.751000166E0,1.090905094E1
1.434974938E1,-4.920000136E-1,2.952000141E0,9.846000671E0
1.436932794E1,-8.940000534E-1,2.818050146E0,9.003000259E0
1.438891032E1,-1.171950102E0,2.482950211E0,8.256000519E0
1.440849153E1,-1.210050106E0,2.242950201E0,7.596000195E0
1.442806909E1,-1.009050012E0,2.215050220E0,7.050000191E0
1.444764334E1,-7.410000563E-1,2.320050001E0,6.637950420E0
1.446721750E1,-5.590500236E-1,2.358000040E0,6.312000275E0
1.448679659E1,-5.779500008E-1,2.263050079E0,6.102000237E0
1.450637997E1,-8.080500364E-1,2.089950085E0,6.006000519E0
1.452597160E1,-1.134000063E0,1.975050092E0,5.967000484E0
1.454556112E1,-1.372950077E0,1.956000090E0,6.082050323E0
1.456515251E1,-1.297050118E0,1.936950088E0,6.561000347E0
1.458473936E1,-9.040500522E-1,1.812000036E0,7.404000282E0
1.460433036E1,-3.769500256E-1,1.554000020E0,8.389950752E0
1.462392088E1,1.680000126E-1,1.305000067E0,9.195000648E0
1.464351379E1,6.559500098E-1,1.152000070E0,9.721950531E0
1.466310700E1,1.048950076E0,1.189950109E0,1.007595062E1
1.468270425E1,1.192050099E0,1.477050066E0,1.042095089E1
1.470229863E1,1.039050102E0,1.908000112E0,1.102395058E1
1.472189164E1,7.519500256E-1,2.167050123E0,1.175205040E1
1.474148727E1,4.360500276E-1,2.290950060E0,1.206795025E1
1.476107967E1,-3.195000067E-2,2.731950045E0,1.203000069E1
1.478067105E1,-3.679500222E-1,3.393000126E0,1.212600040E1
1.480026704E1,-2.530499995E-1,3.843000174E0,1.237500095E1
1.481986210E1,1.099500060E-1,4.044000149E0,1.239405060E1
1.483946332E1,4.260000288E-1,4.044000149E0,1.193400097E1
1.485906394E1,5.320500135E-1,3.852000237E0,1.111995029E1
1.487866362E1,3.019500077E-1,3.661050081E0,1.015305042E1
1.489826577E1,-1.189500093E-1,3.517050266E0,9.214050293E0
1.491786114E1,-4.729500115E-1,3.297000170E0,8.371050835E0
1.493744824E1,-6.930000186E-1,3.000000238E0,7.749000549E0
1.495703308E1,-8.460000157E-1,2.779950142E0,7.404000282E0
1.497662077E1,-9.130500555E-1,2.655000210E0,7.336950302E0
1.499620598E1,-8.940000534E-1,2.598000050E0,7.489950180E0
1.501578904E1,-8.749500513E-1,2.502000093E0,7.786950588E0
1.503537734E1,-8.850000501E-1,2.290950060E0,8.122050285E0
1.505496070E1,-7.789500356E-1,1.936950088E0,8.275950432E0
1.507455276E1,-5.299500227E-1,1.602000117E0,8.151000023E0
1.509414498E1,-2.719500065E-1,1.525050044E0,7.902000427E0
1.511372999E1,-6.105000153E-2,1.639950037E0,7.624050140E0
1.513331493E1,1.200000048E-1,1.735950112E0,7.347000122E0
1.515290470E1,2.350500077E-1,1.717050076E0,7.087950230E0
1.517248965E1,1.390500069E-1,1.726050138E0,6.877050400E0
1.519207058E1,-2.140500098E-1,1.888950109E0,6.849000454E0
1.521164474E1,-5.879999995E-1,2.119050026E0,7.251000404E0
1.523122598E1,-9.420000315E-1,2.377950191E0,8.151000023E0
1.525080545E1,-1.488000035E0,2.788950205E0,9.511050224E0
1.527039000E1,-1.909950137E0,3.172050238E0,1.111005020E1
1.528997285E1,-1.938000083E0,3.345000267E0,1.242195034E1
1.530954977E1,-2.071950197E0,3.642000198E0,1.303500080E1
1.532913070E1,-2.436000109E0,4.054049969E0,1.316895103E1
1.534871008E1,-2.475000143E0,4.140000343E0,1.343805027E1
1.536829133E1,-1.717950106E0,3.910050154E0,1.372500038E1
1.538787033E1,-5.110500455E-1,3.487950087E0,1.340895081E1
1.540744911E1,2.539499998E-1,3.000000238E0,1.261395073E1
1.542702509E1,2.639999986E-1,2.808000088E0,1.180995083E1
1.544660325E1,-7.095000148E-2,2.856000185E0,1.120605087E1
1.546618880E1,-2.430000156E-1,2.703000069E0,1.077495098E1
1.548577307E1,-2.430000156E-1,2.301000118E0,1.035405064E1
1.550535592E1,-1.660500020E-1,1.947000146E0,9.750000000E0
1.552493584E1,-2.295000106E-2,1.860000134E0,8.926950455E0
1.554452015E1,1.960500032E-1,1.993950129E0,7.939950466E0
1.556410137E1,3.880500197E-1,2.242950201E0,6.982950211E0
1.558368299E1,4.650000334E-1,2.502000093E0,6.178050518E0
1.560326514E1,3.589500189E-1,2.761050224E0,5.671050072E0
1.562284885E1,1.200000048E-1,3.037950039E0,5.497950077E0
1.564243247E1,-1.279500127E-1,3.259050131E0,5.508000374E0
1.566201648E1,-2.809500098E-1,3.364050150E0,5.613000393E0
1.568160849E1,-3.390000165E-1,3.412050247E0,5.824050426E0
1.570120086E1,-3.199500144E-1,3.364050150E0,6.207000256E0
1.572079864E1,-2.239500135E-1,3.268050194E0,6.790950298E0
1.574039740E1,-4.200000316E-2,3.268050194E0,7.432950497E0
1.575999779E1,1.579500139E-1,3.382950068E0,8.131950378E0
1.577960230E1,4.260000288E-1,3.487950087E0,8.841000557E0
1.579920360E1,6.750000119E-1,3.535950184E0,9.540000916E0
1.581880237E1,7.230000496E-1,3.679950237E0,1.037295055E1
1.583839431E1,5.320500135E-1,3.871950150E0,1.146495056E1
1.585799286E1,3.310500085E-1,3.910050154E0,1.262400055E1
1.587758948E1,3.109500110E-1,3.958050251E0,1.324605083E1
1.589718609E1,4.170000255E-1,4.159049988E0,1.337100029E1
1.591678331E1,6.079500318E-1,4.330950260E0,1.354305077E1
1.593637805E1,7.810500264E-1,4.437000275E0,1.367700100E1
1.595597184E1,8.089500666E-1,4.321950436E0,1.349505043E1
1.597556507E1,7.519500256E-1,3.871950150E0,1.274805069E1
1.599515738E1,6.180000305E-1,3.402000189E0,1.154100037E1
1.601475186E1,4.170000255E-1,3.153000116E0,1.042095089E1
1.603434630E1,1.870500147E-1,3.019050121E0,9.454050064E0
1.605394536E1,-1.090500057E-1,2.914050102E0,8.505000114E0
1.607354044E1,-5.689499974E-1,2.923050165E0,7.585950375E0
1.609313868E1,-1.048050046E0,2.962050200E0,6.820050240E0
1.611273646E1,-1.306050062E0,2.923050165E0,6.351000309E0
1.613233985E1,-1.258050084E0,2.895000219E0,6.159000397E0
1.615193768E1,-1.066950083E0,2.904000044E0,6.102000237E0
1.617153521E1,-9.420000315E-1,2.932950258E0,6.073050499E0
1.619113307E1,-9.420000315E-1,2.989950180E0,6.102000237E0
1.621073068E1,-1.009050012E0,3.076950073E0,6.159000397E0
1.623032822E1,-1.000050068E0,3.085950136E0,6.303000450E0
1.624993040E1,-8.560500145E-1,3.048000097E0,6.685950279E0
1.626952823E1,-6.259500384E-1,3.028950214E0,7.288950443E0
1.628911592E1,-3.199500144E-1,2.962050200E0,7.834950447E0
1.630870446E1,-1.305000018E-2,2.895000219E0,8.122050285E0
1.632829899E1,5.295000225E-2,2.962050200E0,8.227950096E0
1.634789246E1,-7.995000482E-2,3.153000116E0,8.323050499E0
1.636747778E1,-2.620500028E-1,3.334950209E0,8.629950523E0
1.638706484E1,-4.630500078E-1,3.517050266E0,9.175950050E0
1.640665900E1,-5.299500227E-1,3.775950193E0,9.999000549E0
1.642625654E1,-2.719500065E-1,4.072950363E0,1.106205082E1
1.644585840E1,2.160000056E-1,4.350000381E0,1.206795025E1
1.646546116E1,3.690000176E-1,4.627950191E0,1.264305019E1
1.648506303E1,6.195000187E-2,4.810050011E0,1.280595016E1
1.650466510E1,-9.000000358E-2,4.675950050E0,1.306395054E1
1.652426480E1,2.730000019E-1,4.197000027E0,1.375395107E1
1.654386578E1,9.049500227E-1,3.613050222E0,1.410795021E1
1.656346548E1,1.297950029E0,3.259050131E0,1.342800045E1
1.658306262E1,1.135050058E0,3.325950146E0,1.219305038E1
1.660265808E1,7.810500264E-1,3.603000164E0,1.095705032E1
1.662225562E1,6.180000305E-1,3.871950150E0,9.750000000E0
1.664185562E1,6.079500318E-1,4.033950329E0,8.830950737E0
1.666145584E1,6.660000086E-1,3.862050295E0,8.485950470E0
1.668105923E1,6.940500140E-1,3.421050072E0,8.314050674E0
1.670065562E1,5.700000525E-1,3.096000195E0,7.921050549E0
1.672025000E1,3.589500189E-1,2.971050024E0,7.288950443E0
1.673983861E1,2.160000056E-1,3.028950214E0,6.619050503E0
1.675943186E1,1.579500139E-1,3.192000151E0,6.091950417E0
1.677902762E1,1.290000081E-1,3.297000170E0,5.766000271E0
1.679862856E1,9.105000645E-2,3.229950190E0,5.680050373E0
1.681823124E1,3.405000269E-2,3.096000195E0,5.794950485E0
1.683783563E1,-9.900000691E-2,3.048000097E0,5.977050304E0
1.685743586E1,-1.950000077E-1,3.076950073E0,6.207000256E0
1.687703842E1,-6.105000153E-2,3.133950233E0,6.667050362E0
1.689664209E1,2.440500110E-1,3.201000214E0,7.519050121E0
1.691624510E1,5.599500537E-1,3.220050097E0,8.601000786E0
1.693585010E1,8.290500641E-1,3.133950233E0,9.568050385E0
1.695545097E1,9.430500269E-1,3.019050121E0,1.021005058E1
1.697505937E1,7.999500632E-1,3.058050156E0,1.059300041E1
1.699466913E1,5.130000114E-1,3.153000116E0,1.096695042E1
1.701428142E1,4.069500268E-1,3.085950136E0,1.135005093E1
1.703389353E1,4.740000367E-1,2.923050165E0,1.154100037E1
1.705350708E1,3.780000210E-1,2.971050024E0,1.142595100E1
1.707311714E1,1.099500060E-1,3.286950111E0,1.114905071E1
1.709273006E1,-1.189500093E-1,3.699000120E0,1.095705032E1
1.711234520E1,-1.469999999E-1,3.805050135E0,1.105305099E1
1.713196144E1,1.500000060E-2,3.277950048E0,1.134000015E1
1.715157596E1,2.400000021E-2,2.539950132E0,1.135005093E1
1.717118729E1,-3.199500144E-1,2.157000065E0,1.090005016E1
1.719079505E1,-8.560500145E-1,2.185950041E0,1.024800014E1
1.721040513E1,-1.267950058E0,2.464050055E0,9.655050278E0
1.723001137E1,-1.468950033E0,2.808000088E0,9.136950493E0
1.724961814E1,-1.450050116E0,3.000000238E0,8.734950066E0
1.726922327E1,-1.276950002E0,3.019050121E0,8.410050392E0
1.728883010E1,-1.075950027E0,2.989950180E0,8.083950043E0
1.730843894E1,-8.940000534E-1,2.895000219E0,7.663050175E0
1.732804518E1,-8.080500364E-1,2.779950142E0,7.087950230E0
1.734764426E1,-9.229500294E-1,2.847000122E0,6.619050503E0
1.736725039E1,-1.153050065E0,3.115050077E0,6.504000187E0
1.738685287E1,-1.086000085E0,3.229950190E0,6.561000347E0
1.740645710E1,-7.219500542E-1,3.085950136E0,6.810000420E0
1.742605441E1,-4.249500334E-1,2.914050102E0,7.414050579E0
1.744565164E1,-2.620500028E-1,2.770050049E0,8.236949921E0
1.746524764E1,-5.205000192E-2,2.617050171E0,8.887950897E0
1.748484086E1,4.260000288E-1,2.425050020E0,9.385950089E0
1.750444178E1,1.078050017E0,2.205000162E0,9.894000053E0
1.752404046E1,1.594950080E0,2.089950085E0,1.027695084E1
1.754363959E1,1.738050103E0,2.281949997E0,1.056405067E1
1.756324083E1,1.432050109E0,2.818050146E0,1.097595024E1
1.758284229E1,1.011000037E0,3.354000092E0,1.153200054E1
1.760244544E1,8.290500641E-1,3.613050222E0,1.193400097E1
1.762205278E1,7.620000243E-1,3.814050198E0,1.200105095E1
1.764165226E1,7.900500298E-1,3.900000095E0,1.211595058E1
1.766125439E1,1.173000097E0,3.766050100E0,1.260405064E1
1.768086084E1,1.911000133E0,3.670050144E0,1.310205078E1
1.770046916E1,2.581050158E0,3.441000223E0,1.307400036E1
1.772007583E1,2.763000250E0,3.028950214E0,1.224000072E1
1.773967588E1,2.361000061E0,2.770050049E0,1.093800068E1
1.775928142E1,1.681050062E0,2.799000025E0,9.789000511E0
1.777888849E1,1.048950076E0,3.028950214E0,8.983950615E0
1.779849058E1,5.220000148E-1,3.277950048E0,8.371050835E0
1.781809180E1,9.105000645E-2,3.412050247E0,7.816050529E0
1.783769894E1,-9.900000691E-2,3.364050150E0,7.393950462E0
1.785730450E1,1.390500069E-1,3.201000214E0,6.973050117E0
1.787690266E1,6.850500107E-1,3.037950039E0,6.436950207E0
1.789650257E1,1.125000000E0,2.943000078E0,5.824050426E0
1.791610142E1,1.164000034E0,2.914050102E0,5.469000340E0
1.793570384E1,8.380500674E-1,2.923050165E0,5.488950253E0
1.795530846E1,3.400500119E-1,2.952000141E0,5.641950130E0
1.797491094E1,-7.095000148E-2,2.971050024E0,5.938950062E0
1.799451670E1,-2.719500065E-1,3.048000097E0,6.436950207E0
1.801411830E1,-3.390000165E-1,3.286950111E0,7.078050137E0
1.803371424E1,-3.870000243E-1,3.631950140E0,7.930950165E0
1.805330450E1,-4.060500264E-1,3.843000174E0,8.782950401E0
1.807289221E1,-2.340000123E-1,3.775950193E0,9.358050346E0
1.809247681E1,9.105000645E-2,3.690000057E0,1.005705070E1
1.811205519E1,1.200000048E-1,3.996000290E0,1.131195068E1
1.813163927E1,-2.430000156E-1,4.686000347E0,1.276695061E1
1.815121950E1,-4.150500298E-1,5.145000458E0,1.346595097E1
1.817080202E1,-7.995000482E-2,4.992000103E0,1.319805050E1
1.819038419E1,3.780000210E-1,4.570950031E0,1.257600021E1
1.820996910E1,4.260000288E-1,4.389000416E0,1.198200035E1
1.822955271E1,-4.050000105E-3,4.513050079E0,1.149300098E1
1.824913804E1,-5.110500455E-1,4.590000153E0,1.104300022E1
1.826872379E1,-8.179500103E-1,4.389000416E0,1.045905018E1
1.828831240E1,-1.018950105E0,4.033950329E0,9.664050102E0
1.830789611E1,-1.239000082E0,3.757050276E0,8.830950737E0
1.832748412E1,-1.411050081E0,3.670050144E0,8.161050797E0
1.834706944E1,-1.488000035E0,3.747000217E0,7.806000233E0
1.836665396E1,-1.392000079E0,3.939000130E0,7.806000233E0
1.838623679E1,-1.095000029E0,4.063050270E0,7.921050549E0
1.840582942E1,-7.890000343E-1,4.024950027E0,7.891950607E0
1.842541956E1,-6.070500016E-1,3.852000237E0,7.690950394E0
1.844500503E1,-6.259500384E-1,3.699000120E0,7.441950321E0
1.846458998E1,-8.269500136E-1,3.679950237E0,7.347000122E0
1.848417654E1,-1.038000107E0,3.757050276E0,7.384950161E0
1.850376606E1,-8.850000501E-1,3.747000217E0,7.432950497E0
1.852335616E1,-1.860000044E-1,3.603000164E0,7.404000282E0
1.854294600E1,8.860500455E-1,3.460050106E0,7.165050507E0
1.856253830E1,1.662000060E0,3.373950243E0,6.714000225E0
1.858212783E1,1.555950046E0,3.382950068E0,6.427050114E0
1.860171499E1,7.230000496E-1,3.450000048E0,6.609000206E0
1.862130536E1,-2.910000086E-1,3.535950184E0,7.222050190E0
1.864090442E1,-1.018950105E0,3.736950159E0,8.094000816E0
1.866050257E1,-1.239000082E0,4.111050129E0,9.214050293E0
1.868010071E1,-1.038000107E0,4.513050079E0,1.051695061E1
1.869970164E1,-8.179500103E-1,4.876950264E0,1.161795044E1
1.871930625E1,-8.850000501E-1,5.136000156E0,1.194405079E1
1.873890747E1,-1.018950105E0,5.251050472E0,1.156995010E1
1.875850263E1,-9.130500555E-1,5.374950409E0,1.135005093E1
1.877808437E1,-4.920000136E-1,5.605050087E0,1.134000015E1
1.879766373E1,-1.305000018E-2,5.623950481E0,1.087095070E1
1.881724834E1,1.489500105E-1,5.260050297E0,1.013400078E1
1.883683056E1,-1.469999999E-1,4.887000084E0,9.597000122E0
1.885641117E1,-7.030500174E-1,4.780950069E0,9.444000244E0
1.887599057E1,-1.324950099E0,4.915050030E0,9.577950478E0
1.889557234E1,-1.747050047E0,5.020950317E0,9.625950813E0
1.891515089E1,-1.804050088E0,4.915050030E0,9.223950386E0
1.893472630E1,-1.660050035E0,4.780950069E0,8.410050392E0
1.895430629E1,-1.507050037E0,4.705049992E0,7.537950516E0
1.897388785E1,-1.402050018E0,4.686000347E0,6.934950352E0
1.899347275E1,-1.324950099E0,4.675950050E0,6.561000347E0
1.901305706E1,-1.287000060E0,4.590000153E0,6.274050236E0
1.903263668E1,-1.459050059E0,4.446000099E0,6.025050163E0
1.905221697E1,-1.870950103E0,4.378950119E0,5.785050392E0
1.907179790E1,-2.416950226E0,4.494000435E0,5.680050373E0
1.909138540E1,-2.866950035E0,4.638000011E0,5.794950485E0
1.911097334E1,-3.040050030E0,4.714050293E0,6.082050323E0
1.913056450E1,-2.992050171E0,4.734000206E0,6.532950401E0
1.915015098E1,-2.896050215E0,4.675950050E0,7.144950390E0
1.916973528E1,-2.761950016E0,4.590000153E0,7.825050354E0
1.918932175E1,-2.608950138E0,4.618950367E0,8.389950752E0
1.920890076E1,-2.512950182E0,4.896000385E0,8.850000381E0
1.922848476E1,-2.580000162E0,5.461050034E0,9.348000526E0
1.924806390E1,-2.818950176E0,5.979000092E0,9.894000053E0
1.926764692E1,-3.222000122E0,6.093000412E0,1.028700066E1
1.928723066E1,-3.796050072E0,5.911050320E0,1.058400059E1
1.930681283E1,-4.486050129E0,5.797050476E0,1.092795086E1
1.932638936E1,-5.011950016E0,5.824950218E0,1.115805054E1
1.934597034E1,-5.041050434E0,5.739000320E0,1.099500084E1
1.936554813E1,-4.600950241E0,5.538000107E0,1.044000053E1
1.938512698E1,-3.997050285E0,5.404050350E0,9.703050613E0
1.940470504E1,-3.643050194E0,5.365950108E0,9.051000595E0
1.942428596E1,-3.748050213E0,5.385000229E0,8.572050095E0
1.944386381E1,-3.988050222E0,5.278950214E0,8.266050339E0
1.946344382E1,-3.997050285E0,5.068950176E0,8.083950043E0
1.948302668E1,-3.844050169E0,4.915050030E0,7.864050388E0
1.950260730E1,-3.787050247E0,4.828950405E0,7.519050121E0
1.952219036E1,-3.892050266E0,4.771950245E0,6.954000473E0
1.954176912E1,-4.026000023E0,4.743000031E0,6.322050095E0
1.956135089E1,-4.170000076E0,4.780950069E0,5.794950485E0
1.958092842E1,-4.351950169E0,4.924950123E0,5.641950130E0
1.960051066E1,-4.408950329E0,5.011050224E0,5.947950363E0
1.962008781E1,-4.390050411E0,5.125950336E0,6.216000080E0
1.963966657E1,-4.467000008E0,5.269950390E0,6.216000080E0
1.971795842E1,-3.862950087E0,4.207050323E0,8.533950806E0
1.973754480E1,-3.739050150E0,4.264050007E0,8.485950470E0
1.975712704E1,-3.508950233E0,4.369950294E0,8.323050499E0
1.977670982E1,-3.289050102E0,4.465050220E0,8.151000023E0
1.979629349E1,-3.106950045E0,4.513050079E0,8.074049950E0
1.981587657E1,-2.944050074E0,4.542000294E0,8.103000641E0
1.983545903E1,-2.781000137E0,4.579950333E0,8.266050339E0
1.985503618E1,-2.608950138E0,4.579950333E0,8.476950645E0
1.987461469E1,-2.416950226E0,4.474950314E0,8.638950348E0
1.989419224E1,-2.282999992E0,4.312050343E0,8.707050323E0
1.991377162E1,-2.245050192E0,4.177950382E0,8.716050148E0
1.993335562E1,-2.245050192E0,4.081950188E0,8.764050484E0
1.995293747E1,-2.215950012E0,3.976950169E0,8.935950279E0
1.997252516E1,-2.071950197E0,3.814050198E0,9.184950829E0
1.999210906E1,-1.900050044E0,3.603000164E0,9.406050682E0
2.001168976E1,-1.785000086E0,3.430950165E0,9.520950317E0
2.003127008E1,-1.660050035E0,3.211050034E0,9.588000298E0
2.005085716E1,-1.372950077E0,2.836950064E0,9.616050720E0
2.007044539E1,-9.709500670E-1,2.445000172E0,9.625950813E0
2.009002761E1,-7.030500174E-1,2.281949997E0,9.682950020E0
2.010960884E1,-6.450000405E-1,2.386950016E0,9.856050491E0
2.012918230E1,-6.550500393E-1,2.491950035E0,1.003800011E1
2.014875308E1,-5.689499974E-1,2.397000074E0,1.003800011E1
2.016832818E1,-4.150500298E-1,2.119050026E0,9.808050156E0
2.018790396E1,-3.769500256E-1,1.851000071E0,9.549000740E0
2.020748642E1,-5.689499974E-1,1.765050054E0,9.529950142E0
2.022706365E1,-9.040500522E-1,1.879950047E0,9.682950020E0
2.024663688E1,-1.171950102E0,2.041949987E0,9.730950356E0
2.026621320E1,-1.230000019E0,2.128950119E0,9.693000793E0
2.028579650E1,-1.162050009E0,2.119050026E0,9.597000122E0
2.030537781E1,-1.038000107E0,2.032950163E0,9.385950089E0
2.032496020E1,-8.749500513E-1,1.918050051E0,9.271950722E0
2.034453845E1,-6.739500165E-1,1.726050138E0,9.454050064E0
2.036412453E1,-3.580500185E-1,1.410000086E0,9.856050491E0
2.038371006E1,6.195000187E-2,9.600000381E-1,1.019100094E1
2.040329406E1,5.509500504E-1,4.620000124E-1,1.036305046E1
2.042287929E1,9.150000215E-1,1.270500124E-1,1.039200020E1
2.044246277E1,1.057950020E0,-6.000000052E-3,1.027695084E1
2.046204701E1,1.000950098E0,-2.505000122E-2,1.006605053E1
2.048163415E1,8.380500674E-1,1.200000010E-2,9.865050316E0
2.050121967E1,5.890500546E-1,9.795000404E-2,9.721950531E0
2.052080575E1,2.639999986E-1,2.509500086E-1,9.645000458E0
2.054038512E1,-4.200000316E-2,4.330500066E-1,9.540000916E0
2.055997465E1,-3.010500073E-1,6.060000062E-1,9.262050629E0
2.057956021E1,-6.550500393E-1,7.590000629E-1,8.956050873E0
2.059914973E1,-1.171950102E0,9.979500771E-1,8.994000435E0
2.061873866E1,-1.708050132E0,1.390950084E0,9.175950050E0
2.063832676E1,-2.071950197E0,1.755000114E0,8.869050026E0
2.065790704E1,-2.263950109E0,1.947000146E0,8.332950592E0
2.067749719E1,-2.340000153E0,2.071050167E0,8.199000359E0
2.069708119E1,-2.350050211E0,2.137950182E0,8.323050499E0
2.071666213E1,-2.331000090E0,2.100000143E0,8.332950592E0
2.073624735E1,-2.302050114E0,2.041949987E0,8.314050674E0
2.075582942E1,-2.254050016E0,2.071050167E0,8.362050056E0
2.077541225E1,-2.110949993E0,2.148000002E0,8.437950134E0
2.079499441E1,-1.870950103E0,2.185950041E0,8.476950645E0
2.081457771E1,-1.564950109E0,2.185950041E0,8.389950752E0
2.083415432E1,-1.276950002E0,2.167050123E0,8.170050621E0
2.085372918E1,-1.105050087E0,2.176050186E0,7.891950607E0
2.087329994E1,-1.075950027E0,2.215050220E0,7.672050476E0
2.089286976E1,-1.249050021E0,2.272050142E0,7.672050476E0
2.091244298E1,-1.411050081E0,2.290950060E0,7.969050407E0
2.093202072E1,-1.267950058E0,2.148000002E0,8.332950592E0
2.095159700E1,-9.420000315E-1,1.860000134E0,8.533950806E0
2.097117794E1,-8.850000501E-1,1.717050076E0,8.620050430E0
2.099076500E1,-1.335000038E0,1.870050073E0,8.802000046E0
2.101035339E1,-2.082000017E0,2.119050026E0,9.252000809E0
2.102993614E1,-2.733000040E0,2.281949997E0,9.922950745E0
2.104951831E1,-3.058950186E0,2.310000181E0,1.040205002E1
2.106910232E1,-3.202050209E0,2.329950094E0,1.047795010E1
2.108868502E1,-3.528000116E0,2.521050215E0,1.036305046E1
2.110826662E1,-3.835050106E0,2.569050074E0,1.063200092E1
2.112784785E1,-3.901950121E0,2.539950132E0,1.134000015E1
2.114742939E1,-4.264950275E0,2.856000185E0,1.196295071E1
2.116701454E1,-4.878000259E0,2.674050093E0,1.226895046E1
2.118659956E1,-5.376000404E0,2.032950163E0,1.204905033E1
2.120618142E1,-5.854950428E0,1.899000049E0,1.121595097E1
2.122576720E1,-5.980050087E0,2.041949987E0,1.015305042E1
2.124535033E1,-5.673000336E0,2.089950085E0,9.328950882E0
2.126493187E1,-5.137050152E0,1.993950129E0,8.841000557E0
2.128451186E1,-4.504950047E0,1.851000071E0,8.428950310E0
2.130409186E1,-3.873000145E0,1.687950134E0,7.978950500E0
2.132367178E1,-3.403950214E0,1.774050117E0,7.633950233E0
2.134325430E1,-3.106950045E0,2.157000065E0,7.366050243E0
2.136283802E1,-2.752050161E0,2.502000093E0,7.183950424E0
2.138242224E1,-2.263950109E0,2.607000113E0,7.251000404E0
2.140200345E1,-1.881000042E0,2.607000113E0,7.336950302E0
2.142158346E1,-1.717950106E0,2.665050030E0,7.155000210E0
2.144116654E1,-1.699050069E0,2.740950108E0,6.829050541E0
2.146075178E1,-1.680000067E0,2.779950142E0,6.571050167E0
2.148033424E1,-1.680000067E0,2.808000088E0,6.445950508E0
2.149992045E1,-1.717950106E0,2.914050102E0,6.456000328E0
2.151949945E1,-1.737000108E0,3.058050156E0,6.552000523E0
2.153907738E1,-1.717950106E0,3.144000053E0,6.628050327E0
2.155865668E1,-1.774950027E0,3.192000151E0,6.580050468E0
2.157824228E1,-2.005050182E0,3.307050228E0,6.465000153E0
2.159782474E1,-2.350050211E0,3.469050169E0,6.571050167E0
2.161740628E1,-2.704050064E0,3.556050062E0,7.155000210E0
2.163698236E1,-3.087000132E0,3.594000101E0,8.199000359E0
2.165656476E1,-3.460950136E0,3.718050241E0,9.339000702E0
2.167614513E1,-3.720000267E0,4.024950027E0,1.025805092E1
2.169572810E1,-3.672000170E0,4.504050255E0,1.094805050E1
2.171531550E1,-3.289050102E0,5.125950336E0,1.137900066E1
2.173490105E1,-2.791050196E0,5.701050282E0,1.142595100E1
2.175448845E1,-2.320950031E0,5.758050442E0,1.131195068E1
2.177407523E1,-2.226000071E0,5.173950195E0,1.161795044E1
2.179366177E1,-2.770950079E0,4.341000080E0,1.250895023E1
2.181324939E1,-3.576000214E0,3.583950281E0,1.324605083E1
2.183282784E1,-4.054950237E0,3.115050077E0,1.303500080E1
2.185240637E1,-4.006950378E0,3.028950214E0,1.178100014E1
2.187198700E1,-3.508950233E0,3.249000072E0,1.015305042E1
2.189156690E1,-2.857950211E0,3.517050266E0,8.908050537E0
2.191115121E1,-2.350050211E0,3.565050125E0,8.371050835E0
2.193073467E1,-2.091000080E0,3.421050072E0,8.247000694E0
2.195031929E1,-2.014950037E0,3.238950253E0,8.035950661E0
2.196990260E1,-1.986000061E0,3.163050175E0,7.528950214E0
2.198948106E1,-1.918950081E0,3.172050238E0,6.790950298E0
2.200906383E1,-1.833000064E0,3.172050238E0,6.025050163E0
2.202864516E1,-1.842000127E0,3.105000257E0,5.479050159E0
2.204822567E1,-2.005050182E0,2.980950117E0,5.248950481E0
2.206780172E1,-2.215950012E0,2.827950239E0,5.278050423E0
2.208737800E1,-2.379000187E0,2.703000069E0,5.460000038E0
2.210695702E1,-2.446050167E0,2.703000069E0,5.746950150E0
2.212653579E1,-2.263950109E0,2.740950108E0,6.187950134E0
2.214611834E1,-1.900050044E0,2.703000069E0,6.733950138E0
2.216570173E1,-1.536000013E0,2.578950167E0,7.299000263E0
2.218528903E1,-1.324950099E0,2.386950016E0,7.806000233E0
2.220487487E1,-1.324950099E0,2.242950201E0,8.218050003E0
2.222445796E1,-1.546050072E0,2.290950060E0,8.533950806E0
2.224404442E1,-1.986000061E0,2.722050190E0,8.860050201E0
2.226363366E1,-2.484000206E0,3.373950243E0,9.376950264E0
2.228322228E1,-2.733000040E0,3.718050241E0,1.033500004E1
2.230280944E1,-2.838000059E0,3.699000120E0,1.172295094E1
2.232239521E1,-3.135000229E0,3.661050081E0,1.285305023E1
2.234198426E1,-3.604950190E0,3.736950159E0,1.294905090E1
2.236157378E1,-3.940050125E0,3.862050295E0,1.220205021E1
2.238116570E1,-3.969000101E0,3.891000271E0,1.159905052E1
2.240075371E1,-3.787050247E0,3.862050295E0,1.161795044E1
2.242034390E1,-3.652950287E0,3.910050154E0,1.169505024E1
2.243993382E1,-3.547050238E0,3.928950071E0,1.123500061E1
2.245952359E1,-3.307950258E0,3.795000076E0,1.050705051E1
2.247910973E1,-2.973000050E0,3.526950121E0,9.999000549E0
2.249870081E1,-2.665950060E0,3.220050097E0,9.712050438E0
2.251828768E1,-2.455050230E0,2.952000141E0,9.481950760E0
2.253787684E1,-2.340000153E0,2.751000166E0,9.127950668E0
2.255746547E1,-2.302050114E0,2.617050171E0,8.553000450E0
2.257705970E1,-2.359950066E0,2.607000113E0,7.854000568E0
2.259664522E1,-2.512950182E0,2.751000166E0,7.192950249E0
2.261623253E1,-2.724000216E0,2.989950180E0,6.724050522E0
2.263582145E1,-2.973000050E0,3.163050175E0,6.523050308E0
2.265541031E1,-3.193050146E0,3.076950073E0,6.676050186E0
2.267499469E1,-3.268950224E0,2.751000166E0,7.174050331E0
2.269458178E1,-3.231000185E0,2.386950016E0,7.806000233E0
2.271417032E1,-3.106950045E0,2.100000143E0,8.332950592E0
2.273375902E1,-2.973000050E0,1.947000146E0,8.697000504E0
2.275334755E1,-2.829000235E0,1.936950088E0,8.974950790E0
2.277293832E1,-2.617950201E0,2.004000187E0,9.166050911E0
2.279253125E1,-2.368950129E0,2.119050026E0,9.214050293E0
2.281213371E1,-2.110949993E0,2.253000021E0,9.070050240E0
2.283173900E1,-1.822950125E0,2.310000181E0,8.821050644E0
2.285134330E1,-1.612950087E0,2.301000118E0,8.447999954E0
2.287094974E1,-1.756050110E0,2.473050117E0,8.026950836E0
2.289055091E1,-2.368950129E0,2.952000141E0,7.749000549E0
2.291015099E1,-3.298050165E0,3.421050072E0,7.642950535E0
2.292974667E1,-4.141050339E0,3.526950121E0,7.738950253E0
2.294934298E1,-4.696050167E0,3.421050072E0,8.083950043E0
2.296893719E1,-5.032050133E0,3.535950184E0,8.629950523E0
2.298853402E1,-5.214000225E0,3.900000095E0,9.223950386E0
2.300812978E1,-5.203950405E0,4.293000221E0,9.885000229E0
2.302773032E1,-4.878000259E0,4.504050255E0,1.051695061E1
2.304733001E1,-4.371000290E0,4.627950191E0,1.080405045E1
2.306692854E1,-3.805950165E0,4.627950191E0,1.066995049E1
2.308653130E1,-3.097050190E0,4.312050343E0,1.062195015E1
2.310612814E1,-2.235000134E0,3.690000057E0,1.119705009E1
2.312572414E1,-1.479000092E0,2.952000141E0,1.207800102E1
2.314531705E1,-1.162050009E0,2.434950113E0,1.246095085E1
2.316490945E1,-1.335000038E0,2.349000216E0,1.207800102E1
2.318450815E1,-1.632000089E0,2.587950230E0,1.130205059E1
2.320410666E1,-1.660050035E0,2.799000025E0,1.051695061E1
2.322369644E1,-1.372950077E0,2.779950142E0,9.837000847E0
2.324328784E1,-1.000050068E0,2.626950026E0,9.184950829E0
2.326288700E1,-8.269500136E-1,2.539950132E0,8.496000290E0
2.328248198E1,-9.520500302E-1,2.569050074E0,7.758000374E0
2.330207582E1,-1.239000082E0,2.683950186E0,7.039950371E0
2.332166875E1,-1.479000092E0,2.788950205E0,6.493950367E0
2.334126176E1,-1.632000089E0,2.884950161E0,6.159000397E0
2.336085192E1,-1.699050069E0,3.010050058E0,6.139950275E0
2.338044452E1,-1.632000089E0,3.037950039E0,6.532950401E0
2.340004660E1,-1.372950077E0,2.770050049E0,7.231950283E0
2.341964229E1,-1.027950048E0,2.301000118E0,7.959000587E0
2.343922875E1,-8.080500364E-1,1.812000036E0,8.638950348E0
2.345881155E1,-7.789500356E-1,1.401000023E0,9.655050278E0
2.347839286E1,-1.134000063E0,1.294950008E0,1.037295055E1
2.349797370E1,-1.774950027E0,1.554000020E0,1.011405087E1
2.351755645E1,-2.340000153E0,1.899000049E0,9.367050171E0
2.353713283E1,-2.704050064E0,2.128950119E0,8.764050484E0
2.355671497E1,-2.818950176E0,2.242950201E0,8.533950806E0
2.357630381E1,-2.695050240E0,2.290950060E0,8.332950592E0
2.359588166E1,-2.379000187E0,2.253000021E0,7.950000286E0
2.361545836E1,-2.034000158E0,2.167050123E0,7.509000301E0
2.363503528E1,-1.833000064E0,2.157000065E0,7.203000546E0
2.365461179E1,-1.822950125E0,2.196000099E0,7.098000526E0
2.367419525E1,-2.062950134E0,2.242950201E0,7.126050472E0
2.369378756E1,-2.446050167E0,2.454000235E0,7.375050545E0
2.371337925E1,-2.752050161E0,2.856000185E0,8.006999969E0
2.373296416E1,-2.781000137E0,3.115050077E0,8.802000046E0
2.375254993E1,-2.551050186E0,3.037950039E0,9.358050346E0
2.377213482E1,-2.427000046E0,2.943000078E0,9.577950478E0
2.379171890E1,-2.809950113E0,3.268050194E0,9.511050224E0
2.381130253E1,-3.480000257E0,3.871950150E0,9.195000648E0
2.383087770E1,-3.766950130E0,4.207050323E0,8.917050362E0
2.385045422E1,-3.528000116E0,4.120950222E0,9.424950600E0
2.387002784E1,-3.193050146E0,3.747000217E0,1.082295036E1
2.388959730E1,-3.040050030E0,3.229950190E0,1.217295074E1
2.390916693E1,-3.174000263E0,2.779950142E0,1.269105053E1
2.392874294E1,-3.633000135E0,2.550000191E0,1.228800011E1
2.394832325E1,-4.170000076E0,2.521050215E0,1.132095051E1
2.396789868E1,-4.427999973E0,2.482950211E0,1.018095016E1
2.398747560E1,-4.333050251E0,2.368050098E0,9.232950211E0
2.400705214E1,-4.015950203E0,2.242950201E0,8.620050430E0
2.402662544E1,-3.624000072E0,2.128950119E0,8.227950096E0
2.404619686E1,-3.316950083E0,2.080950022E0,7.921050549E0
2.406576853E1,-3.183000088E0,2.128950119E0,7.672050476E0
2.408534084E1,-3.183000088E0,2.185950041E0,7.519050121E0
2.410492145E1,-3.183000088E0,2.196000099E0,7.480950356E0
2.412450175E1,-3.126000166E0,2.148000002E0,7.500000477E0
2.414408329E1,-3.067950249E0,2.109000206E0,7.528950214E0
2.416366015E1,-3.010950089E0,2.080950022E0,7.585950375E0
2.418323780E1,-2.953050137E0,2.041949987E0,7.710000515E0
2.420281810E1,-2.877000093E0,1.993950129E0,7.921050549E0
2.422239747E1,-2.761950016E0,1.918050051E0,8.140950203E0
2.424197459E1,-2.676000118E0,1.831950068E0,8.343000412E0
2.426155427E1,-2.704050064E0,1.774050117E0,8.476950645E0
2.428113340E1,-2.877000093E0,1.765050054E0,8.563050270E0
2.430070717E1,-3.097050190E0,1.744950056E0,8.620050430E0
2.432028172E1,-3.211950064E0,1.687950134E0,8.686950684E0
2.433985825E1,-3.183000088E0,1.602000117E0,8.887950897E0
2.435943519E1,-3.030000210E0,1.468050122E0,9.157050133E0
2.437901185E1,-2.743050098E0,1.219050050E0,9.472949982E0
2.439859150E1,-2.733000040E0,8.359500170E-1,1.050705051E1
2.441817311E1,-3.538050175E0,7.590000629E-1,1.265205097E1
2.443775159E1,-4.762950420E0,1.237950087E0,1.472100067E1
2.445732943E1,-5.281050205E0,1.285950065E0,1.560195065E1
2.447690166E1,-4.831050396E0,5.100000501E-1,1.525695038E1
2.449647645E1,-4.102950096E0,-5.040000081E-1,1.440495110E1
2.451604966E1,-3.471000195E0,-1.414050102E0,1.381095028E1
2.453562142E1,-3.106950045E0,-1.882950068E0,1.317900085E1
2.455519343E1,-3.058950186E0,-1.681950092E0,1.199100018E1
2.457476753E1,-3.135000229E0,-1.117050052E0,1.063200092E1
2.459434208E1,-3.067950249E0,-7.440000176E-1,9.540000916E0
2.461391894E1,-2.791050196E0,-6.190500259E-1,8.707050323E0
2.463350083E1,-2.416950226E0,-4.560000300E-1,8.131950378E0
2.465308353E1,-2.139000177E0,-1.879500151E-1,7.738950253E0
2.467266483E1,-1.966950059E0,9.795000404E-2,7.509000301E0
2.469224631E1,-1.909950137E0,4.999500215E-1,7.318050385E0
2.471182299E1,-1.909950137E0,1.045950055E0,6.991950512E0
2.473140731E1,-1.795050144E0,1.333950043E0,6.714000225E0
2.475099092E1,-1.573950052E0,1.342950106E0,6.619050503E0
2.477057439E1,-1.363950014E0,1.401000023E0,6.571050167E0
2.479016230E1,-1.123950005E0,1.495950103E0,6.571050167E0
2.480974323E1,-7.600500584E-1,1.525050044E0,6.694950104E0
2.482932608E1,-2.719500065E-1,1.468050122E0,6.954000473E0
2.484891154E1,1.200000048E-1,1.458000064E0,7.174050331E0
2.486849309E1,2.730000019E-1,1.534950018E0,7.165050507E0
2.488807398E1,2.730000019E-1,1.602000117E0,7.069050312E0
2.490765310E1,2.730000019E-1,1.611000061E0,7.059000492E0
2.492723436E1,3.780000210E-1,1.602000117E0,7.270050526E0
2.494680815E1,5.320500135E-1,1.486950040E0,7.738950253E0
2.496638508E1,5.700000525E-1,1.285950065E0,8.179950714E0
2.498595807E1,3.310500085E-1,1.228050113E0,8.505000114E0
2.500553777E1,-2.530499995E-1,1.468050122E0,8.965050697E0
2.502511562E1,-1.027950048E0,1.822050095E0,9.721950531E0
2.504469245E1,-1.689000130E0,2.041949987E0,1.078500080E1
2.506426568E1,-1.929000139E0,2.157000065E0,1.188600063E1
2.508383861E1,-1.842000127E0,2.233950138E0,1.253700066E1
2.510341531E1,-1.765950084E0,2.349000216E0,1.263300037E1
2.512298730E1,-1.986000061E0,2.530950069E0,1.246095085E1
2.514256784E1,-2.359950066E0,2.626950026E0,1.234605026E1
2.516214937E1,-2.455050230E0,2.512050152E0,1.257600021E1
2.518173374E1,-2.215950012E0,2.224050045E0,1.305495071E1
2.520131315E1,-1.986000061E0,1.984950066E0,1.325595093E1
2.522089155E1,-2.101050138E0,2.052000046E0,1.294005108E1
2.524046882E1,-2.350050211E0,2.233950138E0,1.216395092E1
2.526005030E1,-2.427000046E0,2.233950138E0,1.114905071E1
2.527962605E1,-2.340000153E0,2.128950119E0,1.020105076E1
2.529920636E1,-2.158950090E0,2.014050007E0,9.607050896E0
2.531879029E1,-1.948050141E0,1.822050095E0,9.205050468E0
2.533837366E1,-1.842000127E0,1.687950134E0,8.754000664E0
2.535796084E1,-1.938000083E0,1.744950056E0,8.256000519E0
2.537754478E1,-2.130000114E0,1.851000071E0,7.845000267E0
2.539712487E1,-2.293050051E0,1.936950088E0,7.557000160E0
2.541670058E1,-2.427000046E0,2.032950163E0,7.432950497E0
2.543627688E1,-2.436000109E0,2.014050007E0,7.452000141E0
2.545585158E1,-2.226000071E0,1.744950056E0,7.537950516E0
2.547542981E1,-1.966950059E0,1.420050025E0,7.653000355E0
2.549500021E1,-1.785000086E0,1.237950087E0,7.816050529E0
2.551457159E1,-1.584000111E0,1.152000070E0,7.969050407E0
2.553414359E1,-1.324950099E0,1.161000013E0,8.035950661E0
2.555371198E1,-1.048050046E0,1.267050028E0,8.026950836E0
2.557327815E1,-8.659500480E-1,1.420050025E0,7.921050549E0
2.559284575E1,-9.130500555E-1,1.630950093E0,7.758000374E0
2.561241415E1,-1.182000041E0,1.879950047E0,7.624050140E0
2.563198422E1,-1.564950109E0,2.100000143E0,7.672050476E0
2.565155630E1,-1.957050085E0,2.281949997E0,7.987950325E0
2.567112942E1,-2.245050192E0,2.464050055E0,8.572050095E0
2.569069932E1,-2.407950163E0,2.655000210E0,9.310050011E0
2.571026546E1,-2.484000206E0,2.847000122E0,1.015305042E1
2.572983560E1,-2.532000065E0,3.096000195E0,1.113000011E1
2.574941283E1,-2.484000206E0,3.345000267E0,1.209705067E1
2.576899096E1,-2.416950226E0,3.498000145E0,1.255695057E1
2.578856781E1,-2.436000109E0,3.487950087E0,1.240305042E1
2.580814695E1,-2.311950207E0,3.259050131E0,1.198200035E1
2.582772411E1,-1.785000086E0,2.827950239E0,1.216395092E1
2.584729742E1,-9.330000281E-1,2.061000109E0,1.314105034E1
2.586687550E1,-2.719500065E-1,1.333950043E0,1.368705082E1
2.588645212E1,-1.380000114E-1,1.152000070E0,1.310205078E1
2.590602667E1,-3.580500185E-1,1.342950106E0,1.204905033E1
2.592559866E1,-5.020500422E-1,1.534950018E0,1.118700027E1
2.594517096E1,-4.440000355E-1,1.669050097E0,1.042995071E1
2.596474536E1,-3.199500144E-1,1.899000049E0,9.588000298E0
2.598432421E1,-1.380000114E-1,2.137950182E0,8.860050201E0
2.600389892E1,4.305000231E-2,2.224050045E0,8.304000854E0
2.602347284E1,5.295000225E-2,2.253000021E0,7.729950428E0
2.604305161E1,-1.090500057E-1,2.338950157E0,7.135950565E0
2.606262514E1,-3.010500073E-1,2.445000172E0,6.637950420E0
2.608220114E1,-5.020500422E-1,2.512050152E0,6.388950348E0
2.610177491E1,-6.550500393E-1,2.491950035E0,6.456000328E0
2.612134607E1,-6.259500384E-1,2.338950157E0,6.810000420E0
2.614091645E1,-4.830000103E-1,2.137950182E0,7.414050579E0
2.616049737E1,-3.199500144E-1,2.004000187E0,8.103000641E0
2.618007152E1,-1.380000114E-1,1.927050114E0,8.668050766E0
2.619964692E1,-4.200000316E-2,1.888950109E0,9.079950333E0
2.621922173E1,-7.995000482E-2,1.870050073E0,9.406050682E0
2.623879798E1,-1.469999999E-1,1.812000036E0,9.540000916E0
2.625837029E1,-1.380000114E-1,1.669050097E0,9.406050682E0
2.627793891E1,-3.195000067E-2,1.516050100E0,9.118050575E0
2.629750975E1,1.390500069E-1,1.449000120E0,8.841000557E0
2.631707929E1,2.920500040E-1,1.486950040E0,8.572050095E0
2.633664728E1,3.589500189E-1,1.563000083E0,8.266050339E0
2.635621674E1,3.499500155E-1,1.650000095E0,7.987950325E0
2.637578606E1,2.059500068E-1,1.831950068E0,7.902000427E0
2.639535037E1,-5.205000192E-2,2.196000099E0,8.218050003E0
2.641491346E1,-1.570500135E-1,2.694000244E0,8.898000717E0
2.643448116E1,3.019500077E-1,3.048000097E0,9.616050720E0
2.645404703E1,9.630000591E-1,3.325950146E0,1.016205025E1
2.647361997E1,1.096950054E0,3.709050179E0,1.070805073E1
2.649318707E1,7.710000277E-1,3.958050251E0,1.144605064E1
2.651275410E1,3.210000098E-1,4.063050270E0,1.188600063E1
2.653232124E1,-3.390000165E-1,4.282950401E0,1.159905052E1
2.655188826E1,-1.086000085E0,4.273950100E0,1.114905071E1
2.657145938E1,-1.737000108E0,3.699000120E0,1.094805050E1
2.659103477E1,-2.676000118E0,3.316050053E0,1.090005016E1
2.661060862E1,-3.787050247E0,3.085950136E0,1.088100052E1
2.663018309E1,-4.495050430E0,2.607000113E0,1.053600025E1
2.664976178E1,-4.716000080E0,2.358000040E0,9.693000793E0
2.666934001E1,-4.534049988E0,2.338950157E0,9.031949997E0
2.668891442E1,-4.102950096E0,2.416050196E0,8.716050148E0
2.670849419E1,-3.720000267E0,2.722050190E0,8.380949974E0
2.672807656E1,-3.490050077E0,3.076950073E0,8.140950203E0
2.674765686E1,-3.154950142E0,3.085950136E0,8.113050461E0
2.676723506E1,-2.494050026E0,2.847000122E0,8.247000694E0
2.678681071E1,-1.660050035E0,2.626950026E0,8.352000237E0
2.680638577E1,-9.330000281E-1,2.502000093E0,8.371050835E0
2.682596321E1,-4.440000355E-1,2.445000172E0,8.437950134E0
2.684553960E1,-1.660500020E-1,2.377950191E0,8.458050728E0
2.686511276E1,-1.305000018E-2,2.290950060E0,8.122050285E0
2.688468455E1,1.200000048E-1,2.233950138E0,7.489950180E0
2.690425954E1,1.870500147E-1,2.320050001E0,6.991950512E0
2.692383130E1,6.195000187E-2,2.703000069E0,6.657000542E0
2.694340359E1,-1.090500057E-1,3.172050238E0,6.370050430E0
2.696297344E1,-2.430000156E-1,3.421050072E0,6.063000202E0
2.698254299E1,-5.689499974E-1,3.574950218E0,5.814000130E0
2.700211589E1,-1.191000104E0,3.823950291E0,6.292950153E0
2.702168996E1,-1.621950030E0,4.024950027E0,7.786950588E0
2.704126881E1,-1.143000007E0,3.814050198E0,9.712050438E0
2.706084410E1,7.200000435E-2,3.172050238E0,1.152195072E1
2.708042075E1,1.135050058E0,2.445000172E0,1.310205078E1
2.710000047E1,1.450950027E0,1.908000112E0,1.423305035E1
2.711957285E1,1.125000000E0,1.744950056E0,1.461600113E1
2.713914355E1,6.469500065E-1,1.908000112E0,1.421295071E1
2.715871685E1,4.360500276E-1,2.100000143E0,1.341795063E1
2.717829162E1,5.410500169E-1,2.167050123E0,1.280595016E1
2.719786423E1,8.190000653E-1,2.272050142E0,1.242195034E1
2.721743591E1,1.078050017E0,2.569050074E0,1.187700081E1
2.723701246E1,1.231050014E0,2.932950258E0,1.114905071E1
2.725658507E1,1.317000031E0,3.067050219E0,1.050705051E1
2.727616017E1,1.249950051E0,2.989950180E0,1.004700089E1
2.729573524E1,1.000950098E0,2.895000219E0,9.693000793E0
2.731531001E1,7.810500264E-1,2.856000185E0,9.339000702E0
2.733488486E1,6.940500140E-1,2.836950064E0,8.956050873E0
2.735446855E1,6.850500107E-1,2.818050146E0,8.544000626E0
2.737405072E1,6.850500107E-1,2.827950239E0,8.151000023E0
2.739364335E1,6.559500098E-1,2.884950161E0,7.816050529E0
2.741322765E1,5.599500537E-1,2.971050024E0,7.557000160E0
2.743281596E1,4.069500268E-1,3.096000195E0,7.393950462E0
2.745240089E1,3.019500077E-1,3.124950171E0,7.375050545E0
2.747198856E1,3.880500197E-1,2.971050024E0,7.596000195E0
2.749157249E1,7.140000463E-1,2.751000166E0,7.987950325E0
2.751115533E1,1.116000056E0,2.694000244E0,8.199000359E0
2.753073965E1,1.432050109E0,2.740950108E0,8.103000641E0
2.755032144E1,1.566000104E0,2.740950108E0,7.834950447E0
2.756990729E1,1.402950048E0,2.731950045E0,7.653000355E0
2.758949037E1,1.096950054E0,2.799000025E0,7.681950569E0
2.760906950E1,8.860500455E-1,2.980950117E0,7.797000408E0
2.762863649E1,8.670000434E-1,3.192000151E0,7.873050213E0
2.764820788E1,1.057950020E0,3.334950209E0,7.891950607E0
2.766777866E1,1.374000072E0,3.393000126E0,7.950000286E0
2.768735533E1,1.662000060E0,3.345000267E0,8.065050125E0
2.770692945E1,1.795950055E0,3.229950190E0,8.055000305E0
2.772650269E1,1.738050103E0,3.144000053E0,7.891950607E0
2.774608012E1,1.489050031E0,3.172050238E0,7.758000374E0
2.776565710E1,1.212000012E0,3.286950111E0,8.006999969E0
2.778523095E1,1.201950073E0,3.364050150E0,8.821050644E0
2.780480880E1,1.555950046E0,3.421050072E0,9.837000847E0
2.782439180E1,2.007000208E0,3.546000242E0,1.056405067E1
2.784397526E1,2.227050066E0,3.727950096E0,1.083300018E1
2.786356285E1,1.987050056E0,3.976950169E0,1.081305027E1
2.788314507E1,1.441950083E0,4.168050289E0,1.085205078E1
2.790273337E1,1.011000037E0,4.054049969E0,1.113000011E1
2.792232438E1,9.529500604E-1,3.823950291E0,1.170405102E1
2.794190845E1,1.153950095E0,3.487950087E0,1.234605026E1
2.796147821E1,1.105949998E0,3.163050175E0,1.223100090E1
2.798104995E1,3.880500197E-1,3.238950253E0,1.113900089E1
2.800062809E1,-7.219500542E-1,3.679950237E0,9.990000725E0
2.802020318E1,-1.593000054E0,4.054049969E0,9.424950600E0
2.803978041E1,-1.813950062E0,4.081950188E0,9.070050240E0
2.805935550E1,-1.459050059E0,4.024950027E0,8.793000221E0
2.807893112E1,-7.510500550E-1,3.928950071E0,8.878950119E0
2.809850688E1,1.870500147E-1,3.487950087E0,9.195000648E0
2.811807849E1,1.030050039E0,2.904000044E0,9.339000702E0
2.813764934E1,1.450950027E0,2.539950132E0,9.205050468E0
2.815721917E1,1.402950048E0,2.397000074E0,8.898000717E0
2.817678558E1,1.087050080E0,2.377950191E0,8.458050728E0
2.819636074E1,8.190000653E-1,2.377950191E0,7.902000427E0
2.821593643E1,7.230000496E-1,2.329950094E0,7.336950302E0
2.823550937E1,7.519500256E-1,2.301000118E0,6.753000259E0
2.825508568E1,9.150000215E-1,2.301000118E0,6.216000080E0
2.827465706E1,1.144950032E0,2.301000118E0,5.824050426E0
2.829422907E1,1.317000031E0,2.301000118E0,5.641950130E0
2.831380323E1,1.345950007E0,2.397000074E0,5.776050091E0
2.833337922E1,1.260000110E0,2.665050030E0,6.283050060E0
2.835296107E1,1.144950032E0,3.037950039E0,7.107000351E0
2.837253955E1,1.057950020E0,3.430950165E0,8.170050621E0
2.839211733E1,1.144950032E0,3.823950291E0,9.433950424E0
2.841169888E1,1.432050109E0,4.177950382E0,1.081305027E1
2.843127622E1,1.719000101E0,4.398000240E0,1.230795097E1
2.845085371E1,1.843950033E0,4.360050201E0,1.348605061E1
2.847043135E1,1.747950077E0,4.264050007E0,1.368705082E1
2.849001290E1,1.306950092E0,4.494000435E0,1.291995049E1
2.850959074E1,6.370500326E-1,4.954050064E0,1.194405079E1
2.852916489E1,2.059500068E-1,5.212050438E0,1.132095051E1
2.854874181E1,2.539499998E-1,5.164050102E0,1.104300022E1
2.856832079E1,6.850500107E-1,4.819950104E0,1.110105038E1
2.858789895E1,1.078050017E0,4.159049988E0,1.117695045E1
2.860747833E1,9.529500604E-1,3.642000198E0,1.087095070E1
2.862705898E1,4.069500268E-1,3.546000242E0,1.021995068E1
2.864664246E1,4.305000231E-2,3.631950140E0,9.406050682E0
2.866621907E1,1.290000081E-1,3.699000120E0,8.649000168E0
2.868579905E1,5.700000525E-1,3.736950159E0,8.218050003E0
2.870538181E1,1.125000000E0,3.718050241E0,8.218050003E0
2.872496273E1,1.537050128E0,3.556050062E0,8.362050056E0
2.874454027E1,1.681050062E0,3.345000267E0,8.352000237E0
2.876412517E1,1.546950102E0,3.229950190E0,8.103000641E0
2.878370259E1,1.354950070E0,3.163050175E0,7.786950588E0
2.880328657E1,1.260000110E0,3.153000116E0,7.596000195E0
2.882286627E1,1.221000075E0,3.201000214E0,7.557000160E0
2.884245274E1,1.240050077E0,3.172050238E0,7.624050140E0
2.886204198E1,1.306950092E0,3.028950214E0,7.690950394E0
2.888163215E1,1.374000072E0,2.875950098E0,7.701000214E0
2.890122168E1,1.422000051E0,2.740950108E0,7.642950535E0
2.892081278E1,1.393950105E0,2.635950089E0,7.528950214E0
2.894040598E1,1.164000034E0,2.626950026E0,7.432950497E0
2.895999959E1,8.290500641E-1,2.731950045E0,7.461000443E0
2.897958415E1,5.320500135E-1,2.856000185E0,7.596000195E0
2.899916297E1,4.450500309E-1,2.952000141E0,7.758000374E0
2.901874543E1,5.989500284E-1,2.952000141E0,7.845000267E0
2.903832812E1,8.959500194E-1,2.952000141E0,7.912050247E0
2.905790819E1,1.173000097E0,3.028950214E0,8.122050285E0
2.907748844E1,1.240050077E0,3.124950171E0,8.458050728E0
2.909707159E1,1.125000000E0,3.115050077E0,8.629950523E0
2.911664721E1,1.125000000E0,2.884950161E0,8.659049988E0
2.913622137E1,1.125000000E0,2.617050171E0,8.830950737E0
2.915579274E1,9.820500612E-1,2.626950026E0,9.511050224E0
2.917536843E1,1.011000037E0,2.799000025E0,1.075605011E1
2.919494873E1,1.297950029E0,2.770050049E0,1.174200058E1
2.921452257E1,1.470000029E0,2.607000113E0,1.173300076E1
2.923409985E1,1.240050077E0,2.598000050E0,1.133100033E1
2.925367277E1,8.479500413E-1,2.683950186E0,1.139805031E1
2.927325278E1,5.599500537E-1,2.914050102E0,1.193400097E1
2.929283115E1,5.029500127E-1,3.268050194E0,1.240305042E1
2.931241215E1,7.710000277E-1,3.382950068E0,1.225005054E1
2.933198880E1,1.048950076E0,3.201000214E0,1.170405102E1
2.935156419E1,9.340500236E-1,3.133950233E0,1.138800049E1
2.937114102E1,3.690000176E-1,3.354000092E0,1.131195068E1
2.939071773E1,-4.920000136E-1,3.574950218E0,1.115805054E1
2.941029271E1,-1.276950002E0,3.747000217E0,1.065105057E1
2.942986786E1,-1.420950055E0,3.823950291E0,9.721950531E0
2.944944695E1,-1.009050012E0,3.775950193E0,8.649000168E0
2.946902904E1,-7.510500550E-1,3.823950291E0,7.797000408E0
2.948860421E1,-9.130500555E-1,3.976950169E0,7.404000282E0
2.950818116E1,-1.287000060E0,4.140000343E0,7.404000282E0
2.952776112E1,-1.555050015E0,4.216050148E0,7.557000160E0
2.954733967E1,-1.603050113E0,4.129950047E0,7.653000355E0
2.956691132E1,-1.536000013E0,3.967050076E0,7.729950428E0
2.958648178E1,-1.516950130E0,3.832950115E0,7.777950287E0
2.960605530E1,-1.516950130E0,3.727950096E0,7.653000355E0
2.962562864E1,-1.507050037E0,3.757050276E0,7.347000122E0
2.964520240E1,-1.584000111E0,4.024950027E0,6.906000137E0
2.966477224E1,-1.822950125E0,4.321950436E0,6.532950401E0
2.968434096E1,-2.091000080E0,4.494000435E0,6.445950508E0
2.970390894E1,-2.235000134E0,4.590000153E0,6.609000206E0
2.972347719E1,-2.302050114E0,4.675950050E0,6.877050400E0
2.974304896E1,-2.311950207E0,4.743000031E0,7.107000351E0
2.976262004E1,-2.302050114E0,4.810050011E0,7.336950302E0
2.978219264E1,-2.350050211E0,4.954050064E0,7.710000515E0
2.980176733E1,-2.427000046E0,5.145000458E0,8.236949921E0
2.982134640E1,-2.512950182E0,5.289000034E0,8.917050362E0
2.984092330E1,-2.617950201E0,5.394000053E0,9.721950531E0
2.986049935E1,-2.656950235E0,5.433000088E0,1.039200020E1
2.988007003E1,-2.484000206E0,5.374950409E0,1.041105080E1
2.989963903E1,-2.167950153E0,5.299050331E0,9.769950867E0
2.991920980E1,-2.130000114E0,5.365950108E0,9.300000191E0
2.993878055E1,-2.617950201E0,5.739000320E0,9.636000633E0
2.995835872E1,-3.268950224E0,6.064950466E0,1.058400059E1
2.997793288E1,-3.451050282E0,5.776950359E0,1.145505047E1
2.999750233E1,-3.222000122E0,5.136000156E0,1.170405102E1
3.001707401E1,-2.944050074E0,4.801050186E0,1.115805054E1
3.003664323E1,-2.617950201E0,4.876950264E0,9.990000725E0
3.005621679E1,-2.235000134E0,5.212050438E0,8.649000168E0
3.007578977E1,-1.948050141E0,5.586000443E0,7.615050316E0
3.009536424E1,-1.938000083E0,5.806050301E0,7.155000210E0
3.011494053E1,-2.130000114E0,5.815950394E0,6.991950512E0
3.013451095E1,-2.427000046E0,5.776950359E0,6.532950401E0
3.015408256E1,-2.569950104E0,5.739000320E0,6.102000237E0
3.017365526E1,-2.532000065E0,5.662050247E0,5.929050446E0
3.019323034E1,-2.542050123E0,5.605050087E0,5.623050213E0
3.026998750E1,-3.097050190E0,5.107050419E0,7.720050335E0
3.028956388E1,-3.058950186E0,5.136000156E0,7.768050194E0
3.030913988E1,-2.934000254E0,5.173950195E0,7.978950500E0
3.032872359E1,-2.704050064E0,5.136000156E0,8.314050674E0
3.034830422E1,-2.398050070E0,5.020950317E0,8.649000168E0
3.036787901E1,-2.110949993E0,4.906050205E0,8.935950279E0
3.038745903E1,-1.909950137E0,4.848000050E0,9.157050133E0
3.040703657E1,-1.813950062E0,4.848000050E0,9.300000191E0
3.042661228E1,-1.669950128E0,4.819950104E0,9.348000526E0
3.044619096E1,-1.402050018E0,4.734000206E0,9.339000702E0
3.046577072E1,-1.086000085E0,4.561050415E0,9.243000031E0
3.048535067E1,-8.659500480E-1,4.321950436E0,9.003000259E0
3.050493124E1,-7.990500331E-1,4.216050148E0,8.707050323E0
3.052450879E1,-9.130500555E-1,4.255050182E0,8.544000626E0
3.054408483E1,-1.182000041E0,4.360050201E0,8.533950806E0
3.056365922E1,-1.411050081E0,4.426949978E0,8.649000168E0
3.058323799E1,-1.468950033E0,4.282950401E0,8.773950577E0
3.060281377E1,-1.440000057E0,3.900000095E0,8.812050819E0
3.062239777E1,-1.498050094E0,3.450000048E0,8.821050644E0
3.064197745E1,-1.737000108E0,3.181950092E0,8.869050026E0
3.066156043E1,-2.005050182E0,3.028950214E0,9.022950172E0
3.068113612E1,-2.436000109E0,2.932950258E0,9.127950668E0
3.070070995E1,-2.569950104E0,2.674050093E0,9.348000526E0
3.072029465E1,-2.130000114E0,2.272050142E0,9.616050720E0
3.073987157E1,-1.708050132E0,2.100000143E0,9.664050102E0
3.075945120E1,-1.297050118E0,2.052000046E0,9.664050102E0
3.077903157E1,-7.699500322E-1,1.936950088E0,9.655050278E0
3.079860995E1,-1.759500057E-1,1.792950034E0,9.607050896E0
3.081819438E1,5.220000148E-1,1.639950037E0,9.511050224E0
3.083777622E1,1.125000000E0,1.525050044E0,9.358050346E0
3.085736106E1,1.306950092E0,1.534950018E0,9.223950386E0
3.087694168E1,1.164000034E0,1.639950037E0,9.280950546E0
3.089652330E1,9.340500236E-1,1.774050117E0,9.433950424E0
3.091610506E1,7.039500475E-1,1.927050114E0,9.559050560E0
3.093568606E1,3.690000176E-1,2.061000109E0,9.664050102E0
3.095526996E1,2.400000021E-2,2.167050123E0,9.712050438E0
3.097485189E1,-2.340000123E-1,2.224050045E0,9.616050720E0
3.099443127E1,-4.060500264E-1,2.253000021E0,9.472949982E0
3.101401373E1,-4.729500115E-1,2.281949997E0,9.328950882E0
3.103359249E1,-4.249500334E-1,2.301000118E0,9.214050293E0
3.105317520E1,-3.199500144E-1,2.358000040E0,9.223950386E0
3.107275096E1,-1.570500135E-1,2.445000172E0,9.291000366E0
3.109233213E1,9.105000645E-2,2.530950069E0,9.348000526E0
3.111191251E1,3.690000176E-1,2.569050074E0,9.328950882E0
3.113148996E1,5.890500546E-1,2.530950069E0,9.175950050E0
3.115107182E1,7.330500484E-1,2.464050055E0,8.965050697E0
3.117065305E1,7.810500264E-1,2.386950016E0,8.878950119E0
3.119023621E1,6.850500107E-1,2.310000181E0,9.003000259E0
3.120982260E1,4.260000288E-1,2.233950138E0,9.252000809E0
3.122940906E1,1.099500060E-1,2.148000002E0,9.463050842E0
3.124898997E1,-1.189500093E-1,2.041949987E0,9.559050560E0
3.126857036E1,-2.430000156E-1,1.899000049E0,9.625950813E0
3.128815253E1,-3.390000165E-1,1.707000136E0,9.682950020E0
3.130773339E1,-5.400000215E-1,1.477050066E0,9.682950020E0
3.132730548E1,-8.749500513E-1,1.246950030E0,9.529950142E0
3.134688571E1,-1.267950058E0,1.055999994E0,9.280950546E0
3.136646579E1,-1.717950106E0,9.030000567E-1,9.195000648E0
3.138604417E1,-2.245050192E0,8.550000191E-1,9.339000702E0
3.140561902E1,-2.743050098E0,8.830500245E-1,9.588000298E0
3.142519524E1,-3.078000069E0,8.260500431E-1,9.817050934E0
3.144477462E1,-3.087000132E0,5.770500302E-1,9.990000725E0
3.146435275E1,-2.800050020E0,1.840500087E-1,1.007595062E1
3.148392876E1,-2.407950163E0,-2.170500159E-1,1.016205025E1
3.150349868E1,-2.101050138E0,-4.180500209E-1,1.025805092E1
3.152307498E1,-1.957050085E0,-3.990000188E-1,1.023900032E1
3.154265437E1,-1.900050044E0,-3.130500019E-1,1.004700089E1
3.156223060E1,-1.861950040E0,-2.260500044E-1,9.808050156E0
3.158181102E1,-1.852050066E0,-1.120500043E-1,9.607050896E0
3.160139836E1,-1.852050066E0,7.905000448E-2,9.444000244E0
3.162098425E1,-1.861950040E0,2.800500095E-1,9.262050629E0
3.164057308E1,-1.938000083E0,3.660000265E-1,9.079950333E0
3.166016209E1,-2.158950090E0,3.469500244E-1,8.994000435E0
3.167974548E1,-2.436000109E0,3.090000153E-1,9.013050079E0
3.169932826E1,-2.647050142E0,2.710500062E-1,9.166050911E0
3.171890579E1,-2.761950016E0,1.840500087E-1,9.396000862E0
3.173848643E1,-2.743050098E0,4.095000029E-2,9.588000298E0
3.175806645E1,-2.656950235E0,-1.020000055E-1,9.741000175E0
3.177764647E1,-2.532000065E0,-1.980000138E-1,9.885000229E0
3.179723193E1,-2.407950163E0,-2.460000068E-1,1.003800011E1
3.181681441E1,-2.340000153E0,-2.260500044E-1,1.019100094E1
3.183639542E1,-2.331000090E0,-1.590000093E-1,1.024800014E1
3.185598372E1,-2.263950109E0,-1.399500072E-1,1.017195034E1
3.187557109E1,-2.130000114E0,-1.879500151E-1,1.008600044E1
3.189515221E1,-2.005050182E0,-2.170500159E-1,1.001895046E1
3.191473219E1,-1.966950059E0,-2.170500159E-1,9.970950127E0
3.193430797E1,-1.966950059E0,-1.590000093E-1,9.990000725E0
3.195388305E1,-1.909950137E0,-5.400000140E-2,1.004700089E1
3.197346049E1,-1.689000130E0,4.095000029E-2,1.014300060E1
3.199304118E1,-1.287000060E0,1.170000061E-1,1.031505013E1
3.201262292E1,-8.560500145E-1,2.040000111E-1,1.045905018E1
3.203220384E1,-5.689499974E-1,2.610000074E-1,1.042995071E1
3.205177837E1,-4.540500343E-1,2.610000074E-1,1.016205025E1
3.207135429E1,-5.110500455E-1,1.939500123E-1,9.865050316E0
3.209093397E1,-6.640500426E-1,7.905000448E-2,9.769950867E0
3.211051680E1,-7.890000343E-1,1.200000010E-2,9.808050156E0
3.213010073E1,-7.320000529E-1,1.950000064E-3,9.885000229E0
3.214968258E1,-5.400000215E-1,2.205000073E-2,9.961050034E0
3.216926227E1,-4.150500298E-1,1.170000061E-1,9.837000847E0
3.218883897E1,-4.060500264E-1,3.280500174E-1,9.492000580E0
3.220841182E1,-5.299500227E-1,6.439500451E-1,9.090000153E0
3.222798692E1,-7.030500174E-1,9.790500402E-1,8.773950577E0
3.224756423E1,-8.560500145E-1,1.285950065E0,8.515049934E0
3.226714885E1,-1.009050012E0,1.495950103E0,8.400000572E0
3.228672854E1,-1.182000041E0,1.621050119E0,8.400000572E0
3.230631162E1,-1.363950014E0,1.687950134E0,8.389950752E0
3.232589624E1,-1.536000013E0,1.687950134E0,8.362050056E0
3.234548427E1,-1.680000067E0,1.591950059E0,8.389950752E0
3.236506822E1,-1.842000127E0,1.429050088E0,8.620050430E0
3.238465262E1,-1.938000083E0,1.294950008E0,8.898000717E0
3.240424093E1,-1.870950103E0,1.093950033E0,9.042000771E0
3.242383047E1,-1.699050069E0,7.879500389E-1,9.157050133E0
3.244341326E1,-1.507050037E0,4.720500112E-1,9.243000031E0
3.246299748E1,-1.383000016E0,2.710500062E-1,9.280950546E0
3.248258639E1,-1.402050018E0,2.230500132E-1,9.310050011E0
3.250217632E1,-1.488000035E0,2.710500062E-1,9.396000862E0
3.252176986E1,-1.536000013E0,3.090000153E-1,9.454050064E0
3.254135686E1,-1.555050015E0,3.180000186E-1,9.339000702E0
3.256094307E1,-1.564950109E0,2.989500165E-1,9.136950493E0
3.258053008E1,-1.555050015E0,2.610000074E-1,8.983950615E0
3.260011902E1,-1.488000035E0,1.750500053E-1,8.983950615E0
3.261971017E1,-1.354050040E0,6.900000572E-2,9.175950050E0
3.263930278E1,-1.276950002E0,1.950000064E-3,9.385950089E0
3.265889077E1,-1.354050040E0,-3.495000303E-2,9.454050064E0
3.267848268E1,-1.488000035E0,-4.395000264E-2,9.385950089E0
3.269806954E1,-1.699050069E0,-3.495000303E-2,9.291000366E0
3.271765868E1,-2.091000080E0,6.000000238E-2,9.300000191E0
3.273724768E1,-2.589000225E0,3.090000153E-1,9.406050682E0
3.275683405E1,-2.838000059E0,6.340500116E-1,9.385950089E0
3.277642451E1,-2.569950104E0,9.310500622E-1,9.157050133E0
3.279601528E1,-1.957050085E0,1.237950087E0,8.994000435E0
3.281560388E1,-1.287000060E0,1.621050119E0,9.223950386E0
3.283519658E1,-7.510500550E-1,2.023050070E0,9.894000053E0
3.285478397E1,-3.960000277E-1,2.301000118E0,1.076595020E1
3.287436613E1,-2.620500028E-1,2.368050098E0,1.120605087E1
3.289394480E1,-3.870000243E-1,2.281949997E0,1.087095070E1
3.291352674E1,-6.360000372E-1,2.052000046E0,1.035405064E1
3.293310972E1,-8.370000124E-1,1.851000071E0,1.037295055E1
3.295269718E1,-9.330000281E-1,1.956000090E0,1.087095070E1
3.297227995E1,-1.048050046E0,2.176050186E0,1.132095051E1
3.299186693E1,-1.191000104E0,2.167050123E0,1.137900066E1
3.301145409E1,-1.306050062E0,1.831950068E0,1.096695042E1
3.303103587E1,-1.440000057E0,1.458000064E0,1.049700069E1
3.305061985E1,-1.603050113E0,1.410000086E0,1.023900032E1
3.307020047E1,-1.717950106E0,1.582950115E0,9.990000725E0
3.308978139E1,-1.689000130E0,1.611000061E0,9.655050278E0
3.310936731E1,-1.612950087E0,1.516050100E0,9.300000191E0
3.312894385E1,-1.621950030E0,1.534950018E0,9.079950333E0
3.314852208E1,-1.737000108E0,1.698000073E0,9.079950333E0
3.316810325E1,-1.785000086E0,1.840950131E0,9.205050468E0
3.318768816E1,-1.651050091E0,1.803000093E0,9.310050011E0
3.320727286E1,-1.354050040E0,1.563000083E0,9.415050507E0
3.322685677E1,-1.009050012E0,1.305000067E0,9.568050385E0
3.324644263E1,-7.410000563E-1,1.113000035E0,9.874950409E0
3.326603102E1,-5.590500236E-1,1.027050018E0,1.014300060E1
3.328562294E1,-5.020500422E-1,1.027050018E0,1.010505009E1
3.330520148E1,-5.590500236E-1,1.055999994E0,9.760050774E0
3.332478118E1,-6.070500016E-1,1.113000035E0,9.195000648E0
3.334436453E1,-5.689499974E-1,1.353000045E0,8.553000450E0
3.336394730E1,-5.110500455E-1,1.783950090E0,8.006999969E0
3.338352822E1,-4.630500078E-1,2.301000118E0,7.576050282E0
3.340311122E1,-4.150500298E-1,2.751000166E0,7.231950283E0
3.342269192E1,-3.580500185E-1,2.904000044E0,7.039950371E0
3.344227154E1,-2.910000086E-1,2.836950064E0,6.916050434E0
3.346184977E1,-2.050500065E-1,2.722050190E0,6.637950420E0
3.348142599E1,-9.000000358E-2,2.587950230E0,6.283050060E0
3.350100414E1,-1.305000018E-2,2.491950035E0,6.054000378E0
3.352058206E1,-1.279500127E-1,2.473050117E0,6.091950417E0
3.354015870E1,-4.729500115E-1,2.569050074E0,6.600000381E0
3.355973646E1,-7.600500584E-1,2.713050127E0,7.557000160E0
3.357931470E1,-8.080500364E-1,2.713050127E0,8.725950241E0
3.359888609E1,-8.179500103E-1,2.587950230E0,9.894000053E0
3.361845380E1,-9.130500555E-1,2.521050215E0,1.102395058E1
3.363802573E1,-9.810000658E-1,2.617050171E0,1.203000069E1
3.365760088E1,-9.900000691E-1,2.875950098E0,1.263300037E1
3.367717711E1,-1.000050068E0,3.172050238E0,1.258500099E1
3.369675066E1,-1.143000007E0,3.402000189E0,1.203000069E1
3.371632089E1,-1.239000082E0,3.546000242E0,1.151295090E1
3.373589435E1,-1.000050068E0,3.508050203E0,1.154100037E1
3.375546736E1,-4.540500343E-1,3.096000195E0,1.215405083E1
3.377503590E1,4.305000231E-2,2.377950191E0,1.254705048E1
3.379460606E1,9.105000645E-2,1.947000146E0,1.201995087E1
3.381417506E1,-2.239500135E-1,1.975050092E0,1.099500084E1
3.383374020E1,-5.400000215E-1,2.176050186E0,1.016205025E1
3.385330459E1,-7.600500584E-1,2.482950211E0,9.826950073E0
3.387287319E1,-8.269500136E-1,2.674050093E0,9.904050827E0
3.389244202E1,-7.120500207E-1,2.482950211E0,1.005705070E1
3.391201186E1,-5.689499974E-1,2.119050026E0,1.003800011E1
3.393157932E1,-5.299500227E-1,1.936950088E0,9.789000511E0
3.395115408E1,-6.070500016E-1,1.956000090E0,9.376950264E0
3.397073007E1,-7.219500542E-1,2.071050167E0,8.974950790E0
3.399030729E1,-8.370000124E-1,2.196000099E0,8.725950241E0
3.400988605E1,-9.420000315E-1,2.242950201E0,8.725950241E0
3.402946359E1,-1.009050012E0,2.176050186E0,8.869050026E0
3.404903920E1,-1.038000107E0,2.014050007E0,8.983950615E0
3.406861989E1,-9.810000658E-1,1.812000036E0,9.042000771E0
3.408819550E1,-8.370000124E-1,1.621050119E0,9.070050240E0
3.410777126E1,-6.450000405E-1,1.495950103E0,9.118050575E0
3.412734470E1,-4.150500298E-1,1.477050066E0,9.166050911E0
3.414691184E1,-1.860000044E-1,1.534950018E0,9.157050133E0
3.416648250E1,-1.305000018E-2,1.621050119E0,8.983950615E0
3.418605337E1,6.195000187E-2,1.755000114E0,8.629950523E0
3.420562844E1,9.105000645E-2,1.947000146E0,8.275950432E0
3.422520660E1,7.200000435E-2,2.148000002E0,8.046000481E0
3.424478444E1,-9.000000358E-2,2.358000040E0,7.864050388E0
3.426435860E1,-3.679500222E-1,2.559000015E0,7.624050140E0
3.428393021E1,-6.550500393E-1,2.799000025E0,7.384950161E0
3.430350784E1,-8.749500513E-1,3.085950136E0,7.299000263E0
3.432308014E1,-9.900000691E-1,3.354000092E0,7.461000443E0
3.434265122E1,-1.038000107E0,3.487950087E0,7.864050388E0
3.436222384E1,-1.048050046E0,3.450000048E0,8.447999954E0
3.438179891E1,-1.057050109E0,3.307050228E0,9.098999977E0
3.440137113E1,-1.009050012E0,3.172050238E0,9.798000336E0
3.442094619E1,-8.940000534E-1,3.067050219E0,1.061205006E1
3.444051882E1,-7.219500542E-1,2.980950117E0,1.140705013E1
3.446009615E1,-6.640500426E-1,3.048000097E0,1.185705090E1
3.447966754E1,-7.990500331E-1,3.316050053E0,1.171395016E1
3.449924654E1,-8.659500480E-1,3.498000145E0,1.125405025E1
3.451881945E1,-6.930000186E-1,3.498000145E0,1.115805054E1
3.453839276E1,-4.729500115E-1,3.277950048E0,1.184805012E1
3.455796906E1,-4.830000103E-1,2.866050243E0,1.265205097E1
3.457754813E1,-9.420000315E-1,2.598000050E0,1.251795101E1
3.459712537E1,-1.669950128E0,2.694000244E0,1.149300098E1
3.461670014E1,-2.206050158E0,3.085950136E0,1.038300037E1
3.463627646E1,-2.302050114E0,3.421050072E0,9.789000511E0
3.465585186E1,-2.014950037E0,3.421050072E0,9.645000458E0
3.467542255E1,-1.612950087E0,3.163050175E0,9.597000122E0
3.469499455E1,-1.354050040E0,2.923050165E0,9.385950089E0
3.471457002E1,-1.267950058E0,2.799000025E0,8.917050362E0
3.473414903E1,-1.287000060E0,2.788950205E0,8.400000572E0
3.475372327E1,-1.297050118E0,2.827950239E0,8.006999969E0
3.477329496E1,-1.249050021E0,2.856000185E0,7.758000374E0
3.479286757E1,-1.191000104E0,2.847000122E0,7.681950569E0
3.481244074E1,-1.105050087E0,2.808000088E0,7.738950253E0
3.483201651E1,-9.709500670E-1,2.674050093E0,7.834950447E0
3.485158691E1,-8.179500103E-1,2.502000093E0,7.882950306E0
3.487115191E1,-7.030500174E-1,2.349000216E0,7.777950287E0
3.489072105E1,-6.640500426E-1,2.263050079E0,7.567050457E0
3.491029550E1,-6.169500351E-1,2.253000021E0,7.336950302E0
3.492986656E1,-5.400000215E-1,2.320050001E0,7.107000351E0
3.494943740E1,-4.540500343E-1,2.491950035E0,7.039950371E0
3.496900993E1,-3.480000198E-1,2.674050093E0,7.165050507E0
3.498857985E1,-3.199500144E-1,2.799000025E0,7.270050526E0
3.500814469E1,-4.729500115E-1,3.010050058E0,7.212000370E0
3.502771278E1,-6.450000405E-1,3.297000170E0,7.087950230E0
3.504728315E1,-6.450000405E-1,3.546000242E0,7.107000351E0
3.506685206E1,-4.920000136E-1,3.784950256E0,7.471050262E0
3.508642221E1,-3.010500073E-1,3.948000193E0,8.236949921E0
3.510598691E1,-2.809500098E-1,3.967050076E0,9.358050346E0
3.512555739E1,-5.209500194E-1,3.891000271E0,1.047795010E1
3.514512502E1,-8.940000534E-1,3.805050135E0,1.119705009E1
3.516469332E1,-1.201050043E0,3.900000095E0,1.155105019E1
3.518426416E1,-1.287000060E0,4.188000202E0,1.174200058E1
3.520385208E1,-1.210050106E0,4.494000435E0,1.167495060E1
3.522343823E1,-1.114950061E0,4.666050434E0,1.135905075E1
3.524302728E1,-9.420000315E-1,4.609050274E0,1.123500061E1
3.526261426E1,-5.590500236E-1,4.321950436E0,1.171395016E1
3.528219826E1,-4.200000316E-2,3.814050198E0,1.256595039E1
3.530176901E1,2.730000019E-1,3.297000170E0,1.290105057E1
3.532133763E1,1.390500069E-1,3.124950171E0,1.224000072E1
3.534090538E1,-2.340000123E-1,3.382950068E0,1.106205082E1
3.536047206E1,-4.630500078E-1,3.784950256E0,1.004700089E1
3.538003708E1,-4.440000355E-1,4.015050411E0,9.540000916E0
3.539960385E1,-2.340000123E-1,3.880950212E0,9.520950317E0
3.541917515E1,4.305000231E-2,3.487950087E0,9.769950867E0
3.543874254E1,1.680000126E-1,3.133950233E0,9.979950905E0
3.545831614E1,7.200000435E-2,2.980950117E0,9.874950409E0
3.547789297E1,-7.095000148E-2,2.884950161E0,9.415050507E0
3.549747057E1,-1.380000114E-1,2.799000025E0,8.697000504E0
3.551705332E1,-1.570500135E-1,2.740950108E0,7.969050407E0
3.553663519E1,-1.860000044E-1,2.722050190E0,7.432950497E0
3.555621265E1,-1.950000077E-1,2.713050127E0,7.192950249E0
3.557579601E1,-1.380000114E-1,2.674050093E0,7.203000546E0
3.559537912E1,-9.000000358E-2,2.655000210E0,7.299000263E0
3.561496159E1,-6.105000153E-2,2.683950186E0,7.356000423E0
3.563454375E1,-2.295000106E-2,2.740950108E0,7.366050243E0
3.565412600E1,3.405000269E-2,2.799000025E0,7.356000423E0
3.567371270E1,1.489500105E-1,2.808000088E0,7.452000141E0
3.569330109E1,3.210000098E-1,2.740950108E0,7.749000549E0
3.571288694E1,4.740000367E-1,2.635950089E0,8.170050621E0
3.573247548E1,5.800500512E-1,2.521050215E0,8.544000626E0
3.575206294E1,7.140000463E-1,2.425050020E0,8.668050766E0
3.577164994E1,7.710000277E-1,2.434950113E0,8.611050606E0
3.579123578E1,4.650000334E-1,2.598000050E0,8.860050201E0
3.581082449E1,-7.095000148E-2,2.770050049E0,9.664050102E0
3.583040758E1,-2.809500098E-1,2.674050093E0,1.059300041E1
3.584998597E1,1.500000060E-2,2.464050055E0,1.104300022E1
3.586955768E1,3.499500155E-1,2.416050196E0,1.093800068E1
3.588913492E1,3.019500077E-1,2.587950230E0,1.054500008E1
3.590871031E1,-1.305000018E-2,2.923050165E0,1.000905037E1
3.592829192E1,-3.480000198E-1,3.277950048E0,9.444000244E0
3.594786423E1,-7.120500207E-1,3.487950087E0,9.070050240E0
3.596743400E1,-1.095000029E0,3.546000242E0,9.098999977E0
3.598700483E1,-1.344000101E0,3.364050150E0,9.175950050E0
3.600657898E1,-1.431000113E0,3.048000097E0,8.841000557E0
3.602615591E1,-1.516950130E0,3.010050058E0,8.275950432E0
3.604573346E1,-1.593000054E0,3.163050175E0,7.902000427E0
3.606530906E1,-1.641000032E0,3.307050228E0,7.950000286E0
3.608488446E1,-1.573950052E0,3.402000189E0,8.649000168E0
3.610445800E1,-1.344000101E0,3.096000195E0,9.885000229E0
3.612403377E1,-1.182000041E0,2.539950132E0,1.088100052E1
3.614360940E1,-1.431000113E0,2.310000181E0,1.113000011E1
3.616318233E1,-1.948050141E0,2.550000191E0,1.087095070E1
3.618275585E1,-2.331000090E0,2.980950117E0,1.069905090E1
3.620232885E1,-2.331000090E0,3.259050131E0,1.083300018E1
3.622190453E1,-1.881000042E0,3.124950171E0,1.100505066E1
3.624147000E1,-1.287000060E0,2.703000069E0,1.092795086E1
3.626103870E1,-9.900000691E-1,2.425050020E0,1.047795010E1
3.628061216E1,-9.709500670E-1,2.445000172E0,9.741000175E0
3.630018633E1,-9.130500555E-1,2.512050152E0,8.956050873E0
3.631975873E1,-7.600500584E-1,2.521050215E0,8.284950256E0
3.633933434E1,-6.070500016E-1,2.539950132E0,7.834950447E0
3.635890919E1,-4.540500343E-1,2.521050215E0,7.663050175E0
3.637848271E1,-1.570500135E-1,2.425050020E0,7.642950535E0
3.639805004E1,3.780000210E-1,2.301000118E0,7.585950375E0
3.641762855E1,1.011000037E0,2.185950041E0,7.288950443E0
3.643720670E1,1.470000029E0,2.176050186E0,6.753000259E0
3.645678200E1,1.528050065E0,2.310000181E0,6.235950470E0
3.647635622E1,1.135050058E0,2.559000015E0,6.130050182E0
3.649592628E1,5.320500135E-1,2.836950064E0,6.646950245E0
3.651549830E1,3.405000269E-2,2.989950180E0,7.777950287E0
3.653507028E1,-2.719500065E-1,2.962050200E0,9.118050575E0
3.655463870E1,-6.169500351E-1,2.952000141E0,1.020105076E1
3.657421809E1,-1.143000007E0,3.181950092E0,1.090905094E1
3.659380456E1,-1.708050132E0,3.535950184E0,1.154100037E1
3.661339286E1,-2.130000114E0,3.832950115E0,1.240305042E1
3.663297992E1,-2.311950207E0,4.111050129E0,1.322700024E1
3.665256754E1,-2.158950090E0,4.321950436E0,1.358100033E1
3.667215309E1,-1.728000045E0,4.350000381E0,1.351395035E1
3.669174302E1,-1.143000007E0,4.024950027E0,1.341795063E1
3.671132887E1,-5.689499974E-1,3.393000126E0,1.345695019E1
3.673091658E1,-2.140500098E-1,2.751000166E0,1.337100029E1
3.675050704E1,-2.620500028E-1,2.386950016E0,1.273800087E1
3.677009164E1,-6.259500384E-1,2.329950094E0,1.146495056E1
3.678967873E1,-1.009050012E0,2.425050020E0,9.865050316E0
3.680927005E1,-1.086000085E0,2.539950132E0,8.419050217E0
3.682886057E1,-8.269500136E-1,2.578950167E0,7.653000355E0
3.684844397E1,-4.440000355E-1,2.521050215E0,7.806000233E0
3.686802080E1,-1.570500135E-1,2.434950113E0,8.467050552E0
3.688759563E1,-1.305000018E-2,2.434950113E0,8.926950455E0
3.690716637E1,-2.295000106E-2,2.569050074E0,8.793000221E0
3.692674260E1,-1.660500020E-1,2.847000122E0,8.161050797E0
3.694632023E1,-3.480000198E-1,3.211050034E0,7.480950356E0
3.696589470E1,-4.830000103E-1,3.498000145E0,7.155000210E0
3.698547284E1,-4.830000103E-1,3.526950121E0,7.212000370E0
3.700505191E1,-3.960000277E-1,3.316050053E0,7.384950161E0
3.702463312E1,-3.679500222E-1,3.076950073E0,7.509000301E0
3.704421558E1,-4.060500264E-1,2.943000078E0,7.489950180E0
3.706379741E1,-4.830000103E-1,2.895000219E0,7.318050385E0
3.708337525E1,-5.590500236E-1,2.884950161E0,7.144950390E0
3.710295339E1,-6.550500393E-1,2.884950161E0,7.098000526E0
3.712252993E1,-7.600500584E-1,2.856000185E0,7.240950108E0
3.714210848E1,-7.990500331E-1,2.722050190E0,7.509000301E0
3.716169000E1,-7.219500542E-1,2.491950035E0,7.854000568E0
3.718126876E1,-5.879999995E-1,2.263050079E0,8.199000359E0
3.720084347E1,-4.350000322E-1,2.041949987E0,8.524950027E0
3.722041888E1,-2.430000156E-1,1.831950068E0,8.802000046E0
3.723999494E1,-9.900000691E-2,1.602000117E0,8.946000099E0
3.725957215E1,-9.900000691E-2,1.449000120E0,8.974950790E0
3.727914938E1,-3.010500073E-1,1.477050066E0,8.908050537E0
3.729872445E1,-7.410000563E-1,1.726050138E0,8.802000046E0
3.731829484E1,-1.392000079E0,2.205000162E0,8.908050537E0
3.733786502E1,-2.119950056E0,2.808000088E0,9.433950424E0
3.735744102E1,-2.647050142E0,3.354000092E0,1.039200020E1
3.737701856E1,-2.791050196E0,3.757050276E0,1.131195068E1
3.739659766E1,-2.665950060E0,4.111050129E0,1.160805035E1
3.741617776E1,-2.320950031E0,4.369950294E0,1.135905075E1
3.743575676E1,-1.822950125E0,4.513050079E0,1.119705009E1
3.745533499E1,-1.411050081E0,4.522950172E0,1.156095028E1
3.747491245E1,-1.219950080E0,4.282950401E0,1.193400097E1
3.749448724E1,-1.383000016E0,4.044000149E0,1.161795044E1
3.751406386E1,-1.774950027E0,3.928950071E0,1.092795086E1
3.753364722E1,-2.110949993E0,3.727950096E0,1.052595043E1
3.755323192E1,-2.320950031E0,3.334950209E0,1.050705051E1
3.757281124E1,-2.398050070E0,2.847000122E0,1.038300037E1
3.759239470E1,-2.245050192E0,2.406000137E0,9.856050491E0
3.761198024E1,-2.101050138E0,2.119050026E0,9.022950172E0
3.763156479E1,-2.272950172E0,1.993950129E0,8.131950378E0
3.765114640E1,-2.685000181E0,2.004000187E0,7.480950356E0
3.767072602E1,-3.058950186E0,2.080950022E0,7.288950443E0
3.769030541E1,-3.145050049E0,2.061000109E0,7.500000477E0
3.770988764E1,-2.944050074E0,1.840950131E0,7.777950287E0
3.772947065E1,-2.685000181E0,1.506000042E0,7.738950253E0
3.774905004E1,-2.542050123E0,1.267050028E0,7.299000263E0
3.776862982E1,-2.521950006E0,1.189950109E0,6.676050186E0
3.778819873E1,-2.560950041E0,1.314000010E0,6.082050323E0
3.780776727E1,-2.665950060E0,1.602000117E0,5.575050354E0
3.782734295E1,-2.743050098E0,1.947000146E0,5.335050106E0
3.784692573E1,-2.647050142E0,2.196000099E0,5.737950325E0
3.786650726E1,-2.320950031E0,2.253000021E0,6.925050259E0
3.788608788E1,-1.890000105E0,2.119050026E0,8.716050148E0
3.790566242E1,-1.621950030E0,1.888950109E0,1.056405067E1
3.792523534E1,-1.765950084E0,1.783950090E0,1.180995083E1
3.794481255E1,-2.187000036E0,1.918050051E0,1.232700062E1
3.796439164E1,-2.560950041E0,2.215050220E0,1.242195034E1
3.798396856E1,-2.934000254E0,2.683950186E0,1.231695080E1
3.800354510E1,-3.145050049E0,3.096000195E0,1.225005054E1
3.802312118E1,-2.608950138E0,3.010050058E0,1.257600021E1
3.804269277E1,-1.440000057E0,2.598000050E0,1.369605064E1
3.806227124E1,-3.960000277E-1,2.061000109E0,1.499895096E1
3.808184392E1,5.295000225E-2,1.630950093E0,1.510395050E1
3.810142239E1,-2.050500065E-1,1.659000039E0,1.384905052E1
3.812099655E1,-7.990500331E-1,2.014050007E0,1.199100018E1
3.814057739E1,-1.239000082E0,2.434950113E0,1.028700066E1
3.816016175E1,-1.392000079E0,2.770050049E0,9.061050415E0
3.817974574E1,-1.267950058E0,2.808000088E0,8.314050674E0
3.819932790E1,-1.048050046E0,2.626950026E0,7.873050213E0
3.821891590E1,-9.610500336E-1,2.550000191E0,7.605000496E0
3.823849858E1,-9.900000691E-1,2.646000147E0,7.384950161E0
3.825808020E1,-1.009050012E0,2.770050049E0,7.165050507E0
3.827765796E1,-1.009050012E0,2.827950239E0,7.050000191E0
3.829723741E1,-1.027950048E0,2.827950239E0,6.973050117E0
3.831682049E1,-1.086000085E0,2.779950142E0,6.916050434E0
3.833640139E1,-1.143000007E0,2.731950045E0,7.021050453E0
3.835597978E1,-1.162050009E0,2.683950186E0,7.347000122E0
3.837556348E1,-1.153050065E0,2.665050030E0,7.749000549E0
3.839514471E1,-1.018950105E0,2.665050030E0,8.103000641E0
3.841472601E1,-7.120500207E-1,2.617050171E0,8.389950752E0
3.843431464E1,-3.100500107E-1,2.521050215E0,8.697000504E0
3.845390101E1,7.200000435E-2,2.464050055E0,9.013050079E0
3.847348440E1,3.780000210E-1,2.502000093E0,9.223950386E0
3.849306604E1,6.270000339E-1,2.539950132E0,9.214050293E0
3.851264482E1,8.089500666E-1,2.587950230E0,8.983950615E0
3.853223128E1,8.959500194E-1,2.665050030E0,8.581950188E0
3.855181436E1,8.479500413E-1,2.740950108E0,8.113050461E0
3.857139559E1,7.420500517E-1,2.808000088E0,7.690950394E0
3.859098390E1,5.130000114E-1,2.884950161E0,7.414050579E0
3.861057405E1,1.290000081E-1,2.989950180E0,7.441950321E0
3.863016259E1,-3.870000243E-1,3.085950136E0,7.806000233E0
3.864974014E1,-9.130500555E-1,3.105000257E0,8.505000114E0
3.866931437E1,-1.267950058E0,3.076950073E0,9.472949982E0
3.868889312E1,-1.324950099E0,3.067050219E0,1.059300041E1
3.870847034E1,-1.171950102E0,3.115050077E0,1.159905052E1
3.872804534E1,-1.038000107E0,3.144000053E0,1.216395092E1
3.874761832E1,-9.330000281E-1,3.076950073E0,1.222095013E1
3.876718970E1,-8.749500513E-1,3.105000257E0,1.207800102E1
3.878676409E1,-8.560500145E-1,3.229950190E0,1.188600063E1
3.880633485E1,-9.520500302E-1,3.354000092E0,1.140705013E1
3.882591180E1,-1.210050106E0,3.631950140E0,1.066005039E1
3.884548934E1,-1.488000035E0,3.985950232E0,9.990000725E0
3.886506388E1,-1.621950030E0,4.177950382E0,9.673950195E0
3.888463530E1,-1.488000035E0,4.044000149E0,9.837000847E0
3.890420822E1,-1.210050106E0,3.631950140E0,1.023900032E1
3.892378169E1,-1.000050068E0,3.172050238E0,1.052595043E1
3.894335462E1,-9.420000315E-1,2.827950239E0,1.031505013E1
3.896293193E1,-1.009050012E0,2.617050171E0,9.568050385E0
3.898250787E1,-1.153050065E0,2.559000015E0,8.611050606E0
3.900207896E1,-1.335000038E0,2.598000050E0,7.768050194E0
3.902165098E1,-1.431000113E0,2.598000050E0,7.069050312E0
3.904122337E1,-1.440000057E0,2.578950167E0,6.541950226E0
3.906079691E1,-1.459050059E0,2.626950026E0,6.379050255E0
3.908037076E1,-1.450050116E0,2.598000050E0,6.714000225E0
3.909994146E1,-1.315950036E0,2.425050020E0,7.480950356E0
3.911950801E1,-1.009050012E0,2.167050123E0,8.343000412E0
3.913907106E1,-5.779500008E-1,1.851000071E0,8.802000046E0
3.915864028E1,-2.140500098E-1,1.563000083E0,8.956050873E0
3.917821621E1,-1.380000114E-1,1.390950084E0,8.956050873E0
3.919779096E1,-3.390000165E-1,1.495950103E0,8.782950401E0
3.921736789E1,-5.779500008E-1,1.840950131E0,8.649000168E0
3.923694088E1,-6.070500016E-1,2.185950041E0,8.659049988E0
3.925651587E1,-4.150500298E-1,2.454000235E0,8.802000046E0
3.927609433E1,-1.660500020E-1,2.665050030E0,9.090000153E0
3.929566980E1,4.305000231E-2,2.770050049E0,9.741000175E0
3.931524417E1,2.160000056E-1,2.770050049E0,1.095705032E1
3.933481863E1,4.360500276E-1,2.799000025E0,1.262400055E1
3.935440662E1,6.079500318E-1,2.866050243E0,1.408905029E1
3.937398385E1,5.599500537E-1,2.856000185E0,1.458705044E1
3.939356268E1,3.310500085E-1,2.655000210E0,1.429005051E1
3.941313868E1,5.295000225E-2,2.425050020E0,1.348605061E1
3.943270944E1,-1.950000077E-1,2.425050020E0,1.237500095E1
3.945228696E1,-1.570500135E-1,2.406000137E0,1.132095051E1
3.947186565E1,1.009500027E-1,2.215050220E0,1.020105076E1
3.949144082E1,1.579500139E-1,2.196000099E0,9.022950172E0
3.951101526E1,-1.189500093E-1,2.454000235E0,7.998000145E0
3.953059433E1,-4.920000136E-1,2.856000185E0,7.279950142E0
3.955017240E1,-7.990500331E-1,3.220050097E0,6.943950176E0
3.956975340E1,-8.269500136E-1,3.354000092E0,7.011000156E0
3.958933550E1,-5.400000215E-1,3.163050175E0,7.347000122E0
3.960891703E1,-1.189500093E-1,2.827950239E0,7.624050140E0
3.962849580E1,1.680000126E-1,2.587950230E0,7.596000195E0
3.964807404E1,5.295000225E-2,2.569050074E0,7.480950356E0
3.966765252E1,-2.719500065E-1,2.559000015E0,7.720050335E0
3.968723554E1,-4.630500078E-1,2.445000172E0,8.006999969E0
3.970681372E1,-2.719500065E-1,2.368050098E0,7.797000408E0
3.972639225E1,2.160000056E-1,2.434950113E0,7.279950142E0
3.974596696E1,6.469500065E-1,2.607000113E0,6.963000298E0
3.976554429E1,8.479500413E-1,2.836950064E0,6.954000473E0
3.978511228E1,8.479500413E-1,3.019050121E0,7.165050507E0
3.980468973E1,7.710000277E-1,3.067050219E0,7.557000160E0
3.982426821E1,6.850500107E-1,3.019050121E0,8.131950378E0
3.984384398E1,5.700000525E-1,2.856000185E0,8.908050537E0
3.986342059E1,4.170000255E-1,2.635950089E0,9.682950020E0
3.988299751E1,3.310500085E-1,2.406000137E0,1.013400078E1
3.990257134E1,3.400500119E-1,2.128950119E0,1.020105076E1
3.992214303E1,3.690000176E-1,1.899000049E0,1.017195034E1
3.994171997E1,2.350500077E-1,1.936950088E0,1.042995071E1
3.996129865E1,-2.050500065E-1,2.320050001E0,1.092795086E1
3.998088024E1,-7.789500356E-1,2.847000122E0,1.124400043E1
4.000045440E1,-1.230000019E0,3.144000053E0,1.119705009E1
4.002003068E1,-1.479000092E0,3.238950253E0,1.128300095E1
4.003960353E1,-1.372950077E0,3.450000048E0,1.194405079E1
4.005918358E1,-9.810000658E-1,3.880950212E0,1.289205074E1
4.007877372E1,-4.540500343E-1,4.255050182E0,1.340895081E1
4.009836659E1,7.200000435E-2,4.177950382E0,1.303500080E1
4.011795498E1,2.250000089E-1,3.747000217E0,1.213500023E1
4.013753621E1,-2.050500065E-1,3.546000242E0,1.119705009E1
4.015711828E1,-9.330000281E-1,3.766050100E0,1.034400082E1
4.017670575E1,-1.450050116E0,3.939000130E0,9.588000298E0
4.019628567E1,-1.536000013E0,3.747000217E0,8.965050697E0
4.021586790E1,-1.420950055E0,3.307050228E0,8.467050552E0
4.023544728E1,-1.392000079E0,2.866050243E0,8.083950043E0
4.025502481E1,-1.479000092E0,2.559000015E0,7.806000233E0
4.027460350E1,-1.564950109E0,2.397000074E0,7.567050457E0
4.029418327E1,-1.593000054E0,2.320050001E0,7.336950302E0
4.031376289E1,-1.488000035E0,2.272050142E0,7.087950230E0
4.033334288E1,-1.210050106E0,2.205000162E0,6.801000118E0
4.035291557E1,-8.659500480E-1,2.041949987E0,6.504000187E0
4.037248840E1,-6.360000372E-1,1.783950090E0,6.312000275E0
4.039206470E1,-6.259500384E-1,1.525050044E0,6.408000469E0
4.041164293E1,-7.990500331E-1,1.543950081E0,6.801000118E0
4.043121953E1,-9.810000658E-1,1.840950131E0,7.404000282E0
4.045079852E1,-9.520500302E-1,2.080950022E0,8.017050743E0
4.047038008E1,-7.699500322E-1,2.185950041E0,8.314050674E0
4.048996201E1,-7.600500584E-1,2.349000216E0,8.304000854E0
4.050953885E1,-1.018950105E0,2.713050127E0,8.275950432E0
4.052911863E1,-1.335000038E0,3.172050238E0,8.544000626E0
4.054869827E1,-1.536000013E0,3.556050062E0,9.166050911E0
4.056827927E1,-1.612950087E0,3.766050100E0,1.021005058E1
4.058786267E1,-1.612950087E0,3.784950256E0,1.144605064E1
4.060744359E1,-1.612950087E0,3.727950096E0,1.224000072E1
4.062702084E1,-1.573950052E0,3.766050100E0,1.244205093E1
4.064659583E1,-1.191000104E0,3.814050198E0,1.265205097E1
4.066617829E1,-3.199500144E-1,3.814050198E0,1.313100052E1
4.068575408E1,7.900500298E-1,3.651000261E0,1.349505043E1
4.070532332E1,1.758000135E0,3.286950111E0,1.318905067E1
4.072489317E1,2.245950222E0,3.048000097E0,1.219305038E1
4.074446325E1,2.227050066E0,3.153000116E0,1.101495075E1
4.076403187E1,2.035050154E0,3.430950165E0,1.002795029E1
4.078360325E1,1.815000057E0,3.661050081E0,9.501000404E0
4.080317687E1,1.576050043E0,3.766050100E0,9.472949982E0
4.082274705E1,1.354950070E0,3.718050241E0,9.625950813E0
4.084231742E1,1.125000000E0,3.583950281E0,9.529950142E0
4.086188818E1,8.760000467E-1,3.421050072E0,8.956050873E0
4.088145379E1,5.599500537E-1,3.307050228E0,8.035950661E0
4.090101935E1,1.290000081E-1,3.316050053E0,7.050000191E0
4.092059188E1,-3.580500185E-1,3.402000189E0,6.255000114E0
4.094016733E1,-8.370000124E-1,3.421050072E0,5.995950222E0
4.095974579E1,-1.114950061E0,3.238950253E0,6.456000328E0
4.097931864E1,-8.460000157E-1,2.904000044E0,7.299000263E0
4.099889432E1,-9.000000358E-2,2.607000113E0,7.710000515E0
4.101846857E1,8.670000434E-1,2.425050020E0,7.299000263E0
4.103804610E1,1.555950046E0,2.338950157E0,6.532950401E0
4.105762203E1,1.585050106E0,2.425050020E0,6.408000469E0
4.107719072E1,1.231050014E0,2.598000050E0,7.318050385E0
4.109675956E1,1.068000078E0,2.626950026E0,8.380949974E0
4.111633493E1,1.317000031E0,2.512050152E0,8.974950790E0
4.113590822E1,1.651950121E0,2.445000172E0,9.358050346E0
4.115548913E1,1.681050062E0,2.491950035E0,9.856050491E0
4.117506484E1,1.297950029E0,2.550000191E0,1.039200020E1
4.119463714E1,7.900500298E-1,2.445000172E0,1.059300041E1
4.121420511E1,5.599500537E-1,2.263050079E0,1.042995071E1
4.123377590E1,6.079500318E-1,2.281949997E0,1.021005058E1
