"Time (s)","Acceleration x (m/s^2)","Acceleration y (m/s^2)","Acceleration z (m/s^2)"
1.747077500E-2,-2.610000134E0,4.093950272E0,8.518950462E0
3.747077600E-2,-2.722050190E0,3.783000231E0,9.049950600E0
5.825999300E-2,-2.413050175E0,3.414000273E0,9.012000084E0
7.904823800E-2,-2.184000015E0,3.379950047E0,8.574000359E0
9.983289600E-2,-2.313000202E0,3.493050098E0,8.314949989E0
1.206177910E-1,-2.539950132E0,3.463950157E0,8.574000359E0
1.414052010E-1,-2.121000051E0,3.319950104E0,8.218950272E0
1.621925840E-1,-1.981950045E0,3.402000189E0,8.005949974E0
1.829852070E-1,-2.278950214E0,3.301050186E0,8.157000542E0
2.037778240E-1,-2.236050129E0,3.451950073E0,8.083050728E0
2.245699960E-1,-1.365000010E0,3.385050058E0,8.215050697E0
2.453621510E-1,-9.409500360E-1,3.198000193E0,7.686000347E0
2.661517440E-1,-1.108950019E0,3.046950102E0,8.610000610E0
2.869413230E-1,-1.207050085E0,3.289050102E0,9.673050880E0
3.077265520E-1,-1.264050007E0,3.210000038E0,1.021605015E1
3.285117850E-1,-3.259500265E-1,2.467950106E0,9.393000603E0
3.492977660E-1,1.263000011E0,1.192050099E0,8.039999962E0
3.700837270E-1,2.820000052E-1,8.350500464E-1,8.574000359E0
3.908706590E-1,-2.157000065E0,2.643000126E0,1.060695076E1
4.116575840E-1,-2.111999989E0,2.344050169E0,9.145950317E0
4.324465660E-1,-2.799000025E0,2.347950220E0,7.405050278E0
4.532355270E-1,-1.120050073E0,1.764000058E0,6.055050373E0
4.740259860E-1,3.495000303E-2,-7.780500650E-1,4.896000385E0
4.948164490E-1,3.495000303E-2,-3.960000277E0,7.699950218E0
5.155979620E-1,-1.336050034E0,-3.676950216E0,8.394000053E0
5.363794690E-1,-2.788950205E0,6.529500484E-1,1.069800091E1
5.571658460E-1,-2.308050156E0,1.647000074E0,1.223205090E1
5.779521890E-1,-9.700500369E-1,6.220500469E-1,9.622950554E0
5.987377400E-1,-1.249950051E0,1.632000089E0,1.115205097E1
6.195232810E-1,-2.406000137E0,1.561050057E0,1.234500027E1
6.403117510E-1,-8.430000544E-1,7.590000629E-1,1.083600044E1
6.611002100E-1,-1.273950100E0,3.559500277E-1,1.171995068E1
6.818891060E-1,-3.610500097E-1,7.390500307E-1,1.199295044E1
7.026779930E-1,1.429500133E-1,-6.599999964E-2,1.350600052E1
7.234601270E-1,-1.384050012E0,1.500000060E-1,1.379805088E1
7.442422860E-1,-1.635000110E0,6.480000019E-1,1.188795090E1
7.650246040E-1,-5.295000225E-2,1.771050096E0,1.097295094E1
7.858069110E-1,1.155000091E0,2.260050058E0,1.019700050E1
8.065914100E-1,1.740000129E0,2.298000097E0,1.023105049E1
8.273759110E-1,1.507050037E0,1.860000134E0,8.818050385E0
8.481614240E-1,1.336950064E0,1.126950026E0,7.633050442E0
8.689469250E-1,1.084050059E0,8.179500103E-1,6.438000202E0
8.897312180E-1,2.500500083E-1,1.386000037E0,6.373050213E0
9.105155270E-1,-6.679500341E-1,2.154000044E0,7.558950424E0
9.313007820E-1,-6.390000582E-1,2.226000071E0,7.834050179E0
9.520860130E-1,4.660500288E-1,2.029950142E0,7.609050274E0
9.728720490E-1,7.650000453E-1,2.640000105E0,7.425000191E0
9.936580900E-1,1.194000006E0,2.746050119E0,7.261950493E0
1.014448817E0,1.335000038E0,3.100050211E0,6.886050224E0
1.035239546E0,3.270000219E-1,4.132050037E0,7.000950336E0
1.056024810E0,-1.290000081E-1,3.852000237E0,8.085000038E0
1.076810085E0,6.049500108E-1,2.739000082E0,1.024995041E1
1.097596678E0,6.379500031E-1,2.356050014E0,1.182795048E1
1.118383253E0,6.769500375E-1,2.068050146E0,1.243095016E1
1.139169231E0,8.179500103E-1,1.828950047E0,1.274205017E1
1.159955234E0,1.869000077E0,1.125000000E0,1.282095051E1
1.180739377E0,2.568000078E0,1.120500043E-1,1.258905029E1
1.201523532E0,2.475000143E0,-4.969500303E-1,1.315395069E1
1.222308116E0,1.749000072E0,-6.870000362E-1,1.277805042E1
1.243092733E0,1.219950080E0,0.000000000E0,1.133700085E1
1.263879503E0,1.372950077E0,7.129500508E-1,9.619950294E0
1.284666272E0,1.795050144E0,1.431000113E0,8.464050293E0
1.305454890E0,2.143949986E0,1.647000074E0,7.936950207E0
1.326243507E0,1.989000082E0,1.767000079E0,7.699950218E0
1.347033487E0,1.491000056E0,1.900950074E0,6.879000187E0
1.367823488E0,6.430500150E-1,2.362950087E0,5.980950356E0
1.388611212E0,3.820500076E-1,2.485050201E0,6.103050232E0
1.409398945E0,1.099950075E0,2.407950163E0,6.709050179E0
1.430187849E0,1.459950089E0,2.154000044E0,6.439950466E0
1.450976772E0,2.140050173E0,2.037000179E0,7.300050259E0
1.471768714E0,2.046000004E0,1.707000136E0,8.203050613E0
1.492560675E0,2.094000101E0,1.338000059E0,9.163050652E0
1.513347133E0,1.852050066E0,1.573050022E0,9.673050880E0
1.534133598E0,2.305050135E0,2.149950027E0,1.011300087E1
1.554922207E0,2.836050034E0,2.674050093E0,1.097295094E1
1.575710824E0,2.329050064E0,3.487950087E0,1.071405029E1
1.596497924E0,2.719050169E0,3.057000160E0,9.594000816E0
1.617285041E0,1.972050071E0,2.989950180E0,9.610950470E0
1.638067754E0,1.375950098E0,1.915050149E0,1.225905037E1
1.658850487E0,3.580500185E-1,1.639950037E0,1.366200066E1
1.679633896E0,6.670500040E-1,2.446950197E0,1.233300018E1
1.700417319E0,1.713000059E0,3.433050156E0,1.054395008E1
1.721201318E0,2.755050182E0,3.778050184E0,9.651000023E0
1.741985319E0,2.709000111E0,3.909000158E0,8.713050842E0
1.762769159E0,2.238000154E0,4.216050148E0,7.647000313E0
1.783553006E0,1.693950057E0,4.716000080E0,6.757050514E0
1.804342340E0,1.507050037E0,4.822050095E0,6.697050095E0
1.825131685E0,1.387950063E0,4.429050446E0,7.075050354E0
1.845920645E0,1.170000076E0,4.269000053E0,7.434000492E0
1.866709608E0,1.042950034E0,4.173000336E0,7.726050377E0
1.887497734E0,9.930000305E-1,3.924000263E0,8.133000374E0
1.908285853E0,8.950500488E-1,3.720000267E0,8.418000221E0
1.929075571E0,4.969500303E-1,3.574050188E0,8.938050270E0
1.949865300E0,4.680000246E-1,3.379950047E0,9.199050903E0
1.970653610E0,6.289500594E-1,3.282000065E0,9.274950027E0
1.991441921E0,1.231950045E0,2.869950056E0,1.003200054E1
2.012230388E0,2.500950098E0,1.531950116E0,1.184400082E1
2.033018849E0,3.625950098E0,-2.959500253E-1,1.405200100E1
2.053804197E0,3.792000294E0,-1.126950026E0,1.439700031E1
2.074589584E0,3.291000128E0,-6.460500360E-1,1.293900108E1
2.095372764E0,2.685000181E0,3.299999982E-2,1.196400070E1
2.116155959E0,2.326050043E0,6.649500132E-1,1.084395027E1
2.136938112E0,1.873950124E0,1.482000113E0,9.330000877E0
2.157720267E0,1.801950097E0,2.209050179E0,7.800000191E0
2.178508254E0,1.764000058E0,2.854050159E0,6.690000534E0
2.199296253E0,1.953000069E0,3.012000084E0,6.253950119E0
2.220078877E0,1.632000089E0,3.040050030E0,6.247050285E0
2.240861498E0,1.215000033E0,2.911050081E0,6.084000111E0
2.261646764E0,1.147950053E0,3.073950052E0,6.345000267E0
2.282431993E0,1.705950022E0,3.124050140E0,6.996000290E0
2.303218357E0,2.404950142E0,3.000000238E0,8.563950539E0
2.324004704E0,2.275950193E0,2.911050081E0,9.274950027E0
2.344790356E0,1.764000058E0,3.366000175E0,9.184050560E0
2.365576011E0,1.570050120E0,3.760950089E0,9.574950218E0
2.386362669E0,2.053050041E0,3.304050207E0,1.064700031E1
2.407149324E0,1.849950075E0,3.043050051E0,1.105200100E1
2.427935759E0,1.416000009E0,2.662050009E0,1.065705013E1
2.448722184E0,5.590500236E-1,2.248050213E0,1.163100052E1
2.469509722E0,-4.950000439E-3,1.927050114E0,1.261800098E1
2.490297261E0,1.830000132E-1,2.217000008E0,1.208400059E1
2.511083414E0,8.350500464E-1,2.796000242E0,1.045305061E1
2.531869569E0,1.572000027E0,3.688950062E0,9.702000618E0
2.552649103E0,2.542050123E0,3.481050253E0,9.175050735E0
2.573428646E0,2.518050194E0,3.511950254E0,8.587950706E0
2.594213299E0,2.053050041E0,3.784950256E0,7.708950520E0
2.614997948E0,1.929000139E0,4.052999973E0,7.188000202E0
2.635785625E0,2.175000191E0,4.369050026E0,7.096950531E0
2.656573280E0,2.464950085E0,4.390950203E0,7.312050343E0
2.677360558E0,2.298000097E0,4.180050373E0,7.530000210E0
2.698147829E0,1.881000042E0,4.113000393E0,7.585050583E0
2.718939690E0,1.551000118E0,4.065000057E0,7.378950119E0
2.739731535E0,1.087950110E0,4.054950237E0,8.080950737E0
2.760515230E0,3.510000110E-1,4.125000000E0,8.545050621E0
2.781298929E0,1.305000018E-2,3.841950178E0,9.330000877E0
2.802086447E0,-3.109500110E-1,3.451950073E0,9.876000404E0
2.822873944E0,-1.840500087E-1,2.842050076E0,1.094400024E1
2.843653488E0,1.564950109E0,6.679500341E-1,1.411695099E1
2.864433031E0,2.259000063E0,-7.270500064E-1,1.580205059E1
2.885217655E0,1.950000048E0,-7.080000043E-1,1.498605061E1
2.906002306E0,1.275000095E0,4.500000179E-2,1.324500084E1
2.926786746E0,1.038000107E0,1.141950011E0,1.138200092E1
2.947571209E0,1.813950062E0,2.116050005E0,1.000995064E1
2.968357218E0,2.785950184E0,2.953950167E0,8.848950386E0
2.989143219E0,3.255000114E0,3.423000097E0,7.824000359E0
3.009931987E0,3.126000166E0,3.421050072E0,6.946050167E0
3.030720758E0,2.673000097E0,3.310950041E0,6.190950394E0
3.051503635E0,2.467950106E0,2.935050249E0,6.160050392E0
3.072286522E0,2.709000111E0,2.566050053E0,6.610050201E0
3.093071306E0,3.085050106E0,2.368050098E0,6.964950562E0
3.113856075E0,3.085050106E0,2.323950052E0,7.149000168E0
3.134640271E0,2.941950083E0,2.016000032E0,7.402950287E0
3.155424464E0,2.784000158E0,2.008050203E0,8.061000824E0
3.176207800E0,2.494050026E0,2.145000219E0,8.581050873E0
3.196991147E0,2.247000217E0,2.619000196E0,8.785050392E0
3.217777817E0,2.080049992E0,3.157950163E0,8.119050026E0
3.238564468E0,1.357050061E0,3.925950289E0,7.492050171E0
3.259350729E0,6.769500375E-1,4.157999992E0,7.459950447E0
3.280137002E0,-1.440000087E-1,3.772950172E0,9.145950317E0
3.300918973E0,-6.900000572E-1,2.779050112E0,1.237605095E1
3.321700974E0,-1.012950063E0,2.530050039E0,1.333095074E1
3.342485923E0,-6.970500350E-1,3.399000168E0,1.200195026E1
3.363270844E0,4.200000167E-1,4.282950401E0,1.072095013E1
3.384058229E0,1.905000091E0,4.663950443E0,1.018995094E1
3.404845614E0,2.767050028E0,4.666050434E0,9.316050529E0
3.425634563E0,2.755050182E0,4.822050095E0,8.449049950E0
3.446423526E0,2.524950027E0,4.917000294E0,7.906050205E0
3.467213184E0,2.179949999E0,4.957950115E0,7.434000492E0
3.488002839E0,1.812000036E0,4.980000019E0,7.231050491E0
3.508791899E0,1.507050037E0,4.824000359E0,7.662000179E0
3.529580978E0,1.309050083E0,4.549050331E0,8.356050491E0
3.550369605E0,9.900000691E-1,4.240050316E0,8.775000572E0
3.571158222E0,4.680000246E-1,4.182000160E0,8.671950340E0
3.591950070E0,2.149500102E-1,3.892950296E0,8.800950050E0
3.612741915E0,4.800000191E-1,3.658050060E0,9.354000092E0
3.633523140E0,1.336950064E0,2.763000250E0,1.093200016E1
3.654304377E0,1.606050134E0,2.004000187E0,1.306500053E1
3.675091650E0,2.104050159E0,1.153950095E0,1.387695026E1
3.695878915E0,2.002950191E0,7.780500650E-1,1.273695087E1
3.716663027E0,1.254000068E0,1.333050013E0,1.135395050E1
3.737447146E0,1.153050065E0,1.969950080E0,9.988950729E0
3.758234095E0,1.692000031E0,2.652000189E0,9.250950813E0
3.779021054E0,2.487000227E0,3.043050051E0,8.559000015E0
3.799795814E0,2.688000202E0,3.340050220E0,8.089950562E0
3.820570593E0,2.773950100E0,3.352050066E0,7.888950348E0
3.841354615E0,2.745000124E0,3.454950094E0,7.044000149E0
3.862138608E0,2.833950043E0,3.529050112E0,6.249000072E0
3.882920421E0,2.697000027E0,3.639000177E0,5.799000263E0
3.903702232E0,2.551050186E0,3.643950224E0,6.172050476E0
3.924489329E0,2.680950165E0,3.150000095E0,7.222950459E0
3.945276444E0,3.037050247E0,2.760000229E0,8.401050568E0
3.966065467E0,3.322050095E0,2.407950163E0,9.405000687E0
3.986854506E0,2.673000097E0,2.692950010E0,9.225000381E0
4.007638709E0,1.609950066E0,3.495000124E0,8.485050201E0
4.028422906E0,9.589500427E-1,4.157999992E0,7.591950417E0
4.049210573E0,1.002000093E0,4.156050205E0,7.065000534E0
4.069998224E0,6.000000238E-1,4.293000221E0,7.738050461E0
4.090788723E0,1.620000005E-1,3.586050272E0,1.020000076E1
4.111579224E0,-6.900000572E-2,2.274000168E0,1.267305088E1
4.132368087E0,-1.695000008E-2,2.157000065E0,1.280205059E1
4.153156974E0,9.660000205E-1,3.141000032E0,1.162395096E1
4.173943173E0,2.512950182E0,4.048050404E0,1.116405010E1
4.194729368E0,3.631050110E0,4.221000195E0,1.079805088E1
4.215520746E0,3.447000265E0,4.246950150E0,9.543000221E0
4.236312127E0,2.571000099E0,4.510050297E0,8.361000061E0
4.257095453E0,2.250000000E0,4.453050137E0,8.269950867E0
4.277878806E0,2.233050108E0,4.477050304E0,8.449049950E0
4.298664106E0,2.179949999E0,4.479000092E0,8.454000473E0
4.319449373E0,1.945950150E0,4.603950024E0,8.155050278E0
4.340239642E0,1.474050045E0,4.564949989E0,7.840950489E0
4.361029911E0,1.018950105E0,4.594050407E0,7.353000164E0
4.381819486E0,6.979500055E-1,4.783050060E0,7.312050343E0
4.402609065E0,7.249500155E-1,4.702050209E0,7.510950565E0
4.423388570E0,4.870500267E-1,4.852950096E0,7.719000340E0
4.444168113E0,4.369500279E-1,4.672950268E0,8.494950294E0
4.464957305E0,7.819500566E-1,3.945000172E0,1.032600021E1
4.485746492E0,1.351950049E0,2.925000191E0,1.310895061E1
4.506540853E0,2.515050173E0,1.455000043E0,1.445400047E1
4.527335200E0,2.427000046E0,1.240050077E0,1.350795078E1
4.548126724E0,2.215950012E0,1.552950025E0,1.190205097E1
4.568918267E0,2.719050169E0,2.028000116E0,1.062600040E1
4.589707502E0,3.253050089E0,2.494050026E0,9.405000687E0
4.610496733E0,3.382050276E0,2.691000223E0,8.061000824E0
4.631287618E0,3.021000147E0,2.905950069E0,6.754050255E0
4.652078503E0,2.235000134E0,3.069000244E0,5.643000126E0
4.672864690E0,1.419000030E0,3.366000175E0,5.143050194E0
4.693650887E0,1.239000082E0,3.304050207E0,5.263050079E0
4.714448397E0,1.387950063E0,3.466050148E0,5.746050358E0
4.735245892E0,1.558050036E0,3.523950100E0,6.859050274E0
4.756033395E0,1.771050096E0,3.234000206E0,8.179050446E0
4.776820940E0,1.957950115E0,3.262950182E0,8.956950188E0
4.797606957E0,2.022000074E0,3.076050043E0,9.796950340E0
4.818392998E0,1.435950041E0,3.268050194E0,1.006305027E1
4.839180864E0,6.360000372E-1,4.345050335E0,9.934050560E0
4.859968709E0,1.390050054E0,4.495950222E0,8.284049988E0
4.880756988E0,1.759500057E-1,6.466950417E0,7.723950386E0
4.901545295E0,-2.350500077E-1,5.973000050E0,6.700950146E0
4.922332330E0,3.370500207E-1,5.040000439E0,7.558950424E0
4.943119373E0,-9.600000381E-1,5.011050224E0,1.577295113E1
4.963902924E0,-9.430500269E-1,3.007050037E0,1.563195038E1
4.984686465E0,-1.045950055E0,3.325050116E0,1.071405029E1
5.005471853E0,-3.760500252E-1,4.173000336E0,8.089950562E0
5.026257234E0,2.119500041E-1,3.646050215E0,8.665050507E0
5.047042355E0,3.150000274E-1,3.237000227E0,1.087500095E1
5.067827474E0,9.090000391E-1,3.153000116E0,1.034595013E1
5.088617477E0,5.230500102E-1,4.033950329E0,9.345000267E0
5.109407474E0,1.140000075E-1,3.567000151E0,9.043050766E0
5.130199730E0,-2.200500071E-1,3.361050129E0,8.266950607E0
5.150992001E0,-3.040500283E-1,3.130950212E0,7.858050346E0
5.171777126E0,4.680000246E-1,2.200050116E0,7.309950352E0
5.192562247E0,-5.340000391E-1,1.530000091E0,6.814050198E0
5.213344365E0,1.039500013E-1,8.809500337E-1,7.336050510E0
5.234126482E0,1.459950089E0,1.908000112E0,1.030005074E1
5.254914191E0,1.207950115E0,4.606050014E0,1.230705070E1
5.275701882E0,-8.119500279E-1,6.433050156E0,1.052505016E1
5.296491497E0,-7.639500499E-1,5.878050327E0,1.011300087E1
5.317281074E0,-3.600000218E-2,3.720000267E0,9.079050064E0
5.338070309E0,1.627050042E0,3.676950216E0,8.557050705E0
5.358859540E0,1.783050060E0,3.862050295E0,8.389050484E0
5.379650760E0,-3.640500307E-1,4.719000340E0,9.687000275E0
5.400441953E0,-3.299999982E-2,3.157950163E0,1.055400085E1
5.421234262E0,1.369050026E0,1.756950140E0,1.050795078E1
5.442026569E0,4.159500301E-1,3.012000084E0,1.036200047E1
5.462817366E0,-7.249500155E-1,3.703950167E0,9.289950371E0
5.483608175E0,-3.160500228E-1,2.716950178E0,9.691950798E0
5.504396496E0,-1.036949992E0,3.514050245E0,8.179050446E0
5.525184805E0,-1.302000046E0,3.058950186E0,6.996000290E0
5.545971731E0,-1.432050109E0,3.885000229E0,7.317000389E0
5.566758656E0,-8.880000710E-1,3.069000244E0,6.697050095E0
5.587550832E0,-1.972950101E0,3.880950212E0,6.213000298E0
5.608342983E0,-3.028950214E0,4.563000202E0,6.249000072E0
5.629132324E0,-3.586950064E0,4.394999981E0,6.759000301E0
5.649921675E0,-3.637050152E0,3.979050159E0,8.143050194E0
5.670712334E0,-3.699000120E0,3.619950056E0,9.180000305E0
5.691502987E0,-3.639000177E0,4.330950260E0,9.543000221E0
5.712292638E0,-4.972950459E0,4.776000023E0,1.029495049E1
5.733082295E0,-4.690050125E0,5.193000317E0,1.198800087E1
5.753870452E0,-5.539950371E0,5.458950043E0,6.352050304E0
5.774658607E0,-4.173000336E0,4.519950390E0,1.022295094E1
5.795449209E0,-5.908950329E0,4.398000240E0,1.055100060E1
5.816239824E0,-5.542950153E0,5.205000401E0,1.050600052E1
5.855067176E0,-3.895050287E0,5.056050301E0,6.916950226E0
5.875067177E0,-3.424050093E0,5.059050083E0,6.840000153E0
5.895852028E0,-3.034050226E0,5.166000366E0,7.237950325E0
5.916636163E0,-2.830050230E0,5.217000484E0,7.843950272E0
5.937424642E0,-2.670000076E0,5.164050102E0,8.605050087E0
5.958213379E0,-2.631000042E0,4.270950317E0,9.168000221E0
5.978997239E0,-3.093000174E0,4.222949982E0,9.225000381E0
5.999781090E0,-3.124950171E0,4.099050045E0,8.919000626E0
6.020568904E0,-2.947050095E0,3.907050133E0,8.546999931E0
6.041356749E0,-2.703000069E0,4.072050095E0,8.204999924E0
6.062141389E0,-2.392050028E0,4.045950413E0,8.707950592E0
6.082926008E0,-2.023050070E0,4.072050095E0,8.397000313E0
6.103712129E0,-2.035050154E0,4.173000336E0,7.999050617E0
6.124498244E0,-1.635000110E0,4.003050327E0,8.233950615E0
6.145285052E0,-1.627950072E0,4.003050327E0,8.227050781E0
6.166071859E0,-2.152050018E0,4.225049973E0,7.888950348E0
6.186856168E0,-2.157000065E0,4.072050095E0,8.037000656E0
6.207640479E0,-2.358000040E0,4.066950321E0,7.957950592E0
6.228429082E0,-2.602950096E0,4.141950130E0,8.374950409E0
6.249217657E0,-2.947050095E0,4.534049988E0,8.800950050E0
6.270008723E0,-1.240050077E0,3.691950083E0,9.057000160E0
6.290799800E0,1.330050111E0,3.256050110E0,9.440999985E0
6.311591054E0,-1.410000086E0,5.731050491E0,9.184050560E0
6.332382325E0,-2.650050163E0,5.688000202E0,9.108000755E0
6.353171246E0,-2.260050058E0,3.852000237E0,9.164999962E0
6.373960171E0,-8.980500698E-1,1.564950109E0,8.527950287E0
6.394747551E0,1.765950084E0,1.537050128E0,8.907000542E0
6.415534936E0,2.295000076E0,2.217000008E0,8.812950134E0
6.436317820E0,1.918950081E0,2.719050169E0,8.476050377E0
6.457100747E0,1.438050032E0,2.236050129E0,7.213950157E0
6.477885647E0,4.551000118E0,8.110500574E-1,9.048000336E0
6.498670530E0,3.636000156E0,3.664950132E0,1.031895065E1
6.519453735E0,3.061050177E0,3.471000195E0,1.122900009E1
6.540236968E0,3.112050056E0,2.563950062E0,1.229700089E1
6.561020564E0,1.945950150E0,2.628000021E0,1.300095081E1
6.581804141E0,2.707050085E0,1.434000015E0,1.165800095E1
6.602587789E0,2.434050083E0,1.527000070E0,1.149495029E1
6.623371444E0,2.058000088E0,1.483950019E0,1.126500034E1
6.644154050E0,2.026950121E0,1.423950076E0,1.038900089E1
6.664936669E0,1.996050119E0,1.423950076E0,9.886050224E0
6.685725591E0,1.792050123E0,1.660950065E0,9.453000069E0
6.706514512E0,1.371000051E0,1.957950115E0,9.313950539E0
6.727299469E0,1.330050111E0,2.140050173E0,9.226950645E0
6.748084434E0,1.170000076E0,2.514000177E0,9.199050903E0
6.768867828E0,1.270050049E0,2.758050203E0,9.330000877E0
6.789651213E0,1.132050037E0,3.232050180E0,9.342000008E0
6.810439353E0,1.000050068E0,3.093000174E0,9.016950607E0
6.831227506E0,-1.579500139E-1,3.559950113E0,8.542950630E0
6.852015201E0,-1.293000102E0,3.094950199E0,7.747950554E0
6.872802896E0,-1.458000064E0,2.872950077E0,8.938050270E0
6.893590587E0,-1.105949998E0,2.896950245E0,1.000605011E1
6.914378280E0,-6.730500460E-1,2.908950090E0,1.055595016E1
6.935167371E0,3.250500262E-1,1.197000027E0,9.864000320E0
6.955956448E0,1.026000023E0,-1.309050083E0,8.626049995E0
6.976739776E0,4.470000267E-1,1.240050077E0,1.153095055E1
6.997523127E0,5.310000181E-1,3.589500189E-1,1.059195042E1
7.018306671E0,2.170500159E-1,4.900500178E-1,1.007700062E1
7.039090210E0,-9.105000645E-2,8.329500556E-1,9.333000183E0
7.059878230E0,5.520000458E-1,9.259500504E-1,8.667000771E0
7.080666229E0,1.038000107E0,9.910500646E-1,7.744950294E0
7.101457306E0,1.359000087E0,1.369050026E0,7.225950241E0
7.122248383E0,1.369050026E0,1.707000136E0,6.970050335E0
7.143029352E0,1.042950034E0,1.969950080E0,7.113000393E0
7.163810319E0,7.990500331E-1,2.154000044E0,7.903050423E0
7.184596013E0,1.030950069E0,2.608950138E0,6.412050247E0
7.205381704E0,1.207950115E0,2.961000204E0,7.020000458E0
7.226173975E0,1.546050072E0,3.313050270E0,6.742050171E0
7.246966242E0,1.849950075E0,3.294000149E0,7.324050426E0
7.267750939E0,1.938000083E0,3.466050148E0,7.705050468E0
7.288535598E0,1.515000105E0,3.613050222E0,7.851000309E0
7.309321603E0,1.594050050E0,3.889950275E0,8.266950607E0
7.330107602E0,1.348950028E0,4.044000149E0,8.545050621E0
7.350899923E0,6.139500141E-1,4.326000214E0,8.368050575E0
7.371692228E0,-3.589500189E-1,5.052000046E0,8.140049934E0
7.392475888E0,-4.069500268E-1,5.688000202E0,8.241000175E0
7.413259549E0,6.360000372E-1,5.386950493E0,8.914050102E0
7.434042626E0,1.206000090E0,4.893000126E0,1.008900070E1
7.454825703E0,1.366050124E0,3.712950230E0,1.092300034E1
7.475609702E0,1.360950112E0,2.758050203E0,1.246695042E1
7.496393703E0,1.318050027E0,1.846050143E0,1.374105072E1
7.517177552E0,6.409500241E-1,1.780950069E0,1.351800060E1
7.537961401E0,8.590500355E-1,2.356050014E0,1.237395096E1
7.558742207E0,2.173050165E0,2.596950054E0,1.165800095E1
7.579523016E0,3.198000193E0,2.415000200E0,1.237605095E1
7.600308534E0,3.241050243E0,2.308050156E0,1.246500015E1
7.621094073E0,2.530050039E0,2.647950172E0,1.132695007E1
7.641879422E0,1.840050101E0,3.055050135E0,9.558000565E0
7.662664771E0,1.570050120E0,3.295950174E0,8.143050194E0
7.683450348E0,1.261050105E0,3.499950171E0,7.216050148E0
7.704235925E0,7.920000553E-1,3.469050169E0,6.970050335E0
7.725023447E0,2.550000250E-1,3.307950258E0,7.117950439E0
7.745810988E0,-2.779500186E-1,3.079050064E0,7.173000336E0
7.766596524E0,-4.290000200E-1,2.881950140E0,7.686000347E0
7.787382065E0,-3.850500286E-1,2.655000210E0,8.221950531E0
7.808165617E0,1.050000079E-3,2.431950092E0,8.796000481E0
7.828949156E0,5.160000324E-1,2.205000162E0,9.105000496E0
7.849736937E0,9.499500394E-1,2.128050089E0,9.067049980E0
7.870524742E0,1.321050048E0,2.137950182E0,8.952000618E0
7.891304606E0,1.330050111E0,2.341050148E0,8.634000778E0
7.912084497E0,1.218000054E0,2.535000086E0,8.362950325E0
7.932869405E0,8.749500513E-1,3.000000238E0,8.521050453E0
7.953654286E0,1.053000093E0,3.238950253E0,8.983050346E0
7.974436446E0,1.404000044E0,3.640950203E0,9.421050072E0
7.995218603E0,1.621950030E0,3.772950172E0,9.781050682E0
8.016002784E0,2.014950037E0,3.700950146E0,1.011795044E1
8.036786977E0,1.930950046E0,3.660000086E0,1.088700008E1
8.057567589E0,1.524000049E0,3.358950138E0,1.137300014E1
8.078348208E0,1.669950128E0,2.698050022E0,1.108305073E1
8.099129746E0,1.285050035E0,2.719050169E0,1.136295033E1
8.119911285E0,7.530000210E-1,2.557050228E0,1.170795059E1
8.140696979E0,6.600000262E-1,2.605050087E0,1.157595062E1
8.161482670E0,7.530000210E-1,3.091050148E0,1.058505058E1
8.182267251E0,1.153050065E0,3.589050055E0,9.678000450E0
8.203051830E0,1.696950078E0,3.931050301E0,9.049950600E0
8.223838638E0,2.014950037E0,4.210950375E0,8.530950546E0
8.244625445E0,2.074949980E0,4.405050278E0,7.980000496E0
8.265409298E0,1.834950089E0,4.635000229E0,7.341000557E0
8.286193147E0,1.689000130E0,4.740000248E0,6.747000217E0
8.306976151E0,1.732950091E0,4.692000389E0,6.304050446E0
8.327759190E0,1.624950051E0,4.660950184E0,6.211050510E0
8.348543654E0,1.689000130E0,4.594050407E0,6.520050526E0
8.369328113E0,1.512000084E0,4.375950336E0,6.960000515E0
8.390116083E0,1.572000027E0,4.242000103E0,7.189950466E0
8.410904084E0,1.464000106E0,4.383000374E0,6.736950397E0
8.431686132E0,1.227000117E0,4.563000202E0,6.589050293E0
8.452468175E0,1.290000081E0,4.744950294E0,6.754050255E0
8.473251555E0,1.606050134E0,4.801950455E0,7.164000511E0
8.494034940E0,1.780050039E0,4.903050423E0,7.827000141E0
8.514819342E0,1.792050123E0,5.131050110E0,8.380050659E0
8.535603767E0,1.452000022E0,5.668950081E0,8.638050079E0
8.556390862E0,8.800500631E-1,6.415950298E0,8.683950424E0
8.577177979E0,5.020500422E-1,7.282950401E0,8.956950188E0
8.597966902E0,6.529500484E-1,6.652950287E0,8.986050606E0
8.618755825E0,3.610500097E-1,5.997000217E0,9.816000938E0
8.639545978E0,-2.149500102E-1,5.382000446E0,1.125105095E1
8.660336133E0,-7.090500593E-1,4.956000328E0,1.215600014E1
8.681129787E0,-4.429500103E-1,4.951050282E0,1.159800053E1
8.701923440E0,5.310000181E-1,5.262000084E0,1.036005020E1
8.722710699E0,2.110949993E0,5.209950447E0,1.003200054E1
8.743497974E0,3.444000244E0,4.723050117E0,1.032405090E1
8.764287537E0,3.391950130E0,4.419000149E0,1.008900070E1
8.785077074E0,2.584950209E0,4.506000042E0,9.180000305E0
8.805864164E0,2.080049992E0,4.755000114E0,7.840950489E0
8.826651243E0,1.812000036E0,4.999050140E0,6.625050545E0
8.847440266E0,1.773000121E0,5.080050468E0,6.073950291E0
8.868229305E0,1.789950132E0,5.032050133E0,5.731950283E0
8.889013341E0,1.752000093E0,5.077950478E0,5.365050316E0
8.909797344E0,1.548000097E0,5.098950386E0,5.116050243E0
8.930580306E0,1.146000028E0,5.049000263E0,4.927050114E0
8.951363267E0,6.220500469E-1,5.040000439E0,4.969950199E0
8.972148770E0,2.890500128E-1,5.101950169E0,5.374950409E0
8.992934271E0,1.980000138E-1,5.040000439E0,6.010050297E0
9.013718784E0,3.889500201E-1,4.965000153E0,7.057950497E0
9.034503287E0,5.860500336E-1,4.893000126E0,8.296050072E0
9.055286823E0,4.230000079E-1,5.095050335E0,8.938050270E0
9.076070364E0,6.430500150E-1,5.455950260E0,9.124050140E0
9.096855701E0,1.354050040E0,5.560950279E0,9.769050598E0
9.117641046E0,2.046000004E0,5.013000011E0,1.130805016E1
9.138424870E0,2.440950155E0,4.102950096E0,1.290495014E1
9.159208719E0,2.356950045E0,3.652950287E0,1.316805077E1
9.179994257E0,1.527000070E0,3.964050293E0,1.189500046E1
9.200779796E0,8.490000367E-1,4.515000343E0,1.072605038E1
9.221565387E0,1.105050087E0,4.891050339E0,1.053495026E1
9.242350964E0,2.170950174E0,4.989000320E0,1.054395008E1
9.263135730E0,3.250050068E0,4.944000244E0,9.651000023E0
9.283920503E0,3.447000265E0,5.041950226E0,8.281949997E0
9.304701568E0,3.181050062E0,5.113950253E0,7.183050156E0
9.325482647E0,2.998950243E0,4.872000217E0,7.018050194E0
9.346268932E0,2.611050129E0,4.431000233E0,7.398000240E0
9.367055237E0,2.146950006E0,4.254000187E0,7.516050339E0
9.387843184E0,2.020050049E0,4.221000195E0,7.015050411E0
9.408631147E0,1.941000104E0,4.270950317E0,5.863050461E0
9.429414409E0,1.723050117E0,4.414950371E0,5.032950401E0
9.450197684E0,1.279950023E0,4.633050442E0,4.834050179E0
9.470986261E0,1.239000082E0,4.588950157E0,5.370000362E0
9.491774834E0,1.333050013E0,4.470000267E0,6.088950157E0
9.512560980E0,1.440000057E0,4.446000099E0,6.939000130E0
9.533347137E0,1.567050099E0,4.455000401E0,7.828950405E0
9.554128994E0,1.882950068E0,4.656000137E0,8.464050293E0
9.574910843E0,2.070000172E0,4.909950256E0,9.208050728E0
9.595695888E0,2.628000021E0,5.245050430E0,9.523950577E0
9.616480963E0,2.808000088E0,5.206950188E0,9.412050247E0
9.637262026E0,1.965000153E0,5.698050499E0,9.598950386E0
9.658043107E0,1.210950017E0,5.845950127E0,9.133950233E0
9.678824035E0,6.289500594E-1,6.234000206E0,9.366000175E0
9.699604958E0,1.789500117E-1,6.070950508E0,1.003905010E1
9.720388530E0,4.005000368E-2,5.740950108E0,1.089900017E1
9.741172069E0,-1.360500008E-1,5.640000343E0,1.112895012E1
9.761951744E0,2.260500044E-1,5.644950390E0,1.127895069E1
9.782731439E0,1.360950112E0,5.262000084E0,1.145700073E1
9.803513903E0,2.250000000E0,5.113950253E0,1.093005085E1
9.824296362E0,2.479950190E0,5.092050076E0,9.625050545E0
9.845084877E0,2.095950127E0,5.238000393E0,7.674000263E0
9.865873376E0,1.534050107E0,5.344050407E0,6.100950241E0
9.886655338E0,1.255950093E0,5.506050110E0,5.205000401E0
9.907437305E0,1.483050108E0,5.419950485E0,4.900950432E0
9.928221202E0,1.633950114E0,5.479950428E0,4.990050316E0
9.949005085E0,1.159950018E0,5.353050232E0,5.895000458E0
9.969787568E0,8.040000200E-1,5.181000233E0,7.290000439E0
9.990570031E0,5.110500455E-1,4.957950115E0,8.655000687E0
1.001134772E1,3.870000243E-1,5.200050354E0,9.229950905E0
1.003212542E1,1.605000161E-2,5.857950211E0,8.755949974E0
1.005290911E1,-4.309500158E-1,6.519000530E0,8.217000008E0
1.007369276E1,4.060500264E-1,6.382950306E0,8.422950745E0
1.009447785E1,1.138950109E0,6.270000458E0,9.418950081E0
1.011526296E1,2.034000158E0,5.107050419E0,1.158105087E1
1.013604814E1,2.745000124E0,3.754050255E0,1.298595047E1
1.015683337E1,1.978950143E0,3.696000099E0,1.194000053E1
1.017761599E1,1.090950012E0,4.225049973E0,9.961950302E0
1.019839858E1,1.045050025E0,4.630050182E0,8.779950142E0
1.021918275E1,1.495050073E0,4.663950443E0,8.218950272E0
1.023996690E1,1.716000080E0,4.764000416E0,7.741050243E0
1.026075705E1,1.564950109E0,4.816950321E0,7.101000309E0
1.028154720E1,1.306050062E0,4.891050339E0,6.409050465E0
1.030233783E1,1.231950045E0,4.816950321E0,6.036000252E0
1.032312845E1,1.029000044E0,4.788000107E0,5.794050217E0
1.034391475E1,1.057050109E0,4.755000114E0,5.953950405E0
1.036470106E1,1.203000069E0,4.848000050E0,6.259050369E0
1.038549090E1,1.725000024E0,5.008050442E0,6.570000172E0
1.040628074E1,2.017050028E0,5.032050133E0,6.919050217E0
1.042706874E1,2.032050133E0,4.999050140E0,7.309950352E0
1.044785674E1,1.713000059E0,5.241000175E0,7.258950233E0
1.046864154E1,1.570050120E0,5.499000072E0,7.111050129E0
1.048942635E1,1.383000016E0,5.731050491E0,7.492050171E0
1.051021126E1,1.237050056E0,5.940000057E0,8.116050720E0
1.053099619E1,8.710500598E-1,6.040050507E0,8.622000694E0
1.055178217E1,5.740500093E-1,6.193950176E0,8.908950806E0
1.057256813E1,-3.210000098E-1,6.555000305E0,8.530950546E0
1.059335196E1,-1.305000067E0,6.826050282E0,7.626000404E0
1.061413582E1,-2.116950035E0,7.180050373E0,6.751950264E0
1.063492738E1,-2.100000143E0,6.973950386E0,6.412050247E0
1.065571895E1,-1.590000033E0,6.433050156E0,8.056950569E0
1.067650739E1,-6.850500107E-1,5.575950146E0,9.184050560E0
1.069729582E1,3.870000243E-1,5.350950241E0,9.333000183E0
1.071808062E1,6.550500393E-1,5.077950478E0,9.426000595E0
1.073886539E1,6.259500384E-1,4.666050434E0,1.000995064E1
1.075964800E1,8.080500364E-1,4.585050106E0,1.042005062E1
1.078043062E1,1.324950099E0,4.549050331E0,9.577050209E0
1.080121494E1,2.209050179E0,5.109000206E0,8.014050484E0
1.082199924E1,1.287000060E0,6.438000202E0,6.007050514E0
1.084279231E1,1.114950061E0,5.671950340E0,5.326950073E0
1.086358539E1,9.589500427E-1,5.131050110E0,6.718050480E0
1.088437322E1,1.162950039E0,4.900950432E0,8.241000175E0
1.090516107E1,1.411950111E0,4.101000309E0,9.313950539E0
1.092594942E1,4.780500233E-1,4.623000145E0,1.066905022E1
1.094673777E1,-1.339500099E-1,4.767000198E0,1.092300034E1
1.096752640E1,-9.169500470E-1,4.888950348E0,1.050795078E1
1.098831501E1,-1.270950079E0,4.123050213E0,1.054695034E1
1.100910547E1,-6.970500350E-1,3.136050224E0,1.106400013E1
1.102989594E1,-3.420000076E-1,3.337050200E0,1.196895027E1
1.105068424E1,8.200500607E-1,3.771000147E0,1.163400078E1
1.107147255E1,8.110500574E-1,3.792000294E0,1.014195061E1
1.109225960E1,-6.850500107E-1,3.253050089E0,9.333000183E0
1.111304668E1,-2.188050032E0,3.129000187E0,9.915000916E0
1.113383416E1,-1.246950030E0,2.901000023E0,1.061100006E1
1.115462166E1,-3.600000218E-2,2.971050024E0,1.063500023E1
1.117541247E1,1.159950018E0,3.040050030E0,1.063995075E1
1.119620328E1,1.777950048E0,2.463000059E0,9.529050827E0
1.121699344E1,-1.089000106E0,4.015050411E0,7.888950348E0
1.123778360E1,-1.918050051E0,4.351950169E0,6.675000191E0
1.125857973E1,-8.550000191E-1,3.972000122E0,6.949950218E0
1.127937584E1,-7.350000143E-1,4.723050117E0,7.123050213E0
1.130016322E1,-2.299500108E-1,4.501049995E0,7.173000336E0
1.132095061E1,-2.730000019E-1,4.474050045E0,7.149000168E0
1.134174111E1,-6.660000086E-1,4.587000370E0,7.132050514E0
1.136253161E1,-6.780000329E-1,4.515000343E0,7.132050514E0
1.138332081E1,2.050500065E-1,4.342950344E0,7.189950466E0
1.140411000E1,4.080000222E-1,4.290000439E0,7.951050282E0
1.142489603E1,-1.200000010E-2,4.917000294E0,8.791950226E0
1.144568207E1,4.039500058E-1,4.744950294E0,9.057000160E0
1.146647359E1,1.500000060E-1,4.314000130E0,9.778050423E0
1.148726509E1,-8.329500556E-1,4.162950039E0,1.013505077E1
1.150805482E1,-2.919000149E0,5.470950127E0,9.835950851E0
1.152884455E1,-2.272050142E0,4.458000183E0,9.022050858E0
1.154963206E1,-2.445000172E0,4.732950211E0,8.682000160E0
1.157041956E1,-2.080950022E0,4.627950191E0,9.972000122E0
1.159120329E1,-1.468050122E0,4.221000195E0,1.015605068E1
1.161198702E1,-1.053000093E0,3.835050106E0,1.010895061E1
1.163277344E1,-1.459500045E-1,3.670050144E0,1.021605015E1
1.165355986E1,4.420500100E-1,3.736950159E0,8.859000206E0
1.167434571E1,3.580500185E-1,4.066950321E0,7.966050148E0
1.169513156E1,-2.595000155E-2,4.210950375E0,7.609050274E0
1.171591650E1,1.950000077E-1,4.361999989E0,6.964950562E0
1.173670142E1,5.380499959E-1,4.953000069E0,6.184050083E0
1.175748655E1,9.259500504E-1,4.933950424E0,5.586000443E0
1.177827167E1,1.108050108E0,4.747050285E0,6.448050499E0
1.179905746E1,1.230000019E0,4.491000175E0,7.702050209E0
1.181984327E1,7.510500550E-1,4.338000298E0,9.369000435E0
1.184062988E1,3.990000188E-1,3.876000166E0,9.888000488E0
1.186141650E1,-4.860000312E-1,3.969000101E0,1.013205051E1
1.188220295E1,-1.207050085E0,4.209000111E0,1.029795074E1
1.190298941E1,-1.567950130E0,4.903050423E0,1.045605087E1
1.192377945E1,-1.020000100E0,4.234950066E0,1.081500053E1
1.194456949E1,-1.960500032E-1,4.008000374E0,1.214595032E1
1.196536006E1,-1.200000010E-2,4.273050308E0,1.196205044E1
1.198615064E1,1.800000109E-2,3.940950155E0,1.053705025E1
1.200694176E1,3.580500185E-1,4.054950237E0,8.773050308E0
1.202773288E1,5.700000376E-2,4.290000439E0,7.591950417E0
1.204852101E1,2.119500041E-1,4.375950336E0,7.650000572E0
1.206930913E1,-1.480500102E-1,3.462000132E0,8.035050392E0
1.209010162E1,2.650500238E-1,2.857950211E0,8.866050720E0
1.211089411E1,-3.160500228E-1,3.784950256E0,7.999050617E0
1.213168146E1,-4.879500270E-1,3.808950186E0,8.248050690E0
1.215246881E1,-4.789500237E-1,3.718050241E0,7.599000454E0
1.217325277E1,-2.850000262E-1,4.156050205E0,6.880950451E0
1.219403677E1,1.024049997E0,4.324050426E0,5.952000141E0
1.221482432E1,1.590000093E-1,5.169000149E0,5.056950092E0
1.223561185E1,-4.995000362E-2,4.611000061E0,5.380050182E0
1.225639987E1,-8.190000653E-1,4.647000313E0,7.057950497E0
1.227718787E1,-9.940500259E-1,4.422000408E0,8.800950050E0
1.229797063E1,-6.700500250E-1,3.639000177E0,9.378000259E0
1.231875341E1,-1.021950006E0,3.469050169E0,1.003200054E1
1.233953295E1,-1.579950094E0,3.739050150E0,1.044105053E1
1.236031253E1,-5.509500504E-1,2.011049986E0,1.057305050E1
1.238109817E1,-3.379500210E-1,2.401050091E0,1.138500023E1
1.240188382E1,-9.700500369E-1,3.724950075E0,1.198800087E1
1.242267169E1,-1.561050057E0,4.003050327E0,1.194000053E1
1.244345958E1,-1.687950134E0,3.592950106E0,1.089105034E1
1.246424666E1,-1.470000029E0,3.775050163E0,9.895050049E0
1.248503374E1,-1.255050063E0,4.326000214E0,8.851950645E0
1.250581922E1,-1.018050075E0,4.936950207E0,8.506950378E0
1.252660472E1,-1.015050054E0,4.948950291E0,8.080950737E0
1.254738522E1,-1.009950042E0,4.836000443E0,8.822999954E0
1.256816572E1,-2.749500275E-1,3.895050287E0,9.265950203E0
1.258895542E1,7.440000176E-1,2.784000158E0,9.828000069E0
1.260974511E1,5.879999995E-1,2.940000057E0,9.961950302E0
1.263053417E1,-2.539499998E-1,3.828000069E0,9.826050758E0
1.265132325E1,-8.239500523E-1,4.234950066E0,9.424050331E0
1.267211152E1,-1.377000093E0,3.885000229E0,8.659950256E0
1.269289979E1,-1.000950098E0,3.046950102E0,8.638050079E0
1.271368903E1,-8.209500313E-1,2.887050152E0,8.574000359E0
1.273447826E1,-7.180500627E-1,3.249000072E0,9.409049988E0
1.275527197E1,-1.279050112E0,3.720000267E0,1.022805023E1
1.277606566E1,-1.137000084E0,3.079050064E0,1.055100060E1
1.279685580E1,-8.569500446E-1,2.119050026E0,1.077195072E1
1.281764596E1,-1.161000013E0,1.735050082E0,1.147095013E1
1.283843888E1,-1.678050041E0,2.188050032E0,1.169805050E1
1.285923180E1,-1.651950121E0,2.466000080E0,1.128405094E1
1.288001702E1,-1.566000104E0,2.578050137E0,1.153800011E1
1.290080225E1,-1.069950104E0,2.587950230E0,1.098705006E1
1.292159460E1,-7.369500399E-1,2.722050190E0,9.745050430E0
1.294238694E1,-7.399500608E-1,2.869950056E0,8.926050186E0
1.296317341E1,-1.009950042E0,3.184050083E0,8.348999977E0
1.298395988E1,-1.486950040E0,3.715050220E0,8.293950081E0
1.300474372E1,-9.889500737E-1,3.181950092E0,8.919000626E0
1.302552757E1,-6.060000062E-1,2.748000145E0,8.320050240E0
1.304631645E1,-4.210500121E-1,3.790050268E0,7.786050320E0
1.306710533E1,-1.057950020E0,3.672000170E0,6.393000126E0
1.308789044E1,-1.876950145E0,3.295950174E0,6.523950100E0
1.310867556E1,-2.514000177E0,3.328050137E0,6.570000172E0
1.312946321E1,-2.583000183E0,3.277050257E0,6.838050365E0
1.315025086E1,-2.287050009E0,3.340050220E0,7.111050129E0
1.317102936E1,-2.254950047E0,3.106950045E0,8.065950394E0
1.319180787E1,-2.467950106E0,2.596950054E0,8.746050835E0
1.321259461E1,-1.815000057E0,2.535000086E0,9.205950737E0
1.323338133E1,-2.071050167E0,3.189000130E0,9.769050598E0
1.325416701E1,-2.494950056E0,3.454950094E0,9.886050224E0
1.327495270E1,-3.405000210E0,2.949000120E0,1.136100101E1
1.329574260E1,-3.466950178E0,3.177000046E0,1.320900059E1
1.331653248E1,-2.977950096E0,2.988000154E0,1.418100071E1
1.333732121E1,-2.095050097E0,2.889000177E0,1.285200024E1
1.335810998E1,-2.500050068E0,2.775000095E0,1.140900040E1
1.337889817E1,-2.386950016E0,3.931050301E0,1.083600044E1
1.339968632E1,-2.811000109E0,2.988000154E0,8.455950737E0
1.342047395E1,-2.976000071E0,3.544950247E0,8.587950706E0
1.344126161E1,-3.153000116E0,3.553050280E0,8.902050018E0
1.346204612E1,-2.799000025E0,3.541050196E0,9.583950043E0
1.348283062E1,-2.473050117E0,3.780000210E0,1.023300076E1
1.350361616E1,-1.951050043E0,3.471000195E0,9.775950432E0
1.352440170E1,-1.882050037E0,3.322950125E0,8.787000656E0
1.354518919E1,-1.471950054E0,3.136050224E0,7.360050201E0
1.356597669E1,-1.690050125E0,3.201000214E0,6.529050350E0
1.358676100E1,-1.827000141E0,3.397050142E0,6.232050419E0
1.360754531E1,-2.056950092E0,3.967050076E0,6.139050484E0
1.362833037E1,-1.626000047E0,3.874050140E0,6.369000435E0
1.364911544E1,-1.401000023E0,3.660000086E0,7.318950176E0
1.366989991E1,-1.563000083E0,3.631950140E0,7.899000168E0
1.369068437E1,-2.278950214E0,3.457050085E0,8.515950203E0
1.371146964E1,-3.004950047E0,3.442950249E0,8.820000648E0
1.373225491E1,-2.986050129E0,3.382950068E0,8.409000397E0
1.375303887E1,-2.554950237E0,3.418950081E0,8.989950180E0
1.377382283E1,-3.414000273E0,3.933000088E0,9.739950180E0
1.379460932E1,-5.073000431E0,4.606050014E0,1.073100090E1
1.381539582E1,-5.713050365E0,5.073000431E0,1.078095055E1
1.383618045E1,-4.888950348E0,5.410950184E0,9.994050026E0
1.385696506E1,-3.985950232E0,5.154000282E0,1.045305061E1
1.387774765E1,-3.337950230E0,5.647950172E0,1.078095055E1
1.389853026E1,-3.097950220E0,5.178000450E0,1.014705086E1
1.391930859E1,-3.555000067E0,4.819050312E0,9.508050919E0
1.394008690E1,-3.454950094E0,5.266950130E0,9.153000832E0
1.396086899E1,-3.856950283E0,5.515950203E0,9.706050873E0
1.398165111E1,-3.682050228E0,5.272050381E0,1.013700008E1
1.400242978E1,-2.895000219E0,4.225049973E0,1.016805077E1
1.402320844E1,-3.201000214E0,4.720950127E0,7.788000584E0
1.404399613E1,-3.903000116E0,4.324050426E0,5.218950272E0
1.406478382E1,-4.008000374E0,3.996000290E0,6.976950169E0
1.408556675E1,-4.816950321E0,4.651950359E0,8.266950607E0
1.410634968E1,-4.804950237E0,4.278000355E0,7.707000256E0
1.415024158E1,-4.621050358E0,4.273050308E0,7.113000393E0
1.417024159E1,-4.924950123E0,3.919050217E0,8.026050568E0
1.419101869E1,-4.671000004E0,3.493050098E0,8.727000237E0
1.421179482E1,-4.209000111E0,3.340050220E0,8.715000153E0
1.423257269E1,-4.027050018E0,3.268050194E0,8.822999954E0
1.425335081E1,-3.972000122E0,3.298950195E0,8.293950081E0
1.427413342E1,-3.747000217E0,3.718050241E0,9.076950073E0
1.429491604E1,-3.406950235E0,4.848000050E0,9.079050064E0
1.431570017E1,-3.181950092E0,4.720950127E0,8.878050804E0
1.433648428E1,-2.416050196E0,4.021950245E0,9.274950027E0
1.435727154E1,-3.250950098E0,4.575000286E0,9.579000473E0
1.437805881E1,-3.205950260E0,4.804950237E0,8.500050545E0
1.439883907E1,-2.847000122E0,3.217050076E0,8.622000694E0
1.441961934E1,-2.512050152E0,2.605050087E0,1.084395027E1
1.444040417E1,-2.962050200E0,3.907050133E0,8.908950806E0
1.446118897E1,-3.534000158E0,3.991050243E0,8.358000755E0
1.448196820E1,-8.860500455E-1,2.410950184E0,1.020195007E1
1.450274744E1,1.227000117E0,1.699950099E0,8.112000465E0
1.452352910E1,2.812050104E0,1.893000126E0,5.686050415E0
1.454431075E1,3.046950102E0,3.174000263E0,8.344050407E0
1.456509584E1,3.085050106E0,3.859050274E0,8.749050140E0
1.458588092E1,2.890950203E0,3.760950089E0,8.751000404E0
1.460666188E1,3.073050261E0,3.841950178E0,8.236050606E0
1.462744285E1,2.086950064E0,4.732950211E0,8.284049988E0
1.464822915E1,7.410000563E-1,4.141950130E0,7.384050369E0
1.466901546E1,-5.650500059E-1,3.411000252E0,7.105950356E0
1.468979128E1,6.670500040E-1,2.752950191E0,9.049950600E0
1.471056710E1,1.323000073E0,3.117000103E0,9.703950882E0
1.473134546E1,2.130000114E0,3.475950241E0,9.400050163E0
1.475212380E1,1.720950127E0,4.039050102E0,9.782999992E0
1.477290284E1,1.795050144E0,4.054950237E0,1.116000080E1
1.479368188E1,2.434050083E0,3.919050217E0,1.283295059E1
1.481446297E1,1.689000130E0,3.061950207E0,1.101600075E1
1.483524404E1,2.038950205E0,1.936950088E0,1.027605057E1
1.485602836E1,1.504950047E0,3.601050138E0,1.164600086E1
1.487681267E1,2.968050241E0,1.840950131E0,1.073100090E1
1.489759144E1,2.854950190E0,2.262000084E0,9.916950226E0
1.491837021E1,2.213999987E0,2.614050150E0,8.848950386E0
1.493914805E1,3.004050255E0,2.739000082E0,9.748950005E0
1.495992590E1,3.729000092E0,2.578050137E0,9.859950066E0
1.498070657E1,3.205050230E0,2.427000046E0,8.682000160E0
1.500148722E1,2.314050198E0,2.446950197E0,9.807000160E0
1.502226706E1,2.005050182E0,2.176050186E0,9.948000908E0
1.504304691E1,1.218000054E0,2.128050089E0,9.417000771E0
1.506383272E1,7.995000482E-2,2.736000061E0,8.722050667E0
1.508461853E1,2.910000086E-1,2.664000034E0,8.583000183E0
1.510539791E1,8.950500488E-1,2.794050217E0,8.890050888E0
1.512617730E1,9.229500294E-1,3.024000168E0,8.454000473E0
1.514696273E1,1.018950105E0,2.856000185E0,7.759950161E0
1.516774815E1,9.709500670E-1,3.019050121E0,7.152000427E0
1.518853041E1,1.147950053E0,3.430950165E0,7.213950157E0
1.520931268E1,1.222950101E0,3.285000086E0,6.862050533E0
1.523009670E1,1.311000109E0,3.145950079E0,7.057950497E0
1.525088070E1,8.950500488E-1,3.198000193E0,7.080000401E0
1.527166377E1,5.310000181E-1,3.337050200E0,7.053000450E0
1.529244685E1,4.420500100E-1,3.403950214E0,6.972000122E0
1.531323197E1,5.950500369E-1,3.531000137E0,6.586950302E0
1.533401708E1,5.260500312E-1,3.462000132E0,6.364050388E0
1.535480294E1,2.550000250E-1,3.370950222E0,6.462000370E0
1.537558879E1,1.429500133E-1,3.193950176E0,7.029000282E0
1.539637077E1,-2.350500077E-1,3.210000038E0,7.204050541E0
1.541715277E1,-6.900000572E-2,3.265050173E0,7.381050587E0
1.543793261E1,-4.360500276E-1,3.708000183E0,7.099050522E0
1.545871246E1,-1.285950065E0,4.330950260E0,7.081950188E0
1.547950200E1,-4.210500121E-1,4.246950150E0,8.253000259E0
1.550029154E1,7.099500299E-1,4.084050179E0,1.015200043E1
1.552107215E1,1.171950102E0,3.790050268E0,1.248795033E1
1.554185277E1,1.369050026E0,3.292050123E0,1.466505051E1
1.556264043E1,2.029050112E0,3.225000143E0,1.505295086E1
1.558342808E1,2.641950130E0,3.553050280E0,1.391505051E1
1.560421624E1,2.854950190E0,3.967050076E0,1.320000076E1
1.562500439E1,2.761950016E0,4.209000111E0,1.243305016E1
1.564578993E1,3.042000055E0,4.354950428E0,1.178700066E1
1.566657547E1,3.411000252E0,4.290000439E0,1.188300037E1
1.568736053E1,3.850950241E0,4.021950245E0,1.186800098E1
1.570814561E1,4.030950069E0,3.877950191E0,1.099200058E1
1.572892591E1,4.065000057E0,3.739050150E0,9.976950645E0
1.574970622E1,4.042950153E0,3.507000208E0,9.742050171E0
1.577049560E1,3.796050072E0,3.225000143E0,9.361950874E0
1.579128498E1,3.064050198E0,3.201000214E0,8.643000603E0
1.581206625E1,2.499000072E0,3.319950104E0,7.650000572E0
1.583284753E1,2.037000179E0,3.616950274E0,6.694050312E0
1.585362399E1,1.912050128E0,3.838050127E0,6.265950203E0
1.587440045E1,1.989000082E0,4.101000309E0,5.980950356E0
1.589518748E1,2.460000038E0,4.245000362E0,5.554950237E0
1.591597451E1,2.467950106E0,4.446000099E0,4.930050373E0
1.593675562E1,2.233050108E0,4.612950325E0,4.582950115E0
1.595753674E1,2.074949980E0,4.366950035E0,4.647000313E0
1.597832055E1,2.014950037E0,4.690050125E0,5.389050484E0
1.599910435E1,2.404950142E0,4.549050331E0,6.072000504E0
1.601988789E1,2.451000214E0,4.414950371E0,6.594000340E0
1.604067143E1,2.500950098E0,4.410000324E0,6.958050251E0
1.606145793E1,2.920050144E0,4.680000305E0,7.045950413E0
1.608224443E1,3.076050043E0,4.944000244E0,7.068000317E0
1.610303223E1,3.028050184E0,5.065950394E0,6.994050503E0
1.612382004E1,3.187950134E0,5.202000141E0,7.615950584E0
1.614460819E1,2.989950180E0,5.248050213E0,8.919000626E0
1.616539635E1,2.580000162E0,5.449050426E0,1.018305016E1
1.618618249E1,2.331000090E0,5.937000275E0,1.045800018E1
1.620696865E1,2.568000078E0,6.130950451E0,9.988950729E0
1.622775624E1,2.707050085E0,6.547950268E0,1.009905052E1
1.624854382E1,3.631050110E0,5.904000282E0,1.140405083E1
1.626933044E1,4.725000381E0,4.915050030E0,1.228995037E1
1.629011706E1,4.527000427E0,4.513050079E0,1.233795071E1
1.631090410E1,3.970950127E0,4.633050442E0,1.087200069E1
1.633169114E1,3.655050278E0,5.005950451E0,9.412050247E0
1.635247498E1,3.511050224E0,5.178000450E0,8.409000397E0
1.637325883E1,3.138000250E0,4.945950031E0,8.365950584E0
1.639404882E1,2.350050211E0,4.506000042E0,8.308050156E0
1.641483882E1,1.648950100E0,4.398000240E0,8.100000381E0
1.643562008E1,1.503000021E0,4.543950081E0,7.762050152E0
1.645640136E1,1.443000078E0,4.666050434E0,7.117950439E0
1.647718428E1,1.302000046E0,4.783050060E0,6.306000233E0
1.649796720E1,1.207950115E0,4.825950146E0,5.605050087E0
1.651874993E1,1.074000001E0,4.876950264E0,5.217000484E0
1.653953266E1,1.294050097E0,4.627950191E0,6.010050297E0
1.656031450E1,1.582050085E0,4.273050308E0,6.940950394E0
1.658109634E1,2.049000025E0,4.032000065E0,7.666050434E0
1.660187946E1,2.608950138E0,3.835050106E0,7.920000553E0
1.662266258E1,2.544000149E0,3.862050295E0,7.614000320E0
1.664344918E1,2.566050053E0,4.048050404E0,7.069950104E0
1.666423576E1,2.616000175E0,4.446000099E0,6.385050297E0
1.668502190E1,2.697000027E0,4.849950314E0,5.800950050E0
1.670580806E1,2.709000111E0,5.145000458E0,5.860950470E0
1.672658826E1,2.788050175E0,5.284050465E0,6.574950218E0
1.674736845E1,2.776050091E0,5.221050262E0,7.563000202E0
1.676815630E1,2.664000034E0,5.605050087E0,8.346000671E0
1.678894414E1,2.905950069E0,6.001950264E0,8.956950188E0
1.680973380E1,3.142950058E0,6.262950420E0,9.376049995E0
1.683052345E1,2.808000088E0,6.495000362E0,8.758049965E0
1.685131682E1,2.404950142E0,6.237000465E0,8.428050041E0
1.687211020E1,1.984050035E0,5.712000370E0,9.760950089E0
1.689289485E1,1.618050098E0,5.181000233E0,1.087995052E1
1.691367951E1,1.852050066E0,5.214000225E0,1.068300056E1
1.693446057E1,2.985000134E0,5.523000240E0,9.814050674E0
1.695524161E1,3.622050285E0,5.398950100E0,9.967050552E0
1.697602442E1,3.600000143E0,4.678050041E0,1.096095085E1
1.699680723E1,3.319950104E0,4.240050316E0,1.123605061E1
1.701758984E1,2.779050112E0,4.278000355E0,1.067595005E1
1.703837246E1,2.323950052E0,4.651950359E0,9.663000107E0
1.705915597E1,2.002950191E0,4.912950039E0,8.406000137E0
1.707993947E1,1.684950113E0,5.071050167E0,7.312050343E0
1.710072029E1,1.246050000E0,5.218950272E0,6.690000534E0
1.712150110E1,8.490000367E-1,5.137950420E0,6.421050072E0
1.714228310E1,5.190000534E-1,5.122950077E0,6.297000408E0
1.716306510E1,2.580000162E-1,4.960950375E0,6.256050110E0
1.718385243E1,1.690500081E-1,4.788000107E0,6.417000294E0
1.720463977E1,3.390000165E-1,4.576950073E0,6.991050243E0
1.722542211E1,6.000000238E-1,4.345050335E0,7.741050243E0
1.724620446E1,8.230500221E-1,4.254000187E0,8.089950562E0
1.726698766E1,1.170000076E0,4.206000328E0,8.104949951E0
1.728777085E1,1.395000100E0,4.234950066E0,8.491950035E0
1.730855206E1,1.372950077E0,4.429050446E0,8.839950562E0
1.732933329E1,1.306050062E0,4.656000137E0,8.866050720E0
1.735011427E1,1.198950052E0,5.053950310E0,8.524050713E0
1.737089523E1,1.195950031E0,5.202000141E0,8.350950241E0
1.739167982E1,1.254000068E0,5.004000187E0,9.472050667E0
1.741246440E1,1.165050030E0,4.558050156E0,1.060905075E1
1.743324521E1,1.021050096E0,4.093950272E0,1.037205029E1
1.745402602E1,8.419500589E-1,4.144050121E0,1.015395069E1
1.747481324E1,9.970500469E-1,4.019999981E0,1.066905022E1
1.749560046E1,1.266000032E0,3.838050127E0,1.077195072E1
1.751638523E1,1.336950064E0,4.041000366E0,9.820950508E0
1.753717001E1,1.491000056E0,4.306950092E0,9.405000687E0
1.755796458E1,1.972050071E0,4.174950123E0,9.663000107E0
1.757875916E1,1.777950048E0,4.177950382E0,9.486000061E0
1.759954544E1,1.543050051E0,4.218000412E0,8.796000481E0
1.762033176E1,1.258050084E0,4.312050343E0,8.124000549E0
1.764111716E1,1.285050035E0,4.209000111E0,7.705050468E0
1.766190259E1,1.843050122E0,3.961950302E0,7.645050526E0
1.768268624E1,2.602050066E0,3.651000261E0,7.324050426E0
1.770346990E1,2.623050213E0,3.604950190E0,6.634050369E0
1.772424743E1,2.134950161E0,3.775050163E0,5.824950218E0
1.774502497E1,1.716000080E0,3.985950232E0,5.670000076E0
1.776581425E1,1.693950057E0,4.054950237E0,5.856000423E0
1.778660351E1,1.804050088E0,4.009950161E0,6.333000183E0
1.780739089E1,1.752000093E0,4.126950264E0,6.574950218E0
1.782817828E1,1.254000068E0,4.603950024E0,6.553050518E0
1.784896947E1,1.074000001E0,4.972050190E0,6.892950535E0
1.786976066E1,1.324950099E0,5.667000294E0,7.666050434E0
1.789054816E1,1.938000083E0,5.992050171E0,9.177000046E0
1.791133570E1,2.068050146E0,5.491950035E0,9.910050392E0
1.793211739E1,9.300000668E-1,5.368050098E0,1.036500072E1
1.795289908E1,-4.050000310E-1,5.205000401E0,1.111905098E1
1.797368153E1,-1.276050091E0,4.834050179E0,1.222695065E1
1.799446399E1,-1.198950052E0,4.648950100E0,1.263900089E1
1.801524768E1,1.140000075E-1,4.573050022E0,1.199295044E1
1.803603137E1,1.464000106E0,4.453050137E0,1.138500023E1
1.805681496E1,2.083950043E0,4.161000252E0,1.114305019E1
1.807759853E1,2.379000187E0,4.003050327E0,1.086795044E1
1.809838530E1,2.362050056E0,4.230000019E0,9.709050179E0
1.811917207E1,2.173050165E0,4.453050137E0,8.659950256E0
1.813995956E1,2.008050203E0,4.599000454E0,7.741050243E0
1.816074707E1,1.486050129E0,4.708950043E0,6.943050385E0
1.818153206E1,1.384950042E0,4.726050377E0,6.618000507E0
1.820231702E1,1.122000098E0,4.747050285E0,6.522000313E0
1.822309977E1,1.042950034E0,4.537050247E0,6.868950367E0
1.824388254E1,8.629500270E-1,4.479000092E0,7.125000477E0
1.826466928E1,7.459500432E-1,4.489050388E0,7.198950291E0
1.828545601E1,7.050000429E-1,4.567950249E0,7.144050121E0
1.830624139E1,7.630500197E-1,4.624950409E0,7.324050426E0
1.832702678E1,9.160500169E-1,4.501049995E0,8.077950478E0
1.834781190E1,8.490000367E-1,4.531949997E0,8.671950340E0
1.836859701E1,7.080000043E-1,4.582050323E0,8.908950806E0
1.838938347E1,5.279999971E-1,4.752000332E0,9.201000214E0
1.841016993E1,2.550000250E-1,4.711950302E0,1.028595066E1
1.843095149E1,2.295000106E-2,4.531949997E0,1.098000050E1
1.845173303E1,7.304999977E-2,4.374000072E0,1.122900009E1
1.847251905E1,4.780500233E-1,4.161000252E0,1.154805088E1
1.849330505E1,2.910000086E-1,4.149000168E0,1.113600063E1
1.851409529E1,-1.170000061E-1,4.302000046E0,1.018005085E1
1.853488557E1,-2.110500038E-1,4.627950191E0,9.900000572E0
1.855567331E1,4.729500115E-1,4.630050182E0,1.018800068E1
1.857646104E1,8.490000367E-1,4.281000137E0,1.037895012E1
1.859724195E1,9.229500294E-1,4.063050270E0,1.041300011E1
1.861802284E1,5.089499950E-1,4.194000244E0,1.026195049E1
1.863880329E1,3.130500019E-1,4.342950344E0,1.049205017E1
1.865958375E1,1.158000112E0,3.877950191E0,1.041000080E1
1.868037052E1,9.259500504E-1,4.266000271E0,8.947050095E0
1.870115729E1,8.509500623E-1,4.242000103E0,7.812000275E0
1.872194545E1,9.280500412E-1,4.258950233E0,7.290000439E0
1.874273361E1,8.800500631E-1,4.157999992E0,6.859050274E0
1.876351851E1,1.590000093E-1,4.132050037E0,6.136050224E0
1.878430344E1,1.072050095E0,3.880950212E0,5.860950470E0
1.880509409E1,9.109500647E-1,4.157999992E0,6.208050251E0
1.882588474E1,1.075950027E0,3.937950134E0,6.976950169E0
1.884667550E1,1.147950053E0,3.904950142E0,7.123050213E0
1.886746627E1,6.289500594E-1,4.099050045E0,7.009950161E0
1.888825274E1,3.490500152E-1,4.399950027E0,6.402000427E0
1.890903920E1,-2.400000021E-2,4.969950199E0,6.735000134E0
1.892982382E1,1.605000161E-2,5.383950233E0,7.639950275E0
1.895060844E1,-1.650000066E-1,5.866050243E0,8.746050835E0
1.897139261E1,-7.050000131E-3,6.190950394E0,9.388050079E0
1.899217676E1,1.690500081E-1,6.304050446E0,9.400050163E0
1.901295859E1,3.850500286E-1,6.718050480E0,9.127050400E0
1.903374044E1,5.449500084E-1,6.828000546E0,8.332050323E0
1.905452860E1,3.705000132E-2,6.778050423E0,7.824000359E0
1.907531675E1,-6.340500116E-1,6.658050537E0,7.848000526E0
1.909610646E1,-7.690500617E-1,6.555000305E0,8.301000595E0
1.911689615E1,-3.499500155E-1,5.964000225E0,9.261000633E0
1.913768636E1,5.110500455E-1,5.281050205E0,1.061400032E1
1.915847664E1,1.396950126E0,4.755000114E0,1.124805069E1
1.917926338E1,1.717950106E0,4.570050240E0,1.070505047E1
1.920005016E1,1.618050098E0,4.530000210E0,9.615000725E0
1.922083384E1,1.371000051E0,4.612950325E0,8.353950500E0
1.924161754E1,1.543050051E0,4.678050041E0,7.516050339E0
1.926240727E1,1.812000036E0,4.756950378E0,6.907050133E0
1.928319700E1,1.668000102E0,4.969950199E0,6.541050434E0
1.930398530E1,1.194000006E0,5.095050335E0,6.181950092E0
1.932477361E1,7.990500331E-1,5.301000118E0,5.974050522E0
1.934555388E1,3.990000188E-1,5.437050343E0,6.060000420E0
1.936633416E1,2.939999998E-1,5.461050034E0,6.709050179E0
1.938711497E1,4.950000346E-1,5.443950176E0,7.501050472E0
1.940789578E1,2.119500041E-1,5.791050434E0,7.996950150E0
1.942867947E1,-3.019500077E-1,6.082950115E0,8.160000801E0
1.944946316E1,-6.010500193E-1,6.226950169E0,8.752950668E0
1.947023979E1,-7.900500298E-1,6.181950092E0,8.824950218E0
1.949101642E1,-2.539499998E-1,5.844000340E0,8.740950584E0
1.951179808E1,3.870000243E-1,5.724000454E0,9.429000854E0
1.953257973E1,3.030000031E-1,5.643000126E0,1.008195019E1
1.955336589E1,2.820000052E-1,5.578050137E0,9.390000343E0
1.957415204E1,5.400000140E-2,5.569050312E0,8.950050354E0
1.959493716E1,2.820000052E-1,5.515950203E0,9.306000710E0
1.961572228E1,1.024049997E0,5.137950420E0,1.006500053E1
1.963650657E1,1.668000102E0,4.768950462E0,1.050600052E1
1.965729084E1,1.759050131E0,4.812000275E0,1.020405006E1
1.967808083E1,1.759050131E0,5.214000225E0,8.908950806E0
1.969887082E1,1.669950128E0,5.583000183E0,7.555950165E0
1.971965677E1,1.633950114E0,5.764950275E0,7.108950138E0
1.974044266E1,1.660950065E0,5.575950146E0,7.627950191E0
1.976122416E1,1.728000045E0,5.269050121E0,8.389050484E0
1.978200566E1,1.713000059E0,4.804950237E0,8.731950760E0
1.980278765E1,1.753950119E0,4.549050331E0,8.502000809E0
1.982356965E1,1.735050082E0,4.357050419E0,7.957950592E0
1.984435385E1,1.531050086E0,4.372050285E0,7.081950188E0
1.986513804E1,1.263000011E0,4.372050285E0,6.438000202E0
1.988592554E1,1.093050003E0,4.434000015E0,6.385050297E0
1.990671304E1,1.098000050E0,4.407000065E0,6.661050320E0
1.992749858E1,1.177050114E0,4.285050392E0,7.422000408E0
1.994828412E1,1.074000001E0,4.374000072E0,8.017950058E0
1.996906647E1,1.012050033E0,4.810050011E0,8.254950523E0
1.998984882E1,9.780000448E-1,5.485050201E0,8.128050804E0
2.001063278E1,8.730000257E-1,5.997000217E0,7.530000210E0
2.003141674E1,4.159500301E-1,6.840000153E0,7.336050510E0
2.005220089E1,3.799500167E-1,7.060050488E0,6.864000320E0
2.007298505E1,-4.380000234E-1,7.656000137E0,6.414000511E0
2.009377646E1,-9.769500494E-1,7.333050251E0,7.341000557E0
2.011456788E1,-7.969500422E-1,6.696000099E0,9.072000504E0
2.013535461E1,1.590000093E-1,6.081000328E0,1.038900089E1
2.015614134E1,8.680500388E-1,5.415000439E0,1.147800064E1
2.017692902E1,1.597950101E0,4.837950230E0,1.179405022E1
2.019771671E1,2.623050213E0,4.543950081E0,1.092300034E1
2.021849921E1,3.064050198E0,4.582050323E0,9.330000877E0
2.023928171E1,2.652000189E0,4.836000443E0,8.041950226E0
2.026005443E1,2.436000109E0,4.957950115E0,7.573050499E0
2.028082716E1,2.223000050E0,5.092050076E0,7.447950363E0
2.030161398E1,2.113049984E0,5.086950302E0,7.072950363E0
2.032240079E1,1.921950102E0,5.193000317E0,6.618000507E0
2.034318368E1,1.692000031E0,5.323950291E0,6.574950218E0
2.036396661E1,1.146000028E0,5.383950233E0,6.867000103E0
2.038474981E1,6.120000482E-1,5.158950329E0,6.928950310E0
2.040553300E1,-1.200000048E-1,4.740000248E0,8.071050644E0
2.042631606E1,4.870500267E-1,4.675950050E0,1.009395027E1
2.044709914E1,7.579500079E-1,4.824000359E0,1.081200027E1
2.046788777E1,6.450000405E-1,5.526000500E0,9.486000061E0
2.048867638E1,-4.759500325E-1,6.379950523E0,7.768950462E0
2.050945844E1,2.700000107E-1,5.193000317E0,7.405050278E0
2.053024048E1,-8.710500598E-1,6.045000076E0,8.385000229E0
2.055102381E1,-3.610500097E-1,5.550000191E0,7.738050461E0
2.057180716E1,-6.700500250E-1,5.787000179E0,7.410000324E0
2.059258949E1,-1.285950065E0,5.011050224E0,9.124050140E0
2.061337180E1,-1.125000000E0,4.233000278E0,1.088895035E1
2.063415212E1,3.559500277E-1,4.057950020E0,1.081005096E1
2.065493243E1,1.339950085E0,4.411950111E0,9.639000893E0
2.067571584E1,7.530000210E-1,5.245050430E0,7.935000420E0
2.069649926E1,1.275000095E0,4.249050140E0,6.340050220E0
2.071728526E1,9.709500670E-1,4.812000275E0,6.970050335E0
2.073807126E1,7.920000553E-1,4.522050381E0,7.060950279E0
2.075885464E1,5.659500360E-1,4.252050400E0,7.906050205E0
2.077963802E1,1.450500041E-1,4.017000198E0,7.923000336E0
2.080042245E1,-1.243050098E0,4.671000004E0,6.682050228E0
2.082120687E1,-9.120000601E-1,4.302000046E0,5.907000065E0
2.084198687E1,-2.939999998E-1,4.654050350E0,6.655950546E0
2.086276687E1,-6.705000252E-2,4.515000343E0,7.765050411E0
2.088355029E1,-8.209500313E-1,4.465050220E0,8.005949974E0
2.090433371E1,-1.468050122E0,4.407000065E0,8.052000046E0
2.092511275E1,-2.152050018E0,4.312050343E0,8.986050606E0
2.094589180E1,-2.518950224E0,4.639950275E0,1.012305069E1
2.096668168E1,-2.125950098E0,4.897950172E0,1.036695004E1
2.098747156E1,-3.091050148E0,5.154000282E0,9.567000389E0
2.100825984E1,-4.575000286E0,5.655000210E0,7.489050388E0
2.102904812E1,-4.027050018E0,5.338950157E0,8.191050529E0
2.104982861E1,-3.876000166E0,5.226000309E0,9.235050201E0
2.107060911E1,-4.422000408E0,5.097000122E0,1.081695080E1
2.109139675E1,-4.888950348E0,4.848000050E0,1.091100025E1
2.111218440E1,-3.712950230E0,4.390950203E0,9.928950310E0
2.113296993E1,-3.250950098E0,4.282950401E0,9.547950745E0
2.115375547E1,-2.872950077E0,3.984000206E0,9.936000824E0
2.117454346E1,-1.353000045E0,3.925950289E0,1.009905052E1
2.119533146E1,-1.750500053E-1,3.960000277E0,1.009695053E1
2.121611912E1,4.470000267E-1,4.134000301E0,9.310950279E0
2.123690682E1,-2.730000019E-1,4.431000233E0,8.344050407E0
2.125768868E1,-1.245000005E0,4.161000252E0,8.248050690E0
2.127847057E1,-2.209950209E0,4.201950073E0,7.872000217E0
2.129926273E1,-2.962050200E0,4.192049980E0,7.872000217E0
2.132005488E1,-3.112950087E0,4.281000137E0,7.947000504E0
2.134084237E1,-2.968950033E0,4.276050091E0,8.521050453E0
2.136162988E1,-3.105000257E0,3.952950239E0,8.776950836E0
2.138241391E1,-3.175050259E0,3.775050163E0,8.446949959E0
2.140319795E1,-1.591950059E0,1.423950076E0,8.171999931E0
2.142398240E1,-2.614950180E0,3.888000250E0,1.010895061E1
2.144476686E1,-3.733050108E0,3.703950167E0,9.951000214E0
2.146554914E1,-3.484050274E0,4.063050270E0,8.830050468E0
2.148633142E1,-3.460050106E0,5.542050362E0,8.995050430E0
2.150712007E1,-2.932950258E0,4.467000008E0,9.814050674E0
2.152790872E1,-2.089950085E0,4.438950062E0,9.144000053E0
2.154868873E1,-9.390000701E-1,4.491000175E0,9.153000832E0
2.156946873E1,-6.900000572E-1,4.519950390E0,9.421050072E0
2.159025290E1,-1.567950130E0,5.001000404E0,9.594000816E0
2.161103705E1,-8.040000200E-1,3.198000193E0,8.512050629E0
2.163181643E1,-1.630500108E-1,4.138950348E0,8.353950500E0
2.165259582E1,-5.505000427E-2,3.712950230E0,8.470950127E0
2.167338132E1,-3.795000166E-2,4.165950298E0,8.004000664E0
2.169416682E1,-8.500500321E-1,4.123050213E0,7.282950401E0
2.171495020E1,-3.105000220E-2,3.433050156E0,8.155050278E0
2.173573358E1,-6.900000572E-2,2.703000069E0,7.029000282E0
2.175651928E1,-1.225950003E0,3.261000156E0,8.779950142E0
2.177730497E1,-1.438950062E0,2.812950134E0,8.521050453E0
2.179809068E1,-1.129950047E0,2.688000202E0,7.711950302E0
2.181887637E1,-9.220500588E-1,3.249000072E0,8.370000839E0
2.183966395E1,-1.264050007E0,3.979050159E0,8.842050552E0
2.186045153E1,-1.639950037E0,4.189949989E0,8.277000427E0
2.188123860E1,-2.176050186E0,4.206000328E0,8.538000107E0
2.190202568E1,-3.208050251E0,4.579950333E0,8.224050522E0
2.192280734E1,-2.947050095E0,4.537050247E0,7.798050404E0
2.194358900E1,-1.413000107E0,3.960000277E0,8.445000648E0
2.196437178E1,-7.830000520E-1,4.039050102E0,8.938050270E0
2.198515455E1,-1.765050054E0,4.063050270E0,9.603000641E0
2.200593505E1,-1.884000063E0,4.648950100E0,1.156200027E1
2.202671555E1,-2.272050142E0,5.265000343E0,1.133205032E1
2.204749658E1,-2.164050102E0,5.170950413E0,1.069800091E1
2.206827762E1,-2.254950047E0,5.290950298E0,1.135605049E1
2.208906192E1,-1.798050046E0,4.945950031E0,1.092705059E1
2.210984622E1,-1.543950081E0,5.418000221E0,1.027095032E1
2.213063426E1,-1.377000093E0,5.455950260E0,9.775950432E0
2.215142230E1,-1.354950070E0,4.573050022E0,9.639000893E0
2.217220748E1,-1.330950022E0,5.751000404E0,1.004205036E1
2.219299268E1,-1.293000102E0,5.506050110E0,9.702000618E0
2.221377655E1,-9.600000381E-1,4.494000435E0,9.414000511E0
2.223456044E1,-1.152000070E0,3.828000069E0,9.262950897E0
2.225534128E1,-1.519950032E0,3.462000132E0,8.950050354E0
2.227612217E1,-1.510950089E0,4.264050007E0,8.947050095E0
2.229690237E1,-9.580500722E-1,3.748950243E0,8.064000130E0
2.231768256E1,-1.990500093E-1,3.310950041E0,7.396050453E0
2.233846839E1,2.550000250E-1,2.860950232E0,6.595950127E0
2.235925423E1,-1.650000066E-1,2.833950043E0,6.591000080E0
2.238003865E1,-1.365000010E0,3.483000278E0,6.787950516E0
2.240082308E1,-1.753050089E0,4.105950356E0,6.996000290E0
2.242160512E1,-1.528050065E0,3.756000280E0,7.650000572E0
2.244238716E1,-1.123050094E0,3.385050058E0,8.005949974E0
2.246317008E1,-9.000000358E-1,3.568950176E0,8.266950607E0
2.248395301E1,-1.348050117E0,3.574050188E0,9.285000801E0
2.250473717E1,-2.751000166E0,3.964050293E0,9.703950882E0
2.252552132E1,-2.536050081E0,4.102950096E0,9.484050751E0
2.254630178E1,-2.590950012E0,4.599000454E0,9.229950905E0
2.256708225E1,-3.843000174E0,4.939050198E0,1.056795025E1
2.258786086E1,-4.923000336E0,5.226000309E0,1.204995060E1
2.260863948E1,-3.586950064E0,5.262000084E0,1.285500050E1
2.262941931E1,-2.514000177E0,5.170950413E0,1.273995018E1
2.265019916E1,-2.635950089E0,4.870050430E0,1.216005039E1
2.267097916E1,-3.637050152E0,5.137950420E0,1.100400066E1
2.269175916E1,-3.523950100E0,5.137950420E0,9.558000565E0
2.271254439E1,-2.971050024E0,5.037000179E0,8.931000710E0
2.273332962E1,-3.187050104E0,5.097000122E0,9.057000160E0
2.275411542E1,-3.091050148E0,4.968000412E0,9.073950768E0
2.277490122E1,-2.337000132E0,4.470000267E0,8.478000641E0
2.279568352E1,-2.008949995E0,4.249050140E0,7.686000347E0
2.281646583E1,-2.119050026E0,4.087049961E0,7.240050316E0
2.283724682E1,-2.623950243E0,3.622050285E0,6.943050385E0
2.285802779E1,-3.498000145E0,4.597050190E0,7.045950413E0
2.287880944E1,-3.615000248E0,4.054950237E0,7.137000561E0
2.289959109E1,-5.509050369E0,4.234950066E0,4.900950432E0
2.292037175E1,-4.681050301E0,3.474000216E0,6.385050297E0
2.294115240E1,-4.867950439E0,4.455000401E0,8.181000710E0
2.296193749E1,-4.594950199E0,4.402950287E0,8.659950256E0
2.298272257E1,-4.872000217E0,4.180050373E0,8.044950485E0
2.301377657E1,-4.951050282E0,3.519000053E0,7.137000561E0
2.303377657E1,-4.920000076E0,3.367950201E0,6.796950340E0
2.305456208E1,-4.281000137E0,3.184050083E0,7.927050591E0
2.307534683E1,-3.910050154E0,3.058950186E0,8.251049995E0
2.309613256E1,-3.673050165E0,3.049950123E0,8.416049957E0
2.311691853E1,-3.292050123E0,2.935050249E0,8.394000053E0
2.313770451E1,-4.177950382E0,2.796000242E0,8.119050026E0
2.315849047E1,-3.900000095E0,2.860950232E0,9.297000885E0
2.317927082E1,-3.292050123E0,2.818050146E0,9.433050156E0
2.320005117E1,-2.125950098E0,1.759050131E0,1.089105034E1
2.322083744E1,-3.067050219E0,2.344050169E0,9.048000336E0
2.324162370E1,-2.287050009E0,7.969500422E-1,1.010595036E1
2.326240725E1,-3.618000269E0,3.091050148E0,9.709050179E0
2.328319080E1,-4.137000084E0,1.491000056E0,9.547950745E0
2.330397700E1,-4.753050327E0,1.306950092E0,9.164999962E0
2.332476319E1,-4.401000023E0,7.510500550E-1,8.667000771E0
2.334554470E1,-3.373950243E0,9.120000601E-1,9.139050484E0
2.336632620E1,-2.337000132E0,9.979500771E-1,9.223050117E0
2.338711022E1,-1.717050076E0,6.240000129E-1,1.057305050E1
2.340789422E1,-2.971050024E0,1.956000090E0,9.520050049E0
2.342867564E1,-3.274950266E0,2.109000206E0,8.595000267E0
2.344945707E1,-1.774050117E0,4.450500309E-1,9.654000282E0
2.347024029E1,-8.760000467E-1,7.489500642E-1,1.070205021E1
2.349102352E1,-8.280000687E-1,1.501050115E0,9.673050880E0
2.351180336E1,1.246050000E0,4.500000179E-1,1.031700039E1
2.353258321E1,1.110000014E0,2.959050179E0,1.337700081E1
2.355336763E1,8.250000477E-1,2.326950073E0,1.230705070E1
2.357415205E1,5.929500461E-1,2.180999994E0,1.201695061E1
2.359493872E1,1.999500096E-1,2.180999994E0,1.119795036E1
2.361572537E1,3.390000165E-1,1.756950140E0,1.081500053E1
2.363650860E1,2.910000086E-1,-1.240500063E-1,9.318000793E0
2.365729183E1,-1.711950064E0,2.989500165E-1,8.884950638E0
2.367807365E1,-2.449050188E0,4.210500121E-1,8.413050652E0
2.369885550E1,-3.034050226E0,4.279500246E-1,8.470950127E0
2.371963777E1,-2.682000160E0,-1.605000161E-2,1.007295036E1
2.374042004E1,-2.004000187E0,-8.329500556E-1,1.108800030E1
2.376120217E1,-2.442000151E0,-1.024049997E0,9.936000824E0
2.378198432E1,-3.132000208E0,-1.339500099E-1,9.523950577E0
2.380277663E1,-3.448050261E0,1.111050010E0,9.337950706E0
2.382356894E1,-4.080000401E0,2.065950155E0,6.879000187E0
2.384436005E1,-1.468050122E0,1.573050022E0,6.591000080E0
2.386515117E1,-4.759500325E-1,1.951050043E0,7.341000557E0
2.388593714E1,-8.400000632E-2,1.873950124E0,8.334000587E0
2.390672310E1,4.500000179E-2,1.278000116E0,9.310950279E0
2.392750848E1,-7.900500298E-1,1.597050071E0,9.895050049E0
2.394829387E1,-3.970500231E-1,1.015050054E0,9.879000664E0
2.396908285E1,-4.570500255E-1,1.228050113E0,9.060000420E0
2.398987181E1,-6.919500232E-1,1.945950150E0,8.212050438E0
2.401066006E1,5.400000140E-2,2.080049992E0,7.053000450E0
2.403144833E1,-1.440000087E-1,2.868000031E0,6.654000282E0
2.405223220E1,1.069500074E-1,2.893950224E0,6.733050346E0
2.407301605E1,1.054949999E0,2.442000151E0,6.205950260E0
2.409380132E1,6.599999964E-2,2.904000044E0,5.692950249E0
2.411458659E1,-4.759500325E-1,3.376050234E0,6.687000275E0
2.413537369E1,8.299500346E-1,2.632950068E0,7.330950260E0
2.415616076E1,1.261050105E0,2.449050188E0,8.041950226E0
2.417695194E1,9.060000181E-1,2.182950020E0,9.109950066E0
2.419774313E1,3.409500122E-1,1.800000072E0,1.192800045E1
2.421853189E1,2.571000099E0,7.300500274E-1,1.373595047E1
2.423932067E1,5.107950211E0,-1.114950061E0,1.399200058E1
2.426010902E1,4.066950321E0,-3.130500019E-1,1.391805077E1
2.428089736E1,2.697000027E0,-2.749500275E-1,1.391505051E1
2.430167876E1,1.984050035E0,0.000000000E0,1.383195019E1
2.432246014E1,2.262000084E0,3.540000021E-1,1.313700104E1
2.434323861E1,3.487950087E0,1.137000084E0,1.157595062E1
2.436401708E1,4.768050194E0,1.711050034E0,1.030995083E1
2.438480308E1,5.152050018E0,1.738050103E0,9.796950340E0
2.440558908E1,4.603050232E0,1.551000118E0,1.014000034E1
2.442637534E1,4.048050404E0,1.315950036E0,1.040805054E1
2.444716161E1,3.295950174E0,1.383000016E0,9.991050720E0
2.446794258E1,2.593950033E0,1.692000031E0,9.271050453E0
2.448872354E1,2.131950140E0,1.933950067E0,8.470950127E0
2.450950383E1,1.800000072E0,2.229000092E0,7.771950245E0
2.453028414E1,1.414050102E0,2.335950136E0,7.234950542E0
2.455106504E1,9.229500294E-1,2.473050117E0,7.027050495E0
2.457184596E1,8.179500103E-1,2.506050110E0,6.958050251E0
2.459263121E1,1.231950045E0,2.383949995E0,6.886050224E0
2.461341644E1,1.633950114E0,2.284050226E0,7.264050484E0
2.463419561E1,1.953000069E0,2.158950090E0,7.602000237E0
2.465497481E1,2.230950117E0,2.050950050E0,7.767000198E0
2.467575788E1,2.332950115E0,2.074949980E0,7.900950432E0
2.469654096E1,2.629950047E0,2.265000105E0,8.023050308E0
2.471732377E1,2.863050222E0,2.298000097E0,7.774050236E0
2.473810658E1,2.407950163E0,2.371950150E0,6.868950367E0
2.475888946E1,1.516950130E0,2.518050194E0,6.151050091E0
2.477967234E1,8.419500589E-1,2.626050234E0,5.682000160E0
2.480045203E1,9.780000448E-1,2.056050062E0,5.326950073E0
2.482123173E1,8.830500245E-1,1.192050099E0,5.665050507E0
2.484201271E1,1.213050008E0,-1.530000120E-1,7.486950397E0
2.486279367E1,2.149049997E0,-2.257050037E0,1.143000031E1
2.488357566E1,2.841000080E0,-3.796950102E0,1.543800068E1
2.490435767E1,2.194950104E0,-3.772950172E0,1.557900047E1
2.492513964E1,2.367000103E0,-2.944050074E0,1.406895065E1
2.494592161E1,3.535050154E0,-2.407950163E0,1.367400074E1
2.496670054E1,3.832050085E0,-1.848000050E0,1.358700085E1
2.498747946E1,3.387000084E0,-9.979500771E-1,1.328100109E1
2.500826532E1,3.124050140E0,2.130000144E-1,1.285005093E1
2.502905116E1,3.430050135E0,1.222950101E0,1.226595020E1
2.504983484E1,3.844050169E0,1.896000147E0,1.127895069E1
2.507061854E1,3.954000235E0,2.475000143E0,9.892950058E0
2.509140164E1,4.126950264E0,2.818050146E0,8.353950500E0
2.511218472E1,4.275000095E0,2.976000071E0,7.089000225E0
2.513297172E1,4.159950256E0,2.698050022E0,6.567000389E0
2.515375868E1,3.765000105E0,2.236050129E0,6.390000343E0
2.517453940E1,3.576000214E0,1.987050056E0,6.606000423E0
2.519532013E1,3.346050262E0,1.612950087E0,6.514950275E0
2.521610511E1,3.274050236E0,1.000050068E0,7.243050575E0
2.523689007E1,3.054000139E0,4.069500268E-1,7.872000217E0
2.525767069E1,2.956050158E0,2.340000123E-1,8.822999954E0
2.527845131E1,3.540000200E0,-3.829500079E-1,9.816000938E0
2.529922777E1,2.820000172E0,3.105000220E-2,1.030005074E1
2.532000423E1,2.836050034E0,-4.500000179E-2,9.553050041E0
2.534077868E1,2.644950151E0,1.260000020E-1,9.076950073E0
2.536155315E1,2.110949993E0,-5.895000324E-2,1.004895020E1
2.538233177E1,8.749500513E-1,-4.500000179E-1,1.212000084E1
2.540311038E1,-1.600500047E-1,-8.760000467E-1,1.385295105E1
2.542388532E1,3.679500222E-1,-1.132050037E0,1.360905075E1
2.544466024E1,1.363950014E0,-8.710500598E-1,1.257495022E1
2.546544083E1,2.535000086E0,-6.529500484E-1,1.126995087E1
2.548622144E1,2.499000072E0,-1.099500060E-1,1.049895096E1
2.550700035E1,1.749000072E0,4.740000367E-1,1.044900036E1
2.552777923E1,1.783050060E0,8.140500188E-1,1.051305008E1
2.554855664E1,2.467950106E0,1.158000112E0,9.996000290E0
2.556933407E1,2.899050236E0,1.576950073E0,8.935050011E0
2.559011236E1,2.295000076E0,2.158950090E0,7.836000443E0
2.561089067E1,1.704000115E0,2.599950075E0,7.318950176E0
2.563167007E1,1.741950035E0,2.925000191E0,7.099050522E0
2.565244945E1,2.082000017E0,2.988000154E0,6.874050140E0
2.567322561E1,2.257050037E0,3.033000231E0,6.541050434E0
2.569400177E1,1.981950045E0,3.253050089E0,6.120000362E0
2.571478362E1,1.972050071E0,3.229050159E0,6.010050297E0
2.573556547E1,2.077050209E0,2.812950134E0,6.297000408E0
2.575634347E1,2.013000011E0,2.538000107E0,7.723950386E0
2.577712147E1,1.828050137E0,2.269050121E0,8.895000458E0
2.579790456E1,1.864050031E0,2.077950001E0,8.956950188E0
2.581868764E1,2.377050161E0,1.537050128E0,9.052950859E0
2.583946636E1,2.523000002E0,9.979500771E-1,8.686050415E0
2.586024510E1,2.833950043E0,-4.005000368E-2,8.743950844E0
2.588102789E1,3.178950071E0,-8.710500598E-1,9.840000153E0
2.590181066E1,3.387000084E0,-1.654050112E0,1.108995056E1
2.592258915E1,3.685950279E0,-2.044049978E0,1.183695030E1
2.594336766E1,4.519050121E0,-2.134950161E0,1.146405029E1
2.596414917E1,5.094000340E0,-1.684950113E0,1.173195076E1
2.598493067E1,4.942950249E0,-1.077000022E0,1.185195065E1
2.600570743E1,4.624950409E0,-7.369500399E-1,1.101795006E1
2.602648421E1,3.508950233E0,-3.750000298E-1,1.028100014E1
2.604726176E1,2.527050018E0,1.069500074E-1,9.802050591E0
2.606803930E1,2.191950083E0,2.920500040E-1,1.033605003E1
2.608881333E1,2.611050129E0,3.750000298E-1,1.036005020E1
2.610958737E1,1.845000029E0,5.410500169E-1,9.370950699E0
2.613036092E1,1.036050081E0,6.870000362E-1,9.196050644E0
2.615113446E1,1.108050108E0,4.570500255E-1,9.226950645E0
2.617191476E1,2.392950058E0,-1.905000024E-2,9.309000015E0
2.619269507E1,2.857950211E0,-5.910000205E-1,9.951000214E0
2.621346982E1,2.197050095E0,-5.119500160E-1,9.177000046E0
2.623424459E1,1.522050023E0,-6.480000019E-1,9.928950310E0
2.625502196E1,2.338050127E0,-1.204050064E0,1.435095024E1
2.627579935E1,3.658050060E0,5.910000205E-1,2.560695076E1
2.629657179E1,9.013950348E0,-4.807050228E0,1.805294991E1
2.631734425E1,6.580950260E0,-4.330500066E-1,9.022050858E0
2.633812163E1,8.022000313E0,8.760000467E-1,2.820000172E0
2.635889901E1,5.536950111E0,3.940950155E0,8.380500674E-1
2.637967578E1,4.390050411E0,4.879050255E0,2.988000154E0
2.640045255E1,4.507050037E0,3.973950148E0,5.691000462E0
2.642122682E1,3.589950085E0,3.592950106E0,8.943000793E0
2.644200110E1,3.600000143E0,3.067050219E0,1.062105083E1
2.646277571E1,3.058950186E0,3.493050098E0,8.380050659E0
2.648355033E1,2.020050049E0,3.972000122E0,4.924950123E0
2.650432099E1,-1.699500084E-1,3.919050217E0,3.232050180E0
2.652509165E1,-1.300050020E0,2.892000198E0,6.088950157E0
2.654586407E1,-1.317000031E0,1.639950037E0,9.874050140E0
2.656663649E1,-7.420500517E-1,1.066950083E0,1.219905090E1
2.658741532E1,-1.494000077E0,1.549050093E0,1.113105011E1
2.660819413E1,-2.224050045E0,2.166000128E0,9.440999985E0
2.662897561E1,-2.575950146E0,2.818050146E0,7.899000168E0
2.664975711E1,-2.455950022E0,3.304050207E0,6.838050365E0
2.667053517E1,-2.056950092E0,3.547950268E0,6.553050518E0
2.669131321E1,-1.530000091E0,3.676950216E0,6.886050224E0
2.671209400E1,-4.090500176E-1,3.354000092E0,7.530000210E0
2.673287477E1,-1.990500093E-1,3.286950111E0,8.818050385E0
2.675364827E1,-2.440500110E-1,2.763000250E0,1.043205070E1
2.677442178E1,-5.029500127E-1,2.856000185E0,1.031895065E1
2.679519609E1,4.969500303E-1,2.461050034E0,1.048905087E1
2.681597039E1,1.087950110E0,1.672950029E0,9.984000206E0
2.683674716E1,6.529500484E-1,1.327950120E0,9.691950798E0
2.685752393E1,9.330000281E-1,7.050000131E-3,9.184050560E0
2.687830577E1,9.229500294E-1,-9.259500504E-1,8.538000107E0
2.689908762E1,1.174950004E0,-9.670500755E-1,9.840000153E0
2.691986194E1,2.910000086E0,-1.833000064E0,1.277595043E1
2.694063625E1,4.408950329E0,-1.921950102E0,1.363800049E1
2.696141782E1,4.764000416E0,-1.060050011E0,1.297500038E1
2.698219939E1,4.687050343E0,-1.549500078E-1,1.139895058E1
2.700297811E1,4.318050385E0,8.260500431E-1,1.010895061E1
2.702375685E1,4.347000122E0,1.257000089E0,9.241950035E0
2.704454056E1,3.765000105E0,1.975050092E0,8.704950333E0
2.706532425E1,3.669000149E0,2.185950041E0,8.149950027E0
2.708610472E1,2.985000134E0,2.197950125E0,7.912950516E0
2.710688522E1,2.491050005E0,2.061000109E0,7.465050220E0
2.712766085E1,1.857000113E0,2.205000162E0,7.048950195E0
2.714843650E1,1.627050042E0,2.229000092E0,7.276050568E0
2.716921624E1,1.500000119E0,2.314950228E0,7.755000591E0
2.718999597E1,1.120050073E0,2.242950201E0,8.647950172E0
2.721077038E1,9.760500193E-1,2.209050179E0,9.607950211E0
2.723154481E1,1.414050102E0,1.822050095E0,1.008000088E1
2.725232530E1,1.069050074E0,1.515000105E0,1.099395084E1
2.727310580E1,5.929500461E-1,1.339950085E0,1.176105022E1
2.729388749E1,1.584000111E0,1.306950092E0,1.218900013E1
2.731466918E1,2.578050137E0,1.173000097E0,1.229700089E1
2.733544763E1,2.331000090E0,9.810000658E-1,1.176105022E1
2.735622610E1,1.624950051E0,7.729500532E-1,1.134600067E1
2.737700582E1,1.315950036E0,7.750500441E-1,1.180605030E1
2.739778551E1,1.704000115E0,5.740500093E-1,1.221795082E1
2.741856797E1,1.986000061E0,7.249500155E-1,1.207395077E1
2.743935043E1,2.046000004E0,1.300050020E0,1.126500034E1
2.746012596E1,2.350050211E0,1.788000107E0,1.069995022E1
2.748090150E1,2.623050213E0,2.074949980E0,1.020900059E1
2.750168206E1,2.628000021E0,2.332050085E0,9.606000900E0
2.752246264E1,2.724000216E0,2.599950075E0,8.803950310E0
2.754323910E1,2.748000145E0,2.887050152E0,7.827000141E0
2.756401556E1,2.641950130E0,3.043050051E0,7.195050240E0
2.758479558E1,2.070000172E0,3.258000135E0,7.003050327E0
2.760557558E1,1.897950053E0,3.361050129E0,6.699000359E0
2.762635635E1,1.833000064E0,3.486000061E0,6.385050297E0
2.764713712E1,1.845000029E0,3.619950056E0,6.277950287E0
2.766791053E1,1.708950043E0,3.619950056E0,6.406950474E0
2.768868396E1,1.333050013E0,3.447000265E0,6.607950211E0
2.770945498E1,1.078950047E0,3.427950144E0,6.876000404E0
2.773022602E1,9.760500193E-1,3.373050213E0,8.071050644E0
2.775100648E1,1.345050097E0,3.070950031E0,8.916000366E0
2.777178694E1,1.105050087E0,2.763000250E0,9.184050560E0
2.779256880E1,7.459500432E-1,2.374950171E0,9.553050041E0
2.781335069E1,3.889500201E-1,1.932000041E0,1.037400055E1
2.783412972E1,1.263000011E0,1.162950039E0,1.175595093E1
2.785490877E1,2.367000103E0,5.329500437E-1,1.301505089E1
2.787569095E1,3.187950134E0,2.400000021E-2,1.300095081E1
2.789647314E1,3.528000116E0,7.395000011E-2,1.218705082E1
2.791725710E1,3.499050140E0,3.349500299E-1,1.124295044E1
2.793804107E1,3.708000183E0,6.799500585E-1,1.095105076E1
2.795882234E1,3.154950142E0,1.393050075E0,1.108800030E1
2.797960361E1,2.604000092E0,1.824000120E0,1.143300056E1
2.800038423E1,2.455950022E0,2.116050005E0,1.090800095E1
2.802116484E1,2.113049984E0,2.394000053E0,9.634050369E0
2.804194715E1,1.704000115E0,2.901000023E0,8.020950317E0
2.806272946E1,1.548000097E0,3.126000166E0,6.706050396E0
2.808351069E1,1.519050121E0,3.186000109E0,5.947050095E0
2.810429193E1,1.759050131E0,3.100050211E0,5.692950249E0
2.812507837E1,1.989000082E0,3.045000076E0,5.791950226E0
2.814586479E1,1.819050074E0,2.772000074E0,6.442950249E0
2.816664555E1,1.540950060E0,2.557050228E0,7.623000145E0
2.818742633E1,1.579050064E0,2.083050013E0,9.121950150E0
2.820820713E1,1.918950081E0,1.776000142E0,1.002705002E1
2.822898794E1,1.984050035E0,1.876950145E0,1.008195019E1
2.824977345E1,2.061000109E0,2.229000092E0,9.991050720E0
2.827055895E1,1.893000126E0,2.647950172E0,9.792000771E0
2.829133648E1,1.539000034E0,2.700000048E0,9.666000366E0
2.831211402E1,4.660500288E-1,2.611950159E0,9.145950317E0
2.833290021E1,-5.650500059E-1,2.800950050E0,9.634050369E0
2.835368640E1,-3.640500307E-1,2.650050163E0,1.108305073E1
2.837446901E1,3.340500295E-1,2.161950111E0,1.206000042E1
2.839525163E1,7.320000529E-1,2.217000008E0,1.091805077E1
2.841603068E1,1.669950128E0,2.407950163E0,1.027095032E1
2.843680975E1,2.854950190E0,2.394000053E0,1.145205021E1
2.845759036E1,3.528000116E0,2.011049986E0,1.304895020E1
2.847837098E1,2.688000202E0,1.944000125E0,1.282605076E1
2.849915432E1,1.660950065E0,2.278950214E0,1.096605015E1
2.851993766E1,9.210000634E-1,2.569050074E0,9.250950813E0
2.854071580E1,2.790000141E-1,2.821950197E0,8.233950615E0
2.856149396E1,1.549500078E-1,2.887050152E0,7.437000275E0
2.858226934E1,2.460000068E-1,2.782050133E0,6.976950169E0
2.860304472E1,5.400000215E-1,2.775000095E0,6.706050396E0
2.862382153E1,1.017000079E0,2.794050217E0,6.622050285E0
2.864459834E1,1.282050014E0,2.731050014E0,7.261950493E0
2.866538291E1,1.677000046E0,2.545050144E0,7.804950237E0
2.868616748E1,1.918950081E0,2.329050064E0,9.124050140E0
2.870694683E1,2.343000174E0,2.074949980E0,1.040100002E1
2.872772622E1,2.584950209E0,1.678050041E0,1.069005013E1
2.874850651E1,2.242050171E0,1.438950062E0,1.060905075E1
2.876928682E1,2.194950104E0,1.273050070E0,1.046100044E1
2.879007528E1,2.572950125E0,1.057950020E0,1.082400036E1
2.881086374E1,2.724000216E0,7.560000420E-1,1.158600044E1
2.883163863E1,2.989950180E0,3.400500119E-1,1.158105087E1
2.885241357E1,3.073050261E0,4.039500058E-1,1.140900040E1
2.887319316E1,3.238950253E0,8.659500480E-1,1.154805088E1
2.889397269E1,4.120050430E0,1.306950092E0,1.197105026E1
2.891475227E1,4.666050434E0,1.881000042E0,1.154805088E1
2.893553184E1,4.491000175E0,2.218950033E0,9.892950058E0
2.895631586E1,3.205050230E0,2.923050165E0,8.392050743E0
2.897709985E1,2.362050056E0,3.262950182E0,7.447950363E0
2.899787432E1,2.235000134E0,3.664950132E0,7.096950531E0
2.901864879E1,2.494050026E0,3.772950172E0,7.243050575E0
2.903942478E1,2.875050068E0,3.670050144E0,7.591950417E0
2.906020074E1,2.470050097E0,3.567000151E0,7.069950104E0
2.908097648E1,1.990950108E0,3.684000254E0,6.646050453E0
2.910175221E1,1.914000034E0,3.775050163E0,6.646050453E0
2.912253125E1,2.179949999E0,3.639000177E0,7.326000214E0
2.914331029E1,2.695050240E0,3.130950212E0,8.619000435E0
2.916409322E1,2.379000187E0,2.953950167E0,8.855999947E0
2.918487614E1,1.195950031E0,3.103050232E0,8.155050278E0
2.920565680E1,4.800000191E-1,3.355950117E0,8.662050247E0
2.922643746E1,4.680000246E-1,3.352050066E0,9.907050133E0
2.924721609E1,3.705000132E-2,3.604950190E0,1.034595013E1
2.926799471E1,2.239500135E-1,3.829950094E0,1.040100002E1
2.928877361E1,2.770500183E-1,3.607950211E0,1.033605003E1
2.930955249E1,-5.719500184E-1,3.294000149E0,1.061400032E1
2.933033404E1,-4.759500325E-1,3.402000189E0,1.040805054E1
2.935111558E1,-4.860000312E-1,3.904950142E0,8.904000282E0
2.937189626E1,-1.441050053E0,4.732950211E0,7.699950218E0
2.939267691E1,-1.599000096E0,4.969950199E0,7.437000275E0
2.941345646E1,-1.990500093E-1,5.311950207E0,8.538000107E0
2.943423600E1,-5.670000315E-1,5.089950085E0,1.113105011E1
2.945502029E1,-4.500000179E-1,4.108050346E0,1.256295013E1
2.947580460E1,-4.930500090E-1,4.309050083E0,1.133205032E1
2.949658550E1,-3.180000186E-1,4.306950092E0,9.328050613E0
2.951736643E1,5.620500445E-1,3.634050131E0,7.968000412E0
2.953814548E1,9.450000525E-1,3.298950195E0,7.056000233E0
2.955892452E1,5.700000376E-2,3.475950241E0,6.454950333E0
2.957970406E1,5.700000376E-2,3.604950190E0,6.985950470E0
2.960048360E1,1.363950014E0,3.310950041E0,7.563000202E0
2.962126388E1,7.560000420E-1,4.114950180E0,6.796950340E0
2.964204419E1,2.050500065E-1,3.888000250E0,6.328050137E0
2.966282408E1,8.230500221E-1,2.704950094E0,8.398950577E0
2.968360397E1,-7.609500289E-1,3.534000158E0,9.567000389E0
2.970437950E1,-2.305950165E0,2.389050007E0,8.361000061E0
2.972515504E1,-5.275050163E0,1.900950074E0,9.304050446E0
2.974593038E1,-4.875000000E0,1.264050007E0,1.189695072E1
2.976670572E1,-3.831000090E0,2.398950100E0,1.196895027E1
2.978748607E1,-2.883000135E0,2.758050203E0,1.063305092E1
2.980826642E1,-3.862050295E0,3.447000265E0,1.065405083E1
2.982904470E1,-4.579950333E0,2.700000048E0,1.067100048E1
2.984982301E1,-4.384050369E0,2.724000216E0,1.082700062E1
2.987060296E1,-4.920000076E0,3.403950214E0,1.011300087E1
2.989138292E1,-3.939000130E0,2.872950077E0,9.463950157E0
2.991216507E1,-3.996000290E0,2.674050093E0,9.706050873E0
2.993294722E1,-2.482950211E0,7.800000310E-1,1.275705051E1
2.995373165E1,-2.887050152E0,3.129000187E0,1.184895039E1
2.997451611E1,-1.681050062E0,3.423000097E0,1.044405079E1
2.999529793E1,-1.546950102E0,3.268050194E0,8.338950157E0
3.001607978E1,-1.792950034E0,3.712950230E0,6.939000130E0
3.003686440E1,-2.097000122E0,3.316050053E0,7.176000118E0
3.005764902E1,-2.835000038E0,2.973000050E0,6.916950226E0
3.007843025E1,-2.868000031E0,2.379000187E0,7.816950321E0
3.009921148E1,-1.350000024E0,1.944000125E0,6.330000401E0
3.011999134E1,-1.144050002E0,2.751000166E0,5.518950462E0
3.014077123E1,-2.590500116E-1,2.949000120E0,6.577050209E0
3.016155017E1,-1.819500029E-1,3.286950111E0,7.690050602E0
3.018232909E1,-5.509500504E-1,4.383000374E0,9.310950279E0
3.020310951E1,-4.210500121E-1,4.633050442E0,8.088000298E0
3.022388993E1,8.509500623E-1,3.804000139E0,7.270950317E0
3.024467023E1,1.456950068E0,3.691950083E0,8.088000298E0
3.026545054E1,9.330000281E-1,3.900000095E0,8.490000725E0
3.028623159E1,-2.539499998E-1,4.696950436E0,8.989950180E0
3.030701267E1,-1.021950006E0,4.996050358E0,9.723000526E0
3.032779220E1,-1.531950116E0,4.570050240E0,1.045605087E1
3.034857174E1,-1.851000071E0,4.647000313E0,1.211505032E1
3.036935714E1,-1.300050020E0,4.587000370E0,1.319205093E1
3.039014256E1,-9.480000734E-1,4.443000317E0,1.357305050E1
3.041092673E1,-2.989500165E-1,3.237000227E0,1.298400021E1
3.043171089E1,2.805000171E-2,2.928000212E0,1.195005035E1
3.045249550E1,-7.009500265E-1,3.684000254E0,1.054395008E1
3.047328012E1,-1.354950070E0,4.117949963E0,9.775950432E0
3.049406842E1,-2.301000118E0,4.843050003E0,9.586950302E0
3.051485673E1,1.360500008E-1,4.185000420E0,1.014900017E1
3.053563898E1,-5.700000525E-1,4.623000145E0,1.120500088E1
3.055642125E1,-1.426950097E0,4.345050335E0,1.134195042E1
3.057719865E1,-8.550000191E-1,3.426000118E0,1.012500095E1
3.059797603E1,-9.790500402E-1,3.519000053E0,8.491950035E0
3.061876180E1,-7.660500407E-1,3.529050112E0,7.650000572E0
3.063954752E1,-1.330950022E0,3.829950094E0,6.964950562E0
3.066033299E1,-8.760000467E-1,3.754050255E0,7.195050240E0
3.068111850E1,-5.910000205E-1,3.652950287E0,7.012950420E0
3.070190268E1,-8.310000300E-1,3.985950232E0,6.874050140E0
3.072268688E1,-1.755000114E0,3.787050247E0,7.437000275E0
3.074347024E1,-2.551950216E0,3.820950270E0,7.882050514E0
3.076425363E1,-2.887050152E0,3.402000189E0,7.555950165E0
3.078503683E1,-2.322000027E0,3.121950150E0,7.384050369E0
3.080582003E1,-2.278950214E0,3.469050169E0,8.512050629E0
3.082659792E1,-2.728950024E0,3.318000078E0,8.095050812E0
3.084737581E1,-2.851950169E0,3.364050150E0,8.647950172E0
3.086815886E1,-2.740950108E0,3.265050173E0,9.430950165E0
3.088894190E1,-2.964000225E0,3.691950083E0,8.988000870E0
3.090972329E1,-3.381000042E0,3.996000290E0,9.256050110E0
3.093050468E1,-3.916950226E0,4.795050144E0,9.754050255E0
3.095128913E1,-3.760950089E0,5.226000309E0,1.045800018E1
3.097207359E1,-3.474000216E0,4.963050365E0,1.092300034E1
3.099285624E1,-3.691950083E0,5.212050438E0,1.036995029E1
3.101363889E1,-3.754050255E0,5.722050190E0,9.385050774E0
3.103442099E1,-3.484050274E0,6.106950283E0,8.683950424E0
3.105520311E1,-3.601050138E0,6.160050392E0,8.662050247E0
3.107597605E1,-3.168000221E0,5.559000492E0,8.844000816E0
3.109674901E1,-3.073950052E0,5.559000492E0,9.280050278E0
3.111753300E1,-3.424050093E0,5.308050156E0,8.491950035E0
3.113831696E1,-3.127050161E0,4.747050285E0,8.116050720E0
3.115910355E1,-2.875050068E0,4.924950123E0,7.956000328E0
3.117989017E1,-3.052950144E0,4.703999996E0,7.207050323E0
3.120067529E1,-3.850050211E0,4.864950180E0,7.438950539E0
3.122146040E1,-4.414950371E0,4.927050114E0,7.609050274E0
3.124224622E1,-4.614000320E0,4.218000412E0,7.786050320E0
3.126303203E1,-6.165000439E0,4.570050240E0,3.163050175E0
3.128381730E1,-5.116950035E0,4.932000160E0,8.083050728E0
3.130460258E1,-4.960950375E0,5.289000034E0,9.639000893E0
3.132539151E1,-5.085000038E0,5.266950130E0,8.521050453E0
3.134618044E1,-5.193000317E0,4.929000378E0,7.152000427E0
3.136696843E1,-5.728950500E0,5.149950027E0,6.735000134E0
3.138775644E1,-5.193000317E0,4.837950230E0,7.522950172E0
3.140854270E1,-4.432050228E0,4.791000366E0,8.322000504E0
3.142932897E1,-4.072950363E0,4.582050323E0,8.230950356E0
3.145011576E1,-4.089000225E0,4.575000286E0,7.207050323E0
3.147090253E1,-4.417050362E0,4.666050434E0,6.259050369E0
3.149168668E1,-4.614000320E0,4.798050404E0,6.199050426E0
3.151247084E1,-4.609050274E0,4.804950237E0,6.733050346E0
3.153325521E1,-4.318950176E0,4.960950375E0,7.198950291E0
3.155403956E1,-3.625050068E0,4.495950222E0,7.255050182E0
3.157482325E1,-4.233000278E0,6.174000263E0,7.149000168E0
3.159560690E1,-3.378000259E0,5.569050312E0,7.650000572E0
3.161638661E1,-2.650050163E0,5.326950073E0,8.647950172E0
3.163716630E1,-2.206950188E0,5.461050034E0,8.968950272E0
3.165794831E1,-2.053950071E0,5.044050217E0,8.803950310E0
3.167873031E1,-1.896000147E0,4.494000435E0,8.920950890E0
3.169950768E1,-2.614950180E0,4.743000031E0,8.764950752E0
3.172028507E1,-3.007050037E0,4.917000294E0,8.113950729E0
3.174106923E1,-2.932950258E0,4.776000023E0,7.615950584E0
3.176185338E1,-2.887050152E0,4.503000259E0,7.594950199E0
3.178263557E1,-2.856000185E0,4.825950146E0,8.421000481E0
3.180341777E1,-3.034050226E0,5.041950226E0,8.212050438E0
3.182419852E1,-2.521050215E0,5.080050468E0,8.671950340E0
3.184497929E1,-2.466000080E0,5.098950386E0,8.377050400E0
3.186576666E1,-1.956000090E0,5.274000168E0,8.071050644E0
3.188655404E1,-1.662000060E0,5.110950470E0,7.884000301E0
3.190733581E1,-1.506000042E0,5.028000355E0,8.473050117E0
3.192811762E1,-2.227050066E0,5.083050251E0,8.776950836E0
3.194890151E1,-2.559000015E0,4.893000126E0,9.151050568E0
3.196968539E1,-2.521050215E0,4.387950420E0,9.012000084E0
3.199046738E1,-2.715000153E0,4.435950279E0,8.776950836E0
3.201124938E1,-2.464050055E0,4.707000256E0,8.643000603E0
3.203203486E1,-2.421000004E0,4.810050011E0,8.767950058E0
3.205282036E1,-2.301000118E0,4.864950180E0,8.385000229E0
3.207360562E1,-2.052000046E0,5.068050385E0,8.221950531E0
3.209439089E1,-2.248050213E0,5.137950420E0,8.478000641E0
3.211517903E1,-2.418000221E0,5.242950439E0,8.796000481E0
3.213596718E1,-1.939050078E0,5.236050129E0,9.040950775E0
3.215675903E1,-1.177950025E0,5.205000401E0,8.848950386E0
3.217755088E1,-8.980500698E-1,5.242950439E0,8.397000313E0
3.219833642E1,-1.175999999E0,5.176050186E0,8.085000038E0
3.221912196E1,-1.792950034E0,5.158950329E0,7.798050404E0
3.223991099E1,-2.032950163E0,5.089950085E0,7.693050385E0
3.226070003E1,-1.930050135E0,4.980000019E0,7.696950436E0
3.228148345E1,-2.044950008E0,5.062950134E0,7.783950329E0
3.230226688E1,-1.980000138E0,4.738050461E0,7.759950161E0
3.232305073E1,-1.966050148E0,4.648950100E0,7.570950508E0
3.234383457E1,-1.888950109E0,4.795050144E0,7.470000267E0
3.236462239E1,-1.707000136E0,5.052000046E0,8.140049934E0
3.238541020E1,-1.531950116E0,5.044050217E0,8.421000481E0
3.240619758E1,-1.326000094E0,4.932000160E0,8.293950081E0
3.242698496E1,-1.117950082E0,4.909950256E0,8.059050560E0
3.244777441E1,-1.698000073E0,5.011050224E0,8.290950775E0
3.246856383E1,-1.771950126E0,4.993950367E0,8.739000320E0
3.248934550E1,-1.827000141E0,5.173950195E0,9.682050705E0
3.251012716E1,-1.587000132E0,5.194950104E0,9.723000526E0
3.253091393E1,-9.409500360E-1,5.194950104E0,9.723000526E0
3.255170070E1,-4.960500300E-1,5.011050224E0,9.061950684E0
3.257248767E1,-6.010500193E-1,5.017950058E0,8.065950394E0
3.259327463E1,-1.233000040E0,5.686050415E0,7.975050449E0
3.261405925E1,-6.490500569E-1,5.782050133E0,7.437000275E0
3.263484387E1,-1.093950033E0,6.304050446E0,6.871050358E0
3.265562706E1,-9.529500604E-1,5.832000256E0,7.623000145E0
3.267641026E1,-1.318950057E0,5.716950417E0,8.538000107E0
3.269719609E1,-1.558950067E0,5.724000454E0,7.398000240E0
3.271798193E1,-2.638050079E0,5.743050098E0,6.523950100E0
3.273876612E1,-3.991050243E0,6.535950184E0,2.631000042E0
3.275955031E1,-2.337000132E0,6.040050507E0,8.104949951E0
3.278033676E1,-3.115050077E0,5.901000500E0,8.914050102E0
3.280112318E1,-2.185950041E0,5.784000397E0,7.795950413E0
3.284652251E1,-4.747950077E0,5.286000252E0,9.498000145E0
3.286652252E1,-3.208050251E0,4.656000137E0,1.005300045E1
3.288730920E1,-1.630050063E0,4.848000050E0,1.179405022E1
3.290809491E1,-7.369500399E-1,4.494000435E0,1.312305069E1
3.292888034E1,-9.619500637E-1,3.676950216E0,1.292205048E1
3.294966600E1,-1.570950031E0,2.767050028E0,1.126005077E1
3.297045180E1,-2.538000107E0,3.274950266E0,1.013505077E1
3.299123760E1,-1.875000119E0,2.844000101E0,1.102995014E1
3.301202591E1,-9.700500369E-1,2.371950150E0,1.095105076E1
3.303281422E1,-1.050000042E-1,2.269050121E0,1.007700062E1
3.305359760E1,-3.379500210E-1,2.503950119E0,8.490000725E0
3.307438099E1,-7.879500389E-1,2.527950048E0,7.425000191E0
3.309516822E1,-1.213950038E0,2.695950031E0,8.386950493E0
3.311595545E1,-8.809500337E-1,2.755050182E0,7.237950325E0
3.313673887E1,3.679500222E-1,2.230950117E0,7.750050545E0
3.315752226E1,4.729500115E-1,2.442000151E0,8.049000740E0
3.317830566E1,6.930000186E-1,2.784000158E0,7.566000462E0
3.319908905E1,4.519500136E-1,3.129000187E0,8.011050224E0
3.321988095E1,-1.480500102E-1,3.001950026E0,8.524050713E0
3.324067283E1,-5.509500504E-1,2.518050194E0,9.555000305E0
3.326145391E1,-2.820000052E-1,2.662050009E0,1.001505089E1
3.328223500E1,-7.450500131E-1,2.415000200E0,1.025205040E1
3.330301531E1,-4.909500182E-1,1.747050047E0,1.100595093E1
3.332379562E1,-8.190000653E-1,1.257000089E0,1.178505039E1
3.334458142E1,-7.830000520E-1,1.627950072E0,1.143000031E1
3.336536722E1,-1.683000088E0,2.422950029E0,1.300995064E1
3.338614750E1,-8.710500598E-1,1.795050144E0,1.108800030E1
3.340692782E1,4.729500115E-1,2.650500238E-1,8.418000221E0
3.342770996E1,3.510000110E-1,-8.250000477E-1,6.939000130E0
3.344849211E1,-8.040000200E-1,-1.360500008E-1,8.097000122E0
3.346927523E1,-1.735950112E0,8.809500337E-1,8.884950638E0
3.349005834E1,-2.143050194E0,1.291950107E0,8.751000404E0
3.351084588E1,-2.428050041E0,1.980000138E-1,6.646050453E0
3.353163342E1,-2.188050032E0,-1.600950122E0,6.057000160E0
3.355242013E1,-2.599950075E0,4.260000288E-1,1.150005054E1
3.357320686E1,-2.974050045E0,1.435950041E0,9.421050072E0
3.359399410E1,-2.614950180E0,2.460000068E-1,9.927000046E0
3.361478133E1,-2.782050133E0,1.909500062E-1,1.100400066E1
3.363557074E1,-2.241000175E0,-1.450500041E-1,1.097505093E1
3.365636012E1,-1.855950117E0,-1.905000024E-2,1.010595036E1
3.367714397E1,-1.453050017E0,6.030000448E-1,9.904950142E0
3.369792782E1,1.860000044E-1,1.495950103E0,8.524050713E0
3.371871877E1,1.063950062E0,2.145000219E0,9.658050537E0
3.373950969E1,1.555050015E0,2.619000196E0,1.038600063E1
3.376029261E1,1.930950046E0,2.887050152E0,1.125105095E1
3.378107558E1,9.589500427E-1,3.676950216E0,1.184400082E1
3.380185784E1,9.970500469E-1,2.595000029E0,1.100595093E1
3.382264011E1,-3.040500283E-1,3.658050060E0,1.071900082E1
3.384342415E1,-8.140500188E-1,3.517050266E0,9.655950546E0
3.386420819E1,-1.039050102E0,3.387000084E0,9.084000587E0
3.388499065E1,-1.456050038E0,3.355950117E0,9.034049988E0
3.390577311E1,-1.246950030E0,3.226950169E0,8.986050606E0
3.392656232E1,-1.939050078E0,2.961000204E0,8.056950569E0
3.394735155E1,-2.752950191E0,2.940000057E0,7.585050583E0
3.396813570E1,-2.902050257E0,2.796000242E0,7.798050404E0
3.398891986E1,-1.659000039E0,2.170950174E0,8.374950409E0
3.400970511E1,-1.912950039E0,1.939050078E0,8.485050201E0
3.403049034E1,-2.892000198E0,1.900950074E0,8.097000122E0
3.405128001E1,-3.073950052E0,2.032050133E0,8.121000290E0
3.407206966E1,-1.884000063E0,1.819050074E0,8.779950142E0
3.409285521E1,-1.393050075E0,1.426950097E0,9.163050652E0
3.411364075E1,-1.642050028E0,1.300050020E0,9.019050598E0
3.413442938E1,-1.755000114E0,1.383000016E0,8.413050652E0
3.415521803E1,-1.264050007E0,1.381050110E0,8.682000160E0
3.417600446E1,-1.290000081E0,1.060050011E0,9.478950500E0
3.419679089E1,-1.747950077E0,9.979500771E-1,9.775950432E0
3.421757116E1,-1.567950130E0,1.161000013E0,9.702000618E0
3.423835148E1,-7.590000629E-1,1.426950097E0,9.667950630E0
3.425913118E1,-1.579500139E-1,1.429050088E0,9.883050919E0
3.427991087E1,1.120500043E-1,1.582050085E0,1.014900017E1
3.430069611E1,4.920000136E-1,1.692000031E0,1.062300014E1
3.432148134E1,1.218000054E0,1.635000110E0,1.082205009E1
3.434226814E1,1.732950091E0,1.671000123E0,1.079295063E1
3.436305495E1,2.098950148E0,1.591950059E0,1.026705074E1
3.438384032E1,2.008050203E0,1.567950130E0,9.724950790E0
3.440462571E1,2.026950121E0,1.371000051E0,9.405000687E0
3.442541324E1,1.957950115E0,1.291950107E0,9.148050308E0
3.444620078E1,1.821000099E0,1.297050118E0,9.043050766E0
3.446698398E1,1.749000072E0,1.345050097E0,8.785050392E0
3.448776718E1,1.543050051E0,1.482000113E0,8.308050156E0
3.450855353E1,1.314000010E0,1.695000052E0,7.944000244E0
3.452933987E1,1.303950071E0,1.846050143E0,7.726050377E0
3.455012493E1,1.218000054E0,2.107050180E0,7.597050190E0
3.457090998E1,7.920000553E-1,2.446950197E0,7.312050343E0
3.459169382E1,4.680000246E-1,2.683950186E0,7.210950375E0
3.461247767E1,4.639500082E-1,2.844000101E0,7.246950150E0
3.463326013E1,4.780500233E-1,3.129000187E0,7.735950470E0
3.465404259E1,5.230500102E-1,3.145950079E0,8.779950142E0
3.467482904E1,4.320000112E-1,3.112050056E0,9.667950630E0
3.469561550E1,-3.105000220E-2,3.451950073E0,1.036995029E1
3.471639986E1,-1.939500123E-1,3.454950094E0,1.069305038E1
3.473718422E1,-1.170000061E-1,2.956950188E0,1.053705025E1
3.475797209E1,-2.869500220E-1,2.724000216E0,1.065405083E1
3.477875993E1,-3.330000043E-1,1.893000126E0,1.183695030E1
3.479954330E1,-6.540000439E-1,7.080000043E-1,1.386795044E1
3.482032669E1,-1.210950017E0,1.530000120E-1,1.474095058E1
3.484110928E1,-1.006049991E0,8.805000782E-2,1.423905087E1
3.486189189E1,-2.400000021E-2,2.269500047E-1,1.336695099E1
3.488267743E1,1.263000011E0,5.100000501E-1,1.295805073E1
3.490346297E1,2.539050102E0,5.929500461E-1,1.267995071E1
3.492424713E1,2.629950047E0,9.289500713E-1,1.197105026E1
3.494503129E1,2.191950083E0,1.585050106E0,1.060905075E1
3.496581578E1,1.636950135E0,2.122950077E0,9.156000137E0
3.498660024E1,1.024049997E0,2.470050097E0,7.944000244E0
3.500738409E1,1.980000138E-1,2.832000017E0,6.871050358E0
3.502816794E1,-3.469500244E-1,2.940000057E0,6.250950336E0
3.504894758E1,-4.960500300E-1,2.983050108E0,5.964000225E0
3.506972723E1,-1.890000105E-1,2.866050243E0,6.141000271E0
3.509050772E1,-1.800000072E-1,2.643000126E0,6.220050335E0
3.511128822E1,-4.740000367E-1,2.716950178E0,6.727950096E0
3.513206942E1,8.505000174E-2,2.419950008E0,7.630050182E0
3.515285062E1,9.930000305E-1,2.281050205E0,8.242950439E0
3.517363419E1,1.536000013E0,2.180999994E0,8.406000137E0
3.519441777E1,1.843050122E0,2.311950207E0,8.557050705E0
3.521520717E1,1.828050137E0,2.521050215E0,8.368050575E0
3.523599655E1,1.582050085E0,2.857950211E0,7.987050533E0
3.525677885E1,1.315950036E0,3.280050039E0,7.896000385E0
3.527756117E1,9.499500394E-1,3.115050077E0,8.418000221E0
3.529834865E1,5.260500312E-1,3.273000240E0,9.274950027E0
3.531913614E1,1.189500093E-1,3.454950094E0,9.388050079E0
3.533992551E1,1.549500078E-1,2.944950104E0,9.603000641E0
3.536071490E1,6.840000153E-1,2.194950104E0,1.093500042E1
3.538150524E1,1.123950005E0,1.137000084E0,1.351995087E1
3.540229559E1,6.619500518E-1,6.120000482E-1,1.532295036E1
3.542308156E1,-2.899500132E-1,1.168050051E0,1.454295063E1
3.544386752E1,-4.429500103E-1,1.860000134E0,1.230900097E1
3.546465297E1,6.405000389E-2,2.605050087E0,1.109505081E1
3.548543839E1,1.314000010E0,2.731050014E0,1.078095055E1
3.550622545E1,2.178000212E0,2.569050074E0,1.097805023E1
3.552701248E1,2.724000216E0,2.403000116E0,1.095900059E1
3.554779900E1,1.753950119E0,2.844000101E0,1.017105007E1
3.556858550E1,2.013000011E0,2.808000088E0,8.694000244E0
3.558937315E1,1.551000118E0,2.941950083E0,7.360050201E0
3.561016080E1,1.198950052E0,3.097950220E0,6.852000237E0
3.563094695E1,1.416000009E0,2.668950081E0,7.048950195E0
3.565173311E1,1.467000127E0,2.224050045E0,7.369050503E0
3.567252188E1,1.414050102E0,1.936950088E0,7.594950199E0
3.569331065E1,1.254000068E0,1.840950131E0,7.879050255E0
3.571410237E1,1.096050024E0,1.812000036E0,8.017950058E0
3.573489410E1,1.126950026E0,1.671000123E0,7.864950180E0
3.575567975E1,1.086000085E0,1.767000079E0,7.378950119E0
3.577646541E1,9.300000668E-1,2.062950134E0,6.900000095E0
3.579724908E1,5.659500360E-1,2.533050060E0,6.627000332E0
3.581803278E1,3.820500076E-1,3.079050064E0,6.723000526E0
3.583882147E1,5.020500422E-1,3.454950094E0,7.504050255E0
3.585961012E1,5.899500251E-1,3.658050060E0,8.965950012E0
3.588039636E1,-5.505000427E-2,4.008000374E0,1.008900070E1
3.590118263E1,-5.820000172E-1,4.173000336E0,1.112100029E1
3.592196959E1,-5.839500427E-1,3.715050220E0,1.190400028E1
3.594275651E1,-1.027050018E0,3.294000149E0,1.200495052E1
3.596353681E1,-1.024950027E0,2.449050188E0,1.232805061E1
3.598431712E1,-3.690000176E-1,1.912950039E0,1.316805077E1
3.600509808E1,1.930500120E-1,1.738050103E0,1.314900017E1
3.602587904E1,7.840500474E-1,2.037000179E0,1.240005016E1
3.604665716E1,2.002950191E0,2.437050104E0,1.151595020E1
3.606743532E1,3.805950165E0,2.686050177E0,1.094205093E1
3.608821930E1,4.171950340E0,2.848950148E0,1.084395027E1
3.610900329E1,3.538050175E0,2.925000191E0,1.039605045E1
3.612978252E1,2.424000025E0,3.121950150E0,9.429000854E0
3.615056176E1,1.648950100E0,3.352050066E0,8.325000763E0
3.617134266E1,1.492950082E0,3.559950113E0,7.321950436E0
3.619212359E1,1.669950128E0,3.708000183E0,6.313950062E0
3.621290755E1,1.291950107E0,3.679950237E0,5.382000446E0
3.623369151E1,6.550500393E-1,3.687000275E0,4.759950161E0
3.625447599E1,4.200000316E-2,3.463950157E0,4.518000126E0
3.627526045E1,-9.409500360E-1,3.069000244E0,4.747950077E0
3.629604756E1,-1.774050117E0,2.530050039E0,6.247050285E0
3.631683468E1,-6.850500107E-1,1.831050038E0,8.433000565E0
3.633762018E1,-9.649500251E-1,4.860000312E-1,9.586950302E0
3.635840568E1,2.310000062E-1,3.829500079E-1,1.121700096E1
3.637919449E1,1.096050024E0,1.240500063E-1,1.231395054E1
3.639998330E1,1.395000100E0,6.705000252E-2,1.218900013E1
3.642077360E1,1.287000060E0,1.960500032E-1,1.212195015E1
3.644156391E1,1.206000090E0,3.420000076E-1,1.184205055E1
3.646234800E1,1.620000124E0,4.210500121E-1,1.187805080E1
3.648313212E1,2.211000204E0,5.359500051E-1,1.198095036E1
3.650392060E1,2.275950193E0,1.459500045E-1,1.141095066E1
3.652470906E1,2.428950071E0,7.395000011E-2,1.131000042E1
3.654549094E1,2.724000216E0,9.495000541E-2,1.206495094E1
3.656627283E1,2.623050213E0,5.500500202E-1,1.280505085E1
3.658706037E1,3.013050079E0,1.336050034E0,1.274895096E1
3.660784791E1,3.765000105E0,1.764000058E0,1.121700096E1
3.662863189E1,3.364950180E0,2.775000095E0,9.856950760E0
3.664941585E1,2.986950159E0,2.800950050E0,9.426000595E0
3.667020246E1,2.380950212E0,2.818050146E0,9.117000580E0
3.669098908E1,2.008050203E0,2.656950235E0,8.728950500E0
3.671177476E1,1.962000132E0,2.434950113E0,8.265000343E0
3.673256045E1,2.170950174E0,2.104050159E0,7.744950294E0
3.675334444E1,1.954950094E0,1.759050131E0,7.068000317E0
3.677412844E1,1.393050075E0,1.558050036E0,6.811950207E0
3.679490951E1,9.570000172E-1,1.330950022E0,6.886050224E0
3.681569059E1,6.930000186E-1,1.189950109E0,6.948000431E0
3.683647349E1,7.320000529E-1,9.690000415E-1,7.177950382E0
3.685725642E1,1.069050074E0,9.240000248E-1,7.314000130E0
3.687804105E1,6.480000019E-1,1.045950055E0,7.321950436E0
3.689882567E1,-3.210000098E-1,1.261050105E0,7.537050247E0
3.691961275E1,-8.479500413E-1,1.252050042E0,7.726050377E0
3.694039983E1,-9.910500646E-1,1.252050042E0,8.032950401E0
3.696118476E1,-1.594950080E0,1.395000100E0,8.394000053E0
3.698196969E1,-2.710050106E0,9.019500613E-1,9.097949982E0
3.700275852E1,-3.544050217E0,-2.460000068E-1,1.010400009E1
3.702354732E1,-4.288050175E0,-7.300500274E-1,1.143495083E1
3.704433134E1,-3.559950113E0,-1.726050138E0,1.254795074E1
3.706511534E1,-1.197000027E0,-2.094000101E0,1.366605091E1
3.708590426E1,1.476000071E0,-1.876950145E0,1.453305054E1
3.710669318E1,3.370050192E0,-1.054949999E0,1.478895092E1
3.712747596E1,4.323000431E0,2.460000068E-1,1.395105076E1
3.714825874E1,4.888050079E0,1.438950062E0,1.305405045E1
3.716904916E1,5.014950275E0,2.403000116E0,1.222305012E1
3.718983958E1,4.692000389E0,2.985000134E0,1.172895050E1
3.721063008E1,4.150950432E0,3.237000227E0,1.084800053E1
3.723142058E1,3.544950247E0,3.514050245E0,9.606000900E0
3.725220558E1,3.219000101E0,3.634050131E0,8.491950035E0
3.727299062E1,2.817000151E0,3.607950211E0,7.932000160E0
3.729377254E1,2.343000174E0,3.414000273E0,7.542000294E0
3.731455442E1,2.017050028E0,3.058950186E0,6.855000496E0
3.733534645E1,1.618050098E0,2.925000191E0,6.297000408E0
3.735613845E1,1.500000119E0,2.716950178E0,6.043050289E0
3.737692461E1,1.242000103E0,2.503950119E0,6.238950253E0
3.739771077E1,1.225050092E0,2.037000179E0,7.233000278E0
3.741849720E1,1.159950018E0,1.635000110E0,8.313000679E0
3.743928362E1,1.294050097E0,1.336050034E0,9.055050850E0
3.746006456E1,1.012050033E0,1.165950060E0,9.960000038E0
3.748084552E1,1.404000044E0,3.970500231E-1,1.075695038E1
3.750163489E1,1.717950106E0,9.000000544E-3,1.114500046E1
3.752242427E1,1.753950119E0,-4.300500154E-1,1.166205025E1
3.754320656E1,1.765950084E0,-3.709500134E-1,1.195005035E1
3.756398888E1,1.771050096E0,-6.580500603E-1,1.210500050E1
3.758477888E1,1.840050101E0,-9.360000491E-1,1.180800056E1
3.760556888E1,2.329050064E0,-6.270000339E-1,1.137000084E1
3.762635514E1,3.057000160E0,-6.340500116E-1,1.106100082E1
3.764714141E1,3.219000101E0,-2.100000083E-1,1.036500072E1
3.766792913E1,2.692950010E0,4.500000179E-2,1.043895054E1
3.768871686E1,1.771050096E0,7.150500417E-1,1.011795044E1
3.770950303E1,1.852050066E0,1.300050020E0,9.685050011E0
3.773028919E1,2.155950069E0,1.759050131E0,9.193950653E0
3.775107574E1,2.448000193E0,2.095050097E0,8.731950760E0
3.777186231E1,2.223000050E0,2.346000195E0,8.646000862E0
3.779264758E1,1.792050123E0,2.164050102E0,8.782050133E0
3.781343285E1,1.704000115E0,1.711050034E0,8.513999939E0
3.783421636E1,1.723050117E0,1.620000124E0,8.398950577E0
3.785499986E1,1.785000086E0,1.429050088E0,8.727000237E0
3.787577893E1,1.882950068E0,1.015050054E0,8.527950287E0
3.789655801E1,1.084050059E0,1.120050073E0,8.029950142E0
3.791734354E1,8.179500103E-1,1.209000111E0,8.413050652E0
3.793812907E1,1.314000010E0,1.039050102E0,8.770050049E0
3.795891048E1,1.900050044E0,9.430500269E-1,9.250950813E0
3.797969191E1,1.669950128E0,1.173000097E0,9.574950218E0
3.800047499E1,1.278000116E0,1.539000034E0,9.694050789E0
3.802125806E1,1.243950009E0,2.262000084E0,1.022100067E1
3.804204052E1,3.021000147E0,1.869000077E0,1.030695057E1
3.806282298E1,2.524950027E0,2.470050097E0,9.940950394E0
3.808360638E1,1.954950094E0,3.213000059E0,1.107600021E1
3.810438976E1,1.759050131E0,2.326950073E0,1.271595097E1
3.812517780E1,1.303950071E0,1.477050066E0,1.411695099E1
3.814596580E1,2.704950094E0,9.105000645E-2,1.518000031E1
3.816675072E1,5.650050163E0,-7.800000310E-1,1.400205040E1
3.818753564E1,7.785000324E0,8.020500541E-1,9.148050308E0
3.820832319E1,5.584950447E0,5.350950241E0,3.499950171E0
3.822911073E1,3.933000088E0,6.640950203E0,1.537050128E0
3.824989455E1,4.237050056E0,5.122950077E0,4.045950413E0
3.827067840E1,3.646050215E0,3.495000124E0,8.440050125E0
3.829146779E1,2.338050127E0,3.790050268E0,1.119105053E1
3.831225717E1,2.077050209E0,4.146000385E0,1.116705036E1
3.833304486E1,1.006950021E0,5.431950092E0,1.012500095E1
3.835383255E1,-7.800000310E-1,5.787000179E0,9.748950005E0
3.837462205E1,-1.374000072E0,5.353050232E0,1.064205074E1
3.839541155E1,-2.077950001E0,4.731000423E0,1.055595016E1
3.841619866E1,-2.728950024E0,4.269000053E0,9.328050613E0
3.843698578E1,-2.430000067E0,3.748950243E0,9.010050774E0
3.845777190E1,-1.561050057E0,3.036000252E0,9.712950706E0
3.847855802E1,-1.630500108E-1,1.884000063E0,1.131495094E1
3.849934218E1,-1.221000075E0,1.534050107E0,9.936000824E0
3.852012634E1,-2.571000099E0,1.764000058E0,8.052000046E0
3.854091509E1,-3.057000160E0,2.881950140E0,7.255050182E0
3.856170386E1,-2.044950008E0,3.658050060E0,8.112000465E0
3.858249513E1,-8.190000653E-1,3.366000175E0,9.057000160E0
3.860328640E1,-3.379500210E-1,3.454950094E0,9.715950012E0
3.862406652E1,-9.105000645E-2,3.687000275E0,1.034595013E1
3.864484665E1,3.000000119E-2,3.474000216E0,1.128405094E1
3.866562933E1,2.770500183E-1,3.142950058E0,1.170300102E1
3.868641198E1,1.366050124E0,3.186000109E0,1.219395065E1
3.870719641E1,3.046950102E0,3.121950150E0,1.301295090E1
3.872798087E1,3.961950302E0,3.069000244E0,1.294095039E1
3.874876624E1,3.535050154E0,3.286950111E0,1.185195065E1
3.876955163E1,2.101050138E0,3.792000294E0,1.094205093E1
3.879033281E1,1.639050126E0,3.969000101E0,1.061595058E1
3.881111400E1,2.089050055E0,3.816000223E0,9.847950935E0
3.883190339E1,1.882950068E0,3.652950287E0,8.346000671E0
3.885269277E1,1.444950104E0,3.526050091E0,6.771000385E0
3.887348000E1,5.740500093E-1,3.619950056E0,5.634000301E0
3.889426724E1,9.040500522E-1,3.451950073E0,5.161950111E0
3.891505528E1,1.182000041E0,3.354000092E0,4.822050095E0
3.893584332E1,1.062000036E0,3.085950136E0,4.815000057E0
3.895662682E1,6.499500275E-1,2.764950037E0,5.593050480E0
3.897741032E1,1.069500074E-1,2.818050146E0,6.496050358E0
3.899819354E1,3.370500207E-1,2.779050112E0,7.231050491E0
3.901897677E1,4.950000346E-1,2.917950153E0,7.168050289E0
3.903975709E1,-8.895000070E-2,3.234000206E0,6.907050133E0
3.906053740E1,-6.439500451E-1,4.206000328E0,6.601050377E0
3.908131801E1,-6.390000582E-1,5.116050243E0,6.436050415E0
3.910209863E1,-6.420000196E-1,5.680950165E0,6.771000385E0
3.912288145E1,-2.623950243E0,6.676950455E0,6.949950218E0
3.914366426E1,-4.141950130E0,6.907050133E0,7.008000374E0
3.916444758E1,-3.892950296E0,6.297000408E0,7.606950283E0
3.918523093E1,-3.192000151E0,6.181950092E0,1.007700062E1
3.920600891E1,-3.001950026E0,6.759000301E0,1.265805054E1
3.922678692E1,-2.310000181E0,7.426950455E0,1.208895016E1
3.924756292E1,-6.900000572E-1,7.431000233E0,1.030695057E1
3.926833892E1,9.829500318E-1,6.823050499E0,9.742050171E0
3.928912036E1,1.084050059E0,6.012000084E0,1.096305084E1
3.930990178E1,6.139500141E-1,5.434950352E0,1.181805038E1
3.933068929E1,3.730500042E-1,5.226000309E0,1.134405041E1
3.935147679E1,2.479500175E-1,5.286000252E0,9.405000687E0
3.937226037E1,6.139500141E-1,5.077950478E0,7.510950565E0
3.939304395E1,4.159500301E-1,4.965000153E0,7.044000149E0
3.941382945E1,-4.305000231E-2,4.570050240E0,6.831000328E0
3.943461495E1,-4.450500309E-1,4.281000137E0,6.589050293E0
3.945540638E1,-7.159500122E-1,4.048050404E0,6.601050377E0
3.947619780E1,-1.269000053E0,3.474000216E0,5.763000488E0
3.949698550E1,-2.160000086E0,3.973950148E0,6.181950092E0
3.951777320E1,-2.914050102E0,3.586050272E0,6.832950115E0
3.953856331E1,-3.112950087E0,3.390000105E0,7.731000423E0
3.955935343E1,-2.500050068E0,3.454950094E0,9.012000084E0
3.958014009E1,-3.474000216E0,4.045950413E0,9.769050598E0
3.960092675E1,-3.589050055E0,3.711000204E0,9.294000626E0
3.962171269E1,-4.246950150E0,3.808950186E0,9.555000305E0
3.964249865E1,-4.357950211E0,3.511950254E0,1.004205036E1
3.966327960E1,-3.814050198E0,3.591000080E0,1.027905083E1
3.968406056E1,-2.605050087E0,3.517050266E0,1.016100025E1
3.970484609E1,-2.655000210E0,4.036050320E0,1.018995094E1
3.972563163E1,-1.690050125E0,3.379950047E0,1.058700085E1
3.974641751E1,-6.340500116E-1,3.816000223E0,1.099905014E1
3.976720336E1,8.010000587E-1,3.256050110E0,9.976950645E0
3.978799028E1,-4.189500213E-1,4.477050304E0,8.631000519E0
3.980877720E1,3.679500222E-1,3.687000275E0,7.623000145E0
3.982956545E1,-3.760500252E-1,3.865950108E0,6.627000332E0
3.985035373E1,-8.895000070E-2,3.273000240E0,7.591950417E0
3.987114048E1,-6.439500451E-1,3.304050207E0,7.699950218E0
3.989192725E1,-1.285950065E0,2.892000198E0,7.578000546E0
3.991270986E1,-2.980950117E0,2.548950195E0,7.285950184E0
3.993349248E1,-3.876000166E0,2.628000021E0,6.795000553E0
3.995427482E1,-3.294000149E0,2.569050074E0,6.939000130E0
3.997505717E1,-3.685050249E0,2.676000118E0,6.814050198E0
3.999583745E1,-4.341000080E0,2.596950054E0,6.780000210E0
4.001661772E1,-4.096950054E0,2.434950113E0,7.180050373E0
4.003740156E1,-3.081000090E0,2.073000193E0,8.422950745E0
4.005818540E1,-2.902050257E0,2.185950041E0,8.773050308E0
4.007897252E1,-3.733050108E0,2.122950077E0,9.880950928E0
4.009975963E1,-3.823950291E0,2.095050097E0,9.502950668E0
4.012054331E1,-3.457050085E0,3.826050282E0,9.205950737E0
4.014132700E1,-2.361000061E0,2.584950209E0,1.028295040E1
4.016211056E1,-2.976000071E0,2.353049994E0,1.416705036E1
4.018289410E1,-2.442000151E0,3.081000090E0,1.555305099E1
4.020368410E1,-2.449050188E0,3.411000252E0,1.495695114E1
4.022447410E1,-2.542950153E0,3.483000278E0,1.299405098E1
4.024526314E1,-2.337000132E0,5.001000404E0,1.050105095E1
4.026605222E1,-4.600500166E-1,5.257050037E0,6.651000500E0
4.028683947E1,1.708950043E0,5.238000393E0,7.843950272E0
4.030762670E1,2.238000154E0,6.547950268E0,8.191050529E0
4.032841300E1,8.560500145E-1,5.716950417E0,8.301000595E0
4.034919931E1,6.499500275E-1,4.394999981E0,8.479949951E0
4.036998655E1,7.699500322E-1,4.170000076E0,8.764950752E0
4.039077378E1,1.713000059E0,3.292050123E0,8.704950333E0
4.041155879E1,8.850000501E-1,3.960000277E0,8.923050880E0
4.043234384E1,1.633950114E0,3.603000164E0,9.088950157E0
4.045313402E1,1.486050129E0,3.660000086E0,7.747950554E0
4.047392421E1,6.670500040E-1,4.063050270E0,6.838050365E0
4.049471710E1,4.110000134E-1,3.591000080E0,6.555000305E0
4.051550998E1,7.249500155E-1,3.331950188E0,6.511950493E0
4.053629797E1,1.597950101E0,2.980050087E0,6.117000103E0
4.055708597E1,1.215000033E0,4.266000271E0,6.771000385E0
4.057787277E1,3.319500089E-1,4.812000275E0,7.554000378E0
4.059865958E1,-5.629500151E-1,4.366950035E0,8.895000458E0
4.061944556E1,-7.090500593E-1,3.847050190E0,1.069005013E1
4.064023156E1,-5.770500302E-1,3.889950275E0,1.117905045E1
4.066102295E1,-1.990500093E-1,3.370950222E0,1.221105099E1
4.068181434E1,7.304999977E-2,2.887050152E0,1.270395088E1
4.070260050E1,-9.409500360E-1,2.548950195E0,1.260600090E1
4.072338666E1,-2.404050112E0,2.736000061E0,1.251705074E1
4.074417555E1,-3.073950052E0,2.869950056E0,1.209600067E1
4.076496443E1,-2.053950071E0,2.788950205E0,1.169400024E1
4.078574798E1,-8.089500666E-1,2.073000193E0,1.046100044E1
4.080653152E1,-1.135050058E0,3.651000261E0,1.118100071E1
4.082731770E1,-1.594950080E0,3.907050133E0,8.988000870E0
4.084810385E1,-1.894050121E0,3.471000195E0,8.401050568E0
4.086888753E1,-1.738050103E0,3.474000216E0,7.936950207E0
4.088967123E1,-2.332050085E0,4.174950123E0,7.099050522E0
4.091045599E1,-2.011049986E0,3.718050241E0,6.637050152E0
4.093124076E1,-2.032950163E0,3.664950132E0,6.439950466E0
4.095202291E1,-3.223050117E0,3.778050184E0,6.763950348E0
4.097280507E1,-2.859000206E0,3.121950150E0,6.241950512E0
4.099358679E1,-2.502000093E0,3.505050182E0,5.848950386E0
4.101436852E1,-2.725050211E0,4.048050404E0,5.988000393E0
4.103515254E1,-2.482950211E0,3.571950197E0,5.727000237E0
4.105593654E1,-2.377050161E0,4.336050034E0,6.649050236E0
4.107671684E1,-3.250950098E0,4.419000149E0,6.814050198E0
4.109749715E1,-4.273950100E0,4.093950272E0,7.447950363E0
4.111828081E1,-6.165000439E0,5.218950272E0,5.254950047E0
4.113906446E1,-4.453050137E0,4.816950321E0,8.221950531E0
4.115984911E1,-4.321950436E0,5.350950241E0,1.002000046E1
4.118063376E1,-5.368050098E0,5.487000465E0,1.064505005E1
