"Time (s)","Acceleration x (m/s^2)","Acceleration y (m/s^2)","Acceleration z (m/s^2)"
2.519881700E-2,-4.964509010E0,5.736194134E0,4.985445976E0
4.629840100E-2,-4.643272400E0,5.768496990E0,6.214758396E0
6.739793200E-2,-4.468596458E0,5.541777134E0,6.888338089E0
8.849761900E-2,-4.611567497E0,5.545366287E0,6.711269379E0
1.095975150E-1,-4.365705013E0,5.787041664E0,6.390032768E0
1.306971510E-1,-3.524029493E0,5.401198864E0,6.483353138E0
1.517967860E-1,-3.336791277E0,4.950151920E0,6.918248653E0
1.728963690E-1,-3.359523058E0,4.459024906E0,7.964509964E0
1.939956920E-1,-3.246462107E0,4.171288013E0,8.444869041E0
2.150952760E-1,-2.947957516E0,3.965505362E0,8.367102623E0
2.361948070E-1,-2.836691141E0,3.747160196E0,8.093722343E0
2.572942860E-1,-2.381456852E0,3.449253798E0,7.783253670E0
2.783938170E-1,-2.214557409E0,3.702294827E0,8.180462837E0
2.994934010E-1,-2.184048891E0,3.704089403E0,8.950951576E0
3.205930880E-1,-1.989033818E0,3.729812384E0,9.129216194E0
3.416928800E-1,-1.241276741E0,3.784249067E0,9.162715912E0
3.627924630E-1,-1.395613790E0,3.726821184E0,8.886942863E0
3.838920980E-1,-1.542772412E0,3.815953970E0,9.413364410E0
4.049915780E-1,-4.845465720E-1,3.040679455E0,9.919445992E0
4.260912130E-1,-8.913264424E-2,2.852244616E0,9.817152977E0
4.471909010E-1,2.033899166E-2,3.236890793E0,1.014556789E1
4.682903800E-1,4.947160780E-1,3.050250769E0,1.000199890E1
4.893896510E-1,5.778666735E-1,2.752942562E0,9.460023880E0
5.104892340E-1,1.609173268E-1,2.815753937E0,8.888737679E0
5.315885570E-1,-5.282155871E-1,3.480958700E0,8.732007980E0
5.526880880E-1,-9.535398483E-1,4.170091629E0,8.811569214E0
5.737876190E-1,-1.902294010E-1,3.740580082E0,8.732007980E0
5.948871510E-1,8.949156404E-1,2.845664263E0,8.767302513E0
6.159866820E-1,1.411765337E0,1.748555183E0,9.129815102E0
6.370863170E-1,8.356932998E-1,1.609173179E0,8.561519623E0
6.581861610E-1,1.495514214E-1,2.139183521E0,8.200801849E0
6.792861090E-1,-2.231307179E-1,2.604587555E0,7.878966808E0
7.003857960E-1,-3.236292601E-1,2.892324448E0,7.801798344E0
7.214856920E-1,-1.549352705E-1,2.781656265E0,7.861618996E0
7.425853800E-1,-1.579262912E-1,2.389233351E0,8.100302696E0
7.636848590E-1,-2.632105052E-1,2.501097918E0,8.311469078E0
7.847842340E-1,-5.982056726E-3,2.295913219E0,8.591429710E0
8.058839210E-1,5.389832854E-1,1.749751568E0,8.845666885E0
8.269835050E-1,2.793620527E-1,1.767697692E0,8.933603287E0
8.480832960E-1,-6.221338734E-2,2.373680115E0,8.796015739E0
8.691830360E-1,2.997010350E-1,2.464607239E0,8.886942863E0
8.902825150E-1,3.158525825E-1,2.136192322E0,8.799007416E0
9.113823590E-1,-9.026923180E-1,2.072184324E0,8.604590416E0
9.324821510E-1,-1.738385677E0,1.981257200E0,8.289934158E0
9.535817340E-1,-1.367498159E0,1.786840320E0,8.011170387E0
9.746812650E-1,-6.747759581E-1,1.786242127E0,7.864011765E0
9.957805360E-1,-1.399801224E-1,1.829911113E0,7.639086246E0
1.016880171E0,1.854437590E-1,2.009970903E0,7.393822193E0
1.037979598E0,3.050848842E-2,2.437089920E0,7.308876991E0
1.059079390E0,5.006981492E-1,2.785245657E0,7.620542049E0
1.080179130E0,7.591229677E-1,2.649452925E0,7.560122967E0
1.101278973E0,5.467599630E-1,2.281556368E0,8.007580757E0
1.122378609E0,7.716853023E-1,1.302891970E0,7.732406139E0
1.143478557E0,5.742774159E-2,7.477570772E-1,5.697908878E0
1.164578192E0,1.178465188E-1,-5.300102234E-1,5.825924873E0
1.185677776E0,-6.717849374E-1,-5.150550604E-1,7.415955544E0
1.206777619E0,-1.733600020E0,3.385843933E-1,9.669994354E0
1.227877255E0,-2.341377020E0,1.319043517E0,1.216989613E1
1.248976942E0,-2.414956331E0,1.802393675E0,1.264008522E1
1.270076682E0,-8.973085135E-2,5.006981492E-1,1.280279732E1
1.291176682E0,1.473978758E0,-3.810569942E-1,1.474337673E1
1.312276578E0,-1.373480201E0,1.798206210E0,1.326939774E1
1.333376526E0,-1.756331801E0,1.132403374E0,1.071805096E1
1.354476630E0,-1.730608940E0,-2.273181453E-2,9.797411919E0
1.375576630E0,-3.491726398E0,1.447657645E-1,9.747162819E0
1.396676369E0,-3.779463291E0,1.339980662E-1,9.589237213E0
1.417776213E0,-4.281357765E0,-1.082752272E-1,9.592227936E0
1.438876161E0,-4.748556614E0,1.926222295E-1,1.068455124E1
1.459976057E0,-3.696312666E0,1.884347796E-1,9.172286987E0
1.481075484E0,-3.402593851E0,-3.589233849E-3,8.379665375E0
1.502175328E0,-1.792822361E0,-9.427721500E-1,7.363313675E0
1.523274963E0,-2.200200319E0,-1.306481123E0,6.886543751E0
1.544374755E0,-1.756331801E0,-1.907677889E0,5.710471153E0
1.565474651E0,-2.937189937E-1,-2.167897224E0,6.406782627E0
1.586574078E0,1.025324464E0,-2.295913219E0,6.105287075E0
1.607673557E0,2.793022156E0,-2.605185747E0,7.947760582E0
1.628773088E0,3.198007345E0,-3.230310678E0,8.112865448E0
1.649872515E0,3.070589542E0,-4.329812527E0,5.325226784E0
1.670971890E0,5.173282623E0,-5.637490273E0,5.209773064E0
1.692071421E0,6.830910206E0,-5.201996326E0,9.376275063E0
1.713171005E0,6.267400742E0,-4.999803066E0,1.246481133E1
1.734270484E0,5.350351334E0,-5.769693375E0,1.010070229E1
1.755369911E0,5.516652584E0,-5.881557941E0,8.437092781E0
1.776469859E0,6.672984123E0,-4.693521500E0,8.562715530E0
1.797569598E0,6.934400082E0,-2.796013355E0,8.786444664E0
1.818669494E0,6.821339130E0,-1.252044439E0,8.732605934E0
1.839769234E0,7.161119938E0,-3.637090325E-1,8.400602341E0
1.860869234E0,7.629515171E0,-1.950150430E-1,6.476772785E0
1.881968661E0,7.599604607E0,-1.519442350E-1,3.354737282E0
1.903068348E0,7.058826923E0,-5.108676553E-1,9.200403094E-1
1.924167880E0,7.148557663E0,-1.817348838E0,3.284149170E-1
1.945267151E0,7.913662910E0,-3.276970625E0,9.110672474E-1
1.966366890E0,9.711869240E0,-5.163711071E0,1.116251707E0
1.987466734E0,1.054756260E1,-7.119843960E0,1.365703583E0
2.008566630E0,9.801001549E0,-7.914260864E0,3.021536827E0
2.029666578E0,9.950552940E0,-7.368697166E0,5.624927998E0
2.050766630E0,1.120618629E1,-6.490531445E0,7.657032490E0
2.071866369E0,1.230030441E1,-5.547759533E0,7.631907940E0
2.092966057E0,1.240439224E1,-4.490729809E0,5.334797859E0
2.114065901E0,1.123789120E1,-3.782454491E0,3.805784464E0
2.135165796E0,1.097827053E1,-3.635295868E0,3.204587698E0
2.156265588E0,1.071147060E1,-3.306880951E0,1.919043779E0
2.177365328E0,9.632308006E0,-2.003390789E0,6.622136831E-1
2.198465171E0,8.857032776E0,-9.505487680E-1,-1.866401732E-1
2.219565015E0,7.342376232E0,-2.123630047E-1,-3.529413417E-2
2.240664807E0,6.264409542E0,2.919243574E-1,9.637092948E-1
2.261764755E0,5.562714577E0,6.987041831E-1,1.872383714E0
2.282864651E0,5.938985825E0,4.654040039E-1,2.616551638E0
2.303964911E0,8.116454124E0,-1.475773335E0,3.051447153E0
2.325064859E0,9.359525681E0,-4.150949001E0,3.034099102E0
2.346164755E0,9.542576790E0,-5.768496990E0,2.341377020E0
2.367264546E0,1.205982590E1,-8.778069496E0,1.012762189E0
2.388364390E0,1.069412231E1,-9.058030128E0,7.836493850E-2
2.409464182E0,1.087418270E1,-7.519444942E0,-6.957131624E-1
2.430564390E0,1.074855900E1,-6.518048763E0,-3.379862010E-1
2.451664286E0,1.042971611E1,-6.656832695E0,1.389631748E0
2.472764234E0,9.144171715E0,-7.479963779E0,2.903092146E0
2.493864078E0,6.899703979E0,-6.607181549E0,2.960519791E0
2.514964234E0,5.598008633E0,-5.069792747E0,1.718046665E0
2.536064338E0,5.606981754E0,-3.780659676E0,5.970092416E-1
2.557164390E0,7.183253765E0,-3.695714474E0,-8.494520187E-2
2.578263817E0,8.956933022E0,-4.051646709E0,-8.727820516E-1
2.599363244E0,1.044826031E1,-4.887938499E0,-1.405185103E0
2.620462880E0,1.209332561E1,-7.285546780E0,-1.661815286E0
2.641562619E0,1.038006496E1,-8.327022552E0,-9.894321561E-1
2.662662567E0,9.970293999E0,-7.375875950E0,9.302098155E-1
2.683762359E0,1.072163963E1,-5.754140377E0,3.007179976E0
2.704862046E0,1.114098263E1,-4.195814610E0,4.120440483E0
2.725961578E0,1.136770248E1,-3.226721287E0,4.191029072E0
2.747061265E0,1.112303638E1,-2.874378204E0,3.956532240E0
2.768161005E0,9.984052658E0,-2.736192703E0,2.848655462E0
2.789260744E0,8.997013092E0,-2.868396044E0,1.079761267E0
2.810360276E0,8.480163574E0,-2.291127682E0,-5.922235847E-1
2.831460015E0,8.148757935E0,-1.585843205E0,-1.880758643E0
2.852559859E0,7.816154957E0,-1.580459356E0,-2.044667006E0
2.873659598E0,7.109674454E0,-1.563111424E0,-1.111466169E0
2.894758973E0,6.477969170E0,-1.801197290E0,-7.776673883E-2
2.915858296E0,5.831906796E0,-1.868196249E0,7.286145091E-1
2.936957723E0,5.811567783E0,-2.163111687E0,1.044467092E0
2.958056942E0,6.468397617E0,-3.061616659E0,9.840483069E-1
2.979156421E0,6.698108673E0,-4.126422882E0,6.161518097E-1
3.000255692E0,6.325426579E0,-5.096712112E0,2.883351147E-1
3.021355276E0,7.221538544E0,-6.491129398E0,-1.866401732E-1
3.042454442E0,8.642875671E0,-8.653642654E0,-8.961120844E-1
3.063553921E0,6.664609432E0,-7.932805061E0,-9.409775138E-1
3.084653505E0,8.258229256E0,-7.320840836E0,-5.676971674E-1
3.105752828E0,9.933803558E0,-6.943971157E0,1.328016520E-1
3.126852463E0,1.074078274E1,-6.605985165E0,1.281356573E0
3.147952307E0,9.979267120E0,-6.069394588E0,2.392822742E0
3.169052098E0,8.550751686E0,-5.500501156E0,3.108874798E0
3.190151734E0,7.286743164E0,-4.826921463E0,3.011367321E0
3.211251265E0,6.775277138E0,-4.119244099E0,2.337189436E0
3.232350588E0,6.879963398E0,-3.697509289E0,1.496710539E0
3.253449963E0,7.939385414E0,-4.042674065E0,5.916253924E-1
3.274549130E0,8.386244774E0,-4.645665169E0,-3.236292601E-1
3.295648348E0,8.875576973E0,-5.643472195E0,-1.204187989E0
3.316747359E0,1.145503998E1,-7.838887215E0,-1.728814363E0
3.337845901E0,1.075992489E1,-8.232506752E0,-1.704886079E0
3.358944807E0,1.034058285E1,-7.277172089E0,-4.486542568E-2
3.380044026E0,1.194616699E1,-7.018746853E0,2.293520451E0
3.401143036E0,1.299661636E1,-6.055635929E0,4.103092670E0
3.422242411E0,1.331067371E1,-4.871787071E0,4.923232555E0
3.443341838E0,1.378564930E1,-3.944568157E0,4.310669899E0
3.464441005E0,1.370429325E1,-4.029513359E0,1.841277003E0
3.485540223E0,1.245404339E1,-3.278167009E0,-1.051047325E0
3.506639494E0,1.070728302E1,-1.941775560E0,-3.520440340E0
3.527738557E0,9.096315384E0,-9.684949517E-1,-4.390231133E0
3.548837567E0,8.020741463E0,-3.714857101E-1,-2.890529871E0
3.569936578E0,6.685546398E0,-1.387837082E-1,-7.980063558E-1
3.591035640E0,5.481358528E0,2.949153781E-1,1.039681435E0
3.612134755E0,5.204987526E0,8.949156404E-1,2.065604210E0
3.633233869E0,6.663413048E0,4.869394004E-1,2.178664923E0
3.654333244E0,8.883952141E0,-1.768894196E0,9.906286001E-1
3.675432880E0,1.012283611E1,-5.072783947E0,-1.207179070E0
3.696532359E0,8.564510345E0,-6.433701992E0,-3.428316593E0
3.717631786E0,1.001755238E1,-7.819744587E0,-3.683152199E0
3.738731109E0,9.847661972E0,-8.883354187E0,-1.633699656E0
3.759830588E0,9.492925644E0,-7.543373585E0,2.475374937E0
3.780929807E0,1.131805134E1,-7.540382385E0,6.138786316E0
3.802028921E0,1.024965572E1,-7.253243446E0,7.076773167E0
3.823128401E0,7.711469173E0,-7.202396393E0,5.224728107E0
3.844227619E0,5.763113499E0,-6.595815659E0,2.758326292E0
3.865326838E0,5.145765305E0,-4.389633179E0,2.156531334E0
3.886425796E0,6.247061729E0,-2.300100803E0,2.595016241E0
3.907525067E0,8.381459236E0,-1.864607096E0,3.017947674E0
3.928624286E0,8.997013092E0,-2.250449657E0,2.724228621E0
3.949723348E0,9.191430092E0,-3.370888948E0,2.596810818E0
3.970822619E0,9.204590797E0,-4.777868748E0,2.659622431E0
3.991922046E0,8.617751122E0,-4.984847546E0,2.166700840E0
4.013021786E0,9.134002686E0,-4.424927235E0,2.787040234E0
4.034121421E0,1.046321487E1,-3.980460405E0,4.280161381E0
4.055221161E0,1.109432220E1,-3.269792080E0,4.935794830E0
4.076320848E0,1.047398281E1,-2.305484533E0,5.501697540E0
4.097420380E0,1.065763187E1,-1.874178290E0,6.409773827E0
4.118519963E0,1.121097183E1,-1.464407444E0,6.623332977E0
4.139619494E0,1.155374432E1,-1.094118118E0,5.517848969E0
4.160718713E0,1.130010509E1,-8.739784956E-1,3.757927895E0
4.181817932E0,1.060618591E1,-5.898307562E-1,2.294118643E0
4.202917098E0,1.010728264E1,-5.006981492E-1,9.439685345E-1
4.224016786E0,9.411569595E0,-4.163511395E-1,5.874379873E-1
4.245116005E0,8.589036942E0,-3.858426511E-1,9.798609018E-1
4.266215432E0,7.880163193E0,-4.576273263E-1,1.322034478E0
4.287314859E0,7.401598454E0,-7.405785918E-1,1.902892232E0
4.308414234E0,7.264609337E0,-2.053041935E0,2.365903378E0
4.329513921E0,7.478168964E0,-3.555734396E0,2.337189436E0
4.350613401E0,7.538587570E0,-4.364508629E0,1.941177368E0
4.371712828E0,7.575676441E0,-4.597210407E0,1.673181176E0
4.392812046E0,7.948956966E0,-4.057030678E0,2.268395901E0
4.413910901E0,8.767302513E0,-3.726821184E0,4.361517429E0
4.435010171E0,9.104091644E0,-3.750749588E0,6.870990276E0
4.456109390E0,8.434102058E0,-3.654438496E0,7.961519241E0
4.477208401E0,7.312466145E0,-3.030509949E0,8.009375572E0
4.498307619E0,7.246663570E0,-1.782054663E0,8.646464348E0
4.519406578E0,7.712665558E0,-5.665007830E-1,1.003908730E1
4.540505901E0,7.132406235E0,8.027920127E-1,1.127139091E1
4.561605328E0,6.710670948E0,1.307677627E0,1.089990520E1
4.582704442E0,6.594619274E0,1.479960799E0,1.008993530E1
4.603803661E0,6.159125328E0,9.798609018E-1,1.138385391E1
4.624903036E0,4.783850670E0,1.510469317E0,1.233739376E1
4.646002567E0,4.447061062E0,1.473978758E0,1.164945698E1
4.667102098E0,4.785645485E0,9.188438654E-1,1.269930840E1
4.688201578E0,4.279563427E0,5.826523304E-1,1.160877895E1
4.709301213E0,2.824727058E0,6.191428304E-1,9.249456406E0
4.730400484E0,2.931805849E0,8.171489239E-1,9.132207870E0
4.751499859E0,3.515654564E0,9.056833982E-1,1.009472084E1
4.772599286E0,4.391427994E0,9.607182741E-1,1.137906837E1
4.793698869E0,5.475974560E0,1.359123230E0,1.032562828E1
4.814798036E0,6.532405853E0,2.094317913E0,7.700103283E0
4.835897671E0,6.222535133E0,2.428116798E0,5.206781864E0
4.856997359E0,4.926223755E0,2.030908108E0,4.971088886E0
4.878096734E0,3.715455294E0,1.754537225E0,6.226124287E0
4.899196473E0,3.217149973E0,1.733600020E0,5.886343479E0
4.920295848E0,3.107080221E0,1.950748682E0,4.747360229E0
4.941395223E0,1.789831281E0,1.659422517E0,4.413561344E0
4.962494598E0,2.316252232E0,1.448854089E0,5.532206059E0
4.983593921E0,2.888735056E0,2.059023857E0,6.055037498E0
5.004693244E0,3.547359467E0,2.234896421E0,6.374479294E0
5.025792723E0,2.844467878E0,2.255235434E0,8.286943436E0
5.046892411E0,2.468196630E0,2.252842426E0,9.239286423E0
5.067992046E0,2.035693884E0,2.576471806E0,7.797012806E0
5.089091838E0,1.149751306E0,3.190230846E0,6.998407841E0
5.110191526E0,8.470591903E-1,3.460021496E0,8.473583221E0
5.131291473E0,5.742774606E-1,2.485544443E0,1.018086243E1
5.152391109E0,1.261615753E0,2.129612207E0,1.111047363E1
5.173490484E0,1.684547186E0,2.338984251E0,1.156810093E1
5.194590276E0,1.731207132E0,2.682952404E0,1.006720352E1
5.215689963E0,9.427721500E-1,3.201596737E0,9.558130264E0
5.236789442E0,-1.020538807E0,3.536591768E0,8.934800148E0
5.257889078E0,-2.575873613E0,3.448655605E0,9.619147301E0
5.278988661E0,-2.341377020E0,3.121437073E0,9.929018021E0
5.300088088E0,-6.203392744E-1,2.932404041E0,8.818747520E0
5.321188088E0,1.544566989E0,3.008376360E0,8.122436523E0
5.342287515E0,1.609771490E0,3.249453068E0,7.714460373E0
5.363386994E0,7.722834945E-1,3.564109325E0,6.695117950E0
5.384487098E0,2.033899166E-2,3.455235958E0,6.722635269E0
5.405587359E0,-1.136590727E-2,2.903690338E0,8.803792953E0
5.426687567E0,2.775674164E-1,2.716451883E0,1.065643597E1
5.447787567E0,-4.426721856E-2,3.073580742E0,1.038305569E1
5.468887567E0,-8.482556343E-1,3.686143398E0,9.951150894E0
5.489987567E0,-2.241476536E0,5.014159679E0,9.883553505E0
5.511087776E0,-3.876372576E-1,5.218147755E0,9.396016121E0
5.532188140E0,1.221535921E0,4.238885403E0,8.513663292E0
5.553288348E0,1.567298770E-1,3.772883177E0,9.842277527E0
5.574388296E0,2.967100143E-1,2.855235577E0,1.197069359E1
5.595487880E0,9.092726111E-1,2.057827473E0,1.193659592E1
5.616587880E0,-5.330012441E-1,3.276970625E0,1.089691448E1
5.637688036E0,-1.494915962E0,4.083950043E0,9.081359863E0
5.658788192E0,-1.801197290E0,5.623133183E0,8.871390343E0
5.679888140E0,-3.214159012E0,6.778268337E0,9.323633194E0
5.700988088E0,-3.051447153E0,6.702894211E0,9.067003250E0
5.722087776E0,-6.251249313E-1,4.789234638E0,8.272585869E0
5.743187463E0,5.808576941E-1,3.733999729E0,8.228319168E0
5.764287359E0,-2.470589429E-1,3.915854216E0,7.972885132E0
5.785387151E0,-1.195214868E0,4.278367043E0,7.155735970E0
5.806487098E0,-1.548754454E0,4.176073551E0,6.289534092E0
5.827587255E0,-1.545763373E0,4.086941242E0,6.340980053E0
5.848687203E0,-1.295713425E0,4.134797573E0,7.028318405E0
5.869787151E0,-9.224331379E-1,3.583251953E0,7.572087288E0
5.890887098E0,-1.296909928E0,3.269792080E0,7.761120319E0
5.911987151E0,-1.962114573E0,3.190829039E0,7.523034573E0
5.933087046E0,-2.318047047E0,2.949752092E0,7.491329670E0
5.954186682E0,-2.882154942E0,2.930609465E0,8.536395073E0
5.975286317E0,-3.357728481E0,3.393022537E0,9.156734467E0
5.996386109E0,-3.792025566E0,3.872783422E0,9.443872452E0
6.017485692E0,-7.433303356E0,5.136193752E0,5.992824078E0
6.038585640E0,-5.144568920E0,4.247858524E0,9.596415520E0
6.059685744E0,-4.079164505E0,3.464807272E0,1.359123230E1
6.114587728E0,-3.413959742E0,2.585444927E0,7.408178806E0
6.135687832E0,-2.992224693E0,2.442473650E0,8.801998138E0
6.156787832E0,-3.616153240E0,2.332403898E0,9.104091644E0
6.177887780E0,-4.043870449E0,2.169692039E0,8.347960472E0
6.198987676E0,-3.595814228E0,2.328814745E0,8.416155815E0
6.220087623E0,-2.888735056E0,2.281556368E0,8.711071014E0
6.241187467E0,-2.471187592E0,1.695314884E0,8.512466431E0
6.262287155E0,-2.236092806E0,1.504487276E0,8.113463402E0
6.283387259E0,-1.590628862E0,1.563111424E0,7.550551891E0
6.304487363E0,-8.931210637E-1,1.934597135E0,7.625327587E0
6.325587155E0,8.255238086E-2,1.971685886E0,8.109873772E0
6.346687155E0,6.927221417E-1,1.609771490E0,8.727222443E0
6.367787207E0,5.042873621E-1,1.568495274E0,8.802596092E0
6.388886998E0,-2.189432681E-1,1.769492388E0,8.380861282E0
6.409987051E0,-7.525427341E-1,1.846062660E0,8.124231339E0
6.431086894E0,-7.339983582E-1,1.734198213E0,7.634898663E0
6.452186738E0,-5.246263742E-1,1.621137381E0,7.238886833E0
6.473286790E0,-1.788634956E-1,1.386042476E0,6.923632145E0
6.494387103E0,1.369891018E-1,1.345962763E0,7.040880680E0
6.515487519E0,1.082752272E-1,1.324427366E0,7.683951855E0
6.536587832E0,-1.866401732E-1,1.331605792E0,8.304290771E0
6.557687884E0,-1.143769264E0,1.378265858E0,8.288737297E0
6.578788196E0,-1.313061476E0,1.631905079E0,8.900103569E0
6.599888248E0,-6.508477330E-1,2.266601324E0,9.576076508E0
6.620988040E0,8.255238086E-2,2.563909531E0,1.018205833E1
6.642087936E0,1.926222295E-1,2.671586514E0,1.097946644E1
6.663187936E0,1.056431174E0,1.721635938E0,1.279561901E1
6.684287832E0,1.319641709E0,1.073180914E0,1.401356602E1
6.705387676E0,3.218346536E-1,1.734198213E0,1.347338581E1
6.726487363E0,7.974081635E-1,1.831107497E0,1.222552872E1
6.747587051E0,2.149951220E0,1.380060434E0,1.099621677E1
6.768686946E0,2.426322222E0,1.322034478E0,1.115892887E1
6.789786582E0,2.154736757E0,2.179263115E0,1.148674488E1
6.810886634E0,3.085544825E0,3.129812002E0,1.170867920E1
6.831986738E0,3.859024763E0,3.662214994E0,1.115892887E1
6.853086738E0,3.611965895E0,3.822534084E0,1.019222832E1
6.874186582E0,3.011367321E0,3.099303484E0,9.343374252E0
6.895286634E0,1.750349760E0,2.699103832E0,8.542376518E0
6.916386842E0,7.645068169E-1,2.333600283E0,7.947162151E0
6.937486738E0,2.859423161E-1,1.580459356E0,7.605587006E0
6.958586634E0,-2.237289101E-1,1.051645517E0,6.655037880E0
6.979686738E0,-1.046261668E0,1.045065284E0,5.772684574E0
7.000786842E0,-8.662018180E-1,7.549355626E-1,5.851647854E0
7.021886738E0,3.541377485E-1,2.650051117E-1,5.822335720E0
7.042986634E0,9.984052777E-1,4.606183469E-1,6.190830231E0
7.064086790E0,8.632107973E-1,1.030110121E0,8.194819450E0
7.085186634E0,8.362914920E-1,8.787640929E-1,1.110389328E1
7.106286426E0,5.539384484E-1,5.886343718E-1,1.188156128E1
7.127386426E0,9.690931439E-2,3.194418252E-1,1.005823040E1
7.148486738E0,-2.907279432E-1,5.952146053E-1,7.372884750E0
7.169586842E0,2.027917206E-1,1.246062398E0,5.372485161E0
7.190686530E0,8.135597110E-1,2.196611166E0,5.027918816E0
7.211786165E0,9.427721500E-1,3.214757204E0,7.014559746E0
7.232886009E0,3.936193287E-1,3.494717360E0,9.960124016E0
7.253986061E0,-5.563312769E-2,3.083152056E0,1.193181038E1
7.275085801E0,-7.639086246E-1,2.502892494E0,1.220040417E1
7.296185488E0,-9.218349457E-1,2.049452543E0,1.175234795E1
7.317285384E0,-7.477570772E-1,2.069193363E0,1.191147137E1
7.338385176E0,-3.044866920E-1,2.665604353E0,1.229432297E1
7.359484915E0,9.457631707E-1,1.867598057E0,1.295294762E1
7.380584603E0,-3.798605800E-1,1.818545222E0,1.324008560E1
7.401684446E0,-1.546959877E0,1.688136339E0,1.329751396E1
7.422784238E0,-1.475773335E0,1.252044439E0,1.297268772E1
7.443884342E0,-1.582852125E0,1.338784218E0,1.243310642E1
7.464984342E0,-1.542772412E0,1.690529227E0,1.185284710E1
7.486084394E0,-1.059422255E0,2.190030813E0,1.087956619E1
7.507184498E0,5.563312769E-1,2.303091764E0,1.049970531E1
7.528284551E0,1.654636860E0,2.753540754E0,1.015813065E1
7.549384811E0,2.170888424E0,3.078964472E0,9.309874535E0
7.570484915E0,2.188834429E0,3.202793121E0,8.172685623E0
7.591585071E0,2.087737799E0,3.176471949E0,7.219744205E0
7.612685280E0,2.027318954E0,2.877369165E0,6.702894211E0
7.633785176E0,1.706680775E0,2.547159672E0,6.445067883E0
7.654884915E0,1.333400369E0,2.175673962E0,6.399604321E0
7.675984446E0,1.080359459E0,1.907677889E0,7.007979393E0
7.697084238E0,1.021137118E0,1.695913076E0,8.042875290E0
7.718183821E0,7.292127013E-1,1.278963685E0,9.724431038E0
7.739283405E0,-7.058826834E-2,1.137188911E0,1.157767200E1
7.760382988E0,-9.583254457E-1,1.357328653E0,1.198205948E1
7.781482832E0,-6.269195080E-1,1.578066587E0,1.125224876E1
7.802583226E0,1.604985833E0,9.972088337E-1,1.121635628E1
7.823683121E0,2.140978098E0,1.574477315E0,1.129771233E1
7.844782965E0,1.789831281E0,2.250449657E0,1.016770172E1
7.865883173E0,1.510469317E0,2.538186550E0,8.336593628E0
7.886983017E0,2.327019930E0,2.632104874E0,6.850052834E0
7.908082705E0,1.904686809E0,3.214757204E0,5.662614822E0
7.929182548E0,1.461416483E0,3.976871252E0,5.130211830E0
7.950282444E0,9.906286001E-1,4.601995945E0,4.679164886E0
7.971382080E0,1.440479279E0,4.361517429E0,4.603790760E0
7.992481767E0,1.039681435E0,3.854238987E0,5.923432350E0
8.013581559E0,-4.654040039E-1,3.845864296E0,8.130811691E0
8.034681663E0,-1.046859860E0,4.060021877E0,9.324232101E0
8.055781351E0,-8.315058798E-2,4.256233215E0,1.034297562E1
8.076881142E0,9.840483069E-1,4.737788677E0,1.122054386E1
8.097980986E0,2.761317253E0,3.987638950E0,1.126421261E1
8.119080882E0,2.601596355E0,2.816950560E0,1.029511929E1
8.140180778E0,2.267199516E0,1.646261930E0,9.349356651E0
8.161280621E0,1.909472466E0,9.104689956E-1,9.698708534E0
8.182380257E0,1.094118118E0,1.494915962E0,1.116311550E1
8.203479996E0,1.558325768E0,2.640479803E0,1.200419331E1
8.224579892E0,4.048655987E0,3.115455151E0,1.224945736E1
8.245679736E0,6.114260197E0,3.138186932E0,1.195573807E1
8.266779476E0,5.307280540E0,3.040679455E0,1.102971554E1
8.287879163E0,3.268595695E0,2.343171597E0,1.013719273E1
8.308979215E0,1.654038668E0,1.280758262E0,9.528220177E0
8.330079163E0,1.692921966E-1,6.065805554E-1,8.793025017E0
8.351179319E0,-9.571290612E-1,4.289134443E-1,7.975875854E0
8.372279215E0,-1.177268744E0,6.047859192E-1,7.630113125E0
8.393379111E0,-7.657032609E-1,4.965106845E-1,7.582256794E0
8.414479111E0,-3.972085714E-1,2.045863420E-1,7.652246952E0
8.435579267E0,-6.334998012E-1,-2.261217386E-1,8.596215248E0
8.456679215E0,-1.200000525E0,-9.774680734E-1,9.491130829E0
8.477779371E0,-1.743171334E0,-1.422533035E0,9.764511108E0
8.498879371E0,-1.786242127E0,-1.448255897E0,9.862018585E0
8.519979423E0,-1.740180254E0,-1.214357495E0,1.053918743E1
8.541079476E0,-1.769492388E0,-1.065404296E0,1.122114182E1
8.562179111E0,-9.589236975E-1,-1.295713425E0,1.111047363E1
8.583278903E0,-8.548358679E-1,-1.076770186E0,1.016471100E1
8.604378746E0,-1.442273855E0,-4.941178858E-1,9.038289070E0
8.625478538E0,-1.604387641E0,5.383851007E-2,7.945367813E0
8.646578278E0,-1.060618639E0,5.886343718E-1,7.341179848E0
8.667678173E0,-5.820540786E-1,1.123430252E0,7.266404152E0
8.688777809E0,-4.612165689E-1,1.628315806E0,7.396812916E0
8.709877496E0,-4.701896608E-1,1.971685886E0,8.153543472E0
8.730977184E0,-7.142575383E-1,2.263610125E0,8.765507698E0
8.752076871E0,-9.744769931E-1,2.475374937E0,8.377870560E0
8.773176611E0,-5.156532526E-1,2.437089920E0,7.756334782E0
8.794276194E0,2.500499785E-1,2.044667006E0,8.148159027E0
8.815375726E0,2.033899166E-2,2.157129526E0,9.972088814E0
8.836474996E0,8.554341197E-1,1.065404296E0,1.274536991E1
8.857574840E0,-4.037888348E-1,-3.649054468E-1,1.465244961E1
8.878674736E0,-2.344966173E0,-1.178465128E0,1.478166199E1
8.899774319E0,-2.723032236E0,-1.670190215E0,1.439522076E1
8.920873746E0,-2.609373093E0,-1.499103427E0,1.471585941E1
8.941973069E0,-3.298506021E0,-5.533402562E-1,1.519442368E1
8.963072496E0,-2.586043119E0,-3.170489892E-2,1.490369606E1
8.984171923E0,-1.336989641E0,1.184447184E-1,1.479063511E1
9.005271559E0,-9.092725813E-2,4.486542568E-2,1.409193039E1
9.026371090E0,-9.212367237E-2,2.919243574E-1,1.178824043E1
9.047470934E0,-2.679961324E-1,4.977070987E-1,9.195018768E0
9.068570830E0,-3.990031779E-1,3.409772217E-1,7.057630539E0
9.089670257E0,-9.571290612E-1,2.715853751E-1,6.329614162E0
9.110769528E0,-1.152144074E0,1.902294010E-1,6.543771744E0
9.131869319E0,-1.473978758E0,1.926222295E-1,7.009175777E0
9.152969423E0,-1.368694544E0,4.259224236E-1,7.488338470E0
9.174069580E0,-7.417750359E-1,5.132604837E-1,7.494320393E0
9.195169580E0,-3.714857101E-1,5.659025311E-1,7.366902828E0
9.216269580E0,-1.022931710E-1,5.324030519E-1,7.765307903E0
9.237369371E0,1.794616925E-3,5.599204898E-1,8.555537224E0
9.258469267E0,-8.404789567E-1,8.679963946E-1,9.306883812E0
9.279569111E0,-1.192822099E0,1.287338614E0,9.281160355E0
9.300669371E0,7.657032460E-2,1.341177106E0,8.799605370E0
9.321769632E0,1.397408366E0,1.465603828E0,8.451449394E0
9.342869632E0,7.609176040E-1,2.325823545E0,8.949156761E0
9.363969580E0,1.992024779E-1,2.719442844E0,9.933204651E0
9.385069528E0,1.549352705E-1,2.678166628E0,9.613164902E0
9.406169371E0,-3.170489892E-2,2.685943365E0,8.544171333E0
9.427269267E0,-2.937189937E-1,2.968296528E0,8.134400368E0
9.448369476E0,-7.387840152E-1,3.479164124E0,8.191828728E0
9.469469528E0,-3.649054468E-1,3.849453449E0,8.158329010E0
9.490569632E0,5.455635786E-1,3.847658873E0,7.950153351E0
9.511669684E0,7.226324677E-1,4.013361931E0,7.634898663E0
9.532769632E0,3.936193287E-1,4.149154663E0,7.288537979E0
9.553869528E0,1.980060786E-1,4.433301926E0,7.821538925E0
9.574969632E0,9.409775138E-1,4.385445595E0,9.512067795E0
9.596069476E0,1.189831018E0,4.232305050E0,1.085085201E1
9.617169215E0,9.451649338E-2,4.449453831E0,1.119003487E1
9.638269215E0,3.146561682E-1,4.189234257E0,1.067677498E1
9.659369319E0,1.619342685E0,3.418147087E0,9.945767403E0
9.680469319E0,1.135992527E0,3.525824070E0,1.122592735E1
9.701569684E0,5.539384484E-1,3.192025423E0,1.303789234E1
9.722669892E0,7.058826834E-2,2.776870728E0,1.294337559E1
9.743769840E0,-6.191428304E-1,2.606382132E0,1.135334492E1
9.764869684E0,-7.812566161E-1,2.889333248E0,1.023828983E1
9.785969423E0,3.667000830E-1,3.070589542E0,9.919445992E0
9.807069319E0,1.733600020E0,3.183650494E0,9.628718376E0
9.828169007E0,2.394617319E0,3.166900873E0,8.845666885E0
9.849268694E0,2.083550215E0,3.068794966E0,7.572685242E0
9.870368434E0,1.367498159E0,3.002394199E0,6.318248272E0
9.891468434E0,1.042074203E0,2.886940479E0,5.717649937E0
9.912568798E0,8.440681696E-1,2.936591625E0,5.405984402E0
9.933668486E0,7.214360237E-1,3.126222849E0,5.662614822E0
9.954768278E0,7.866404653E-1,3.035295486E0,6.346961975E0
9.975868173E0,5.102694035E-1,2.670390129E0,7.107879639E0
9.996967809E0,2.105683982E-1,2.405385017E0,7.496115208E0
1.001806718E1,4.097708762E-1,2.260619164E0,7.743174076E0
1.003916698E1,9.110672474E-1,2.051845312E0,8.770891190E0
1.006026687E1,4.199403822E-1,2.230110645E0,1.023350430E1
1.008136682E1,-2.667997181E-1,2.535195589E0,1.057807064E1
1.010246651E1,5.264209956E-2,2.830111027E0,9.932008743E0
1.012356625E1,1.738983870E0,2.502892494E0,9.920642853E0
1.014466646E1,1.738385677E0,2.931805849E0,1.109970570E1
1.016576651E1,9.774680734E-1,3.169293642E0,1.143171024E1
1.018686640E1,6.951149702E-1,2.885744095E0,1.040698433E1
1.020796651E1,6.143572330E-1,2.514258385E0,9.279366493E0
1.022906651E1,1.770688742E-1,2.612962246E0,9.092725754E0
1.025016640E1,-1.076770201E-2,3.002394199E0,9.596415520E0
1.027126609E1,-5.922235921E-2,3.330809116E0,9.821340561E0
1.029236567E1,1.657029688E-1,3.339184046E0,9.574281693E0
1.031346526E1,4.480560422E-1,3.201596737E0,9.180064201E0
1.033456505E1,4.594219327E-1,3.163311481E0,8.528019905E0
1.035566484E1,2.380858511E-1,3.385245800E0,8.130811691E0
1.037676453E1,-5.922235921E-2,3.645465374E0,8.599804878E0
1.039786432E1,9.272187948E-2,3.477369547E0,9.443274498E0
1.041896421E1,-3.122633696E-1,3.658027649E0,9.436096191E0
1.044006380E1,-5.300102234E-1,3.978067636E0,8.872586250E0
1.046116338E1,1.084546804E0,2.874976397E0,8.501100540E0
1.048226270E1,7.501499057E-1,2.338984251E0,9.238089561E0
1.050336239E1,-4.594219327E-1,2.118844509E0,1.121874905E1
1.052446187E1,-6.825526357E-1,1.715055585E0,1.235175037E1
1.054556135E1,-7.357929647E-2,1.161117196E0,1.219681549E1
1.056666109E1,2.374876440E-1,1.134197950E0,1.207717419E1
1.058776088E1,-1.052841991E-1,2.092523336E0,1.202333546E1
1.060886078E1,3.960121572E-1,2.290529490E0,1.138863945E1
1.062996057E1,1.168893814E0,2.044667006E0,1.064806080E1
1.065106036E1,1.250249863E0,1.936391711E0,9.847661972E0
1.067215994E1,8.488538265E-1,1.975275040E0,8.888737679E0
1.069326005E1,7.405785918E-1,2.012962103E0,7.806583881E0
1.071436005E1,8.195417523E-1,2.078166485E0,6.870990276E0
1.073545994E1,6.478567123E-1,2.164308071E0,6.448058605E0
1.075655984E1,6.017948985E-1,2.105684042E0,6.575476646E0
1.077765968E1,9.014959335E-1,1.855035782E0,6.838686943E0
1.079875922E1,5.204389095E-1,1.652244091E0,7.580461979E0
1.081985901E1,-4.432703853E-1,1.630708575E0,9.154939651E0
1.084095896E1,-1.992024779E-1,1.503889084E0,9.723235130E0
1.086205906E1,4.899304509E-1,1.402194023E0,1.035972595E1
1.088315906E1,3.176472187E-1,1.640279889E0,1.111406326E1
1.090425890E1,-5.533402562E-1,2.090130568E0,1.157527924E1
1.092535843E1,-9.792626500E-1,2.260020971E0,1.124507046E1
1.094645833E1,-1.082752272E-1,2.002194405E0,1.086341476E1
1.096755823E1,6.586244106E-1,2.282752752E0,1.106620693E1
1.098865807E1,4.707878530E-1,2.988037348E0,1.160339546E1
1.100975776E1,6.424728632E-1,2.463410854E0,1.131685448E1
1.103085744E1,6.095715761E-1,1.850250125E0,1.112004471E1
1.105195750E1,-3.332005441E-1,1.927418590E0,1.036271667E1
1.107305755E1,-9.762716293E-1,2.236092806E0,9.531210899E0
1.109415760E1,-3.146561682E-1,1.802991867E0,8.711071014E0
1.111525724E1,-3.702892959E-1,2.045265198E0,8.941379547E0
1.113635687E1,-3.320041299E-1,2.463410854E0,8.722436905E0
1.115745635E1,-1.286142230E0,3.299104214E0,8.019545555E0
1.117855599E1,-2.707478762E0,3.640081406E0,7.337590694E0
1.119965562E1,-3.963710785E0,3.686143398E0,7.205985546E0
1.122075531E1,-4.080360889E0,3.616751432E0,6.406782627E0
1.124185531E1,-3.555734396E0,3.645465374E0,6.258427620E0
1.126295515E1,-2.892324448E0,3.681357622E0,7.004988194E0
1.128405500E1,-2.432304144E0,3.959523201E0,8.250452042E0
1.130515468E1,-2.155334949E0,3.980460405E0,9.250652313E0
1.132625458E1,-3.034099102E0,4.271786690E0,9.462417603E0
1.134735427E1,-3.739383698E0,4.874777794E0,9.662218094E0
1.136845416E1,-2.367099762E0,4.375874519E0,9.928419113E0
1.138955422E1,-1.875972986E0,4.251447678E0,9.698708534E0
1.141065427E1,-3.664607763E0,4.872983456E0,1.012343407E1
1.143175422E1,-4.455435753E0,4.793421745E0,1.038843918E1
1.145285396E1,-3.884149313E0,4.568496704E0,1.033220863E1
1.147395354E1,-3.588037491E0,4.761716843E0,9.689735413E0
1.149505359E1,-3.640081406E0,5.020142078E0,8.679366112E0
1.151615333E1,-4.070789337E0,4.956133842E0,6.706483841E0
1.153725307E1,-3.470789194E0,4.658227444E0,7.339385033E0
1.155835297E1,-2.362314224E0,4.545166492E0,8.271389961E0
1.157945265E1,-2.429313183E0,4.554738045E0,7.347161770E0
1.161816521E1,-4.184448719E0,2.493321180E0,7.751548767E0
1.163926505E1,-2.983251572E0,2.442473650E0,8.389236450E0
1.166036510E1,-2.281556368E0,2.225325108E0,9.009575844E0
1.168146479E1,-2.260619164E0,2.210968018E0,9.235098839E0
1.170256453E1,-2.627319336E0,2.239681959E0,9.026923180E0
1.172366448E1,-2.946162939E0,2.322234392E0,8.666803360E0
1.174476443E1,-3.077169895E0,2.485544443E0,8.615956306E0
1.176586453E1,-2.783450842E0,2.485544443E0,8.516654015E0
1.178696448E1,-2.449054003E0,2.431107759E0,8.554939270E0
1.180806417E1,-2.218744755E0,2.535195589E0,8.754141808E0
1.182916370E1,-1.802991867E0,2.520240545E0,8.897710800E0
1.185026365E1,-1.533201098E0,2.593819857E0,8.983852386E0
1.187136360E1,-1.373480201E0,2.671586514E0,9.056235313E0
1.189246380E1,-1.290329576E0,2.676970243E0,8.949156761E0
1.191356422E1,-1.001396298E0,2.638685226E0,8.864809990E0
1.193466417E1,-5.204389095E-1,2.585444927E0,8.591429710E0
1.195576401E1,7.657032460E-2,2.250449657E0,8.196015358E0
1.197686386E1,2.476571500E-1,2.112264156E0,7.984251022E0
1.199796349E1,8.793623000E-2,1.892124534E0,7.875975609E0
1.201906339E1,-1.848455518E-1,1.698904037E0,7.363911629E0
1.204016328E1,-7.357929647E-2,1.745564103E0,6.819544315E0
1.206126339E1,1.627119333E-1,1.890329838E0,6.682555676E0
1.208236365E1,3.607180119E-1,1.719841242E0,6.524031162E0
1.210346349E1,2.620140910E-1,1.445264935E0,6.771687984E0
1.212456354E1,3.894318938E-1,1.494915962E0,8.043473244E0
1.214566339E1,2.087737769E-1,1.877169371E0,9.134600639E0
1.216676307E1,-9.212367237E-2,2.076970100E0,9.291928291E0
1.218786261E1,1.914258115E-2,1.955534339E0,9.207581520E0
1.220896214E1,7.848458290E-1,1.182054400E0,9.181859016E0
1.223006167E1,1.483550072E0,7.082754970E-1,9.250652313E0
1.225116130E1,8.506484628E-1,1.275972724E0,9.387641907E0
1.227226083E1,1.034895778E-1,1.826321840E0,9.812367439E0
1.229336036E1,-4.372883439E-1,2.065604210E0,1.065105152E1
1.231445974E1,-9.607182741E-1,2.496910334E0,1.136291695E1
1.233555922E1,-9.810572863E-1,3.253042459E0,1.152503014E1
1.235665901E1,1.003190875E0,3.312862873E0,1.192881870E1
1.237775844E1,2.076970100E0,2.544168711E0,1.189711380E1
1.239885807E1,1.363908887E0,2.559123755E0,1.201555920E1
1.241995771E1,3.990031779E-1,2.761317253E0,1.221177006E1
1.244105729E1,-1.686939895E-1,2.608176708E0,1.176311588E1
1.246215703E1,-6.029912829E-1,2.757728100E0,1.125583744E1
1.248325672E1,-6.299105883E-1,3.073580742E0,1.113021469E1
1.250435641E1,-4.175475538E-1,3.190230846E0,1.098485088E1
1.252545620E1,-5.383851007E-2,3.102294445E0,1.008215809E1
1.254655583E1,7.483552694E-1,3.104089260E0,9.596415520E0
1.256765557E1,1.262213945E0,2.907877684E0,9.271589279E0
1.258875526E1,1.198205948E0,2.752942562E0,8.700303078E0
1.260985505E1,1.051645517E0,2.504687071E0,7.885547161E0
1.263095448E1,1.099501967E0,2.261815548E0,7.082755089E0
1.265205401E1,1.250848055E0,2.210968018E0,6.706483841E0
1.267315365E1,1.317847013E0,2.355733871E0,6.768098831E0
1.269425297E1,1.068395257E0,2.620738983E0,6.894918442E0
1.271535240E1,7.435696125E-1,2.818745136E0,6.970890522E0
1.273645203E1,5.347958803E-1,2.798406124E0,6.979265213E0
1.275755182E1,7.082754970E-1,2.475973129E0,6.887740135E0
1.277865172E1,9.876375198E-1,2.080559254E0,6.728617191E0
1.279975162E1,9.667003751E-1,2.075773716E0,7.067201614E0
1.282085167E1,8.985049129E-1,2.353341103E0,7.673183918E0
1.284195162E1,7.178468108E-1,2.721835852E0,8.400003433E0
1.286305167E1,3.361915946E-1,2.924029350E0,8.854640007E0
1.288415151E1,-8.315058798E-2,2.922234535E0,9.043074608E0
1.290525136E1,1.178465188E-1,2.893520832E0,9.362516403E0
1.292635099E1,7.609176040E-1,2.906083107E0,9.763913155E0
1.294745063E1,1.006181955E0,2.982653379E0,1.039143085E1
1.296855042E1,8.219345808E-1,3.334398270E0,1.075693417E1
1.298965010E1,1.116251707E0,3.187239647E0,1.049611664E1
1.301075005E1,1.377069473E0,2.797807932E0,9.906285286E0
1.303184979E1,1.243071318E0,3.152543783E0,9.446864128E0
1.305294927E1,1.107278705E0,3.723232031E0,9.396016121E0
1.307404886E1,7.657032609E-1,3.999004841E0,9.316454887E0
1.309514807E1,3.337987661E-1,4.058227062E0,9.318847656E0
1.311624776E1,3.092723191E-1,3.817748547E0,9.153144836E0
1.313734750E1,5.204389095E-1,3.343371391E0,9.138788223E0
1.315844724E1,4.450650215E-1,3.031108141E0,9.123234749E0
1.317954672E1,2.476571500E-1,3.038884640E0,9.196215630E0
1.320064630E1,2.279163599E-1,3.105883837E0,9.735198975E0
1.322174594E1,1.130608693E-1,3.267399311E0,1.040758228E1
1.324284531E1,-2.410768867E-1,3.731008768E0,9.970293999E0
1.326394474E1,4.384847581E-1,3.927220106E0,9.526425362E0
1.328504406E1,2.164308071E0,3.137588739E0,9.416953087E0
1.330614380E1,1.109073281E0,3.731606960E0,9.235098839E0
1.332724375E1,2.500499785E-1,3.831507206E0,1.023769188E1
1.334834354E1,-9.391828626E-2,3.351148129E0,1.109432220E1
1.336944344E1,-7.226324677E-1,3.236890793E0,1.083470058E1
1.339054323E1,-7.453642488E-1,3.423531055E0,1.028913784E1
1.341164292E1,5.635097623E-1,3.518645763E0,1.030469036E1
1.343274281E1,1.353141189E0,3.966103554E0,1.061635590E1
1.345384266E1,1.461416483E0,4.234099865E0,1.039143085E1
1.347494234E1,1.250249863E0,3.824927092E0,9.615557671E0
1.349604167E1,6.669993401E-1,3.336791277E0,8.409575462E0
1.351714099E1,1.752742529E-1,2.947957516E0,7.217949390E0
1.353824057E1,-1.962114573E-1,2.751745939E0,6.342774391E0
1.355934016E1,-5.377869010E-1,2.793620348E0,5.961119175E0
1.358043964E1,-3.649054468E-1,2.623729944E0,6.144768715E0
1.360153927E1,-2.751746029E-2,2.325823545E0,6.449853420E0
1.362263917E1,2.392822690E-2,2.040479422E0,6.660421848E0
1.364373912E1,-3.188436031E-1,1.843669891E0,6.911668301E0
1.366483906E1,-4.773681164E-1,1.600200176E0,6.768697262E0
1.368593917E1,-5.455635786E-1,1.683350682E0,6.808178425E0
1.370703922E1,-1.726421595E0,2.910868645E0,7.708477974E0
1.372813912E1,-1.611566067E0,3.453441381E0,9.440283775E0
1.374923886E1,-3.864408433E-1,2.917448997E0,1.035793114E1
1.377033849E1,-8.931210637E-1,3.485146284E0,9.897911072E0
1.379143828E1,-7.274180651E-1,3.588037491E0,9.442078590E0
1.381253823E1,-1.914258115E-2,3.617947817E0,9.282955170E0
1.383363813E1,5.341976285E-1,3.758526087E0,9.345169067E0
1.385473776E1,5.264209956E-2,3.753740549E0,1.008694363E1
1.387583724E1,-1.068395257E0,3.506083488E0,1.118106174E1
1.389693698E1,-1.980060697E0,3.169293642E0,1.153819084E1
1.391803693E1,-2.056032896E0,2.603390932E0,1.068814087E1
1.393913672E1,-1.922633052E0,2.532802820E0,9.317651749E0
1.396023662E1,-1.915454507E0,3.250649452E0,8.741579056E0
1.398133630E1,-1.118644595E0,3.747160196E0,8.823533058E0
1.400243583E1,-4.307080805E-1,4.410570145E0,8.843872070E0
1.402353578E1,3.571287692E-1,4.173082829E0,9.327222824E0
1.404463552E1,6.047859192E-1,3.220739365E0,9.770493507E0
1.406573531E1,-2.739782035E-1,2.896511793E0,1.038843918E1
1.408683526E1,-7.118647099E-1,2.465803623E0,1.103270721E1
1.410793511E1,-1.101894855E0,2.267199516E0,1.107218838E1
1.412903490E1,-1.684547186E0,2.620738983E0,1.008993530E1
1.415013464E1,-1.580459356E0,3.049652576E0,9.498309135E0
1.417123443E1,-6.903293133E-1,3.517449379E0,9.601201057E0
1.419233417E1,3.936193287E-1,3.761517286E0,9.975079536E0
1.421343380E1,6.041877270E-1,3.627519131E0,9.880562782E0
1.423453328E1,-1.052841991E-1,2.991028309E0,9.238089561E0
1.425563292E1,-8.817551732E-1,1.828116536E0,8.453244209E0
1.427673271E1,-1.850848317E0,1.037288666E0,7.306483746E0
1.429783292E1,-2.402393818E0,1.166501045E0,6.462415695E0
1.431893328E1,-1.362712502E0,1.303490162E0,6.626922131E0
1.434003354E1,-1.501496136E-1,2.008176327E0,7.382455826E0
1.436113375E1,1.221535921E0,3.198605776E0,8.701499939E0
1.438223386E1,2.104487419E0,3.801596880E0,1.024726295E1
1.440333370E1,1.384846091E0,4.188635826E0,1.129890823E1
1.442443380E1,1.215553880E0,3.087937593E0,1.050628567E1
1.444553396E1,7.399803996E-1,2.019542217E0,8.544171333E0
1.446663422E1,-9.296116233E-1,2.252244234E0,7.703094482E0
1.448773412E1,-2.355733871E0,3.186043262E0,8.432307243E0
1.450883370E1,-2.254039049E0,3.547957659E0,1.040399265E1
1.452993354E1,-1.613958836E0,3.656233072E0,1.082393360E1
1.455103318E1,-1.066002488E0,3.285943747E0,1.029751205E1
1.457213349E1,-1.231107235E0,3.285943747E0,8.952746391E0
1.459323375E1,-1.022333503E0,3.425325632E0,8.635098457E0
1.461433370E1,-5.916253924E-1,3.687937975E0,9.409774780E0
1.463543375E1,-4.941178858E-1,4.213162422E0,9.882357597E0
1.465653370E1,4.223332107E-1,3.949951887E0,9.893723488E0
1.467763365E1,8.231309652E-1,3.345165968E0,9.276374817E0
1.469873360E1,-1.214357466E-1,3.556930780E0,9.641280174E0
1.471983344E1,-6.029912829E-1,3.443870068E0,1.084128094E1
1.474093328E1,-1.152144074E0,3.520440340E0,1.209033489E1
1.476203339E1,-1.308275819E0,3.732803345E0,1.216511059E1
1.478313354E1,-8.165507317E-1,3.932604074E0,1.187198925E1
1.480423365E1,2.901297510E-1,3.844069481E0,1.174397373E1
1.482533339E1,8.243274093E-1,3.855435371E0,1.143948650E1
1.484643333E1,6.269195080E-1,3.897309780E0,1.096750259E1
1.486753333E1,5.850451589E-1,3.544368505E0,9.948160172E0
1.488863339E1,6.460621357E-1,3.134597778E0,8.587242126E0
1.490973344E1,7.866404653E-1,2.920439959E0,7.451249599E0
1.493083339E1,8.279166222E-1,2.819941521E0,6.893123627E0
1.495193339E1,7.549355626E-1,2.682952404E0,6.641279221E0
1.497303328E1,5.778666735E-1,2.477169752E0,6.599404812E0
1.499413328E1,2.709871531E-1,2.099701881E0,6.230910301E0
1.501523328E1,-1.866401732E-1,1.826920033E0,5.864210129E0
1.503633307E1,-5.724828243E-1,1.524826288E0,5.971288681E0
1.505743307E1,-1.036690354E0,1.195214868E0,6.996613503E0
1.507853292E1,-1.674975872E0,9.822536707E-1,8.388039589E0
1.509963266E1,-2.987439156E0,1.534995675E0,9.232706070E0
1.512073229E1,-2.760120869E0,1.564906001E0,9.638289452E0
1.514183182E1,-9.110672474E-1,9.104689956E-1,1.057926750E1
1.516293146E1,-1.405783296E0,1.561316729E0,1.224526978E1
1.518403136E1,-1.965105653E0,2.169093609E0,1.329093361E1
1.520513156E1,-1.433898926E0,2.372483730E0,1.350509071E1
1.522623146E1,-6.957131624E-1,2.603390932E0,1.314257812E1
1.524733141E1,-6.161518097E-1,3.351148129E0,1.262572861E1
1.526843125E1,-5.647061467E-1,3.961317778E0,1.234875965E1
1.528953089E1,-6.221338734E-2,4.085744858E0,1.187976646E1
1.531063037E1,3.002992272E-1,4.006781578E0,1.075633621E1
1.533173016E1,4.037888348E-1,3.817150354E0,9.242277145E0
1.535283026E1,4.319044948E-1,3.690928936E0,8.280363083E0
1.537393005E1,6.544370055E-1,3.624528170E0,7.722237110E0
1.539502995E1,8.614161611E-1,3.503092289E0,7.415955544E0
1.541612984E1,1.022333503E0,3.171686411E0,7.225128174E0
1.543722953E1,8.518448472E-1,2.894119024E0,7.275975227E0
1.545832906E1,7.788637877E-1,2.424527645E0,6.991827965E0
1.547942849E1,9.044869542E-1,1.936391711E0,7.185048103E0
1.550052802E1,5.694918036E-1,1.850250125E0,7.358527660E0
1.552162755E1,2.614158690E-1,2.148754835E0,7.735397339E0
1.554272708E1,1.962114573E-1,2.093121529E0,8.315656662E0
1.556382667E1,-9.840483069E-1,3.064607620E0,8.827720642E0
1.558492630E1,-1.381855130E0,4.595416069E0,8.826524734E0
1.560602583E1,3.078964472E0,3.288934708E0,8.078168869E0
1.562712526E1,4.011567116E0,4.029513359E0,7.984251022E0
1.564822505E1,1.673779488E0,4.693521500E0,1.049611664E1
1.566932479E1,4.336991012E-1,4.066602230E0,1.161176968E1
1.569042464E1,-5.389832854E-1,3.878167391E0,1.141376400E1
1.571152438E1,-8.410771489E-1,4.045066833E0,1.134018517E1
1.573262380E1,-3.511467278E-1,4.428516388E0,1.162911797E1
1.575372339E1,9.936196208E-1,4.346562386E0,1.182832050E1
1.577482307E1,1.881955028E0,4.203591347E0,1.145683479E1
1.579592250E1,1.936989903E0,3.902095556E0,1.047458076E1
1.581702214E1,1.692921996E0,3.425325632E0,9.110074043E0
1.583812151E1,1.338186026E0,3.193820000E0,7.923233986E0
1.585922115E1,1.266999602E0,3.048455954E0,7.165307522E0
1.588032136E1,1.180858016E0,3.061018467E0,6.850052834E0
1.590142141E1,8.356932998E-1,3.128615618E0,6.568896294E0
1.592252125E1,4.325026870E-1,2.995813847E0,6.227919102E0
1.594362099E1,3.936193287E-1,2.602194548E0,5.793622017E0
1.596472094E1,1.591227055E-1,2.324627161E0,5.364708424E0
1.598582083E1,-8.362914920E-1,2.310270309E0,6.114260197E0
1.600692094E1,-1.396211982E0,2.140379906E0,6.510272026E0
1.602802083E1,-1.515254974E0,2.174477577E0,6.308676720E0
1.604912057E1,-1.417747378E0,2.555534601E0,6.762116909E0
1.607022031E1,-1.920838356E0,3.792025566E0,7.749754429E0
1.609132021E1,-1.185643673E0,4.934000492E0,9.974481583E0
1.611242031E1,6.939185858E-1,5.119443893E0,1.259880924E1
1.613352011E1,1.217348576E0,4.940580368E0,1.497548008E1
1.615461995E1,1.442273855E0,4.356731892E0,1.554557037E1
1.617571964E1,1.350748420E0,3.805784464E0,1.470150185E1
1.619681932E1,1.271187067E0,3.464807272E0,1.316351604E1
1.621791896E1,7.692924738E-1,3.978665829E0,1.224766254E1
1.623901854E1,8.249256015E-1,4.370490551E0,1.168534946E1
1.626011844E1,1.209571838E0,4.258028030E0,1.065105152E1
1.628121833E1,1.155135155E0,3.887738705E0,9.025727272E0
1.630231844E1,6.831508875E-1,3.470789194E0,7.355536938E0
1.632341875E1,1.244267747E-1,3.150749207E0,5.873781204E0
1.634451886E1,-4.229314029E-1,3.293720484E0,5.310869694E0
1.636561865E1,-5.156532526E-1,3.399004459E0,5.190630436E0
1.638671839E1,-5.198407173E-1,3.388236761E0,5.190630436E0
1.640781792E1,-8.566305041E-1,3.401397467E0,5.410770416E0
1.642891755E1,-9.607182741E-1,3.238087177E0,5.845067501E0
1.645001740E1,-1.030110121E0,3.303291559E0,6.125626087E0
1.647111724E1,-1.276570916E0,3.552145243E0,5.734997749E0
1.649221708E1,-8.614161611E-1,3.726222992E0,6.047859192E0
1.651331682E1,-9.690931439E-2,4.150949001E0,7.716254711E0
1.653441651E1,-3.427718580E-1,5.793622017E0,9.731011391E0
1.655551651E1,1.155135155E0,5.921039581E0,1.224287701E1
1.657661656E1,2.099701881E0,4.734797955E0,1.328674603E1
1.659771646E1,1.464407444E0,4.008575916E0,1.307079411E1
1.661881641E1,7.573283911E-1,3.605385542E0,1.283689499E1
1.663991620E1,3.194418252E-1,3.496512175E0,1.224945736E1
1.666101615E1,3.385843933E-1,3.728017569E0,1.120140076E1
1.668211604E1,7.310073376E-1,4.265206337E0,1.068814087E1
1.670321594E1,1.475773335E0,4.686343193E0,1.084546852E1
1.672431563E1,2.026122570E0,4.643272400E0,1.071864891E1
1.674541542E1,1.673779488E0,4.190430641E0,9.824930191E0
1.676651490E1,7.004988194E-1,3.565305710E0,8.767302513E0
1.678761443E1,-2.027917206E-1,3.078366280E0,7.894520283E0
1.680871396E1,-4.277170599E-1,2.678765059E0,7.199405193E0
1.682981365E1,-2.117647976E-1,2.495115757E0,6.526423931E0
1.685091365E1,7.178468257E-2,2.464607239E0,6.117250919E0
1.687201360E1,1.088734269E-1,2.582453728E0,6.026922226E0
1.689311344E1,1.070788130E-1,2.629113913E0,5.996413708E0
1.691421307E1,1.674975902E-1,2.522035122E0,5.831906796E0
1.693531276E1,2.315055877E-1,2.474178553E0,5.685346603E0
1.695641266E1,3.505485058E-1,2.494517565E0,5.795416355E0
1.697751245E1,3.655036688E-1,2.548954248E0,6.192625046E0
1.699861203E1,1.322034448E-1,2.517249346E0,6.321837425E0
1.701971156E1,-5.922235847E-1,2.831307411E0,7.057630539E0
1.704081089E1,-2.518445849E-1,2.843869686E0,7.886743546E0
1.706191016E1,-5.060819983E-1,3.609572887E0,8.926424980E0
1.708300969E1,-1.444068432E0,4.860421181E0,1.054756260E1
1.710410932E1,2.679961324E-1,4.817350388E0,1.208195972E1
1.712520912E1,1.543968797E0,4.437489510E0,1.331187057E1
1.714630896E1,8.853443861E-1,4.022933006E0,1.505205059E1
1.716740906E1,4.677968323E-1,3.535395384E0,1.554377556E1
1.718850896E1,5.276173949E-1,3.348755360E0,1.472902012E1
1.720960901E1,2.279163599E-1,3.567100286E0,1.288415337E1
1.723070906E1,-2.231307179E-1,4.021138668E0,1.096032429E1
1.725180896E1,-2.506481707E-1,4.415356159E0,9.454640388E0
1.727290896E1,7.657032460E-2,4.420141697E0,8.208578110E0
1.729400860E1,3.529413342E-1,4.088137627E0,7.197610378E0
1.731510865E1,-2.093719877E-2,3.696312666E0,6.699903488E0
1.733620844E1,-7.196413875E-1,3.322434187E0,6.704689026E0
1.735730844E1,-1.185045362E0,3.001796007E0,6.942176819E0
1.737840860E1,-1.456630826E0,2.635694027E0,7.135396957E0
1.739950870E1,-1.572682738E0,2.330609322E0,7.213762283E0
1.742060870E1,-2.127817631E0,2.441875458E0,7.113263607E0
1.744170875E1,-2.418545485E0,2.705684185E0,7.268198967E0
1.746280870E1,-1.461416483E0,3.041875839E0,7.780262947E0
1.748390849E1,-1.350748420E0,4.274777889E0,8.517251968E0
1.750500833E1,-8.386843204E-1,5.471786976E0,9.120243073E0
1.752610813E1,1.984248161E0,4.758127689E0,1.045364380E1
1.754720781E1,1.518844128E0,4.837090969E0,1.175055408E1
1.756830755E1,7.046862841E-1,4.179064751E0,1.122054386E1
1.758940745E1,6.209374666E-1,3.448655605E0,1.230867958E1
1.761050708E1,6.125625968E-1,3.375076294E0,1.284467220E1
1.763160667E1,9.092725813E-2,3.396611691E0,1.095912743E1
1.765270656E1,-1.914258115E-2,3.219542980E0,8.867800713E0
1.767380646E1,-4.007977992E-2,3.742374659E0,8.464012146E0
1.769490615E1,-4.037888348E-1,4.289134502E0,8.459226608E0
1.771600557E1,-4.510470629E-1,4.720440865E0,8.220541954E0
1.773710500E1,-6.239284873E-1,4.614558697E0,7.813164234E0
1.775820453E1,-4.959124923E-1,3.873381615E0,7.323233604E0
1.777930412E1,-6.011967063E-1,3.225524902E0,6.793821812E0
1.780040360E1,-1.196411371E0,3.065804005E0,6.540182590E0
1.782150302E1,-1.657627940E0,3.008974552E0,6.492326260E0
1.784260266E1,-2.188834429E0,3.348755360E0,6.886543751E0
1.786370224E1,-2.724228621E0,3.597010612E0,7.210172653E0
1.788480167E1,-2.916252613E0,3.450450182E0,7.151548862E0
1.790590136E1,-3.815355778E0,3.759722471E0,6.893123627E0
1.792700099E1,-4.576871395E0,4.162314892E0,7.325028419E0
1.794810063E1,-4.083351612E0,4.278367043E0,8.970093727E0
1.796920031E1,-4.858626366E0,4.284946918E0,9.424132347E0
1.799030016E1,-7.424330235E0,4.896911621E0,8.081160545E0
1.801139990E1,-8.042875290E0,4.518845558E0,1.954337835E0
1.803249969E1,-5.493920803E0,3.429512978E0,1.053799057E1
1.805359927E1,-7.243672371E0,3.602394581E0,1.520997715E1
1.807469906E1,-9.984650612E0,3.024527788E0,1.370728493E1
1.809579875E1,-1.085862923E1,2.582453728E0,1.112961674E1
1.811689865E1,-1.021376324E1,2.752942562E0,9.908080101E0
1.813799813E1,-7.986045361E0,2.866601467E0,1.008933640E1
1.815909766E1,-5.825924873E0,2.944368362E0,1.053021431E1
1.818019745E1,-4.667200565E0,2.836092949E0,1.032383347E1
1.820129698E1,-4.838287354E0,2.930609465E0,8.682954788E0
1.822239688E1,-5.297709465E0,3.174079180E0,6.915257454E0
1.824349662E1,-4.878366947E0,3.420539856E0,5.990431309E0
1.826459656E1,-4.137788773E0,3.680161238E0,5.870790482E0
1.828569651E1,-4.019941807E0,3.477967739E0,6.495915413E0
1.830679651E1,-4.254438877E0,3.305684566E0,6.921837807E0
1.832789651E1,-4.195216179E0,3.272184849E0,6.990033150E0
1.834899677E1,-3.887140274E0,3.437289715E0,7.118049145E0
1.837009682E1,-3.574877024E0,3.621536970E0,7.366902828E0
1.839119677E1,-3.768097401E0,3.930809498E0,7.026523590E0
1.841229688E1,-3.238685369E0,4.179663181E0,7.272984505E0
1.843339703E1,-2.953939438E0,4.152145386E0,8.334799767E0
1.845449724E1,-3.334398270E0,3.855435371E0,9.853643417E0
1.847559714E1,-3.236890793E0,2.955734253E0,1.032921696E1
1.849669693E1,-3.252444267E0,2.486740828E0,9.384650230E0
1.851779672E1,-3.688536167E0,2.697309256E0,6.777669907E0
1.853889688E1,-5.335994720E0,3.550948858E0,2.621337175E0
1.855999688E1,-5.013561726E0,3.580859184E0,9.103493690E0
1.858109667E1,-5.181059361E0,3.675375462E0,1.054457092E1
1.860219641E1,-4.578067780E0,3.517449379E0,8.422736168E0
1.863827688E1,-4.071387768E0,2.788236618E0,6.949953556E0
1.865937636E1,-3.418147087E0,2.911466837E0,8.237890244E0
1.868047579E1,-3.138186932E0,2.851048231E0,9.138788223E0
1.870157506E1,-3.024527788E0,2.715255499E0,9.110074043E0
1.872267422E1,-3.193820000E0,2.761317253E0,8.633303642E0
1.874377329E1,-3.215953588E0,2.914458036E0,8.041678429E0
1.876487256E1,-2.994617462E0,2.804388046E0,7.864609718E0
1.878597209E1,-3.046661377E0,2.759522676E0,7.933403492E0
1.880707152E1,-3.029313564E0,2.654238462E0,7.338188648E0
1.882817089E1,-2.876172781E0,2.734398127E0,6.698707104E0
1.884927021E1,-2.767299414E0,2.985046148E0,6.588637352E0
1.887036954E1,-2.505883455E0,3.174079180E0,6.612565517E0
1.889146876E1,-2.537588358E0,3.206382275E0,6.914061069E0
1.891256844E1,-2.449054003E0,3.163311481E0,7.107879639E0
1.893366818E1,-2.000399828E0,2.986242771E0,7.846663475E0
1.895476797E1,-1.871187329E0,2.782254457E0,8.173882484E0
1.897586745E1,-2.100898266E0,2.745165825E0,7.920242786E0
1.899696662E1,-2.327618122E0,2.757728100E0,7.627122402E0
1.901806605E1,-2.490330219E0,2.790031195E0,7.277172089E0
1.903916579E1,-2.496312141E0,2.877967358E0,7.170093060E0
1.906026547E1,-2.618944407E0,2.869592667E0,7.810173035E0
1.908136516E1,-2.760120869E0,2.773879766E0,8.459226608E0
1.910246464E1,-2.293520451E0,2.502892494E0,9.075378418E0
1.912356402E1,-2.590828657E0,2.538186550E0,9.323633194E0
1.914466344E1,-3.385245800E0,3.032304525E0,9.047860146E0
1.916576271E1,-1.744965911E0,2.630310297E0,9.268000603E0
1.918686183E1,-1.052842021E0,1.889133453E0,9.963713646E0
1.920796089E1,-2.559123755E0,1.879562140E0,1.155613708E1
1.922905995E1,-3.238087177E0,1.502692580E0,1.252762318E1
1.925015912E1,-2.190629244E0,1.118046403E0,1.153819084E1
1.927125829E1,-2.763710022E-1,3.194418252E-1,1.119960594E1
1.929235724E1,4.223332107E-1,1.501496136E-1,1.211845016E1
1.931345615E1,8.015955985E-2,4.863412082E-1,1.255872917E1
1.933455516E1,-4.606183618E-2,6.909275651E-1,1.200897884E1
1.935565407E1,-2.452643216E-1,9.439685345E-1,1.113141060E1
1.937675297E1,-5.060819983E-1,1.283749342E0,1.010369396E1
1.939785188E1,-3.272185028E-1,1.327418327E0,8.903095245E0
1.941895094E1,-4.965106845E-1,1.041476011E0,8.148757935E0
1.944004995E1,-6.777670383E-1,6.909275651E-1,6.929614544E0
1.946114902E1,-3.511467278E-1,4.851447940E-1,6.205785751E0
1.948224782E1,1.465603858E-1,6.891329288E-1,6.395416737E0
1.950334672E1,1.016949639E-1,7.627122402E-1,6.519843578E0
1.952444574E1,-3.314059377E-1,2.093719840E-1,6.501897335E0
1.954554464E1,-2.135594189E-1,-6.711867452E-1,6.366703033E0
1.956664339E1,-1.040877849E-1,-1.107278705E0,6.614958286E0
1.958774219E1,4.666004330E-2,-1.585245013E0,7.537391186E0
1.960884100E1,3.026920557E-1,-2.174477577E0,8.976076126E0
1.962994027E1,-7.657032460E-2,-2.043470621E0,1.030469036E1
1.965103949E1,-4.516452849E-1,-9.493523836E-1,1.111525917E1
1.967213870E1,1.269392371E0,-1.116850019E0,1.243789196E1
1.969323777E1,1.889133453E0,-1.774278045E0,1.463749409E1
1.971433678E1,7.064808607E-1,-1.397408366E0,1.681017685E1
1.973543547E1,8.147560954E-1,-1.520040631E0,1.723430443E1
1.975653495E1,1.101894855E0,-1.716252089E0,1.503350639E1
1.977763422E1,7.692924738E-1,-7.046862841E-1,1.265803146E1
1.979873313E1,8.309076428E-1,4.899304509E-1,1.070548820E1
1.981983214E1,1.244267821E0,1.239482164E0,8.823533058E0
1.984093141E1,1.654636860E0,1.511067510E0,6.747759819E0
1.986203058E1,1.571486235E0,1.891526341E0,5.230710506E0
1.988312974E1,8.344969153E-1,2.336591244E0,4.758127689E0
1.990422891E1,1.453639716E-1,2.499303341E0,5.209773064E0
1.992532777E1,2.667997181E-1,2.474178553E0,6.474977970E0
1.994642667E1,1.504487276E0,2.109273195E0,7.922037601E0
1.996752579E1,2.534597397E0,1.850848317E0,8.962317467E0
1.998862495E1,2.375474691E0,1.963310957E0,8.804390907E0
2.000972407E1,8.739784956E-1,2.309672117E0,8.335397720E0
2.003082303E1,4.719842672E-1,2.289333105E0,8.523234367E0
2.005192225E1,2.593819857E0,1.302891970E0,9.505488396E0
2.007302115E1,3.751945972E0,5.407779217E-1,1.147478104E1
2.009412042E1,2.498106956E0,-1.375873089E-1,1.288654613E1
2.011521980E1,1.272981644E0,-1.085145116E0,1.299482155E1
2.013631870E1,4.277170599E-1,-8.027920127E-1,1.314616776E1
2.015741782E1,6.616154313E-1,-2.470589429E-1,1.303490162E1
2.017851698E1,1.520040631E0,2.189432681E-1,1.235474110E1
2.019961626E1,2.557329178E0,6.921239495E-1,1.187916756E1
2.022071521E1,3.577867985E0,9.224331379E-1,1.100219822E1
2.024181422E1,3.525225878E0,1.084546804E0,9.919445992E0
2.026291324E1,2.583052158E0,1.158126116E0,9.131011009E0
2.028401209E1,1.582253933E0,1.110269666E0,8.300103188E0
2.030511100E1,8.327022791E-1,1.369890928E0,7.813762188E0
2.032620995E1,1.950150430E-1,1.762313843E0,7.392625332E0
2.034730876E1,-8.039883971E-1,2.258824587E0,7.033702374E0
2.036840766E1,-1.858026743E0,2.822334290E0,6.731608391E0
2.038950636E1,-2.078166485E0,2.689532757E0,6.586244106E0
2.041060521E1,-1.420140266E0,1.767697692E0,6.926024914E0
2.043170396E1,3.984049559E-1,3.511467278E-1,8.250452042E0
2.045280308E1,2.599801779E0,-8.817551732E-1,9.763913155E0
2.047390230E1,3.527020693E0,-1.271785259E0,9.884152412E0
2.049500136E1,2.738585472E0,-1.464407444E0,9.292527199E0
2.051610053E1,3.011965513E0,-2.475973129E0,1.011685371E1
2.053719933E1,3.812364578E0,-3.480360508E0,1.040698433E1
2.055829834E1,2.442473650E0,-3.353540897E0,9.859625816E0
2.057939688E1,1.514058471E0,-2.566900492E0,8.900103569E0
2.060049563E1,1.791625977E0,-1.663609982E0,7.395018578E0
2.062159459E1,1.847259045E0,-2.955136001E-1,7.543971539E0
2.064269365E1,1.881955028E0,9.762716293E-1,9.506086349E0
2.066379287E1,1.287338614E0,1.968694806E0,1.177089310E1
2.068489209E1,9.152546525E-1,2.542374134E0,1.307438278E1
2.070599146E1,1.182054400E0,2.109273195E0,1.268495083E1
2.072709068E1,1.228714466E0,1.465603828E0,1.091246796E1
2.074818990E1,1.394417405E0,1.308275819E0,9.757930756E0
2.076928912E1,2.640479803E0,1.217348576E0,1.068814087E1
2.079038850E1,3.809373617E0,1.341775298E0,1.292722416E1
2.081148777E1,2.980260611E0,1.183250785E0,1.482951832E1
2.083258745E1,1.266401410E0,4.247260094E-1,1.456750393E1
2.085368704E1,-1.710868180E-1,2.751746029E-2,1.342074394E1
2.087478626E1,-1.878365725E-1,4.085744619E-1,1.295115280E1
2.089588553E1,1.094716311E0,1.229910851E0,1.340339565E1
2.091698464E1,2.800798893E0,1.989033818E0,1.360738373E1
2.093808417E1,3.630510092E0,2.429313183E0,1.234217930E1
2.095918360E1,3.312862873E0,2.357528448E0,1.040758228E1
2.098028303E1,2.640479803E0,2.011167526E0,8.639286041E0
2.100138266E1,2.173879385E0,1.754537225E0,7.199405193E0
2.102248204E1,2.082952023E0,1.647458434E0,6.457031727E0
2.104358131E1,2.057827473E0,1.673181176E0,5.973681927E0
2.106468058E1,1.952543259E0,1.534397483E0,5.267200947E0
2.108577943E1,1.604985833E0,1.220339537E0,4.713860512E0
2.110687860E1,1.193420291E0,7.770691514E-1,4.928018093E0
2.112797756E1,8.500502706E-1,4.055834413E-1,5.535795212E0
2.114907657E1,9.523434043E-1,1.016949639E-1,5.737988472E0
2.117017579E1,1.601994753E0,-2.853440940E-1,5.964110374E0
2.119127506E1,1.958525300E0,-2.889333367E-1,6.729813576E0
2.121237412E1,4.142574310E0,-1.016351461E0,7.007979393E0
2.123347313E1,4.590630054E0,-1.202991605E0,6.170491219E0
2.125457225E1,2.773879766E0,-6.011967063E-1,8.606385231E0
2.127567178E1,2.389233351E0,-5.521438122E-1,1.093161011E1
2.129677094E1,2.224128723E0,-2.524427772E-1,1.092203903E1
2.131787021E1,2.353341103E0,1.657029688E-1,9.142376900E0
2.133896959E1,2.481955290E0,9.726824164E-1,8.212167740E0
2.136006902E1,2.400599241E0,1.617548108E0,8.852247238E0
2.138116855E1,2.213959217E0,2.301895380E0,1.031186962E1
2.140226818E1,1.411765337E0,2.721835852E0,1.126062298E1
2.142336771E1,8.279166222E-1,2.683550596E0,1.064985561E1
2.144446761E1,1.025922656E0,2.518445730E0,9.676574707E0
2.146556740E1,9.798609018E-1,2.480160713E0,9.788438797E0
2.148666719E1,7.692924738E-1,2.231307030E0,1.103868866E1
2.150776678E1,2.065604210E0,1.791625977E0,1.275553894E1
2.152886641E1,1.879562140E0,2.706880569E0,1.524706554E1
2.154996584E1,2.190030813E0,2.991028309E0,1.702074623E1
2.157106542E1,3.081955671E0,2.846262455E0,1.623171234E1
2.159216474E1,3.841078520E0,2.666800737E0,1.459023571E1
2.161326428E1,4.279563427E0,3.225524902E0,1.337408352E1
2.163436386E1,5.276772022E0,3.940380573E0,1.224646664E1
2.165546329E1,6.078966141E0,4.463810444E0,1.073420238E1
2.167656287E1,5.777470112E0,4.716851711E0,8.708079338E0
2.169766240E1,4.319643021E0,4.565505505E0,6.614958286E0
2.171876188E1,2.309672117E0,4.115654945E0,5.055436134E0
2.173986131E1,9.493523836E-1,3.651447296E0,4.323232174E0
2.176096058E1,-1.992024779E-1,3.439084291E0,5.168497086E0
2.178205995E1,-9.032905698E-1,2.695514679E0,7.228118896E0
2.180315933E1,-2.991028316E-2,1.323829174E0,8.023732185E0
2.182425865E1,1.543968797E0,3.906283081E-1,7.184450150E0
2.184535782E1,2.702095032E0,7.196413875E-1,5.592624664E0
2.186645735E1,2.601596355E0,2.222334146E0,5.397011280E0
2.188755688E1,3.162115097E0,3.186043262E0,6.768098831E0
2.190865641E1,3.754936934E0,2.702095032E0,8.164310455E0
2.192975568E1,4.977071285E0,1.001994491E0,8.644071579E0
2.195085480E1,4.236492634E0,2.165504545E-1,7.173682213E0
2.197195422E1,2.826521635E0,1.034895778E-1,5.708078384E0
2.199305339E1,1.834696770E0,9.888339639E-1,5.740979671E0
2.201415256E1,1.687538147E0,2.525624275E0,6.588637352E0
2.203525188E1,1.585245013E0,4.233501434E0,8.488538742E0
2.205635131E1,1.690529227E0,5.298905849E0,1.000020409E1
2.207745084E1,2.166102648E0,5.251647472E0,9.177073479E0
2.209855032E1,2.118246317E0,6.002993584E0,7.671389580E0
2.211964964E1,3.902095556E0,5.508277893E0,8.219944000E0
2.214074907E1,3.460021496E0,5.344369411E0,9.488140106E0
2.216184855E1,2.059622049E0,4.995017052E0,1.236491108E1
2.218294813E1,1.646261930E0,4.457230568E0,1.476192093E1
2.220404782E1,1.399203062E0,4.452444553E0,1.473320675E1
2.222514777E1,6.394818425E-1,4.814359188E0,1.280638695E1
2.224624787E1,5.330012441E-1,4.815555573E0,1.119362450E1
2.226734808E1,1.261615753E0,4.628915310E0,1.077248764E1
2.228844824E1,2.126621008E0,4.594219685E0,1.072343445E1
2.230954834E1,2.013560295E0,4.702494621E0,1.050150013E1
2.233064834E1,1.719243050E0,4.541577339E0,1.061635590E1
2.235174855E1,1.434497118E0,4.149154663E0,1.010608673E1
2.237284860E1,1.018146038E0,3.820739508E0,8.979066849E0
2.239394850E1,8.422735929E-1,3.616751432E0,8.371888161E0
2.241504850E1,9.583254457E-1,3.323032379E0,7.805387497E0
2.243614813E1,9.152546525E-1,3.129812002E0,6.454638958E0
2.245724745E1,5.874379873E-1,2.790031195E0,5.530411243E0
2.247834667E1,-2.189432681E-1,2.169093609E0,5.385047436E0
2.249944605E1,-1.035493970E0,1.529611826E0,5.670989513E0
2.252054527E1,-1.568495274E0,1.064207911E0,5.755934715E0
2.254164417E1,-9.858429432E-1,7.830511928E-1,6.044270039E0
2.256274308E1,-4.510470629E-1,7.740781307E-1,6.286543369E0
2.258384214E1,-4.534398913E-1,1.513460279E0,6.149554253E0
2.260494141E1,2.012962103E0,1.748555183E0,7.234699249E0
2.262604074E1,3.528217077E0,2.683550596E0,1.113799095E1
2.264714016E1,4.110869408E0,2.691327333E0,1.307916832E1
2.266823928E1,3.233899832E0,2.314457655E0,1.083829021E1
2.268933844E1,2.365903378E0,2.139183521E0,7.686942577E0
2.271043771E1,1.907677889E0,2.842673302E0,6.827321053E0
2.273153704E1,1.384846091E0,4.026522160E0,7.848458290E0
2.275263652E1,1.556531072E0,5.298905849E0,9.873982430E0
2.277373605E1,1.932204247E0,5.648257732E0,1.185523987E1
2.279483527E1,1.038485050E0,5.329414368E0,1.159860992E1
2.281593475E1,4.719842672E-1,5.428716183E0,9.501300812E0
2.283703438E1,8.632107973E-1,6.055635929E0,8.926424980E0
2.285813370E1,1.420140266E0,7.526623726E0,9.723235130E0
2.287923297E1,3.600599766E0,7.650452137E0,9.333803177E0
2.290033198E1,3.178864956E0,7.022336483E0,1.043749237E1
2.292143094E1,4.003790379E0,3.665804386E0,1.263769245E1
2.294252995E1,2.475973129E0,2.218744755E0,1.294337559E1
2.296362912E1,1.039681435E0,1.972882271E0,1.085743237E1
2.298472855E1,2.991028363E-3,2.988037348E0,8.793025017E0
2.300582771E1,-1.405783296E-1,4.648656368E0,7.038487911E0
2.302692683E1,-7.974081635E-1,7.085746288E0,6.800402164E0
2.304802574E1,-3.150749207E0,8.565108299E0,6.822535515E0
2.306912490E1,-2.236690998E0,5.827719688E0,5.209773064E0
2.309022396E1,3.505485058E-1,1.835893154E0,5.132006168E0
2.311132324E1,-6.526423693E-1,1.100698411E-1,4.710271358E0
2.313242230E1,-2.974876642E0,7.974081635E-1,4.603790760E0
2.315352141E1,-3.833301783E0,2.458625317E0,4.724628448E0
2.317462042E1,-2.234896421E0,3.437289715E0,6.313462734E0
2.319571938E1,-6.556333899E-1,4.098307133E0,9.429515839E0
2.321681881E1,-1.550549030E0,4.449453831E0,1.170269775E1
2.323791808E1,-1.245464206E0,3.089732170E0,1.329631710E1
2.325901730E1,-1.829911113E0,1.947757602E0,1.160997581E1
2.328011641E1,-2.597409010E0,1.884347796E0,8.717651367E0
2.330121558E1,-1.847259045E0,2.286342144E0,6.238687038E0
2.332231469E1,-2.029113531E0,3.354737282E0,5.275575638E0
2.334341407E1,-3.778865099E0,4.337589264E0,6.433103561E0
2.336451355E1,-5.222335339E0,5.000999451E0,7.979465485E0
2.338561297E1,-4.593023300E0,5.966503143E0,9.037093163E0
2.340671214E1,-2.198405743E0,6.203990936E0,9.451649666E0
2.342781131E1,-2.118844509E0,6.181857109E0,9.538987160E0
2.344891068E1,-3.802793503E0,4.774279594E0,9.425926208E0
2.347000990E1,-5.061418056E0,3.568894863E0,8.464012146E0
2.349110912E1,-5.368297577E0,4.410570145E0,9.448060036E0
2.351220865E1,-3.893720627E0,5.573482037E0,1.119242764E1
2.353330824E1,-2.217548370E0,5.797211170E0,1.084905815E1
2.355440756E1,-3.875176191E0,5.650052547E0,4.066602230E0
2.357550683E1,-3.900300980E0,4.961517811E0,8.226524353E0
2.359660600E1,-4.261018753E0,3.684946775E0,1.230030441E1
2.361770501E1,-5.339583874E0,3.597010612E0,1.165424252E1
2.365843959E1,-4.145565033E0,4.258028030E0,5.411368370E0
2.367953912E1,-3.241078377E0,4.040280819E0,6.103492260E0
2.370063881E1,-2.616551638E0,4.012165546E0,6.321837425E0
2.372173845E1,-2.380260229E0,4.083351612E0,6.202196121E0
2.374283824E1,-2.273181438E0,4.200600147E0,6.369693756E0
2.376393798E1,-2.145165443E0,4.086941242E0,6.379265308E0
2.378503762E1,-2.220539331E0,4.026522160E0,6.396613121E0
2.380613741E1,-2.143969059E0,3.844069481E0,6.315855503E0
2.382723694E1,-1.751546144E0,3.454039574E0,6.500102520E0
2.384833699E1,-1.285543919E0,3.253042459E0,6.900900364E0
2.386943668E1,-1.233500123E0,3.370290756E0,7.061817646E0
2.389053610E1,-8.135597110E-1,2.957528830E0,7.333403111E0
2.391163569E1,-7.830511928E-1,2.653042078E0,7.361518860E0
2.393273532E1,-6.000002623E-1,2.341377020E0,7.336394310E0
2.395383496E1,-2.566302419E-1,2.196611166E0,7.561319351E0
2.397493433E1,8.733802289E-2,2.180459738E0,7.983652592E0
2.399603392E1,3.074777126E-1,2.076970100E0,8.532805443E0
2.401713324E1,1.082752272E-1,1.513460279E0,9.401998520E0
2.403823293E1,-6.735795736E-1,1.328614831E0,1.022034359E1
2.405933241E1,-1.264606714E0,1.741974831E0,1.077727318E1
2.408043194E1,-1.231107235E0,2.710469961E0,1.045484066E1
2.410153189E1,-2.117647976E-1,3.111865759E0,1.076770210E1
2.412263157E1,6.921239495E-1,2.896511793E0,1.123968601E1
2.414373121E1,2.374876440E-1,2.904886723E0,1.239960670E1
2.416483079E1,-7.178468108E-1,3.028116941E0,1.365823174E1
2.418593053E1,-1.056431174E0,2.858226538E0,1.419721508E1
2.420703048E1,-8.309076428E-1,2.907877684E0,1.446042538E1
2.422813048E1,-7.435696125E-1,3.049652576E0,1.400578880E1
2.424923032E1,-6.843472719E-1,3.473181963E0,1.334895897E1
2.427033012E1,-1.609173268E-1,3.712464333E0,1.284467220E1
2.429143017E1,4.546363056E-1,3.646661758E0,1.209930801E1
2.431253001E1,6.538388133E-1,3.168097258E0,1.058943653E1
2.433362970E1,6.376872063E-1,2.679961443E0,9.134600639E0
2.435472939E1,5.425725579E-1,2.411965132E0,7.672585964E0
2.437582933E1,5.647061467E-1,2.105684042E0,6.254838467E0
2.439692954E1,7.004988194E-1,1.671386600E0,5.467001438E0
2.441802965E1,7.734799385E-1,1.465603828E0,4.960919380E0
2.443912970E1,4.660021961E-1,1.718046665E0,4.820939541E0
2.446022970E1,2.524427772E-1,1.970489502E0,5.106283665E0
2.448132949E1,2.823530734E-1,1.842473388E0,5.333003521E0
2.450242928E1,4.564309120E-1,1.588834286E0,5.361119270E0
2.452352887E1,5.994020700E-1,1.367498159E0,5.333003521E0
2.454462871E1,5.443671346E-1,1.063609719E0,5.539982796E0
2.456572876E1,3.074777126E-1,6.616154313E-1,6.082555294E0
2.458682845E1,4.630111754E-1,2.739782035E-1,7.064808846E0
2.460792803E1,1.944168359E-1,2.572284266E-2,7.974679470E0
2.462902777E1,1.531406492E-1,2.727817893E-1,9.951150894E0
2.465012715E1,1.792822361E0,1.902294010E-1,1.305404377E1
2.467122647E1,2.994617462E0,-1.226321608E-1,1.494915962E1
2.469232595E1,2.894119024E0,1.274178028E-1,1.680539131E1
2.471342553E1,1.398604870E0,5.551348329E-1,1.801795387E1
2.473452517E1,2.727817893E-1,5.024927258E-1,1.714218140E1
2.475562522E1,-1.639083475E-1,2.697907388E-1,1.423370552E1
2.477672522E1,6.747759581E-1,3.702892959E-1,1.202752304E1
2.479782496E1,2.805584669E-1,1.336391449E0,1.076770210E1
2.481892475E1,-7.178468257E-2,2.813959360E0,1.003190899E1
2.484002433E1,2.231307179E-1,3.324826956E0,9.078369141E0
2.486112402E1,2.201396823E-1,3.397808075E0,7.916653633E0
2.488222345E1,6.640082598E-1,2.742174864E0,7.226324558E0
2.490332303E1,1.342971683E0,1.955534339E0,7.177271366E0
2.492442272E1,1.086341500E0,1.916052699E0,7.199405193E0
2.494552251E1,6.173482537E-1,1.639681697E0,7.361518860E0
2.496662194E1,6.329016089E-1,6.430711150E-1,7.569096088E0
2.498772163E1,9.541380405E-1,-4.516452849E-1,8.090731621E0
2.500882147E1,-2.153540403E-1,-1.137188911E0,8.687142372E0
2.502992137E1,-1.697109461E0,-1.768894196E0,9.722636223E0
2.505102105E1,-2.307877541E0,-1.494915962E0,1.069472122E1
2.507212090E1,-1.866401732E-1,-1.858026743E0,1.240319633E1
2.509322100E1,1.363908887E0,-3.535395384E0,1.354816151E1
2.511432110E1,-6.999006122E-2,-3.908675671E0,1.341536045E1
2.513542105E1,-2.250449657E0,-3.488735437E0,1.285065365E1
2.515652110E1,-3.265604734E0,-2.718246460E0,1.206820107E1
2.517762090E1,-2.566900492E0,-1.785045743E0,1.121456146E1
2.519872100E1,-1.055832982E0,-9.894321561E-1,1.055593681E1
2.521982064E1,-1.136590727E-2,3.529413417E-2,1.004686451E1
2.524092064E1,8.775677085E-1,6.400800347E-1,1.006540871E1
2.526202090E1,1.362114310E0,9.296116233E-1,9.789635658E0
2.528312100E1,1.011565804E0,9.463613629E-1,8.952746391E0
2.530422084E1,4.079762697E-1,3.571287692E-1,7.944170952E0
2.532532069E1,-1.639083475E-1,-6.281159520E-1,7.264609337E0
2.534642064E1,-8.488538265E-1,-9.008977413E-1,7.479963779E0
2.536752048E1,-8.291130662E-1,-5.551348329E-1,8.405387878E0
2.538862022E1,-9.224331379E-1,-2.979064286E-1,8.749356270E0
2.540971985E1,-1.009771109E0,-9.553344250E-1,9.268598557E0
2.543081913E1,-8.614161611E-1,-1.932204247E0,9.507881165E0
2.545191876E1,-2.790031195E0,-1.338784218E0,8.365307808E0
2.547301860E1,-4.104289055E0,-2.233700037E0,7.227520943E0
2.549411834E1,-4.002593994E0,-3.577867985E0,6.342176437E0
2.551521829E1,-3.970889091E0,-4.167100430E0,6.411568165E0
2.553631798E1,-5.294718266E0,-3.114258766E0,7.186244488E0
2.555741767E1,-5.178068161E0,-2.251047850E0,7.428517818E0
2.557851730E1,-2.158325911E0,-3.444468260E0,6.264409542E0
2.559961720E1,-4.540380955E0,-2.539382935E0,8.877371788E0
2.562071699E1,-7.481758118E0,-1.384846091E0,1.340279770E1
2.564181704E1,-6.616752625E0,-2.236690998E0,1.302293682E1
2.566291704E1,-5.296513081E0,-2.757728100E0,1.090349483E1
2.568401647E1,-5.460421085E0,-1.904686809E0,8.896514893E0
2.570511626E1,-5.281557560E0,-6.017948985E-1,8.740383148E0
2.572621621E1,-4.480560303E0,4.277170599E-1,8.660223007E0
2.574731595E1,-3.460021496E0,6.795616150E-1,7.646264553E0
2.576841574E1,-2.809173822E0,1.101894855E0,7.371089935E0
2.578951558E1,-1.647458434E0,1.529611826E0,7.530810833E0
2.581061501E1,-3.128017426E0,1.702493310E0,7.337590694E0
2.583171433E1,-2.161915302E0,4.671986103E-1,7.658228874E0
2.585281402E1,-3.786641836E0,5.802595019E-1,6.466603279E0
2.587391397E1,-4.094717979E0,2.512463741E-2,6.532405853E0
2.589501381E1,-2.873181820E0,-8.769695163E-1,8.770293236E0
2.591611387E1,-2.614757061E0,-8.697910309E-1,1.051525879E1
2.593721366E1,-3.365504980E0,1.151545882E0,1.097228813E1
2.595831324E1,-1.391426325E0,6.975077987E-1,9.664012909E0
2.597941256E1,1.613958836E0,-1.022931695E0,1.082512951E1
2.600051204E1,9.667003751E-1,-1.332203984E0,1.241216946E1
2.602161121E1,1.926222295E-1,-1.357328653E0,1.282373428E1
2.604271064E1,9.750752151E-2,-6.999006271E-1,1.255394363E1
2.606381001E1,1.075573802E0,-5.533402562E-1,1.072642612E1
2.608490913E1,2.121237278E0,-2.566302419E-1,9.619147301E0
2.610600850E1,1.727617979E0,-2.787638307E-1,9.902696609E0
2.612710788E1,1.971685886E0,5.922235921E-2,1.199163055E1
2.614820720E1,1.791625977E0,1.453639716E-1,1.141735363E1
2.616930683E1,3.936193287E-1,2.596212626E-1,8.568099976E0
2.619040636E1,4.576273263E-1,6.000002623E-1,6.175277233E0
2.621150590E1,3.840480447E-1,1.066002488E0,6.963113785E0
2.623260574E1,-3.625126183E-1,9.266205430E-1,8.472386360E0
2.625370548E1,-8.769695163E-1,2.201396823E-1,9.368498802E0
2.627480532E1,-9.696913958E-1,-3.589234054E-1,1.019820976E1
2.629590501E1,-6.777670383E-1,-3.026920557E-1,1.174098206E1
2.631700465E1,-3.379862010E-1,-5.282155871E-1,1.121396351E1
2.633810428E1,-8.482556343E-1,-3.122633696E-1,8.738588333E0
2.635920392E1,-9.732806087E-1,-2.883351147E-1,7.328617573E0
2.638030366E1,-5.090730190E-1,-1.758724600E-1,8.490931511E0
2.640140334E1,-9.942178130E-1,6.855437160E-1,9.586843491E0
2.642250308E1,-3.314059377E-1,9.296116233E-1,9.379864693E0
2.644360282E1,7.381857634E-1,3.302095234E-1,1.065583706E1
2.646470267E1,-4.163511395E-1,1.027119160E0,1.113141060E1
2.648580241E1,-2.219343036E-1,1.155135155E0,1.040219784E1
2.650690220E1,8.997012973E-1,1.238285661E0,9.376275063E0
2.652800199E1,1.633699656E0,1.086341500E0,9.107083321E0
2.654910173E1,1.155135155E0,1.240678549E0,1.064447117E1
2.657020142E1,3.158525825E-1,1.539781332E0,1.147717381E1
2.659130147E1,6.185446382E-1,1.789831281E0,1.041176987E1
2.661240121E1,9.984052777E-1,2.120040894E0,8.732605934E0
2.663350105E1,1.332203984E0,2.435893536E0,9.373284340E0
2.665460038E1,1.292124271E0,2.751745939E0,9.900303841E0
2.667569970E1,1.311266780E0,2.970091105E0,8.889934540E0
2.669679918E1,9.846464992E-1,3.326023579E0,8.915657043E0
2.671789887E1,-2.117647976E-1,3.841676712E0,8.981459618E0
2.673899829E1,-1.567298770E-1,3.501895905E0,7.620542049E0
2.676009777E1,9.140582681E-1,2.070389748E0,7.211967468E0
2.678119746E1,-6.891329288E-1,1.604985833E0,8.732007980E0
2.680229709E1,-2.489732027E0,4.480560422E-1,1.144546890E1
2.682339668E1,-3.812962770E0,-8.584251404E-1,1.313300705E1
2.684449616E1,-4.807778835E0,-1.347757339E0,1.234397411E1
2.686559569E1,-4.914857864E0,-2.392822653E-1,1.198983574E1
2.688669522E1,-2.810968399E0,2.775674164E-1,1.245404339E1
2.690779480E1,-8.171489239E-1,2.261217386E-1,1.237687492E1
2.692889439E1,-4.677968323E-1,6.717849374E-1,1.145982552E1
2.694999418E1,-1.518844128E0,1.314257860E0,9.647860527E0
2.697109355E1,-1.410568953E0,1.070189953E0,7.597810268E0
2.699219293E1,-1.829312921E0,1.527817249E0,7.036095142E0
2.701329235E1,-1.493121386E0,1.694118381E0,7.450053215E0
2.703439183E1,-8.243274093E-1,1.293320656E0,7.749754429E0
2.705549110E1,-2.213360965E-1,1.314856052E0,7.003193855E0
2.707659100E1,-9.571290761E-2,1.445264935E0,6.009573936E0
2.709769058E1,-8.614161611E-2,1.094716311E0,5.967699528E0
2.711879001E1,8.015955985E-2,1.265205026E0,6.455835342E0
2.713988975E1,2.428714931E-1,1.745564103E0,7.238886833E0
2.716098928E1,-3.732803464E-1,2.565105915E0,8.169096947E0
2.718208887E1,-1.501496136E-1,3.011965513E0,9.241081238E0
2.720318850E1,8.679963946E-1,2.621337175E0,9.873982430E0
2.722428808E1,1.233500123E0,2.815753937E0,1.009771156E1
2.724538762E1,2.001596212E0,2.998805046E0,1.076411247E1
2.726648709E1,2.199602127E0,3.597608805E0,1.084546852E1
2.728758647E1,2.422732830E0,3.719642878E0,1.025264645E1
2.730868595E1,2.616551638E0,3.576671600E0,9.890732765E0
2.732978564E1,2.362314224E0,3.613162279E0,9.769296646E0
2.735088538E1,1.810768485E0,3.609572887E0,9.635298729E0
2.737198522E1,1.314856052E0,3.370888948E0,9.131011009E0
2.739308491E1,1.062413216E0,3.379862070E0,8.486145973E0
2.741418444E1,1.170688510E0,3.589233875E0,7.761120319E0
2.743528402E1,9.553344250E-1,4.033102512E0,7.368099213E0
2.745638319E1,9.876375198E-1,4.208376884E0,7.851449490E0
2.747748235E1,1.135992527E0,4.326223373E0,9.392427444E0
2.749858163E1,8.422735929E-1,4.810770035E0,1.106800079E1
2.751968100E1,2.516052961E0,3.882354736E0,1.110927773E1
2.754078074E1,3.059223652E0,2.998805046E0,9.770493507E0
2.756188006E1,2.005185366E0,3.020938635E0,9.535996437E0
2.758297965E1,1.684547186E0,2.552543640E0,1.031665516E1
2.760407902E1,2.379662037E0,1.287338614E0,1.120618629E1
2.762517845E1,1.551745534E0,1.500898004E0,1.178524971E1
2.764627788E1,1.932204217E-1,1.893320918E0,1.137727356E1
2.766737725E1,-5.383851007E-2,1.963310957E0,1.115713406E1
2.768847637E1,-8.913264424E-2,2.053041935E0,1.062712383E1
2.770957558E1,-1.118644550E-1,2.110469580E0,9.912865639E0
2.773067496E1,5.862415582E-2,2.053041935E0,9.346364975E0
2.775177454E1,4.277170599E-1,1.891526341E0,8.752944946E0
2.777287386E1,1.094716311E0,1.609771490E0,8.203792572E0
2.779397334E1,1.475175142E0,1.526620865E0,7.741379261E0
2.781507282E1,1.207777262E0,1.705484390E0,7.445267677E0
2.783617225E1,7.369893789E-1,1.968096614E0,7.155735970E0
2.785727157E1,7.196413875E-1,2.059023857E0,6.921239376E0
2.787837110E1,1.264606714E0,1.871187329E0,7.077969551E0
2.789947069E1,1.744965911E0,1.754537225E0,7.320840836E0
2.792056996E1,1.919043779E0,2.069193363E0,7.660023689E0
2.794166923E1,1.415354609E0,2.239681959E0,8.085946083E0
2.796276871E1,5.264209956E-2,2.346162558E0,8.913862228E0
2.798386808E1,-1.288534999E0,2.800798893E0,9.365508080E0
2.800496746E1,-1.689332843E0,3.841676712E0,1.013420200E1
2.802606715E1,-2.130808592E0,4.308277130E0,1.024128056E1
2.804716689E1,-2.061416626E0,4.271786690E0,1.012164021E1
2.806826610E1,-1.635494232E0,4.005585194E0,1.054277611E1
2.808936538E1,-9.062815905E-1,3.135794163E0,1.078804111E1
2.811046449E1,-4.115654826E-1,2.565105915E0,1.057268715E1
2.813156376E1,-4.271188378E-1,2.752942562E0,1.015513897E1
2.815266308E1,-5.617151260E-1,3.047259569E0,9.909276962E0
2.817376230E1,-8.614161611E-1,3.059821844E0,9.486345291E0
2.819486162E1,-1.168893814E0,2.917448997E0,9.154939651E0
2.821596090E1,-1.487139225E0,3.013161898E0,9.091529846E0
2.823706027E1,-1.585245013E0,3.072384357E0,9.440881729E0
2.825815959E1,-8.362914920E-1,2.693121910E0,9.431310654E0
2.827925902E1,-5.491527915E-1,2.257628202E0,9.084949493E0
2.830035824E1,-7.322037220E-1,2.203191519E0,8.808578491E0
2.832145730E1,-7.447660565E-1,2.399402857E0,8.699107170E0
2.834255626E1,-9.188438654E-1,2.486740828E0,8.480163574E0
2.836365548E1,-1.191625714E0,2.737389088E0,8.919246674E0
2.838475485E1,1.722832322E-1,3.275176048E0,1.055414295E1
2.840585418E1,1.054636598E0,3.492324591E0,1.154118156E1
2.842695345E1,9.511470199E-1,2.298306227E0,1.102971554E1
2.844805293E1,-3.176472187E-1,1.674975872E0,1.082034397E1
2.846915225E1,-1.256830096E0,1.515254974E0,1.126840019E1
2.849025168E1,-1.919043779E0,1.986042738E0,1.186241817E1
2.851135110E1,-2.016551256E0,2.670390129E0,1.183789158E1
2.853245038E1,-1.743171334E0,3.614358664E0,1.143111229E1
2.855354959E1,-1.402194023E0,4.380660057E0,1.066839981E1
2.857464876E1,-6.460621357E-1,4.029513359E0,9.794421196E0
2.859574824E1,3.433700502E-1,3.348755360E0,8.665008545E0
2.861684772E1,4.241278172E-1,3.250649452E0,7.639086246E0
2.863794746E1,1.292124242E-1,3.310470104E0,6.952346325E0
2.865904704E1,3.948157281E-2,3.144168854E0,6.192625046E0
2.868014637E1,6.400800496E-2,2.742174864E0,5.479563713E0
2.870124558E1,-4.295116663E-1,2.709871531E0,5.400002480E0
2.872234491E1,-1.812563181E0,3.139383316E0,5.789434433E0
2.874344454E1,-2.781656265E0,3.396611691E0,6.528816700E0
2.876454433E1,-2.159522533E0,2.873181820E0,7.269395351E0
2.878564381E1,-1.373480201E0,2.383251429E0,7.666603565E0
2.880674334E1,-1.424925923E0,2.170888424E0,8.137392044E0
2.882784308E1,-1.802991867E0,2.121237278E0,9.019146919E0
2.884894277E1,-2.472982168E0,2.489732027E0,9.675378799E0
2.887004241E1,-3.945166349E0,3.083152056E0,9.897911072E0
2.889114215E1,-5.348556995E0,3.672384501E0,9.359525681E0
2.891224209E1,-5.215157032E0,3.579662561E0,9.201599121E0
2.893334186E1,-3.695714474E0,3.077169895E0,1.022034359E1
2.895444181E1,-4.201796532E0,4.039084435E0,1.145803165E1
2.897554176E1,-4.919643402E0,4.506283283E0,1.234576797E1
2.899664155E1,-4.458426952E0,3.509074450E0,1.219382381E1
2.901774139E1,-4.107280254E0,2.671586514E0,1.108654594E1
2.903884113E1,-4.674378872E0,2.850450039E0,9.456435204E0
2.905994077E1,-4.701298237E0,3.138186932E0,7.961519241E0
2.908104051E1,-3.852444410E0,3.245863914E0,7.162914753E0
2.910214035E1,-2.883949518E0,3.418147087E0,7.091129780E0
2.912323988E1,-2.308475733E0,3.488735437E0,7.124031067E0
2.914433978E1,-2.231905222E0,3.236292601E0,6.638886452E0
2.916543973E1,-2.730808735E0,3.189034462E0,6.242276192E0
2.918653973E1,-3.257827997E0,3.372085333E0,6.168696880E0
2.920763973E1,-3.153740168E0,3.294318676E0,6.792625427E0
2.922873983E1,-2.921038151E0,2.978466034E0,7.452445984E0
2.924983967E1,-3.803391695E0,3.646661758E0,7.785048485E0
2.927093915E1,-3.844667673E0,4.085146427E0,8.497511864E0
2.929203889E1,-3.844667673E0,4.259224415E0,9.213563919E0
2.931313848E1,-5.199005604E0,4.753342152E0,9.113663673E0
2.933423790E1,-4.846662045E0,4.545166492E0,9.305088997E0
2.935533759E1,-2.989233732E0,4.225724697E0,1.033041382E1
2.937643733E1,-3.997210264E0,5.160720348E0,1.047218800E1
2.939753676E1,-5.238486767E0,4.939982414E0,1.005165005E1
2.941863634E1,-5.945566177E0,4.441078663E0,9.636494637E0
2.943973603E1,-6.150750637E0,4.782654285E0,9.292527199E0
2.946083551E1,-5.373083115E0,5.265406132E0,9.175278664E0
2.948193504E1,-4.286143780E0,5.251049519E0,9.450452805E0
2.950303467E1,-4.139583111E0,4.637290478E0,9.582656860E0
2.952413410E1,-4.411168575E0,4.500301361E0,8.933603287E0
2.954523374E1,-3.942175388E0,4.042674065E0,5.288137913E0
2.956633327E1,-3.613162279E0,3.889533281E0,3.922434568E0
2.958743275E1,-3.010170937E0,3.643670797E0,6.835696220E0
2.960853238E1,-3.381656647E0,3.778865099E0,7.551748276E0
2.965622728E1,-2.648256540E0,3.887140274E0,8.005187988E0
2.967732661E1,-2.617748022E0,3.807579041E0,7.777870178E0
2.969842583E1,-2.301895380E0,3.552145243E0,8.093722343E0
2.971952530E1,-1.762313843E0,3.157329559E0,8.751749039E0
2.974062452E1,-1.424925923E0,3.050250769E0,8.856434822E0
2.976172364E1,-1.604985833E0,3.352942705E0,8.993423462E0
2.978282333E1,-1.483550072E0,3.452244759E0,9.451649666E0
2.980392301E1,-1.490130305E0,3.198007345E0,9.596415520E0
2.982502239E1,-1.664208174E0,2.788236618E0,9.058030128E0
2.984612161E1,-2.080559254E0,2.831905603E0,8.805587769E0
2.986722036E1,-2.308475733E0,2.941377163E0,8.749356270E0
2.988831942E1,-2.399402857E0,2.662613392E0,8.711071014E0
2.990941879E1,-2.595614433E0,2.442473650E0,8.922237396E0
2.993051817E1,-2.726023197E0,2.370688915E0,9.123234749E0
2.995161760E1,-2.402393818E0,2.182254314E0,8.982656479E0
2.997271692E1,-1.938186288E0,1.818545222E0,9.381061554E0
2.999381619E1,-2.035693884E0,1.342971683E0,9.873982430E0
3.001491557E1,-1.877169371E0,9.798609018E-1,1.042911720E1
3.003601504E1,-1.272981644E0,5.443671346E-1,1.034177971E1
3.005711442E1,-6.382854581E-1,3.672982752E-1,9.999007225E0
3.007821400E1,-2.691925503E-2,4.151547253E-1,9.961918831E0
3.009931374E1,2.344966233E-1,4.558327198E-1,9.957731247E0
3.012041369E1,8.769695163E-1,4.564309120E-1,1.055593681E1
3.014151338E1,7.322037220E-1,1.199402332E0,1.054636574E1
3.016261286E1,-3.529413342E-1,2.266601324E0,9.768698692E0
3.018371223E1,-9.774680734E-1,2.472383976E0,9.298508644E0
3.020481140E1,-7.812566161E-1,2.106880426E0,8.641080856E0
3.022591083E1,-8.315058798E-2,1.731207132E0,7.883752346E0
3.024701051E1,3.684946895E-1,1.781456470E0,7.530810833E0
3.026810989E1,2.919243574E-1,1.946561217E0,7.393822193E0
3.028920947E1,-6.580262445E-3,2.115255117E0,7.511668682E0
3.031030838E1,-4.007977843E-1,2.365305185E0,7.915457249E0
3.033140765E1,-4.803591371E-1,2.367697954E0,8.323433876E0
3.035250692E1,-2.853440940E-1,2.134397745E0,8.310871124E0
3.037360640E1,-8.434699476E-2,1.971685886E0,7.937591076E0
3.039470588E1,1.836491376E-1,1.984248161E0,7.530810833E0
3.041580536E1,6.711867452E-1,2.006979942E0,7.332805157E0
3.043690489E1,1.118644595E0,1.989033818E0,7.179664135E0
3.045800432E1,1.223928809E0,2.166102648E0,7.550551891E0
3.047910364E1,8.291130662E-1,2.614757061E0,8.275577545E0
3.050020291E1,7.244270444E-1,2.812762976E0,8.490931511E0
3.052130228E1,9.810572863E-1,2.729612350E0,8.772088051E0
3.054240197E1,1.147358418E0,2.748156786E0,9.502496719E0
3.056350135E1,1.303490162E0,2.471187592E0,1.037827015E1
3.058460067E1,9.122636318E-1,2.611167669E0,1.078385353E1
3.060570015E1,6.448656917E-1,3.077169895E0,1.026520920E1
3.062679973E1,1.865205288E0,3.224328518E0,1.059541893E1
3.064789937E1,3.236890793E0,2.954537868E0,1.091426182E1
3.066899905E1,2.573480844E0,3.128615618E0,1.109432220E1
3.069009859E1,1.130608678E0,3.341576815E0,1.146162033E1
3.071119812E1,3.954139352E-1,3.125026464E0,1.139163017E1
3.073229744E1,1.196411327E-1,2.978466034E0,1.125583744E1
3.075339666E1,2.584248483E-1,3.019742250E0,1.088255692E1
3.077449609E1,8.123632669E-1,3.027518749E0,1.035135078E1
3.079559572E1,1.636690736E0,2.739183664E0,9.792626381E0
3.081669515E1,1.825125456E0,2.468196630E0,9.147162437E0
3.083779473E1,1.350748420E0,2.362314224E0,8.430512428E0
3.085889421E1,7.543373108E-1,2.293520451E0,7.972885132E0
3.087999343E1,4.707878530E-1,2.140978098E0,7.770093441E0
3.090109280E1,4.229314029E-1,1.837687731E0,7.478168964E0
3.092219249E1,2.392822653E-1,1.721037745E0,7.153343201E0
3.094329187E1,1.184447184E-1,1.644467354E0,6.897311211E0
3.096439135E1,-1.316052489E-2,1.761117458E0,6.645466805E0
3.098549062E1,3.948157281E-2,1.732403636E0,6.449255466E0
3.100658989E1,-3.493520916E-1,1.543968797E0,6.589833736E0
3.102768942E1,-9.152546525E-1,1.180858016E0,7.098308563E0
3.104878890E1,-8.961120844E-1,1.170688510E0,7.916653633E0
3.106988838E1,1.818545163E-1,1.512263894E0,9.617352486E0
3.109098786E1,1.088734269E-1,2.312663078E0,1.069711399E1
3.111208723E1,-7.304090858E-1,3.247658491E0,1.199581814E1
3.113318640E1,-4.671986103E-1,2.968894720E0,1.215075302E1
3.115428577E1,-9.780662656E-1,3.215953588E0,1.209990597E1
3.117538494E1,-1.564906001E0,3.051447153E0,1.261376476E1
3.119648390E1,-1.815554142E0,2.292324066E0,1.308036518E1
3.121758317E1,-2.534597397E0,2.422732830E0,1.272503090E1
3.123868270E1,-3.077169895E0,3.439084291E0,1.173739338E1
3.125978213E1,-2.415554523E0,4.258028030E0,1.094297600E1
3.128088145E1,-1.112064362E0,4.360919476E0,1.011984539E1
3.130198093E1,-2.524427772E-1,4.165306091E0,8.843872070E0
3.132308004E1,-3.050848842E-1,3.984647989E0,7.125825882E0
3.134417942E1,-5.084748268E-1,3.623929977E0,5.500501156E0
3.136527890E1,-6.777670383E-1,3.391826153E0,4.435096741E0
3.138637833E1,-1.366899967E0,3.351746321E0,4.158725739E0
3.140747765E1,-2.043470621E0,2.997608662E0,5.151148796E0
3.142857702E1,-2.415554523E0,2.362912416E0,6.893123627E0
3.144967624E1,-2.434697151E0,1.931606054E0,8.477172852E0
3.147077557E1,-2.042274237E0,1.874776483E0,9.454640388E0
3.149187489E1,-1.121635556E0,2.174477577E0,1.005823040E1
3.151297447E1,-6.699903607E-1,3.043670416E0,1.069412231E1
3.153407411E1,-2.955136001E-1,4.073780537E0,1.163569832E1
3.155517353E1,1.228714466E0,3.787240028E0,1.271725368E1
3.157627280E1,1.450050473E0,3.187239647E0,1.314257812E1
3.159737213E1,-3.349951804E-1,3.107678413E0,1.293559933E1
3.161847135E1,-1.904686809E0,2.937189817E0,1.234576797E1
3.163957057E1,-2.619542599E0,3.080160856E0,1.171645641E1
3.166066978E1,-2.464607239E0,3.536591768E0,1.124028397E1
3.168176921E1,-1.709671736E0,3.747160196E0,1.105663490E1
3.170286885E1,-2.057827413E-1,3.702294827E0,1.087597752E1
3.172396807E1,1.234696507E0,3.353540897E0,1.009651470E1
3.174506744E1,1.600200176E0,3.073580742E0,8.785248756E0
3.176616687E1,1.180259824E0,2.920439959E0,7.788039684E0
3.178726635E1,5.964110494E-1,2.800798893E0,7.165307522E0
3.180836598E1,3.714857101E-1,2.714657307E0,6.505486488E0
3.182946557E1,7.292127013E-1,2.580659151E0,5.845067501E0
3.185056530E1,1.040279627E0,2.478964329E0,5.567500114E0
3.187166499E1,9.571290612E-1,2.622533560E0,5.722435474E0
3.189276458E1,4.803591371E-1,2.927618504E0,6.029912949E0
3.191386432E1,2.548356056E-1,2.848655462E0,6.330212116E0
3.193496359E1,-4.486542568E-2,2.520838737E0,6.380461693E0
3.195606312E1,-3.206382394E-1,2.370688915E0,6.299703598E0
3.197716239E1,-7.417750359E-1,2.269592285E0,6.594619274E0
3.199826155E1,-1.262213945E0,2.057827473E0,7.615158081E0
3.201936098E1,-1.576271892E0,2.733799934E0,8.534002304E0
3.204046036E1,-2.255235434E0,4.371088982E0,9.633503914E0
3.206155984E1,-1.491924882E0,5.026124001E0,1.177866936E1
3.208265921E1,2.362912297E-1,4.232305050E0,1.386221981E1
3.210375890E1,-8.614161611E-2,4.326223373E0,1.581476307E1
3.212485848E1,-2.267199457E-1,3.693321705E0,1.611924934E1
3.214595801E1,-3.230310604E-2,2.917448997E0,1.415115356E1
3.216705749E1,-2.123630047E-1,2.599801779E0,1.140778160E1
3.218815708E1,-5.102694035E-1,2.703889608E0,9.687940598E0
3.220925650E1,-8.344969153E-1,3.458825111E0,8.512466431E0
3.223035593E1,-4.965106845E-1,4.238885403E0,7.819744587E0
3.225145525E1,4.815555513E-1,4.192225456E0,7.248457909E0
3.227255452E1,1.250848055E0,3.863212109E0,6.854240417E0
3.229365374E1,1.118644595E0,3.812364578E0,6.466603279E0
3.231475280E1,5.964110494E-1,3.798605919E0,6.172286034E0
3.233585192E1,2.602194548E-1,3.408575773E0,6.153143406E0
3.235695103E1,-9.391828626E-2,2.851048231E0,6.501897335E0
3.237805020E1,-1.800599098E-1,2.317448616E0,7.268198967E0
3.239915004E1,-2.315055877E-1,1.919043779E0,8.109873772E0
3.242024952E1,-6.041877344E-2,1.470987678E0,9.175278664E0
3.244134911E1,3.541377485E-1,1.293918848E0,9.976275444E0
3.246244848E1,7.668996453E-1,1.140179992E0,1.061336517E1
3.248354801E1,8.470591903E-1,1.491924882E0,1.140718365E1
3.250464770E1,1.211964726E0,2.416750908E0,1.257188988E1
3.252574723E1,2.864806890E0,2.000399828E0,1.357209015E1
3.254684682E1,2.965305567E0,1.497906923E0,1.332981682E1
3.256794624E1,1.237687469E0,1.916052699E0,1.257488155E1
3.258904577E1,-4.510470629E-1,2.415554523E0,1.139761257E1
3.261014525E1,-1.515853167E0,2.863610506E0,1.007557774E1
3.263124468E1,-1.655833244E0,3.456432343E0,9.215956688E0
3.265234405E1,-8.171489239E-1,3.932005882E0,8.893523216E0
3.267344364E1,7.322037220E-1,3.926023722E0,8.677571297E0
3.269454333E1,1.770688772E0,3.689732552E0,8.271389961E0
3.271564312E1,1.959123492E0,3.228515863E0,7.712665558E0
3.273674254E1,1.619342685E0,2.729612350E0,7.157530785E0
3.275784182E1,1.065404296E0,2.336591244E0,6.550352097E0
3.277894119E1,4.432703853E-1,2.137987137E0,6.023332596E0
3.280004051E1,-8.374879137E-3,2.137987137E0,6.066403389E0
3.282113978E1,-3.146561682E-1,2.356332064E0,6.519245148E0
3.284223916E1,-1.896311939E-1,2.353341103E0,6.829115868E0
3.286333853E1,3.672982752E-1,1.965105653E0,7.006184578E0
3.288443801E1,8.243274093E-1,1.587637782E0,7.323233604E0
3.290553744E1,8.147560954E-1,1.235892892E0,7.602595806E0
3.292663697E1,2.793620527E-1,6.508477330E-1,7.762316704E0
3.294773635E1,-2.362912297E-1,1.567298770E-1,8.559724808E0
3.296883588E1,-8.566305041E-1,1.866401732E-1,9.239286423E0
3.298993551E1,-1.960319996E0,1.365703583E0,9.842277527E0
3.301103510E1,-1.141974568E0,2.020738840E0,1.196411324E1
3.303213468E1,1.232901812E0,1.333400369E0,1.364566898E1
3.305323452E1,7.064808607E-1,2.008176327E0,1.391306686E1
3.307433400E1,-5.952146053E-1,1.919043779E0,1.453520107E1
3.309543338E1,-1.175474167E0,8.410771489E-1,1.349910927E1
3.311653286E1,-1.852044702E0,5.359922647E-1,1.209930801E1
3.313763202E1,-2.656033039E0,1.550549030E0,1.143290615E1
3.315873145E1,-2.727817774E0,2.796611547E0,1.105663490E1
3.317983109E1,-1.635494232E0,3.025724173E0,1.046800041E1
3.320093072E1,-3.589234054E-1,2.511267424E0,9.689735413E0
3.322203030E1,1.232303679E-1,2.230110645E0,8.974281311E0
3.324312978E1,1.208375469E-1,2.287538528E0,8.510073662E0
3.326422911E1,3.074777126E-1,2.128415823E0,8.297112465E0
3.328532822E1,3.672982752E-1,1.740180254E0,7.716254711E0
3.330642754E1,-2.512463741E-2,1.838884234E0,7.559525013E0
3.332752676E1,-4.336991012E-1,1.941177368E0,8.227720261E0
3.334862619E1,9.571290575E-3,1.012762189E0,8.458029747E0
3.336972582E1,-1.800599098E-1,5.647061467E-1,9.698708534E0
3.339082530E1,-1.637887120E0,1.949552298E0,1.161775208E1
3.341192478E1,8.039883971E-1,1.782054663E0,1.264008522E1
3.343302458E1,3.303889751E0,6.478567123E-1,1.332203960E1
3.345412411E1,1.879562140E0,8.392825127E-1,1.432523060E1
3.347522353E1,1.184447184E-1,4.223332107E-1,1.394178104E1
3.349632296E1,-1.279561877E0,3.523431420E-1,1.243669605E1
3.351742234E1,-1.764706731E0,8.069794178E-1,1.160818100E1
3.353852176E1,-1.400399446E0,1.676770449E0,1.053619671E1
3.355962124E1,-1.160518974E-1,2.336591244E0,9.558728218E0
3.358072093E1,1.566102386E0,2.386840582E0,8.706883430E0
3.360182046E1,2.654238462E0,2.127817631E0,7.733603001E0
3.362292020E1,2.709871531E0,2.062613010E0,7.219744205E0
3.364401978E1,1.768894196E0,2.311466694E0,6.693323135E0
3.366511942E1,9.828519225E-1,2.362314224E0,6.022136211E0
3.368621932E1,7.800601721E-1,2.271985054E0,5.599205017E0
3.370731905E1,7.974081635E-1,2.407179594E0,5.792425632E0
3.372841879E1,1.048056364E0,2.444268227E0,6.178267956E0
3.374951864E1,1.459621787E0,2.307877541E0,6.325426579E0
3.377061812E1,1.489532113E0,2.325823545E0,6.712465763E0
3.379171765E1,9.990034699E-1,2.097907305E0,7.354340553E0
3.381281692E1,2.775674164E-1,1.735394597E0,7.777870178E0
3.383391645E1,8.793623000E-2,1.537388563E0,7.937591076E0
3.385501577E1,5.443671346E-2,1.271187067E0,8.450253487E0
3.387611494E1,-7.286145091E-1,1.721635938E0,9.561718941E0
3.389721400E1,-2.006979942E0,3.212962627E0,1.069232845E1
3.391831291E1,-3.720839322E-1,2.854039192E0,1.116790104E1
3.393941192E1,1.153340459E0,2.571686029E0,1.230748367E1
3.396051093E1,7.836493850E-2,3.485146284E0,1.412423420E1
3.398161004E1,-2.572284341E-1,3.008376360E0,1.505264950E1
3.400270911E1,-2.410768867E-1,1.987239242E0,1.394058514E1
3.402380822E1,-9.750752449E-1,2.041675806E0,1.197368431E1
3.404490708E1,-1.432104349E0,2.933600664E0,1.100339508E1
3.406600629E1,-7.734799385E-1,3.257229805E0,1.044826031E1
3.408710541E1,3.230310604E-2,3.329014540E0,9.068798065E0
3.410820478E1,6.634100676E-1,3.330809116E0,8.003393173E0
3.412930452E1,9.439685345E-1,3.271586657E0,7.052246571E0
3.415040411E1,8.039883971E-1,3.266801119E0,6.131608009E0
3.417150369E1,4.085744619E-1,3.274577856E0,5.523830891E0
3.419260322E1,1.782652885E-1,3.293720484E0,5.705685616E0
3.421370280E1,2.536391914E-1,3.287738323E0,6.437889099E0
3.423480239E1,7.926225066E-1,2.754737139E0,7.229913712E0
3.425590187E1,7.597211599E-1,2.305484533E0,8.164310455E0
3.427700140E1,1.692921966E-1,2.030908108E0,9.911071777E0
3.429810083E1,4.905286431E-2,2.748754978E0,1.245045471E1
3.431920010E1,1.319043517E0,3.550948858E0,1.417508125E1
3.434029952E1,3.820739508E0,3.020938635E0,1.398066425E1
3.436139916E1,4.820341110E0,2.118246317E0,1.321914864E1
3.438249864E1,3.090330362E0,2.035693884E0,1.283151150E1
3.440359801E1,1.105484009E0,2.070389748E0,1.295773315E1
3.442469754E1,-6.777670383E-1,2.534597397E0,1.157049370E1
3.444579713E1,-1.547558069E0,3.308675528E0,9.938589096E0
3.446689697E1,-1.300499082E0,3.865604877E0,8.955139160E0
3.448799671E1,5.563312769E-2,3.782454491E0,8.242675781E0
3.450909629E1,1.360917926E0,3.649652719E0,7.636095047E0
3.453019557E1,2.023131609E0,3.644867182E0,7.270591736E0
3.455129504E1,2.322832584E0,3.471387386E0,6.900900364E0
3.457239432E1,2.356332064E0,3.092723370E0,6.339185238E0
3.459349374E1,2.260619164E0,2.702095032E0,5.715855122E0
3.461459332E1,2.047059774E0,2.614158630E0,5.338985443E0
3.463569291E1,1.869990945E0,2.743969440E0,5.371288776E0
3.465679249E1,1.574477315E0,2.944966555E0,5.559723377E0
3.467789213E1,1.215553880E0,3.054438114E0,5.679364681E0
3.469899182E1,1.220339537E0,2.970091105E0,5.706283569E0
3.472009145E1,1.525424480E0,2.653042078E0,5.771488190E0
3.474119124E1,1.467398524E0,2.248056889E0,5.804987907E0
3.476229088E1,8.069794178E-1,2.049452543E0,6.297909260E0
3.478339030E1,1.770688742E-1,2.049452543E0,7.806583881E0
3.480448984E1,-2.075773627E-1,2.724228621E0,9.649057388E0
3.482558926E1,-8.823533654E-1,4.359723091E0,1.061456108E1
3.484668853E1,-1.387837082E-1,5.082355499E0,1.250309658E1
3.486778754E1,8.757730722E-1,4.989633560E0,1.512862110E1
3.488888650E1,1.429711580E0,4.978267670E0,1.731147385E1
3.490998572E1,1.755135417E0,4.661218643E0,1.704945946E1
3.493108499E1,1.956132531E0,4.314857483E0,1.515135288E1
3.495218432E1,2.065604210E0,4.068994999E0,1.251446247E1
3.497328374E1,2.269592285E0,3.916452408E0,9.970293999E0
3.499438301E1,2.087737799E0,4.457230568E0,8.162516594E0
3.501548228E1,1.947757602E0,5.380261898E0,7.210771084E0
3.503658161E1,1.801197290E0,5.793622017E0,6.290132523E0
3.505768109E1,1.579262972E0,5.650052547E0,5.253442287E0
3.507878010E1,1.355534077E0,5.137988567E0,4.621138573E0
3.509987947E1,1.295713425E0,4.657629490E0,4.908277512E0
3.512097900E1,1.115055323E0,4.144368649E0,5.449055195E0
3.514207853E1,6.334998012E-1,3.810570002E0,5.801398277E0
3.516317786E1,2.979064286E-1,3.473181963E0,6.412764549E0
3.518427718E1,1.806581169E-1,3.214757204E0,7.454838753E0
3.520537640E1,-1.878365725E-1,3.077169895E0,8.698508263E0
3.522647572E1,-4.342973232E-1,2.960519791E0,9.810572624E0
3.524757530E1,9.272187948E-2,2.853441000E0,1.033519936E1
3.526867478E1,7.549355626E-1,3.250649452E0,1.078684425E1
3.528977411E1,3.954139352E-1,4.590630054E0,1.103390312E1
3.531087327E1,1.387837172E0,4.914857864E0,1.197667599E1
3.533197280E1,2.145165443E0,4.292723656E0,1.132762241E1
3.535307223E1,8.183453679E-1,5.005784988E0,1.047936630E1
3.537417171E1,-2.171486616E-1,5.434698582E0,1.066421223E1
3.539527109E1,-2.823530734E-1,5.325226784E0,1.033041382E1
3.541637036E1,7.477571070E-2,5.206781864E0,9.936794281E0
3.543746952E1,3.098705411E-1,5.429912567E0,9.622138023E0
3.545856911E1,9.122636318E-1,5.434698582E0,9.352945328E0
3.547966864E1,1.596610904E0,5.302495003E0,8.585447311E0
3.550076822E1,2.131406784E0,4.738985062E0,7.891529083E0
3.552186780E1,2.115255117E0,4.576871395E0,7.352545738E0
3.554296718E1,2.008774519E0,4.399802685E0,6.574280262E0
3.556406676E1,1.800599098E0,4.100101471E0,5.962913990E0
3.558516624E1,1.281356573E0,4.195216179E0,5.750551224E0
3.560626572E1,8.835497499E-1,4.234099865E0,5.669195175E0
3.562736530E1,3.601198196E-1,4.262813568E0,5.774479389E0
3.564846473E1,1.800599098E-1,4.102494240E0,5.880361557E0
3.566956437E1,3.170489967E-1,3.887738705E0,5.801996708E0
3.569066390E1,5.599204898E-1,3.576073408E0,5.634499073E0
3.571176348E1,6.077769399E-1,3.275176048E0,5.722435474E0
3.573286301E1,4.438686073E-1,3.263810158E0,6.200401783E0
3.575396265E1,2.524427772E-1,4.016951084E0,7.432106972E0
3.577506213E1,-2.596212626E-1,5.024927616E0,8.794819832E0
3.579616155E1,-1.162911773E0,6.169893265E0,9.829715729E0
3.581726098E1,-1.735394597E0,6.952346325E0,9.316454887E0
3.583836046E1,-2.492124796E0,7.715656757E0,9.860223770E0
3.585945968E1,-2.932404041E0,7.505686283E0,1.072163963E1
3.588055905E1,-3.341576815E0,7.920242786E0,1.161775208E1
3.590165838E1,-2.411965132E0,7.087540627E0,1.251805210E1
3.592275765E1,-1.068993568E0,5.521438122E0,1.251565838E1
3.594385676E1,-6.299105883E-1,4.517649174E0,1.130249786E1
3.596495593E1,-6.496513486E-1,4.098307133E0,1.001156998E1
3.598605541E1,-1.225125194E0,4.036093712E0,8.998807907E0
3.600715442E1,-1.689332843E0,4.107878208E0,8.337790489E0
3.602825353E1,-1.659422517E0,4.265804768E0,7.865806103E0
3.604935286E1,-1.240678549E0,4.208376884E0,7.313662529E0
3.607045202E1,-9.248259664E-1,3.887738705E0,6.969096184E0
3.609155129E1,-7.310073376E-1,3.550948858E0,6.821339130E0
3.611265056E1,-1.110269666E0,3.383451223E0,6.824330330E0
3.613374978E1,-1.320838094E0,3.107678413E0,6.897909641E0
3.615484885E1,-1.339980721E0,2.920439959E0,7.111468792E0
3.617594796E1,-1.295115232E0,2.654836655E0,7.182057381E0
3.619704697E1,-1.421336651E0,2.532802820E0,7.304090977E0
3.621814619E1,-1.415354609E0,2.462812662E0,7.741977692E0
3.623924557E1,-1.734198213E0,2.831307411E0,8.048258781E0
3.626034504E1,-1.719841242E0,3.336791277E0,8.427521706E0
3.628144463E1,-9.176474810E-1,3.525225878E0,8.903095245E0
3.630254416E1,-6.969096065E-1,4.042674065E0,9.332008362E0
3.632364374E1,-1.713261008E0,5.471786976E0,9.429515839E0
3.634474312E1,-1.633699656E0,6.314060688E0,1.029033375E1
3.636584254E1,-8.386843204E-1,5.453841209E0,1.045543861E1
3.638694208E1,-1.783251047E0,4.936991215E0,1.023769188E1
3.640804161E1,-3.583251953E0,5.069194794E0,1.020419216E1
3.642914109E1,-4.411168575E0,5.395216942E0,1.047458076E1
3.645024067E1,-4.222135544E0,5.845067501E0,1.089392376E1
3.647133989E1,-3.865006685E0,5.873781204E0,1.057627583E1
3.649243926E1,-3.357728481E0,5.553143024E0,9.888339996E0
3.651353916E1,-2.852244616E0,5.024927616E0,9.119645119E0
3.653463885E1,-2.690729141E0,4.780859470E0,8.199604988E0
3.655573827E1,-2.427518606E0,4.621138573E0,7.390830994E0
3.657683780E1,-1.966900229E0,4.190430641E0,6.678966045E0
3.659793734E1,-2.016551256E0,3.787240028E0,6.468397617E0
3.661903676E1,-2.444268227E0,3.375076294E0,6.256034851E0
3.664013624E1,-2.762513638E0,3.281756163E0,6.107679844E0
3.666123577E1,-2.729612350E0,3.102892876E0,5.983253002E0
3.668233556E1,-2.724228621E0,3.022733212E0,6.069394588E0
3.670343484E1,-3.068794966E0,3.059223652E0,6.170491219E0
3.672453437E1,-3.118446112E0,2.950948477E0,6.449853420E0
3.674563405E1,-2.965903759E0,2.825325251E0,6.564708710E0
3.676673379E1,-3.166302681E0,2.568096876E0,6.219544411E0
3.678783348E1,-4.107280254E0,2.750549555E0,4.418945312E0
3.680893317E1,-5.228915691E0,3.274577856E0,4.777270317E0
3.683003265E1,-5.571687698E0,3.145365477E0,6.614958286E0
3.687808859E1,-4.290929317E0,3.499503136E0,6.484549522E0
3.689918833E1,-3.187239647E0,3.469592810E0,6.841678143E0
3.692028802E1,-2.484946251E0,3.564109325E0,7.265805721E0
3.694138734E1,-2.117049932E0,3.279363394E0,7.143173695E0
3.696248672E1,-2.174477577E0,3.408575773E0,7.031907558E0
3.698358604E1,-2.343769789E0,3.726222992E0,7.330412388E0
3.700468583E1,-2.185245275E0,3.775874138E0,8.223533630E0
3.702578552E1,-1.578066587E0,3.279363394E0,8.679366112E0
3.704688484E1,-9.409775138E-1,3.547957659E0,8.846863747E0
3.706798432E1,2.871387079E-2,3.815953970E0,8.646464348E0
3.708908411E1,5.856433511E-1,3.643072367E0,8.715856552E0
3.711018395E1,4.055834413E-1,3.028116941E0,8.464012146E0
3.713128380E1,-1.950150430E-1,2.583052158E0,7.780262947E0
3.715238333E1,-4.085744619E-1,2.526820660E0,7.698906898E0
3.717348276E1,-1.310070455E-1,2.754737139E0,8.045866013E0
3.719458213E1,-1.615155339E-1,2.934797049E0,7.794619560E0
3.721568104E1,-1.100698411E-1,2.834896564E0,7.593622684E0
3.723678020E1,1.549352705E-1,2.444268227E0,7.721040249E0
3.725787922E1,4.707878530E-1,2.033899307E0,8.328817368E0
3.727897838E1,8.901300430E-1,2.030908108E0,9.348159790E0
3.730007770E1,7.914260626E-1,2.691327333E0,1.034656525E1
3.732117677E1,6.568298340E-1,3.302095175E0,1.087418270E1
3.734227599E1,8.219345808E-1,3.911068678E0,1.126062298E1
3.736337562E1,1.568495274E0,4.235296249E0,1.105603695E1
3.738447484E1,2.819941521E0,3.890729666E0,1.092921734E1
3.740557432E1,3.013760090E0,3.482155085E0,1.129412270E1
3.742667380E1,1.319641709E0,3.787240028E0,1.164467144E1
3.744777317E1,-3.349951655E-2,3.695714474E0,1.181456184E1
3.746887229E1,-3.349951804E-1,3.379862070E0,1.185882950E1
3.748997135E1,1.118644550E-1,3.289532900E0,1.168534946E1
3.751107057E1,1.195214868E0,3.161516905E0,1.131326580E1
3.753216974E1,1.966900229E0,2.894119024E0,1.068335533E1
3.755326885E1,1.902892232E0,2.602194548E0,9.713065147E0
3.757436828E1,1.049850941E0,2.370688915E0,8.741579056E0
3.759546750E1,3.942175210E-1,2.078166485E0,7.998009682E0
3.761656651E1,1.280160099E-1,1.666600943E0,7.376473904E0
3.763766526E1,3.828516230E-2,1.389631748E0,6.662814617E0
3.765876390E1,1.232303679E-1,1.377069473E0,6.020341873E0
3.767986302E1,3.529413342E-1,9.972088337E-1,5.742774487E0
3.770096203E1,9.391828626E-2,6.508477330E-1,5.876772404E0
3.772206104E1,-3.176472187E-1,6.424728632E-1,6.186643124E0
3.774316026E1,-5.778666735E-1,6.496513486E-1,6.488138676E0
3.776425979E1,-1.006181955E0,8.691928387E-1,6.510272026E0
3.778535906E1,-1.384846091E0,1.049252748E0,6.397211552E0
3.780645817E1,-1.595414519E0,1.121037364E0,6.551548481E0
3.782755708E1,-1.532602906E0,1.140179992E0,7.119843960E0
3.784865604E1,-1.393819213E0,1.633101463E0,8.677571297E0
3.786975468E1,-1.472184181E0,2.202593327E0,1.065583706E1
3.789085359E1,-2.226521492E0,3.262613773E0,1.183609676E1
3.791195265E1,-1.104287624E0,3.113660574E0,1.341296768E1
3.793305156E1,9.170492887E-1,1.549352646E0,1.415892982E1
3.795415067E1,7.286145091E-1,1.558923960E0,1.519920921E1
3.797524984E1,-6.077769399E-1,1.945963025E0,1.575554085E1
3.799634927E1,-1.348355532E0,1.893919110E0,1.500120354E1
3.801744859E1,-1.362712502E0,1.842473388E0,1.335494137E1
3.803854781E1,-1.244267821E0,2.279163599E0,1.165424252E1
3.805964682E1,-9.607182741E-1,2.760120869E0,1.017906761E1
3.808074625E1,-4.977070987E-1,3.045464993E0,8.738588333E0
3.810184567E1,-1.854437590E-1,3.092723370E0,7.615756035E0
3.812294531E1,-3.720839322E-1,3.320041418E0,6.948757172E0
3.814404494E1,-7.369893789E-1,3.568894863E0,6.452844620E0
3.816514422E1,-8.362914920E-1,3.469592810E0,6.232704639E0
3.818624380E1,-7.190431952E-1,3.195016384E0,6.135197163E0
3.820734307E1,-5.724828243E-1,2.877967358E0,6.409175396E0
3.822844239E1,-4.959124923E-1,2.516052961E0,6.875775814E0
3.824954198E1,-6.442674994E-1,2.021337032E0,7.527820110E0
3.827064125E1,-1.582852125E0,2.330609322E0,8.055437088E0
3.829174057E1,-1.588834286E0,2.938386202E0,8.526823044E0
3.831283984E1,-7.878368497E-1,3.317648649E0,8.895318031E0
3.833393901E1,-1.351346612E0,4.567300320E0,9.668798447E0
3.835503817E1,-1.341775298E0,4.750350952E0,1.111406326E1
3.837613729E1,-7.896314859E-1,3.764508247E0,1.287218952E1
3.839723645E1,-1.336391449E0,3.477967739E0,1.346979713E1
3.841833578E1,-1.293320656E0,3.399602890E0,1.278903866E1
3.843943500E1,-5.946164131E-1,3.765106440E0,1.140778160E1
3.846053390E1,2.075773627E-1,4.360919476E0,1.066361427E1
3.848163291E1,1.039681435E0,4.830510616E0,9.781859398E0
3.850273213E1,2.214557409E0,4.846064091E0,8.725427628E0
3.852383119E1,3.276970625E0,4.560719967E0,8.122436523E0
3.854493026E1,3.681955814E0,4.089931965E0,7.770691395E0
3.856602932E1,3.080160856E0,3.648456335E0,7.741379261E0
3.858712817E1,1.908276081E0,3.181257725E0,7.537391186E0
3.860822703E1,1.250249863E0,2.490330219E0,7.223333359E0
3.862932619E1,8.787640929E-1,2.014756680E0,6.939185619E0
3.865042526E1,7.148557901E-1,1.786242127E0,6.806982040E0
3.867152453E1,7.351947427E-1,1.558325768E0,6.600601196E0
3.869262338E1,7.357929349E-1,1.335195065E0,6.416353703E0
3.871372229E1,6.041877270E-1,1.250249863E0,6.446264267E0
3.873482109E1,1.417747438E-1,1.130608678E0,6.457031727E0
3.875592015E1,-5.665007830E-1,1.147358418E0,6.540780544E0
3.877701880E1,-6.711867452E-1,1.214357495E0,6.704689026E0
3.879811755E1,-3.960121572E-1,1.116251707E0,7.325028419E0
3.881921661E1,-6.807580590E-1,1.853839397E0,8.222934723E0
3.884031536E1,-1.123430252E0,3.116651535E0,9.591629982E0
3.886141453E1,-2.123630047E-1,3.367299557E0,1.157647610E1
3.888251385E1,5.587241054E-1,3.303889751E0,1.301097298E1
3.890361260E1,1.549352705E-1,3.538386583E0,1.326401424E1
3.892471135E1,-4.199403822E-1,3.183650494E0,1.220937729E1
3.894580989E1,-8.356932998E-1,2.940180779E0,1.090528965E1
3.896690843E1,-1.094716311E0,3.207578659E0,9.896714211E0
3.898800739E1,-1.099501967E0,3.823730469E0,9.609575272E0
3.900910625E1,-6.717849374E-1,4.124029636E0,9.931410789E0
3.903020526E1,-4.432703853E-1,4.272384644E0,1.014915752E1
3.905130437E1,-3.415754437E-1,4.228715897E0,9.827920914E0
3.907240333E1,-4.342973232E-1,4.385445595E0,9.031708717E0
3.909350234E1,-3.284149170E-1,4.622933388E0,8.251648903E0
3.911460099E1,-1.926222295E-1,4.953142643E0,8.277371407E0
3.913569979E1,-8.315058798E-2,5.461617470E0,8.797810555E0
3.915679895E1,6.975077987E-1,4.922634602E0,9.674779892E0
3.917789817E1,8.997012973E-1,3.587439299E0,1.039920712E1
3.919899729E1,-5.234299302E-1,3.354737282E0,1.130010509E1
3.922009651E1,-1.668395638E0,3.215953588E0,1.297508049E1
3.924119567E1,-1.774278045E0,2.751745939E0,1.460459328E1
3.926229484E1,-1.511067510E0,2.378465652E0,1.451306725E1
3.928339395E1,-9.200403094E-1,2.443670034E0,1.328375530E1
3.930449307E1,1.758724600E-1,2.663809776E0,1.194138145E1
3.932559244E1,1.193420291E0,2.752942562E0,1.095314598E1
3.934669198E1,1.517049551E0,2.600399971E0,1.010369396E1
3.936779114E1,1.048056364E0,2.341377020E0,8.866603851E0
3.938889031E1,3.206382394E-1,2.030908108E0,7.336394310E0
3.940998942E1,-2.189432681E-1,1.661815286E0,5.848058701E0
3.943108880E1,-4.103690982E-1,1.347757339E0,4.689932346E0
3.945218838E1,-3.732803464E-1,1.330409408E0,3.975076675E0
3.947328797E1,-2.057827413E-1,1.630110383E0,3.600599766E0
3.949438755E1,6.819544733E-2,1.989033818E0,3.561716557E0
3.951548698E1,3.463610709E-1,2.212164640E0,3.991228104E0
3.953658651E1,6.831508875E-1,2.081755638E0,4.761716843E0
3.955768567E1,5.611169338E-1,1.719841242E0,5.420939922E0
3.957878479E1,-4.127619043E-2,1.575673699E0,5.855835438E0
3.959988406E1,-8.003991842E-1,1.620539188E0,6.222535133E0
3.962098349E1,-8.937192559E-1,1.995614052E0,7.588837147E0
3.964208270E1,-1.180259824E0,2.997010469E0,9.720842361E0
3.966318187E1,-1.089332461E0,3.625724554E0,1.192762280E1
3.968428140E1,6.957131624E-1,2.788834810E0,1.252283764E1
3.970538052E1,1.576271892E0,2.370688915E0,1.269153118E1
3.972648000E1,5.090730190E-1,2.614757061E0,1.401715469E1
3.974757953E1,-1.006181955E0,2.810968399E0,1.541276932E1
3.976867901E1,-2.046461582E0,3.035295486E0,1.534935951E1
3.978977849E1,-3.108874798E0,3.442075491E0,1.415593910E1
3.981087796E1,-3.611367464E0,4.190430641E0,1.302293682E1
3.983197734E1,-2.851048231E0,4.655236244E0,1.251446247E1
3.985307687E1,-1.491326690E0,4.216153622E0,1.210588837E1
3.987417687E1,-7.591229677E-1,3.740580082E0,1.121635628E1
3.989527645E1,-5.341976285E-1,3.480360508E0,9.658628464E0
3.991637567E1,-3.469592705E-2,2.836092949E0,7.853243828E0
3.993747520E1,3.960121572E-1,2.322832584E0,6.558128834E0
3.995857458E1,4.749752879E-1,2.224128723E0,5.807978630E0
3.997967390E1,1.818545163E-1,2.492124796E0,5.772684574E0
4.000077307E1,-1.597209126E-1,2.638087034E0,6.333203316E0
4.002187229E1,-1.980060786E-1,2.537588358E0,7.241877556E0
4.004297135E1,-5.826523304E-1,2.874976397E0,8.628518105E0
4.006407078E1,-9.828519225E-1,3.378665686E0,1.089811039E1
4.008516984E1,9.750752151E-2,3.281157970E0,1.258804131E1
4.010626901E1,1.737189293E0,2.619542599E0,1.205803108E1
4.012736823E1,1.049252748E0,3.343969584E0,1.136471081E1
4.014846755E1,-5.437689424E-1,3.828516245E0,1.211605740E1
4.016956729E1,-1.084546804E0,3.276970625E0,1.332921886E1
4.019066661E1,-9.505487680E-1,3.188436270E0,1.305524063E1
4.021176578E1,-1.435693651E-1,3.479164124E0,1.161356449E1
4.023286531E1,1.261615753E0,3.713660717E0,1.001037312E1
4.025396505E1,2.424527645E0,3.786641836E0,8.867800713E0
4.027506468E1,2.525624275E0,3.815355778E0,8.009973526E0
4.029616422E1,1.532602906E0,3.668795347E0,7.314260483E0
4.031726369E1,4.749752879E-1,3.151945591E0,6.540780544E0
4.033836328E1,-4.666004330E-2,2.506481647E0,5.894718647E0
4.035946255E1,-2.261217386E-1,2.161317110E0,5.463412285E0
4.038056198E1,-1.148554832E-1,2.079961061E0,5.270790100E0
4.040166151E1,2.632105052E-1,2.183450699E0,5.263013363E0
4.042276067E1,6.352944374E-1,2.358126640E0,5.401198864E0
4.044386000E1,7.668996453E-1,2.623729944E0,5.538187981E0
4.046495911E1,9.631111026E-1,2.498106956E0,5.439484119E0
4.048605838E1,8.883354068E-1,2.193022013E0,5.090131760E0
4.050715781E1,1.351944804E-1,2.133201361E0,4.980062008E0
4.052825692E1,-8.865407705E-1,2.439482689E0,5.665007591E0
4.054935609E1,-9.714859724E-1,2.639881611E0,7.164111137E0
4.057045557E1,-1.495514214E-1,2.605185747E0,9.105886459E0
4.059155479E1,-4.612165689E-1,2.815753937E0,1.151785183E1
4.061265380E1,-1.679761529E0,3.375076294E0,1.382393456E1
4.063375296E1,-4.372883439E-1,2.254039049E0,1.496650696E1
4.065485224E1,3.026920557E-1,1.391426325E0,1.504247952E1
4.067595151E1,-9.056833982E-1,2.213959217E0,1.563111401E1
4.069705078E1,-1.025922656E0,2.338385820E0,1.611685753E1
4.071815020E1,-4.630111754E-1,2.005185366E0,1.521954823E1
4.073924958E1,-5.180460811E-1,1.990828395E0,1.296311665E1
4.076034885E1,-8.279166222E-1,2.477767944E0,1.097228813E1
4.078144833E1,-7.435696125E-1,3.053241730E0,9.510273933E0
4.080254765E1,-9.092725813E-2,3.415754318E0,8.495717049E0
4.082364682E1,3.667000830E-1,3.594019651E0,7.554739475E0
4.084474619E1,5.856433511E-1,3.454039574E0,6.780063152E0
4.086584541E1,4.193421602E-1,3.145365477E0,6.092126369E0
4.088694448E1,-2.039881349E-1,3.141177893E0,5.937191010E0
4.090804380E1,-5.647061467E-1,3.128615618E0,5.931209087E0
4.092914323E1,-4.881358147E-1,2.711666346E0,5.978467464E0
4.095024255E1,-4.211367965E-1,2.361117840E0,6.501897335E0
4.097134187E1,-3.523431420E-1,2.182254314E0,7.294519901E0
4.099244135E1,-3.876372576E-1,2.251047850E0,8.133802414E0
4.101354073E1,-4.947160780E-1,2.630908489E0,9.159725189E0
4.103463989E1,-1.555334684E-2,3.117249727E0,1.028136063E1
4.105573906E1,6.909275651E-1,3.464807272E0,1.077727318E1
4.107683854E1,2.201396823E-1,4.639084816E0,1.102792168E1
4.109793802E1,1.310070395E0,4.286143780E0,1.150768185E1
4.111903729E1,2.441875458E0,3.117249727E0,1.127856922E1
4.114013640E1,1.013360381E0,3.571287870E0,1.168475151E1
4.116123557E1,-2.141576260E-1,3.836292982E0,1.250608730E1
4.118233468E1,-7.208378315E-1,3.828516245E0,1.221177006E1
4.120343380E1,-5.778666735E-1,4.167100430E0,1.147597694E1
4.122453296E1,7.369893789E-1,4.586442947E0,1.081436157E1
4.124563213E1,2.762513638E0,4.649852753E0,9.988838196E0
4.126673130E1,4.146163464E0,4.243670940E0,9.047860146E0
4.128783036E1,3.715455294E0,3.828516245E0,8.108677864E0
4.130892953E1,2.015953064E0,3.668795347E0,7.481758118E0
4.133002869E1,8.123632669E-1,3.338585854E0,7.133602619E0
4.135112791E1,4.325026870E-1,2.812762976E0,6.827919483E0
4.137222760E1,3.589234054E-1,2.357528448E0,6.425925255E0
4.139332724E1,3.170489967E-1,2.179263115E0,6.120840549E0
4.141442645E1,3.559323549E-1,2.143969059E0,6.069993019E0
4.143552526E1,5.425725579E-1,2.176272154E0,6.300900459E0
4.145662427E1,7.483552694E-1,2.236092806E0,6.610172749E0
4.147772328E1,6.412764788E-1,2.287538528E0,6.664609432E0
4.149882265E1,6.334998012E-1,2.273181438E0,6.783053875E0
4.151992229E1,7.597211599E-1,2.181057930E0,7.004390240E0
4.154102172E1,7.525427341E-1,1.952543259E0,6.915257454E0
4.156212109E1,6.352944374E-1,1.762912035E0,7.138986588E0
4.158322010E1,3.457628787E-1,1.767099500E0,7.824530125E0
4.160431911E1,-1.519442350E-1,1.648056626E0,8.875576973E0
4.162541833E1,-1.466202021E0,2.343769789E0,9.741779327E0
4.164651734E1,-3.041875839E0,3.375674486E0,1.132642555E1
4.166761625E1,-1.817348838E0,2.202593327E0,1.360259819E1
4.168871520E1,8.219345808E-1,-3.858426511E-1,1.579382610E1
4.170981406E1,2.255833626E0,-2.145763636E0,1.735633850E1
4.173091302E1,2.542374134E0,-2.863610506E0,1.830030823E1
4.175201198E1,1.753340840E0,-2.537588358E0,1.739582062E1
4.177311104E1,7.226324677E-1,-1.587039590E0,1.522911930E1
4.179421005E1,3.948157281E-2,-5.820540786E-1,1.298046494E1
4.181530890E1,-3.433700502E-1,7.058826834E-2,1.142034435E1
4.183640802E1,-8.087740541E-1,4.719842672E-1,9.971489906E0
4.185750729E1,-1.046859860E0,1.070189953E0,8.180462837E0
4.187860651E1,-8.201399446E-1,1.651047587E0,6.652047157E0
4.189970541E1,-2.183450609E-1,2.143969059E0,5.623133183E0
4.192080448E1,-1.280160099E-1,2.683550596E0,4.780859470E0
4.194190385E1,1.112662554E-1,3.267399311E0,3.831507206E0
4.196300302E1,5.389832854E-1,3.865604877E0,3.123830080E0
4.198410198E1,1.543370634E-1,4.161716938E0,2.617748022E0
4.200520109E1,-7.782655358E-1,4.169493675E0,2.678765059E0
4.202630073E1,-1.560120344E0,4.137788773E0,3.556930780E0
4.204740020E1,-1.592423439E0,3.972085476E0,4.828716278E0
4.206849927E1,-1.357328653E0,3.486940861E0,6.478567123E0
4.208959817E1,-1.286142230E0,2.817548752E0,8.553144455E0
4.211069703E1,-1.515853167E0,2.463410854E0,1.096092224E1
4.213179614E1,-2.193620205E0,2.523829699E0,1.239183044E1
4.215289526E1,-1.702493310E0,3.078366280E0,1.385623741E1
4.217399422E1,1.001994491E0,2.126621008E0,1.596670723E1
4.219509312E1,1.984846354E0,1.110269666E0,1.601635742E1
4.221619203E1,4.905286431E-2,1.446461320E0,1.581655788E1
4.223729067E1,-2.482553482E0,2.502892494E0,1.495693588E1
4.225838974E1,-2.977867842E0,2.874378204E0,1.296132183E1
4.227948885E1,-2.240878344E0,3.334398270E0,1.112782192E1
4.230058817E1,-1.045065284E0,4.133601189E0,1.021555805E1
4.232168729E1,3.667000830E-1,4.626522541E0,9.921838760E0
4.234278645E1,1.324427366E0,4.455435753E0,9.556933403E0
4.236388562E1,1.235892892E0,3.786641836E0,8.984451294E0
4.238498505E1,4.366901219E-1,3.128615618E0,8.333602905E0
4.240608385E1,-4.594219327E-1,2.896511793E0,7.664809227E0
4.242718270E1,-8.249256015E-1,2.539981127E0,6.869195461E0
4.244828140E1,-9.248259664E-1,2.221735716E0,6.294320107E0
4.246938010E1,-9.667003751E-1,1.992024899E0,6.129215240E0
4.249047901E1,-1.324427366E0,2.233101845E0,6.314060688E0
4.251157791E1,-1.569691658E0,2.510669231E0,6.607181549E0
4.253267692E1,-1.341775298E0,2.410768747E0,6.716054916E0
4.255377599E1,-1.027717352E0,2.185245275E0,6.731608391E0
4.257487505E1,-6.185446382E-1,1.912463546E0,6.579065800E0
4.259597401E1,-4.031906128E-1,1.788036704E0,6.311069489E0
4.261707312E1,-9.750752449E-1,1.826920033E0,6.339783669E0
4.263817255E1,-2.193620205E0,1.973480463E0,6.945167542E0
4.265927213E1,-2.625524759E0,2.178664923E0,7.950751305E0
4.268037166E1,-2.304886341E0,2.783450842E0,1.015214825E1
4.270147125E1,-2.416750908E0,4.019941807E0,1.344945812E1
4.272257078E1,-3.800998688E0,5.377270699E0,1.544925976E1
4.274367036E1,-3.584448338E0,5.590830326E0,1.592483330E1
4.276476989E1,-2.189432681E-1,4.741377831E0,1.572443390E1
4.278586927E1,1.740778446E0,5.301298618E0,1.439641762E1
4.280696880E1,9.559326172E-1,6.648457527E0,1.243968678E1
4.282806828E1,2.506481707E-1,6.971488953E0,1.058883858E1
4.284916755E1,6.173482537E-1,6.269195557E0,8.767302513E0
4.287026692E1,1.113858938E0,5.507081509E0,7.347760201E0
4.289136635E1,9.236295223E-1,5.358726501E0,6.655037880E0
4.291246599E1,4.049852192E-1,5.374279499E0,6.203990936E0
4.293356526E1,-3.014956415E-1,5.261219025E0,5.855835438E0
4.295466484E1,-1.020538807E0,4.900500774E0,5.423332691E0
4.297576437E1,-1.560120344E0,4.331008911E0,5.315057278E0
4.299686411E1,-2.221735716E0,4.173082829E0,5.194219589E0
4.301796390E1,-2.478964329E0,3.985246181E0,5.507081509E0
4.303906364E1,-2.391626120E0,3.491726398E0,5.745765209E0
4.306016276E1,-2.468196630E0,3.256033421E0,6.008975983E0
4.308126203E1,-2.424527645E0,3.268595695E0,6.406782627E0
4.310236172E1,-2.121835470E0,3.468396425E0,6.696314335E0
4.312346130E1,-1.558325768E0,3.246462107E0,6.848258495E0
4.314456083E1,-1.333400369E0,3.189034462E0,6.835696220E0
4.316566020E1,-1.435693622E0,3.531806231E0,6.707680225E0
4.318675979E1,-1.341775298E0,3.743571043E0,6.799205780E0
4.320785922E1,-1.551745534E0,4.026522160E0,7.168896675E0
4.322895864E1,-2.117049932E0,4.897509575E0,8.121239662E0
4.325005802E1,-2.315055847E0,5.784648895E0,9.311669350E0
4.327115760E1,-2.425125837E0,6.501897335E0,1.032263660E1
4.329225718E1,-2.386840582E0,6.918248653E0,1.057328510E1
4.331335661E1,-1.403390527E0,6.945765972E0,1.021854877E1
4.333445593E1,-2.488535494E-1,6.585047722E0,1.011565781E1
4.335555552E1,-2.179263115E0,7.019345284E0,1.003908730E1
4.337665484E1,-4.570291042E0,7.355536938E0,1.009172916E1
4.339775416E1,-4.430311203E0,6.808178425E0,1.034836006E1
4.341885338E1,-2.997608662E0,6.034698486E0,1.038664532E1
4.343995260E1,-2.656033039E0,6.102894306E0,1.005284595E1
4.346105187E1,-2.206182480E0,6.092126369E0,9.388239861E0
4.348215135E1,-1.543968797E0,5.961119175E0,8.221738815E0
4.350325099E1,-1.296909928E0,5.612365723E0,6.872186661E0
4.352435057E1,-1.518844128E0,4.956133842E0,5.833701611E0
4.354545052E1,-2.552543640E0,4.551148891E0,4.840082169E0
4.356655031E1,-3.150749207E0,4.161716938E0,5.639284611E0
4.358764989E1,-2.687737942E0,3.769293785E0,5.798407555E0
4.360874963E1,-2.129612207E0,3.812364578E0,4.896911621E0
