"Time (s)","Acceleration x (m/s^2)","Acceleration y (m/s^2)","Acceleration z (m/s^2)"
1.715959200E-2,7.076773047E-1,3.900300980E0,8.831310272E0
3.726912300E-2,7.525427341E-1,4.120440483E0,8.904291153E0
5.737865400E-2,7.405785918E-1,4.086342812E0,9.139386177E0
7.748823800E-2,6.041877270E-1,4.049852371E0,9.080163956E0
9.759776900E-2,5.964110494E-1,4.119842529E0,9.106484413E0
1.177073000E-1,6.329016089E-1,4.118646145E0,9.248259544E0
1.378168310E-1,6.789634228E-1,4.008575916E0,9.256634712E0
1.579264150E-1,6.101697683E-1,3.999004841E0,9.072386742E0
1.780359460E-1,4.325026870E-1,4.043870449E0,8.885149002E0
1.981454770E-1,3.457628787E-1,4.031906128E0,8.859425545E0
2.182550080E-1,2.386840582E-1,4.037290096E0,9.061619759E0
2.383645920E-1,2.614158690E-1,4.035495281E0,9.279366493E0
2.584741230E-1,3.403790295E-1,3.955934048E0,9.256634712E0
2.785836540E-1,2.889333367E-1,3.958326817E0,9.120243073E0
2.986931850E-1,2.303091735E-1,3.975674868E0,8.966505051E0
3.188027170E-1,2.327020019E-1,4.019941807E0,8.940781593E0
3.389123000E-1,1.088734269E-1,3.972683907E0,8.868398666E0
3.590218310E-1,1.399801224E-1,3.945764542E0,9.008976936E0
3.791313630E-1,4.881358147E-1,3.972683907E0,9.258428574E0
3.992408940E-1,8.279166222E-1,3.912265062E0,9.522835732E0
4.193504770E-1,8.344969153E-1,3.894917011E0,9.415757179E0
4.394600080E-1,5.952146053E-1,3.990031719E0,9.132207870E0
4.595695400E-1,3.499503136E-1,4.039682865E0,8.828917503E0
4.796790710E-1,1.573280841E-1,3.970889091E0,8.696713448E0
4.997886540E-1,6.520441920E-2,3.903890133E0,8.691329956E0
5.198981850E-1,1.417747438E-1,3.908077478E0,8.820542336E0
5.400077170E-1,3.661018610E-1,3.994817495E0,9.068199158E0
5.601172480E-1,4.695914388E-1,3.987040758E0,9.211171150E0
5.802268310E-1,3.302095234E-1,3.951148272E0,9.166903496E0
6.003363630E-1,2.985046208E-1,3.909274101E0,8.943174362E0
6.204458940E-1,3.302095234E-1,3.912863255E0,8.844470978E0
6.405554250E-1,2.087737769E-1,3.903291941E0,9.008976936E0
6.606649560E-1,4.486542568E-2,3.821935892E0,9.226125717E0
6.807745400E-1,-6.041877344E-2,3.843471289E0,9.301499367E0
7.008840710E-1,5.264209956E-2,3.876971006E0,9.199805260E0
7.209936020E-1,1.519442350E-1,3.930809498E0,9.011369705E0
7.411031850E-1,1.998006850E-1,4.034298897E0,8.934201241E0
7.612127170E-1,2.979064286E-1,4.042674065E0,8.950951576E0
7.813222480E-1,3.667000830E-1,3.980460405E0,8.926424980E0
8.014317790E-1,3.589234054E-1,3.949951887E0,9.061619759E0
8.215413630E-1,3.888336718E-1,3.896113396E0,9.375677109E0
8.416508940E-1,3.403790295E-1,3.834498405E0,9.536594391E0
8.617604250E-1,1.752742529E-1,3.796811342E0,9.242876053E0
8.818699560E-1,9.511470050E-2,3.886542082E0,8.718249321E0
9.019795400E-1,1.561316848E-1,4.035495281E0,8.450851440E0
9.220890710E-1,2.554338276E-1,4.062414646E0,8.563314438E0
9.421986020E-1,2.285145670E-1,4.001996040E0,8.844470978E0
9.623081330E-1,2.009970993E-1,3.949353695E0,9.144171715E0
9.824177170E-1,2.291127741E-1,3.906881094E0,9.291928291E0
1.002527248E0,1.776670814E-1,3.878167391E0,9.336793900E0
1.022636779E0,7.597211748E-2,3.843471289E0,9.235696793E0
1.042746363E0,5.324030295E-2,3.839283943E0,9.245866776E0
1.062855894E0,1.172483116E-1,3.832105398E0,9.469595909E0
1.082965425E0,2.614158690E-1,3.781257868E0,9.580862045E0
1.103075008E0,2.494517565E-1,3.780659676E0,9.458827972E0
1.123184540E0,1.399801224E-1,3.866801500E0,9.215956688E0
1.143294071E0,1.148554832E-1,3.906282902E0,9.032307625E0
1.163403602E0,1.848455518E-1,3.908077478E0,9.023932457E0
1.183513185E0,2.494517565E-1,3.899104595E0,9.110671997E0
1.203622717E0,2.889333367E-1,3.895515203E0,9.129815102E0
1.223732248E0,2.536391914E-1,3.902693748E0,9.203991890E0
1.243841779E0,1.627119333E-1,3.854837179E0,9.151350021E0
1.263951363E0,1.160518974E-1,3.857828379E0,9.096913338E0
1.284060894E0,1.657029688E-1,3.855435371E0,9.090931892E0
1.304170425E0,2.093719840E-1,3.857828379E0,9.114261627E0
1.324280008E0,2.494517565E-1,3.892524242E0,9.246464729E0
1.344389540E0,3.098705411E-1,3.866801500E0,9.233902931E0
1.364499071E0,2.033899277E-1,3.833899975E0,9.115457535E0
1.384608654E0,2.333002165E-2,3.889533281E0,8.968897820E0
1.404718185E0,8.733802289E-2,3.947559118E0,8.989236832E0
1.424827717E0,1.818545163E-1,3.955335855E0,9.186644554E0
1.444937300E0,1.471585929E-1,3.905086517E0,9.382855415E0
1.465046831E0,2.273181453E-2,3.895515203E0,9.442676544E0
1.485156363E0,-2.075773627E-1,3.903291941E0,9.440881729E0
1.505265894E0,-1.872383654E-1,3.844667673E0,9.372088432E0
1.525375477E0,1.100698411E-1,3.817150354E0,9.266803741E0
1.545485008E0,2.273181528E-1,3.924229145E0,9.059824944E0
1.565594540E0,2.632105052E-1,3.966103554E0,8.798408508E0
1.585704123E0,2.542374134E-1,3.959523201E0,8.836095810E0
1.605813654E0,2.195414752E-1,3.897309780E0,9.131608963E0
1.625923185E0,1.722832322E-1,3.809971809E0,9.331410408E0
1.646032769E0,5.084748194E-2,3.784847260E0,9.361320496E0
1.666142300E0,-4.067798331E-2,3.773481369E0,9.274580956E0
1.686251831E0,-4.007977992E-2,3.793820381E0,9.140582085E0
1.706361415E0,-3.469592705E-2,3.786641836E0,9.083154678E0
1.726470946E0,-8.195417374E-2,3.723232031E0,9.060422897E0
1.746580477E0,-1.052841991E-1,3.724428415E0,9.089735031E0
1.766690060E0,-1.674975827E-2,3.769293785E0,9.342177391E0
1.786799592E0,3.708875179E-2,3.731008768E0,9.381061554E0
1.806909123E0,-3.888336942E-2,3.736990690E0,9.174081802E0
1.827018706E0,-1.058823988E-1,3.759722471E0,8.934201241E0
1.847128238E0,-1.513460279E-1,3.778865099E0,8.825327873E0
1.867237769E0,-1.495514214E-1,3.778266907E0,8.861818314E0
1.887347352E0,-1.040877849E-1,3.798007727E0,8.919844627E0
1.907456883E0,-3.290131316E-2,3.812364578E0,8.995817184E0
1.927566415E0,3.290131316E-2,3.812364578E0,9.266803741E0
1.947675998E0,1.256231871E-2,3.769891977E0,9.384052277E0
1.967785529E0,3.529413417E-2,3.781257868E0,9.288937569E0
1.987895060E0,7.597211748E-2,3.817150354E0,9.078369141E0
2.008004644E0,1.782652885E-1,3.838087559E0,9.029914856E0
2.028114175E0,1.794617027E-1,3.830909014E0,9.233902931E0
2.048223706E0,7.357929647E-2,3.851248026E0,9.309276581E0
2.068333290E0,4.426721856E-2,3.879961967E0,9.211769104E0
2.088442821E0,2.213360928E-2,3.884747505E0,9.169894218E0
2.108552352E0,6.939185411E-2,3.830310822E0,9.216554642E0
2.128661935E0,4.307080805E-2,3.783052683E0,9.235098839E0
2.148771467E0,-6.819544733E-2,3.787838221E0,9.250652313E0
2.168881050E0,-9.990034252E-2,3.799802303E0,9.317052841E0
2.188990581E0,-3.110669367E-2,3.775275946E0,9.306285858E0
2.209100113E0,5.503492057E-2,3.844667673E0,9.148359299E0
2.229209696E0,1.740778536E-1,3.875774384E0,8.967700958E0
2.249319227E0,1.345962733E-1,3.887738705E0,8.956335068E0
2.269428758E0,2.273181453E-2,3.837489367E0,9.028120041E0
2.289538342E0,-8.733802289E-2,3.801596880E0,9.103493690E0
2.309647873E0,-1.657029688E-1,3.786641836E0,9.241081238E0
2.329757404E0,-1.316052526E-1,3.760919094E0,9.337990761E0
2.349866988E0,-7.956135273E-2,3.778266907E0,9.335597992E0
2.369976519E0,-5.084748194E-2,3.827918053E0,9.173483849E0
2.390086050E0,-5.563312769E-2,3.879363775E0,8.997013092E0
2.410195633E0,-3.649054468E-2,3.887140274E0,8.994022369E0
2.430305165E0,-2.512463741E-2,3.881158352E0,9.207581520E0
2.450414748E0,7.776673418E-3,3.824927092E0,9.397810936E0
2.470524279E0,4.486542568E-2,3.796213150E0,9.392427444E0
2.490633810E0,3.529413417E-2,3.817150354E0,9.254839897E0
2.510743394E0,9.571290575E-3,3.822534084E0,9.051449776E0
2.530852925E0,-3.948157281E-2,3.856033802E0,8.985049248E0
2.550962456E0,-3.589234129E-2,3.906282902E0,9.009575844E0
2.571072040E0,-5.922235921E-2,3.902693748E0,9.153742790E0
2.591181571E0,-1.423729509E-1,3.810570002E0,9.393623352E0
2.611291154E0,-9.212367237E-2,3.753740549E0,9.486943245E0
2.631400685E0,1.076770201E-1,3.815953970E0,9.455238342E0
2.651510217E0,2.799602449E-1,3.842873096E0,9.258428574E0
2.671619800E0,2.464607358E-1,3.849453449E0,8.980861664E0
2.691729331E0,8.733802289E-2,3.962514400E0,8.687741280E0
2.711838863E0,1.214357466E-1,4.008575916E0,8.586644173E0
2.731948446E0,4.366901144E-2,3.996013880E0,8.845068932E0
2.752057977E0,-5.982056633E-2,3.864408493E0,9.263215065E0
2.772167560E0,-1.286142170E-1,3.759124279E0,9.570094109E0
2.792277092E0,-1.304088384E-1,3.765704632E0,9.572486877E0
2.812386623E0,-7.118647546E-2,3.809373617E0,9.384650230E0
2.832496206E0,-5.682953820E-2,3.838087559E0,9.154939651E0
2.852605738E0,-1.363908947E-1,3.827319860E0,9.002396584E0
2.872715321E0,-2.129612118E-1,3.835694790E0,8.995817184E0
2.892824852E0,-2.380858511E-1,3.802195072E0,9.128020287E0
2.912934383E0,-2.105683982E-1,3.787240028E0,9.265008926E0
2.933043967E0,-1.232303679E-1,3.756731510E0,9.287740707E0
2.953153498E0,-2.093719877E-2,3.800998688E0,9.171689034E0
2.973263029E0,-5.982056726E-3,3.916452408E0,9.023932457E0
2.993372613E0,2.273181453E-2,3.951746702E0,8.941978455E0
3.013482144E0,-3.948157281E-2,3.969094515E0,9.006584167E0
3.033591727E0,-2.153540403E-2,3.917050600E0,9.105886459E0
3.053701258E0,6.879365444E-2,3.902095556E0,9.194420815E0
3.073810790E0,4.486542568E-2,3.902095556E0,9.173483849E0
3.093920373E0,-1.974078640E-2,3.903890133E0,9.075976372E0
3.114029904E0,3.948157281E-2,3.917648792E0,9.043074608E0
3.134139435E0,6.879365444E-2,3.930809498E0,9.126225471E0
3.154249019E0,4.785645381E-2,3.875176191E0,9.156734467E0
3.174358550E0,-8.793623000E-2,3.833301783E0,9.166903496E0
3.194468133E0,-4.785645287E-3,3.845266104E0,9.151350021E0
3.214577665E0,2.237289101E-1,3.895515203E0,9.078369141E0
3.234687248E0,3.104687333E-1,3.915256023E0,8.907281876E0
3.254796779E0,2.865405083E-1,3.914059639E0,8.744570732E0
3.274906310E0,2.027917206E-1,3.816552162E0,8.692526817E0
3.295015894E0,-7.537391037E-2,3.589233875E0,8.756534576E0
3.315125425E0,-3.367897868E-1,3.748954773E0,9.136395454E0
3.335234956E0,-6.580262631E-2,3.802195072E0,9.568898201E0
3.355344540E0,2.656033039E-1,3.823132277E0,9.686744690E0
3.375454071E0,3.714857101E-1,3.900300980E0,9.550353050E0
3.395563654E0,2.249253243E-1,3.935595036E0,9.323633194E0
3.415673185E0,8.135596663E-2,3.850051641E0,9.075976372E0
3.435782717E0,-4.785645287E-3,3.829114437E0,9.000003815E0
3.455892300E0,1.010967568E-1,3.887738705E0,9.071190834E0
3.476001831E0,1.842473447E-1,3.914657831E0,9.148957253E0
3.496111415E0,8.853443712E-2,3.857230186E0,9.174081802E0
3.516220946E0,-6.879365444E-2,3.827918053E0,9.175278664E0
3.536330477E0,-8.015955985E-2,3.762115479E0,9.177671432E0
3.556440060E0,-2.991028316E-2,3.731606960E0,9.190832138E0
3.576549592E0,5.802594870E-2,3.781257868E0,9.166903496E0
3.596659175E0,1.537388563E-1,3.873381615E0,9.067003250E0
3.616768706E0,1.046859920E-1,3.942175388E0,8.935996056E0
3.636878238E0,1.375873089E-1,3.907479286E0,8.937790871E0
3.656987821E0,1.148554832E-1,3.859024763E0,9.060422897E0
3.677097352E0,3.888336942E-2,3.781257868E0,9.220144272E0
3.697206935E0,-1.794616925E-3,3.761517286E0,9.282955170E0
3.717316467E0,1.914258115E-2,3.787240028E0,9.290133476E0
3.737425998E0,7.058826834E-2,3.824927092E0,9.249456406E0
3.757535581E0,1.657029688E-1,3.804588079E0,9.245268822E0
3.777645113E0,2.685943544E-1,3.748954773E0,9.332606316E0
3.797754696E0,2.709871531E-1,3.664607763E0,9.453444481E0
3.817864227E0,1.268195957E-1,3.653241873E0,9.513264656E0
3.837973758E0,1.543370634E-1,3.632902861E0,9.446864128E0
3.858083342E0,2.344966233E-1,3.684946775E0,9.309276581E0
3.878192873E0,3.176472187E-1,3.659822226E0,9.163313866E0
3.898302456E0,1.645065546E-1,3.685544968E0,9.039485931E0
3.918411988E0,9.930214286E-2,3.769293785E0,9.004191399E0
3.938521571E0,3.206382394E-1,3.799204111E0,8.999405861E0
3.958631102E0,4.145565331E-1,3.782454491E0,9.084949493E0
3.978740633E0,1.938186288E-1,3.704687595E0,9.157332420E0
3.998850217E0,-1.674975827E-2,3.648456335E0,9.151350021E0
4.018959748E0,-2.153540403E-2,3.687937975E0,9.142974854E0
4.039069331E0,-5.982056609E-4,3.706482172E0,9.137591362E0
4.059178863E0,-1.196411345E-2,3.704687595E0,9.165707588E0
4.079288394E0,2.392822644E-3,3.714857101E0,9.221938133E0
4.099397977E0,5.443671346E-2,3.726222992E0,9.257232666E0
4.119507508E0,1.429711580E-1,3.729214191E0,9.311669350E0
4.139617092E0,2.644068897E-1,3.731008768E0,9.418149948E0
4.159726623E0,3.326023519E-1,3.736990690E0,9.463015556E0
4.179836206E0,3.254238665E-1,3.741178274E0,9.380462646E0
4.199945738E0,3.361915946E-1,3.757329702E0,9.247661591E0
4.220055321E0,3.696911037E-1,3.775874138E0,9.148359299E0
4.240164852E0,3.643072546E-1,3.789034605E0,9.112466812E0
4.260274383E0,4.187439680E-1,3.790829182E0,9.131608963E0
4.280383967E0,4.414757788E-1,3.802793503E0,9.190832138E0
4.300493498E0,4.211367965E-1,3.786641836E0,9.249456406E0
4.320603081E0,3.912265003E-1,3.755535126E0,9.294919968E0
4.340712613E0,3.505485058E-1,3.729812384E0,9.327222824E0
4.360822144E0,3.589234054E-1,3.722035646E0,9.330213547E0
4.380931727E0,3.355933726E-1,3.726222992E0,9.276973724E0
4.401041258E0,2.189432681E-1,3.708875179E0,9.178867340E0
4.421150842E0,1.663011760E-1,3.686741590E0,9.062217712E0
4.441260373E0,1.322034448E-1,3.686741590E0,9.036494255E0
4.461369904E0,7.597211748E-2,3.672982693E0,9.080163956E0
4.481479488E0,9.511470050E-2,3.654438496E0,9.190233231E0
4.501589019E0,1.232303679E-1,3.634697676E0,9.303294182E0
4.521698602E0,1.154536903E-1,3.622733593E0,9.279366493E0
4.541808133E0,1.118644550E-1,3.748954773E0,9.056235313E0
4.561917717E0,2.057827413E-1,3.859024763E0,8.782855988E0
4.582027248E0,2.285145670E-1,3.867399693E0,8.840283394E0
4.602136831E0,1.447657645E-1,3.757927895E0,9.138189316E0
4.622246363E0,3.409772366E-2,3.699303865E0,9.337391853E0
4.642355894E0,8.853443712E-2,3.745963812E0,9.336793900E0
4.662465477E0,2.608176768E-1,3.800998688E0,9.181859016E0
4.682575008E0,3.146561682E-1,3.862613916E0,9.004191399E0
4.702684592E0,2.691925466E-1,3.915854216E0,8.906085968E0
4.722794123E0,2.907279432E-1,3.889533281E0,8.916853905E0
4.742903706E0,3.080759048E-1,3.872783422E0,9.034700394E0
4.763013238E0,2.464607358E-1,3.850649834E0,9.145368576E0
4.783122769E0,1.956132501E-1,3.818346739E0,9.291330338E0
4.803232352E0,1.651047617E-1,3.800400496E0,9.355937004E0
4.823341883E0,1.298106313E-1,3.807579041E0,9.327222824E0
4.843451467E0,1.304088384E-1,3.832703590E0,9.254241943E0
4.863560998E0,1.214357466E-1,3.829712629E0,9.212367058E0
4.883670581E0,8.614161611E-2,3.835096598E0,9.188439369E0
4.903780113E0,4.785645381E-2,3.859024763E0,9.150752068E0
4.923889644E0,2.991028316E-2,3.894318819E0,9.120243073E0
4.943999227E0,1.148554832E-1,3.839882135E0,9.200403214E0
4.964108758E0,1.310070455E-1,3.782454491E0,9.314062119E0
4.984218342E0,1.184447184E-1,3.770490170E0,9.345767021E0
5.004327873E0,9.571290761E-2,3.796213150E0,9.212965012E0
5.024437456E0,8.494520187E-2,3.849453449E0,9.056235313E0
5.044546988E0,8.733802289E-2,3.848855257E0,9.039485931E0
5.064656519E0,1.830509305E-1,3.786043644E0,9.179466248E0
5.084766102E0,1.764706671E-1,3.772883177E0,9.349954605E0
5.104875633E0,2.177468538E-1,3.792623997E0,9.382257462E0
5.124985217E0,3.128615618E-1,3.817150354E0,9.257830620E0
5.145094748E0,2.566302419E-1,3.890729666E0,9.046664238E0
5.165204331E0,2.039881349E-1,3.956532240E0,8.895915985E0
5.185313863E0,2.344966233E-1,3.932604074E0,8.956933022E0
5.205423394E0,2.835494876E-1,3.870988846E0,9.207581520E0
5.225532977E0,2.356930375E-1,3.796213150E0,9.413364410E0
5.245642508E0,1.214357466E-1,3.778266907E0,9.452247620E0
5.265752092E0,8.554340899E-2,3.771088600E0,9.346364975E0
5.285861623E0,1.716850251E-1,3.775874138E0,9.199206352E0
5.305971206E0,2.141576260E-1,3.817748547E0,9.007781029E0
5.326080738E0,1.621137410E-1,3.840480328E0,8.922237396E0
5.346190321E0,1.154536903E-1,3.815953970E0,8.971888542E0
5.366299852E0,5.204389244E-2,3.818346739E0,9.063413620E0
5.386409383E0,2.392822644E-3,3.798007727E0,9.096315384E0
5.406518967E0,-8.374879137E-3,3.766901016E0,9.117850304E0
5.426628498E0,-5.922235921E-2,3.756133318E0,9.159725189E0
5.446738081E0,-1.016949639E-1,3.761517286E0,9.118449211E0
5.466847613E0,-9.690931439E-2,3.820141315E0,9.104091644E0
5.486957196E0,-7.118647546E-2,3.838685751E0,9.131011009E0
5.507066727E0,-1.076770201E-1,3.793820381E0,9.218349457E0
5.527176310E0,-1.579262912E-1,3.756133318E0,9.287142754E0
5.547285842E0,-1.519442350E-1,3.733999729E0,9.221340179E0
5.567395425E0,-9.870393574E-2,3.757329702E0,9.100502968E0
5.587504956E0,-1.082752272E-1,3.797409534E0,8.997611046E0
5.607614488E0,-1.668993831E-1,3.822534084E0,9.012566566E0
5.627724071E0,-1.184447184E-1,3.821337700E0,9.168100357E0
5.647833602E0,-6.400800496E-2,3.829114437E0,9.284152031E0
5.667943185E0,-3.170489892E-2,3.842873096E0,9.253045082E0
5.688052717E0,6.939185411E-2,3.885345697E0,9.164510727E0
5.708162300E0,1.214357466E-1,3.921238184E0,9.058030128E0
5.728271831E0,1.471585929E-1,3.951148272E0,9.037093163E0
5.748381415E0,2.249253243E-1,3.932005882E0,9.078967094E0
5.768490946E0,1.758724600E-1,3.899104595E0,9.042476654E0
5.788600477E0,4.366901144E-2,3.973880291E0,8.879764557E0
5.808710060E0,1.322034448E-1,4.045664787E0,8.835497856E0
5.828819592E0,1.429711580E-1,4.030111313E0,8.931808472E0
5.848929175E0,5.563312769E-2,3.928416491E0,9.085547447E0
5.869038706E0,-3.110669367E-2,3.860221148E0,9.238089561E0
5.889148290E0,-9.750752151E-2,3.849453449E0,9.247661591E0
5.909257821E0,-1.088734269E-1,3.881756544E0,9.162117958E0
5.929367404E0,1.555334684E-2,3.973880291E0,9.077771187E0
5.949476935E0,2.309073806E-1,4.000201225E0,8.977870941E0
5.969586519E0,3.517449200E-1,4.012165546E0,8.880363464E0
5.989696050E0,2.464607358E-1,4.195216179E0,8.709276199E0
6.009805581E0,2.231307179E-1,4.375276089E0,8.513064384E0
6.029915165E0,1.884347796E-1,4.427320004E0,8.487341881E0
6.050024696E0,3.116651475E-1,4.490131855E0,8.763114929E0
6.070134279E0,3.008974493E-1,4.332205296E0,9.091529846E0
6.090243810E0,1.058823988E-1,4.372883320E0,9.230313301E0
6.110353394E0,1.483550072E-1,4.433900356E0,9.180662155E0
6.130462925E0,4.839483798E-1,4.421936035E0,9.215357780E0
6.150572508E0,5.425725579E-1,4.432105541E0,9.261420250E0
6.170682040E0,2.997010350E-1,4.429712772E0,8.995218277E0
6.190791623E0,1.734796353E-2,4.549952030E0,8.578269005E0
6.210901154E0,4.965107143E-2,4.640879631E0,8.358129501E0
6.231010738E0,2.590230405E-1,4.564309120E0,8.388039589E0
6.251120269E0,2.356930375E-1,4.479363918E0,8.462815285E0
6.271229852E0,1.238285750E-1,4.429712772E0,8.533403397E0
6.291339383E0,1.393819153E-1,4.362713814E0,8.590232849E0
6.311448915E0,2.291127741E-1,4.341776848E0,8.732007980E0
6.331558498E0,3.116651475E-1,4.323232174E0,8.845666885E0
6.351668029E0,2.518445849E-1,4.286741734E0,8.823533058E0
6.371777613E0,1.950150430E-1,4.311268330E0,8.821140289E0
6.391887144E0,3.164508045E-1,4.345366001E0,8.865407944E0
6.411996727E0,3.678964674E-1,4.451248169E0,8.835497856E0
6.432106258E0,3.810569942E-1,4.542773724E0,8.678169250E0
6.452215842E0,3.625126183E-1,4.585844517E0,8.557332039E0
6.472325373E0,2.141576260E-1,4.608576298E0,8.626724243E0
6.492434956E0,1.316052526E-1,4.649852753E0,8.797810555E0
6.512544488E0,-1.196411322E-3,4.733003139E0,8.869595528E0
6.532654071E0,-1.495514214E-1,4.783850670E0,8.744570732E0
6.552763602E0,-2.524427772E-1,4.886742115E0,8.702097893E0
6.572873185E0,-2.087737769E-1,4.996213913E0,8.933603287E0
6.592982717E0,-1.154536903E-1,5.013561726E0,9.400203705E0
6.613092248E0,-2.129612118E-1,5.030909538E0,9.899106979E0
6.633201831E0,-1.489532143E-1,4.993820667E0,1.021555805E1
6.653311363E0,-4.606183618E-2,4.908277512E0,1.042672443E1
6.673420946E0,-3.834498227E-1,4.854438782E0,1.041715336E1
6.693530477E0,-8.536394835E-1,4.874777794E0,1.008395290E1
6.713640060E0,-7.609176040E-1,4.904089928E0,9.908679008E0
6.733749592E0,-3.834498227E-1,4.947759151E0,1.021137047E1
6.753859175E0,6.819544733E-2,4.636094093E0,1.087358475E1
6.773968706E0,1.022931695E0,3.686741590E0,1.184925747E1
6.794078290E0,1.124028444E0,2.810370207E0,1.228355503E1
6.814187821E0,-1.280160099E-1,2.594418049E0,1.102612686E1
6.834297404E0,-1.013360381E0,2.883351326E0,8.761320114E0
6.854406935E0,-1.010369420E0,3.346960783E0,7.076773167E0
6.874516519E0,-2.985046208E-1,3.413959742E0,6.770491600E0
6.894626050E0,9.332008660E-2,3.120838881E0,7.592426300E0
6.914735633E0,-1.674975902E-1,2.962912560E0,8.458627701E0
6.934845165E0,-6.143572330E-1,2.944368362E0,8.788239479E0
6.954954696E0,-6.622136831E-1,3.056830883E0,8.574081421E0
6.975064279E0,-4.199403822E-1,3.298506021E0,8.248658180E0
6.995173810E0,-2.572284341E-1,3.466601849E0,7.996813297E0
7.015283394E0,-4.241278172E-1,3.591028690E0,7.822735310E0
7.035392925E0,-4.905286431E-1,3.739383698E0,7.722835064E0
7.055502508E0,-2.679961324E-1,3.976273060E0,7.888537884E0
7.075612040E0,-6.340979785E-2,4.180859566E0,8.050651550E0
7.095721623E0,-1.214357466E-1,4.413561344E0,7.883154392E0
7.115831154E0,-1.794617027E-1,4.582255363E0,7.602595806E0
7.135940738E0,-5.383851007E-2,4.663012981E0,7.602595806E0
7.156050269E0,5.623133108E-2,4.717449665E0,7.837690353E0
7.176159852E0,1.016949639E-1,4.805984497E0,8.021339417E0
7.196269383E0,1.238285750E-1,4.889732838E0,8.042875290E0
7.216378967E0,2.105683982E-1,4.968098164E0,7.981259823E0
7.236488498E0,1.752742529E-1,5.053641319E0,8.182256699E0
7.256598081E0,1.208375469E-1,5.056034088E0,8.647661209E0
7.276707613E0,2.452643216E-1,5.020740032E0,9.175278664E0
7.296817196E0,3.326023519E-1,5.135595798E0,9.668199539E0
7.316926727E0,2.087737769E-1,5.195415974E0,9.976275444E0
7.337036310E0,0.000000000E0,5.221138954E0,1.003071213E1
7.357145842E0,6.520441920E-2,5.146363258E0,1.011924744E1
7.377255425E0,3.535395563E-1,4.871188641E0,1.038485050E1
7.397364956E0,3.780659735E-1,4.575077057E0,1.079581738E1
7.417474540E0,-9.092725813E-2,4.700700283E0,1.077547836E1
7.437584071E0,3.619144261E-1,4.509274483E0,1.046022415E1
7.457693654E0,5.455635786E-1,4.728217602E0,9.763913155E0
7.477803185E0,7.824530005E-1,5.070391178E0,8.523832321E0
7.497912769E0,2.351546526E0,4.525425911E0,7.637889862E0
7.518022300E0,2.832503796E0,3.747758389E0,8.367102623E0
7.538131831E0,1.710269928E0,2.839682341E0,1.010847950E1
7.558241415E0,-1.645065546E-1,2.128415823E0,1.164706421E1
7.578350998E0,-1.378864050E0,2.181656122E0,1.205504036E1
7.598460529E0,-9.260223508E-1,2.712264538E0,1.099083233E1
7.618570060E0,1.465603858E-1,3.520440340E0,9.414560318E0
7.638679644E0,7.196413875E-1,3.979862213E0,8.229515076E0
7.658789175E0,4.911268353E-1,3.727419376E0,7.769495010E0
7.678898758E0,-3.547359705E-1,3.373281717E0,7.950153351E0
7.699008290E0,-7.836494446E-1,3.159124136E0,8.054241180E0
7.719117873E0,-7.926225066E-1,3.219542980E0,7.984251022E0
7.739227404E0,-5.635097623E-1,3.573680639E0,7.625925541E0
7.759336988E0,-3.421736360E-1,3.875774384E0,7.133004189E0
7.779446519E0,-3.272185028E-1,4.023531437E0,6.904489517E0
7.799556102E0,-2.578266263E-1,4.011567116E0,7.220940590E0
7.819665633E0,-7.058826834E-2,4.002593994E0,7.795217991E0
7.839775217E0,1.316052526E-1,4.102494240E0,8.093722343E0
7.859884748E0,2.703889608E-1,4.250251293E0,8.219346046E0
7.879994331E0,4.959124923E-1,4.353740692E0,8.493922234E0
7.900103863E0,5.712863803E-1,4.497310162E0,8.867800713E0
7.920213446E0,4.432703853E-1,4.679164886E0,9.023334503E0
7.940322977E0,3.218346536E-1,4.920839787E0,8.830712318E0
7.960432560E0,2.243271172E-1,5.215157032E0,8.737990379E0
7.980542144E0,7.956135273E-2,5.373083115E0,9.264410973E0
8.000651675E0,-7.956135273E-2,5.430510998E0,1.020359421E1
8.020761206E0,-4.151547253E-1,5.481956482E0,1.069890785E1
8.040870790E0,-8.889335990E-1,5.606981754E0,1.039202881E1
8.060980321E0,-1.342971683E0,6.036493301E0,9.768099785E0
8.081089904E0,-1.586441398E0,6.653841496E0,9.317651749E0
8.101199435E0,-4.731806815E-1,6.496513367E0,9.991828918E0
8.121309019E0,1.421934843E0,4.923830986E0,1.232722378E1
8.141418550E0,2.300100803E0,3.423531055E0,1.512144279E1
8.161528133E0,2.085345030E0,1.996810555E0,1.579502201E1
8.181637665E0,7.196413875E-1,1.261615753E0,1.341595840E1
8.201747248E0,-6.317051649E-1,1.842473388E0,9.904491425E0
8.221856831E0,-1.099501967E0,2.796013355E0,7.070192814E0
8.241966363E0,-7.010970116E-1,3.321237803E0,6.059225082E0
8.262075894E0,-1.740778536E-1,3.273979664E0,6.866204739E0
8.282185477E0,-4.061816335E-1,2.961716175E0,7.984848976E0
8.302295060E0,-1.058824062E0,2.753540754E0,8.394619942E0
8.322404592E0,-1.436890006E0,2.554936409E0,8.027321815E0
8.342514175E0,-1.509871125E0,2.658426046E0,7.658827305E0
8.362623706E0,-1.379462242E0,2.888136864E0,7.546364307E0
8.382733290E0,-1.027119160E0,3.090928555E0,7.364510059E0
8.402842821E0,-5.760720372E-1,3.375674486E0,7.082755089E0
8.422952404E0,-1.148554832E-1,3.500101328E0,7.012166977E0
8.443061935E0,2.871387079E-2,3.546163082E0,7.357331276E0
8.463171519E0,-7.836493850E-2,3.771088600E0,7.676773071E0
8.483281050E0,-1.513460279E-1,4.093521118E0,7.622336388E0
8.503390633E0,-4.546362907E-2,4.355535507E0,7.308278561E0
8.523500165E0,2.506481707E-1,4.545764923E0,7.256234646E0
8.543609748E0,3.349951804E-1,4.683351994E0,7.608577728E0
8.563719279E0,1.854437590E-1,4.695316315E0,8.011170387E0
8.583828863E0,-5.264209956E-2,4.844269276E0,8.349156380E0
8.603938394E0,7.298108935E-2,5.015954494E0,8.558527946E0
8.624047977E0,2.117647976E-1,5.230710506E0,8.779266357E0
8.644157508E0,-4.247260094E-2,5.535196781E0,9.096913338E0
8.664267092E0,-5.084748194E-2,5.621338367E0,9.538987160E0
8.684376623E0,1.375873014E-2,5.688935757E0,1.015334511E1
8.704486206E0,3.702892959E-1,5.656632900E0,1.057807064E1
8.724595738E0,5.515456200E-1,5.861218929E0,1.069591713E1
8.744705321E0,6.586244106E-1,6.215955257E0,1.043809032E1
8.764814852E0,2.040479422E0,5.313860893E0,1.058405304E1
8.784924435E0,2.167897224E0,4.398606300E0,1.103450203E1
8.805033967E0,7.692924738E-1,3.733401537E0,1.152024460E1
8.825143550E0,4.953143001E-1,2.827120066E0,1.148136139E1
8.845253081E0,8.297112584E-1,2.462214470E0,1.143290615E1
8.865362665E0,9.487541914E-1,2.871387243E0,1.080658531E1
8.885472248E0,1.444068432E0,3.209373474E0,9.305088997E0
8.905581779E0,2.006979942E0,3.594617844E0,8.220541954E0
8.925691363E0,2.429911375E0,3.701696634E0,8.190631866E0
8.945800894E0,1.582253933E0,3.439682484E0,8.929415703E0
8.965910477E0,2.386840582E-1,3.081955671E0,9.511469841E0
8.986020008E0,-4.821537733E-1,2.898904562E0,9.710672379E0
9.006129592E0,-6.400800347E-1,2.804986238E0,9.469595909E0
9.026239123E0,-3.924229145E-1,2.927020311E0,8.820542336E0
9.046348706E0,3.888336942E-2,3.095714331E0,7.969893932E0
9.066458238E0,2.075773627E-1,3.244069338E0,7.359126091E0
9.086567821E0,1.890329868E-1,3.373879910E0,7.018746853E0
9.106677352E0,8.255238086E-2,3.462414265E0,6.906882763E0
9.126786935E0,-1.286142170E-1,3.603590965E0,6.789036274E0
9.146896467E0,-1.782652885E-1,3.835694790E0,6.644868374E0
9.167006050E0,-1.579262912E-1,4.100101471E0,6.690331936E0
9.187115581E0,-5.982056726E-3,4.214358807E0,7.087540627E0
9.207225165E0,2.931207716E-1,4.220939159E0,7.625327587E0
9.227334748E0,3.966103494E-1,4.409373760E0,8.115258217E0
9.247444279E0,3.894318938E-1,4.590032101E0,8.575278282E0
9.267553863E0,1.740778536E-1,4.718048096E0,8.902496338E0
9.287663394E0,-7.956135273E-2,4.858626366E0,9.230313301E0
9.307772977E0,-6.879365444E-2,5.065007210E0,9.451051712E0
9.327882508E0,1.399801224E-1,5.315655708E0,9.572486877E0
9.347992092E0,3.415754437E-1,5.511268616E0,9.761520386E0
9.368101623E0,4.731806815E-1,5.761917114E0,1.015753174E1
9.388211206E0,5.300102234E-1,5.933003902E0,1.058166027E1
9.408320738E0,4.516452849E-1,5.942574978E0,1.075753212E1
9.428430321E0,3.529413417E-2,6.029912949E0,1.069651508E1
9.448539904E0,1.387837082E-1,5.702096462E0,1.092323494E1
9.468649435E0,5.359922647E-1,5.026124001E0,1.147238827E1
9.488759019E0,2.404786795E-1,4.640879631E0,1.112662506E1
9.508868550E0,3.589234054E-1,3.916452408E0,1.006062317E1
9.528978133E0,2.458625287E-1,3.245863914E0,9.543772697E0
9.549087665E0,-3.451646566E-1,3.052643538E0,9.443274498E0
9.569197248E0,-6.795616150E-1,2.953939438E0,9.178269386E0
9.589306779E0,-4.301098585E-1,2.995813847E0,8.937192917E0
9.609416363E0,4.606183469E-1,3.000001431E0,9.185447693E0
9.629525894E0,1.103091240E0,2.832503796E0,9.710074425E0
9.649635477E0,6.711867452E-1,2.753540754E0,1.009172916E1
9.669745008E0,6.580262445E-3,2.737389088E0,9.494720459E0
9.689854592E0,-4.905286431E-1,3.032304525E0,8.361719131E0
9.709964175E0,-5.521438122E-1,3.352344513E0,7.432705402E0
9.730073706E0,-7.118647546E-2,3.617349625E0,6.798008919E0
9.750183290E0,2.285145670E-1,3.832105398E0,6.773482800E0
9.770292821E0,1.226321608E-1,3.682554007E0,7.307082176E0
9.790402404E0,-6.281159073E-2,3.512663603E0,7.688737392E0
9.810511935E0,-2.470589429E-1,3.655634880E0,7.649255753E0
9.830621519E0,-2.614158690E-1,3.871587038E0,7.403393269E0
9.850731050E0,-2.153540403E-2,4.091128349E0,7.178467751E0
9.870840633E0,8.494520187E-2,4.350151539E0,7.019345284E0
9.890950217E0,2.392822644E-3,4.563711166E0,7.013363361E0
9.911059748E0,-1.333998591E-1,4.759922504E0,7.252047062E0
9.931169331E0,-9.870393574E-2,4.805984497E0,7.838887215E0
9.951278863E0,-8.554340899E-2,5.023132801E0,8.860622406E0
9.971388446E0,1.238285750E-1,5.266004562E0,9.742975235E0
9.991498029E0,2.925225794E-1,5.504688263E0,1.056311512E1
1.001160756E1,4.666004181E-1,5.440680504E0,1.120558834E1
1.003171714E1,7.130611539E-1,5.017150879E0,1.137069321E1
1.005182668E1,8.117650747E-1,4.776073933E0,1.124267673E1
1.007193626E1,-3.661018610E-1,5.769095421E0,1.022991467E1
1.009204579E1,-2.853440940E-1,6.232704639E0,8.970093727E0
1.011215537E1,2.259422779E0,5.087738991E0,9.709476471E0
1.013226490E1,3.439682484E0,3.527618885E0,1.210648632E1
1.015237449E1,2.440679073E0,2.182852507E0,1.383171082E1
1.017248407E1,2.973082066E-1,1.807777524E0,1.343569946E1
1.019259360E1,-5.234299302E-1,2.376671076E0,1.197547913E1
1.021270318E1,4.815555513E-1,2.815155745E0,1.012821960E1
1.023281272E1,1.822134495E0,3.252444267E0,8.732007980E0
1.025292230E1,2.097907305E0,3.457030535E0,7.765905857E0
1.027303183E1,1.722234130E0,3.403192043E0,7.304689407E0
1.029314142E1,1.002592683E0,3.372085333E0,7.746165276E0
1.031325095E1,6.430711150E-1,3.212364435E0,8.458627701E0
1.033336053E1,5.527420044E-1,3.110071182E0,8.776275635E0
1.035347011E1,4.283152521E-1,3.189034462E0,8.484351158E0
1.037357964E1,2.602194548E-1,3.234498024E0,7.744370461E0
1.039368923E1,1.495514214E-1,3.380460262E0,7.060621262E0
1.041379876E1,1.136590764E-1,3.693321705E0,6.565307140E0
1.043390834E1,1.537388563E-1,3.987638950E0,6.354140759E0
1.045401792E1,3.242274821E-1,4.238885403E0,6.426523209E0
1.047412746E1,4.929214716E-1,4.289732933E0,6.994818687E0
1.049423704E1,3.894318938E-1,4.137788773E0,7.823931694E0
1.051434657E1,9.511470050E-2,4.189234257E0,8.310871124E0
1.053445615E1,-9.212367237E-2,4.455435753E0,8.246265411E0
1.055456568E1,5.024927482E-2,4.787439823E0,7.922037601E0
1.057467527E1,2.985046208E-1,5.136193752E0,7.959724426E0
1.059478485E1,3.397808075E-1,5.215157032E0,8.525627136E0
1.061489438E1,1.124626622E-1,5.216951370E0,9.382257462E0
1.063500397E1,-1.501496136E-1,5.254638672E0,9.963115692E0
1.065511350E1,-3.469592929E-1,5.382654667E0,1.001456070E1
1.067522308E1,-4.677968323E-1,5.806782246E0,9.866804123E0
1.069533266E1,-3.589234054E-1,6.086742401E0,9.836894035E0
1.071544220E1,-6.658028960E-1,6.296712875E0,9.964311600E0
1.073555178E1,-1.767697692E0,7.010970116E0,9.694520950E0
1.075566131E1,-6.269195080E-1,6.102295876E0,1.063310528E1
1.077577089E1,1.076770186E0,4.284348965E0,1.313420391E1
1.079588042E1,1.584048629E0,3.199203968E0,1.519920921E1
1.081599001E1,6.849454641E-1,2.341377020E0,1.442393494E1
1.083609959E1,-4.564309120E-1,2.517847538E0,1.143290615E1
1.085620912E1,-6.376872063E-1,3.255435228E0,8.140382767E0
1.087631871E1,-8.853443712E-2,3.535395384E0,6.090929985E0
1.089642824E1,2.985046208E-1,3.324228764E0,6.062814236E0
1.091653782E1,3.577269912E-1,3.038286448E0,7.302894592E0
1.093664740E1,6.939185411E-2,3.083750248E0,8.130811691E0
1.095675694E1,-3.278166950E-1,3.115455151E0,8.095517159E0
1.097686652E1,-4.719842672E-1,3.199802160E0,7.755138397E0
1.099697605E1,-4.689932466E-1,3.380460262E0,7.302296638E0
1.101708563E1,-4.025924206E-1,3.479164124E0,6.900302410E0
1.103719522E1,-2.865405083E-1,3.542573929E0,6.723233223E0
1.105730475E1,4.785645287E-3,3.597010612E0,6.937989235E0
1.107741433E1,1.543370634E-1,3.756731510E0,7.289734364E0
1.109752386E1,1.142572835E-1,3.884747505E0,7.539186001E0
1.111763345E1,1.651047617E-1,3.918246984E0,7.557730198E0
1.113774303E1,9.032905847E-2,4.087539196E0,7.569694519E0
1.115785256E1,-1.842473447E-1,4.368695736E0,7.678567886E0
1.117796214E1,-3.631108403E-1,4.563112736E0,7.874779224E0
1.119807168E1,-1.555334777E-1,4.676173687E0,8.189435959E0
1.121818126E1,1.381855011E-1,4.839483738E0,8.756534576E0
1.123829084E1,2.237289101E-1,5.017749310E0,9.253045082E0
1.125840037E1,1.465603858E-1,5.201996326E0,9.515657425E0
1.127850996E1,-7.118647546E-2,5.398806095E0,9.602396965E0
1.129861949E1,5.623133108E-2,5.439484119E0,9.835697174E0
1.131872907E1,6.831508875E-1,5.188836098E0,1.019880867E1
1.133883865E1,6.927221417E-1,5.338387489E0,1.034177971E1
1.135894819E1,-4.127619043E-2,6.202196121E0,9.706484795E0
1.137905777E1,1.396810174E0,5.351547718E0,9.357132912E0
1.139916730E1,2.979662418E0,4.278367043E0,1.019521904E1
1.141927688E1,3.013760090E0,3.735196114E0,1.116849995E1
1.143938647E1,2.340778828E0,3.015554667E0,1.152921772E1
1.145949600E1,1.937588096E0,2.383251429E0,1.174038410E1
1.147960558E1,1.664806366E0,2.351546526E0,1.170209885E1
1.149971517E1,1.545763373E0,2.496910334E0,1.112901783E1
1.151982470E1,1.593021631E0,2.797807932E0,9.956535339E0
1.153993428E1,1.710269928E0,3.088535786E0,8.819346428E0
1.156004381E1,1.137188911E0,3.160320520E0,8.353343964E0
1.158015339E1,3.284149170E-1,2.982653379E0,8.669795036E0
1.160026298E1,-7.477571070E-2,2.761317253E0,9.298508644E0
1.162037251E1,-1.992024779E-1,2.667997360E0,9.600004196E0
1.164048209E1,4.007977992E-2,2.813361168E0,9.232706070E0
1.166059162E1,3.200400174E-1,3.127419233E0,8.295317650E0
1.168070121E1,4.295116663E-1,3.468994617E0,7.237092018E0
1.170081079E1,3.990031779E-1,3.698705673E0,6.662216663E0
1.172092032E1,4.007977843E-1,3.846462488E0,6.637690067E0
1.174102990E1,3.050848842E-1,3.884149313E0,7.057630539E0
1.176113949E1,1.986042857E-1,3.833301783E0,7.704290867E0
1.178124902E1,1.280160099E-1,3.835096598E0,8.417351723E0
1.180135860E1,9.332008660E-2,3.909872293E0,8.471190453E0
1.182146813E1,4.785645381E-2,4.248456478E0,7.941180229E0
1.184157772E1,1.214357466E-1,4.718048096E0,7.496115208E0
1.186168730E1,3.158525825E-1,5.041677475E0,7.717451096E0
1.188179683E1,5.341976285E-1,5.181657314E0,8.601598740E0
1.190190642E1,4.271188378E-1,5.347360611E0,9.431310654E0
1.192201600E1,2.045863420E-1,5.537590027E0,9.521639824E0
1.194212553E1,1.351944804E-1,5.742176056E0,8.872586250E0
1.196223511E1,8.614161611E-2,6.040082455E0,8.535796165E0
1.198234470E1,1.782652885E-1,5.994618893E0,9.146564484E0
1.200245423E1,-1.651047617E-1,6.021538258E0,1.043210888E1
1.202256381E1,-3.649054468E-1,6.080760479E0,1.149153042E1
1.204267334E1,2.913261652E-1,5.511867046E0,1.227458191E1
1.206278292E1,3.930211067E-1,5.286941528E0,1.276929760E1
1.208289251E1,7.920243144E-1,4.559523582E0,1.270947742E1
1.210300204E1,1.304686546E0,3.135195971E0,1.235354519E1
1.212311162E1,7.004988194E-1,2.352144718E0,1.164347458E1
1.214322121E1,-5.282155871E-1,2.228914261E0,1.024546814E1
1.216333074E1,-1.391426325E0,2.487339020E0,8.829515457E0
1.218344032E1,-1.768894196E0,2.943770170E0,7.859824181E0
1.220354985E1,-1.204187989E0,3.241676569E0,7.606783390E0
1.222365944E1,-3.714857101E-1,3.179463148E0,7.917850018E0
1.224376902E1,2.183450609E-1,3.087339401E0,8.151150703E0
1.226387855E1,2.799602449E-1,2.983251572E0,8.034500122E0
1.228398813E1,-7.537391037E-2,2.930011272E0,7.736593723E0
1.230409772E1,-2.991028428E-1,3.013760090E0,7.345965385E0
1.232420725E1,-2.937189937E-1,3.160918713E0,6.896713257E0
1.234431683E1,-2.153540403E-2,3.385843992E0,6.570092678E0
1.236442642E1,4.983053207E-1,3.667598963E0,6.495316982E0
1.238453595E1,8.338986635E-1,3.896711588E0,6.650850773E0
1.240464553E1,7.782655358E-1,4.163511276E0,6.911069870E0
1.242475511E1,6.047859192E-1,4.293920040E0,7.336992264E0
1.244486464E1,4.977070987E-1,4.332205296E0,7.999206066E0
1.246497423E1,3.254238665E-1,4.538586140E0,8.625527382E0
1.248508381E1,3.667000830E-1,4.878366947E0,8.898308754E0
1.250519334E1,4.247260094E-1,5.260022163E0,8.744570732E0
1.252530292E1,3.762713671E-1,5.676373482E0,8.397012711E0
1.254541251E1,2.859423161E-1,5.866602898E0,8.337790489E0
1.256552204E1,2.715853751E-1,5.874977589E0,9.063413620E0
1.258563162E1,6.490531564E-1,5.612365723E0,1.032921696E1
1.260574115E1,1.421934843E0,5.301896572E0,1.181456184E1
1.262585074E1,1.676770449E0,5.402395248E0,1.267717457E1
1.264596032E1,7.938188910E-1,6.092126369E0,1.146281719E1
1.266606990E1,1.574477315E0,5.233103275E0,9.579067230E0
1.268617944E1,2.519043922E0,3.649652719E0,9.041878700E0
1.270628902E1,7.752745152E-1,2.644667149E0,9.801599503E0
1.272639855E1,-1.192822099E0,2.381456852E0,1.042911720E1
1.274650813E1,-1.479960799E0,2.503490686E0,1.089631653E1
1.276661772E1,2.327020019E-1,2.722434044E0,1.119242764E1
1.278672730E1,2.181057930E0,2.969492912E0,1.119003487E1
1.280683683E1,3.136392355E0,3.288934708E0,1.102313614E1
1.282694642E1,2.667398930E0,3.538386583E0,1.044646549E1
1.284705600E1,1.460219979E0,3.649652719E0,9.171091080E0
1.286716553E1,7.136593461E-1,3.501895905E0,8.246265411E0
1.288727511E1,5.706881881E-1,3.211168051E0,7.796414375E0
1.290738470E1,4.283152521E-1,3.001796007E0,7.572087288E0
1.292749423E1,1.453639716E-1,2.929413080E0,7.355536938E0
1.294760381E1,6.340979785E-2,3.017947674E0,6.948158741E0
1.296771339E1,4.666004330E-2,3.233899832E0,6.646064758E0
1.298782293E1,1.088734269E-1,3.388834953E0,6.936194420E0
1.300793251E1,1.166501045E-1,3.457030535E0,7.545766354E0
1.302804209E1,1.734796353E-2,3.450450182E0,8.026124954E0
1.304815162E1,-1.734796464E-1,3.518047571E0,8.072785378E0
1.306826121E1,-1.076770201E-1,3.770490170E0,7.646264553E0
1.308837079E1,5.084748194E-2,4.221537113E0,7.215556622E0
1.310848032E1,8.973085321E-3,4.643272400E0,7.037889481E0
1.312858990E1,-5.383851007E-2,4.984847546E0,7.107879639E0
1.314869949E1,-3.906283081E-1,5.432903767E0,7.471588612E0
1.316880902E1,-7.902296782E-1,5.802595139E0,8.093124390E0
1.318891860E1,-1.034297585E0,5.787041664E0,9.111868858E0
1.320902819E1,-1.080359459E0,5.684150219E0,1.023350430E1
1.322913772E1,-7.854440212E-1,5.753541946E0,1.098126125E1
1.324924730E1,-1.686939895E-1,5.656034470E0,1.110748291E1
1.326935688E1,4.366901144E-2,5.409573555E0,1.118764210E1
1.328946642E1,-9.050851464E-1,5.598606586E0,1.125523949E1
1.330957600E1,-1.565504193E0,5.815755367E0,1.089990520E1
1.332968558E1,-1.387837082E-1,5.073382378E0,1.125284672E1
1.334979511E1,8.303094506E-1,4.118646145E0,1.228295708E1
1.336990470E1,3.655036688E-1,3.323032379E0,1.219621658E1
1.339001428E1,-5.276173949E-1,2.998206854E0,1.092024422E1
1.341012386E1,-6.400800347E-1,3.038286448E0,9.469595909E0
1.343023339E1,1.704886109E-1,2.962912560E0,8.660223007E0
1.345034298E1,7.351947427E-1,2.930609465E0,9.229715347E0
1.347045256E1,8.434699774E-1,2.617149830E0,1.010010433E1
1.349056209E1,3.242274821E-1,2.384447813E0,1.060798073E1
1.351067168E1,-6.460621208E-2,2.340778828E0,1.039023399E1
1.353078126E1,-9.571290575E-3,2.565704107E0,9.074779510E0
1.355089079E1,8.315058798E-2,2.946162939E0,7.430312634E0
1.357100037E1,3.403790295E-1,3.291925669E0,5.851647854E0
1.359110996E1,6.933203340E-1,3.518645763E0,5.135595798E0
1.361121954E1,1.106082320E0,3.526422262E0,5.560321808E0
1.363132907E1,1.216152072E0,3.612564087E0,6.345765591E0
1.365143865E1,1.069591761E0,3.743571043E0,6.761518478E0
1.367154824E1,8.853443861E-1,3.772284985E0,6.734001160E0
1.369165777E1,6.364908218E-1,3.878167391E0,6.668796539E0
1.371176735E1,2.560320199E-1,4.256233215E0,6.862615108E0
1.373187694E1,-3.529413417E-2,4.841876507E0,7.459624767E0
1.375198647E1,5.503492057E-2,5.420939922E0,8.024929047E0
1.377209605E1,2.512463629E-1,5.906084538E0,8.102695465E0
1.379220563E1,5.461617708E-1,5.989234924E0,8.014759064E0
1.381231522E1,9.361918569E-1,5.843871117E0,8.166703224E0
1.383242475E1,4.881358147E-1,6.028118610E0,9.265008926E0
1.385253433E1,4.426721856E-2,5.717649937E0,1.110568810E1
1.387264392E1,-6.999006122E-2,5.133800983E0,1.218185997E1
1.389275345E1,1.040877849E-1,5.194219589E0,1.216570854E1
1.391286303E1,-4.157529473E-1,6.440282345E0,1.128275681E1
1.393297261E1,7.992027402E-1,6.384050846E0,1.024786091E1
1.395308220E1,2.336591244E0,5.463412285E0,1.057089233E1
1.397319173E1,2.851646423E0,4.152743816E0,1.214297676E1
1.399330131E1,2.679961443E0,2.458027124E0,1.356371498E1
1.401341089E1,1.229910851E0,1.726421595E0,1.318744373E1
1.403352042E1,8.135596663E-2,2.143370867E0,1.151127148E1
1.405363001E1,1.381855011E-1,2.720041037E0,9.426525116E0
1.407373959E1,1.261615753E0,3.227917671E0,7.885547161E0
1.409384918E1,2.120040894E0,3.436093330E0,6.956533432E0
1.411395871E1,1.651047587E0,3.663411379E0,6.491129398E0
1.413406829E1,5.982056856E-1,3.648456335E0,6.607181549E0
1.415417787E1,1.651047617E-1,3.427120209E0,7.144370079E0
1.417428746E1,9.990034252E-2,3.366103172E0,7.640282631E0
1.419439699E1,1.597209126E-1,3.449851990E0,7.907082558E0
1.421450657E1,3.409772217E-1,3.640679598E0,7.814360619E0
1.423461615E1,3.750749528E-1,3.932005882E0,7.408777237E0
1.425472568E1,3.134597540E-1,4.141975880E0,6.843472958E0
1.427483527E1,2.835494876E-1,4.311866283E0,6.680162430E0
1.429494485E1,5.431707501E-1,4.404588223E0,7.026523590E0
1.431505444E1,7.704889178E-1,4.449453831E0,7.616952896E0
1.433516397E1,6.472585201E-1,4.570889473E0,8.062616348E0
1.435527355E1,4.995017350E-1,4.727021217E0,8.179265976E0
1.437538313E1,4.845465720E-1,4.990829945E0,8.140980721E0
1.439549272E1,4.522434771E-1,5.350351334E0,8.131409645E0
1.441560225E1,4.265206456E-1,5.748756409E0,8.156534195E0
1.443571183E1,3.505485058E-1,5.988038540E0,8.401798248E0
1.445582142E1,1.399801224E-1,5.984449387E0,9.058030128E0
1.447593095E1,-6.101697683E-2,5.810371399E0,9.923633575E0
1.449604053E1,-1.411765367E-1,5.527420521E0,1.067916775E1
1.451615011E1,-3.690928817E-1,5.419743061E0,1.101476097E1
1.453625970E1,-7.561319470E-1,5.844469070E0,1.069771194E1
1.455636928E1,-9.786644578E-1,6.387639999E0,1.005464077E1
1.457647881E1,-8.853443712E-2,5.939583778E0,1.050329494E1
1.459658839E1,5.294120312E-1,4.962714195E0,1.187797165E1
1.461669798E1,5.419743061E-1,3.981656790E0,1.261256790E1
1.463680751E1,5.443671346E-2,3.224926710E0,1.183849049E1
1.465691709E1,-4.755735099E-1,3.173480988E0,1.024845982E1
1.467702668E1,-1.039681435E0,3.456432343E0,8.662017822E0
1.469713626E1,-1.047458172E0,3.691527128E0,7.630113125E0
1.471724584E1,-4.713860750E-1,3.867399693E0,7.744968891E0
1.473735537E1,6.400800347E-1,3.621536970E0,8.288139343E0
1.475746496E1,1.181456208E0,3.272184849E0,8.792427063E0
1.477757454E1,1.045065284E0,3.095714331E0,9.083154678E0
1.479768412E1,6.233302951E-1,3.127419233E0,8.558527946E0
1.481779365E1,2.452643216E-2,3.212962627E0,7.593024254E0
1.483790324E1,-2.554338276E-1,3.420539856E0,6.728617191E0
1.485801282E1,-1.058823988E-1,3.697509289E0,6.083751678E0
1.487812240E1,3.314059377E-1,3.959523201E0,5.787639618E0
1.489823194E1,6.442674994E-1,4.214358807E0,5.762515068E0
1.491834152E1,6.275177598E-1,4.405784607E0,5.998208046E0
1.493845110E1,4.827519655E-1,4.457828522E0,6.727420807E0
1.495856068E1,3.792623878E-1,4.556532383E0,7.676175117E0
1.497867022E1,3.278166950E-1,4.854438782E0,8.293522835E0
1.499877980E1,3.278166950E-1,5.091926575E0,8.251050949E0
1.501888938E1,2.542374134E-1,5.266004562E0,7.919046402E0
1.503899897E1,3.876372576E-1,5.452046394E0,8.039285660E0
1.505910850E1,7.076773047E-1,5.503491879E0,8.756534576E0
1.507921808E1,7.734799385E-1,5.520840168E0,9.369695663E0
1.509932766E1,6.089733839E-1,5.718846321E0,9.626923561E0
1.511943725E1,4.815555513E-1,5.912664890E0,9.418149948E0
1.513954678E1,7.878368497E-1,5.949753284E0,9.058030128E0
1.515965636E1,1.747956991E0,5.658427238E0,9.567701340E0
1.517976595E1,2.121237278E0,5.161318302E0,1.093998528E1
1.519987553E1,7.902296782E-1,5.501099110E0,1.201496029E1
1.521998506E1,1.215553880E0,4.988437176E0,1.217827129E1
1.524009464E1,2.593221426E0,4.410570145E0,1.213520050E1
1.526020423E1,2.241476536E0,4.624129772E0,1.132941723E1
1.528031381E1,1.930409670E0,4.365705013E0,9.704689980E0
1.530042339E1,2.006979942E0,4.267599106E0,8.397610664E0
1.532053292E1,2.202593327E0,3.838685751E0,8.502297401E0
1.534064251E1,1.716252089E0,3.125026464E0,9.704689980E0
1.536075209E1,1.232303619E0,2.821137905E0,1.029930687E1
1.538086168E1,9.690931439E-1,3.035893679E0,9.762118340E0
1.540097121E1,8.123632669E-1,3.482753277E0,8.560921669E0
1.542108079E1,7.986045480E-1,3.719642878E0,7.558926582E0
1.544119037E1,8.267202377E-1,3.714258909E0,6.973283291E0
1.546129996E1,5.347958803E-1,3.778266907E0,6.720242500E0
1.548140954E1,2.901297510E-1,3.701098442E0,6.565307140E0
1.550151907E1,1.393819153E-1,3.704089403E0,6.519843578E0
1.552162865E1,1.100698411E-1,3.786043644E0,6.796214581E0
1.554173824E1,3.469592929E-1,3.802793503E0,7.194619656E0
1.556184782E1,5.018945336E-1,3.918246984E0,7.642077446E0
1.558195735E1,3.870390654E-1,4.092324734E0,7.952546120E0
1.560206694E1,1.333998591E-1,4.340580463E0,8.109873772E0
1.562217652E1,7.836493850E-2,4.677370071E0,7.992027760E0
1.564228610E1,2.650051117E-1,4.984249592E0,7.935796261E0
1.566239569E1,3.110669553E-1,5.208576679E0,8.009375572E0
1.568250522E1,2.207378894E-1,5.432903767E0,8.156534195E0
1.570261480E1,5.383851007E-2,5.614758492E0,8.295916557E0
1.572272438E1,-8.673982322E-2,5.689534187E0,8.781659126E0
1.574283397E1,-1.459621787E-1,5.595615864E0,9.592227936E0
1.576294355E1,-2.919243574E-1,5.416752338E0,1.036032391E1
1.578305308E1,-9.152546525E-2,5.195415974E0,1.076710415E1
1.580316266E1,1.088734269E-1,5.264209747E0,1.080239773E1
1.582327225E1,-1.324427366E0,6.479165554E0,9.963713646E0
1.584338183E1,-1.086939692E0,6.386443615E0,9.431908607E0
1.586349136E1,4.935196638E-1,5.524429321E0,1.026640511E1
1.588360095E1,4.271188378E-1,4.828716278E0,1.203410339E1
1.590371053E1,-4.444667995E-1,3.923630953E0,1.248096275E1
1.592382011E1,-7.339983582E-1,3.348157167E0,1.196231842E1
1.594392964E1,-4.121637046E-1,2.928216696E0,1.130608654E1
1.596403923E1,2.949153781E-1,2.418545485E0,1.098365402E1
1.598414881E1,9.547362328E-1,2.422732830E0,1.096331501E1
1.600425839E1,1.320239902E0,2.527418852E0,1.092921734E1
1.602436798E1,8.434699774E-1,2.556730986E0,1.032861900E1
1.604447756E1,3.948157430E-1,2.651845694E0,9.056833267E0
1.606458709E1,4.007977843E-1,2.860021353E0,7.603193760E0
1.608469668E1,6.125625968E-1,3.044866800E0,6.265007973E0
1.610480626E1,8.147560954E-1,3.289532900E0,5.739185333E0
1.612491584E1,8.410771489E-1,3.322434187E0,5.982056618E0
1.614502542E1,5.653043389E-1,3.376870871E0,6.501298904E0
1.616513496E1,2.297109663E-1,3.563511133E0,6.976872444E0
1.618524454E1,4.474578202E-1,3.774677753E0,7.095317364E0
1.620535412E1,6.592226624E-1,4.091726780E0,7.039684296E0
1.622546371E1,4.606183469E-1,4.313062668E0,7.004390240E0
1.624557329E1,-1.196411345E-2,4.517050743E0,7.069594383E0
1.626568282E1,-2.889333367E-1,4.826921463E0,7.214958668E0
1.628579240E1,-1.932204217E-1,5.109274387E0,7.491329670E0
1.630590199E1,1.686939895E-1,5.330610752E0,7.912466049E0
1.632601157E1,4.336991012E-1,5.653641701E0,8.147561073E0
1.634612115E1,2.859423161E-1,6.054439545E0,8.224729538E0
1.636623068E1,-1.794617064E-2,6.205785751E0,8.179265976E0
1.638634027E1,-1.016949583E-2,6.007779598E0,8.586046219E0
1.640644985E1,5.988038778E-1,5.548357487E0,9.722636223E0
1.642655944E1,2.829512656E-1,6.262016773E0,1.055533886E1
1.644666902E1,6.819544435E-1,6.761518478E0,1.016171932E1
1.646677855E1,3.090928555E0,5.803193092E0,1.039980507E1
1.648688813E1,4.056432724E0,4.466203690E0,1.223031521E1
1.650699772E1,2.706282377E0,3.280559778E0,1.384367561E1
1.652710730E1,4.492524564E-1,2.847458839E0,1.389930820E1
1.654721688E1,-1.692921966E-1,2.953341246E0,1.321615791E1
1.656732647E1,1.429711580E0,2.751147747E0,1.192762280E1
1.658743600E1,2.372483730E0,3.060420275E0,1.043629551E1
1.660754558E1,2.141576290E0,3.350549936E0,8.502297401E0
1.662765516E1,1.487737536E0,3.602992773E0,6.852446079E0
1.664776475E1,1.101894855E0,3.742374659E0,6.357131481E0
1.666787433E1,8.901300430E-1,3.607180119E0,6.617949009E0
1.668798386E1,5.156532526E-1,3.480958700E0,6.976274490E0
1.670809345E1,-1.686939895E-1,3.530609846E0,6.862017155E0
1.672820303E1,-6.669993401E-1,3.668197155E0,6.336792469E0
1.674831261E1,-7.423732281E-1,3.863810301E0,5.980261803E0
1.676842220E1,-4.594219327E-1,4.009772778E0,6.160920143E0
1.678853173E1,-1.226321608E-1,4.106681824E0,6.778268337E0
1.680864131E1,9.332008660E-2,4.298107624E0,7.293323517E0
1.682875089E1,1.298106313E-1,4.540979385E0,7.426125050E0
1.684886048E1,-9.750752151E-2,4.788038254E0,7.604390144E0
1.686897006E1,3.050848842E-2,4.998008251E0,7.915457249E0
1.688907964E1,3.487538993E-1,5.268397331E0,8.114061356E0
1.690918918E1,4.097708762E-1,5.682953835E0,7.905287743E0
1.692929876E1,2.560320199E-1,6.140581131E0,7.556533813E0
1.694940834E1,-1.800599098E-1,6.700501442E0,7.875377655E0
1.696951792E1,-2.057827413E-1,6.873383045E0,8.871988297E0
1.698962751E1,1.016949639E-1,6.835696220E0,9.850054741E0
1.700973709E1,1.890329868E-1,6.737590313E0,1.044048309E1
1.702984668E1,-3.649054468E-2,6.596413612E0,1.090588760E1
1.704995621E1,-7.782655358E-1,7.273582458E0,1.060917759E1
1.707006579E1,-7.070791125E-1,7.456035137E0,9.774680138E0
1.709017537E1,4.917250574E-1,6.501298904E0,1.103749275E1
1.711028496E1,1.217946768E0,4.852046013E0,1.366182041E1
1.713039454E1,7.268198729E-1,3.651447296E0,1.467577934E1
1.715050407E1,-3.828516304E-1,3.339184046E0,1.284048462E1
1.717061365E1,-1.143171072E0,3.960719585E0,9.729815483E0
1.719072324E1,-9.529415965E-1,4.245465755E0,7.395018578E0
1.721083282E1,-6.699903309E-2,3.824927092E0,6.616154671E0
1.723094240E1,3.954139352E-1,3.560520172E0,7.639086246E0
1.725105199E1,3.326023519E-1,3.366701365E0,8.688339233E0
1.727116152E1,-7.357929647E-2,3.125026464E0,8.633902550E0
1.729127110E1,-6.652047038E-1,3.211168051E0,7.882555962E0
1.731138068E1,-4.965106845E-1,3.170490026E0,7.097112179E0
1.733149027E1,-4.546362907E-2,3.193221807E0,6.352943897E0
1.735159985E1,1.495514158E-2,3.345764160E0,5.986244202E0
1.737170944E1,-1.046859920E-1,3.560520172E0,6.111867428E0
1.739181897E1,1.052841991E-1,3.781257868E0,6.194419384E0
1.741192855E1,1.256231871E-2,4.056432724E0,5.880361557E0
1.743203813E1,-8.733802289E-2,4.246063709E0,5.743372440E0
1.745214772E1,1.788634956E-1,4.443471432E0,6.257231236E0
1.747225730E1,4.546363056E-1,4.643272400E0,7.217949390E0
1.749236688E1,4.654040039E-1,4.779663086E0,8.036892891E0
1.751247642E1,3.092723191E-1,4.849653244E0,8.551349640E0
1.753258600E1,3.349951804E-1,4.923830986E0,8.885149002E0
1.755269558E1,3.038884699E-1,5.133202553E0,9.279964447E0
1.757280517E1,1.674975902E-1,5.394618511E0,9.531210899E0
1.759291475E1,2.237289101E-1,5.653641701E0,9.839884758E0
1.761302433E1,8.973084688E-1,5.629115105E0,1.048534870E1
1.763313386E1,2.014158487E0,5.271388054E0,1.138205910E1
1.765324345E1,2.238485575E0,5.146363258E0,1.165065384E1
1.767335303E1,7.531409264E-1,5.838487148E0,1.036451149E1
1.769346261E1,9.397810698E-1,5.600999832E0,9.148359299E0
1.771357220E1,2.478964329E0,4.746163845E0,9.293723106E0
1.773368178E1,2.571087837E0,4.272983074E0,1.033878803E1
1.775379131E1,1.660020709E0,4.013959885E0,1.016829967E1
1.777390089E1,9.014959335E-1,4.089931965E0,9.331410408E0
1.779401048E1,1.418345571E0,3.823730469E0,8.566305161E0
1.781412006E1,2.553740025E0,3.695714474E0,8.909674644E0
1.783422964E1,2.913859844E0,3.803391695E0,9.605388641E0
1.785433923E1,2.224726915E0,3.793820381E0,9.885348320E0
1.787444881E1,9.355936646E-1,3.704687595E0,9.680164337E0
1.789455834E1,1.046859920E-1,3.600001574E0,9.291928291E0
1.791466792E1,-9.332008660E-2,3.481556892E0,8.874381065E0
1.793477751E1,-1.022931710E-1,3.463012457E0,8.200202942E0
1.795488709E1,-1.716850251E-1,3.579064369E0,7.295716286E0
1.797499668E1,-2.213360965E-1,3.709473372E0,6.483353138E0
1.799510626E1,-1.322034448E-1,3.850051641E0,6.120840549E0
1.801521584E1,1.256231871E-2,4.018745422E0,6.382256031E0
1.803532537E1,1.866401732E-1,4.149752617E0,7.036693096E0
1.805543496E1,2.811566591E-1,4.262215137E0,7.639086246E0
1.807554454E1,1.932204217E-1,4.477569580E0,7.961519241E0
1.809565412E1,1.980060786E-1,4.807778835E0,8.088936806E0
1.811576371E1,2.596212626E-1,5.157131195E0,8.036892891E0
1.813587329E1,3.990031779E-1,5.364109993E0,8.007580757E0
1.815598287E1,4.199403822E-1,5.606981754E0,8.136195183E0
1.817609240E1,3.427718580E-1,5.792425632E0,8.562715530E0
1.819620199E1,3.607180119E-1,5.765506268E0,9.076574326E0
1.821631157E1,3.774677813E-1,5.759523869E0,9.796216011E0
1.823642115E1,4.085744619E-1,5.751149178E0,1.051167011E1
1.825653074E1,4.187439568E-3,5.956333637E0,1.062772179E1
1.827664032E1,-1.046261668E0,6.607181549E0,9.845867157E0
1.829674990E1,-9.708877802E-1,6.735197544E0,9.574281693E0
1.831685944E1,4.019941986E-1,6.173482418E0,1.127438164E1
1.833696902E1,1.366301775E0,4.789832592E0,1.403569984E1
1.835707860E1,1.225723386E0,3.540181160E0,1.561017704E1
1.837718818E1,1.962114573E-1,2.595614433E0,1.417567921E1
1.839729777E1,-6.933203340E-1,2.600998163E0,1.111705399E1
1.841740735E1,-9.284151793E-1,2.836691141E0,8.407182693E0
1.843751694E1,-2.739782035E-1,2.953341246E0,7.277770042E0
1.845762647E1,7.788637877E-1,2.947957516E0,7.776075363E0
1.847773605E1,1.195813060E0,2.845664263E0,8.466404915E0
1.849784563E1,8.303094506E-1,2.654238462E0,8.171489716E0
1.851795522E1,2.434697002E-1,2.772683144E0,7.410571575E0
1.853806480E1,6.041877344E-2,2.879163742E0,6.908677101E0
1.855817438E1,2.847459018E-1,3.068794966E0,6.690930367E0
1.857828397E1,5.706881881E-1,3.387040377E0,6.843472958E0
1.859839350E1,8.003991842E-1,3.570689678E0,6.850052834E0
1.861850308E1,6.005984545E-1,3.753142357E0,6.762714863E0
1.863861266E1,2.979064286E-1,3.883551121E0,6.846463680E0
1.865872225E1,2.853440940E-1,4.057629108E0,7.011568546E0
1.867883183E1,3.044866920E-1,4.413561344E0,7.116852760E0
1.869894142E1,3.678964674E-1,4.704887390E0,7.264011383E0
1.871905100E1,4.636093974E-1,4.844269276E0,7.697112083E0
1.873916053E1,4.612165689E-1,4.924428940E0,8.352147102E0
1.875927011E1,5.048855543E-1,5.062016487E0,8.904889107E0
1.877937970E1,5.569294691E-1,5.298905849E0,9.181859016E0
1.879948928E1,5.718846321E-1,5.730212212E0,8.902496338E0
1.881959886E1,7.058826685E-1,6.150152206E0,8.279764175E0
1.883970845E1,1.177268744E0,6.277570248E0,8.024331093E0
1.885981803E1,1.891526341E0,6.049654007E0,8.190631866E0
1.887992756E1,1.926222205E0,6.068796635E0,8.540582657E0
1.890003714E1,1.688734531E0,6.296712875E0,9.253643036E0
1.892014673E1,1.967498422E0,5.997011662E0,1.050748253E1
1.894025631E1,2.306680918E0,5.052444935E0,1.216152096E1
1.896036589E1,2.187638044E0,4.406383038E0,1.321855068E1
1.898047548E1,1.747956991E0,4.204787731E0,1.235055447E1
1.900058506E1,1.728216171E0,4.132404804E0,1.028794098E1
1.902069464E1,2.025524378E0,3.966103554E0,9.072985649E0
1.904080418E1,2.060818434E0,3.385843992E0,9.369096756E0
1.906091376E1,1.598405480E0,2.986840963E0,1.013180923E1
1.908102334E1,1.017547846E0,2.833101988E0,1.014377308E1
1.910113292E1,4.001995921E-1,3.119044304E0,9.360123634E0
1.912124251E1,-1.435693540E-2,3.346362352E0,8.408378601E0
1.914135209E1,-1.716850251E-1,3.428914785E0,7.909475327E0
1.916146168E1,-2.709871531E-1,3.487539053E0,7.689335346E0
1.918157121E1,-7.836493850E-2,3.446262836E0,7.673782349E0
1.920168079E1,-8.793623000E-2,3.530609846E0,7.498507977E0
1.922179037E1,-4.247260094E-2,3.666402578E0,6.918248653E0
1.924189996E1,5.982056726E-3,3.973282099E0,6.346364021E0
1.926200954E1,2.051845491E-1,4.151547432E0,6.041278839E0
1.928211912E1,3.242274821E-1,4.277768612E0,6.279364586E0
1.930222871E1,2.021935135E-1,4.369294167E0,7.039684296E0
1.932233829E1,5.443671346E-2,4.454837322E0,7.899903774E0
1.934244782E1,1.286142170E-1,4.689334393E0,8.472985268E0
1.936255740E1,6.215356588E-1,4.878965378E0,8.694320679E0
1.938266699E1,8.153542876E-1,4.992624283E0,8.547162056E0
1.940277657E1,5.850451589E-1,5.200201988E0,8.530412674E0
1.942288615E1,1.411765367E-1,5.341378212E0,8.904889107E0
1.944299574E1,-9.571290761E-2,5.474778175E0,9.116056442E0
1.946310532E1,-2.392822690E-2,5.632704735E0,9.105886459E0
1.948321485E1,1.555334777E-1,5.583651543E0,9.177073479E0
1.950332444E1,2.321037948E-1,5.495117188E0,9.480961800E0
1.952343402E1,3.050848842E-2,5.549553871E0,9.966106415E0
1.954354360E1,-7.686942816E-1,6.184848309E0,9.756135941E0
1.956365318E1,-7.627122402E-1,6.275775433E0,9.387042999E0
1.958376277E1,-8.075776696E-2,5.833701611E0,1.028495026E1
1.960387235E1,6.927221417E-1,5.132006168E0,1.209452248E1
1.962398188E1,1.831705689E0,3.890729666E0,1.345484161E1
1.964409147E1,1.981257200E0,2.775674343E0,1.313181114E1
1.966420105E1,5.455635786E-1,2.694916487E0,1.074556828E1
1.968431063E1,-8.159525394E-1,3.260220766E0,8.385646820E0
1.970442022E1,-4.929214716E-1,3.626322746E0,7.869395256E0
1.972452980E1,7.824530005E-1,3.449851990E0,9.330213547E0
1.974463938E1,1.033699393E0,3.081955671E0,1.063669491E1
1.976474892E1,-1.734796353E-2,2.933002472E0,1.057627583E1
1.978485850E1,-8.027920127E-1,2.977269650E0,9.254241943E0
1.980496808E1,-8.356932998E-1,3.322434187E0,7.931608677E0
1.982507767E1,-3.708875179E-1,3.638885021E0,6.859624386E0
1.984518725E1,2.219343036E-1,3.939184189E0,6.306283951E0
1.986529683E1,6.891329288E-1,4.082753658E0,6.487540245E0
1.988540642E1,9.517452121E-1,4.106083870E0,7.027719975E0
1.990551600E1,8.709874153E-1,4.218546391E0,7.648059368E0
1.992562553E1,7.453642488E-1,4.221537113E0,8.184649467E0
1.994573511E1,5.341976285E-1,4.306482315E0,8.449654579E0
1.996584470E1,8.195417374E-2,4.372883320E0,8.184649467E0
1.998595428E1,-1.417747438E-1,4.475176334E0,7.671389580E0
2.000606386E1,-1.148554832E-1,4.770689964E0,7.426125050E0
2.002617345E1,1.339980662E-1,4.919044971E0,7.603792191E0
2.004628303E1,3.296113312E-1,5.052444935E0,7.970492363E0
2.006639261E1,3.200400174E-1,5.252245903E0,8.209774017E0
2.008650214E1,1.076770201E-1,5.534598827E0,7.975875854E0
2.010661173E1,-4.007977992E-2,5.913262844E0,7.611568928E0
2.012672131E1,3.002992272E-1,6.040680885E0,7.672585964E0
2.014683089E1,8.685946465E-1,5.998806477E0,8.121838570E0
2.016694048E1,1.508076429E0,5.722435474E0,8.653044701E0
2.018705006E1,1.917249203E0,5.386243820E0,9.329615593E0
2.020715964E1,1.369292736E0,5.535196781E0,1.009531879E1
2.022726918E1,-2.883351147E-1,6.738188744E0,9.968499184E0
2.024737876E1,8.997012973E-1,6.072385788E0,9.617352486E0
2.026748834E1,2.946162939E0,4.724628448E0,1.055354404E1
2.028759792E1,3.382254839E0,3.906282902E0,1.135095215E1
2.030770751E1,2.046461582E0,3.696312666E0,1.095912743E1
2.032781709E1,7.597211599E-1,3.806382656E0,9.754940033E0
2.034792668E1,6.113662124E-1,4.073182583E0,8.905488014E0
2.036803621E1,1.446461320E0,3.997808456E0,8.730812073E0
2.038814579E1,1.995015860E0,3.800400496E0,8.873184204E0
2.040825537E1,1.716850281E0,3.670589924E0,8.823533058E0
2.042836496E1,9.296116233E-1,3.749552965E0,8.622536659E0
2.044847454E1,6.652047038E-1,3.906881094E0,8.307282448E0
2.046858412E1,8.895317912E-1,3.985246181E0,8.062017441E0
2.048869371E1,7.830511928E-1,3.963710785E0,8.060821533E0
2.050880329E1,5.647061467E-1,3.854238987E0,8.085946083E0
2.052891282E1,2.697907388E-1,3.894318819E0,7.800003529E0
2.054902240E1,-6.101697683E-2,4.131806374E0,7.244270325E0
2.056913199E1,-7.178468257E-2,4.333401680E0,6.866204739E0
2.058924157E1,7.657032460E-2,4.449453831E0,7.015756130E0
2.060935115E1,1.914258152E-1,4.427918434E0,7.637291908E0
2.062946074E1,1.304088384E-1,4.357928276E0,8.354539871E0
2.064957027E1,7.597211748E-2,4.485944271E0,8.601000786E0
2.066967985E1,2.931207716E-1,4.734797955E0,8.331210136E0
2.068978944E1,3.792623878E-1,5.063212872E0,7.745566845E0
2.070989902E1,1.471585929E-1,5.425725460E0,7.229315281E0
2.073000860E1,-1.142572835E-1,5.610570908E0,7.286144733E0
2.075011818E1,-4.139583111E-1,5.626124382E0,8.277371407E0
2.077022777E1,-3.290131092E-1,5.310869694E0,9.553344727E0
2.079033735E1,-1.543370634E-1,5.158327579E0,1.073240757E1
2.081044688E1,1.441675574E-1,4.953142643E0,1.111226845E1
2.083055647E1,-2.261217386E-1,5.275575638E0,1.048953629E1
2.085066605E1,-1.923231244E0,6.828517437E0,9.135796547E0
2.087077563E1,-1.487139225E0,6.879963398E0,8.748159409E0
2.089088522E1,2.781656384E-1,5.606981754E0,1.081017494E1
2.091099480E1,1.535593987E0,3.859622955E0,1.378445339E1
2.093110438E1,1.042074203E0,2.812762976E0,1.520519161E1
2.095121392E1,-6.005984545E-1,2.682354212E0,1.323470211E1
2.097132350E1,-1.244866014E0,3.346362352E0,9.941579819E0
2.099143308E1,-7.830511928E-1,3.723232031E0,7.613363266E0
2.101154266E1,4.851447940E-1,3.335594654E0,7.076773167E0
2.103165225E1,7.357929349E-1,3.157927752E0,8.227720261E0
2.105176183E1,3.595215976E-1,2.998206854E0,8.968897820E0
2.107187142E1,1.016949639E-1,2.944368362E0,8.571688652E0
2.109198100E1,-1.794617064E-2,3.187838078E0,7.516454220E0
2.111209053E1,1.016949639E-1,3.300898790E0,6.933203697E0
2.113220011E1,2.183450609E-1,3.390031576E0,6.942774773E0
2.115230970E1,5.264210105E-1,3.352344513E0,7.482954502E0
2.117241928E1,6.687939167E-1,3.460021496E0,7.848458290E0
2.119252886E1,5.006981492E-1,3.646063566E0,7.737192154E0
2.121263845E1,5.581258535E-1,3.674777269E0,7.509275436E0
2.123274803E1,6.508477330E-1,3.865604877E0,7.462615490E0
2.125285756E1,3.619144261E-1,4.169493675E0,7.179664135E0
2.127296714E1,8.973085321E-3,4.485345840E0,6.776473522E0
2.129307673E1,1.375873089E-1,4.730610371E0,7.006184578E0
2.131318631E1,4.869394004E-1,4.848456860E0,7.907082558E0
2.133329589E1,5.054838061E-1,4.952544689E0,8.641678810E0
2.135340548E1,3.619144261E-1,5.053641319E0,8.935996056E0
2.137351506E1,3.918247223E-1,5.196612358E0,9.103493690E0
2.139362459E1,4.941178858E-1,5.356931686E0,9.513264656E0
2.141373418E1,6.436693072E-1,5.365904808E0,9.924231529E0
2.143384376E1,8.668000102E-1,5.327021599E0,1.014676476E1
2.145395334E1,1.333998680E0,5.118845940E0,1.016710377E1
2.147406293E1,7.818548083E-1,5.541179180E0,9.935597420E0
2.149417251E1,-2.811566554E-2,6.411568165E0,9.320044518E0
2.151428204E1,1.824527264E0,5.270790100E0,9.652048111E0
2.153439162E1,2.725425005E0,4.746163845E0,1.103210926E1
2.155450121E1,3.040679455E0,3.958925009E0,1.204008579E1
2.157461079E1,2.815155745E0,2.772084951E0,1.206939697E1
2.159472037E1,2.313261271E0,2.754138947E0,1.139821053E1
2.161482996E1,2.027917147E0,3.077169895E0,1.021675491E1
2.163493954E1,2.048854351E0,3.162115097E0,8.934201241E0
2.165504907E1,2.539382935E0,3.275774240E0,8.148757935E0
2.167515865E1,2.319243431E0,3.321835995E0,8.039285660E0
2.169526824E1,9.942178130E-1,3.225524902E0,8.126026154E0
2.171537782E1,-2.255235314E-1,3.214159012E0,8.238488197E0
2.173548740E1,-8.261220455E-1,3.309871912E0,8.400003433E0
2.175559699E1,-8.183453679E-1,3.337389469E0,8.475975990E0
2.177570657E1,-3.888336718E-1,3.410968781E0,8.460422516E0
2.179581610E1,-6.041877344E-2,3.616751432E0,8.018946648E0
2.181592568E1,-4.307080805E-2,3.836292982E0,7.309474945E0
2.183603527E1,7.716853172E-2,3.972683907E0,7.087540627E0
2.185614485E1,3.487538993E-1,4.038486481E0,7.304689407E0
2.187625444E1,6.436693072E-1,4.128815651E0,7.588837147E0
2.189636402E1,8.309076428E-1,4.258625984E0,7.704888821E0
2.191647360E1,9.355936646E-1,4.382454872E0,7.862216949E0
2.193658313E1,9.780662656E-1,4.509274483E0,8.196015358E0
2.195669272E1,9.942178130E-1,4.499702930E0,8.573483467E0
2.197680230E1,8.303094506E-1,4.545764923E0,8.876773834E0
2.199691188E1,5.551348329E-1,4.738985062E0,9.126225471E0
2.201702147E1,3.182454109E-1,4.965705395E0,9.327820778E0
2.203713105E1,1.513460279E-1,5.128417015E0,9.483952522E0
2.205724058E1,2.261217386E-1,5.099703312E0,9.575477600E0
2.207735017E1,2.991028428E-1,5.040481091E0,9.780662537E0
2.209745975E1,2.859423161E-1,4.963910580E0,9.904491425E0
2.211756933E1,1.136590764E-1,5.048257351E0,9.781859398E0
2.213767892E1,-9.361918569E-1,6.046064377E0,9.331410408E0
2.215778850E1,-5.282155871E-1,6.004190445E0,9.429515839E0
2.217789803E1,3.559323549E-1,5.388038158E0,1.071087265E1
2.219800761E1,-9.391828626E-2,5.541179180E0,1.180259800E1
2.221811720E1,4.654040039E-1,4.421338081E0,1.244327641E1
2.223822678E1,1.423131227E0,2.643470764E0,1.310130215E1
2.225833636E1,5.216353536E-1,1.986042738E0,1.264786243E1
2.227844595E1,-1.077966571E0,2.216351986E0,1.055474091E1
2.229855548E1,-1.973480463E0,2.961716175E0,8.697312355E0
2.231866506E1,-9.649057388E-1,3.336791277E0,7.938787460E0
2.233877464E1,1.000798106E0,3.309871912E0,8.626724243E0
2.235888423E1,2.052443504E0,2.991028309E0,9.294919968E0
2.237899381E1,1.616351724E0,2.803191662E0,9.180662155E0
2.239910339E1,1.884347796E-1,2.888735056E0,8.119445801E0
2.241921292E1,-6.873382926E-1,3.190230846E0,7.269993305E0
2.243932251E1,-7.369893789E-1,3.485146284E0,6.955935478E0
2.245943209E1,-2.333002165E-2,3.738785267E0,7.269395351E0
2.247954168E1,8.668000102E-1,3.858426571E0,7.695317745E0
2.249965126E1,1.307079315E0,3.940380573E0,7.582854748E0
2.251976084E1,1.368694544E0,4.091128349E0,7.296314240E0
2.253987037E1,1.347159147E0,4.130012035E0,7.305287361E0
2.255997996E1,1.058225870E0,4.133002758E0,7.763513088E0
2.258008954E1,6.281159520E-1,4.135993958E0,8.257631302E0
2.260019912E1,3.254238665E-1,4.211966038E0,8.365905762E0
2.262030871E1,2.877369225E-1,4.459623337E0,7.987840176E0
2.264041829E1,5.186443329E-1,4.767100811E0,7.442276478E0
2.266052782E1,8.578268886E-1,4.890331268E0,7.311867714E0
2.268063740E1,9.433703423E-1,4.915455818E0,7.751548767E0
2.270074699E1,8.285148144E-1,4.957928658E0,8.239086151E0
2.272085657E1,6.263213158E-1,5.100899696E0,8.432905197E0
2.274096615E1,5.820540786E-1,5.130809784E0,8.425726891E0
2.276107574E1,6.795616150E-1,5.182255745E0,8.500502586E0
2.278118527E1,9.870393276E-1,5.056632519E0,9.010173798E0
2.280129485E1,1.296909928E0,4.761118889E0,9.878767967E0
2.282140444E1,6.951149702E-1,5.097908497E0,1.052183914E1
2.284151402E1,-5.581258535E-1,6.380461693E0,1.018564796E1
2.286162360E1,1.135992527E0,6.102894306E0,1.038305569E1
2.288173313E1,3.326023579E0,5.578267574E0,1.168654537E1
2.290184272E1,4.636692047E0,4.527220249E0,1.252343559E1
2.292195230E1,4.492524624E0,2.961716175E0,1.241097260E1
2.294206188E1,2.794816732E0,1.945364833E0,1.173021507E1
2.296217147E1,4.325026870E-1,2.206780672E0,1.033160973E1
2.298228105E1,-1.144367456E0,2.964707375E0,8.815158844E0
2.300239058E1,-1.666600943E0,3.798007727E0,7.323233604E0
2.302250016E1,-1.758724600E-1,4.299304008E0,6.448058605E0
2.304260975E1,2.001596212E0,4.234697819E0,6.787839413E0
2.306271933E1,2.941975355E0,3.884747505E0,7.600800991E0
2.308282892E1,1.679761529E0,3.616751432E0,8.628518105E0
2.310293845E1,1.926222295E-1,3.092125177E0,9.001798630E0
2.312304803E1,-6.550351977E-1,3.018545866E0,9.422935486E0
2.314315761E1,-3.559323549E-1,3.203989506E0,9.953543663E0
2.316326720E1,8.183453679E-1,3.467200041E0,9.887143135E0
2.318337678E1,1.384247899E0,3.948157310E0,8.935398102E0
2.320348636E1,1.250249863E0,4.141377926E0,7.691728592E0
2.322359589E1,9.326026440E-1,3.985844374E0,7.198806763E0
2.324370548E1,6.448656917E-1,3.693321705E0,7.896913052E0
2.326381506E1,3.278166950E-1,3.459423304E0,9.046066284E0
2.328392464E1,9.571290761E-2,3.402593851E0,9.864411354E0
2.330403423E1,6.580262631E-2,3.523431301E0,1.008814049E1
2.332414376E1,4.504488707E-1,3.711267948E0,9.644271851E0
2.334425334E1,6.747759581E-1,3.931407690E0,8.960522652E0
2.336436293E1,6.305087805E-1,4.047459602E0,8.854042053E0
2.338447251E1,5.880361795E-1,3.890131474E0,9.383454323E0
2.340458209E1,4.504488707E-1,3.811168194E0,9.884750366E0
2.342469162E1,1.992024779E-1,3.943969965E0,9.653244972E0
2.344480121E1,3.236292601E-1,4.083351612E0,9.004191399E0
2.346491079E1,5.551348329E-1,4.290929317E0,8.575876236E0
2.348502037E1,5.174478889E-1,4.408177376E0,8.554939270E0
2.350512996E1,5.144568682E-1,4.186243057E0,9.019146919E0
2.352523954E1,7.537391186E-1,3.894318819E0,9.753145218E0
2.354534907E1,9.098708034E-1,3.774677753E0,1.017129040E1
2.356545865E1,1.265803218E0,3.677170277E0,9.655039787E0
2.358556824E1,9.936196208E-1,4.220340729E0,8.482556343E0
2.360567782E1,8.512466550E-1,3.960121393E0,8.421539307E0
2.362578740E1,8.500502706E-1,3.746562004E0,8.671588898E0
2.364589694E1,7.334001660E-1,3.859024763E0,8.942576408E0
2.366600652E1,7.459624410E-1,3.766901016E0,8.894720078E0
2.368611610E1,5.102694035E-1,3.816552162E0,8.904889107E0
2.370622568E1,4.175475538E-1,3.889533281E0,9.154939651E0
2.372633527E1,5.916253924E-1,3.885345697E0,9.324830055E0
2.374644480E1,7.752745152E-1,3.994219303E0,9.361320496E0
2.376655438E1,8.141579032E-1,3.991826296E0,9.150752068E0
2.378666397E1,7.579265833E-1,4.021138668E0,9.010771751E0
2.380677355E1,6.819544435E-1,4.073780537E0,9.034700394E0
2.382688313E1,5.856433511E-1,4.152145386E0,8.966505051E0
2.384699267E1,6.281159520E-1,4.205385685E0,8.772088051E0
2.386710225E1,7.495517135E-1,4.222135544E0,8.801998138E0
2.388721183E1,7.339983582E-1,4.270590305E0,9.002995491E0
2.390732142E1,6.107679605E-1,4.320839405E0,9.147761345E0
2.392743095E1,6.053841114E-1,4.274777889E0,9.088538170E0
2.394754053E1,5.611169338E-1,4.302295208E0,9.149555206E0
2.396765011E1,4.600201547E-1,4.283152580E0,9.336793900E0
2.398775970E1,3.547359705E-1,4.209573269E0,9.346963882E0
2.400786928E1,3.661018610E-1,4.237689018E0,9.070592880E0
2.402797881E1,5.605186820E-1,4.301696777E0,8.784051895E0
2.404808839E1,6.466603279E-1,4.327419758E0,8.693722725E0
2.406819798E1,5.736792088E-1,4.375874519E0,8.794819832E0
2.408830756E1,5.503492355E-1,4.366901398E0,8.888737679E0
2.410841709E1,5.443671346E-1,4.326223373E0,8.980263710E0
2.412852668E1,4.983053207E-1,4.297509670E0,9.131011009E0
2.414863626E1,5.635097623E-1,4.281956196E0,9.108279228E0
2.416874584E1,6.604190469E-1,4.317250252E0,8.935398102E0
2.418885542E1,6.687939167E-1,4.369294167E0,8.770891190E0
2.420896496E1,6.275177598E-1,4.425525665E0,8.679366112E0
2.422907454E1,5.509474277E-1,4.419543266E0,8.638090134E0
2.424918412E1,5.210371017E-1,4.369294167E0,8.679366112E0
2.426929371E1,7.022934556E-1,4.290330887E0,9.004789352E0
2.428940324E1,6.209374666E-1,4.273581028E0,9.294919968E0
2.430951282E1,3.326023519E-1,4.280161381E0,9.159725189E0
2.432962240E1,3.188436031E-1,4.293322086E0,8.868997574E0
2.434973199E1,3.906283081E-1,4.415954113E0,8.672187805E0
2.436984157E1,3.684946895E-1,4.399802685E0,8.639286041E0
2.438995110E1,2.757728100E-1,4.338785648E0,8.750552177E0
2.441006068E1,2.793620527E-1,4.347758770E0,8.871390343E0
2.443017027E1,3.397808075E-1,4.370490551E0,8.806185722E0
2.445027985E1,3.367897868E-1,4.460819721E0,8.608179092E0
2.447038938E1,3.397808075E-1,4.495515347E0,8.414361000E0
2.449049897E1,3.517449200E-1,4.457230568E0,8.489136696E0
2.451060855E1,4.229314029E-1,4.398007870E0,8.801998138E0
2.453071813E1,5.042873621E-1,4.319045067E0,9.203393936E0
2.455082772E1,3.349951804E-1,4.405784607E0,9.412766457E0
2.457093725E1,3.529413342E-1,4.347758770E0,9.204590797E0
2.459104683E1,4.043870270E-1,4.381258488E0,9.400203705E0
2.461115642E1,1.788634956E-1,4.415356159E0,9.093922615E0
2.463126600E1,1.549352705E-1,4.342374802E0,8.690134048E0
2.465137553E1,3.343969584E-1,4.399204254E0,8.803792953E0
2.467148511E1,4.079762697E-1,4.445266247E0,8.951549530E0
2.469159470E1,3.236292601E-1,4.369892120E0,8.870791435E0
2.471170428E1,2.309073806E-1,4.319045067E0,8.736195564E0
2.473181381E1,2.374876440E-1,4.349553585E0,8.706285477E0
2.475192339E1,4.157529473E-1,4.338785648E0,8.950951576E0
2.477203298E1,4.618147612E-1,4.317250252E0,9.198608398E0
2.479214256E1,3.433700502E-1,4.325624943E0,9.179466248E0
2.481225209E1,3.188436031E-1,4.374079704E0,8.981459618E0
2.483236168E1,4.307080805E-1,4.420141697E0,8.770293236E0
2.485247126E1,4.929214716E-1,4.411766529E0,8.761918068E0
2.487258084E1,4.109672904E-1,4.327419758E0,8.879166603E0
2.489269037E1,3.326023519E-1,4.293920040E0,8.982656479E0
2.491279996E1,3.888336718E-1,4.294518471E0,9.007183075E0
2.493290954E1,3.888336718E-1,4.312464714E0,8.928219795E0
2.495301907E1,2.949153781E-1,4.301696777E0,8.846863747E0
2.497312865E1,2.147558331E-1,4.229313850E0,8.905488014E0
2.499323824E1,1.998006850E-1,4.168895245E0,9.033503532E0
2.501334782E1,1.950150430E-1,4.189832687E0,9.091529846E0
2.503345740E1,2.291127741E-1,4.233501434E0,8.955737114E0
2.505356694E1,2.584248483E-1,4.306482315E0,8.822337151E0
2.507367652E1,3.284149170E-1,4.376472473E0,8.785846710E0
2.509378610E1,4.677968323E-1,4.369294167E0,8.773882866E0
2.511389563E1,5.282155871E-1,4.424927235E0,8.889934540E0
2.513400522E1,4.558327198E-1,4.392025948E0,8.959325790E0
2.515411480E1,3.882354796E-1,4.376472473E0,8.926424980E0
2.517422438E1,4.199403822E-1,4.412963390E0,8.925228119E0
2.519433392E1,4.307080805E-1,4.389633179E0,8.934800148E0
2.521444350E1,3.984049559E-1,4.384249210E0,8.927022934E0
2.523455308E1,4.037888348E-1,4.398007870E0,8.914461136E0
2.525466266E1,3.966103494E-1,4.353740692E0,8.885746956E0
2.527477220E1,3.062812984E-1,4.325624943E0,9.000003815E0
2.529488178E1,2.853440940E-1,4.309473515E0,8.909674644E0
2.531499136E1,2.506481707E-1,4.257429600E0,8.808578491E0
2.533510089E1,2.506481707E-1,4.264608383E0,8.813961983E0
2.535521048E1,3.038884699E-1,4.340580463E0,8.867800713E0
2.537532006E1,3.391826153E-1,4.325026989E0,8.976076126E0
2.539542964E1,2.781656384E-1,4.269393921E0,9.100502968E0
2.541553918E1,2.321037948E-1,4.274777889E0,9.037093163E0
2.543564876E1,2.901297510E-1,4.346562386E0,8.864809990E0
2.545575834E1,2.865405083E-1,4.409373760E0,8.845666885E0
2.547586793E1,2.931207716E-1,4.373481750E0,8.936594009E0
2.549597746E1,2.793620527E-1,4.327419758E0,9.062217712E0
2.551608704E1,2.979064286E-1,4.306482315E0,9.060422897E0
2.553619662E1,3.553341627E-1,4.272384644E0,9.114261627E0
2.555630621E1,3.840480447E-1,4.314857483E0,9.218947411E0
2.557641574E1,3.613162339E-1,4.377668858E0,9.112466812E0
2.559652532E1,3.487538993E-1,4.377070904E0,8.911469460E0
2.561663490E1,4.121637046E-1,4.333401680E0,8.867800713E0
2.563674444E1,4.606183469E-1,4.275974274E0,8.952147484E0
2.565685402E1,3.954139352E-1,4.233501434E0,8.935398102E0
2.567696360E1,2.943171859E-1,4.247260094E0,8.810971260E0
2.569707318E1,3.044866920E-1,4.252644062E0,8.816953659E0
2.571718272E1,3.768695593E-1,4.267001152E0,8.927022934E0
2.573729230E1,4.013960063E-1,4.266402721E0,8.994620323E0
2.575740188E1,3.655036688E-1,4.253840446E0,8.949156761E0
2.577751142E1,3.337987661E-1,4.274777889E0,8.899505615E0
2.579762100E1,3.445664644E-1,4.335794449E0,8.875576973E0
2.581773058E1,3.780659735E-1,4.354937077E0,8.915657043E0
2.583784017E1,3.912265003E-1,4.338187218E0,8.918049812E0
2.585794970E1,3.499503136E-1,4.342973232E0,8.903693199E0
2.587805928E1,3.415754437E-1,4.350151539E0,8.827720642E0
2.589816886E1,2.889333367E-1,4.341178417E0,8.812167168E0
2.591827845E1,3.451646566E-1,4.350749969E0,8.755337715E0
2.593838798E1,3.122633696E-1,4.341776848E0,8.690134048E0
2.595849756E1,2.560320199E-1,4.365106583E0,8.651848793E0
2.597860714E1,2.512463629E-1,4.412364960E0,8.734998703E0
2.599871668E1,3.140579760E-1,4.375874519E0,8.913264275E0
2.601882626E1,3.050848842E-1,4.310669899E0,9.092725754E0
2.603893584E1,2.219343036E-1,4.280161381E0,9.093922615E0
2.605904537E1,1.860419661E-1,4.291527271E0,9.038887978E0
2.607915496E1,1.866401732E-1,4.311268330E0,9.023932457E0
2.609926454E1,3.230310678E-1,4.282554150E0,8.964710236E0
2.611937407E1,3.379862010E-1,4.335196495E0,8.897112846E0
2.613948365E1,3.062812984E-1,4.342374802E0,8.828917503E0
2.615959324E1,2.823530734E-1,4.349553585E0,8.868997574E0
2.617970282E1,2.530409992E-1,4.351946354E0,8.919844627E0
2.619981235E1,2.374876440E-1,4.314857483E0,8.997611046E0
2.621992194E1,2.715853751E-1,4.308277130E0,9.036494255E0
2.624003152E1,2.428714931E-1,4.298706055E0,8.940781593E0
2.626014105E1,2.195414752E-1,4.341776848E0,8.891130447E0
2.628025063E1,2.081755698E-1,4.359124660E0,8.834300995E0
2.630036022E1,1.998006850E-1,4.360321045E0,8.801998138E0
2.632046975E1,2.021935135E-1,4.357329845E0,8.827720642E0
2.634057933E1,2.416750938E-1,4.306482315E0,8.916853905E0
2.636068892E1,2.321037948E-1,4.304687977E0,8.943174362E0
2.638079850E1,2.638086975E-1,4.313062668E0,8.945567131E0
2.640090803E1,3.080759048E-1,4.320839405E0,9.019744873E0
2.642101761E1,2.763710022E-1,4.341776848E0,9.018548965E0
2.644112720E1,2.566302419E-1,4.336990833E0,8.892327309E0
2.646123673E1,2.536391914E-1,4.331008911E0,8.845666885E0
2.648134631E1,2.973082066E-1,4.329812527E0,8.818747520E0
2.650145589E1,3.631108403E-1,4.339384079E0,8.824729919E0
2.652156543E1,3.589234054E-1,4.332803726E0,8.802596092E0
2.654167501E1,3.337987661E-1,4.383052826E0,8.711668968E0
2.656178459E1,3.846462369E-1,4.425525665E0,8.809176445E0
2.658189412E1,3.954139352E-1,4.374079704E0,9.101698875E0
2.660200371E1,2.889333367E-1,4.262813568E0,9.186046600E0
2.662211329E1,2.039881349E-1,4.238885403E0,9.035896301E0
2.664222287E1,2.303091735E-1,4.283152580E0,8.893523216E0
2.666233240E1,2.524427772E-1,4.267001152E0,8.882756233E0
2.668244199E1,2.362912297E-1,4.236492634E0,9.078967094E0
2.670255157E1,3.266202807E-1,4.202394962E0,9.176474571E0
2.672266110E1,3.463610709E-1,4.252644062E0,9.085547447E0
2.674277068E1,3.571287692E-1,4.313062668E0,8.825327873E0
2.676288027E1,3.589234054E-1,4.357928276E0,8.624331474E0
2.678298980E1,3.529413342E-1,4.392624378E0,8.679964066E0
2.680309938E1,3.816552162E-1,4.391427994E0,8.904291153E0
2.682320897E1,3.421736360E-1,4.360919476E0,9.103493690E0
2.684331850E1,2.327020019E-1,4.290330887E0,9.096315384E0
2.686342808E1,2.099701911E-1,4.318446636E0,9.029914856E0
2.688353767E1,2.662015259E-1,4.334598064E0,9.075378418E0
2.690364720E1,3.092723191E-1,4.323830605E0,9.113663673E0
2.692375678E1,2.877369225E-1,4.314259052E0,9.115457535E0
2.694386636E1,2.560320199E-1,4.336392879E0,9.029315948E0
2.696397589E1,2.500499785E-1,4.326821327E0,8.853444099E0
2.698408548E1,3.098705411E-1,4.325624943E0,8.840881348E0
2.700419506E1,3.337987661E-1,4.344767570E0,8.890532494E0
2.702430459E1,2.620140910E-1,4.321437836E0,8.865407944E0
2.704441418E1,2.368894368E-1,4.294518471E0,8.830113411E0
2.706452376E1,3.098705411E-1,4.327419758E0,8.825926781E0
2.708463334E1,4.444667995E-1,4.320839405E0,8.836095810E0
2.710474287E1,4.235295951E-1,4.253242016E0,8.958727837E0
2.712485246E1,2.165504545E-1,4.278964996E0,9.008378983E0
2.714496199E1,2.578266263E-1,4.341178417E0,8.928817749E0
2.716507157E1,3.840480447E-1,4.396213531E0,8.975478172E0
2.718518115E1,4.588237405E-1,4.345366001E0,9.102895737E0
2.720529074E1,3.487538993E-1,4.289134502E0,9.110671997E0
2.722540027E1,2.703889608E-1,4.305285931E0,9.056235313E0
2.724550985E1,2.560320199E-1,4.359723091E0,8.913264275E0
2.726561938E1,2.751746178E-1,4.393820763E0,8.787042618E0
2.728572897E1,2.542374134E-1,4.397409916E0,8.838488579E0
2.730583855E1,2.691925466E-1,4.312464714E0,8.906085968E0
2.732594808E1,2.512463629E-1,4.257429600E0,8.950951576E0
2.734605766E1,2.327020019E-1,4.265804768E0,8.959924698E0
2.736616725E1,2.877369225E-1,4.302295208E0,8.952147484E0
2.738627678E1,1.501496136E-1,4.392025948E0,9.025128365E0
2.740638636E1,1.399801224E-1,4.332205296E0,8.884550095E0
2.742649595E1,1.088734269E-1,4.336990833E0,8.730213165E0
2.744660553E1,1.172483116E-1,4.325624943E0,8.872586250E0
2.746671506E1,1.692921966E-1,4.252644062E0,9.016156197E0
2.748682464E1,4.366901144E-2,4.279563427E0,9.019146919E0
2.750693423E1,4.366901144E-2,4.273581028E0,8.959325790E0
2.752704376E1,1.004985496E-1,4.307679176E0,8.897710800E0
2.754715334E1,2.327020019E-1,4.362115860E0,8.706285477E0
2.756726287E1,3.595215976E-1,4.448855400E0,8.638688087E0
2.758737246E1,2.075773627E-1,4.448257446E0,8.836693764E0
2.760748204E1,1.286142170E-1,4.341178417E0,8.940183640E0
2.762759162E1,7.537391037E-2,4.359124660E0,8.866603851E0
2.764770115E1,1.094716340E-1,4.380660057E0,8.806783676E0
2.766781074E1,1.740778536E-1,4.382454872E0,8.788837433E0
2.768792032E1,1.459621787E-1,4.355535507E0,8.866005898E0
2.770802985E1,8.614161611E-2,4.332803726E0,8.980263710E0
2.772813944E1,1.453639716E-1,4.421338081E0,8.846863747E0
2.774824902E1,2.207378894E-1,4.482355118E0,8.788239479E0
2.776835855E1,2.243271172E-1,4.439284325E0,8.895318031E0
2.778846813E1,1.716850251E-1,4.381258488E0,9.012566566E0
2.780857772E1,1.118644550E-1,4.355535507E0,9.106484413E0
2.782868725E1,1.118644550E-1,4.344169617E0,9.116654396E0
2.784879683E1,2.003988922E-1,4.337589264E0,9.009575844E0
2.786890636E1,2.524427772E-1,4.358526230E0,8.859425545E0
2.788901595E1,3.044866920E-1,4.335196495E0,8.748159409E0
2.790912553E1,3.284149170E-1,4.332803726E0,8.742775917E0
2.792923506E1,2.841476798E-1,4.350151539E0,8.740383148E0
2.794934464E1,2.141576260E-1,4.339982033E0,8.779266357E0
2.796945423E1,2.099701911E-1,4.310669899E0,8.810971260E0
2.798956376E1,2.033899277E-1,4.292125702E0,8.854042053E0
2.800967334E1,1.782652885E-1,4.300500393E0,8.963513374E0
2.802978293E1,1.507478207E-1,4.307080746E0,9.035298347E0
2.804989246E1,2.087737769E-1,4.344767570E0,9.013164520E0
2.807000204E1,2.344966233E-1,4.353740692E0,9.006584167E0
2.809011162E1,1.878365725E-1,4.297509670E0,9.107083321E0
2.811022115E1,1.106680483E-1,4.281956196E0,9.136395454E0
2.813033074E1,9.272187948E-2,4.313062668E0,9.036494255E0
2.815044032E1,1.896311939E-1,4.335196495E0,8.961718559E0
2.817054985E1,1.806581169E-1,4.353740692E0,9.015557289E0
2.819065944E1,1.262213886E-1,4.299902439E0,9.111269951E0
2.821076902E1,1.633101404E-1,4.293920040E0,9.147761345E0
2.823087855E1,2.691925466E-1,4.366901398E0,9.073583603E0
2.825098813E1,3.607180119E-1,4.423730850E0,8.955737114E0
2.827109767E1,4.181457460E-1,4.406383038E0,8.909076691E0
2.829120725E1,2.943171859E-1,4.371088982E0,8.864809990E0
2.831131683E1,1.998006850E-1,4.419543266E0,8.718847275E0
2.833142636E1,2.596212626E-1,4.437489510E0,8.672785759E0
2.835153595E1,2.087737769E-1,4.373481750E0,8.896514893E0
2.837164553E1,1.316052526E-1,4.254438877E0,9.065208435E0
2.839175506E1,1.166501045E-1,4.222135544E0,9.034700394E0
2.841186464E1,7.298108935E-2,4.262813568E0,8.974281311E0
2.843197423E1,9.152546525E-2,4.266402721E0,9.048459053E0
2.845208376E1,1.088734269E-1,4.274179459E0,8.998807907E0
2.847219334E1,1.238285750E-1,4.253840446E0,8.940183640E0
2.849230292E1,1.591227055E-1,4.270590305E0,9.058030128E0
2.851241246E1,2.315055877E-1,4.327419758E0,8.959325790E0
2.853252204E1,2.739782035E-1,4.418945312E0,8.651848793E0
2.855263162E1,2.494517565E-1,4.462016106E0,8.591429710E0
2.857274115E1,2.620140910E-1,4.445266247E0,8.761918068E0
2.859285074E1,2.398804724E-1,4.421936035E0,8.858827591E0
2.861296032E1,2.494517565E-1,4.361517429E0,8.781061172E0
2.863306985E1,2.416750938E-1,4.341776848E0,8.694320679E0
2.865317944E1,2.608176768E-1,4.341178417E0,8.855237961E0
2.867328902E1,3.200400174E-1,4.301696777E0,9.096315384E0
2.869339855E1,2.913261652E-1,4.256233215E0,8.878568649E0
2.871350813E1,2.829512656E-1,4.280759811E0,7.188637257E0
2.873361766E1,6.580262445E-3,4.161716938E0,8.773882866E0
2.875372725E1,5.000999570E-1,3.835694790E0,1.002592659E1
2.877383683E1,4.755735099E-1,4.033700943E0,1.058644581E1
2.879394636E1,3.882354796E-1,4.188635826E0,1.038185883E1
