"Time (s)","Gyroscope x (rad/s)","Gyroscope y (rad/s)","Gyroscope z (rad/s)"
3.475542500E-2,-2.611372061E-2,2.634278871E-2,5.283828825E-2
5.486495600E-2,-4.260659590E-2,1.223985180E-1,3.756710514E-2
7.497448800E-2,-1.496575773E-2,1.642415524E-1,2.825168520E-2
9.508401900E-2,-6.261184346E-3,1.123195365E-1,1.481304597E-2
1.151935500E-1,-1.343864016E-2,1.947075687E-2,5.039489828E-3
1.353031330E-1,9.620844387E-3,3.840702027E-2,-7.024743594E-3
1.554126650E-1,3.436015919E-2,1.324774921E-1,-2.916795574E-2
1.755221960E-1,1.313321572E-2,1.770693511E-1,-3.420744836E-2
1.956317270E-1,-3.420744836E-2,1.683647782E-1,-1.969982497E-2
2.157413100E-1,-6.276455522E-2,1.422510594E-1,-7.788302377E-3
2.358508420E-1,-4.260659590E-2,1.115559787E-1,7.177455351E-3
2.559603730E-1,1.114796288E-2,9.307785332E-2,1.679830020E-3
2.760699040E-1,4.398100078E-2,9.521581978E-2,-9.162709117E-3
2.961794350E-1,3.206948191E-2,1.107924208E-1,-2.748812549E-3
3.162890190E-1,7.635590737E-4,9.399411827E-2,6.566607859E-3
3.363985500E-1,-4.672981426E-2,6.039752439E-2,2.825168520E-2
3.565080810E-1,-1.156028435E-1,-8.933641016E-3,7.589777559E-2
3.766176130E-1,-1.293469071E-1,-1.901262067E-2,9.926267713E-2
3.967271960E-1,-5.848862603E-2,-5.627430230E-2,5.558710173E-2
4.168367270E-1,4.566083103E-2,-6.024480984E-2,-1.175880991E-2
4.369462580E-1,1.096470803E-1,-1.809635013E-2,-6.200099736E-2
4.570557900E-1,1.233911440E-1,2.160872146E-2,-8.536590636E-2
4.771653730E-1,8.750387281E-2,3.894151188E-3,-8.597674966E-2
4.972749040E-1,3.558185324E-2,-6.337540224E-3,-5.467082933E-2
5.173844350E-1,-1.756185852E-2,1.244601328E-2,-1.374406368E-2
5.374939670E-1,-3.481829539E-2,1.519482583E-2,-2.596100792E-3
5.576035500E-1,-1.527118147E-3,9.391776286E-3,-3.710897267E-2
5.777130810E-1,3.817795217E-2,-6.795675959E-3,-6.872031838E-2
5.978226130E-1,4.031591862E-2,-8.170082234E-3,-7.406523079E-2
6.179321440E-1,-2.321219631E-2,1.320957206E-2,-8.811471611E-2
6.380417270E-1,-9.300149232E-2,5.474718660E-2,-8.185353130E-2
6.581512580E-1,-9.407047927E-2,8.131904155E-2,-5.955760926E-2
6.782607900E-1,-3.191677108E-2,8.284615725E-2,-2.519745007E-2
6.983703210E-1,3.405473381E-2,2.893888950E-2,2.748812549E-3
7.184799040E-1,6.291726977E-2,-3.611634299E-2,9.620844387E-3
7.385894350E-1,5.115845799E-2,-5.322006717E-2,1.404948719E-2
7.586989670E-1,1.679829881E-2,-4.039227590E-2,1.053711493E-2
7.788084980E-1,-2.107422985E-2,-3.000787087E-2,-8.093725890E-3
7.989180810E-1,-6.139015034E-2,-5.001311749E-2,-2.000524849E-2
8.190276130E-1,-7.528692484E-2,-7.032378763E-2,-2.351761982E-2
8.391371440E-1,-1.939439960E-2,-1.641651988E-2,-2.580829710E-2
8.592466750E-1,7.742489129E-2,5.841226876E-2,-1.343864016E-2
8.793562580E-1,1.191152185E-1,2.435753495E-2,2.901524538E-3
8.994657900E-1,6.536065787E-2,-2.848075330E-2,-1.679830020E-3
9.195753210E-1,-3.527642787E-2,-1.824906096E-2,-2.046338283E-2
9.396848520E-1,-1.076618284E-1,2.573194169E-2,-3.298575059E-2
9.597944350E-1,-1.246128380E-1,3.962871432E-2,-4.077405483E-2
9.799039670E-1,-1.091889441E-1,4.619532451E-2,-4.917320609E-2
1.000013498E0,-8.872556686E-2,6.207735091E-2,-5.176930502E-2
1.020123081E0,-8.368607610E-2,7.368344814E-2,-3.924693540E-2
1.040232613E0,-1.067455560E-1,6.070294604E-2,-1.389677543E-2
1.060342144E0,-1.181989461E-1,4.665346071E-2,1.618745178E-2
1.080451675E0,-6.184828654E-2,6.146650389E-2,3.069507517E-2
1.100561258E0,1.511846948E-2,6.818582863E-2,2.535016090E-2
1.120670790E0,5.146388337E-2,5.123481527E-2,3.298575059E-2
1.140780321E0,4.123219103E-2,3.993413970E-2,4.474456236E-2
1.160889904E0,1.664558798E-2,5.047125369E-2,5.161659420E-2
1.180999435E0,7.788302377E-3,3.367295489E-2,4.672981426E-2
1.201108967E0,7.635590620E-3,1.382041909E-2,3.145863488E-2
1.221218498E0,9.162708884E-4,1.687465608E-2,2.031067200E-2
1.241328081E0,-1.664558798E-2,3.550549597E-2,2.183778957E-2
1.261437613E0,-3.955236077E-2,4.100312293E-2,3.344388679E-2
1.281547144E0,-5.131116882E-2,3.077143058E-2,4.337015375E-2
1.301656727E0,-4.642439261E-2,1.840177365E-2,3.680354729E-2
1.321766258E0,-2.580829710E-2,1.702736691E-2,2.367033064E-2
1.341875790E0,1.343864016E-2,1.626380906E-2,-6.108472589E-4
1.361985321E0,3.405473381E-2,1.198787708E-2,-2.809897438E-2
1.382094904E0,1.832541823E-2,2.970244735E-2,-1.801999472E-2
1.402204435E0,-2.443389036E-2,5.016583204E-2,-1.832541777E-3
1.422313967E0,-5.436540768E-2,5.306735635E-2,-1.817270555E-2
1.442423550E0,-3.665083647E-2,5.627430230E-2,-3.787253052E-2
1.462533081E0,6.566607859E-3,7.108735293E-2,-4.596625641E-2
1.482642613E0,3.955236077E-2,4.497363046E-2,-3.237490356E-2
1.502752196E0,6.062658876E-2,-7.864658721E-3,1.893626526E-2
1.522861727E0,7.009471953E-2,-4.466820508E-2,4.871506989E-2
1.542971258E0,5.879404768E-2,-4.237752780E-2,3.344388679E-2
1.563080842E0,1.053711493E-2,-5.673243850E-2,3.817795310E-3
1.583190373E0,-5.604523420E-2,-6.956022978E-2,-2.382304333E-2
1.603299904E0,-7.849387079E-2,5.344913807E-4,-3.939964995E-2
1.623409488E0,-4.062134400E-2,5.352549255E-2,-5.238015205E-2
1.643519019E0,1.466033421E-2,3.428380191E-2,-6.306997687E-2
1.663628550E0,5.680879578E-2,-4.046862945E-3,-5.039490014E-2
1.683738081E0,6.612421572E-2,-1.565296017E-2,-3.970507160E-2
1.703847665E0,5.070032179E-2,-1.908897655E-3,-3.634541109E-2
1.723957196E0,2.031067200E-2,8.017370477E-3,-3.283303976E-2
1.744066779E0,-9.926267900E-3,1.687465608E-2,-1.114796288E-2
1.764176310E0,-7.330167107E-3,5.306735635E-2,7.177455351E-3
1.784285842E0,4.718795046E-2,6.589514762E-2,-1.068982761E-3
1.804395425E0,9.116895497E-2,3.352024406E-2,-1.847812906E-2
1.824504956E0,7.269082218E-2,3.588727675E-3,-1.038440317E-2
1.844614488E0,7.024743594E-3,-1.046075951E-2,1.313321572E-2
1.864724019E0,-4.199574888E-2,-1.244601328E-2,3.527642787E-2
1.884833602E0,-5.971032009E-2,-3.061871976E-2,4.001049697E-2
1.904943133E0,-6.215370819E-2,-3.764346242E-2,3.420744836E-2
1.925052717E0,-5.467082933E-2,-4.085041210E-2,2.504473738E-2
1.945162248E0,-9.620844387E-3,-4.329380020E-2,2.336490713E-2
1.965271779E0,3.756710514E-2,-3.321481869E-2,2.153236605E-2
1.985381363E0,3.054236248E-2,-9.544488043E-3,1.847812906E-2
2.005490894E0,-3.054236248E-2,-8.933641016E-3,8.093725890E-3
2.025600425E0,-7.330167294E-2,1.145338640E-3,-8.704573847E-3
2.045710008E0,-4.046862945E-2,3.046600707E-2,-1.496575773E-2
2.065819540E0,9.162708884E-4,4.352286924E-3,-3.359659761E-2
2.085929071E0,-3.054236295E-3,-3.611634299E-2,-4.016320780E-2
2.106038654E0,-2.351761982E-2,-2.848075330E-2,-3.985778242E-2
2.126148185E0,-2.993151546E-2,1.901262067E-2,-4.520269856E-2
2.146257717E0,-2.764083818E-2,3.199312463E-2,-4.138490185E-2
2.166367300E0,-1.160609815E-2,4.199574701E-3,-1.939439960E-2
2.186476831E0,2.657185495E-2,-8.017370477E-3,-6.108472589E-4
2.206586363E0,5.909947306E-2,-3.894151188E-3,2.596100792E-3
2.226695946E0,4.718795046E-2,-2.680092305E-2,-1.649287529E-2
2.246805477E0,-3.970507067E-3,-1.947075687E-2,-4.123219103E-2
2.266915008E0,-4.734066129E-2,2.466295846E-2,-4.886778072E-2
2.287024592E0,-6.872031838E-2,4.848600179E-2,-4.932591692E-2
2.307134123E0,-6.154286116E-2,3.092414327E-2,-3.298575059E-2
2.327243654E0,-2.733541466E-2,-8.322793990E-3,-1.313321572E-2
2.347353238E0,1.863084175E-2,-1.733279042E-2,-4.581354442E-4
2.367462769E0,4.230117425E-2,6.642963737E-3,5.039489828E-3
2.387572352E0,2.168507688E-2,2.741177008E-2,6.872031838E-3
2.407681883E0,-2.214321308E-2,1.320957206E-2,8.246437646E-3
2.427791415E0,-4.947862774E-2,-1.046075951E-2,5.344913341E-3
2.447900998E0,-2.229592577E-2,-7.101099472E-3,9.773556143E-3
2.468010529E0,2.336490713E-2,-2.061609412E-3,3.817795310E-3
2.488120060E0,5.329642445E-2,8.170082234E-3,1.114796288E-2
2.508229644E0,4.810422286E-2,8.017370477E-3,1.007897966E-2
2.528339175E0,1.771457121E-2,2.664821222E-2,9.926267900E-3
2.548448706E0,-1.817270555E-2,3.352024406E-2,8.704573847E-3
2.568558290E0,-3.558185324E-2,-1.183516532E-2,-2.748812549E-3
2.588667821E0,-1.130067464E-2,-4.772244394E-2,4.123218823E-3
2.608777404E0,4.001049697E-2,-5.887040496E-2,3.848337755E-2
2.628886935E0,7.834116369E-2,-3.413109109E-2,5.482354015E-2
2.648996467E0,8.964183182E-2,-3.436015919E-3,4.138490185E-2
2.669106050E0,7.375980914E-2,1.580567285E-2,1.328592747E-2
2.689215581E0,4.321744293E-2,4.451549426E-2,6.261184346E-3
2.709325165E0,-1.267508045E-2,2.878617682E-2,-1.847812906E-2
2.729434696E0,-7.574506104E-2,-2.298312820E-2,-5.665608495E-2
2.749544227E0,-9.132166207E-2,-4.421006888E-2,-6.566607952E-2
2.769653810E0,-5.039490014E-2,-1.641651988E-2,-4.902049154E-2
2.789763342E0,1.252236869E-2,1.947075687E-2,-2.168507688E-2
2.809872873E0,5.497625470E-2,2.588465251E-2,-1.084253844E-2
2.829982456E0,6.093201414E-2,2.389939874E-2,-1.557660475E-2
2.850091988E0,3.756710514E-2,1.641651988E-2,-1.725643501E-2
2.870201571E0,-1.832541777E-3,1.458397787E-2,-4.734066315E-3
2.890311102E0,-2.351761982E-2,1.901262067E-2,1.801999472E-2
2.910420633E0,-3.359660041E-3,4.963133950E-3,3.894151375E-2
2.930530217E0,4.123219103E-2,-1.809635013E-2,5.344913527E-2
2.950639748E0,5.619794875E-2,-2.496838197E-2,5.512896553E-2
2.970749331E0,3.161134571E-2,7.253811229E-3,5.848862603E-2
2.990858863E0,-9.162708884E-4,2.603736520E-2,4.504998401E-2
3.010968394E0,-2.214321308E-2,1.427855436E-2,3.145863488E-2
3.031077977E0,-1.649287529E-2,-8.780929260E-3,3.145863488E-2
3.051187508E0,4.123218823E-3,-2.313583903E-2,2.275406010E-2
3.071297092E0,1.969982497E-2,-1.687465608E-2,1.145338640E-2
3.091406623E0,1.649287529E-2,5.421269219E-3,1.389677543E-2
3.111516154E0,-4.734066315E-3,3.107685409E-2,1.969982497E-2
3.131625738E0,-2.565558441E-2,2.832804248E-2,9.468132630E-3
3.151735269E0,-2.382304333E-2,2.389939874E-2,-2.901524538E-3
3.171844800E0,-1.068982668E-2,4.810422193E-3,9.162708884E-4
3.191954383E0,9.009997360E-3,-1.030804776E-2,2.305948362E-2
3.212063915E0,1.985253580E-2,-1.565296017E-2,9.315420873E-3
3.232173498E0,7.941014133E-3,-2.557922900E-2,-3.283303976E-2
3.252283029E0,-2.870982140E-2,-3.504735976E-2,-7.589777559E-2
3.272392560E0,-8.872556686E-2,-5.520532280E-2,-1.001789495E-1
3.292502144E0,-1.679829955E-1,-7.108735293E-2,-8.551861346E-2
3.312611675E0,-2.162399292E-1,-3.306210786E-2,4.734066315E-3
3.332721258E0,-1.728697717E-1,2.619007602E-2,6.780404598E-2
3.352830790E0,-5.955760926E-2,1.885990985E-2,4.932591692E-2
3.372940321E0,5.085303262E-2,-7.918107510E-2,-1.634016447E-2
3.393049904E0,1.052184403E-1,-1.431673318E-1,-7.101099193E-2
3.413159435E0,9.101624042E-2,-1.104869992E-1,-7.391251624E-2
3.433268967E0,2.779355086E-2,-4.283566400E-2,-4.214845970E-2
3.453378550E0,-2.183778957E-2,2.672456671E-3,-1.435491070E-2
3.473488081E0,-3.268032894E-2,9.697199799E-3,-3.390202299E-2
3.493597665E0,-2.015795931E-2,-1.947075687E-2,-6.322269142E-2
3.513707196E0,-4.734066315E-3,-3.672719002E-2,-6.291726977E-2
3.533816779E0,1.068982761E-3,-3.672719002E-2,-4.169032723E-2
3.553926310E0,-2.748812549E-3,-3.199312463E-2,-1.817270555E-2
3.574035842E0,1.221694518E-3,-1.145338640E-3,5.650337320E-3
3.594145425E0,4.428642802E-3,1.641651988E-2,-1.679830020E-3
3.614254956E0,-4.886778072E-3,-9.926267667E-4,-2.061609551E-2
3.634364540E0,-2.855710872E-2,-2.878617682E-2,-3.420744836E-2
3.654474071E0,-5.268557742E-2,-3.840702027E-2,-4.504998401E-2
3.674583602E0,-5.344913527E-2,-3.245126083E-2,-4.184303805E-2
3.694693185E0,-3.374931216E-2,-1.855448633E-2,-2.367033064E-2
3.714802717E0,-1.206423342E-2,-3.168770298E-2,-8.857285604E-3
3.734912300E0,2.443389036E-3,-6.284090877E-2,-1.114796288E-2
3.755021831E0,-5.955760833E-3,-7.536327839E-2,-2.153236605E-2
3.775131415E0,-2.702999115E-2,-6.574243307E-2,-3.084778599E-2
3.795240946E0,-3.283303976E-2,-4.268295318E-2,-4.046862945E-2
3.815350477E0,-7.482878864E-3,-1.748550311E-2,-3.084778599E-2
3.835460060E0,3.451287001E-2,-2.252499200E-2,-9.926267900E-3
3.855569592E0,5.787777901E-2,-3.642176837E-2,-4.886778072E-3
3.875679175E0,5.482354015E-2,-1.947075687E-2,-8.704573847E-3
3.895788706E0,4.275930673E-2,4.046862945E-3,-4.123218823E-3
3.915898238E0,4.260659590E-2,-1.122431830E-2,2.397575416E-2
3.936007821E0,3.573456407E-2,-4.588989913E-2,2.321219631E-2
3.956117352E0,5.803049076E-3,-4.573718831E-2,-1.740914769E-2
3.976226935E0,-2.214321308E-2,-1.145338640E-3,-3.466558084E-2
3.996336467E0,-2.687728032E-2,3.107685409E-2,-1.404948719E-2
4.016445998E0,-2.168507688E-2,3.642176837E-2,9.620844387E-3
4.036555581E0,-1.832541823E-2,1.366770733E-2,2.061609551E-2
4.056665113E0,-1.679829881E-2,-5.726693198E-3,2.977880463E-2
4.076774696E0,-1.328592747E-2,-8.322793990E-3,3.924693540E-2
4.096884227E0,-1.023169141E-2,3.588727675E-3,5.207473040E-2
4.116993758E0,-1.282779220E-2,4.657710437E-3,5.940489471E-2
4.137103342E0,-1.404948719E-2,-1.450762269E-3,5.818320066E-2
4.157212873E0,-2.748812549E-3,1.916533336E-2,5.008947477E-2
4.177322456E0,1.481304597E-2,3.932329267E-2,4.214845970E-2
4.197431988E0,2.397575416E-2,3.535278514E-2,4.077405483E-2
4.217541571E0,2.092151903E-2,3.122956678E-2,3.710897267E-2
4.237651102E0,1.649287529E-2,1.763821393E-2,3.084778599E-2
4.257760633E0,1.313321572E-2,-1.030804776E-2,2.153236605E-2
4.277870217E0,1.160609815E-2,-2.863346599E-2,5.803049076E-3
4.297979748E0,1.130067464E-2,-3.306210786E-2,-7.788302377E-3
4.318089331E0,1.481304597E-2,-2.741177008E-2,-1.527118124E-2
4.338198863E0,2.031067200E-2,-2.374668792E-2,-1.603474095E-2
4.358308446E0,3.436015919E-2,-1.748550311E-2,-1.740914769E-2
4.378417977E0,4.718795046E-2,-7.864658721E-3,-2.932066843E-2
4.398527508E0,4.764608666E-2,-8.780929260E-3,-3.481829539E-2
4.418637092E0,3.817795217E-2,-4.657710437E-3,-3.206948191E-2
4.438746623E0,2.367033064E-2,2.672456671E-3,-2.932066843E-2
4.458856206E0,1.404948719E-2,9.697199799E-3,-2.244863659E-2
4.478965738E0,1.053711493E-2,-9.086352773E-3,-1.557660475E-2
4.499075321E0,1.969982497E-2,-1.840177365E-2,-8.246437646E-3
4.519184852E0,4.306473210E-2,1.091889478E-2,2.901524538E-3
4.539294383E0,6.077930331E-2,6.421531737E-2,1.908897609E-2
4.559403967E0,3.084778599E-2,5.291464552E-2,8.093725890E-3
4.579513498E0,-3.863608837E-2,1.908897655E-3,-2.107422985E-2
4.599623081E0,-7.895200700E-2,-1.756185899E-3,-2.901524492E-2
4.619732613E0,-6.154286116E-2,4.421006888E-2,-1.832541777E-3
4.639842196E0,-2.061609551E-2,5.963396281E-2,3.436015919E-2
4.659951727E0,9.773556143E-3,3.871244565E-2,4.062134400E-2
4.680061258E0,1.618745178E-2,1.030804776E-2,2.535016090E-2
4.700170842E0,-6.108472589E-3,3.817795368E-4,1.282779220E-2
4.720280373E0,-4.169032723E-2,4.199574701E-3,9.315420873E-3
4.740389956E0,-6.368082762E-2,2.924431302E-2,2.443389036E-3
4.760499488E0,-6.474980712E-2,2.298312820E-2,-7.941014133E-3
4.780609019E0,-5.467082933E-2,-6.184828468E-3,-9.926267900E-3
4.800718602E0,-3.283303976E-2,-2.290677221E-4,-2.290677279E-3
4.820828133E0,-1.038440317E-2,1.366770733E-2,6.261184346E-3
4.840937717E0,-3.359660041E-3,2.367033157E-3,1.053711493E-2
4.861047248E0,-8.704573847E-3,1.290414855E-2,1.496575773E-2
4.881156831E0,-1.557660475E-2,3.871244565E-2,2.061609551E-2
4.901266363E0,-1.313321572E-2,3.168770298E-2,2.626643144E-2
4.921375946E0,-1.160609815E-2,-2.672456671E-3,2.626643144E-2
4.941485477E0,-1.695101149E-2,-2.359397523E-2,2.412846684E-2
4.961595008E0,-2.000524849E-2,-1.450762269E-3,2.550287358E-2
4.981704592E0,-6.413896102E-3,3.184041381E-2,3.176405653E-2
5.001814123E0,1.649287529E-2,5.398362502E-2,3.588727489E-2
5.021923706E0,1.756185852E-2,2.954973653E-2,2.962609194E-2
5.042033238E0,-4.123218823E-3,-1.504211407E-2,2.428117767E-2
5.062142821E0,-2.199050039E-2,-2.893888950E-2,2.321219631E-2
5.082252352E0,-2.275406010E-2,-2.672456671E-3,2.565558441E-2
5.102361883E0,-4.581354442E-4,2.145601064E-2,3.497100621E-2
5.122471467E0,2.779355086E-2,2.848075330E-2,2.687728032E-2
5.142580998E0,3.634541109E-2,1.870719716E-2,1.038440317E-2
5.162690581E0,2.275406010E-2,-1.336228382E-2,1.068982761E-3
5.182800113E0,-1.328592747E-2,-5.138752609E-2,-1.160609815E-2
5.202909696E0,-3.756710514E-2,-4.802786559E-2,-2.290677279E-2
5.223019227E0,-3.374931216E-2,-2.267770469E-2,-2.657185495E-2
5.243128810E0,-1.832541777E-3,-1.076618303E-2,-1.557660475E-2
5.263238342E0,4.184303805E-2,-2.267770469E-2,6.108472589E-4
5.283347873E0,6.841489673E-2,-3.138227761E-2,9.009997360E-3
5.303457456E0,5.925218388E-2,-1.870719716E-2,1.068982761E-3
5.323566988E0,1.969982497E-2,-3.894151188E-3,-1.236965694E-2
5.343676571E0,-1.420219894E-2,1.229330152E-2,-1.954711229E-2
5.363786102E0,-2.870982140E-2,1.305686031E-2,-2.397575416E-2
5.383895685E0,-2.351761982E-2,-2.519744914E-3,-2.733541466E-2
5.404005217E0,-1.771457121E-2,-1.183516532E-2,-2.733541466E-2
5.424114800E0,-2.199050039E-2,3.741439432E-3,-1.939439960E-2
5.444224331E0,-2.305948362E-2,2.603736520E-2,-3.512371797E-3
5.464333863E0,-2.641914412E-2,4.268295318E-2,6.872031838E-3
5.484443446E0,-2.932066843E-2,3.367295489E-2,6.872031838E-3
5.504552977E0,-2.794626169E-2,7.101099472E-3,6.108472589E-4
5.524662560E0,-1.298050396E-2,1.046075951E-2,1.145338640E-2
5.544772092E0,1.985253533E-3,2.909160033E-2,2.718270384E-2
5.564881675E0,2.290677279E-3,4.390464723E-2,3.787253052E-2
5.584991206E0,-1.634016447E-2,5.566345528E-2,3.756710514E-2
5.605100790E0,-4.138490185E-2,3.336753324E-2,4.352286831E-2
5.625210321E0,-5.192201585E-2,3.894151188E-3,5.833591148E-2
5.645319852E0,-3.344388679E-2,5.421269219E-3,6.795676053E-2
5.665429435E0,-2.901524538E-3,9.086352773E-3,7.452336699E-2
5.685538967E0,1.450762246E-2,4.504998680E-3,7.849387079E-2
5.705648550E0,9.773556143E-3,-1.603474026E-3,6.948387623E-2
5.725758081E0,-5.344913341E-3,-2.557922900E-2,6.016845629E-2
5.745867665E0,-7.024743594E-3,-4.023956135E-2,4.382828996E-2
5.765977196E0,6.108472589E-4,-2.802261710E-2,2.336490713E-2
5.786086779E0,2.596100792E-3,-1.168245357E-2,2.580829710E-2
5.806196310E0,-2.153236605E-2,-2.863346599E-2,1.527118124E-2
5.826305894E0,-5.024218559E-2,-3.687990457E-2,-1.985253580E-2
5.846415425E0,-6.322269142E-2,-4.115583375E-2,-3.619270027E-2
5.866524956E0,-5.192201585E-2,-2.374668792E-2,-2.290677279E-2
5.886634540E0,-1.817270555E-2,1.259872504E-2,-5.192201585E-3
5.906744071E0,1.725643501E-2,1.183516532E-2,1.618745178E-2
5.926853654E0,3.252761811E-2,-2.206685767E-2,3.374931216E-2
5.946963185E0,4.382828996E-2,-2.878617682E-2,3.161134571E-2
5.967072769E0,5.589252338E-2,4.352286924E-3,1.878355257E-2
5.987182300E0,6.291726977E-2,2.802261710E-2,1.985253580E-2
6.007291883E0,4.978405312E-2,3.077143058E-2,1.404948719E-2
6.027401415E0,-6.108472589E-3,3.046600707E-2,1.420219894E-2
6.047510998E0,-7.360709459E-2,-1.947075687E-2,-4.886778072E-3
6.067620529E0,-9.987352788E-2,-2.214321401E-3,-1.908897609E-2
6.087730060E0,-9.071081877E-2,5.367820337E-2,2.290677279E-3
6.107839644E0,-7.574506104E-2,5.322006717E-2,3.527642787E-2
6.127949175E0,-8.276980370E-2,2.115058713E-2,4.046862945E-2
6.148058758E0,-7.253811508E-2,4.848600179E-2,2.214321308E-2
6.168168290E0,-2.092151903E-2,1.237729266E-1,8.093725890E-3
6.188277873E0,9.620844387E-3,1.307976693E-1,2.214321308E-2
6.208387404E0,-9.162709117E-3,6.345175952E-2,3.863608837E-2
6.228496988E0,-4.382828996E-2,2.176143415E-2,1.572931744E-2
6.248606519E0,-6.887302548E-2,3.122956678E-2,-1.710372418E-2
6.268716102E0,-8.490777016E-2,5.657972768E-2,-2.031067200E-2
6.288825633E0,-9.483403713E-2,5.688514933E-2,-1.267508045E-2
6.308935217E0,-1.079672500E-1,5.337277800E-2,-9.162709117E-3
6.329044748E0,-1.111742035E-1,7.414158434E-2,-1.282779220E-2
6.349154279E0,-1.038440317E-1,1.022405624E-1,-2.031067200E-2
6.369263863E0,-1.041494608E-1,9.674293548E-2,-6.719320081E-3
6.389373394E0,-9.819369763E-2,9.170344472E-2,1.053711493E-2
6.409482977E0,-7.162184268E-2,1.138466597E-1,5.955760833E-3
6.429592508E0,-4.581354558E-2,1.063637808E-1,-8.093725890E-3
6.449702092E0,-5.482354015E-2,9.017632902E-2,-3.268032894E-2
6.469811623E0,-9.162709117E-2,9.903360903E-2,-3.100049868E-2
6.489921206E0,-1.035386100E-1,1.230093688E-1,-9.009997360E-3
6.510030738E0,-7.070557028E-2,1.598129123E-1,6.413896102E-3
6.530140321E0,-2.977880463E-2,1.785964668E-1,3.420744836E-2
6.550249852E0,-2.916795574E-2,1.428619027E-1,7.131642103E-2
6.570359435E0,-4.413371533E-2,1.103342846E-1,1.123958975E-1
6.590468967E0,-3.069507517E-2,7.795938104E-2,1.308740228E-1
6.610578550E0,2.672456764E-2,7.200361788E-2,1.522536725E-1
6.630688081E0,9.162709117E-2,1.019351333E-1,1.866138428E-1
6.650797665E0,1.470614821E-1,1.729461253E-1,2.014268786E-1
6.670907196E0,2.232646793E-1,2.789281309E-1,2.024958730E-1
6.691016727E0,2.935121059E-1,3.279486299E-1,2.484621257E-1
6.711126310E0,2.733541429E-1,2.193705291E-1,3.188622594E-1
6.731235842E0,1.944021434E-1,7.734853774E-2,3.167243004E-1
6.751345425E0,1.339282542E-1,-4.451549426E-2,2.716743052E-1
6.771454956E0,9.009996802E-2,-2.407501787E-1,1.944021434E-1
6.791564540E0,2.020377368E-1,-9.552124143E-2,1.200314835E-1
6.811674071E0,5.297572613E-1,3.068743944E-1,1.299577504E-1
6.831783654E0,8.188407421E-1,4.038463831E-1,2.133384049E-1
6.851893185E0,7.902836204E-1,6.253548712E-2,2.571666837E-1
6.872002769E0,4.808894992E-1,-3.154262602E-1,2.116585821E-1
6.892112300E0,1.692046970E-1,-3.381803036E-1,1.217113137E-1
6.912221883E0,3.833066672E-2,-1.068219170E-1,6.948387623E-2
6.932331415E0,6.291726977E-2,6.268820167E-2,8.124268800E-2
6.952440998E0,1.264453828E-1,3.794888780E-2,1.285833418E-1
6.972550529E0,1.501157135E-1,-6.772769243E-2,1.328592747E-1
6.992660113E0,1.131594554E-1,-1.103342846E-1,8.643488586E-2
7.012769644E0,2.550287358E-2,-6.039752439E-2,6.429167092E-2
7.032879227E0,-7.360709459E-2,6.032116711E-3,9.162709117E-2
7.052988758E0,-1.484358907E-1,8.017370477E-3,1.094943732E-1
7.073098290E0,-1.466033459E-1,-1.626380906E-2,9.330692142E-2
7.093207873E0,-9.147437662E-2,-5.016583204E-2,5.467082933E-2
7.113317456E0,-7.788302749E-2,-1.266744435E-1,2.901524492E-2
7.133426988E0,-1.408002973E-1,-1.860793531E-1,1.801999472E-2
7.153536519E0,-1.994416267E-1,-1.645469815E-1,1.359135192E-2
7.173646102E0,-1.881409585E-1,-1.362952888E-1,-4.886778072E-3
7.193755633E0,-1.530172378E-1,-1.427091956E-1,-3.741439432E-2
7.213865217E0,-1.443126649E-1,-1.436254680E-1,-6.642963737E-2
7.233974748E0,-1.617218107E-1,-1.657686681E-1,-1.027750522E-1
7.254084331E0,-1.589729935E-1,-2.546469569E-1,-1.241547018E-1
7.274193863E0,-1.102579311E-1,-3.071798086E-1,-1.293469071E-1
7.294303446E0,-5.726693198E-2,-3.154262602E-1,-1.469087601E-1
7.314412977E0,-2.748812549E-3,-2.766374648E-1,-1.701209545E-1
7.334522560E0,5.207473040E-2,-2.360161096E-1,-1.653869003E-1
7.354632092E0,8.567132801E-2,-2.486911863E-1,-1.404948682E-1
7.374741675E0,1.090362370E-1,-3.129828572E-1,-1.421747059E-1
7.394851206E0,1.737860441E-1,-3.368059099E-1,-1.502684206E-1
7.414960790E0,3.159607351E-1,-2.547996640E-1,-9.559759498E-2
7.435070321E0,4.553866386E-1,-2.897706628E-1,-4.031591862E-2
7.455179904E0,5.230379701E-1,-2.251735777E-1,-1.771457121E-2
7.475289435E0,4.986040890E-1,-1.379751265E-1,-1.023169141E-2
7.495399019E0,1.959292591E-1,-2.482330501E-1,-2.273878902E-1
7.515508550E0,-3.229855001E-1,-2.526617050E-1,-5.734328628E-1
7.535618133E0,-7.516475320E-1,-3.275668249E-2,-7.893673778E-1
7.555727665E0,-8.309049606E-1,2.092915475E-1,-7.124006152E-1
7.575837248E0,-5.238015056E-1,3.926984370E-1,-3.762819171E-1
7.595946779E0,-7.223268598E-2,4.152997732E-1,-4.886778072E-2
7.616056363E0,1.484358907E-1,2.126512080E-1,1.511846948E-2
7.636165894E0,7.513421029E-2,-3.184041381E-2,-8.078455180E-2
7.656275477E0,-1.217113137E-1,-3.840702027E-2,-2.028012872E-1
7.676385008E0,-2.512109280E-1,1.059056446E-1,-1.953184158E-1
7.696494592E0,-2.330382317E-1,2.738886476E-1,-6.826218218E-2
7.716604123E0,-1.123958975E-1,3.365004957E-1,7.391251624E-2
7.736713706E0,2.962609194E-2,2.806079686E-1,1.630962193E-1
7.756823238E0,1.055238619E-1,1.931040883E-1,1.719534993E-1
7.776932769E0,8.261708915E-2,7.154548168E-2,1.475196183E-1
7.797042352E0,-1.679830020E-3,-1.641651988E-2,1.459924877E-1
7.817151935E0,-6.688777357E-2,2.420482226E-2,1.644706279E-1
7.837261467E0,-7.574506104E-2,1.411820799E-1,1.667613089E-1
7.857371050E0,-6.642963737E-2,1.921878159E-1,1.481304616E-1
7.877480581E0,-6.505523622E-2,1.404185146E-1,1.189625040E-1
7.897590165E0,-4.840964451E-2,1.152210608E-1,8.292251825E-2
7.917699696E0,1.664558798E-2,2.001288384E-1,7.146912813E-2
7.937809279E0,9.284878522E-2,2.757211924E-1,6.749862432E-2
7.957918810E0,8.612946421E-2,2.486911863E-1,4.566083103E-2
7.978028394E0,-4.428642802E-3,1.323247850E-1,3.726168349E-2
7.998137925E0,-3.924693540E-2,6.818582863E-2,5.497625470E-2
8.018247508E0,8.994726092E-2,1.306449622E-1,8.490777016E-2
8.038357040E0,2.376195788E-1,1.688229144E-1,1.294996142E-1
8.058466623E0,2.223484069E-1,2.019613683E-1,2.449497581E-1
8.078576154E0,-1.053711493E-2,2.451788187E-1,3.494046330E-1
8.098685738E0,-4.304946065E-1,-1.091889478E-2,3.341334462E-1
8.118795269E0,-8.298360109E-1,-4.554629922E-1,1.687465608E-1
8.138904852E0,-9.005415440E-1,-5.819083452E-1,7.482878864E-3
8.159014383E0,-3.912476599E-1,-4.726430774E-2,-8.002099395E-2
8.179123967E0,3.880407214E-1,7.040778399E-1,-9.681928903E-2
8.199233498E0,9.155073166E-1,1.021871090E0,3.023693897E-2
8.219343081E0,9.712471366E-1,7.446991801E-1,1.563768983E-1
8.239452613E0,6.533011198E-1,9.399411827E-2,1.389677525E-1
8.259562196E0,2.851129472E-1,-3.058054149E-1,2.870982140E-2
8.279671727E0,1.380514801E-1,-1.880646050E-1,-4.657710344E-2
8.299781310E0,1.747023165E-1,8.437328041E-2,-3.008422814E-2
8.319890842E0,2.174616307E-1,2.123457789E-1,7.757759839E-2
8.340000425E0,1.966928244E-1,1.172063202E-1,2.145601064E-1
8.360109956E0,1.846285909E-1,-4.879142344E-2,3.132119179E-1
8.380219540E0,2.166980654E-1,-1.283542812E-1,3.738385141E-1
8.400329071E0,1.965401024E-1,-1.491230875E-1,3.834593594E-1
8.420438654E0,7.421794534E-2,-1.818034202E-1,3.518480062E-1
8.440548185E0,-7.650861889E-2,-1.885227412E-1,3.083251417E-1
8.460657769E0,-1.243074164E-1,-9.765920788E-2,2.977880239E-1
8.480767300E0,-7.559234649E-2,-1.977618039E-2,2.809897363E-1
8.500876883E0,-3.878879920E-2,-3.535278514E-2,2.518217862E-1
8.520986415E0,-1.058292910E-1,-1.323247850E-1,1.992889196E-1
8.541095998E0,-1.980672181E-1,-1.532463133E-1,1.418692768E-1
8.561205529E0,-2.008160353E-1,-9.811734408E-2,9.895725548E-2
8.581315113E0,-1.408002973E-1,-9.827005118E-2,9.498675168E-2
8.601424644E0,-6.902574003E-2,-1.353790164E-1,1.093416587E-1
8.621534227E0,-4.596625641E-2,-2.080698460E-1,7.452336699E-2
8.641643758E0,-5.696150661E-2,-2.867164314E-1,5.543438718E-2
8.661753342E0,-7.116370648E-2,-3.775799572E-1,4.795150831E-2
8.681862873E0,-9.513945878E-2,-4.328616261E-1,5.512896553E-2
8.701972456E0,-9.773556143E-2,-4.214082658E-1,8.124268800E-2
8.722082040E0,-1.217113137E-1,-3.647521734E-1,6.444438547E-2
8.742191571E0,-2.171562016E-1,-2.934357524E-1,5.528167635E-2
8.762301102E0,-4.303418994E-1,-3.856737018E-1,-1.009425074E-1
8.782410685E0,-6.093201637E-1,-2.288386524E-1,-2.913741469E-1
8.802520269E0,-5.140279531E-1,4.390464723E-2,-3.081724346E-1
8.822629800E0,-1.174353883E-1,1.504211407E-2,-1.902789176E-1
8.842739383E0,3.345915973E-1,-2.566322088E-1,-1.498102844E-1
8.862848915E0,7.014053464E-1,-3.896442056E-1,-1.114796251E-1
8.882958498E0,8.583931327E-1,-3.542150557E-1,-1.311794519E-1
8.903068029E0,6.383354068E-1,-3.357369304E-1,-2.350234836E-1
8.923177613E0,1.102579311E-1,-1.862320602E-1,-3.721587062E-1
8.943287144E0,-3.487937748E-1,1.746259630E-1,-5.037962794E-1
8.963396727E0,-4.876088202E-1,4.249206185E-1,-5.111264586E-1
8.983506258E0,-3.865135908E-1,4.388174117E-1,-4.121691883E-1
9.003615842E0,-1.751604527E-1,2.911450863E-1,-2.738122940E-1
9.023725373E0,3.161134571E-2,1.480541080E-1,-1.539335102E-1
9.043834956E0,1.511846930E-1,1.002553031E-1,-9.910997003E-2
9.063944488E0,1.270562261E-1,1.139993668E-1,-8.796200156E-2
9.084054071E0,3.863608837E-2,2.141783237E-1,-6.291726977E-2
9.104163602E0,-1.450762246E-2,3.080960810E-1,-4.947862774E-2
9.124273185E0,-7.635590737E-4,3.229091465E-1,-2.794626169E-2
9.144382769E0,9.773556143E-3,2.386122048E-1,-3.206948051E-3
9.164492300E0,-2.672456764E-2,1.237729266E-1,5.650337320E-3
9.184601883E0,-9.177979827E-2,6.772769243E-2,2.321219631E-2
9.204711415E0,-1.482831687E-1,6.024480984E-2,4.474456236E-2
9.224820998E0,-1.730224788E-1,1.362952888E-1,5.848862603E-2
9.244930529E0,-1.545443535E-1,1.990598440E-1,6.536065787E-2
9.265040113E0,-9.407047927E-2,1.697391868E-1,6.383354217E-2
9.285149644E0,-4.886778072E-3,1.110978425E-1,1.087308154E-1
9.305259227E0,7.482878864E-2,6.879667193E-2,1.855448484E-1
9.325368758E0,1.099525094E-1,6.085565686E-2,2.403683960E-1
9.345478342E0,1.010952219E-1,5.428905040E-2,2.571666837E-1
9.365587873E0,7.574506104E-2,7.673768699E-2,2.440334857E-1
9.385697456E0,6.963659078E-2,1.007134393E-1,2.037175596E-1
9.405807040E0,5.146388337E-2,1.350736022E-1,1.562241912E-1
9.425916571E0,-2.855710872E-2,2.273115367E-1,1.382041872E-1
9.446026154E0,-1.750077456E-1,1.730988473E-1,1.487413049E-1
9.466135685E0,-2.538070381E-1,1.830251068E-1,1.389677525E-1
9.486245269E0,-1.400367320E-1,3.103867769E-1,1.612636745E-1
9.506354800E0,3.848337755E-2,1.611873209E-1,1.307213157E-1
9.526464383E0,1.287360638E-1,-1.410293579E-1,7.482878864E-2
9.546573915E0,1.808107942E-1,-2.986279428E-1,9.743013978E-2
9.566683498E0,2.535016239E-1,-3.392492831E-1,1.586675793E-1
9.586793029E0,2.447970361E-1,-3.751365840E-1,2.116585821E-1
9.606902613E0,1.030804738E-1,-4.052208066E-1,2.134911120E-1
9.627012144E0,-4.627167806E-2,-2.879381180E-1,1.149920002E-1
9.647121727E0,-3.481829539E-2,-5.489989743E-2,4.810422286E-2
9.667231310E0,1.711899489E-1,1.471378356E-1,5.024218559E-2
9.687340842E0,3.900259733E-1,1.361425817E-1,7.223268598E-2
9.707450425E0,4.869979918E-1,-2.451024577E-2,1.212531775E-1
9.727559956E0,4.295783341E-1,-2.230356038E-1,9.987352788E-2
9.747669540E0,2.481566966E-1,-3.164952397E-1,-5.344913341E-3
9.767779071E0,5.421269313E-2,-2.645732164E-1,-7.482878864E-2
9.787888654E0,-2.932066843E-2,-7.307260484E-2,-7.299624383E-2
9.807998238E0,-3.206948191E-2,5.703786388E-2,-5.971032009E-2
9.828107769E0,-3.161134571E-2,4.787515476E-2,-4.627167806E-2
9.848217352E0,-6.077930331E-2,2.825168660E-3,-5.054761097E-2
9.868326883E0,-1.252236813E-1,3.428380191E-2,-6.719319522E-2
9.888436467E0,-2.020377368E-1,7.704310864E-2,-7.238540053E-2
9.908545998E0,-2.771719396E-1,1.117086932E-1,-5.909947306E-2
9.928655581E0,-3.617742956E-1,1.201078445E-1,-1.404948719E-2
9.948765113E0,-3.950654566E-1,1.351499557E-2,6.291726977E-2
9.968874696E0,-2.861819267E-1,-1.109451354E-1,1.240019947E-1
9.988984279E0,-1.398840249E-1,-3.878116608E-1,9.910997003E-2
1.000909381E1,-2.916795574E-2,-5.086066723E-1,6.444438547E-2
1.002920339E1,1.710372418E-2,-3.850628436E-1,8.108997345E-2
1.004931292E1,2.214321308E-2,-1.275907159E-1,1.383569092E-1
1.006942251E1,6.688777357E-2,1.575222313E-1,2.240282297E-1
1.008953204E1,-1.786728203E-2,9.544488043E-3,2.816005945E-1
1.010964162E1,-4.798205197E-1,-6.720083356E-1,8.093725890E-2
1.012975115E1,-8.745805621E-1,-6.286382079E-1,-1.725643575E-1
1.014986074E1,-8.142594099E-1,9.689565003E-2,-3.287885487E-1
1.016997032E1,-2.861819267E-1,6.498651505E-1,-2.438807636E-1
1.019007985E1,3.358132839E-1,4.950153530E-1,-2.214321308E-2
1.021018944E1,7.566870451E-1,3.565821052E-2,1.082726792E-1
1.023029897E1,7.811209559E-1,-2.876327038E-1,-1.191152167E-2
1.025040855E1,4.966188073E-1,-1.753895134E-1,-1.976090819E-1
1.027051808E1,7.559234649E-2,1.877591759E-1,-3.304683566E-1
1.029062766E1,-2.854183912E-1,4.585172236E-1,-3.695625961E-1
1.031073725E1,-3.697153032E-1,4.921138287E-1,-3.365768492E-1
1.033084678E1,-1.695101112E-1,4.006394446E-1,-3.292466700E-1
1.035095636E1,1.038440317E-1,2.483857721E-1,-3.352024257E-1
1.037106589E1,2.617480457E-1,1.607291847E-1,-2.974826097E-1
1.039117548E1,2.725905776E-1,1.915769726E-1,-2.130329758E-1
1.041128501E1,2.206685692E-1,2.766374648E-1,-1.353026628E-1
1.043139459E1,1.603474021E-1,2.734304965E-1,-9.177979827E-2
1.045150418E1,7.666133344E-2,1.338519007E-1,-9.468132257E-2
1.047161371E1,-1.252236869E-2,-7.811209559E-2,-1.452289373E-1
1.049172329E1,-3.084778599E-2,-1.404185146E-1,-1.641651988E-1
1.051183282E1,3.344388679E-2,-6.879667193E-2,-1.136175916E-1
1.053194240E1,1.240019947E-1,3.626905754E-2,-3.298575059E-2
1.055205194E1,1.378987730E-1,5.810684711E-2,1.847812906E-2
1.057216152E1,4.382828996E-2,-1.565296017E-2,8.704573847E-3
1.059227110E1,-7.375980914E-2,-1.014770046E-1,-4.459185153E-2
1.061238063E1,-1.082726792E-1,-7.734853774E-2,-6.642963737E-2
1.063249022E1,-3.939964995E-2,1.259872504E-2,-3.787253052E-2
1.065259975E1,6.184828654E-2,7.857023180E-2,2.290677279E-2
1.067270933E1,1.215586066E-1,6.406260282E-2,8.826743066E-2
1.069281892E1,1.064401343E-1,-1.046075951E-2,9.468132257E-2
1.071292845E1,4.886778072E-2,-3.130592173E-3,8.521319181E-2
1.073303803E1,-4.031591862E-2,1.083490327E-1,1.502684206E-1
1.075314756E1,-3.003841341E-1,-3.493282795E-1,1.325538605E-1
1.077325714E1,-5.700731874E-1,-7.581378222E-1,9.147437662E-2
1.079336673E1,-4.815003574E-1,-4.528668821E-1,9.987352788E-2
1.081347626E1,1.189625040E-1,2.077644169E-1,1.194206402E-1
1.083358584E1,8.014315963E-1,5.095229745E-1,2.047865391E-1
1.085369537E1,1.084101200E0,3.893387616E-1,2.901524603E-1
1.087380496E1,8.425110579E-1,2.817532979E-2,2.235700935E-1
1.089391449E1,3.009949923E-1,-2.529671192E-1,9.819369763E-2
1.091402407E1,-1.003316641E-1,-2.634278871E-2,7.070557028E-2
1.093413365E1,-1.950129867E-1,3.426089585E-1,3.710897267E-2
1.095424319E1,-1.249182671E-1,4.113292694E-1,2.932066843E-2
1.097435277E1,-1.832541823E-2,2.602972984E-1,6.077930331E-2
1.099446230E1,8.857285231E-2,6.803311408E-2,7.116370648E-2
1.101457188E1,1.181989461E-1,-1.219403818E-1,5.726693198E-2
1.103468147E1,2.794626169E-2,-1.960056126E-1,6.459710002E-2
1.105479100E1,-1.301104724E-1,-1.390441060E-1,9.208522737E-2
1.107490058E1,-2.429644912E-1,-4.482091591E-2,9.819369763E-2
1.109501011E1,-2.359397560E-1,-2.374668792E-2,8.506047726E-2
1.111511970E1,-1.589729935E-1,-8.971819282E-2,6.398624927E-2
1.113522928E1,-1.214058921E-1,-1.706554592E-1,4.382828996E-2
1.115533881E1,-1.334701329E-1,-2.147891670E-1,4.474456236E-2
1.117544839E1,-1.524063945E-1,-2.172325552E-1,6.856760383E-2
1.119555793E1,-1.696628332E-1,-2.325037420E-1,1.007898003E-1
1.121566751E1,-1.815743446E-1,-2.798444033E-1,1.012479365E-1
1.123577709E1,-1.435490996E-1,-2.638096511E-1,8.200624585E-2
1.125588662E1,-6.368082762E-2,-2.124984860E-1,5.238015205E-2
1.127599621E1,-1.236965694E-2,-2.247154415E-1,4.046862945E-2
1.129610579E1,-1.695101149E-2,-3.105394840E-1,6.154286116E-2
1.131621532E1,-4.046862945E-2,-3.375694752E-1,7.711946964E-2
1.133632490E1,-4.856235534E-2,-2.343362868E-1,8.612946421E-2
1.135643444E1,-1.114796288E-2,-1.870719716E-2,1.531699449E-1
1.137654402E1,-1.336228400E-1,-2.796916962E-1,1.444653720E-1
1.139665355E1,-3.807105422E-1,-4.501180649E-1,4.291202128E-2
1.141676313E1,-4.953971207E-1,-1.330883503E-1,-8.536590636E-2
1.143687272E1,-4.297310412E-1,2.367033157E-3,-2.002051920E-1
1.145698225E1,-2.756448388E-1,-9.277242422E-2,-2.101314515E-1
1.147709183E1,-6.398624927E-2,-1.752368063E-1,-1.698155403E-1
1.149720142E1,1.301104724E-1,-2.237991691E-1,-1.537808031E-1
1.151731095E1,1.959292591E-1,-1.643942744E-1,-1.441599578E-1
1.153742053E1,6.841489673E-2,2.053973824E-2,-2.240282297E-1
1.155753006E1,-1.907370538E-1,1.979908645E-1,-3.533751369E-1
1.157763964E1,-3.924693763E-1,2.208976448E-1,-3.904841244E-1
1.159774923E1,-3.793361485E-1,1.729461253E-1,-3.590254784E-1
1.161785876E1,-1.699682474E-1,1.248419061E-1,-2.869454920E-1
1.163796834E1,1.014006436E-1,1.112505570E-1,-2.174616307E-1
1.165807792E1,2.820587158E-1,1.440836042E-1,-1.889045089E-1
1.167818746E1,2.848075330E-1,1.674485058E-1,-1.953184158E-1
1.169829704E1,1.542389393E-1,1.727934182E-1,-2.061609477E-1
1.171840657E1,-6.566607859E-3,1.981435865E-1,-2.189887464E-1
1.173851615E1,-1.156028435E-1,1.987544298E-1,-2.371614426E-1
1.175862574E1,-1.435490996E-1,1.538571566E-1,-2.319692522E-1
1.177873527E1,-8.108997345E-2,1.825669706E-1,-1.740914732E-1
1.179884485E1,8.246438205E-2,3.264214993E-1,-9.681928903E-2
1.181895444E1,2.221956849E-1,3.409291208E-1,-4.749337584E-2
1.183906397E1,2.199050188E-1,2.288386524E-1,-2.428117767E-2
1.185917355E1,9.544488788E-2,2.061609412E-3,-3.206948191E-2
1.187928313E1,8.857285604E-3,-1.278961450E-1,-4.260659590E-2
1.189939266E1,5.909947306E-2,-1.072800532E-1,-5.024218559E-2
1.191950225E1,2.281514555E-1,-2.672456671E-3,-2.244863659E-2
1.193961178E1,3.205420971E-1,7.230904698E-2,-6.719320081E-3
1.195972136E1,1.835595965E-1,-1.366770733E-2,-4.123218823E-3
1.197983095E1,-8.643488586E-2,-1.280488521E-1,-1.466033421E-2
1.199994048E1,-2.889307439E-1,-1.147629321E-1,1.175880991E-2
1.202005006E1,-3.611634374E-1,-8.933641016E-3,8.536590636E-2
1.204015964E1,-4.184303582E-1,-3.535278514E-2,1.152974218E-1
1.206026918E1,-4.576773047E-1,2.191414498E-2,1.478250325E-1
1.208037876E1,-3.970507085E-1,2.145601064E-2,1.267508119E-1
1.210048829E1,-2.580829561E-1,-1.488940232E-2,4.749337584E-2
1.212059787E1,-7.589777559E-2,1.802763045E-1,3.939964995E-2
1.214070746E1,1.792836636E-1,4.986804426E-1,1.550024897E-1
1.216081699E1,3.914003670E-1,5.301390886E-1,2.854183912E-1
1.218092657E1,4.665345848E-1,2.781645656E-1,4.294256270E-1
1.220103615E1,3.742966652E-1,-1.138466597E-1,5.161659122E-1
1.222114569E1,2.541124523E-1,-2.028776407E-1,5.344913602E-1
1.224125527E1,2.023431510E-1,-7.291989028E-2,4.908157587E-1
1.226136485E1,2.003578991E-1,5.841226876E-2,4.022429287E-1
1.228147438E1,2.086043358E-1,8.513683826E-2,3.662029207E-1
1.230158397E1,2.350234836E-1,7.414158434E-2,3.854446113E-1
1.232169355E1,2.692309320E-1,3.810159862E-2,4.085040987E-1
1.234180308E1,2.564031482E-1,-1.366770733E-2,4.188885093E-1
1.236191266E1,1.875301152E-1,-2.970244735E-2,3.859027624E-1
1.238202220E1,9.865183383E-2,3.894151188E-3,2.938175201E-1
1.240213178E1,4.123218823E-3,3.840702027E-2,1.878355294E-1
1.242224136E1,-8.383878320E-2,3.672719002E-2,1.191152185E-1
1.244235089E1,-1.320957243E-1,3.436015919E-3,8.383878320E-2
1.246246048E1,-1.050657257E-1,3.443651274E-2,1.027750522E-1
1.248257006E1,-5.344913341E-3,6.161921844E-2,1.353026628E-1
1.250267959E1,9.834641218E-2,2.619007602E-2,1.188097894E-1
1.252278918E1,1.082726792E-1,-6.131379306E-2,7.727217674E-2
1.254289876E1,-1.145338640E-2,-1.698918939E-1,2.962609194E-2
1.256300829E1,-1.898207814E-1,-2.931303382E-1,1.710372418E-2
1.258311787E1,-2.837385535E-1,-3.821613193E-1,4.749337584E-2
1.260322746E1,-2.522799075E-1,-4.690543413E-1,5.696150661E-2
1.262333699E1,-7.543963939E-2,-3.366532028E-1,5.054761097E-2
1.264344657E1,1.708845198E-1,3.588727675E-3,4.703523964E-2
1.266355615E1,9.819369763E-2,-7.750124484E-2,-3.695625812E-2
1.268366569E1,-3.775036037E-1,-7.704310864E-2,-2.808370292E-1
1.270377527E1,-7.438592315E-1,4.131618142E-1,-3.946073353E-1
1.272388485E1,-6.743753552E-1,6.721610427E-1,-2.334963679E-1
1.274399438E1,-3.093941510E-1,2.152473032E-1,6.123743951E-2
1.276410397E1,8.811471611E-2,-3.844519854E-1,2.295258641E-1
1.278421355E1,2.875563502E-1,-6.637619138E-1,1.681357026E-1
1.280432308E1,2.192941606E-1,-5.808393955E-1,-2.535016090E-2
1.282443267E1,9.697200358E-2,5.268557463E-3,-2.136438340E-1
1.284454225E1,1.572931744E-2,5.841990709E-1,-3.255815804E-1
1.286465178E1,-6.933116168E-2,6.362738013E-1,-3.500154912E-1
1.288476136E1,-5.726693198E-2,3.855209649E-1,-3.600944579E-1
1.290487095E1,6.917845458E-2,1.201078445E-1,-4.141544402E-1
1.292498048E1,1.860029846E-1,1.580567285E-2,-4.083513916E-1
1.294509006E1,1.954711229E-1,1.019351333E-1,-3.339807391E-1
1.296519964E1,9.743013978E-2,2.326564491E-1,-2.716743052E-1
1.298530918E1,-2.733541466E-2,2.244100124E-1,-2.394521236E-1
1.300541876E1,-6.077930331E-2,1.537044346E-1,-2.313583940E-1
1.302552834E1,3.756710514E-2,1.007134393E-1,-2.258607745E-1
1.304563787E1,1.835595965E-1,5.077667907E-2,-1.757712960E-1
1.306574746E1,3.023693860E-1,3.657447919E-2,-8.551861346E-2
1.308585704E1,3.413109183E-1,2.710634656E-2,-4.718795046E-2
1.310596657E1,2.912214398E-1,2.389939874E-2,-4.337015375E-2
1.312607615E1,1.785201132E-1,6.620056927E-2,-3.176405653E-2
1.314618574E1,2.764083818E-2,1.384332627E-1,-2.733541466E-2
1.316629527E1,-1.055238619E-1,1.927986592E-1,-1.603474095E-2
1.318640485E1,-1.765348613E-1,1.648524106E-1,1.908897609E-2
1.320651444E1,-1.246128380E-1,1.492757946E-1,1.091889441E-1
1.322662397E1,-4.581354442E-4,1.271325797E-1,1.908897758E-1
1.324673355E1,4.688252881E-2,1.263690293E-1,2.034121305E-1
1.326684313E1,-6.184828654E-2,2.140256017E-1,1.931804419E-1
1.328695272E1,-1.511846930E-1,5.225034952E-1,2.948864996E-1
1.330706225E1,-1.342336833E-1,7.410340905E-1,4.888305068E-1
1.332717183E1,-1.354553849E-1,3.604762256E-1,5.199837089E-1
1.334728142E1,-6.566607952E-2,5.016583204E-2,4.553866386E-1
1.336739095E1,2.299840003E-1,9.521581978E-2,4.211791754E-1
1.338750053E1,5.697677732E-1,1.473669056E-2,4.320217371E-1
1.340761011E1,6.791094542E-1,-2.095969617E-1,4.877615273E-1
1.342771964E1,4.585935771E-1,-3.939201236E-1,4.682144225E-1
1.344782923E1,1.725643501E-2,-4.423297644E-1,3.626905680E-1
1.346793881E1,-3.081724346E-1,-2.201340795E-1,2.548760176E-1
1.348804834E1,-3.527642787E-1,1.155264899E-1,1.986780763E-1
1.350815792E1,-1.114796251E-1,3.021403253E-1,2.486148328E-1
1.352826751E1,2.785463631E-1,2.486911863E-1,2.771719396E-1
1.354837709E1,6.007682681E-1,5.505260825E-2,2.451024652E-1
1.356848662E1,6.345176101E-1,-2.132620513E-1,1.670667231E-1
1.358859621E1,3.336753249E-1,-3.812450469E-1,8.994726092E-2
1.360870579E1,-6.261184067E-2,-3.172588050E-1,3.359659761E-2
1.362881532E1,-2.889307439E-1,-7.475243509E-2,-4.138490185E-2
1.364892490E1,-2.904578745E-1,9.429954737E-2,-1.171299592E-1
1.366903449E1,-1.852394342E-1,4.894413799E-2,-1.954711229E-1
1.368914402E1,-9.804098308E-2,-1.150683537E-1,-2.441861928E-1
1.370925360E1,-7.330167294E-2,-2.158581465E-1,-2.391466945E-1
1.372936318E1,-5.757235363E-2,-2.850365937E-1,-1.860029846E-1
1.374947277E1,2.214321308E-2,-2.945047319E-1,-1.498102844E-1
1.376958230E1,1.194206402E-1,-2.477749139E-1,-1.696628332E-1
1.378969188E1,1.017060652E-1,-3.244362473E-1,-2.473931462E-1
1.380980147E1,-9.391776472E-2,-4.394282401E-1,-3.474193811E-1
1.382991100E1,-3.576510847E-1,-3.551313281E-1,-3.936910629E-1
1.385002058E1,-4.112529159E-1,-2.115822136E-1,-3.243598938E-1
1.387013016E1,-1.279724985E-1,-2.106659412E-1,-1.951656938E-1
1.389023970E1,2.315111160E-1,-3.258106709E-1,-9.009996802E-2
1.391034928E1,4.156815708E-1,-3.389438689E-1,1.801999472E-2
1.393045886E1,2.574721277E-1,-4.965424538E-1,-4.581354442E-4
1.395056845E1,-2.551814318E-1,-5.426614285E-1,-1.944021434E-1
1.397067798E1,-7.606575489E-1,-2.467059344E-1,-3.116848171E-1
1.399078756E1,-8.370134830E-1,1.756949425E-1,-3.547495604E-1
1.401089714E1,-3.393256664E-1,6.374954581E-1,-2.499892414E-1
1.403100673E1,3.506263196E-1,5.489225984E-1,-9.666658193E-2
1.405111626E1,8.469397426E-1,-1.977618039E-2,3.451287001E-2
1.407122584E1,9.000834227E-1,-5.041780472E-1,2.657185495E-2
1.409133542E1,6.274928451E-1,-4.418716431E-1,-1.020114943E-1
1.411144496E1,2.163926363E-1,-6.375718117E-2,-2.826695740E-1
1.413155454E1,-1.441599578E-1,2.019613683E-1,-3.608580232E-1
1.415166412E1,-3.086305857E-1,2.114295065E-1,-3.364241421E-1
1.417177371E1,-2.518217862E-1,1.679066420E-1,-3.028275371E-1
1.419188324E1,-8.903098851E-2,1.580567285E-2,-2.829749882E-1
1.421199282E1,4.443913698E-2,-7.948649675E-2,-2.701472044E-1
1.423210240E1,6.337540597E-2,2.771719359E-2,-2.518217862E-1
1.425221194E1,-6.719320081E-3,1.685174853E-1,-2.273878902E-1
1.427232152E1,-1.122431830E-1,2.030303627E-1,-2.078407854E-1
1.429243110E1,-1.754658818E-1,1.196497083E-1,-1.965401024E-1
1.431254068E1,-1.672194302E-1,1.763821393E-2,-2.341072112E-1
1.433265022E1,-1.180462316E-1,-2.206685767E-2,-2.568612695E-1
1.435275980E1,-6.810946763E-2,3.092414327E-2,-2.281514555E-1
1.437286938E1,-1.511846948E-2,1.164427623E-1,-1.829487532E-1
1.439297897E1,2.412846684E-2,1.008661538E-1,-1.617218107E-1
1.441308850E1,3.451287001E-2,4.008685052E-2,-1.586675793E-1
1.443319808E1,-1.130067464E-2,-4.573718831E-2,-1.921114624E-1
1.445330766E1,-1.062874198E-1,-1.440836042E-1,-2.124221325E-1
1.447341725E1,-1.777565479E-1,-1.501920670E-1,-1.766875684E-1
1.449352678E1,-1.675248593E-1,-4.130854458E-2,-1.097997949E-1
1.451363636E1,-8.567132801E-2,1.034622565E-1,9.315420873E-3
1.453374595E1,1.298050396E-2,1.801235825E-1,1.464506239E-1
1.455385553E1,2.855710872E-2,7.918107510E-2,2.334963679E-1
1.457396506E1,-1.339282542E-1,-2.995442152E-1,2.173089087E-1
1.459407464E1,-2.945810854E-1,-4.189648628E-1,1.750077456E-1
1.461418423E1,-2.521272004E-1,-6.421531737E-2,1.928750277E-1
1.463429376E1,3.161134571E-2,3.303920031E-1,2.901524603E-1
1.465440334E1,3.724641204E-1,3.786489367E-1,3.471139669E-1
1.467451292E1,6.164975762E-1,1.633252800E-1,3.939964771E-1
1.469462251E1,6.326850653E-1,-2.311293334E-1,4.188885093E-1
1.471473209E1,4.019374847E-1,-5.281538367E-1,4.260659516E-1
1.473484162E1,1.044548824E-1,-3.985014856E-1,3.929274976E-1
1.475495121E1,-1.447708011E-1,-6.482616812E-2,2.843494117E-1
1.477506079E1,-2.567085624E-1,2.431935668E-1,2.273878902E-1
1.479517037E1,-1.771457046E-1,4.582118094E-1,1.878355294E-1
1.481527990E1,-4.275931045E-3,4.334724844E-1,1.606528312E-1
1.483538949E1,1.472141892E-1,2.387649268E-1,2.008160353E-1
1.485549907E1,1.980672181E-1,-6.490251981E-3,2.301367074E-1
1.487560865E1,1.360662282E-1,-9.628479928E-2,2.312056869E-1
1.489571819E1,8.093725890E-3,-2.359397523E-2,1.885990947E-1
1.491582777E1,-1.319430023E-1,2.359397523E-2,1.156028435E-1
1.493593735E1,-2.263189107E-1,-7.398887724E-2,6.612421572E-2
1.495604694E1,-2.195995897E-1,-1.701973230E-1,6.306997687E-2
1.497615647E1,-1.203369126E-1,-1.407239437E-1,8.368607610E-2
1.499626605E1,-8.093725890E-3,-4.726430774E-2,8.322793990E-2
1.501637563E1,1.481304597E-2,-5.031854287E-2,7.879929990E-2
1.503648522E1,-5.070032179E-2,-1.659213901E-1,9.391776472E-2
1.505659475E1,-9.284878522E-2,-2.500655949E-1,8.826743066E-2
1.507670433E1,-4.016320780E-2,-2.683910131E-1,7.223268598E-2
1.509681392E1,4.688252881E-2,-2.544942498E-1,7.711946964E-2
1.511692350E1,1.043021679E-1,-2.549523711E-1,9.284878522E-2
1.513703303E1,4.413371533E-2,-3.192440569E-1,9.193251282E-2
1.515714261E1,-1.627907902E-1,-4.455367327E-1,3.222219273E-2
1.517725220E1,-3.619270027E-1,-4.064424932E-1,-7.207997888E-2
1.519736178E1,-3.141281903E-1,-1.060583517E-1,-4.795150831E-2
1.521747131E1,-7.956285775E-2,-1.381278336E-1,1.985253580E-2
1.523758089E1,6.261184067E-2,-2.631988227E-1,-2.993151546E-2
1.525769048E1,1.801999360E-1,-8.399150101E-4,-8.338065445E-2
1.527780006E1,2.950392365E-1,1.520246118E-1,-1.670667231E-1
1.529790964E1,2.081461996E-1,3.550549597E-2,-2.922904193E-1
1.531801918E1,-1.102579311E-1,-2.102078199E-1,-4.466820657E-1
1.533812876E1,-3.298575282E-1,-2.141783237E-1,-5.108210444E-1
1.535823834E1,-2.594573796E-1,-8.475505747E-3,-4.593571424E-1
1.537834793E1,-5.008947477E-2,2.173852623E-1,-3.935383558E-1
1.539845751E1,6.215370819E-2,2.540360987E-1,-3.753656447E-1
1.541856704E1,2.733541466E-2,1.785964668E-1,-3.723114133E-1
1.543867662E1,-5.238015205E-2,1.366007179E-1,-3.920112252E-1
1.545878621E1,-1.122431830E-1,1.010188684E-1,-4.230117202E-1
1.547889579E1,-1.453816444E-1,1.202605516E-1,-4.095730782E-1
1.549900532E1,-1.840177327E-1,1.388913989E-1,-3.626905680E-1
1.551911490E1,-2.166980654E-1,1.028514057E-1,-3.110739589E-1
1.553922449E1,-1.992889196E-1,6.696412712E-2,-2.733541429E-1
1.555933407E1,-1.473668963E-1,5.138752609E-2,-2.667875290E-1
1.557944360E1,-6.902574003E-2,7.291989028E-2,-2.400629669E-1
1.559955319E1,3.054236248E-2,7.963921130E-2,-1.873773932E-1
1.561966277E1,1.279724985E-1,4.970769584E-2,-1.273616552E-1
1.563977235E1,1.627907902E-1,-4.810422193E-3,-1.062874198E-1
1.565988194E1,1.412584335E-1,-1.091889478E-2,-9.605573118E-2
1.567999147E1,1.108687744E-1,2.725905925E-2,-9.116895497E-2
1.570010105E1,8.735115826E-2,6.910209358E-2,-9.223793447E-2
1.572021063E1,4.138490185E-2,2.344126441E-2,-8.353336155E-2
1.574032022E1,2.137965336E-2,-5.306735635E-2,-5.971032009E-2
1.576042980E1,8.475505561E-2,-8.086090535E-2,-1.511846948E-2
1.578053933E1,1.795890927E-1,-5.551074445E-2,6.978929788E-2
1.580064892E1,2.376195788E-1,1.036149636E-1,1.479777545E-1
1.582075850E1,2.504473627E-1,5.167004466E-1,2.516690791E-1
1.584086808E1,1.018587798E-1,3.262687922E-1,3.486410677E-1
1.586097761E1,-2.044811249E-1,-1.567586809E-1,2.874036431E-1
1.588108720E1,-3.429907262E-1,-2.086806893E-1,1.918060333E-1
1.590119678E1,-1.493521482E-1,-9.827005118E-2,1.776038408E-1
1.592130636E1,6.841489673E-2,-1.672957987E-1,2.166980654E-1
1.594141595E1,9.834641218E-2,-2.828986347E-1,2.996205688E-1
1.596152553E1,2.932066843E-2,-2.613662779E-1,3.721587062E-1
1.598163506E1,-4.169032723E-2,-9.277242422E-2,4.169032574E-1
1.600174464E1,-6.673506647E-2,1.488176584E-1,3.831539452E-1
1.602185423E1,3.084778599E-2,3.595599532E-1,3.335226178E-1
1.604196381E1,2.333436459E-1,4.039991200E-1,3.359659910E-1
1.606207334E1,4.396573007E-1,2.949628830E-1,3.290939629E-1
1.608218292E1,5.257867575E-1,6.345175952E-2,2.522799075E-1
1.610229251E1,3.775036037E-1,-1.824142635E-1,1.437018216E-1
1.612240209E1,1.240019947E-1,-1.850103587E-1,8.444963396E-2
1.614251168E1,-2.657185495E-2,1.137703005E-2,3.527642787E-2
1.616262121E1,-4.169032723E-2,1.153737754E-1,3.955236077E-2
1.618273079E1,2.596100792E-2,7.001836598E-2,5.696150661E-2
1.620284037E1,8.948912472E-2,-4.810422193E-3,-1.038440317E-2
1.622294996E1,8.597674966E-2,-2.344126441E-2,-7.971556485E-2
1.624305954E1,3.909422457E-2,4.161396995E-2,-6.536065787E-2
1.626316907E1,1.099525020E-2,9.903360903E-2,-2.443389036E-3
1.628327865E1,1.695101149E-2,5.428905040E-2,4.871506989E-2
1.630338824E1,5.024218559E-2,-6.589514762E-2,7.864658535E-2
1.632349782E1,1.044548824E-1,-1.355317384E-1,6.093201414E-2
1.634360740E1,1.159082651E-1,-1.373642832E-1,1.374406368E-2
1.636371699E1,5.940489471E-2,-1.384332627E-1,-6.108472589E-3
1.638382652E1,-5.299099907E-2,-2.856474519E-1,6.261184346E-3
1.640393610E1,-1.435490996E-1,-4.533250332E-1,5.054761097E-2
1.642404568E1,-1.287360638E-1,-3.568111658E-1,1.250709742E-1
1.644415527E1,-9.101624042E-2,-2.633515298E-1,1.902789176E-1
1.646426485E1,-3.920112252E-1,-3.972797990E-1,-1.450762246E-2
1.648437438E1,-8.770239353E-1,-2.781645656E-1,-2.860292196E-1
1.650448397E1,-9.856020808E-1,3.206184506E-1,-4.329380095E-1
1.652459355E1,-5.679352283E-1,6.533774734E-1,-3.888042867E-1
1.654470313E1,3.252761811E-2,2.205922157E-1,-1.960819662E-1
1.656481272E1,5.209000111E-1,-2.696126997E-1,-8.307522535E-2
1.658492225E1,6.844543815E-1,-3.494809866E-1,-1.620272398E-1
1.660503183E1,5.650337338E-1,-9.888090193E-2,-2.602209449E-1
1.662514142E1,2.773246467E-1,1.986017078E-1,-3.295520842E-1
1.664525100E1,-5.955760926E-2,3.123720288E-1,-3.634541333E-1
1.666536058E1,-2.536543310E-1,2.774010003E-1,-3.959817290E-1
1.668547011E1,-2.049392611E-1,2.453315258E-1,-4.463766217E-1
1.670557970E1,-2.092151903E-2,2.121930718E-1,-4.443913698E-1
1.672568928E1,1.206423342E-1,1.384332627E-1,-3.655920923E-1
1.674579886E1,1.220167428E-1,6.986565888E-2,-2.531961799E-1
1.676590845E1,3.695625812E-2,3.352024406E-2,-1.586675793E-1
1.678601798E1,-1.801999472E-2,4.100312293E-2,-1.059819981E-1
1.680612756E1,5.650337320E-3,9.811734408E-2,-8.200624585E-2
1.682623714E1,6.291726977E-2,1.381278336E-1,-8.933641016E-2
1.684634673E1,1.078145429E-1,7.093463838E-2,-7.513421029E-2
1.686645631E1,1.566823274E-1,-1.122431830E-2,-1.191152167E-2
1.688656589E1,2.225011140E-1,-2.771719359E-2,2.153236605E-2
1.690667548E1,2.832804024E-1,5.245650932E-2,1.954711229E-2
1.692678501E1,2.553341687E-1,1.262163222E-1,-1.542389300E-2
1.694689459E1,1.162136942E-1,7.291989028E-2,-1.832541823E-2
1.696700418E1,1.603474095E-2,-4.573718831E-2,1.527118124E-2
1.698711376E1,2.611372061E-2,-5.749600008E-2,2.199050039E-2
1.700722334E1,7.864658535E-2,4.772244394E-2,3.497100621E-2
1.702733292E1,8.475505561E-2,2.546469569E-1,9.651386738E-2
1.704744246E1,9.208522737E-2,5.396072268E-1,2.194468826E-1
1.706755204E1,-5.497625098E-3,4.226299524E-1,2.119639963E-1
1.708766162E1,-3.307738006E-1,-3.985014856E-1,3.985778242E-2
1.710777121E1,-4.946335554E-1,-9.322292805E-1,-1.159082651E-1
1.712788079E1,-1.582094431E-1,-5.112028122E-1,-1.012479365E-1
1.714799032E1,4.337015450E-1,3.290176094E-1,4.153761268E-2
1.716809990E1,6.936170459E-1,4.901285768E-1,1.704263836E-1
1.718820949E1,4.801259339E-1,2.124984860E-1,2.799207568E-1
1.720831907E1,1.088835225E-1,-4.504998680E-3,2.996205688E-1
1.722842865E1,-1.974563748E-1,-1.503447890E-1,2.125748396E-1
1.724853824E1,-2.922904193E-1,4.543176666E-2,1.889045089E-1
1.726864782E1,-2.017323077E-1,3.717769086E-1,1.858502775E-1
1.728875735E1,-6.581879407E-2,4.821875691E-1,2.661767006E-1
1.730886694E1,7.986827940E-2,4.024719894E-1,3.819322586E-1
1.732897652E1,2.021904439E-1,1.873010397E-1,3.826957941E-1
1.734908610E1,2.418955117E-1,-4.695888236E-2,3.205420971E-1
1.736919568E1,2.356343269E-1,-1.592020690E-1,3.315373361E-1
1.738930522E1,2.648022771E-1,-1.286597103E-1,3.269560039E-1
1.740941480E1,2.745758295E-1,-4.863871261E-2,2.589992285E-1
1.742952438E1,1.646233350E-1,-1.268271655E-1,2.170034945E-1
1.744963397E1,-3.176405653E-2,-2.631988227E-1,1.895153672E-1
1.746974355E1,-1.853921413E-1,-2.618243992E-1,1.339282542E-1
1.748985313E1,-2.557922900E-1,-1.399603784E-1,7.696675509E-2
1.750996272E1,-2.776300907E-1,1.091889478E-2,6.902574003E-2
1.753007225E1,-2.695363462E-1,6.726955622E-2,9.177979827E-2
1.755018183E1,-2.272351831E-1,4.466820508E-2,1.004843712E-1
1.757029142E1,-1.498102844E-1,-5.887040496E-2,1.154501289E-1
1.759040100E1,-9.223793447E-2,-2.355579734E-1,1.353026628E-1
1.761051058E1,-9.513945878E-2,-4.131618142E-1,1.539335102E-1
1.763062016E1,-1.298050433E-1,-4.791333079E-1,1.299577504E-1
1.765072970E1,-8.628217876E-2,-1.109451354E-1,6.123743951E-2
1.767083928E1,3.298575059E-2,3.923930228E-1,4.230117425E-2
1.769094886E1,-3.756710514E-2,1.778329015E-1,6.383354217E-2
1.771105845E1,-3.025220931E-1,-1.900498569E-1,-3.329117596E-2
1.773116803E1,-4.016320705E-1,-3.993413970E-2,-1.459924877E-1
1.775127756E1,-1.918060333E-1,2.656421959E-1,-2.202104330E-1
1.777138714E1,4.856235534E-2,1.764585078E-1,-2.238755226E-1
1.779149673E1,1.270562261E-1,-1.723352820E-1,-1.832541823E-1
1.781160631E1,-3.405473381E-2,-5.168531537E-1,-2.400629669E-1
1.783171589E1,-2.577775419E-1,-4.046099484E-1,-3.590254784E-1
1.785182548E1,-4.190412164E-1,6.184828468E-3,-5.022691488E-1
1.787193506E1,-4.796678126E-1,3.458158970E-1,-5.230379701E-1
1.789204464E1,-4.485146105E-1,3.952945471E-1,-4.373666346E-1
1.791215418E1,-2.950392365E-1,2.615189850E-1,-3.370349705E-1
1.793226376E1,-5.741964281E-2,1.401130855E-1,-2.739650011E-1
1.795237334E1,1.139230132E-1,7.536327839E-2,-2.316638231E-1
1.797248292E1,1.320957243E-1,6.925480813E-2,-1.632489264E-1
1.799259251E1,4.245388508E-2,9.597937763E-2,-9.865183383E-2
1.801270209E1,-6.276455522E-2,8.223531395E-2,-6.322269142E-2
1.803281162E1,-7.681404054E-2,6.116108224E-2,-4.275930673E-2
1.805292121E1,2.580829710E-2,3.000787087E-2,-4.230117425E-2
1.807303079E1,1.551551968E-1,-3.474193811E-2,-2.779355086E-2
1.809314037E1,2.431172132E-1,-7.689040154E-2,1.145338640E-2
1.811324996E1,2.661767006E-1,-5.505260825E-2,3.695625812E-2
1.813335954E1,2.144073844E-1,4.352286924E-3,4.214845970E-2
1.815346912E1,1.020114943E-1,6.681142002E-2,4.184303805E-2
1.817357871E1,-1.817270555E-2,7.643226534E-2,2.977880463E-2
1.819368824E1,-9.956810623E-2,7.689040154E-2,2.718270384E-2
1.821379782E1,-1.320957243E-1,7.597412914E-2,3.817795217E-2
1.823390740E1,-9.651386738E-2,7.444700599E-2,7.528692484E-2
1.825401699E1,6.566607859E-3,2.225774676E-1,1.224748790E-1
1.827412657E1,4.795150831E-2,4.346941710E-1,2.144073844E-1
1.829423615E1,-1.672194302E-1,2.790808380E-1,3.141281903E-1
1.831434569E1,-5.480827093E-1,-1.746259630E-1,2.831276953E-1
1.833445527E1,-7.237012982E-1,-5.079958439E-1,1.853921413E-1
1.835456485E1,-3.834593594E-1,-3.577274382E-1,1.476723254E-1
1.837467444E1,3.319954872E-1,2.040993422E-1,2.087570578E-1
1.839478402E1,8.240329623E-1,4.122455418E-1,3.384093940E-1
1.841489360E1,8.681666851E-1,2.528144121E-1,5.073086619E-1
1.843500319E1,5.796940327E-1,-1.361425817E-1,5.793886185E-1
1.845511272E1,2.457133085E-1,-2.940466106E-1,5.373928547E-1
1.847522230E1,1.094943732E-1,-4.810422193E-3,4.298837483E-1
1.849533188E1,1.635543555E-1,3.308501542E-1,3.168770075E-1
1.851544147E1,2.211267054E-1,3.615452349E-1,2.744231224E-1
1.853555105E1,2.507528067E-1,2.334200144E-1,2.933593988E-1
1.855566063E1,2.470877171E-1,-1.504211407E-2,2.675510943E-1
1.857577022E1,2.009687424E-1,-1.619508862E-1,2.275405973E-1
1.859587980E1,1.365243644E-1,-8.101361990E-2,1.638597846E-1
1.861598933E1,3.894151375E-2,2.283041552E-2,9.147437662E-2
1.863609892E1,-7.788302749E-2,6.070294604E-2,8.292251825E-2
1.865620850E1,-1.359135211E-1,8.086090535E-2,1.043021679E-1
1.867631808E1,-1.447708011E-1,9.277242422E-2,9.361234307E-2
1.869642766E1,-1.600419879E-1,5.123481527E-2,7.269082218E-2
1.871653725E1,-1.921114624E-1,-1.687465608E-2,4.428642616E-2
1.873664678E1,-1.837123185E-1,-3.214583546E-2,5.360184610E-2
1.875675636E1,-9.972081333E-2,-3.588727675E-3,1.041494608E-1
1.877686595E1,7.375980914E-2,6.948387716E-3,1.624853760E-1
1.879697553E1,2.773246467E-1,-3.382566571E-2,2.055501044E-1
1.881708511E1,3.823903799E-1,-1.873010397E-1,2.098260373E-1
1.883719470E1,3.324536085E-1,-4.050680995E-1,1.916533262E-1
1.885730428E1,1.846285909E-1,-4.890595973E-1,1.356080920E-1
1.887741381E1,-1.771457121E-2,-3.630723357E-1,5.726693198E-2
1.889752339E1,-2.732014358E-1,-2.412083149E-1,-6.413896102E-3
1.891763298E1,-5.650337338E-1,-1.307976693E-1,-8.551861346E-2
1.893774256E1,-7.105680704E-1,-8.177717775E-2,-1.559187621E-1
1.895785214E1,-5.172349215E-1,-6.207735091E-2,-1.899735034E-1
1.897796173E1,-4.718795046E-2,2.695363574E-2,-2.060082406E-1
1.899807131E1,2.994678617E-1,3.283303929E-3,-2.852656841E-1
1.901818089E1,2.270824611E-1,-1.914242655E-1,-4.335488379E-1
1.903829048E1,-8.093725890E-2,-2.541888058E-1,-5.462501645E-1
1.905840001E1,-2.461714447E-1,-3.855973482E-2,-5.816792846E-1
1.907850959E1,-1.982199401E-1,2.593810260E-1,-5.612159371E-1
1.909861918E1,-9.834641218E-2,4.336251915E-1,-5.212054253E-1
1.911872876E1,-6.322269142E-2,4.395809472E-1,-4.647020400E-1
1.913883834E1,-6.505523622E-2,2.786227167E-1,-4.390464723E-1
1.915894792E1,-3.023693897E-2,9.384141117E-2,-3.991886973E-1
1.917905746E1,7.330167107E-3,-5.047125369E-2,-3.741439581E-1
1.919916704E1,3.252761811E-2,9.849912487E-3,-3.258870244E-1
1.921927662E1,3.497100621E-2,1.479013860E-1,-2.597627938E-1
1.923938621E1,-1.466033421E-2,2.147891670E-1,-2.154763639E-1
1.925949579E1,-1.047603041E-1,1.711135954E-1,-2.093679011E-1
1.927960537E1,-2.194468826E-1,4.253023863E-2,-2.452551723E-1
1.929971496E1,-2.924431264E-1,-4.940227047E-2,-2.547233105E-1
1.931982454E1,-2.702999115E-1,-8.284615725E-2,-2.118112892E-1
1.933993407E1,-1.826433241E-1,-1.059056446E-1,-1.324011385E-1
1.936004365E1,-7.711946964E-2,-5.230379477E-2,-8.551861346E-2
1.938015324E1,-1.786728203E-2,4.726430774E-2,-1.078145429E-1
1.940026282E1,-2.244863659E-2,7.475243509E-2,-1.305686086E-1
1.942037240E1,-6.566607859E-3,1.366770733E-2,-1.157555580E-1
1.944048199E1,9.804098308E-2,-1.275143679E-2,-6.291726977E-2
1.946059157E1,1.852394342E-1,-2.893888950E-2,-2.626643144E-2
1.948070110E1,1.827960461E-1,-4.191939160E-2,-1.038440317E-2
1.950081068E1,1.476723254E-1,-5.306735635E-2,4.886778072E-3
1.952092027E1,1.543916464E-1,-6.497887522E-2,3.894151375E-2
1.954102985E1,2.023431510E-1,4.863871261E-2,1.070509851E-1
1.956113944E1,8.857285231E-2,-2.970244735E-2,1.527118087E-1
1.958124902E1,-2.225011140E-1,-2.731250823E-1,1.858502775E-1
1.960135860E1,-4.275930822E-1,-3.800233603E-1,2.283041626E-1
1.962146813E1,-3.384093940E-1,-4.499653578E-1,1.748550236E-1
1.964157772E1,4.031591862E-2,-2.341835648E-1,6.704048812E-2
1.966168730E1,4.608842432E-1,2.447206825E-1,8.093725890E-3
1.968179688E1,5.526640415E-1,2.677801549E-1,4.199574888E-2
1.970190647E1,2.008160353E-1,-2.929776311E-1,1.198787764E-1
1.972201605E1,-2.463241518E-1,-5.446466804E-1,1.029277667E-1
1.974212563E1,-3.859027624E-1,-6.681142002E-2,4.581354442E-4
1.976223522E1,-2.179197669E-1,4.699706137E-1,-2.412846684E-2
1.978234475E1,5.085303262E-2,5.660263300E-1,7.971556485E-2
1.980245433E1,2.690782249E-1,3.719296157E-1,1.940967143E-1
1.982256392E1,3.979669809E-1,7.658497244E-2,2.423536479E-1
1.984267350E1,3.828485310E-1,-2.407501787E-1,1.797417998E-1
1.986278308E1,2.495311052E-1,-3.655157387E-1,8.719844371E-2
1.988289266E1,1.053711548E-1,-2.526617050E-1,9.468132630E-3
1.990300225E1,4.886778072E-3,-1.323247850E-1,-6.810946763E-2
1.992311178E1,-1.298050396E-2,-8.101361990E-2,-1.036913246E-1
1.994322136E1,7.070557028E-2,-4.039227590E-2,-1.357607991E-1
1.996333095E1,2.072299272E-1,-2.832804248E-2,-1.580567211E-1
1.998344053E1,2.783936262E-1,-3.489464894E-2,-1.291942000E-1
2.000355011E1,2.330382317E-1,-3.932329267E-2,-7.910472155E-2
2.002365970E1,1.605001241E-1,-3.687990457E-2,-4.810422286E-2
2.004376928E1,1.514901221E-1,-4.741701856E-2,-3.161134571E-2
2.006387886E1,2.318165302E-1,-6.100837141E-2,-1.206423342E-2
2.008398839E1,3.501681983E-1,-8.055548370E-2,9.926267900E-3
2.010409798E1,3.746020794E-1,-1.905079931E-1,2.702999115E-2
2.012420756E1,2.548760176E-1,-3.548259139E-1,4.657710344E-2
2.014431714E1,8.276980370E-2,-4.134672284E-1,4.764608666E-2
2.016442673E1,-8.765657991E-2,-3.925457299E-1,8.857285604E-3
2.018453631E1,-2.449497581E-1,-2.972535491E-1,-5.955760926E-2
2.020464589E1,-2.968717813E-1,-8.360971510E-2,-8.994726092E-2
2.022475542E1,-1.986780763E-1,1.204132661E-1,-3.054236295E-3
2.024486501E1,-2.200577259E-1,-2.661003470E-1,2.305948362E-2
2.026497459E1,-4.278984964E-1,-6.326087117E-1,-1.081199646E-1
2.028508418E1,-5.007420182E-1,-2.360161096E-1,-2.356343269E-1
2.030519376E1,-3.428380191E-1,3.951418102E-1,-3.269560039E-1
2.032530334E1,-1.055238619E-1,4.327089190E-1,-3.074088693E-1
2.034541292E1,2.993151546E-2,4.008685052E-2,-2.487675399E-1
2.036552246E1,1.511846948E-2,-3.108448982E-1,-2.710634768E-1
2.038563204E1,-6.688777357E-2,-3.345152438E-1,-3.683409095E-1
2.040574162E1,-1.427855492E-1,-8.498412371E-2,-4.795151055E-1
2.042585121E1,-2.232646793E-1,1.275907159E-1,-4.906630516E-1
2.044596079E1,-2.467822880E-1,1.982962936E-1,-4.369085133E-1
2.046607037E1,-2.244863659E-1,1.607291847E-1,-4.731011987E-1
2.048617996E1,-2.055501044E-1,4.207210615E-2,-5.253286362E-1
2.050628954E1,-1.580567211E-1,-9.926267667E-4,-5.212054253E-1
2.052639907E1,-8.078455180E-2,1.097234413E-1,-4.758500159E-1
2.054650865E1,-3.176405653E-2,1.845522225E-1,-3.918585181E-1
2.056661824E1,-3.756710514E-2,1.249946207E-1,-3.246653080E-1
2.058672782E1,-9.284878522E-2,-5.573981442E-3,-3.002314270E-1
2.060683740E1,-1.432436854E-1,-1.208714023E-1,-2.935121059E-1
2.062694699E1,-1.033858955E-1,-1.002553031E-1,-2.535016239E-1
2.064705657E1,1.191152167E-2,-2.435753495E-2,-1.656923145E-1
2.066716615E1,1.172826737E-1,5.337277800E-2,-8.276980370E-2
2.068727569E1,1.655396074E-1,1.220930964E-1,-5.405998230E-2
2.070738527E1,1.287360638E-1,1.191915721E-1,-6.765133142E-2
2.072749485E1,7.635590737E-4,6.635328382E-2,-7.345438004E-2
2.074760444E1,-1.249182671E-1,-3.993413970E-2,-3.863608837E-2
2.076771402E1,-1.264453828E-1,-1.442363113E-1,2.183778957E-2
2.078782360E1,-3.603998944E-2,-1.975327283E-1,9.300149232E-2
2.080793318E1,1.258345395E-1,-4.543176666E-2,1.783674061E-1
2.082804272E1,3.051182032E-1,3.067216873E-1,2.476985604E-1
2.084815230E1,3.133646548E-1,6.080220938E-1,3.591781855E-1
2.086826188E1,7.941014133E-3,2.283805162E-1,4.253024161E-1
2.088837147E1,-4.656183124E-1,-5.090648532E-1,3.019112647E-1
2.090848105E1,-6.639909744E-1,-7.585959435E-1,2.212794125E-1
2.092859063E1,-3.199312389E-1,-2.964899838E-1,2.041756958E-1
2.094870016E1,4.159869850E-1,5.176166892E-1,3.350497186E-1
2.096880975E1,8.043331504E-1,5.722874999E-1,4.631749392E-1
2.098891933E1,6.258130074E-1,1.301868260E-1,5.334223509E-1
2.100902892E1,1.478250325E-1,-2.022667974E-1,4.766135812E-1
2.102913850E1,-2.118112892E-1,-7.230904698E-2,3.750602305E-1
2.104924808E1,-2.162399292E-1,2.891598344E-1,3.332171738E-1
2.106935767E1,-3.481829539E-2,4.537831545E-1,3.374931216E-1
2.108946725E1,1.174353883E-1,4.371375740E-1,3.471139669E-1
2.110957678E1,1.482831687E-1,1.824142635E-1,3.119902313E-1
2.112968636E1,7.116370648E-2,-1.643942744E-1,2.347180545E-1
2.114979595E1,-1.588202827E-2,-2.457896620E-1,2.073826492E-1
2.116990553E1,-5.024218559E-2,-3.733803704E-2,1.785201132E-1
2.119001511E1,-4.749337584E-2,1.217876747E-1,1.487413049E-1
2.121012470E1,-4.993676394E-2,6.635328382E-2,1.284306347E-1
2.123023428E1,-5.085303262E-2,-1.870719716E-2,9.345962852E-2
2.125034381E1,-2.244863659E-2,3.764346242E-2,5.222744122E-2
2.127045339E1,-4.474456236E-2,2.603736520E-2,3.848337755E-2
2.129056298E1,-1.553079188E-1,-1.048366576E-1,5.451811850E-2
2.131067256E1,-2.367033064E-1,-1.879118830E-1,5.451811850E-2
2.133078214E1,-2.003578991E-1,-1.634780020E-1,3.817795217E-2
2.135089173E1,-1.088835225E-1,-1.251473278E-1,4.611896724E-2
2.137100131E1,-5.054761097E-2,-1.631725729E-1,6.536065787E-2
2.139111084E1,-4.230117425E-2,-2.433462739E-1,7.895200700E-2
2.141122042E1,-2.031067200E-2,-3.048891425E-1,9.391776472E-2
2.143133001E1,3.390202299E-2,-3.516189456E-1,1.090362370E-1
2.145143959E1,7.879929990E-2,-3.661265671E-1,1.050657257E-1
2.147154918E1,1.235438585E-1,-2.273115367E-1,9.575030953E-2
2.149165876E1,1.067455560E-1,-2.149418741E-1,1.316375881E-1
2.151176829E1,-1.459924877E-1,-6.998018622E-1,7.116370648E-2
2.153187787E1,-3.903313875E-1,-5.530458093E-1,-2.275406010E-2
2.155198746E1,-4.718795121E-1,-1.220930964E-1,-1.614163816E-1
2.157209704E1,-3.410054743E-1,1.069746241E-1,-2.680092454E-1
2.159220662E1,-1.801999472E-2,1.086544544E-1,-3.080197275E-1
2.161231621E1,3.035911024E-1,-8.849649876E-2,-4.004103839E-1
2.163242579E1,4.329380095E-1,-3.791070879E-1,-4.802786708E-1
2.165253532E1,2.414373755E-1,-4.357631505E-1,-5.729747415E-1
2.167264490E1,-1.498102844E-1,-1.069746241E-1,-6.836907864E-1
2.169275449E1,-4.541649222E-1,3.655157387E-1,-7.249229550E-1
2.171286407E1,-5.428904891E-1,6.112290621E-1,-6.363501549E-1
2.173297365E1,-4.605788291E-1,5.046361685E-1,-4.914266169E-1
2.175308324E1,-2.780882120E-1,2.054737508E-1,-3.420744538E-1
2.177319282E1,-6.215370819E-2,1.443126611E-2,-2.199050188E-1
2.179330235E1,1.024696305E-1,2.893888950E-2,-1.400367320E-1
2.181341194E1,1.276670843E-1,1.023932695E-1,-8.429691941E-2
2.183352152E1,4.214845970E-2,7.918107510E-2,-2.718270384E-2
2.185363110E1,-3.665083647E-2,4.955498502E-2,8.551862091E-3
2.187374068E1,-4.611896724E-2,4.283566400E-2,1.282779220E-2
2.189385027E1,-1.481304597E-2,5.199837312E-2,-1.130067464E-2
2.191395985E1,-1.099525020E-2,2.741177008E-2,-5.283828825E-2
2.193406938E1,-3.787253052E-2,1.855448633E-2,-8.674030751E-2
2.195417897E1,-4.077405483E-2,4.344651103E-2,-1.174353883E-1
2.197428855E1,-8.399149403E-3,8.788564801E-2,-1.385096163E-1
2.199439813E1,3.771981969E-2,1.234675050E-1,-1.302631795E-1
2.201450772E1,9.284878522E-2,1.172063202E-1,-1.159082651E-1
2.203461730E1,1.516428292E-1,7.444700599E-2,-8.612946421E-2
2.205472683E1,1.974563748E-1,9.849912487E-3,-5.054761097E-2
2.207483642E1,2.229592502E-1,-4.558447748E-2,-3.115320951E-2
2.209494600E1,2.461714447E-1,-5.337277800E-2,5.955760833E-3
2.211505558E1,2.495311052E-1,4.046862945E-3,5.070032179E-2
2.213516516E1,1.811162084E-1,1.640888453E-1,1.406475753E-1
2.215527475E1,-2.870982140E-2,-4.359922186E-2,2.134911120E-1
2.217538428E1,-2.774773538E-1,-2.448733896E-1,1.983726472E-1
2.219549386E1,-3.545968235E-1,1.320957206E-2,1.969982386E-1
2.221560345E1,-3.477247953E-1,-6.849125028E-2,1.688992679E-1
2.223571303E1,-2.903051674E-1,-2.850365937E-1,1.236965731E-1
2.225582261E1,2.779355086E-2,1.639361382E-1,1.814216375E-1
2.227593220E1,4.859289825E-1,6.707866192E-1,3.387148082E-1
2.229604173E1,7.105680704E-1,4.452312887E-1,5.219689608E-1
2.231615131E1,6.012263894E-1,-2.215084881E-1,6.904101372E-1
2.233626089E1,3.093941510E-1,-5.423560143E-1,6.624638438E-1
2.235637048E1,9.009996802E-2,-2.001288384E-1,5.164713860E-1
2.237648006E1,2.672456764E-2,4.333197773E-1,3.523061574E-1
2.239658964E1,6.261184067E-2,7.811973095E-1,3.000787199E-1
2.241669918E1,9.437590092E-2,7.022452950E-1,3.729222417E-1
2.243680876E1,1.330119967E-1,3.433725238E-1,4.688252807E-1
2.245691834E1,1.722589284E-1,-9.842276573E-2,4.789042473E-1
2.247702792E1,2.434226274E-1,-2.352525443E-1,4.282039404E-1
2.249713751E1,2.820587158E-1,-1.491230875E-1,3.197785318E-1
2.251724709E1,1.951656938E-1,-4.359922186E-2,2.063136548E-1
2.253735668E1,2.458660305E-2,2.252499200E-2,1.061347127E-1
2.255746621E1,-1.143811494E-1,6.131379306E-2,1.450762246E-2
2.257757579E1,-1.249182671E-1,9.491039068E-2,-1.267508045E-2
2.259768537E1,-1.496575773E-2,7.658497244E-2,7.330167107E-3
2.261779496E1,1.252236813E-1,2.863346599E-2,4.856235534E-2
2.263790454E1,1.861557066E-1,-3.520007432E-2,6.139015034E-2
2.265801407E1,1.325538605E-1,-1.382805556E-1,2.275406010E-2
2.267812365E1,4.993676394E-2,-2.065427303E-1,-1.588202827E-2
2.269823324E1,5.222744122E-2,-1.679066420E-1,-3.145863488E-2
2.271834282E1,1.221694499E-1,-1.388913989E-1,-4.001049697E-2
2.273845240E1,1.658450365E-1,-2.140256017E-1,-4.428642616E-2
2.275856199E1,1.356080920E-1,-2.786227167E-1,-4.474456236E-2
2.277867152E1,5.360184610E-2,-3.281013370E-1,-6.520794332E-2
2.279878110E1,-2.901524538E-3,-3.433725238E-1,-9.315420687E-2
2.281889069E1,6.765133142E-2,-1.970745921E-1,-6.047387794E-2
2.283900027E1,2.067717910E-1,-1.359898746E-1,5.467082933E-2
2.285910985E1,6.459710002E-2,-7.718818784E-1,1.139230132E-1
2.287921944E1,-3.008422852E-1,-1.157021046E0,1.893626526E-2
2.289932897E1,-5.723638535E-1,-7.324821949E-1,-2.034121305E-1
2.291943855E1,-6.230642200E-1,7.093463838E-2,-5.085303187E-1
2.293954813E1,-4.775298536E-1,7.083537579E-1,-6.678087711E-1
2.295965772E1,-1.397313178E-1,1.118843079E0,-5.851916671E-1
2.297976730E1,3.289412558E-1,1.083872080E0,-4.135435820E-1
2.299987683E1,6.836907864E-1,4.386646748E-1,-2.076880634E-1
2.301998642E1,6.806365848E-1,-4.579063654E-1,-9.300149232E-2
2.304009600E1,3.168770075E-1,-8.338828683E-1,-2.073826492E-1
2.306020558E1,-2.035648525E-1,-4.014030099E-1,-4.248442650E-1
2.308031517E1,-5.685460567E-1,3.604762256E-1,-5.612159371E-1
2.310042475E1,-6.369609833E-1,7.107971311E-1,-5.065450668E-1
2.312053428E1,-5.239542127E-1,5.666372180E-1,-2.947337925E-1
2.314064386E1,-2.666348219E-1,1.588966399E-1,-1.557660475E-2
2.316075345E1,8.842013776E-2,-1.121668294E-1,1.171299592E-1
2.318086303E1,3.399364948E-1,-1.234675050E-1,7.681404054E-2
2.320097261E1,2.990097404E-1,-5.780142173E-2,-4.123218823E-3
2.322108214E1,7.635590620E-3,-2.909160033E-2,-4.352286831E-2
2.324119173E1,-2.728960216E-1,1.168245357E-2,-3.206948191E-2
2.326130131E1,-3.188622594E-1,6.161921844E-2,2.137965523E-3
2.328141089E1,-1.640124917E-1,2.191414498E-2,5.589252338E-2
2.330152048E1,4.718795046E-2,-4.848600179E-2,1.449235082E-1
2.332163006E1,1.847812980E-1,-2.099787444E-2,2.058555335E-1
2.334173959E1,1.404948682E-1,8.467870206E-2,2.060082406E-1
2.336184918E1,-5.360184610E-2,1.343100369E-1,1.916533262E-1
2.338195876E1,-2.008160353E-1,1.544679999E-1,2.015796006E-1
2.340206834E1,-1.801999360E-1,2.242573053E-1,2.273878902E-1
2.342217792E1,-5.436540768E-2,3.004604876E-1,2.762556672E-1
2.344228746E1,1.618745178E-2,2.664057612E-1,3.222219348E-1
2.346239704E1,-3.512371704E-2,2.007396817E-1,3.292466700E-1
2.348250662E1,-1.249182671E-1,1.318666488E-1,3.013004065E-1
2.350261621E1,-1.721062213E-1,1.137703005E-2,2.693836391E-1
2.352272579E1,-1.447708011E-1,-8.452598751E-2,2.716743052E-1
2.354283532E1,-3.344388679E-2,-9.246700257E-2,2.754921019E-1
2.356294490E1,1.113269106E-1,-8.933641016E-3,2.646495700E-1
2.358305449E1,8.719844371E-2,5.276193097E-2,1.004843712E-1
2.360316407E1,-1.145338640E-2,-6.284090877E-2,2.394521236E-1
2.362327365E1,-5.772506446E-2,-9.567394853E-2,1.507265568E-1
2.364338318E1,-3.909422457E-2,-7.902836055E-2,1.640124917E-1
2.366349277E1,-7.299624383E-2,-7.429429889E-2,1.293469071E-1
2.368360235E1,-1.107160673E-1,-2.496838197E-2,1.000262350E-1
2.370371194E1,-1.139230132E-1,-1.458397787E-2,1.102579311E-1
2.372382152E1,-5.024218559E-2,-2.344126441E-2,1.116323397E-1
2.374393105E1,2.260134928E-2,-3.458922729E-2,6.749862432E-2
2.376404063E1,3.237490356E-2,-2.771719359E-2,3.283303976E-2
2.378415022E1,-1.191152167E-2,1.198787708E-2,2.031067200E-2
2.380425980E1,-3.512371704E-2,8.528954536E-2,1.817270555E-2
2.382436938E1,-1.206423342E-2,9.368869662E-2,2.229592577E-2
2.384447892E1,1.191152167E-2,2.878617682E-2,2.489202656E-2
2.386458850E1,5.803049076E-3,-2.512109280E-2,1.847812906E-2
2.388469808E1,-4.123218823E-3,-1.061347127E-2,1.786728203E-2
2.390480766E1,8.551862091E-3,3.428380191E-2,2.443389036E-2
2.392491725E1,1.282779220E-2,3.733803704E-2,2.260134928E-2
2.394502678E1,-1.374406368E-2,2.191414498E-2,2.412846684E-2
2.396513636E1,-1.084253844E-2,4.329380020E-2,2.855710872E-2
2.398524595E1,4.917320609E-2,7.734853774E-2,4.703523964E-2
2.400535553E1,9.727742523E-2,7.948649675E-2,7.375980914E-2
2.402546506E1,9.575030953E-2,9.216158092E-2,7.482878864E-2
2.404557464E1,5.696150661E-2,1.152210608E-1,5.146388337E-2
2.406568423E1,1.618745178E-2,1.126249656E-1,3.603998944E-2
2.408579381E1,-7.024743594E-3,1.147629321E-1,2.733541466E-2
2.410590339E1,-3.741439432E-2,1.138466597E-1,2.764083818E-2
2.412601292E1,-4.566083103E-2,1.091125906E-1,3.695625812E-2
2.414612251E1,-1.985253533E-3,1.178171635E-1,3.924693540E-2
2.416623209E1,3.008422814E-2,1.193442866E-1,2.061609551E-2
2.418634168E1,2.061609551E-2,1.031568274E-1,2.443389036E-3
2.420645121E1,-1.481304597E-2,9.903360903E-2,-7.941014133E-3
2.422656079E1,-3.756710514E-2,9.964445978E-2,-1.160609815E-2
2.424667037E1,-5.512896553E-2,7.948649675E-2,-2.626643144E-2
2.426677996E1,-5.696150661E-2,3.428380191E-2,-4.459185153E-2
2.428688949E1,2.748812549E-3,4.268295318E-2,-8.475505561E-2
2.430699907E1,6.352811307E-2,5.764871091E-2,-7.192726433E-2
2.432710865E1,7.513421029E-2,4.314108938E-2,-4.825693369E-2
2.434721824E1,3.955236077E-2,4.176668078E-2,-3.970507160E-2
2.436732782E1,-1.221694518E-3,3.031329438E-2,-5.665608495E-2
2.438743735E1,-1.466033421E-2,-8.780929260E-3,-6.047387794E-2
2.440754694E1,-6.719320081E-3,-1.672194339E-2,-4.825693369E-2
2.442765652E1,7.330167107E-3,1.336228382E-2,-3.817795217E-2
2.444776610E1,9.162709117E-3,2.283041552E-2,-3.787253052E-2
2.446787563E1,-1.252236869E-2,3.588727675E-3,-5.100574717E-2
2.448798522E1,-5.589252338E-2,-4.955498502E-2,-6.551336497E-2
2.450809480E1,-8.887827396E-2,-6.757497787E-2,-7.040014863E-2
2.452820438E1,-8.246438205E-2,-1.870719716E-2,-8.170082420E-2
2.454831397E1,-2.015795931E-2,3.443651274E-2,-9.407047927E-2
2.456842350E1,6.872031838E-3,-1.244601328E-2,-7.620319724E-2
2.458853308E1,2.932066843E-2,-3.840702027E-2,-1.018587798E-1
2.460864266E1,8.063183725E-2,-1.672194339E-2,-8.017370105E-2
2.462875225E1,1.679830020E-3,-1.091889478E-2,-3.649812192E-2
2.464886178E1,-8.704573661E-2,3.596363217E-2,4.581354442E-4
2.466897136E1,-9.513945878E-2,6.284090877E-2,-7.482878864E-3
2.468908095E1,-4.260659590E-2,1.779092662E-2,-2.718270384E-2
2.470919053E1,-4.886778072E-3,-4.848600179E-2,-2.764083818E-2
2.472930006E1,-5.497625098E-3,-6.375718117E-2,-1.511846948E-2
2.474940964E1,-1.634016447E-2,-5.932854116E-2,-2.458660305E-2
2.476951923E1,-7.941014133E-3,-2.817532979E-2,-3.130592033E-2
2.478962881E1,1.893626526E-2,-7.559234742E-3,-2.519745007E-2
2.480973834E1,3.955236077E-2,4.657710437E-3,-7.024743594E-3
2.482984793E1,3.741439432E-2,3.741439432E-3,-2.290677279E-3
2.484995751E1,1.817270555E-2,-2.619007602E-2,-2.473931387E-2
2.487006709E1,4.581354442E-4,-4.054498672E-2,-3.970507160E-2
2.489017662E1,-6.261184346E-3,-1.137703005E-2,-3.420744836E-2
2.491028621E1,-1.404948719E-2,2.084516361E-2,-2.794626169E-2
2.493039579E1,-2.321219631E-2,4.665346071E-2,-3.161134571E-2
2.495050537E1,-3.390202299E-2,5.199837312E-2,-4.428642616E-2
2.497061490E1,-4.886778072E-2,3.794888780E-2,-4.352286831E-2
2.499072449E1,-4.657710344E-2,3.229855001E-2,-2.641914412E-2
2.501083407E1,-1.939439960E-2,3.153498843E-2,-4.275931045E-3
2.503094365E1,1.771457121E-2,4.039227590E-2,2.183778957E-2
2.505105318E1,4.016320780E-2,1.855448633E-2,3.817795217E-2
2.507116277E1,5.115845799E-2,1.603474026E-3,4.062134400E-2
2.509127235E1,4.779879749E-2,-2.954973653E-2,3.817795217E-2
2.511138194E1,2.244863659E-2,-4.680617154E-2,1.679829881E-2
2.513149147E1,2.137965523E-3,-2.176143415E-2,4.123218823E-3
2.515160105E1,-9.009997360E-3,7.101099472E-3,8.857285604E-3
2.517171063E1,-2.076880634E-2,-6.642963737E-3,1.023169141E-2
2.519182017E1,-1.740914769E-2,-1.320957206E-2,6.108472589E-4
2.521192975E1,-1.236965694E-2,-3.130592173E-3,-6.108472589E-3
2.523203933E1,-1.634016447E-2,-8.628217503E-3,-5.650337320E-3
2.525214892E1,-1.771457121E-2,-1.198787708E-2,-1.603474095E-2
2.527225845E1,-1.603474095E-2,-2.008160390E-2,-1.985253580E-2
2.529236803E1,-1.985253533E-3,-1.183516532E-2,-1.969982497E-2
2.531247761E1,-7.482878864E-3,-2.466295846E-2,-2.504473738E-2
2.533258720E1,-2.535016090E-2,-1.015533600E-2,-8.399149403E-3
2.535269673E1,-3.848337755E-2,2.977880416E-3,-7.941014133E-3
2.537280631E1,-3.420744836E-2,-1.824906096E-2,-2.489202656E-2
2.539291589E1,-1.695101149E-2,-4.100312293E-2,-3.222219273E-2
2.541302548E1,6.108472589E-3,-9.849912487E-3,-1.710372418E-2
2.543313501E1,7.177455351E-3,1.595838554E-2,-6.719320081E-3
2.545324459E1,-1.588202827E-2,6.032116711E-3,-8.704573847E-3
2.547335418E1,-2.397575416E-2,1.298050396E-3,-1.298050396E-2
2.549346371E1,-1.221694518E-2,6.795675959E-3,-1.481304597E-2
2.551357329E1,-1.985253533E-3,2.725905925E-2,-1.435491070E-2
2.553368287E1,-9.009997360E-3,4.085041210E-2,-1.053711493E-2
2.555379246E1,-1.221694518E-3,3.229855001E-2,-2.443389036E-3
2.557390199E1,3.451287001E-2,3.275668249E-2,-5.039489828E-3
2.559401157E1,5.512896553E-2,2.298312820E-2,-1.160609815E-2
2.561412115E1,4.382828996E-2,-1.992889121E-2,-1.588202827E-2
2.563423069E1,2.932066843E-2,-8.322793990E-3,-2.153236605E-2
2.565434027E1,2.321219631E-2,3.611634299E-2,-2.794626169E-2
2.567444985E1,1.206423342E-2,4.986040667E-2,-2.321219631E-2
2.569455944E1,6.413896102E-3,1.855448633E-2,-1.679829881E-2
2.571466897E1,2.626643144E-2,2.214321401E-3,-1.679829881E-2
2.573477855E1,5.421269313E-2,-2.389939874E-2,-2.718270384E-2
2.575488813E1,6.612421572E-2,-2.863346599E-2,-3.038965166E-2
2.577499766E1,5.039490014E-2,4.199574701E-3,-1.924168877E-2
2.579510725E1,3.069507517E-2,1.840177365E-2,-1.145338640E-2
2.581521683E1,3.313846514E-2,-3.436015919E-3,-1.588202827E-2
2.583532642E1,4.718795046E-2,-1.718007959E-2,-2.687728032E-2
2.585543595E1,4.398100078E-2,-2.619007602E-2,-2.748812735E-2
2.587554553E1,1.679829881E-2,2.519744914E-3,-2.351761982E-2
2.589565511E1,-2.748812549E-3,2.786990628E-2,-1.328592747E-2
2.591576470E1,4.428642802E-3,1.168245357E-2,-2.061609551E-2
2.593587423E1,1.664558798E-2,-1.977618039E-2,-3.680354729E-2
2.595598381E1,1.695101149E-2,-2.145601064E-2,-4.123219103E-2
2.597609339E1,-7.635590620E-3,-2.756448276E-2,-4.459185153E-2
2.599620293E1,-4.459185153E-2,-4.756972939E-2,-4.871506989E-2
2.601631251E1,-6.887302548E-2,-2.359397523E-2,-4.840964451E-2
2.603642209E1,-7.101099193E-2,3.077143058E-2,-2.641914412E-2
2.605653162E1,-5.879404768E-2,3.077143058E-2,-3.206948051E-3
2.607664121E1,-2.809897438E-2,1.145338640E-3,8.704573847E-3
2.609675079E1,6.566607859E-3,-2.313583903E-2,1.328592747E-2
2.611686037E1,1.481304597E-2,-2.298312820E-2,5.344913341E-3
2.613696990E1,-3.054236295E-4,-1.122431830E-2,-2.596100792E-3
2.615707949E1,-2.137965336E-2,3.436015919E-3,-1.038440317E-2
2.617718907E1,-2.565558441E-2,7.711946499E-3,-1.740914769E-2
2.619729860E1,-1.832541823E-2,-1.397313084E-2,-2.168507688E-2
2.621740818E1,-5.497625098E-3,-1.214058883E-2,-2.260134928E-2
2.623751777E1,-5.803049076E-3,1.611109637E-2,-1.298050396E-2
2.625762730E1,-2.305948362E-2,2.420482226E-2,4.275931045E-3
2.627773688E1,-2.061609551E-2,3.336753324E-2,9.468132630E-3
2.629784647E1,-7.635590620E-3,1.183516532E-2,2.137965523E-3
2.631795605E1,1.068982761E-3,-2.832804248E-2,-4.275931045E-3
2.633806558E1,4.734066315E-3,-4.008685052E-2,-1.191152167E-2
2.635817517E1,-1.267508045E-2,-6.872031372E-4,-3.512371797E-3
2.637828475E1,-3.497100621E-2,2.099787444E-2,8.399149403E-3
2.639839428E1,-3.894151375E-2,1.779092662E-2,7.024743594E-3
2.641850386E1,-2.321219631E-2,1.534753758E-2,7.024743594E-3
2.643861345E1,-9.773556143E-3,1.504211407E-2,8.704573847E-3
2.645872298E1,-1.343864016E-2,8.170082234E-3,1.068982668E-2
2.647883256E1,-1.007897966E-2,-1.603474026E-3,1.572931744E-2
2.649894214E1,-2.290677279E-3,-2.008160390E-2,6.719320081E-3
2.651905168E1,-4.581354558E-3,-2.191414498E-2,4.886778072E-3
2.653916126E1,-1.725643501E-2,-7.253811229E-3,4.275931045E-3
2.655927084E1,-3.970507160E-2,-2.496838197E-2,-7.788302377E-3
2.657938037E1,-3.970507160E-2,-5.780142173E-2,-2.672456764E-2
2.659948996E1,-1.053711493E-2,-4.588989913E-2,-3.268032894E-2
2.661959954E1,-1.374406368E-2,-8.475505747E-3,-1.007897966E-2
2.663970912E1,-4.779879749E-2,3.588727675E-3,8.704573847E-3
2.665981865E1,-6.505523622E-2,-7.635590737E-5,3.359660041E-3
2.667992824E1,-4.718795046E-2,-2.008160390E-2,3.817795310E-3
2.670003782E1,6.413896102E-3,-2.619007602E-2,6.719320081E-3
2.672014735E1,5.161659420E-2,-2.802261710E-2,2.596100792E-3
2.674025694E1,6.490252167E-2,-1.947075687E-2,-4.581354442E-4
2.676036652E1,4.611896724E-2,-7.406522986E-3,-1.466033421E-2
2.678047605E1,4.123218823E-3,-1.733279042E-2,-2.794626169E-2
2.680058563E1,-2.473931387E-2,-2.817532979E-2,-4.077405483E-2
2.682069522E1,-2.535016090E-2,-1.794363745E-2,-6.032116711E-2
2.684080475E1,-2.275406010E-2,2.290677221E-4,-3.603998944E-2
2.686091433E1,-2.535016090E-2,4.963133950E-3,-1.908897609E-2
2.688102392E1,-1.710372418E-2,1.298050396E-3,-1.634016447E-2
2.690113345E1,1.649287529E-2,5.726693198E-3,-1.343864016E-2
2.692124303E1,6.368082762E-2,-1.412584260E-2,-2.428117767E-2
2.694135261E1,9.636115283E-2,-3.031329438E-2,-2.733541466E-2
2.696146220E1,8.551861346E-2,-1.962346770E-2,-1.588202827E-2
2.698157173E1,4.642439261E-2,-1.488940232E-2,-1.206423342E-2
2.700168131E1,2.153236605E-2,-2.290677221E-4,-1.664558798E-2
2.702179084E1,5.803049076E-3,1.550024934E-2,-1.603474095E-2
2.704190042E1,2.748812549E-3,1.183516532E-2,-4.123218823E-3
2.706201001E1,6.261184346E-3,-7.711946499E-3,-3.206948051E-3
2.708211959E1,-1.374406274E-3,-1.748550311E-2,-1.634016447E-2
2.710222912E1,-1.801999472E-2,-1.931804419E-2,-3.985778242E-2
2.712233871E1,-1.634016447E-2,4.657710437E-3,-2.977880463E-2
2.714244824E1,-3.054236295E-4,1.412584260E-2,-1.252236869E-2
2.716255782E1,4.428642802E-3,-1.870719716E-2,-1.924168877E-2
2.718266740E1,1.099525020E-2,-4.054498672E-2,-3.710897267E-2
2.720277699E1,1.175880991E-2,-1.687465608E-2,-4.306473210E-2
2.722288652E1,3.054236295E-3,1.748550311E-2,-3.100049868E-2
2.724299610E1,-2.901524538E-3,4.436278343E-2,-2.641914412E-2
2.726310569E1,-9.468132630E-3,3.031329438E-2,-3.054236248E-2
2.728321522E1,-3.512371797E-3,4.504998680E-3,-4.245388508E-2
2.730332480E1,1.786728203E-2,-1.046075951E-2,-5.772506446E-2
2.732343438E1,2.000524849E-2,2.061609412E-3,-6.490252167E-2
2.734354392E1,1.145338640E-2,3.138227761E-2,-5.864133686E-2
2.736365350E1,7.635590737E-4,4.894413799E-2,-7.375980914E-2
2.738376308E1,2.962609194E-2,3.947600350E-2,-7.192726433E-2
2.740387261E1,5.894676223E-2,1.824906096E-2,-5.680879578E-2
2.742398220E1,3.985778242E-2,9.544488043E-3,-3.634541109E-2
2.744409178E1,-1.068982761E-3,-5.115845706E-3,-1.191152167E-2
2.746420131E1,-1.985253533E-3,2.023431472E-2,-9.315420873E-3
2.748431089E1,2.397575416E-2,3.122956678E-2,-3.970507067E-3
2.750442048E1,4.260659590E-2,-7.635590737E-5,1.572931744E-2
2.752453001E1,5.543438718E-2,7.253811229E-3,1.954711229E-2
2.754463959E1,4.275930673E-2,2.725905925E-2,1.328592747E-2
2.756474918E1,5.955760833E-3,1.672194339E-2,-2.733541466E-2
2.758485871E1,-1.191152167E-2,3.817795368E-4,-3.619270027E-2
2.760496829E1,-2.137965523E-3,1.603474026E-3,-1.878355257E-2
2.762507787E1,7.177455351E-3,1.626380906E-2,1.282779220E-2
2.764518740E1,-1.038440317E-2,2.771719359E-2,3.542914242E-2
2.766529699E1,-2.702999115E-2,3.031329438E-2,3.649812192E-2
2.768540657E1,-3.634541109E-2,9.086352773E-3,2.596100792E-2
2.770551610E1,-6.261184346E-3,2.825168660E-3,2.932066843E-2
2.772562568E1,3.130592033E-2,8.170082234E-3,2.596100792E-2
2.774573527E1,2.428117767E-2,-1.809635013E-2,3.970507067E-3
2.776584480E1,-1.359135192E-2,-3.168770298E-2,-7.788302377E-3
2.778595438E1,-4.779879749E-2,3.130592173E-3,-3.054236295E-4
2.780606397E1,-5.986303091E-2,3.840702027E-2,2.809897438E-2
2.782617350E1,-3.466558084E-2,3.016058356E-2,5.360184610E-2
2.784628308E1,1.527118147E-4,1.091889478E-2,5.803048983E-2
2.786639261E1,4.581354558E-3,1.672194339E-2,5.131116882E-2
2.788650220E1,-1.175880991E-2,2.160872146E-2,3.695625812E-2
2.790661178E1,-3.741439432E-2,1.962346770E-2,1.527118124E-2
2.792672131E1,-5.436540768E-2,2.817532979E-2,3.512371797E-3
2.794683089E1,-5.971032009E-2,8.170082234E-3,-1.160609815E-2
2.796694048E1,-5.360184610E-2,-3.588727675E-3,-1.175880991E-2
2.798705006E1,-5.436540768E-2,-1.756185899E-3,-6.413896102E-3
2.800715959E1,-5.314370990E-2,-1.603474026E-3,-3.665083554E-3
2.802726918E1,-3.161134571E-2,-7.711946499E-3,2.290677279E-3
2.804737871E1,-4.734066315E-3,-2.084516361E-2,-1.832541777E-3
2.806748829E1,-4.886778072E-3,-3.229855001E-2,-1.267508045E-2
2.808759787E1,-8.399149403E-3,-3.245126083E-2,-1.343864016E-2
2.810770740E1,1.985253533E-3,-1.473669056E-2,-3.665083554E-3
2.812781699E1,1.389677543E-2,-1.450762269E-3,7.788302377E-3
2.814792657E1,1.359135192E-2,-7.711946499E-3,-1.068982761E-3
2.816803610E1,1.084253844E-2,-1.977618039E-2,-1.756185852E-2
2.818814569E1,2.596100792E-2,-2.542651631E-2,-1.588202827E-2
2.820825527E1,4.184303805E-2,-4.199574701E-3,-2.443389036E-3
2.822836480E1,4.031591862E-2,1.870719716E-2,5.039489828E-3
2.824847438E1,2.764083818E-2,2.237228118E-2,-4.428642802E-3
2.826858392E1,1.068982668E-2,2.145601064E-2,-2.993151546E-2
2.828869350E1,1.114796288E-2,2.252499200E-2,-4.107947648E-2
2.830880308E1,2.626643144E-2,2.725905925E-2,-3.558185324E-2
2.832891261E1,2.275406010E-2,-8.933641016E-3,-4.443913698E-2
2.834902220E1,4.734066315E-3,-5.825955793E-2,-5.635065958E-2
2.836913178E1,2.748812549E-3,-4.802786559E-2,-4.306473210E-2
2.838924131E1,-1.832541777E-3,4.657710437E-3,-1.878355257E-2
2.840935089E1,-1.710372418E-2,2.512109280E-2,4.123218823E-3
2.842946048E1,-5.650337320E-3,-7.711946499E-3,1.466033421E-2
2.844957001E1,3.084778599E-2,-3.168770298E-2,1.145338640E-2
2.846967959E1,5.390727147E-2,-3.932329267E-2,8.093725890E-3
2.848978918E1,6.704048812E-2,-3.596363217E-2,1.191152167E-2
2.850989871E1,8.658760041E-2,-1.534753758E-2,4.886778072E-3
2.853000829E1,6.230641901E-2,2.672456671E-3,-1.542389300E-2
2.855011787E1,1.527118147E-4,9.849912487E-3,-2.519745007E-2
2.857022740E1,-2.611372061E-2,2.290677221E-4,-2.596100792E-2
2.859033699E1,-2.061609551E-2,-2.145601064E-2,-3.008422814E-2
2.861044657E1,-2.733541466E-2,-1.809635013E-2,-2.870982140E-2
2.863055610E1,-6.368082762E-2,-1.450762269E-3,-2.626643144E-2
2.865066569E1,-9.788827598E-2,-1.290414855E-2,-2.244863659E-2
2.867077527E1,-7.727217674E-2,-4.115583375E-2,-2.855710872E-2
2.869088480E1,-5.558710173E-2,-4.711159319E-2,-2.825168520E-2
2.871099438E1,-2.093679011E-1,-1.908897655E-3,-3.054236295E-3
2.873110392E1,-5.308262706E-1,-3.046600707E-2,4.688252881E-2
2.875121350E1,-3.229855001E-1,-2.252499200E-2,4.428642616E-2
2.877132308E1,4.581354558E-3,-6.665870547E-2,-2.718270384E-2
2.879143261E1,3.545968235E-1,-1.491230875E-1,-7.956285775E-2
