"Time (s)","Acceleration x (m/s^2)","Acceleration y (m/s^2)","Acceleration z (m/s^2)"
2.399246900E-2,-4.321437836E0,3.681357622E0,7.022336483E0
4.509132300E-2,-3.242872953E0,3.831507206E0,7.275975227E0
6.619022900E-2,-2.360519648E0,3.756731510E0,7.942376614E0
8.728882300E-2,-2.577668190E0,3.649652719E0,8.148757935E0
1.083875730E-1,-3.083750248E0,3.614956856E0,7.981259823E0
1.294866360E-1,-3.123830080E0,3.713660717E0,7.687541008E0
1.505855940E-1,-2.778665304E0,3.999603033E0,7.325028419E0
1.716846570E-1,-2.625524759E0,4.251447678E0,7.036095142E0
1.927836150E-1,-2.439482689E0,4.406383038E0,7.043273449E0
2.138822610E-1,-1.649253011E0,3.881158352E0,7.294519901E0
2.349810630E-1,-1.323829174E0,3.427718401E0,7.764111042E0
2.560797610E-1,-1.667199135E0,3.412165165E0,8.306683540E0
2.771783540E-1,-1.759921074E0,3.547359467E0,8.646464348E0
2.982770000E-1,-1.888535261E0,3.480360508E0,9.177671432E0
3.193756460E-1,-2.482553482E0,3.634099483E0,9.330811501E0
3.404746040E-1,-3.340380430E0,3.560520172E0,9.326025963E0
3.615733540E-1,-2.706880569E0,2.605185747E0,9.201001167E0
3.826718440E-1,-1.089930773E0,9.152546525E-1,1.000199890E1
4.037708540E-1,1.465603858E-1,-9.667003751E-1,1.120319557E1
4.248700730E-1,1.113260746E0,-1.314856052E0,1.251326561E1
4.459692920E-1,-1.118644550E-1,1.228714466E0,1.686102486E1
4.670683020E-1,-3.161516905E0,2.386840582E0,1.553599930E1
4.881673650E-1,-4.198805332E0,2.287538528E0,1.004327488E1
5.092662190E-1,-2.691327333E0,1.710269928E0,7.670193195E0
5.303650210E-1,-3.379862070E0,2.557329178E0,6.897311211E0
5.514640840E-1,-4.503292084E0,3.549154282E0,7.914260864E0
5.725629900E-1,-2.317448616E0,2.193022013E0,8.631509781E0
5.936620000E-1,-2.165504545E-1,1.806581169E-1,1.025563812E1
6.147609070E-1,-1.341775298E0,1.465603858E-1,1.362592888E1
6.358601770E-1,-2.726023197E0,-3.433700502E-1,1.315753365E1
6.569593960E-1,-3.839283943E0,-8.853443861E-1,9.492925644E0
6.780583540E-1,-4.390231133E0,7.112665176E-1,9.393025398E0
6.991575210E-1,-8.949156404E-1,1.075573802E0,1.137667561E1
7.202566880E-1,9.284151793E-1,-2.757728100E-1,1.035434151E1
7.413556460E-1,9.966106415E-1,-7.860422134E-1,7.913662910E0
7.624547090E-1,8.362914920E-1,-7.160521746E-1,5.294718266E0
7.835539270E-1,1.634896040E0,-5.922235847E-1,3.470789194E0
8.046529380E-1,2.022533417E0,-3.744767308E-1,2.786442041E0
8.257517920E-1,2.841476917E0,-1.064207911E0,1.715055585E0
8.468507500E-1,2.577668190E0,-1.073180914E0,-1.531406492E-1
8.679498130E-1,3.501297712E0,-1.641476393E0,-1.371685624E0
8.890489270E-1,4.086941242E0,-1.855035782E0,8.961120844E-1
9.101479900E-1,4.377668858E0,-2.113460541E0,3.477369547E0
9.312470000E-1,5.162514687E0,-3.190230846E0,3.101098061E0
9.523459070E-1,6.264409542E0,-4.219742775E0,7.166503668E-1
9.734446040E-1,8.408378601E0,-5.401198864E0,-7.836493850E-2
9.945430420E-1,9.670592308E0,-6.337390900E0,1.773679733E0
1.015641792E0,1.041835022E1,-7.396812916E0,2.970091105E0
1.036740854E0,1.173260784E1,-9.146564484E0,2.970091105E0
1.057840229E0,1.365643692E1,-9.917651176E0,4.887938499E0
1.078939344E0,1.419123268E1,-9.388239861E0,7.280761242E0
1.100038146E0,1.442214012E1,-9.460023880E0,7.968099594E0
1.121137104E0,1.454537106E1,-1.060140038E1,6.995417118E0
1.142235594E0,1.447538090E1,-1.149811077E1,5.994618893E0
1.163334240E0,1.418166161E1,-1.154417324E1,5.013561726E0
1.184432990E0,1.446102333E1,-1.100698376E1,3.568296671E0
1.205531844E0,1.406321716E1,-9.802796364E0,2.931805849E0
1.226630750E0,1.276690483E1,-7.232904434E0,3.695714474E0
1.247729657E0,1.129053402E1,-4.502095699E0,5.206781864E0
1.268828354E0,1.018564796E1,-3.472583771E0,5.955137253E0
1.289927521E0,1.079761219E1,-3.812962770E0,5.580062389E0
1.311026375E0,1.122114182E1,-3.609572887E0,4.849653244E0
1.332125021E0,1.110867882E1,-3.351746321E0,3.509672642E0
1.353223771E0,1.011027431E1,-3.329014540E0,2.242672920E0
1.374322313E0,9.036494255E0,-3.309871912E0,1.459621787E0
1.395420907E0,7.884948730E0,-3.250649452E0,7.734799385E-1
1.416519344E0,6.931408882E0,-3.190829039E0,3.320041299E-1
1.437618198E0,6.272784710E0,-3.007179976E0,1.567298770E-1
1.458717104E0,5.918646812E0,-3.086741209E0,2.027917206E-1
1.479815802E0,5.643472195E0,-3.485744476E0,7.932206988E-1
1.500914500E0,5.990431309E0,-3.681955814E0,1.520040631E0
1.522013250E0,6.755536556E0,-3.978067636E0,1.896910191E0
1.543112157E0,7.141977310E0,-4.180859566E0,2.102692842E0
1.564210907E0,8.093722343E0,-4.296313286E0,2.219342947E0
1.585309448E0,8.481958389E0,-4.584648132E0,2.566302299E0
1.606408302E0,9.248857498E0,-4.996213913E0,3.129812002E0
1.627507104E0,1.073719311E1,-5.506483078E0,3.805784464E0
1.648606115E0,1.203290653E1,-5.750551224E0,4.466801643E0
1.669704865E0,1.383829117E1,-6.918248653E0,4.734797955E0
1.690803459E0,1.386999607E1,-7.342376232E0,4.894518852E0
1.711902052E0,1.366780281E1,-7.663612843E0,4.847858906E0
1.733000594E0,1.368993664E1,-7.055835724E0,4.894518852E0
1.754099344E0,1.432702541E1,-6.147759438E0,4.640281200E0
1.775197938E0,1.432822227E1,-6.057430744E0,4.136591911E0
1.796299709E0,1.280758286E1,-6.052644730E0,2.392822742E0
1.817485959E0,1.093878841E1,-6.064609051E0,1.580459356E0
1.838592573E0,1.027358437E1,-6.434898376E0,8.733802289E-2
1.859699917E0,9.710074425E0,-6.203392506E0,-1.547558069E0
1.880807209E0,8.962317467E0,-5.632704735E0,-1.624128342E0
1.901914552E0,8.203792572E0,-5.073980331E0,-4.468596280E-1
1.923021896E0,7.560122967E0,-4.508078098E0,9.176474810E-1
1.944129188E0,6.706483841E0,-4.120440483E0,1.570888042E0
1.965236532E0,5.637490273E0,-4.056432724E0,1.356132269E0
1.986343823E0,4.495515347E0,-4.088735580E0,7.627122402E-1
2.007451167E0,3.383451223E0,-3.983451605E0,1.896311939E-1
2.028558511E0,2.924029350E0,-3.899104595E0,-7.477571070E-2
2.049665854E0,3.203391314E0,-3.975674868E0,-2.811566591E-1
2.070773198E0,2.499901533E0,-4.088735580E0,-3.990031779E-1
2.091880490E0,2.884547710E0,-4.846064091E0,-5.772684813E-1
2.112987834E0,2.845664263E0,-5.703292847E0,-4.468596280E-1
2.134095177E0,2.749951363E0,-6.396613121E0,5.623133108E-2
2.155202521E0,3.592225075E0,-7.347760201E0,5.234299302E-1
2.176309813E0,5.243272781E0,-9.084351540E0,9.774680734E-1
2.197417157E0,6.263213158E0,-1.056012440E1,1.299900889E0
2.218524500E0,7.941180229E0,-1.171525955E1,1.207777262E0
2.239631844E0,1.054576778E1,-1.226859951E1,2.327020019E-1
2.260739188E0,1.208854008E1,-1.196590805E1,-7.058826834E-2
2.281846532E0,1.263529968E1,-1.202812099E1,8.494520187E-2
2.302953875E0,1.180020523E1,-1.102433205E1,4.959124923E-1
2.324061219E0,1.187139130E1,-9.068798065E0,1.326820135E0
2.345168563E0,1.401536083E1,-7.168896675E0,1.820339799E0
2.366275907E0,1.477149200E1,-5.393422127E0,1.649253011E0
2.387383250E0,1.379581928E1,-4.481158733E0,1.145563841E0
2.408490594E0,1.289432335E1,-4.713860512E0,1.704886109E-1
2.429597938E0,1.169133186E1,-4.651647091E0,-1.179063320E0
2.450705282E0,1.061815071E1,-4.048655987E0,-1.780260086E0
2.471812625E0,9.945767403E0,-3.397808075E0,-1.683350682E0
2.492919969E0,8.888737679E0,-3.080160856E0,-1.467996716E0
2.514027313E0,7.654041290E0,-3.066402197E0,-1.003190875E0
2.535134657E0,7.009175777E0,-3.035295486E0,-4.821537733E-1
2.556242000E0,7.315456867E0,-3.327219963E0,-4.007977992E-2
2.577349344E0,7.278966427E0,-3.744169235E0,1.483550072E-1
2.598456688E0,6.741777897E0,-3.648456335E0,5.581258535E-1
2.619564032E0,7.746763229E0,-3.906881094E0,1.587637782E0
2.640671375E0,8.742177963E0,-3.701098442E0,2.327618122E0
2.661778719E0,9.735198975E0,-3.781856298E0,2.595016241E0
2.682886115E0,1.082632637E1,-3.940380573E0,2.307877541E0
2.703993459E0,1.200419331E1,-4.037290096E0,2.023131609E0
2.725100802E0,1.369472218E1,-4.274777889E0,3.510869026E0
2.746208146E0,1.654995728E1,-5.433502197E0,4.962714195E0
2.767315490E0,1.731087494E1,-6.646064758E0,6.060421467E0
2.788422834E0,1.603968811E1,-6.440282345E0,6.186643124E0
2.809530229E0,1.491565990E1,-6.417550564E0,6.568896294E0
2.830637573E0,1.420259857E1,-5.924628735E0,6.564110756E0
2.851744917E0,1.471466255E1,-6.701697826E0,5.500501156E0
2.872852261E0,1.423550034E1,-7.677969456E0,3.665804386E0
2.893959657E0,1.332503128E1,-8.557929993E0,1.879562140E0
2.915067000E0,1.193898869E1,-8.734998703E0,4.486542344E-1
2.936174344E0,1.058943653E1,-8.155936241E0,-6.191428304E-1
2.957281688E0,9.699306488E0,-7.520043373E0,-8.261220455E-1
2.978389084E0,9.306285858E0,-7.049255371E0,-4.821537733E-1
2.999496427E0,8.604590416E0,-7.004390240E0,2.991028363E-3
3.020603771E0,7.344769001E0,-6.717849731E0,7.477571070E-2
3.041711115E0,6.399604321E0,-6.557530403E0,-3.188436031E-1
3.062818511E0,5.769693375E0,-6.555137634E0,-2.739782035E-1
3.083925854E0,5.387440205E0,-6.893123627E0,7.776673418E-3
3.105033198E0,4.710869789E0,-7.304689407E0,-2.213360928E-2
3.126140594E0,3.893720627E0,-7.051050186E0,-1.788634956E-1
3.147247938E0,4.046861172E0,-7.302894592E0,-1.734796464E-1
3.168355282E0,5.047659397E0,-8.255238533E0,3.427718580E-1
3.189462625E0,5.670989513E0,-8.924032211E0,8.632107973E-1
3.210570021E0,6.011966705E0,-9.073583603E0,1.056431174E0
3.231677365E0,6.559325218E0,-9.565308571E0,1.015753269E0
3.252784709E0,6.234499454E0,-1.031605625E1,5.425725579E-1
3.273892104E0,4.697709084E0,-9.721440315E0,-1.483550072E-1
3.294999448E0,4.147958279E0,-8.481958389E0,-9.140582681E-1
3.316106792E0,5.261219025E0,-7.497311592E0,-1.156929731E0
3.337214188E0,7.478168964E0,-7.170691490E0,-1.089332461E0
3.358321532E0,9.603593826E0,-6.826124668E0,-6.861419082E-1
3.379428927E0,1.077248764E1,-6.435496330E0,-1.663011760E-1
3.400536271E0,1.102612686E1,-6.159125328E0,-1.148554832E-1
3.421643615E0,1.129053402E1,-5.941977024E0,-4.145565331E-1
3.442751011E0,1.149691486E1,-5.315057278E0,4.384847581E-1
3.463858354E0,1.220518970E1,-4.109673023E0,1.992623091E0
3.484965698E0,1.322453213E1,-3.061018467E0,2.078166485E0
3.506073094E0,1.229252815E1,-2.532802820E0,1.095912814E0
3.527180438E0,1.101177025E1,-2.556730986E0,3.206382394E-1
3.548287834E0,1.042971611E1,-2.593819857E0,-1.609173268E-1
3.569395177E0,1.023051357E1,-2.898306370E0,4.803591371E-1
3.590502573E0,1.075932693E1,-3.617947817E0,1.783251047E0
3.611609917E0,1.130967617E1,-3.652643681E0,2.979662418E0
3.632717261E0,1.178106213E1,-3.834498405E0,3.670589924E0
3.653824657E0,1.220518970E1,-3.644867182E0,4.252644062E0
3.674932000E0,1.325444317E1,-3.396013498E0,3.695714474E0
3.696039396E0,1.366122246E1,-3.266801119E0,2.965305567E0
3.717146740E0,1.370788288E1,-3.592225075E0,2.763111830E0
3.738254136E0,1.492941856E1,-5.083551884E0,3.018545866E0
3.759361479E0,1.572862148E1,-5.908477306E0,3.759722471E0
3.780468875E0,1.692503357E1,-5.835496426E0,3.938585997E0
3.801576219E0,1.749751472E1,-5.594419479E0,3.643670797E0
3.822683615E0,1.554676723E1,-4.494917393E0,2.831905603E0
3.843790959E0,1.393759346E1,-5.067998409E0,2.187039852E0
3.864898354E0,1.260359478E1,-6.282355785E0,2.753540754E0
3.886005698E0,1.125703430E1,-6.942774773E0,2.640479803E0
3.907113094E0,1.029990482E1,-7.143173695E0,1.561915040E0
3.928220438E0,9.541379929E0,-7.022336483E0,7.447660565E-1
3.949327834E0,8.796015739E0,-6.885347366E0,4.510470629E-1
3.970435177E0,8.105687141E0,-6.656832695E0,2.333002090E-1
3.991542573E0,7.345965385E0,-6.206982136E0,1.178465188E-1
4.012649917E0,6.546762943E0,-5.834897995E0,2.919243574E-1
4.033757261E0,5.722435474E0,-5.503491879E0,4.911268353E-1
4.054864657E0,5.291727066E0,-5.305486202E0,7.543373108E-1
4.075972000E0,5.164907455E0,-5.313262463E0,6.077769399E-1
4.097079396E0,4.736592293E0,-5.316852093E0,2.871387303E-1
4.118186792E0,4.259224415E0,-5.433502197E0,8.015955985E-2
4.139294136E0,4.388436794E0,-5.887540340E0,8.255238086E-2
4.160401532E0,4.445864677E0,-6.412764549E0,1.501496136E-1
4.181508875E0,4.697709084E0,-6.956533432E0,3.810569942E-1
4.202616271E0,5.724828243E0,-7.486543655E0,1.299900889E0
4.223723615E0,7.052246571E0,-8.082955360E0,1.994417667E0
4.244831011E0,8.079963684E0,-8.802596092E0,2.496312141E0
4.265938354E0,9.168100357E0,-9.842277527E0,3.097508907E0
4.287045750E0,9.687342644E0,-1.097946644E1,2.898306370E0
4.308153094E0,8.669795036E0,-1.094477081E1,1.564906001E0
4.329260490E0,6.769893646E0,-1.054935646E1,9.571290761E-2
4.350367834E0,4.923232555E0,-9.162715912E0,-8.626125455E-1
4.371475229E0,5.522634506E0,-7.751548767E0,-1.250249863E0
4.392582625E0,7.272984505E0,-7.277770042E0,-1.272981644E0
4.413689969E0,8.744570732E0,-6.856035233E0,-9.284151793E-1
4.434797342E0,1.035135078E1,-6.363113403E0,-9.876375198E-1
4.455904946E0,1.143888855E1,-5.862415314E0,-1.336989641E0
4.477012341E0,1.138205910E1,-5.208576679E0,-1.662413478E0
4.498119685E0,1.192762280E1,-4.318446636E0,-1.323829174E0
4.519227081E0,1.258505058E1,-3.523431301E0,-1.246062398E0
4.540334425E0,1.236251831E1,-2.752942562E0,-1.600200176E0
4.561441821E0,1.133061314E1,-2.389233351E0,-1.544566989E0
4.582549216E0,1.061934662E1,-2.042274237E0,-7.692924738E-1
4.603656560E0,1.027956581E1,-1.807179332E0,-5.443671346E-2
4.624763956E0,9.921838760E0,-1.810768485E0,4.438686073E-1
4.645871300E0,1.014556789E1,-1.896910191E0,1.485344648E0
4.666978696E0,1.044706345E1,-1.993819475E0,2.464607239E0
4.688086091E0,1.103689480E1,-1.969891191E0,2.999403238E0
4.709193435E0,1.197009563E1,-1.975275040E0,3.981656790E0
4.730300831E0,1.299123192E1,-1.852044702E0,5.233701229E0
4.751408227E0,1.292124271E1,-1.850250125E0,6.278766632E0
4.772515571E0,1.273280716E1,-2.068595171E0,7.336394310E0
4.793622966E0,1.281416321E1,-2.571686029E0,7.470392227E0
4.814730310E0,1.378385448E1,-3.884747505E0,7.054041386E0
4.835837706E0,1.384846115E1,-4.257429600E0,7.004390240E0
4.856945102E0,1.316530991E1,-3.667000771E0,7.749155998E0
4.878052446E0,1.258325577E1,-3.097508907E0,9.058030128E0
4.899159841E0,1.265922832E1,-3.059223652E0,1.025862885E1
4.920267185E0,1.268375492E1,-3.856033802E0,1.034058285E1
4.941374581E0,1.270229912E1,-4.759922504E0,9.051449776E0
4.962481977E0,1.278724384E1,-4.938786030E0,7.266404152E0
4.983589321E0,1.253001595E1,-4.704289436E0,5.761917114E0
5.004696716E0,1.188275719E1,-4.567300320E0,5.433502197E0
5.025804112E0,1.126899815E1,-4.509274483E0,6.323033810E0
5.046911456E0,1.081735325E1,-4.809573650E0,6.436692715E0
5.068018852E0,9.651450157E0,-4.817350388E0,5.667400360E0
5.089126248E0,8.579465866E0,-4.645066738E0,5.148158073E0
5.110233591E0,8.113463402E0,-4.143172264E0,5.431707382E0
5.131340987E0,7.824530125E0,-3.845864296E0,5.511268616E0
5.152448331E0,6.887740135E0,-3.862015724E0,5.280361176E0
5.173555727E0,6.044270039E0,-3.467798233E0,5.098506927E0
5.194663123E0,5.659623623E0,-2.880958557E0,5.312066078E0
5.215770466E0,5.439484119E0,-2.368894339E0,6.203392506E0
5.236877862E0,5.312066078E0,-2.196611166E0,7.128817081E0
5.257985258E0,4.761716843E0,-2.533401012E0,7.674978733E0
5.279092602E0,3.842873096E0,-2.539382935E0,7.157530785E0
5.300199998E0,3.424727440E0,-2.260619164E0,7.083951473E0
5.321307394E0,3.249453068E0,-8.039883971E-1,6.241677761E0
5.342414737E0,2.805584431E0,4.133601189E-1,5.200201988E0
5.363522133E0,1.217348576E0,1.403390527E0,5.508277893E0
5.384629529E0,1.178465188E-1,1.585245013E0,7.960322857E0
5.405736873E0,1.665404558E0,1.101894855E0,8.945567131E0
5.426844269E0,2.350948334E0,1.566102386E0,9.984052658E0
5.447951664E0,3.001796007E0,1.849053741E0,9.701699257E0
5.469059008E0,1.836491346E0,2.599801779E0,8.696713448E0
5.490166404E0,5.324030519E-1,3.200400352E0,6.947560310E0
5.511273800E0,7.034898400E-1,3.496512175E0,6.392425537E0
5.532381144E0,9.218349457E-1,3.750749588E0,6.723831654E0
5.553488539E0,1.277767301E0,3.835096598E0,6.753741741E0
5.574595935E0,1.314257860E0,4.094717979E0,7.017550468E0
5.595703279E0,8.057830334E-1,4.083351612E0,6.863811970E0
5.616810675E0,5.090730190E-1,3.753142357E0,6.883552551E0
5.637918071E0,4.594219327E-1,3.413959742E0,7.141977310E0
5.659025414E0,-1.962114573E-1,3.736392498E0,6.982256413E0
5.680132810E0,-1.276570916E0,4.169493675E0,6.001199245E0
5.701240206E0,-1.945963025E0,4.594219685E0,5.251647472E0
5.722347550E0,-2.935395241E0,5.471189022E0,6.057430744E0
5.743454946E0,-2.254039049E0,4.752145767E0,6.947560310E0
5.764562341E0,-1.686341763E0,4.149154663E0,7.247261524E0
5.785669737E0,-2.813959360E0,4.086941242E0,9.274580956E0
5.806777081E0,-3.882354736E0,3.747160196E0,1.123490047E1
5.827884477E0,-4.667798996E0,3.339184046E0,1.142632675E1
5.848991873E0,-5.326423168E0,3.422932863E0,1.111047363E1
5.870099216E0,-4.715056896E0,3.383451223E0,1.152682495E1
5.891206612E0,-4.534996986E0,3.303291559E0,1.187976646E1
5.912314008E0,-5.431707382E0,3.284149170E0,1.191625690E1
5.933421404E0,-5.535795212E0,3.026322365E0,1.163210869E1
5.954528748E0,-5.216353416E0,2.283949137E0,1.094118118E1
5.975636144E0,-4.418346882E0,2.293520451E0,9.747162819E0
5.996743539E0,-4.262813568E0,2.472982168E0,8.794819832E0
6.017850883E0,-4.432703972E0,2.740978241E0,8.290532112E0
6.038958279E0,-3.898506403E0,2.481955290E0,7.777870178E0
6.060065675E0,-3.260220766E0,2.172683001E0,7.207181931E0
6.081173019E0,-2.842673302E0,1.989632010E0,6.904489517E0
6.102280414E0,-2.935395241E0,2.151745796E0,6.421139717E0
6.123387810E0,-2.892324448E0,2.472383976E0,5.688935757E0
6.144495206E0,-2.672184706E0,2.435893536E0,5.017150879E0
6.165602550E0,-3.069393158E0,2.478964329E0,4.798805714E0
6.186709946E0,-3.324826956E0,2.721237659E0,5.251049519E0
6.207817341E0,-3.594019651E0,2.793620348E0,6.117250919E0
6.228924737E0,-3.733999729E0,2.860021353E0,6.733402729E0
6.250032081E0,-4.015156269E0,3.174079180E0,7.154539585E0
6.271139477E0,-3.868596077E0,3.345165968E0,8.420941353E0
6.292246873E0,-3.726821184E0,2.866601467E0,1.054098225E1
6.313354269E0,-4.779065132E0,2.483749866E0,1.170209885E1
6.334461612E0,-5.761917114E0,2.340180635E0,1.139821053E1
6.355569008E0,-5.492724419E0,2.322234392E0,1.035494041E1
6.376676404E0,-5.245067120E0,2.708675146E0,9.716055870E0
6.397783748E0,-5.118845940E0,3.140579700E0,9.284152031E0
6.418891144E0,-4.916054249E0,3.297309637E0,9.597013474E0
6.439998539E0,-4.913661480E0,3.093321562E0,1.046321487E1
6.461105935E0,-4.585844517E0,2.348555326E0,1.163510036E1
6.482213279E0,-4.278367043E0,1.788634896E0,1.217946720E1
6.503320675E0,-4.079164505E0,1.773679733E0,1.147119141E1
6.524428071E0,-2.901895761E0,3.245863914E0,1.018265629E1
6.545535466E0,-2.539981127E0,2.329412937E0,8.718249321E0
6.566642810E0,-2.964108944E0,3.190230846E0,8.139185905E0
6.587750206E0,-2.815753937E0,3.289532900E0,7.819744587E0
6.608857602E0,-2.128415823E0,2.802593470E0,7.700103283E0
6.629964998E0,-1.725823283E0,2.745764017E0,7.376473904E0
6.651072341E0,-1.666600943E0,3.062813044E0,6.956533432E0
6.672179737E0,-1.771885157E0,3.206382275E0,6.413960934E0
6.693287133E0,-2.064407825E0,3.212962627E0,5.773283005E0
6.714394529E0,-2.396411896E0,3.093321562E0,5.484349728E0
6.735501925E0,-2.656033039E0,3.026322365E0,5.572285652E0
6.756609269E0,-2.827120066E0,3.121437073E0,5.822933674E0
6.777716664E0,-2.957528830E0,3.343969584E0,5.892325878E0
6.798824060E0,-3.061616659E0,3.705883980E0,5.825924873E0
6.819931404E0,-3.211168051E0,4.039084435E0,5.889334679E0
6.841038800E0,-3.241078377E0,4.096512318E0,6.339185238E0
6.862146196E0,-3.059821844E0,3.908077478E0,6.790830612E0
6.883253591E0,-3.415156126E0,3.731606960E0,6.972685337E0
6.904360987E0,-4.382454872E0,3.999603033E0,7.558328629E0
6.925468331E0,-5.253442287E0,3.842873096E0,8.293522835E0
6.946575727E0,-5.737988472E0,3.713660717E0,9.827920914E0
6.967683123E0,-5.755934715E0,3.810570002E0,1.074556828E1
6.988790519E0,-5.539982796E0,4.024727821E0,1.094118118E1
7.009897914E0,-5.595615864E0,3.939782381E0,1.091246796E1
7.031005258E0,-5.927619934E0,3.485146284E0,1.056371403E1
7.052112654E0,-6.468996048E0,3.059821844E0,1.028554821E1
7.073220050E0,-7.296314240E0,2.804388046E0,1.019162941E1
7.094327446E0,-6.821339130E0,2.624328136E0,1.001994514E1
7.115434841E0,-6.028716564E0,2.140978098E0,9.326025963E0
7.136542185E0,-6.144768715E0,2.643470764E0,8.644669533E0
7.157649581E0,-6.601199627E0,2.801397085E0,7.890332699E0
7.178756977E0,-6.184848309E0,2.544766903E0,7.200601578E0
7.199864373E0,-5.172086239E0,2.314457655E0,6.859624386E0
7.220971769E0,-4.406383038E0,2.268395901E0,6.556334019E0
7.242079112E0,-4.069592953E0,2.311466694E0,5.940182209E0
7.263186508E0,-4.079164505E0,2.384447813E0,5.536991596E0
7.284293904E0,-4.305285931E0,2.334198475E0,5.347360611E0
7.305401300E0,-4.803591251E0,2.248056889E0,5.373083115E0
7.326508644E0,-4.728217602E0,1.958525300E0,5.562116146E0
7.347616039E0,-5.380859852E0,1.957328916E0,3.875176191E0
7.368723435E0,-5.645864964E0,2.308475733E0,5.542973518E0
7.389830831E0,-5.302495003E0,2.274976015E0,6.524031162E0
7.442587814E0,-3.854238987E0,6.568896294E0,6.184848309E0
7.463695158E0,-3.330809116E0,6.330212116E0,7.581658363E0
7.484802449E0,-2.964108944E0,5.581258774E0,9.306883812E0
7.505909793E0,-4.670789719E0,5.430510998E0,1.085743237E1
7.527017137E0,-5.768496990E0,5.091926575E0,1.194975662E1
7.548124481E0,-4.442275047E0,4.347160339E0,1.204367447E1
7.569231772E0,-3.342175007E0,4.434498787E0,1.229611778E1
7.590339116E0,-4.296313286E0,3.442673683E0,1.379701519E1
7.611446460E0,-5.916254044E0,2.539981127E0,1.413500118E1
7.632553804E0,-5.641079426E0,1.097707391E0,1.227218914E1
7.653661147E0,-5.281557560E0,3.505485058E-1,1.045065308E1
7.674768439E0,-5.454439163E0,1.113858938E0,9.882357597E0
7.695875783E0,-5.557928562E0,1.714457393E0,8.828319550E0
7.716983127E0,-4.477569580E0,2.127817631E0,7.618747234E0
7.738090418E0,-2.938386202E0,1.692323804E0,6.531209469E0
7.759197762E0,-2.023131609E0,1.140179992E0,7.045666218E0
7.780305106E0,-3.254238844E0,6.975077987E-1,6.165705681E0
7.801412449E0,-4.358526230E0,2.392822653E-1,5.902495384E0
7.822519741E0,-4.069592953E0,6.927221417E-1,7.495516777E0
7.843627085E0,-2.048256159E0,1.437488198E0,5.970690727E0
7.864734429E0,-1.416550994E0,3.768695593E-1,3.822534084E0
7.885841720E0,-1.030708313E0,8.135597110E-1,2.475374937E0
7.906949064E0,-6.777670383E-1,1.805982947E0,2.903092146E0
7.928056408E0,-1.987239242E0,2.589034081E0,5.122435093E0
7.949163752E0,-5.573482037E0,3.288934708E0,6.897909641E0
7.970271043E0,-1.688136339E0,2.057827473E0,9.284152031E0
7.991378387E0,1.757528186E0,-8.841479421E-1,1.060678482E1
8.012485731E0,2.864806890E0,-1.995614052E0,1.020419216E1
8.033593074E0,5.160720348E0,-1.954337835E0,7.196413994E0
8.054700366E0,6.159125328E0,-3.158525825E-1,5.623133183E0
8.075807710E0,5.018945694E0,8.793623000E-2,2.608176708E0
8.096915054E0,4.686343193E0,-1.386042476E0,1.331605792E0
8.118022345E0,7.622336388E0,-5.198407173E0,5.862415582E-2
8.139129689E0,1.075633621E1,-8.051250458E0,-2.398804665E0
8.160234637E0,8.072187424E0,-6.500102520E0,-4.361517429E0
8.181341564E0,7.947760582E0,-1.000498962E1,8.057830334E-1
8.202444533E0,9.325428009E0,-1.135753250E1,1.347757339E0
8.223545887E0,1.287338543E1,-1.145862961E1,1.695913076E0
8.244646147E0,1.446580887E1,-1.124925709E1,-5.443671346E-1
8.265744168E0,1.350808239E1,-1.218425274E1,-2.493321180E0
8.286842241E0,1.331246853E1,-1.242951679E1,-6.137589812E-1
8.307940574E0,1.248694515E1,-1.211067390E1,1.738983870E0
8.329038856E0,1.254975700E1,-1.161117172E1,3.549154282E0
8.350137241E0,1.486541080E1,-1.035434151E1,5.243272781E0
8.371235574E0,1.681855202E1,-8.253443718E0,5.749354839E0
8.392333699E0,1.617667770E1,-6.336194515E0,5.477769375E0
8.413432033E0,1.492822266E1,-6.302694798E0,4.083950043E0
8.434530522E0,1.437129307E1,-5.954539299E0,2.154736757E0
8.455628908E0,1.439402485E1,-5.157131195E0,9.152546525E-1
8.476727293E0,1.391665649E1,-4.826921463E0,5.551348329E-1
8.497825783E0,1.359003639E1,-3.968496323E0,1.136590764E-1
8.518924168E0,1.263290691E1,-2.204986095E0,-4.354937077E-1
8.540022710E0,1.367617798E1,-7.944171429E-1,1.896311939E-1
8.561121252E0,1.662712669E1,-4.289134443E-1,2.979064286E-1
8.582219689E0,1.830150414E1,6.909275651E-1,1.447059512E0
8.603318074E0,2.062134552E1,2.060818434E0,3.257229805E0
8.624416824E0,2.217368889E1,1.445264935E0,3.308077335E0
8.645515106E0,2.201995087E1,-7.214360237E-1,3.687937975E0
8.666613335E0,2.121297073E1,-3.769891977E0,4.480560303E0
8.687711668E0,2.005065727E1,-6.549753666E0,4.366302967E0
8.708810210E0,1.904567146E1,-8.784649849E0,2.901895761E0
8.729908595E0,1.828116417E1,-1.088435173E1,7.208378315E-1
8.751006772E0,1.703330803E1,-1.238405323E1,-9.361918569E-1
8.772105002E0,1.522792339E1,-1.307617760E1,-1.298704505E0
8.793203491E0,1.334716511E1,-1.311446285E1,-7.160521746E-1
8.814302033E0,1.169013500E1,-1.305882931E1,-1.686939895E-1
8.835400574E0,9.918848038E0,-1.266760349E1,-4.420739710E-1
8.856499116E0,8.179863930E0,-1.198445225E1,-1.115055323E0
8.877597449E0,6.964908600E0,-1.127976608E1,-1.339980721E0
8.898696095E0,5.130211830E0,-1.023769188E1,-1.197607756E0
8.919794220E0,3.891926050E0,-9.007781029E0,-9.942178130E-1
8.940892710E0,3.233899832E0,-8.306085587E0,-7.866404653E-1
8.961991408E0,2.632104874E0,-7.995018482E0,-4.689932466E-1
8.983089845E0,2.545963287E0,-8.581858635E0,-1.453639716E-1
9.004188231E0,2.029113531E0,-9.027522087E0,8.733802289E-2
9.025286564E0,2.525026083E0,-9.525228500E0,2.201396823E-1
9.046385054E0,2.913261652E0,-9.687940598E0,1.818545163E-1
9.067483387E0,2.987439156E0,-9.847661972E0,-3.744767308E-1
9.088581668E0,2.529811859E0,-1.018564796E1,-1.046261668E0
9.109680106E0,1.798206210E0,-1.046979523E1,-1.824527264E0
9.130778647E0,1.732403636E0,-1.076171970E1,-1.489532113E0
9.151877189E0,3.905086517E0,-1.137727356E1,-7.549355626E-1
9.172975887E0,7.411767960E0,-1.172782230E1,-1.381855130E0
9.194074533E0,1.049850941E1,-1.174995518E1,-2.502892494E0
9.215173127E0,1.237448215E1,-1.207717419E1,-3.376870871E0
9.236271877E0,1.271725368E1,-1.262752342E1,-3.763311863E0
9.257370783E0,1.269811153E1,-1.266281700E1,-2.995813847E0
9.278469585E0,1.379402447E1,-1.175474167E1,-1.707278967E0
9.299568179E0,1.485823250E1,-1.024008465E1,-9.391828775E-1
9.320666772E0,1.507657719E1,-8.772088051E0,-1.066002488E0
9.341765158E0,1.491506195E1,-7.141977310E0,-1.226919770E0
9.362863699E0,1.454656696E1,-6.067001820E0,-6.203392744E-1
9.383962397E0,1.408714485E1,-5.750551224E0,3.463610709E-1
9.405060939E0,1.337887001E1,-5.845067501E0,1.024128079E0
9.426159585E0,1.253539944E1,-6.028716564E0,1.548754454E0
9.447258283E0,1.245882893E1,-5.892923832E0,1.523629785E0
9.468356929E0,1.314796257E1,-5.408975601E0,7.501499057E-1
9.489455522E0,1.343689537E1,-5.176273346E0,5.407779217E-1
9.510554116E0,1.338724422E1,-4.929214478E0,9.750752449E-1
9.531652762E0,1.314257812E1,-4.627718925E0,1.395613790E0
9.552751199E0,1.419601822E1,-4.337589264E0,1.658824325E0
9.573849845E0,1.625564003E1,-4.566701889E0,9.206385016E-1
9.594948491E0,1.667617989E1,-3.424727440E0,-1.274178028E-1
9.616046929E0,1.786780548E1,-3.123231649E0,-4.719842672E-1
9.637145210E0,1.770210266E1,-2.898904562E0,8.919246197E-1
9.658243439E0,1.767817307E1,-2.770888567E0,2.376671076E0
9.679341824E0,1.845524216E1,-3.293720484E0,2.377269268E0
9.700440106E0,1.795873260E1,-5.362913609E0,1.113260746E0
9.721538127E0,1.773201180E1,-7.462615490E0,7.962117195E-1
9.742635939E0,1.855394745E1,-8.607581139E0,8.075776696E-1
9.763733752E0,1.944527245E1,-9.607781410E0,8.135597110E-1
9.784831981E0,1.890210342E1,-1.078026390E1,6.382854581E-1
9.805930106E0,1.764945984E1,-1.184327602E1,5.982056726E-3
9.827028179E0,1.599661732E1,-1.260180092E1,2.057827413E-1
9.848126564E0,1.459920883E1,-1.299003601E1,8.267202377E-1
9.869224949E0,1.299960709E1,-1.318804169E1,9.936196208E-1
9.890323387E0,1.061934662E1,-1.311266804E1,8.452646136E-1
9.911422085E0,7.607979774E0,-1.252702427E1,4.354937077E-1
9.932520158E0,5.093721390E0,-1.166560841E1,-4.624129832E-1
9.953618491E0,3.439682484E0,-1.077547836E1,-1.415354609E0
9.974716668E0,2.784049034E0,-1.049491978E1,-2.089532375E0
9.995814845E0,1.881955028E0,-1.052483082E1,-2.934797049E0
1.001691281E1,2.327020019E-1,-1.071147060E1,-3.878167391E0
1.003801089E1,-1.415354609E0,-1.058704376E1,-3.209971666E0
1.005910912E1,-1.235892892E0,-1.061575794E1,-1.177268744E0
1.008020734E1,-4.402793646E-1,-1.109492016E1,-7.022934556E-1
1.010130521E1,-1.477568030E0,-1.118584728E1,-2.033899307E0
1.012240302E1,-1.635494232E0,-1.179841042E1,-2.773879766E0
1.014350130E1,6.478567123E-1,-1.287936783E1,-2.356332064E0
1.016459959E1,4.418945312E0,-1.408774376E1,-2.151745796E0
1.018569781E1,8.599804878E0,-1.467458344E1,-1.725823283E0
1.020679636E1,1.297747326E1,-1.500000668E1,-1.866401672E0
1.022789474E1,1.624726486E1,-1.554676723E1,-2.719442844E0
1.024899281E1,1.644826317E1,-1.621376610E1,-3.265604734E0
1.027009104E1,1.627777481E1,-1.656790352E1,-2.410768747E0
1.029118943E1,1.832423592E1,-1.593739510E1,-4.660021961E-1
1.031228781E1,2.102812576E1,-1.413799286E1,6.059823632E-1
1.033338625E1,2.184168434E1,-1.173440266E1,5.443671346E-1
1.035448427E1,2.141875458E1,-9.248857498E0,-8.727820516E-1
1.037558240E1,1.971327019E1,-8.458029747E0,-2.896511793E0
1.039668073E1,1.669532204E1,-7.835297585E0,-2.618944407E0
1.041777912E1,1.475294781E1,-7.519444942E0,-7.334001660E-1
1.043887740E1,1.334537029E1,-6.532405853E0,8.135597110E-1
1.045997573E1,1.207717419E1,-5.653043270E0,1.893919110E0
1.048107422E1,1.110150051E1,-5.260620594E0,2.925225735E0
1.050217234E1,1.084905815E1,-4.798805714E0,3.377469063E0
1.052327021E1,1.238046455E1,-4.660022259E0,2.793620348E0
1.054436849E1,1.374915886E1,-4.745565414E0,2.857030153E0
1.056546677E1,1.447837162E1,-3.430111170E0,2.066202402E0
1.058656526E1,1.556471348E1,-2.913261652E0,7.848458290E-1
1.060766360E1,1.551506233E1,-3.493520975E0,2.901297510E-1
1.062876224E1,1.483370590E1,-4.959125042E0,8.482556343E-1
1.064986084E1,1.408415413E1,-6.181857109E0,1.256830096E0
1.067095938E1,1.386521053E1,-7.420741081E0,7.674978375E-1
1.069205787E1,1.337707520E1,-8.543573380E0,2.452643216E-1
1.071315656E1,1.348594856E1,-9.524630547E0,-3.337987661E-1
1.073425521E1,1.335075378E1,-1.038784122E1,-1.019342422E0
1.075535349E1,1.271067429E1,-1.116012478E1,-1.284347534E0
1.077645203E1,1.220219898E1,-1.178046417E1,-7.447660565E-1
1.079755016E1,1.118883896E1,-1.193659592E1,-3.828516304E-1
1.081864854E1,1.000678444E1,-1.189053345E1,-3.475574851E-1
1.083974703E1,8.955737114E0,-1.201017475E1,-1.692921966E-1
1.086084552E1,7.649255753E0,-1.168475151E1,-2.715853751E-1
1.088194412E1,6.454638958E0,-1.113918781E1,-7.208378315E-1
1.090304271E1,5.983851433E0,-1.096510983E1,-9.553344250E-1
1.092414156E1,5.392225742E0,-1.095254707E1,-7.543373108E-1
1.094524021E1,5.181657314E0,-1.097647572E1,-6.544370055E-1
1.096633860E1,5.411368370E0,-1.103749275E1,-4.516452849E-1
1.098743714E1,5.544768333E0,-1.146341515E1,-2.344966233E-1
1.100853573E1,5.263013363E0,-1.168774223E1,-1.375873089E-1
1.102963438E1,5.447260857E0,-1.238166046E1,1.369891018E-1
1.105073313E1,4.706083775E0,-1.276511097E1,6.807580590E-1
1.107183151E1,3.327219963E0,-1.244626713E1,1.596610904E0
1.109293011E1,1.728814363E0,-1.178824043E1,2.195414782E0
1.111402860E1,7.196413875E-1,-1.090289593E1,2.190030813E0
1.113512740E1,1.791027784E0,-1.075214863E1,1.381855130E0
1.115622599E1,3.434298754E0,-1.078385353E1,-3.637090325E-1
1.117732469E1,5.139782906E0,-1.066720295E1,-2.047059774E0
1.119842349E1,7.269395351E0,-1.079761219E1,-3.796213150E0
1.121952224E1,8.928817749E0,-1.069950676E1,-4.927420139E0
1.124062047E1,1.031186962E1,-1.024427223E1,-5.478367329E0
1.126171886E1,1.100339508E1,-9.451649666E0,-5.246861935E0
1.128281709E1,1.113739300E1,-8.748159409E0,-4.269991875E0
1.130391563E1,1.086700439E1,-8.084749222E0,-3.118446112E0
1.132501412E1,1.049133110E1,-7.636095047E0,-2.161915302E0
1.134611276E1,1.029751205E1,-7.185048103E0,-1.704886079E0
1.136721162E1,9.724431038E0,-6.839883327E0,-1.414756417E0
1.138831021E1,9.479166985E0,-6.613761902E0,-1.147358418E0
1.140940880E1,9.784850121E0,-6.779464722E0,-5.072783828E-1
1.143050771E1,9.915857315E0,-6.931408882E0,1.208375469E-1
1.145160636E1,1.056371403E1,-7.134200573E0,1.657029688E-1
1.147270500E1,1.058225822E1,-7.173682213E0,-2.392822690E-2
1.149380360E1,1.007378292E1,-7.201199532E0,1.465603858E-1
1.151490250E1,1.013958549E1,-6.987041950E0,4.785645306E-1
1.153600146E1,1.056371403E1,-6.772884369E0,8.931210637E-1
1.155710026E1,1.112662506E1,-6.923632145E0,1.195214868E0
1.157819932E1,1.324666595E1,-8.484949112E0,1.240678549E0
1.159929807E1,1.401715469E1,-8.735597610E0,1.563709617E0
1.162039682E1,1.571725559E1,-8.070392609E0,1.444068432E0
1.164149584E1,1.749512291E1,-6.504888535E0,1.563111424E0
1.166259479E1,1.824168396E1,-4.937589645E0,1.066002488E0
1.168369365E1,1.779901123E1,-5.405984402E0,-1.052841991E-1
1.170479235E1,1.663968849E1,-7.878966808E0,-1.108475089E0
1.172589120E1,1.483849144E1,-1.012164021E1,-1.525424480E0
1.174698984E1,1.429292774E1,-1.116311550E1,-1.255633712E0
1.176808849E1,1.431207085E1,-1.176670551E1,-1.261615753E0
1.178918703E1,1.373360538E1,-1.204905796E1,-6.652047038E-1
1.181028557E1,1.274417305E1,-1.209631634E1,-4.336991012E-1
1.183138453E1,1.103928757E1,-1.174875927E1,-6.903293133E-1
1.185248339E1,9.249456406E0,-1.096510983E1,-2.632105052E-1
1.187358229E1,7.937591076E0,-1.016112137E1,4.558327198E-1
1.189468125E1,6.719046116E0,-9.302098274E0,1.111466169E0
1.191577995E1,5.871986866E0,-8.819944382E0,1.200000525E0
1.193687860E1,4.731208801E0,-8.384450912E0,1.006181955E0
1.195797724E1,3.314657450E0,-8.218149185E0,5.138586760E-1
1.197907604E1,2.419741869E0,-7.895118237E0,-2.333002090E-1
1.200017484E1,1.408176184E0,-7.555337429E0,-7.118647099E-1
1.202127370E1,5.754738450E-1,-7.392625332E0,-8.279166222E-1
1.204237245E1,3.176472187E-1,-7.131807804E0,-3.511467278E-1
1.206347104E1,8.793623447E-1,-7.112665176E0,1.196411327E-1
1.208456974E1,1.377069473E0,-8.079365730E0,1.209571838E0
1.210566844E1,1.758126378E0,-8.593822479E0,1.667199135E0
1.212676729E1,3.154936552E0,-8.567501068E0,7.645068169E-1
1.214786636E1,4.769493580E0,-8.684151649E0,-1.241276741E0
1.216896537E1,5.322834015E0,-9.241081238E0,-3.043670416E0
1.219006448E1,5.877968788E0,-1.047697353E1,-2.681756020E0
1.221116354E1,6.035895348E0,-1.172363472E1,-7.226324677E-1
1.223226219E1,6.208178520E0,-1.237687492E1,1.859821439E0
1.225336073E1,6.798607349E0,-1.184626675E1,4.236492634E0
1.227445938E1,8.095517159E0,-1.126241779E1,4.498506546E0
1.229555802E1,8.620741844E0,-1.092861938E1,3.367299557E0
1.231665682E1,8.593224525E0,-1.090050316E1,2.511267424E0
1.233775563E1,9.828518867E0,-1.098963642E1,1.684547186E0
1.235885438E1,1.133121204E1,-1.084606647E1,7.932206988E-1
1.237995323E1,1.192223835E1,-1.046919727E1,1.543370634E-1
1.240105203E1,1.174397373E1,-1.015633583E1,5.820540786E-1
1.242215052E1,1.131147099E1,-9.550951958E0,1.855035782E0
1.244324943E1,1.068335533E1,-8.426324844E0,2.989831924E0
1.246434834E1,1.024786091E1,-6.942176819E0,3.865604877E0
1.248544714E1,1.015992451E1,-5.627918720E0,4.287938118E0
1.250654615E1,1.047577763E1,-4.840082169E0,3.769891977E0
1.252764516E1,1.029751205E1,-4.519443989E0,2.885744095E0
1.254874417E1,9.777072906E0,-4.804787636E0,2.228316069E0
1.256984313E1,9.400801659E0,-5.080560684E0,2.308475733E0
1.259094188E1,9.046664238E0,-5.225924492E0,2.804388046E0
1.261204068E1,9.311071396E0,-5.962913990E0,3.673580885E0
1.263313927E1,8.544171333E0,-6.135197163E0,4.116851330E0
1.265423781E1,8.213961601E0,-6.384050846E0,3.889533281E0
1.267533646E1,8.004590034E0,-6.404987812E0,3.945166349E0
1.269643505E1,8.635098457E0,-6.698707104E0,4.045066833E0
1.271753386E1,9.875777245E0,-7.727620602E0,4.485345840E0
1.273863245E1,1.032562828E1,-9.304491043E0,7.017550468E0
1.275973099E1,1.156092262E1,-9.121439934E0,1.052542877E1
1.278082964E1,1.320838070E1,-8.968298912E0,1.138624668E1
1.280192849E1,1.380060482E1,-7.853243828E0,9.673583984E0
1.282302708E1,1.481635761E1,-7.802396297E0,9.763913155E0
1.284412568E1,1.603849220E1,-9.386445045E0,1.102313614E1
1.286522422E1,1.537747478E1,-1.152383423E1,1.018564796E1
1.288632266E1,1.399621773E1,-1.251924801E1,8.824729919E0
1.290742104E1,1.340160179E1,-1.276630688E1,8.051250458E0
1.292851948E1,1.237747288E1,-1.253719425E1,7.704888821E0
1.294961797E1,1.107278633E1,-1.248574829E1,7.173682213E0
1.297071636E1,9.820143700E0,-1.168654537E1,6.545566559E0
1.299181495E1,9.281160355E0,-9.955936432E0,5.468796253E0
1.301291334E1,8.349754333E0,-8.203792572E0,3.911666870E0
1.303401203E1,7.129415035E0,-6.766902447E0,3.142374277E0
1.305511057E1,5.857629776E0,-5.758327484E0,3.479164124E0
1.307620906E1,4.905286312E0,-5.017150879E0,4.139583111E0
1.309730734E1,3.780659676E0,-4.194019794E0,4.133002758E0
1.311840578E1,3.310470104E0,-3.485146284E0,3.764508247E0
1.313950417E1,3.023331404E0,-2.456232548E0,4.760520458E0
1.316060245E1,3.233301640E0,-1.684547186E0,6.010770321E0
1.318170099E1,1.740778446E0,-1.467398524E0,4.292723656E0
1.320279959E1,-8.117650747E-1,-1.785045743E0,8.243274093E-1
1.322389823E1,1.300499082E0,-1.438684583E0,4.321437836E0
1.324499682E1,2.134397745E0,-3.254238665E-1,8.376673698E0
1.326609537E1,1.133001566E0,1.597209096E0,9.611370087E0
1.328719386E1,-1.148554832E-1,2.683550596E0,8.467002869E0
1.330829245E1,-8.069794178E-1,2.767299414E0,8.363512993E0
1.332939084E1,-4.420739710E-1,2.659622431E0,8.170292854E0
1.335048938E1,-2.470589429E-1,2.437089920E0,9.834501266E0
1.337158776E1,-1.247258782E0,3.104687452E0,1.222612762E1
1.339268620E1,-2.152343988E0,3.577867985E0,1.289731407E1
1.341378490E1,-2.437688112E0,3.693321705E0,1.153460121E1
1.343488370E1,-1.984846354E0,3.836891174E0,1.004626560E1
1.345598219E1,-1.190429211E0,3.806382656E0,9.175876617E0
1.347708078E1,-5.276173949E-1,3.632304668E0,8.290532112E0
1.349817958E1,-1.240678549E0,3.691527128E0,7.634300709E0
1.351927839E1,-2.609971285E0,4.145565033E0,7.337590694E0
1.354037708E1,-2.346162558E0,4.265804768E0,7.351947784E0
1.356147547E1,-1.130608678E0,4.192225456E0,7.111468792E0
1.358257427E1,-7.549355626E-1,4.197010994E0,6.763911247E0
1.360367334E1,-1.261615753E0,4.147958279E0,6.253043652E0
1.362477208E1,-2.076970100E0,3.951746702E0,5.773283005E0
1.364587084E1,-2.597409010E0,3.877569199E0,5.760122299E0
1.366696943E1,-2.700898647E0,3.866801500E0,6.004190445E0
1.368806787E1,-2.639881611E0,3.935595036E0,6.404389858E0
1.370916630E1,-2.635694027E0,3.929014683E0,6.686742783E0
1.373026505E1,-2.903092146E0,3.963710785E0,6.414559364E0
1.375136339E1,-3.289532900E0,3.897309780E0,5.852844238E0
1.377246167E1,-3.705883980E0,4.107878208E0,5.944967747E0
1.379355995E1,-3.416950703E0,4.329214573E0,6.479763508E0
1.381465828E1,-3.601796389E0,4.429712772E0,6.787241459E0
1.383575667E1,-3.707678795E0,4.350151539E0,6.904489517E0
1.385685505E1,-3.737588882E0,4.375276089E0,7.280761242E0
1.387795339E1,-4.405784607E0,4.463212490E0,7.848458290E0
1.389905188E1,-5.576473236E0,4.551148891E0,8.244470596E0
1.392015031E1,-5.771488190E0,4.651647091E0,8.752944946E0
1.394124886E1,-5.219942570E0,4.632504463E0,9.486345291E0
1.396234709E1,-5.956333637E0,4.826921463E0,1.017727280E1
1.398344568E1,-7.105486870E0,4.669593334E0,1.061755180E1
1.400454401E1,-6.979265213E0,4.430311203E0,1.061276627E1
1.402564261E1,-6.674180508E0,3.672384501E0,1.033101177E1
1.404674104E1,-7.016952515E0,3.448655605E0,9.530014038E0
1.406783953E1,-6.334399700E0,3.225524902E0,8.632107735E0
1.408893813E1,-5.382056236E0,3.410968781E0,8.091329575E0
1.411003630E1,-5.538187981E0,3.364308596E0,7.845467091E0
1.413113484E1,-6.324828625E0,2.858226538E0,7.956733704E0
1.415223334E1,-6.208776474E0,2.285743713E0,8.145168304E0
1.417333182E1,-5.698507309E0,2.264806747E0,5.042873859E0
1.419443068E1,-4.674378872E0,2.093121529E0,4.578067780E0
1.421552922E1,-4.232305050E0,2.391626120E0,7.861618996E0
1.423662771E1,-5.230710506E0,2.472383976E0,8.143373489E0
1.425772604E1,-5.274977684E0,1.913061738E0,5.952146530E0
1.431369537E1,-3.665804386E0,4.509872437E0,6.993622303E0
1.433479444E1,-3.442673683E0,4.654638290E0,7.033702374E0
1.435589360E1,-2.874378204E0,4.409373760E0,8.286943436E0
1.437699230E1,-2.530410051E0,4.271786690E0,1.005763149E1
1.439809131E1,-2.514258385E0,4.423132420E0,1.009113121E1
1.441919027E1,-2.752942562E0,4.539782524E0,9.210572243E0
1.444028912E1,-3.271586657E0,4.382454872E0,8.874381065E0
1.446138787E1,-3.072384357E0,3.849453449E0,9.183652878E0
1.448248704E1,-2.705684185E0,3.029313564E0,1.026520920E1
1.450358600E1,-2.810968399E0,2.322832584E0,1.258923817E1
1.452468464E1,-4.889134884E0,2.547757864E0,1.496590900E1
1.454578355E1,-4.412364960E0,2.359323025E0,1.433659649E1
1.456688230E1,-1.298704505E0,1.097707391E0,1.234038448E1
1.458798126E1,7.166503668E-1,-1.531406492E-1,1.216630650E1
1.460908042E1,4.390829504E-1,-1.071984529E0,1.284586811E1
1.463017954E1,-2.417947292E0,-7.214360237E-1,1.165125179E1
1.465127871E1,-3.530609846E0,-9.523434043E-1,1.019222832E1
1.467237772E1,-3.101098061E0,-1.066002488E0,9.030512810E0
1.469347652E1,-3.333800077E0,2.237289101E-1,8.126026154E0
1.471457537E1,-4.611567497E0,1.352542996E0,7.759325504E0
1.473567402E1,-5.659623623E0,1.955534339E0,6.511468410E0
1.475677298E1,-5.468197823E0,2.225325108E0,6.806384087E0
1.477787183E1,-3.834498405E0,1.161117196E0,8.044670105E0
1.479897094E1,-2.310270309E0,7.782655358E-1,9.006584167E0
1.482006985E1,-1.478764415E0,4.366901219E-1,8.955737114E0
1.484116850E1,-5.012963414E-1,3.858426511E-1,9.432506561E0
1.486226746E1,-8.757730722E-1,1.166501045E0,9.233304024E0
1.488336652E1,-3.204587698E0,2.915654421E0,7.186842918E0
1.490446542E1,-1.448255897E0,2.443670034E0,6.725626469E0
1.492556444E1,6.137589812E-1,2.389233351E0,7.944170952E0
1.494666339E1,1.782054663E0,2.384447813E0,9.778269768E0
1.496776220E1,2.137388945E0,2.183450699E0,1.173918819E1
1.498886094E1,1.409970760E0,1.715055585E0,1.125105190E1
1.500996001E1,1.533201098E0,1.893919110E0,1.003908730E1
1.503105891E1,1.879562140E0,2.373680115E0,9.442078590E0
1.505215766E1,1.768894196E0,2.803191662E0,9.569496155E0
1.507325667E1,1.515853167E0,2.932404041E0,8.899505615E0
1.509435527E1,1.971685886E0,2.676970243E0,9.317651749E0
1.511545402E1,2.507678032E0,2.495115757E0,1.026042366E1
1.513655303E1,2.986242771E0,2.455035925E0,1.112303638E1
1.515765199E1,3.021536827E0,2.410170555E0,1.123190975E1
1.517875084E1,3.504288673E0,2.713460922E0,1.073898792E1
1.519984975E1,3.174079180E0,2.732603550E0,1.007258701E1
1.522094839E1,2.099701881E0,3.018545866E0,8.915657043E0
1.524204730E1,1.657627940E0,3.235096216E0,7.915457249E0
1.526314615E1,2.512463808E0,3.300898790E0,7.864011765E0
1.528424490E1,2.609971285E0,3.348157167E0,7.122236729E0
1.530534365E1,2.188236237E0,3.203391314E0,6.208178520E0
1.532644240E1,1.467996716E0,3.074178934E0,6.077769279E0
1.534754105E1,8.979067206E-1,2.980260611E0,6.412764549E0
1.536863938E1,1.788634956E-1,2.984447956E0,6.602396011E0
1.538973792E1,9.571290575E-3,3.281756163E0,6.486343861E0
1.541083657E1,1.549352705E-1,3.717249870E0,6.684350014E0
1.543193516E1,5.922235921E-2,4.070789337E0,7.083951473E0
1.545303376E1,-1.639083475E-1,4.593023300E0,7.433901787E0
1.547413251E1,-5.377869010E-1,4.931009293E0,7.545766354E0
1.549523121E1,-5.874379873E-1,4.960919380E0,8.559724808E0
1.551632996E1,-4.701896608E-1,4.965705395E0,9.987641335E0
1.553742860E1,-8.099704385E-1,5.026124001E0,1.063729286E1
1.555852751E1,-1.140179992E0,5.389832973E0,9.862018585E0
1.557962594E1,-1.298704505E0,5.620141983E0,9.608379364E0
1.560072438E1,-1.308275819E0,5.387440205E0,1.110150051E1
1.562182298E1,-1.804188251E0,5.554937840E0,1.118524933E1
1.564292136E1,-1.570888042E0,5.446064472E0,1.011326504E1
1.566402022E1,-1.169492126E0,4.655236244E0,9.309874535E0
1.568511897E1,-7.621139884E-1,3.992424488E0,9.560523033E0
1.570621772E1,-8.578268886E-1,3.549154282E0,9.212367058E0
1.572731657E1,-8.596215248E-1,2.805584431E0,8.292326927E0
1.574841522E1,5.282155871E-1,3.013161898E0,6.482754707E0
1.576951391E1,2.871387243E0,3.565305710E0,4.774279594E0
1.579061292E1,2.295315027E0,2.886940479E0,3.741178274E0
1.581171199E1,9.589236975E-1,2.089532375E0,3.533600807E0
1.583281100E1,1.465603828E0,8.183453679E-1,3.838087559E0
1.585390996E1,2.130808592E0,1.579262912E-1,3.224328518E0
1.587500871E1,2.516052961E0,-4.229314029E-1,1.733600020E0
1.589610761E1,2.464607239E0,-2.470589429E-1,1.255035520E0
1.591720647E1,2.037488461E0,-1.259821177E0,1.635494232E0
1.593830496E1,2.059023857E0,-2.171486616E0,1.448854089E0
1.595940350E1,3.203391314E0,-3.691527128E0,1.848455518E-1
1.598050204E1,5.093122959E0,-5.492724419E0,8.135596663E-2
1.600160058E1,6.346961975E0,-7.141379356E0,-5.072783828E-1
1.602269907E1,7.584051132E0,-1.008215809E1,-8.997012973E-1
1.604379756E1,1.003071213E1,-1.363549995E1,1.871187329E0
1.606489605E1,1.187139130E1,-1.657567978E1,5.078765869E0
1.608599454E1,1.342014599E1,-1.868016815E1,5.557928562E0
1.610709318E1,1.466441345E1,-2.032284164E1,4.642076015E0
1.612819173E1,1.574596977E1,-2.115733719E1,3.594019651E0
1.614929006E1,1.676291847E1,-2.093899345E1,3.956532240E0
1.617038839E1,1.642313766E1,-1.938306046E1,4.543372154E0
1.619148667E1,1.495035553E1,-1.689452362E1,4.521238327E0
1.621258511E1,1.437248898E1,-1.428395462E1,3.137588739E0
1.623368386E1,1.458305740E1,-1.232004547E1,1.363908887E0
1.625478256E1,1.402971745E1,-1.035434151E1,4.486542568E-2
1.627588089E1,1.257308674E1,-9.154939651E0,-5.772684813E-1
1.629697959E1,1.109671497E1,-8.222934723E0,-1.196411371E0
1.631807818E1,9.576076508E0,-7.353742123E0,-1.788634896E0
1.633917667E1,8.898308754E0,-6.196214199E0,-1.482353687E0
1.636027516E1,9.500701904E0,-5.193621635E0,-5.150550604E-1
1.638137402E1,1.090528965E1,-5.090730190E0,-5.629115105E-1
1.640247272E1,9.763913155E0,-4.470989227E0,2.506481707E-1
1.642357147E1,8.794819832E0,-4.567300320E0,-9.272187948E-2
1.644467032E1,8.464610100E0,-3.482155085E0,-5.898307562E-1
1.646576944E1,9.153144836E0,-3.164507866E0,-6.077769399E-1
1.648686855E1,9.950552940E0,-3.903291941E0,-5.539384484E-1
1.650796756E1,1.067498016E1,-5.358726501E0,-4.558327198E-1
1.652906636E1,1.053679466E1,-6.098706722E0,-7.878368497E-1
1.655016522E1,1.098664474E1,-6.435496330E0,-1.288534999E0
1.657126397E1,1.119960594E1,-7.043273449E0,-1.499701619E0
1.659236251E1,1.075813103E1,-8.019545555E0,-7.351947427E-1
1.661346131E1,1.057448101E1,-9.016156197E0,4.773681164E-1
1.663456027E1,1.114875889E1,-1.000977516E1,1.444068432E0
1.665565897E1,1.279023552E1,-1.175713444E1,1.368694544E0
1.667675798E1,1.299661636E1,-1.297388458E1,9.176474810E-1
1.669785714E1,1.280758286E1,-1.368036556E1,4.893322289E-1
1.671895594E1,1.176191998E1,-1.185045433E1,3.158525825E-1
1.674005475E1,1.356550980E1,-1.106321526E1,-9.212367237E-2
1.676115371E1,1.457109356E1,-1.088913727E1,-6.352944374E-1
1.678225261E1,1.420977688E1,-1.165184975E1,-1.131206870E0
1.680335194E1,1.328016567E1,-1.266640663E1,-1.426122308E0
1.682445069E1,1.211127186E1,-1.328375530E1,-1.846062660E0
1.684554917E1,1.077069283E1,-1.300140190E1,-1.539183140E0
1.686664798E1,9.973284721E0,-1.255155087E1,-7.926225066E-1
1.688774683E1,8.654241562E0,-1.174875927E1,-2.614158690E-1
1.690884553E1,7.258627415E0,-1.067976570E1,7.357929647E-2
1.692994407E1,6.258427620E0,-9.614361763E0,1.100698411E-1
1.695104261E1,5.610570908E0,-8.741579056E0,-1.076770201E-2
1.697214126E1,4.746163845E0,-7.951947689E0,3.828516230E-2
1.699324006E1,3.996013880E0,-7.399804115E0,1.082752272E-1
1.701433886E1,3.107080221E0,-7.149754047E0,1.244267747E-1
1.703543777E1,2.432304144E0,-6.990033150E0,4.785645287E-3
1.705653662E1,1.993819475E0,-6.674180508E0,-6.580262631E-2
1.707763553E1,1.323829174E0,-7.033702374E0,-9.092725813E-2
1.709873459E1,4.612165689E-1,-7.211967468E0,3.493520916E-1
1.711983355E1,1.112064362E0,-7.438089371E0,2.554338276E-1
1.714093246E1,1.416550994E0,-8.534002304E0,-4.336991012E-1
1.716203121E1,1.482353687E0,-9.231510162E0,-3.667000830E-1
1.718313016E1,2.463410854E0,-1.010548782E1,1.710868180E-1
1.720422902E1,4.097708702E0,-1.128275681E1,5.515456200E-1
1.722532787E1,5.543571949E0,-1.171167088E1,9.397810698E-1
1.724642647E1,7.028916359E0,-1.144247818E1,5.198407173E-1
1.726752501E1,9.043074608E0,-1.136710358E1,-1.033699393E0
1.728862371E1,1.096271706E1,-1.153639603E1,-2.653042078E0
1.730972235E1,1.156810093E1,-1.145683479E1,-2.686541557E0
1.733082079E1,1.220040417E1,-1.162612724E1,-2.391027927E0
1.735191897E1,1.325324631E1,-1.221177006E1,-3.650250912E0
1.737301720E1,1.371087360E1,-1.179183006E1,-5.708078384E0
1.739411558E1,1.384846115E1,-1.057268715E1,-6.702894211E0
1.741521444E1,1.325504112E1,-9.384650230E0,-5.704489231E0
1.743631324E1,1.223868942E1,-8.618947029E0,-4.642076015E0
1.745741220E1,1.117567825E1,-7.971090317E0,-3.968496323E0
1.747851089E1,1.035135078E1,-7.237690449E0,-3.577867985E0
1.749960949E1,9.467203140E0,-6.672386169E0,-3.051447153E0
1.752070803E1,8.769096375E0,-6.438487530E0,-2.547757864E0
1.754180688E1,8.469395638E0,-6.845267296E0,-2.197807550E0
1.756290563E1,8.158329010E0,-6.974479675E0,-1.668395638E0
1.758400417E1,8.282156944E0,-7.122834682E0,-1.159920812E0
1.760510261E1,8.548358917E0,-7.081558704E0,-6.221339107E-1
1.762620121E1,9.464810371E0,-6.931408882E0,-3.637090325E-1
1.764729980E1,1.100100231E1,-6.805187702E0,-6.113662124E-1
1.766839813E1,1.215553856E1,-6.873383045E0,-8.153542876E-1
1.768949688E1,1.338186073E1,-7.318448067E0,-7.926225066E-1
1.771059522E1,1.571007729E1,-8.577073097E0,-8.883354068E-1
1.773169381E1,1.671745491E1,-9.072386742E0,-1.260419369E0
1.775279246E1,1.708355713E1,-8.980861664E0,-1.705484390E0
1.777389131E1,1.625564003E1,-8.462815285E0,-1.668395638E0
1.779499032E1,1.475294781E1,-8.169096947E0,-1.091127157E0
1.781608928E1,1.416431332E1,-9.046066284E0,-5.712863803E-1
1.783718803E1,1.375035572E1,-1.023529911E1,-7.980063558E-1
1.785828683E1,1.335494137E1,-1.135932732E1,-1.405185103E0
1.787938568E1,1.231525993E1,-1.251446247E1,-2.332403898E0
1.790048459E1,1.145803165E1,-1.303609753E1,-2.761317253E0
1.792158355E1,1.116371441E1,-1.349372482E1,-2.070389748E0
1.794268246E1,9.707083702E0,-1.353978729E1,-1.261615753E0
1.796378141E1,8.346165657E0,-1.247139168E1,-8.985049129E-1
1.798488042E1,7.811967850E0,-1.113021469E1,-3.906283081E-1
1.800597949E1,7.476972580E0,-1.010070229E1,-2.458625287E-1
1.802707813E1,6.535995007E0,-9.531808853E0,-7.962117195E-1
1.804817709E1,5.259424210E0,-8.869595528E0,-9.074779749E-1
1.806927610E1,4.476373196E0,-8.249256134E0,-5.324030519E-1
1.809037516E1,3.989433527E0,-7.936394691E0,-2.955136001E-1
1.811147423E1,3.402593851E0,-7.784450054E0,-1.034895778E-1
1.813257355E1,2.982653379E0,-7.792226791E0,2.997010350E-1
1.815367287E1,2.632104874E0,-7.791030407E0,1.077966571E0
1.817477199E1,2.991028309E0,-8.108079910E0,1.485344648E0
1.819587079E1,3.884747505E0,-9.040083885E0,1.695314884E0
1.821696980E1,4.067798615E0,-9.632308006E0,1.875972986E0
1.823806871E1,5.059623718E0,-1.038664532E1,1.569691658E0
1.825916772E1,6.135197163E0,-1.133839035E1,6.125625968E-1
1.828026683E1,6.349354744E0,-1.111705399E1,-3.589233849E-3
1.830136558E1,6.777669907E0,-1.093220806E1,-1.974078715E-1
1.832246454E1,5.644070625E0,-1.013779163E1,-5.006981492E-1
1.834356339E1,3.936791420E0,-9.407382011E0,-2.919243574E-1
1.836466225E1,3.906881094E0,-9.994221687E0,-4.277170599E-1
1.838576121E1,4.414159775E0,-1.041954613E1,-1.756331801E0
1.840686016E1,6.301498413E0,-1.062413216E1,-2.625524759E0
1.842795923E1,9.065806389E0,-1.045663452E1,-2.341377020E0
1.844905818E1,1.107518005E1,-1.028734303E1,-2.690729141E0
1.847015720E1,1.176311588E1,-1.022393322E1,-3.190230846E0
1.849125621E1,1.181695461E1,-9.735198975E0,-2.976671457E0
1.851235501E1,1.159860992E1,-9.000003815E0,-2.994019270E0
1.853345381E1,1.097169018E1,-8.228319168E0,-3.254238844E0
1.855455235E1,1.058465099E1,-7.334599495E0,-3.405584812E0
1.857565126E1,1.043270683E1,-6.547959328E0,-3.632304668E0
1.859674996E1,1.011685371E1,-5.789434433E0,-3.366103172E0
1.861784865E1,9.982855797E0,-5.761917114E0,-2.423331022E0
1.863894735E1,1.016112137E1,-6.315257072E0,-1.055832982E0
1.866004605E1,1.051406288E1,-7.237092018E0,-3.314059377E-1
1.868114459E1,1.044586754E1,-7.679165840E0,-2.614158690E-1
1.870224298E1,1.030469036E1,-7.090531826E0,-1.663011760E-1
1.872334162E1,1.114217854E1,-6.256034851E0,-1.166501045E-1
1.874444022E1,1.241874981E1,-5.748756409E0,-1.782652885E-1
1.876553839E1,1.311147213E1,-5.766702652E0,-3.475574851E-1
1.878663662E1,1.349193001E1,-5.903691769E0,-6.041877270E-1
1.880773496E1,1.483250904E1,-7.292127132E0,-6.592226624E-1
1.882883365E1,1.451785278E1,-7.782655716E0,-1.068993568E0
1.884993240E1,1.519741440E1,-7.813762188E0,-8.865407705E-1
1.887103094E1,1.627119446E1,-7.146762848E0,6.472585201E-1
1.889212964E1,1.679282951E1,-6.772884369E0,1.800599098E0
1.891322829E1,1.666660881E1,-7.987242222E0,1.461416483E0
1.893432667E1,1.526022625E1,-1.011027431E1,2.548356056E-1
1.895542527E1,1.378564930E1,-1.222732353E1,-8.679963946E-1
1.897652391E1,1.253539944E1,-1.355952740E1,-1.319043517E0
1.899762266E1,1.197009563E1,-1.410329628E1,-5.485545993E-1
1.901872126E1,1.142154026E1,-1.447657681E1,7.322037220E-1
1.903982006E1,1.002891827E1,-1.440838146E1,1.390828133E0
1.906091871E1,8.937790871E0,-1.356550980E1,1.802393675E0
1.908201735E1,7.807182312E0,-1.254497051E1,1.724028707E0
1.910311621E1,6.532405853E0,-1.156511021E1,1.177268744E0
1.912421506E1,5.350351334E0,-1.047697353E1,7.262216806E-1
1.914531391E1,4.346562386E0,-9.474381447E0,4.193421602E-1
1.916641298E1,3.378665686E0,-8.611170769E0,-1.196411322E-3
1.918751173E1,2.601596355E0,-7.714460373E0,-3.194418252E-1
1.920861058E1,2.333600283E0,-7.172485828E0,-4.510470629E-1
1.922970938E1,2.123031855E0,-7.028318405E0,-5.180460811E-1
1.925080829E1,1.525424480E0,-7.214958668E0,-4.271188378E-1
1.927190735E1,9.463613629E-1,-7.331608772E0,-3.708875179E-2
1.929300621E1,8.458628058E-1,-7.421339512E0,4.576273263E-1
1.931410553E1,1.202991605E0,-7.928019524E0,8.518448472E-1
1.933520470E1,1.486541033E0,-8.588438988E0,9.774680734E-1
1.935630360E1,2.464607239E0,-9.518648148E0,4.869394004E-1
1.937740251E1,3.611367464E0,-1.075633621E1,-3.511467278E-1
1.939850167E1,5.065007210E0,-1.170389366E1,-9.858429432E-1
1.941960042E1,6.146563053E0,-1.237208939E1,-8.865407705E-1
1.944069907E1,6.833901405E0,-1.257488155E1,7.776673883E-2
1.946179798E1,7.877171993E0,-1.214955711E1,1.049252748E0
1.948289678E1,9.767501831E0,-1.182891846E1,1.275972724E0
1.950399568E1,1.148435211E1,-1.116670513E1,9.367900491E-1
1.952509449E1,1.224467182E1,-1.029870892E1,3.463610709E-1
1.954619329E1,1.248694515E1,-9.772287369E0,-6.622136831E-1
1.956729209E1,1.249532032E1,-9.252447128E0,-1.509272933E0
1.958839079E1,1.204068375E1,-8.572885513E0,-1.511067510E0
1.960948907E1,1.154656601E1,-7.808976650E0,-9.343972206E-1
1.963058735E1,1.114756203E1,-7.347161770E0,-4.899304509E-1
1.965168574E1,1.034536839E1,-7.118049145E0,5.778666735E-1
1.967278412E1,9.812367439E0,-6.850052834E0,1.783251047E0
1.969388246E1,1.021256733E1,-5.983253002E0,2.085345030E0
1.971498084E1,1.064626598E1,-4.403990269E0,2.624328136E0
1.973607876E1,1.078804111E1,-3.434896946E0,3.042474031E0
1.975717709E1,1.101177025E1,-3.517449379E0,3.212364435E0
1.977827574E1,1.103390312E1,-3.815355778E0,2.310270309E0
1.979937438E1,1.046500969E1,-4.176671982E0,7.196413875E-1
1.982047292E1,9.988838196E0,-4.492524624E0,-2.171486616E-1
1.984157126E1,9.640084267E0,-4.400999069E0,-2.027917206E-1
1.986266923E1,1.010728264E1,-4.648057938E0,7.597211599E-1
1.988376772E1,1.085085201E1,-4.844269276E0,2.226521492E0
1.990486605E1,1.074676514E1,-5.242076397E0,3.286541939E0
1.992596454E1,1.096211910E1,-5.725426197E0,3.839882135E0
1.994706313E1,1.253061390E1,-6.682555676E0,4.153940201E0
1.996816162E1,1.322632694E1,-7.607979774E0,4.183850288E0
1.998925980E1,1.367438316E1,-8.129614830E0,3.873381615E0
2.001035798E1,1.391845131E1,-8.462815285E0,3.343969584E0
2.003145641E1,1.363729477E1,-8.243872643E0,3.674179077E0
2.005255480E1,1.327837086E1,-8.007580757E0,5.363512039E0
2.007365313E1,1.319761372E1,-7.644470215E0,6.953542709E0
2.009475152E1,1.350987625E1,-7.880761147E0,7.390232563E0
2.011585001E1,1.325264835E1,-8.483752251E0,6.540780544E0
2.013694876E1,1.263230896E1,-9.153144836E0,6.433103561E0
2.015804730E1,1.203709412E1,-9.566504478E0,6.956533432E0
2.017914600E1,1.127498055E1,-9.653842926E0,7.107879639E0
2.020024454E1,1.023948669E1,-9.775279045E0,6.377470493E0
2.022134292E1,9.244071960E0,-9.354740143E0,5.028516769E0
2.024244141E1,7.849654675E0,-8.810373306E0,3.434896946E0
2.026353980E1,5.614758492E0,-7.636095047E0,3.073580742E0
2.028463834E1,5.042275429E0,-6.300900459E0,3.967299938E0
2.030573673E1,5.406582832E0,-5.267798901E0,5.849853039E0
2.032683532E1,5.490331650E0,-4.578666210E0,6.050850391E0
2.034793402E1,4.977071285E0,-4.367499352E0,3.930211306E0
2.036903235E1,4.043870449E0,-3.957728624E0,2.933600664E0
2.039013069E1,2.566900492E0,-3.634099483E0,3.718446493E0
2.041122897E1,2.022533417E0,-3.311666489E0,5.010570526E0
2.043232740E1,1.947757602E0,-2.931805849E0,5.626722336E0
2.045342563E1,1.386042476E0,-1.767099500E0,7.034898758E0
2.047452397E1,2.213360965E-1,-1.523031592E0,7.507481098E0
2.049562199E1,-1.164706469E0,-1.576271892E0,6.734599113E0
2.051672042E1,-2.301895380E0,-8.566305041E-1,4.511667252E0
2.053781902E1,2.931805849E0,-1.807179332E0,7.275377274E0
2.055891761E1,2.678765059E0,-1.932204217E-1,8.531609535E0
2.058001584E1,2.906681299E0,6.490531564E-1,8.403593063E0
2.060111412E1,2.943171740E0,1.429711580E0,8.886942863E0
2.062221272E1,1.621137381E0,1.869990945E0,9.293723106E0
2.064331110E1,-1.549352705E-1,2.869592667E0,9.435498238E0
2.066440938E1,-8.171489239E-1,2.837887764E0,9.365508080E0
2.068550756E1,-9.367900491E-1,2.997608662E0,1.072104168E1
2.070660579E1,-1.034895778E-1,3.174677372E0,1.184267712E1
2.072770438E1,1.186840057E0,3.139383316E0,1.064806080E1
2.074880266E1,1.840678811E0,3.394218922E0,9.885947227E0
2.076990094E1,7.734799385E-1,4.025924206E0,9.641280174E0
2.079099933E1,-3.002992272E-1,4.294518471E0,8.280961037E0
2.081209777E1,-3.846462369E-1,4.064209461E0,7.339983463E0
2.083319621E1,-2.805584669E-1,4.228715897E0,7.237690449E0
2.085429423E1,4.354937077E-1,3.963710785E0,6.696314335E0
2.087539194E1,4.606183469E-1,3.702294827E0,6.086144447E0
2.089648970E1,-4.384847581E-1,3.857230186E0,5.861218929E0
2.091758735E1,-1.193420291E0,3.815953970E0,6.346961975E0
2.093868501E1,-1.202991605E0,3.806382656E0,6.958328247E0
2.095978277E1,-8.201399446E-1,3.747160196E0,7.051050186E0
2.098088053E1,-8.757730722E-1,3.768097401E0,6.708278179E0
2.100197834E1,-1.236491084E0,3.731606960E0,6.390631199E0
2.102307647E1,-1.611566067E0,3.753142357E0,6.421139717E0
2.104417444E1,-2.236690998E0,3.832105398E0,6.659823418E0
2.106527230E1,-2.731407166E0,3.895515203E0,7.272984505E0
2.108637011E1,-2.301895380E0,4.074378967E0,7.995616913E0
2.110746772E1,-1.740778446E0,3.922434568E0,7.971688747E0
2.112856563E1,-2.137987137E0,4.028316975E0,7.424330235E0
2.114966350E1,-3.207578659E0,4.295714855E0,7.291528702E0
2.117076141E1,-3.661018610E0,4.289732933E0,8.172087669E0
2.119185954E1,-3.373879910E0,4.394418716E0,9.512666702E0
2.121295751E1,-3.405584812E0,4.625924587E0,1.033699417E1
2.123405574E1,-4.594219685E0,4.893920422E0,1.111406326E1
2.125515397E1,-4.884349346E0,4.564309120E0,1.161476135E1
2.127625194E1,-4.678566456E0,4.124029636E0,1.141555882E1
2.129734985E1,-4.710869789E0,3.855435371E0,1.166381359E1
2.131844772E1,-5.216353416E0,3.540181160E0,1.167517948E1
2.133954558E1,-5.376074314E0,3.405584812E0,1.096092224E1
2.136064350E1,-5.117051125E0,3.544966698E0,9.695717812E0
2.138174136E1,-5.203192711E0,3.492324591E0,8.663214684E0
2.140283964E1,-5.697908878E0,3.273381472E0,8.287541389E0
2.142393808E1,-5.792425632E0,3.003590584E0,8.193024635E0
2.144503636E1,-5.663212776E0,2.774477959E0,8.111668587E0
2.146613444E1,-5.042275429E0,2.544168711E0,7.995018482E0
2.148723261E1,-4.267001152E0,2.513660192E0,7.851449490E0
2.150833058E1,-4.204787731E0,2.626122952E0,7.235895634E0
2.152942876E1,-4.192225456E0,2.860021353E0,6.324828625E0
2.155052694E1,-4.052245140E0,2.749951363E0,5.821139336E0
2.157162490E1,-4.152145386E0,2.346760750E0,6.087340832E0
2.159272277E1,-4.325026989E0,2.312663078E0,6.351747513E0
2.161382079E1,-4.197010994E0,2.268395901E0,6.208178520E0
2.163491897E1,-4.209573269E0,2.423331022E0,5.888138294E0
2.165601740E1,-3.979862213E0,2.614757061E0,5.313262463E0
2.167711563E1,-3.836891174E0,2.710469961E0,4.216153622E0
2.169821381E1,-3.625724554E0,2.738585472E0,4.838287354E0
2.171931209E1,-3.870390654E0,2.646461725E0,5.804987907E0
2.174041016E1,-5.112265587E0,2.767897606E0,7.277770042E0
2.176150808E1,-5.224728107E0,2.893520832E0,8.464012146E0
2.178260615E1,-5.160720348E0,3.207578659E0,7.573882103E0
2.184183319E1,-4.394418716E0,3.023331404E0,6.589833736E0
2.186293163E1,-3.176471949E0,3.123830080E0,7.942376614E0
2.188403006E1,-2.215753794E0,3.367897987E0,8.425726891E0
2.190512840E1,-2.100898266E0,3.653241873E0,7.842476368E0
2.192622678E1,-2.405983210E0,3.903890133E0,6.701099873E0
2.194732512E1,-2.749951363E0,4.213162422E0,6.611967087E0
2.196842319E1,-2.772683144E0,4.262813568E0,7.288537979E0
2.198952116E1,-1.863410592E0,4.211368084E0,7.890332699E0
2.201061923E1,-3.906283081E-1,4.048655987E0,8.698508263E0
2.203171715E1,3.828516230E-2,3.587439299E0,1.161595726E1
2.205281522E1,-1.003190875E0,3.034099102E0,1.359721470E1
2.207391324E1,-2.777468920E0,2.450250387E0,1.515613842E1
2.209501163E1,-1.596610904E0,-2.309073806E-1,1.645663834E1
2.211611001E1,-6.580262631E-2,-2.785245657E0,1.537627792E1
2.213720814E1,-1.686939895E-1,-2.582453728E0,1.199641609E1
2.215830600E1,-4.881358147E-1,-2.516052961E0,1.229432297E1
2.217940413E1,-2.146960020E0,-8.805587292E-1,1.474576950E1
2.220050236E1,-3.811168194E0,9.224331379E-1,1.551984787E1
2.222160064E1,5.569294691E-1,-1.438684583E0,1.011087227E1
2.224269902E1,-9.888339639E-1,2.108675003E0,8.327022552E0
2.226379715E1,-3.888336718E-1,8.201399446E-1,8.309076309E0
2.228489532E1,-7.046862841E-1,-5.850451589E-1,9.273384094E0
2.230599350E1,-4.444069862E0,-3.415754437E-1,6.055037498E0
2.232709152E1,-4.831707001E0,1.657029688E-1,3.096312523E0
2.234818996E1,-8.835497499E-1,9.074779749E-1,4.886143684E0
2.236928824E1,3.342175007E0,1.118644595E0,7.487740040E0
2.239038657E1,5.837290764E0,1.306481123E0,8.459824562E0
2.241148506E1,4.276572227E0,1.074975610E0,8.955737114E0
2.243258350E1,1.613958836E0,5.090730190E-1,1.067557812E1
2.245368173E1,1.256231815E-1,6.329016089E-1,1.081914711E1
2.247477986E1,8.913264275E-1,1.317847013E0,9.917651176E0
2.249587829E1,2.314457655E0,2.060818434E0,9.335597992E0
2.251697642E1,2.552543640E0,2.724826813E0,9.476774216E0
2.253807491E1,2.753540754E0,2.203191519E0,8.864809990E0
2.255917329E1,8.279166222E-1,1.959123492E0,7.810173035E0
2.258027163E1,-7.298108935E-2,1.577468276E0,6.364908218E0
2.260137006E1,1.020538807E0,7.836494446E-1,4.469792843E0
2.262246840E1,1.460818172E0,3.589234054E-1,2.749951363E0
2.264356689E1,1.220339537E0,-2.955136001E-1,1.124626637E0
2.266466501E1,3.040081263E0,-1.677966833E0,-4.181457460E-1
2.268576314E1,4.959125042E0,-2.837887764E0,-1.603191137E0
2.270686131E1,8.237890244E0,-4.666004181E0,-1.831705689E0
2.272795980E1,1.027358437E1,-6.039484501E0,-3.242274821E-1
2.274905814E1,1.089212894E1,-6.227919102E0,1.572682738E0
2.277015637E1,1.114098263E1,-6.866204739E0,-1.327418327E0
2.279125460E1,1.128574753E1,-9.212367058E0,-6.000002861E0
2.281235277E1,1.119182968E1,-1.091127110E1,-6.458826542E0
2.283345095E1,1.097946644E1,-1.292961693E1,-3.729812384E0
2.285454918E1,9.900303841E0,-1.575793362E1,-2.317448616E0
2.287564767E1,8.957531929E0,-1.767159271E1,-1.240678549E0
2.289674579E1,1.018026352E1,-1.905823326E1,-1.217348576E0
2.291784387E1,1.228295708E1,-1.997528267E1,-2.057827473E0
2.293894178E1,1.515314770E1,-2.043111610E1,-2.080559254E0
2.296003954E1,1.732583046E1,-1.994178391E1,-1.362712502E0
2.298113751E1,1.824886131E1,-1.829372787E1,-9.397810698E-1
2.300223558E1,1.837807465E1,-1.707039642E1,-1.338186026E0
2.302333397E1,1.784926033E1,-1.534756470E1,-1.590030670E0
2.304443225E1,1.826800537E1,-1.276690483E1,-7.848458290E-1
2.306553043E1,2.009013939E1,-1.028734303E1,7.004988194E-1
2.308662871E1,2.038565254E1,-7.722237110E0,1.055832982E0
2.310772673E1,2.004228210E1,-6.248856544E0,7.812566161E-1
2.312882480E1,1.804786491E1,-5.127220631E0,2.793620527E-1
2.314992303E1,1.689452362E1,-7.127022266E0,-2.991028316E-2
2.317102110E1,1.568914032E1,-8.429315567E0,3.810569942E-1
2.319211902E1,1.445743465E1,-8.191828728E0,1.471585929E-1
2.321321683E1,1.483250904E1,-7.433303356E0,-8.488538265E-1
2.323431486E1,1.530808258E1,-6.564708710E0,-1.936391711E0
2.325541282E1,1.580220032E1,-7.408178806E0,-2.911466837E0
2.327651084E1,1.516271877E1,-9.220742226E0,-2.925823927E0
2.329760907E1,1.414636707E1,-1.133539867E1,-2.367697954E0
2.331870715E1,1.325803185E1,-1.330110264E1,-1.902892232E0
2.333980532E1,1.245703506E1,-1.427199078E1,-1.701895118E0
2.336090350E1,1.229611778E1,-1.493779373E1,-1.781456470E0
2.338200116E1,1.217288685E1,-1.565384579E1,-1.341775298E0
2.340309897E1,1.159860992E1,-1.623290825E1,-8.440681696E-1
2.342419736E1,1.091964626E1,-1.618026733E1,-5.036891699E-1
2.344529558E1,1.005344391E1,-1.577468300E1,-7.046862841E-1
2.346639360E1,9.184849739E0,-1.537627792E1,-6.334998012E-1
2.348749183E1,7.716254711E0,-1.480977726E1,-4.737788737E-1
2.350858991E1,5.977271080E0,-1.372164154E1,-6.951149702E-1
2.352968824E1,4.604987144E0,-1.265803146E1,-6.957131624E-1
2.355078668E1,3.511467218E0,-1.159262753E1,-6.125625968E-1
2.357188486E1,2.806182861E0,-1.043749237E1,-4.911268353E-1
2.359298277E1,2.327019930E0,-9.477372169E0,-2.153540403E-1
2.361408084E1,2.184048891E0,-8.945567131E0,1.567298770E-1
2.363517928E1,2.065604210E0,-8.819944382E0,7.477570772E-1
2.365627751E1,1.861616015E0,-8.486145973E0,1.433898926E0
2.367737548E1,2.059622049E0,-7.998009682E0,1.135992527E0
2.369847360E1,2.826521635E0,-7.917252064E0,-2.093719840E-1
2.371957204E1,2.960519791E0,-8.385646820E0,-1.268195987E0
2.374067053E1,2.971885681E0,-8.813364029E0,-1.721037745E0
2.376176886E1,3.206382275E0,-8.505886078E0,-1.939382792E0
2.378286730E1,4.176073551E0,-7.758727551E0,-1.558923960E0
2.380396579E1,8.243872643E0,-6.711269379E0,-1.314257860E0
2.382506418E1,1.599542141E1,-5.563910961E0,-5.659025311E-1
2.384616225E1,2.237109756E1,-3.162115097E0,1.201196909E0
2.386726058E1,2.394078827E1,3.619144261E-1,1.469193101E0
2.388835871E1,2.251526451E1,2.207977057E0,2.261217386E-1
2.390945730E1,1.961935043E1,2.614757061E0,-3.702892959E-1
2.393055553E1,1.773261070E1,2.380260229E0,4.582255483E-1
2.395165366E1,1.657926941E1,2.777468920E0,1.615753531E0
2.397275189E1,1.492343616E1,3.155534744E0,2.977867842E0
2.399384986E1,1.275195026E1,3.112463951E0,4.766502857E0
2.401494793E1,1.078086281E1,2.467598438E0,7.137191772E0
2.403604579E1,9.507282257E0,1.185045362E0,5.264209747E0
2.405714397E1,7.553543091E0,9.349954724E-1,5.355136871E0
2.407824183E1,5.133800983E0,1.070788145E0,6.069394588E0
2.409934001E1,4.889732838E0,1.257428288E0,5.503491879E0
2.412043798E1,5.557330608E0,5.359922647E-1,5.389832973E0
2.414153642E1,5.085944653E0,6.155536175E-1,6.531209469E0
2.416263454E1,4.993222713E0,9.696913958E-1,6.345765591E0
2.418373262E1,5.399404526E0,4.995017350E-1,6.495915413E0
2.420483074E1,4.449453831E0,8.697910309E-1,7.183253765E0
2.422592897E1,1.393819213E0,1.670190215E0,9.041878700E0
2.424702720E1,9.619147182E-1,6.807580590E-1,9.207581520E0
2.426812538E1,-1.129412293E0,9.798609018E-1,9.372088432E0
2.428922371E1,-8.745766878E-1,-3.792623878E-1,9.013164520E0
2.431032194E1,1.166501045E0,-1.436890006E0,1.033878803E1
2.433142012E1,2.889333248E0,-2.587239504E0,1.342493153E1
2.435251824E1,3.227319479E0,-3.018545866E0,1.529611874E1
2.437361647E1,7.304090858E-1,-1.975275040E0,1.382931805E1
2.439471486E1,-1.260419369E0,-1.217348576E0,1.135513973E1
2.441581319E1,-1.799402595E0,-6.364908218E-1,8.280961037E0
2.443691178E1,-1.155135155E0,3.924229145E-1,6.790830612E0
2.445801043E1,-6.269195080E-1,1.268195987E0,5.892923832E0
2.447910876E1,-2.632105052E-1,2.204986095E0,5.195415974E0
2.450020694E1,-4.175475538E-1,2.842673302E0,4.787439823E0
2.452130496E1,2.997010350E-1,2.410170555E0,3.944568157E0
2.454240319E1,1.369891018E-1,2.866601467E0,3.229114056E0
2.456350121E1,3.128615618E-1,3.097508907E0,2.692523718E0
2.458459928E1,1.473978758E0,2.928814888E0,3.597608805E0
2.460569736E1,1.719243050E0,3.037688255E0,5.846263885E0
2.462679527E1,1.854437590E-1,3.963710785E0,7.136593342E0
2.464789334E1,-3.379862010E-1,3.896711588E0,7.291528702E0
2.466899147E1,-7.405785918E-1,3.742374659E0,7.411767960E0
2.469008970E1,-4.402793646E-1,3.781856298E0,7.616952896E0
2.471118777E1,2.572284341E-1,4.272384644E0,7.980661869E0
2.473228584E1,6.496513486E-1,4.563711166E0,8.373085022E0
2.475338360E1,3.290131092E-1,4.554738045E0,9.209376335E0
2.477448126E1,3.236292601E-1,4.535595417E0,1.038843918E1
2.479557902E1,9.487541914E-1,4.517649174E0,1.075932693E1
2.481667715E1,1.175474167E0,4.415356159E0,1.082812023E1
2.483777553E1,7.561319470E-1,4.919643402E0,1.127498055E1
2.485887371E1,1.149751306E0,4.926223755E0,1.169312572E1
2.487997178E1,1.542772412E0,4.807778835E0,1.169312572E1
2.490106980E1,1.801197290E0,4.490131855E0,1.268375492E1
2.492216829E1,2.090130568E0,3.090330362E0,1.371745396E1
2.494326668E1,2.764308453E0,2.803191662E0,1.434138298E1
2.496436465E1,2.501696110E0,2.328814745E0,1.211426258E1
2.498546251E1,1.984248161E0,2.891726255E0,9.090931892E0
2.500656043E1,1.700100541E0,3.169293642E0,7.390830994E0
2.502765850E1,1.293320656E0,3.147758245E0,7.342974663E0
2.504875668E1,1.339980721E0,2.868396044E0,7.966304779E0
2.506985480E1,1.814955950E0,2.603390932E0,8.122436523E0
2.509095288E1,2.084746838E0,2.288734913E0,7.417750359E0
2.511205090E1,1.630708575E0,2.274976015E0,6.843472958E0
2.513314871E1,8.721838593E-1,2.365305185E0,6.708278179E0
2.515424704E1,4.480560422E-1,2.364108801E0,6.516254425E0
2.517534527E1,1.734796464E-1,2.368894339E0,6.257829189E0
2.519644345E1,1.316052489E-2,2.585444927E0,6.799205780E0
2.521754189E1,-1.016949639E-1,2.781656265E0,7.770691395E0
2.523864053E1,-1.561316848E-1,3.003590584E0,7.908876896E0
2.525973886E1,-7.537391037E-2,3.445664644E0,7.439883709E0
2.528083715E1,2.428714931E-1,3.892524242E0,7.490731239E0
2.530193506E1,5.108676553E-1,4.188635826E0,8.297112465E0
2.532303319E1,9.870393276E-1,4.377668858E0,8.819944382E0
2.534413110E1,1.479960799E0,4.409373760E0,8.671588898E0
2.536522918E1,1.290329576E0,4.340580463E0,9.158528328E0
2.538632699E1,6.747759581E-1,4.320241451E0,1.040100193E1
2.540742512E1,-8.494520187E-2,4.643272400E0,1.105663490E1
2.542852335E1,-5.946164131E-1,5.163711071E0,1.096570778E1
2.544962189E1,-6.681957245E-1,4.966303349E0,1.094297600E1
2.547072058E1,-1.009771109E0,4.561916351E0,1.134855938E1
2.549181923E1,-9.409775138E-1,3.963710785E0,1.192762280E1
2.551291782E1,-9.128618240E-1,3.432504177E0,1.247916794E1
2.553401631E1,-1.013360381E0,3.218944550E0,1.254437256E1
2.555511465E1,-1.014556766E0,2.381456852E0,1.098604679E1
2.557621308E1,-1.476969719E0,3.119044304E0,9.663414001E0
2.559731136E1,-8.673982024E-1,3.135794163E0,8.735597610E0
2.561840960E1,-5.300102234E-1,3.169891834E0,8.185248375E0
2.563950772E1,-2.602194548E-1,2.954537868E0,7.884948730E0
2.566060600E1,2.572284266E-2,2.760120869E0,7.559525013E0
2.568170433E1,1.435693651E-1,2.618944407E0,7.299903870E0
2.570280256E1,1.567298770E-1,2.458027124E0,6.758527756E0
2.572390064E1,-1.040877849E-1,2.611765862E0,6.167500496E0
2.574499871E1,-3.732803464E-1,2.940180779E0,6.011966705E0
2.576609678E1,-3.427718580E-1,2.977867842E0,5.874977589E0
2.578719475E1,-2.650051117E-1,3.008376360E0,5.806184292E0
2.580829282E1,-3.732803464E-1,3.235096216E0,6.099903107E0
2.582939079E1,-3.062812984E-1,3.522234917E0,6.818347931E0
2.585048897E1,2.739782035E-1,3.645465374E0,7.775477409E0
2.587158751E1,9.218349457E-1,3.802793503E0,8.907880783E0
2.589268569E1,1.194616675E0,3.635894060E0,1.027657509E1
2.591378366E1,8.003991842E-1,3.329014540E0,1.145503998E1
2.593488173E1,1.423729509E-1,3.156731367E0,1.209212875E1
2.595597975E1,-9.571290575E-3,2.930609465E0,1.246660614E1
2.597707767E1,1.800599098E-1,2.721835852E0,1.243490124E1
2.599817600E1,-2.572284266E-2,3.342175007E0,1.190489101E1
2.601927444E1,3.744767308E-1,4.202992916E0,1.167398357E1
2.604037251E1,2.509472847E0,3.166302681E0,1.151725388E1
2.606147053E1,3.190230846E0,2.407179594E0,1.140778160E1
2.608256824E1,3.437289715E0,1.239482164E0,1.159741306E1
2.610366637E1,2.606382132E0,4.145565331E-1,1.117268753E1
2.612476454E1,1.761117458E0,1.471585929E-1,1.032443142E1
2.614586251E1,8.727820516E-1,3.559323549E-1,9.558728218E0
2.616696043E1,-1.417747438E-1,6.604190469E-1,9.201599121E0
2.618805829E1,5.084748268E-1,6.251249313E-1,8.821140289E0
2.620915626E1,1.279561877E0,1.226321578E0,9.864411354E0
2.623025433E1,1.753340840E0,1.581057549E0,9.218349457E0
2.625135199E1,2.562114954E0,1.542174220E0,8.423932076E0
2.627244986E1,2.593819857E0,1.661815286E0,7.916653633E0
2.629354762E1,2.450250387E0,1.677966833E0,7.046264648E0
2.631464569E1,2.373680115E0,1.272981644E0,6.769893646E0
2.633574366E1,1.889133453E0,1.444068432E0,6.653841496E0
2.635684194E1,1.051645517E0,2.066202402E0,6.725626469E0
2.637794017E1,5.473581553E-1,2.597409010E0,7.045666218E0
2.639903824E1,3.224328458E-1,3.085544825E0,7.462017536E0
2.642013631E1,6.209374666E-1,3.235096216E0,7.679764271E0
2.644123413E1,9.696913958E-1,2.967100143E0,8.186444283E0
2.646233215E1,7.322037220E-1,2.941377163E0,8.904291153E0
2.648343032E1,4.223332107E-1,2.964108944E0,9.739984512E0
2.650452850E1,-1.555334684E-2,2.712264538E0,1.088076305E1
2.652562673E1,-9.846464992E-1,2.131406784E0,1.193659592E1
2.654672491E1,-2.124826431E0,1.905883193E0,1.227996540E1
2.656782272E1,-2.695514679E0,2.346760750E0,1.225484085E1
2.658892048E1,-2.595016241E0,2.790031195E0,1.205145168E1
2.661001860E1,-2.223530531E0,2.930011272E0,1.187797165E1
2.663111668E1,-1.695314884E0,2.518445730E0,1.203111267E1
2.665221512E1,-1.528415442E0,1.993819475E0,1.195633698E1
2.667331340E1,-1.571486235E0,1.780260086E0,1.142453194E1
2.669441194E1,-1.550549030E0,1.722832322E0,1.060798073E1
2.671551006E1,-1.447059512E0,1.852044702E0,9.716654778E0
2.673660871E1,-1.472782373E0,2.255833626E0,9.120243073E0
2.675770730E1,-1.587637782E0,1.922034740E0,8.555537224E0
2.677880564E1,-1.185643673E0,1.731207132E0,7.931010723E0
2.679990360E1,-6.095715761E-1,1.558923960E0,7.323233604E0
2.682100178E1,-3.912265003E-1,1.614557028E0,6.602993965E0
2.684209996E1,-3.140579760E-1,1.800599098E0,6.015556335E0
2.686319834E1,-2.183450609E-1,1.828116536E0,5.648257732E0
2.688429663E1,-3.014956415E-1,1.886740685E0,5.560919762E0
2.690539491E1,-4.480560422E-1,2.000399828E0,5.851049423E0
2.692649319E1,-7.752745152E-1,2.105684042E0,6.770491600E0
2.694759136E1,-8.147560954E-1,2.075175524E0,8.309675217E0
2.696868965E1,-6.634100676E-1,2.056631088E0,1.027298546E1
2.698978762E1,-7.112665176E-1,2.422732830E0,1.264367485E1
2.701088610E1,-3.457628787E-1,2.130808592E0,1.492523098E1
2.703198433E1,4.977070987E-1,1.882553220E0,1.619641876E1
2.705308241E1,8.841479421E-1,1.116850019E0,1.571905041E1
2.707418048E1,5.982056856E-1,8.057830334E-1,1.407577896E1
2.709527902E1,-2.554338276E-1,1.028913736E0,1.236610699E1
2.711637725E1,-3.128615618E-1,1.295115232E0,1.133539867E1
2.713747532E1,3.218346536E-1,1.457827210E0,1.069472122E1
2.715857340E1,1.041476011E0,1.654636860E0,1.024965572E1
2.717967136E1,2.244467735E0,1.422533035E0,1.000379372E1
2.720076933E1,2.953939438E0,8.596215248E-1,9.939785004E0
2.722186725E1,2.636890650E0,6.783652306E-1,9.924231529E0
2.724296522E1,1.952543259E0,8.171489239E-1,9.697511673E0
2.726406345E1,1.651047587E0,8.099704385E-1,9.220144272E0
2.728516183E1,1.968096614E0,7.142575383E-1,8.395217896E0
2.730625975E1,1.499701619E0,1.534397483E0,8.165507317E0
2.732735772E1,9.810572863E-1,2.174477577E0,7.722835064E0
2.734845569E1,8.626125455E-1,2.341377020E0,7.060621262E0
2.736955366E1,1.074975610E0,2.184048891E0,6.393621922E0
2.739065168E1,1.006780148E0,2.216950178E0,5.846862316E0
2.741174991E1,5.790630579E-1,2.554338217E0,5.635695457E0
2.743284798E1,2.201396823E-1,2.693121910E0,5.498706341E0
2.745394610E1,3.469592705E-2,2.775674343E0,5.492724419E0
2.747504428E1,-4.354937077E-1,3.061616659E0,5.657829285E0
2.749614230E1,-8.165507317E-1,3.241676569E0,5.946762562E0
2.751724022E1,-1.031904817E0,3.387040377E0,6.393621922E0
2.753833819E1,-7.256234884E-1,3.399004459E0,7.034898758E0
2.755943590E1,-1.070788130E-1,3.471387386E0,7.770093441E0
2.758053350E1,-4.307080805E-2,3.424727440E0,8.853444099E0
2.760163100E1,-2.697907388E-1,3.065804005E0,1.027298546E1
2.762272845E1,-5.467599630E-1,2.706880569E0,1.169970608E1
2.764382616E1,-9.876375198E-1,2.492124796E0,1.271725368E1
2.766492386E1,-1.758126378E0,2.561516523E0,1.339382458E1
2.768602152E1,-2.105684042E0,2.780459881E0,1.389871025E1
2.770711913E1,-1.506281853E0,2.794816732E0,1.375573921E1
2.772821694E1,-6.137589812E-1,2.424527645E0,1.358824158E1
2.774931470E1,-2.231307179E-1,2.174477577E0,1.340578842E1
2.777041272E1,-2.279163599E-1,1.899901152E0,1.318445301E1
2.779151053E1,-4.271188378E-1,1.542174220E0,1.290509033E1
2.781260840E1,-5.389832854E-1,1.527817249E0,1.200359440E1
2.783370621E1,-1.645065546E-1,8.201399446E-1,1.069412231E1
2.785480386E1,-1.453639716E-1,1.166501045E0,9.656235695E0
2.787590147E1,-8.374879360E-1,2.157129526E0,9.129815102E0
2.789699907E1,-1.302891970E0,2.435893536E0,8.593822479E0
2.791809689E1,-1.329213023E0,1.907677889E0,7.690532207E0
2.793919486E1,-8.440681696E-1,1.314856052E0,6.946962357E0
2.796029267E1,-5.838487148E-1,1.418345571E0,6.511468410E0
2.798139048E1,-7.178468108E-1,1.896311998E0,6.232704639E0
2.800248819E1,-1.178465128E0,2.309672117E0,6.122634888E0
2.802358579E1,-1.481755376E0,2.223530531E0,5.908477306E0
2.804468360E1,-1.685743570E0,2.030908108E0,5.816353798E0
2.806578121E1,-1.845464468E0,2.121237278E0,6.031707764E0
2.808687892E1,-1.869990945E0,2.475374937E0,6.460621357E0
2.810797663E1,-1.805982947E0,2.893520832E0,7.051050186E0
2.812907506E1,-1.356132269E0,3.419941664E0,8.090731621E0
2.815017334E1,-9.014959335E-1,3.744169235E0,9.046066284E0
2.817127168E1,-8.075776696E-1,3.592225075E0,9.668798447E0
2.819236980E1,-8.727820516E-1,3.457030535E0,1.039083195E1
2.821346782E1,-8.739784956E-1,3.281157970E0,1.104526901E1
2.823456553E1,-9.942178130E-1,3.241676569E0,1.167039394E1
2.825566324E1,-1.183848977E0,3.019742250E0,1.190489101E1
2.827676095E1,-1.520040631E0,3.080759048E0,1.197667599E1
2.829785887E1,-1.829911113E0,3.496512175E0,1.229073334E1
2.831895673E1,-1.456032634E0,3.511467218E0,1.234038448E1
2.834005470E1,1.501496136E-1,2.924029350E0,1.244387436E1
2.836115230E1,1.247856975E0,2.254039049E0,1.250489140E1
2.838225032E1,1.306481123E0,1.733600020E0,1.264068413E1
2.840334824E1,8.739784956E-1,1.534397483E0,1.225484085E1
2.842444642E1,8.775677085E-1,1.659422517E0,1.141196918E1
2.844554407E1,1.042074203E0,1.823330879E0,9.821938515E0
2.846664199E1,1.274776220E0,2.501696110E0,8.644669533E0
2.848773926E1,6.735795736E-1,2.604587555E0,8.162516594E0
2.850883707E1,2.644068897E-1,3.067598581E0,8.313861847E0
2.852993494E1,4.815555513E-1,3.008974552E0,8.182256699E0
2.855103249E1,7.262216806E-1,2.784049034E0,7.698906898E0
2.857213046E1,4.031906128E-1,2.834298372E0,7.141379356E0
2.859322843E1,-1.615155339E-1,3.040081263E0,6.598208427E0
2.861432624E1,-8.087740541E-1,3.269792080E0,6.111268997E0
2.863542384E1,-1.255633712E0,3.444468260E0,5.985645771E0
2.865652155E1,-1.188634634E0,3.352942705E0,6.136991978E0
2.867761931E1,-9.349954724E-1,3.275176048E0,6.229115486E0
2.869871712E1,-6.975077987E-1,3.274577856E0,6.345765591E0
2.871981515E1,-6.807580590E-1,3.193820000E0,6.580262184E0
2.874091296E1,-1.130608678E0,3.343371391E0,6.735197544E0
2.876201067E1,-1.645065546E0,3.698107481E0,7.039684296E0
2.878310832E1,-1.654038668E0,3.954139471E0,7.305885792E0
2.880420619E1,-1.279561877E0,3.855435371E0,7.785048485E0
2.882530431E1,-1.319641709E0,3.775874138E0,8.352746010E0
2.884640233E1,-1.794616938E0,3.981656790E0,9.009575844E0
2.886749988E1,-2.050050735E0,3.908077478E0,9.640084267E0
2.888859780E1,-2.545963287E0,3.621536970E0,1.017428207E1
2.890969556E1,-3.684946775E0,3.825525284E0,1.079162979E1
2.893079348E1,-4.225724697E0,3.831507206E0,1.152503014E1
2.895189124E1,-3.966103554E0,3.413361549E0,1.231167030E1
2.897298895E1,-3.772883177E0,3.139383316E0,1.279023552E1
2.899408666E1,-3.681955814E0,2.816950560E0,1.253360462E1
2.901518447E1,-4.061218262E0,2.536391973E0,1.155434227E1
2.903628238E1,-4.566701889E0,2.453241348E0,1.118405342E1
2.905738025E1,-4.554738045E0,2.883949518E0,1.056790161E1
2.907847827E1,-3.621536970E0,2.228914261E0,9.555138588E0
2.909957645E1,-4.264009953E0,2.244467735E0,8.703892708E0
2.912067442E1,-5.196014404E0,2.535195589E0,7.909475327E0
2.914177228E1,-5.045864582E0,2.525624275E0,7.304689407E0
2.916287009E1,-4.508078098E0,2.310270309E0,6.880561352E0
2.918396796E1,-3.963710785E0,2.206182480E0,7.020541668E0
2.920506582E1,-3.949353695E0,2.265404940E0,6.927819729E0
2.922616379E1,-4.201796532E0,2.245664120E0,5.866004944E0
2.924726166E1,-5.263013363E0,2.070987940E0,3.576073408E0
2.926835952E1,-5.793622017E0,1.735992789E0,3.273381472E0
2.928945733E1,-4.945366383E0,1.716850281E0,6.141179085E0
2.931055561E1,-4.621737003E0,2.346162558E0,7.904091358E0
2.933165390E1,-4.829912663E0,2.225325108E0,7.385447025E0
2.935275181E1,-6.052046776E0,2.389233351E0,4.951348305E0
2.939987124E1,-2.389233351E0,2.602194548E0,7.785048485E0
2.942096895E1,-2.600399971E0,2.550748825E0,8.636295319E0
2.944206666E1,-3.037090063E0,2.477169752E0,9.326025963E0
2.946316468E1,-3.546163082E0,2.668595552E0,9.741779327E0
2.948426244E1,-3.020938635E0,2.772683144E0,9.937990189E0
2.950536031E1,-2.889333248E0,2.726023197E0,1.001336479E1
2.952645817E1,-2.566302299E0,2.831905603E0,9.646664619E0
2.954755609E1,-2.216950178E0,3.075375319E0,9.089735031E0
2.956865421E1,-2.257030010E0,3.318246841E0,8.754141808E0
2.958975223E1,-2.394617319E0,3.437887907E0,8.939585686E0
2.961085046E1,-2.157129526E0,3.341576815E0,9.831509590E0
2.963194890E1,-1.673779488E0,3.078964472E0,1.057448101E1
2.965304734E1,-1.274776220E0,2.787040234E0,1.114756203E1
2.967414578E1,-9.828519225E-1,2.462812662E0,1.179960632E1
2.969524416E1,-4.516452849E-1,2.332403898E0,1.225304699E1
2.971634249E1,1.483550072E-1,2.236092806E0,1.201376438E1
2.973744098E1,-1.304088384E-1,2.064407825E0,1.104646587E1
2.975853973E1,-1.179063320E0,1.968694806E0,1.049611664E1
2.977963848E1,-1.751546144E0,1.846062660E0,1.097707367E1
2.980073692E1,-1.439282775E0,1.567897081E0,1.190070343E1
2.982183525E1,-6.143572330E-1,1.311266780E0,1.190010548E1
2.984293338E1,-5.443671346E-2,9.678967595E-1,1.093340492E1
2.986403140E1,3.284149170E-1,1.035493970E0,9.946365356E0
2.988512958E1,5.964110494E-1,1.484746456E0,9.172885895E0
2.990622765E1,4.432703853E-1,1.791027784E0,9.033503532E0
2.992732557E1,7.058826834E-2,1.644467354E0,9.141778946E0
2.994842364E1,4.785645287E-3,1.434497118E0,9.140582085E0
2.996952176E1,5.563312769E-2,1.409970760E0,9.025727272E0
2.999061989E1,6.819544733E-2,1.466202021E0,8.386244774E0
3.001171822E1,2.033899166E-2,1.687538147E0,7.593024254E0
3.003281671E1,-7.956135273E-2,1.944168448E0,7.024130821E0
3.005391525E1,6.041877344E-2,2.124826431E0,6.691528320E0
3.007501385E1,4.528416991E-1,2.179263115E0,6.753741741E0
3.009611260E1,5.676971674E-1,2.051845312E0,7.025327206E0
3.011721093E1,4.259224236E-1,2.044667006E0,7.444669247E0
3.013830942E1,2.380858511E-1,2.196611166E0,7.887939930E0
3.015940796E1,9.451649338E-2,2.402393818E0,8.295317650E0
3.018050624E1,-1.160518974E-1,2.645265341E0,8.531010628E0
3.020160426E1,-5.204389095E-1,2.903092146E0,9.086744308E0
3.022270254E1,-1.038485050E0,3.147160053E0,9.954142570E0
3.024380072E1,-1.575673699E0,3.138186932E0,1.077129078E1
3.026489885E1,-1.898106575E0,2.906083107E0,1.142632675E1
3.028599723E1,-1.902892232E0,2.487339020E0,1.138983536E1
3.030709546E1,-1.554138303E0,2.294118643E0,1.120798111E1
3.032819343E1,-1.783849239E0,2.257030010E0,1.093220806E1
3.034929140E1,-2.769093990E0,2.051845312E0,1.086042404E1
3.037038963E1,-3.606581926E0,1.848455548E0,1.104706383E1
3.039148786E1,-4.112663746E0,1.429711580E0,1.162612724E1
3.041258609E1,-3.839283943E0,1.070788145E0,1.186062336E1
3.043368406E1,-2.891726255E0,8.805587292E-1,1.109671497E1
3.045478234E1,-2.134397745E0,8.374879360E-1,9.952945709E0
3.047588072E1,-2.003988981E0,1.057627559E0,8.931808472E0
3.049697916E1,-2.484946251E0,1.343569875E0,8.350951195E0
3.051807760E1,-2.627319336E0,1.525424480E0,8.011170387E0
3.053917567E1,-2.315055847E0,1.727617979E0,8.057829857E0
3.056027374E1,-2.118844509E0,1.548754454E0,7.990232944E0
3.058137187E1,-1.813759565E0,1.350748420E0,7.628318787E0
3.060246984E1,-1.335195065E0,1.379462242E0,7.258029461E0
3.062356775E1,-1.003190875E0,1.486541033E0,7.006184578E0
3.064466562E1,-9.822536707E-1,1.609771490E0,7.028318405E0
3.066576328E1,-1.073779106E0,1.821536183E0,7.387839794E0
3.068686124E1,-1.040279627E0,2.088335991E0,7.472187042E0
3.070795916E1,-1.180259824E0,2.483749866E0,7.435098171E0
3.072905728E1,-1.773679733E0,2.863610506E0,7.813762188E0
3.075015499E1,-2.563909531E0,3.126222849E0,8.782855988E0
3.077125281E1,-2.935395241E0,3.069393158E0,1.002712345E1
3.079235057E1,-2.508874655E0,2.726023197E0,1.106919765E1
3.081344848E1,-1.513460279E0,2.258824587E0,1.160698414E1
3.083454624E1,-6.221339107E-1,1.688136339E0,1.192283726E1
3.085564421E1,-1.513460279E-1,1.920240164E0,1.204367447E1
3.087674197E1,-4.307080805E-2,2.131406784E0,1.187797165E1
3.089783989E1,-9.744769931E-1,2.884547710E0,1.156092262E1
3.091893801E1,-2.684746981E0,2.809173822E0,1.155613708E1
3.094003619E1,-2.984447956E0,2.493321180E0,1.232423306E1
3.096113447E1,-1.981257200E0,1.774278045E0,1.278903866E1
3.098223255E1,-1.138983607E0,1.109073281E0,1.237448215E1
3.100333041E1,-5.539384484E-1,7.561319470E-1,1.106919765E1
3.102442848E1,-2.614158690E-1,7.112665176E-1,9.860223770E0
3.104552666E1,-4.666004330E-2,8.662018180E-1,9.113064766E0
3.106662447E1,-2.691925503E-2,9.858429432E-1,8.679366112E0
3.108772218E1,-2.123630047E-1,1.068395257E0,8.363512993E0
3.110881984E1,-6.155536175E-1,1.204786181E0,8.267800331E0
3.112991770E1,-1.071984529E0,1.429711580E0,8.344968796E0
3.115101583E1,-1.191625714E0,1.659422517E0,8.076972961E0
3.117211390E1,-9.511470199E-1,1.815554142E0,7.540382385E0
3.119321171E1,-6.825526357E-1,1.755135417E0,7.080960274E0
3.121430973E1,-4.115654826E-1,1.689332843E0,6.841678143E0
3.123540749E1,-3.146561682E-1,1.743769526E0,6.909275532E0
3.125650536E1,-4.929214716E-1,1.864607096E0,7.247261524E0
3.127760317E1,-6.394818425E-1,1.901097536E0,7.521838188E0
3.129870083E1,-6.951149702E-1,1.965105653E0,7.902894974E0
3.131979874E1,-7.860422134E-1,2.171486616E0,8.493324280E0
3.134089666E1,-1.298704505E0,2.209173441E0,9.035298347E0
3.136199458E1,-1.949552298E0,2.022533417E0,9.577272415E0
3.138309260E1,-2.293520451E0,2.128415823E0,1.026221848E1
3.140419088E1,-2.528615236E0,1.928615093E0,1.067198944E1
3.142528885E1,-2.303689957E0,1.540977836E0,1.115892887E1
3.144638656E1,-1.557129383E0,1.630110383E0,1.131625652E1
3.146748400E1,-1.786840320E0,1.491924882E0,1.106740284E1
3.148858202E1,-2.513660192E0,1.507478237E0,1.103270721E1
3.150967999E1,-3.544966698E0,1.303490162E0,1.175833035E1
3.153077781E1,-4.158725739E0,9.320043921E-1,1.267537975E1
3.155187567E1,-3.754936934E0,6.957131624E-1,1.292961693E1
3.157297364E1,-2.729014158E0,5.587241054E-1,1.174277687E1
3.159407150E1,-1.996810555E0,5.724828243E-1,1.001635551E1
3.161516958E1,-1.959123492E0,7.274180651E-1,8.625527382E0
3.163626755E1,-2.431107759E0,1.132403374E0,8.054241180E0
3.165736536E1,-2.880958557E0,1.542174220E0,7.942376614E0
3.167846317E1,-3.097508907E0,1.740778446E0,7.829315662E0
3.169956119E1,-3.024527788E0,1.663609982E0,7.570890903E0
3.172065932E1,-2.743371248E0,1.563111424E0,7.390830994E0
3.174175723E1,-2.295913219E0,1.475175142E0,7.234699249E0
3.176285520E1,-1.860419631E0,1.412961721E0,7.133602619E0
3.178395322E1,-1.557129383E0,1.419542074E0,7.128817081E0
3.180505130E1,-1.462612867E0,1.622333765E0,7.263412952E0
3.182614958E1,-1.618744493E0,1.917249203E0,7.515257835E0
3.184724807E1,-1.668993831E0,2.180459738E0,7.684549809E0
3.186834645E1,-1.505683661E0,2.331805706E0,8.057231903E0
3.188944463E1,-2.195414782E0,2.571087837E0,8.577073097E0
3.191054291E1,-2.148754835E0,2.633899450E0,9.550353050E0
3.193164124E1,-2.021337032E0,2.274976015E0,1.025264645E1
3.195273947E1,-1.548754454E0,1.979462504E0,1.130189991E1
3.197383765E1,-7.579265833E-1,1.746760488E0,1.180259800E1
3.199493562E1,1.435693540E-2,1.599601984E0,1.158305645E1
3.201603385E1,6.334998012E-1,2.204986095E0,1.188275719E1
3.203713171E1,-4.905286431E-2,2.277967215E0,1.195274734E1
3.205822952E1,-8.404789567E-1,2.745165825E0,1.195155048E1
3.207932744E1,-1.968096614E0,2.554338217E0,1.203410339E1
3.210042541E1,-2.423331022E0,1.970489502E0,1.308395386E1
3.212152359E1,-1.640279889E0,1.338784218E0,1.373300743E1
3.214262192E1,-6.089733839E-1,8.548358679E-1,1.291346550E1
3.216372015E1,5.563312769E-2,6.029912829E-1,1.103569794E1
3.218481843E1,3.284149170E-1,7.160521746E-1,9.361918449E0
3.220591661E1,5.874379873E-1,1.185643673E0,8.490931511E0
3.222701473E1,4.965106845E-1,1.512263894E0,8.325826645E0
3.224811281E1,-5.144568533E-2,1.487139225E0,8.257032394E0
3.226921083E1,-4.995017350E-1,1.534995675E0,7.990232944E0
3.229030869E1,-5.665007830E-1,1.710269928E0,7.554739475E0
3.231140650E1,-4.384847581E-1,1.847259045E0,7.130611420E0
3.233250458E1,-2.901297510E-1,1.823330879E0,6.797410965E0
3.235360239E1,-2.093719877E-2,1.759921074E0,6.535397053E0
3.237470041E1,1.004985496E-1,1.732403636E0,6.607779503E0
3.239579828E1,-3.469592705E-2,1.738983870E0,6.946962357E0
3.241689598E1,-2.153540403E-1,1.853839397E0,7.220342159E0
3.243799369E1,-3.798605800E-1,2.040479422E0,7.502097130E0
3.245909150E1,-6.807580590E-1,2.099701881E0,7.754539967E0
3.248018942E1,-1.276570916E0,2.097309113E0,8.665008545E0
3.250128734E1,-1.510469317E0,1.969891191E0,1.009292603E1
3.252238536E1,-1.360917926E0,1.585245013E0,1.107099247E1
3.254348359E1,-1.668993831E0,1.103689432E0,1.162074280E1
3.256458166E1,-2.222334146E0,1.051645517E0,1.201675510E1
3.258567989E1,-2.075773716E0,1.637887120E0,1.199761295E1
3.260677807E1,-2.064407825E0,2.036890268E0,1.133360481E1
3.262787609E1,-2.248056889E0,1.703689694E0,1.079641533E1
3.264897395E1,-2.317448616E0,1.416550994E0,1.058883858E1
3.267007182E1,-2.987439156E0,1.004985452E0,1.125284672E1
3.269116947E1,-3.430111170E0,8.709874153E-1,1.219502068E1
3.271226744E1,-3.324826956E0,9.044869542E-1,1.214895916E1
3.273336531E1,-2.889333248E0,1.034895778E0,1.078863907E1
3.275446296E1,-2.548954248E0,1.225125194E0,9.062815666E0
3.277556067E1,-2.337189436E0,1.453041553E0,7.888537884E0
3.279665854E1,-2.353341103E0,1.618744493E0,7.450053215E0
3.281775645E1,-2.584248543E0,1.638485312E0,7.481160164E0
3.283885447E1,-2.745165825E0,1.610967875E0,7.450053215E0
3.285995234E1,-2.706880569E0,1.537986755E0,7.215556622E0
3.288105015E1,-2.277967215E0,1.399203062E0,7.023532867E0
3.290214812E1,-1.547558069E0,1.332203984E0,6.859025955E0
3.292324593E1,-1.113260746E0,1.342971683E0,6.571887493E0
3.294434385E1,-9.655039310E-1,1.539183140E0,6.534200668E0
3.296544176E1,-9.296116233E-1,1.996810555E0,6.891329288E0
3.298653978E1,-1.063609719E0,2.327618122E0,7.517052174E0
3.300763786E1,-1.362712502E0,2.611167669E0,8.395816803E0
3.302873588E1,-2.059023857E0,2.950948477E0,9.754341125E0
3.304983385E1,-2.042274237E0,2.571686029E0,1.164048386E1
3.307093187E1,-6.077769399E-1,1.919043779E0,1.312343597E1
3.309202984E1,4.707878530E-1,1.432104349E0,1.335314655E1
3.311312775E1,7.429714203E-1,1.164706469E0,1.264666557E1
3.313422557E1,1.213759303E0,1.726421595E0,1.179482079E1
3.315532364E1,9.367900491E-1,2.289333105E0,1.122532940E1
3.317642150E1,2.709871531E-1,2.539981127E0,1.168834019E1
3.319751926E1,-3.894318938E-1,1.969891191E0,1.275015545E1
3.321861713E1,-8.709874153E-1,1.104287624E0,1.336271763E1
3.323971499E1,-5.264210105E-1,9.170492887E-1,1.311147213E1
3.326081296E1,-1.226321608E-1,1.056431174E0,1.166860008E1
3.328191093E1,-2.093719840E-1,1.476969719E0,9.759725571E0
3.330300885E1,-2.476571500E-1,2.093121529E0,8.475378036E0
3.332410692E1,-2.662015259E-1,2.224128723E0,7.811369419E0
3.334520510E1,-1.136590764E-1,2.056631088E0,8.001599312E0
3.336630312E1,-2.691925466E-1,1.810768485E0,8.443074226E0
3.338740104E1,-8.757730722E-1,1.566700578E0,8.840283394E0
3.340849911E1,-8.697910309E-1,1.517049551E0,8.363512993E0
3.342959728E1,-4.037888348E-1,1.573280931E0,7.337590694E0
3.345069515E1,-1.112662554E-1,1.566700578E0,6.763911247E0
3.347179312E1,3.828516230E-2,1.533201098E0,6.537191391E0
3.349289083E1,1.615155302E-2,1.581057549E0,6.726822853E0
3.351398859E1,-4.893322289E-1,1.686341763E0,7.481758118E0
3.353508650E1,-1.164108157E0,1.689332843E0,8.751749039E0
3.355618416E1,-1.517049551E0,1.648056626E0,9.891928673E0
3.357728171E1,-1.507478237E0,1.374676585E0,1.037827015E1
3.359837942E1,-1.344766378E0,7.716853023E-1,1.077129078E1
3.361947739E1,-1.491326690E0,3.768695593E-1,1.091785145E1
3.364057520E1,-1.556531072E0,7.908278704E-1,1.094955635E1
3.366167286E1,-1.917249203E0,1.604985833E0,1.076112175E1
3.368277041E1,-2.825325251E0,1.638485312E0,1.056490993E1
3.370386822E1,-3.410370588E0,1.520040631E0,1.145683479E1
3.372496635E1,-4.511068821E0,1.169492126E0,1.346381474E1
3.374606411E1,-4.747360229E0,7.812566161E-1,1.440658665E1
3.376716213E1,-3.533600807E0,5.760720372E-1,1.289133167E1
3.378826010E1,-2.334198475E0,4.773681164E-1,1.018744278E1
3.380935801E1,-1.585843205E0,5.234299302E-1,8.060222626E0
3.383045593E1,-1.264606714E0,6.939185858E-1,7.289734364E0
3.385155385E1,-1.622333765E0,7.453642488E-1,7.495516777E0
3.387265213E1,-2.124826431E0,8.279166222E-1,7.670193195E0
3.389375041E1,-2.330609322E0,9.254241586E-1,7.405188084E0
3.391484874E1,-2.199602127E0,1.082752228E0,6.940382004E0
3.393594682E1,-1.832902193E0,1.222134113E0,6.564708710E0
3.395704473E1,-1.462612867E0,1.271785259E0,6.125626087E0
3.397814265E1,-1.179063320E0,1.370489120E0,5.964708805E0
3.399924062E1,-1.051645517E0,1.584048629E0,6.222535133E0
3.402033854E1,-1.031904817E0,1.941177368E0,6.847062111E0
3.404143650E1,-1.180259824E0,2.292324066E0,7.738388538E0
3.406253442E1,-1.808973908E0,2.585444927E0,8.837292671E0
3.408363254E1,-2.137987137E0,2.720041037E0,9.771091461E0
3.410473051E1,-1.709671736E0,2.562114954E0,1.076949692E1
3.412582833E1,-1.352542996E0,2.188236237E0,1.167218876E1
3.414692635E1,-8.003991842E-1,2.241476536E0,1.189113235E1
3.416802421E1,-1.902294010E-1,2.484946251E0,1.208016491E1
3.418912208E1,4.031906128E-1,2.696112871E0,1.262453270E1
3.421021989E1,1.118644550E-1,2.649452925E0,1.265803146E1
3.423131786E1,-9.314061999E-1,2.846262455E0,1.192582798E1
3.425241578E1,-1.855633974E0,3.004188776E0,1.147777176E1
3.427351364E1,-1.813759565E0,2.525624275E0,1.181695461E1
3.429461124E1,-9.415757060E-1,1.992024899E0,1.213041401E1
3.431570900E1,-2.410768867E-1,1.567897081E0,1.099920750E1
3.433680671E1,3.367897868E-1,1.325623751E0,9.446864128E0
3.435790437E1,7.190431952E-1,1.520040631E0,8.556734085E0
3.437900213E1,8.051848412E-1,1.762912035E0,8.228319168E0
3.440010010E1,3.529413342E-1,1.822134495E0,8.347960472E0
3.442119791E1,-7.776673418E-3,1.680957913E0,8.437092781E0
3.444229598E1,-3.846462369E-1,1.695913076E0,8.296514511E0
3.446339426E1,-4.259224236E-1,1.860419631E0,7.655237675E0
3.448449244E1,-3.816552162E-1,2.051247120E0,7.017550468E0
3.450559057E1,-3.254238665E-1,2.045265198E0,6.530611038E0
3.452668859E1,-2.087737769E-1,1.913061738E0,6.256034851E0
3.454778666E1,1.555334684E-2,1.764706731E0,6.537191391E0
3.456888463E1,1.483550072E-1,1.557129383E0,7.309474945E0
3.458998244E1,-1.322034448E-1,1.606780410E0,8.379665375E0
3.461108025E1,-8.231309652E-1,1.721037745E0,8.915657043E0
3.463217801E1,-1.467398524E0,1.759921074E0,9.513862610E0
3.465327588E1,-1.521835208E0,1.285543919E0,1.083111191E1
3.467437348E1,-1.544566989E0,7.082754970E-1,1.168175983E1
3.469547109E1,-1.948953986E0,6.041877270E-1,1.185523987E1
3.471656864E1,-2.382055044E0,6.975077987E-1,1.228594780E1
3.473766635E1,-2.046461582E0,9.511470199E-1,1.249053383E1
3.475876385E1,-2.265404940E0,5.246263742E-1,1.184626675E1
3.477986166E1,-2.304886341E0,4.019941986E-1,1.149691486E1
3.480095958E1,-2.517249346E0,1.100698411E-1,1.207298660E1
3.482205739E1,-2.901895761E0,-3.768695593E-1,1.304387474E1
3.484315525E1,-2.994617462E0,-5.772684813E-1,1.312881947E1
3.486425317E1,-2.609971285E0,-4.007977843E-1,1.184267712E1
3.488535150E1,-2.130808592E0,-5.443671346E-2,1.011505985E1
3.490644984E1,-1.566102386E0,2.614158690E-1,8.739784241E0
3.492754786E1,-1.354337573E0,5.808576941E-1,8.271389961E0
3.494864583E1,-1.662413478E0,7.094719410E-1,8.108677864E0
3.496974343E1,-2.008176327E0,8.374879360E-1,7.894520283E0
3.499084124E1,-1.945963025E0,1.021137118E0,7.655237675E0
3.501193895E1,-1.779063582E0,1.105484009E0,7.546962738E0
3.503303708E1,-1.496112347E0,1.046261668E0,6.987041950E0
3.505413489E1,-1.059422255E0,1.099501967E0,6.160321712E0
3.507523239E1,-7.286145091E-1,1.255633712E0,5.746363640E0
3.509633015E1,-5.724828243E-1,1.546959877E0,6.013761520E0
3.511742781E1,-5.922235847E-1,1.877767563E0,6.374479294E0
3.513852588E1,-6.711867452E-1,2.273181438E0,6.679564476E0
3.515962359E1,-8.219345808E-1,2.618944407E0,7.491329670E0
3.518072119E1,-1.106680512E0,2.681756020E0,8.605786324E0
3.520181900E1,-1.400399446E0,2.499901533E0,9.777072906E0
3.522291687E1,-1.372283816E0,2.357528448E0,1.117627621E1
3.524401479E1,-2.219343036E-1,1.701895118E0,1.293380451E1
3.526511281E1,-1.447657645E-1,1.515254974E0,1.400160217E1
3.528621072E1,7.609176040E-1,1.220339537E0,1.367617798E1
3.530730854E1,1.400399446E0,1.537986755E0,1.250608730E1
3.532840640E1,6.735795736E-1,2.203191519E0,1.188574791E1
3.534950400E1,-5.036891699E-1,2.515454769E0,1.182413292E1
3.537060187E1,-9.457631707E-1,2.050050735E0,1.245583820E1
3.539169973E1,-8.787640929E-1,1.232901812E0,1.313061428E1
3.541279781E1,-1.070788145E0,8.099704385E-1,1.322453213E1
3.543389593E1,-9.828519225E-1,6.041877270E-1,1.252403355E1
3.545499416E1,-2.518445849E-1,6.029912829E-1,1.096271706E1
3.547609187E1,3.098705411E-1,6.209374666E-1,9.276374817E0
3.549718984E1,9.601200819E-1,7.435696125E-1,8.039883614E0
3.551828807E1,8.315058947E-1,9.236295223E-1,7.555337429E0
3.553938630E1,-8.374879137E-3,1.168893814E0,7.677969456E0
3.556048458E1,-7.022934556E-1,1.459621787E0,7.780262947E0
3.558158301E1,-8.386843204E-1,1.690529227E0,7.689335346E0
3.560268130E1,-7.836494446E-1,1.909472466E0,7.359126091E0
3.562377947E1,-6.843472719E-1,1.893320918E0,7.247261524E0
3.564487796E1,-3.714857101E-1,1.683350682E0,7.332805157E0
3.566597619E1,8.255238086E-2,1.402194023E0,7.227520943E0
3.568707452E1,5.521438122E-1,1.145563841E0,7.288537979E0
3.570817249E1,9.906286001E-1,1.054038405E0,7.433303356E0
3.572927031E1,1.094716311E0,1.199402332E0,7.492526054E0
3.575036817E1,1.135394335E0,1.373480201E0,7.216753006E0
3.577146640E1,1.188036442E0,1.624128342E0,7.178467751E0
3.579256458E1,1.020538807E0,1.983051777E0,7.529614449E0
3.581366291E1,4.510470629E-1,2.346760750E0,7.945367813E0
3.583476093E1,-3.906283081E-1,2.619542599E0,9.070592880E0
3.585585911E1,-8.392825127E-1,2.551945448E0,1.053499985E1
3.587695739E1,-8.410771489E-1,2.542972326E0,1.139342499E1
3.589805588E1,-1.371685624E0,2.405983210E0,1.149033451E1
3.591915421E1,-1.697707653E0,2.297109842E0,1.161476135E1
3.594025218E1,-1.399203062E0,2.529811859E0,1.144905853E1
3.596135025E1,-1.831705689E0,1.962114573E0,1.133420277E1
3.598244817E1,-1.683350682E0,1.464407444E0,1.170090294E1
3.600354619E1,-1.922633052E0,9.188438654E-1,1.210768223E1
3.602464416E1,-2.694318295E0,3.385843933E-1,1.290329647E1
3.604574197E1,-3.134597778E0,2.739782035E-1,1.343689537E1
3.606683989E1,-3.115455151E0,4.815555513E-1,1.233858967E1
3.608793791E1,-2.675175667E0,8.327022791E-1,1.021914768E1
3.610903598E1,-2.466402054E0,1.033699393E0,8.392825127E0
3.613013416E1,-3.109472990E0,1.381256819E0,8.762516975E0
3.615123244E1,-2.804388046E0,1.578066587E0,9.250652313E0
3.617233062E1,-3.017947674E0,1.637887120E0,1.025922680E1
3.619342864E1,-2.051845312E0,1.464407444E0,9.325428009E0
3.621452702E1,-5.982056856E-1,9.409775138E-1,7.698308468E0
3.623562515E1,-5.341976285E-1,8.003991842E-1,6.917052269E0
3.625672312E1,-7.591229677E-1,1.113260746E0,7.183253765E0
3.627782135E1,-8.536394835E-1,1.412961721E0,7.998009682E0
3.629891937E1,-1.218544960E0,1.422533035E0,8.378468513E0
3.632001765E1,-1.204786181E0,1.508674622E0,7.998608112E0
3.634111619E1,-9.667003751E-1,1.673181176E0,7.284948349E0
3.636221447E1,-1.022931695E0,1.829312921E0,6.769893646E0
3.638331291E1,-1.281356573E0,1.956132531E0,6.928418159E0
3.640441114E1,-1.319641709E0,2.089532375E0,7.454838753E0
3.642550947E1,-1.024128079E0,2.155334949E0,7.526025295E0
3.644660770E1,-8.356932998E-1,2.109273195E0,7.627122402E0
3.646770588E1,-1.218544960E0,2.126621008E0,8.422736168E0
3.648880400E1,-1.520638824E0,2.106880426E0,9.205786705E0
3.650990213E1,-1.520638824E0,2.214557409E0,9.944570541E0
3.653100020E1,-1.523031592E0,2.391027927E0,1.057328510E1
3.655209833E1,-1.658824325E0,2.447259426E0,1.109910774E1
3.657319671E1,-1.888535261E0,2.545963287E0,1.155434227E1
3.659429499E1,-1.911267042E0,2.499303341E0,1.270887947E1
3.661539322E1,-1.791625977E0,2.381456852E0,1.359721470E1
3.663649145E1,-1.722832322E0,2.724826813E0,1.273101330E1
3.665759004E1,-1.429711580E0,2.520240545E0,1.174038410E1
3.667868848E1,-1.456032634E0,1.580459356E0,1.187498093E1
3.669978656E1,-1.713261008E0,6.155536175E-1,1.258804131E1
3.672088468E1,-1.638485312E0,1.513460279E-1,1.301037502E1
3.674198260E1,-1.499701619E0,-1.316052489E-2,1.218305683E1
3.676308062E1,-1.834696770E0,3.242274821E-1,1.054576778E1
3.678417838E1,-2.340180635E0,6.687939167E-1,9.458230019E0
3.680527645E1,-2.596810818E0,8.841479421E-1,8.889934540E0
3.682637452E1,-2.676372051E0,1.000199914E0,8.462815285E0
3.684747239E1,-1.975275040E0,8.261220455E-1,8.205587387E0
3.686857036E1,-1.362712502E0,5.294120312E-1,6.851847649E0
3.688966828E1,-2.171486616E0,7.112665176E-1,7.926225185E0
3.691076619E1,-2.583052158E0,6.921239495E-1,9.182456970E0
3.693186416E1,-2.726023197E0,1.054636598E0,8.264809608E0
3.698073432E1,-3.251247883E0,2.863610506E0,7.074379921E0
3.700183239E1,-5.437689304E0,3.285943747E0,8.656036377E0
3.702293057E1,-4.649852753E0,2.824727058E0,9.472586632E0
3.704402896E1,-4.104887009E0,2.785245657E0,9.778867722E0
3.706512713E1,-3.892524242E0,3.002394199E0,9.401998520E0
3.708622515E1,-3.865006685E0,3.091526747E0,9.275776863E0
3.710732328E1,-3.943371773E0,3.032902718E0,9.899705887E0
3.712842130E1,-3.980460405E0,3.151945591E0,1.063250732E1
3.714951916E1,-3.879961967E0,3.087937593E0,1.076650524E1
3.717061708E1,-3.421736479E0,2.624328136E0,1.089511967E1
3.719171494E1,-2.696112871E0,2.313261271E0,1.164048386E1
3.721281255E1,-1.909472466E0,2.337189436E0,1.190788174E1
3.723391036E1,-1.208973646E0,2.495115757E0,1.127856922E1
3.725500802E1,-1.188036442E0,2.234896421E0,1.027956581E1
3.727610541E1,-1.558325768E0,2.060818434E0,9.989436150E0
3.729720302E1,-2.142174482E0,2.023131609E0,1.162792206E1
3.731830067E1,-2.364108801E0,1.628913999E0,1.330588818E1
3.733939890E1,-2.177468538E0,9.936196208E-1,1.340818214E1
3.736049718E1,-1.697707653E0,6.795616150E-1,1.234337521E1
3.738159520E1,-1.202393413E0,8.243274093E-1,1.085503960E1
3.740269323E1,-1.065404296E0,1.213759303E0,9.276374817E0
3.742379104E1,-8.057830334E-1,1.414756417E0,8.373682976E0
3.744488916E1,-4.289134443E-1,1.175474167E0,8.733802795E0
3.746598692E1,-4.462614357E-1,7.597211599E-1,8.971888542E0
3.748708500E1,-3.511467278E-1,5.234299302E-1,8.706285477E0
3.750818333E1,-8.973085135E-2,3.960121572E-1,8.127820015E0
3.752928109E1,1.519442350E-1,3.529413342E-1,7.403393269E0
3.755037885E1,5.036891699E-1,4.977070987E-1,6.524031162E0
3.757147651E1,6.951149702E-1,7.357929349E-1,5.975476265E0
3.759257448E1,5.916253924E-1,1.080359459E0,5.881557941E0
3.761367265E1,1.645065546E-1,1.442273855E0,6.312266350E0
3.763477052E1,-3.158525825E-1,1.777269006E0,6.926623344E0
3.765586833E1,-6.669993401E-1,2.085345030E0,7.507481098E0
3.767696625E1,-8.267202377E-1,2.341377020E0,7.901100159E0
3.769806411E1,-1.097707391E0,2.418545485E0,8.541180611E0
3.771916234E1,-1.373480201E0,2.418545485E0,9.725627899E0
3.774026052E1,-1.470389485E0,2.160120726E0,1.067797089E1
3.776135864E1,-1.581057549E0,1.793420553E0,1.096869946E1
3.778245672E1,-1.683350682E0,1.802991867E0,1.094836044E1
3.780355484E1,-1.701895118E0,1.953739643E0,1.082991505E1
3.782465291E1,-1.695314884E0,1.880758643E0,1.043390274E1
3.784575088E1,-1.811964989E0,1.573280931E0,1.055892849E1
3.786684885E1,-1.798206210E0,1.296909928E0,1.098903847E1
3.788794724E1,-2.249253273E0,7.561319470E-1,1.139761257E1
3.790904547E1,-2.628515720E0,4.067798555E-1,1.237567902E1
3.793014406E1,-2.595016241E0,9.690931439E-2,1.397528076E1
3.795124250E1,-2.370688915E0,-7.836493850E-2,1.470808220E1
3.797234078E1,-2.126621008E0,8.973085135E-2,1.400937843E1
3.799343916E1,-2.126022816E0,5.772684813E-1,1.242054367E1
3.801453755E1,-2.514258385E0,1.116251707E0,1.057029438E1
3.803563594E1,-2.750549555E0,1.510469317E0,9.156734467E0
3.805673401E1,-2.386242390E0,1.606182218E0,8.258827209E0
3.807783203E1,-1.896910191E0,1.490130305E0,7.956733704E0
3.809892989E1,-1.842473388E0,1.400399446E0,7.646264553E0
3.812002770E1,-1.856830359E0,1.398604870E0,7.021738052E0
3.814112578E1,-1.740778446E0,1.483550072E0,6.430112839E0
3.816222364E1,-1.651047587E0,1.606780410E0,6.111268997E0
3.818332172E1,-1.690529227E0,1.754537225E0,6.057430744E0
3.820441942E1,-1.762313843E0,1.975275040E0,6.136393547E0
3.822551713E1,-1.788634896E0,2.251047850E0,6.232106686E0
3.824661510E1,-1.954337835E0,2.520838737E0,6.273981094E0
3.826771333E1,-2.370688915E0,3.002394199E0,6.433103561E0
3.828881146E1,-2.638685226E0,3.377469063E0,6.969694138E0
3.830990942E1,-2.269592285E0,3.131606579E0,7.639684677E0
3.833100745E1,-1.724626899E0,2.566900492E0,8.809176445E0
3.835210552E1,-7.686942816E-1,1.920240164E0,1.103091240E1
3.837320333E1,6.269195080E-1,1.290329576E0,1.293380451E1
3.839430104E1,1.959123492E0,1.524826288E0,1.348953724E1
3.841539875E1,2.142772675E0,2.328814745E0,1.293918800E1
3.843649640E1,3.672982752E-1,2.762513638E0,1.209691525E1
3.845759375E1,-1.775474429E0,3.334398270E0,1.156092262E1
3.847869140E1,-2.552543640E0,3.400799274E0,1.231466198E1
3.849978911E1,-2.184048891E0,2.668595552E0,1.390529060E1
3.852088682E1,-1.327418327E0,1.980060697E0,1.379222965E1
3.854198463E1,-6.987041831E-1,1.670190215E0,1.179960632E1
3.856308234E1,2.691925503E-2,1.831107497E0,9.476774216E0
3.858418041E1,6.412764788E-1,2.146960020E0,8.244470596E0
3.860527823E1,1.351944804E-1,2.242672920E0,8.292326927E0
3.862637620E1,-6.000002623E-1,2.250449657E0,8.510073662E0
3.864747458E1,-8.297112584E-1,2.241476536E0,8.223533630E0
3.866857286E1,-7.645068169E-1,2.322832584E0,7.655237675E0
3.868967146E1,-7.818548083E-1,2.461018085E0,6.768098831E0
3.871076953E1,-4.941178858E-1,2.541177750E0,6.031109333E0
3.873186802E1,-3.906283081E-1,2.573480844E0,6.067001820E0
3.875296614E1,-4.630111754E-1,2.378465652E0,6.275177479E0
3.877406458E1,-5.730810165E-1,2.449054003E0,6.675975323E0
3.879516260E1,-1.118046403E0,2.448455811E0,7.191628456E0
3.881626088E1,-1.826920033E0,2.553740025E0,7.781459332E0
3.883735880E1,-2.614757061E0,2.606382132E0,8.175676346E0
3.885845666E1,-2.614158630E0,2.002194405E0,8.669795036E0
3.887955453E1,-1.740180254E0,1.503889084E0,1.002114105E1
3.890065229E1,-1.752742529E0,1.121037364E0,1.141854954E1
3.892175036E1,-2.338385820E0,6.544370055E-1,1.219861031E1
3.894284844E1,-2.552543640E0,5.503492355E-1,1.143589783E1
3.896394661E1,-2.986242771E0,4.259224236E-1,1.027478027E1
3.898504484E1,-3.225524902E0,5.934200287E-1,1.004327488E1
3.900614276E1,-4.162314892E0,6.191428304E-1,1.059063339E1
3.902724062E1,-4.956133842E0,5.659025311E-1,1.146760273E1
3.904833844E1,-5.066203594E0,5.437689424E-1,1.197846985E1
3.906943661E1,-4.299304008E0,2.679961324E-1,1.112064362E1
3.909053479E1,-3.135794163E0,3.984049559E-1,9.256634712E0
3.911163265E1,-2.464607239E0,7.764709592E-1,7.856235027E0
3.913273041E1,-2.398804665E0,1.174277663E0,7.584051132E0
3.915382833E1,-2.781656265E0,1.296909928E0,8.014161110E0
3.917492625E1,-2.997010469E0,1.415354609E0,8.458029747E0
3.919602458E1,-2.796611547E0,1.499103427E0,8.575876236E0
3.921712250E1,-2.338984251E0,1.467398524E0,8.220541954E0
3.923822052E1,-1.773679733E0,1.350748420E0,7.516454220E0
3.925931875E1,-1.262213945E0,1.392622828E0,7.033702374E0
3.928041672E1,-1.175474167E0,1.668395638E0,7.331608772E0
3.930151453E1,-1.570888042E0,1.812563181E0,8.152944565E0
3.932261203E1,-1.615753531E0,1.922034740E0,8.493324280E0
3.934370989E1,-1.435693622E0,1.920838356E0,8.461020470E0
3.936480786E1,-1.262213945E0,1.877169371E0,9.275776863E0
3.938590604E1,-1.115055323E0,1.905883193E0,1.133719349E1
3.940700422E1,-1.116251707E0,1.935195327E0,1.300738430E1
3.942810224E1,-1.040279627E0,1.697109461E0,1.332443333E1
3.944920031E1,-2.422732860E-1,1.487139225E0,1.303908920E1
3.947029828E1,7.609176040E-1,1.814955950E0,1.288594818E1
3.949139640E1,1.092921734E0,2.385046005E0,1.243490124E1
3.951249458E1,2.105683982E-1,2.526820660E0,1.162612724E1
3.953359286E1,-1.424327731E0,2.542374134E0,1.087956619E1
3.955469125E1,-2.416750908E0,2.775674343E0,1.092443180E1
3.957578963E1,-2.158325911E0,2.638685226E0,1.240319633E1
3.959688797E1,-1.965105653E0,2.063809633E0,1.296431351E1
3.961798594E1,-1.730608940E0,1.470987678E0,1.229731369E1
3.963908380E1,-1.324427366E0,1.307677627E0,1.133240795E1
3.966018172E1,-9.972088337E-1,1.436890006E0,1.033101177E1
3.968127968E1,-8.757730722E-1,1.513460279E0,9.206384659E0
3.970237755E1,-8.835497499E-1,1.402194023E0,7.988438606E0
3.972347536E1,-4.546363056E-1,1.384247899E0,7.140182972E0
3.974457307E1,-1.567298770E-1,1.371685624E0,6.658627033E0
3.976567062E1,-2.087737769E-1,1.434497118E0,6.163911343E0
3.978676838E1,-2.506481707E-1,1.674975872E0,5.794219971E0
3.980786620E1,-2.757728100E-1,1.802991867E0,5.706283569E0
3.982896411E1,-2.213360965E-1,1.846062660E0,5.803791523E0
3.985006234E1,-1.178465188E-1,1.950748682E0,5.967699528E0
3.987116020E1,-2.901297510E-1,2.126621008E0,6.369693756E0
3.989225844E1,-8.105686903E-1,2.434098721E0,6.801598549E0
3.991335651E1,-1.421336651E0,2.807379246E0,7.003193855E0
3.993445448E1,-1.779063582E0,3.171088219E0,7.390830994E0
3.995555244E1,-2.066202402E0,3.405584812E0,8.074580193E0
3.997665005E1,-2.529811859E0,3.463610888E0,8.928817749E0
3.999774781E1,-2.953939438E0,3.288934708E0,9.701699257E0
4.001884536E1,-3.066402197E0,2.787040234E0,9.939785004E0
4.003994323E1,-2.592025042E0,2.565105915E0,9.632308006E0
4.006104120E1,-2.231307030E0,2.324627161E0,9.221938133E0
4.008213896E1,-1.762912035E0,2.598605394E0,9.125029564E0
4.010323666E1,-2.142174482E0,2.721237659E0,9.167501450E0
4.012433474E1,-2.724228621E0,2.419741869E0,9.911071777E0
4.014543276E1,-3.287738323E0,2.073979139E0,1.199103260E1
4.016653094E1,-3.664009571E0,1.595414519E0,1.431266880E1
4.018762890E1,-3.568894863E0,1.253839016E0,1.468714523E1
4.020872666E1,-3.119044304E0,1.212562919E0,1.390708542E1
4.022982448E1,-2.772683144E0,1.533201098E0,1.257847023E1
4.025092250E1,-2.968894720E0,1.911267042E0,1.084606647E1
4.027202067E1,-3.192025423E0,2.338385820E0,9.332008362E0
4.029311890E1,-2.879761934E0,2.481955290E0,8.391031265E0
4.031421713E1,-2.600399971E0,2.126022816E0,8.001599312E0
4.033531541E1,-2.228316069E0,1.545763373E0,8.215756416E0
4.035641364E1,-1.862812400E0,1.255633712E0,8.193024635E0
4.037751177E1,-1.342971683E0,1.176072359E0,7.674380302E0
4.039860989E1,-7.818548083E-1,1.213759303E0,7.063612461E0
4.041970817E1,-3.840480447E-1,1.332203984E0,6.553342819E0
4.044080635E1,-3.463610709E-1,1.604985833E0,6.232704639E0
4.046190437E1,-6.747759581E-1,1.898704767E0,6.230910301E0
4.048300234E1,-8.709874153E-1,2.309672117E0,6.238687038E0
4.050410047E1,-1.110269666E0,2.668595552E0,6.454638958E0
4.052519854E1,-1.295713425E0,2.888735056E0,6.819544315E0
4.054629661E1,-1.523031592E0,3.077169895E0,7.171887875E0
4.056739469E1,-1.884347796E0,3.138186932E0,7.426125050E0
4.058849250E1,-2.311466694E0,3.180659533E0,8.550751686E0
4.060959041E1,-2.322832584E0,2.997608662E0,1.043390274E1
4.063068823E1,-1.927418590E0,2.608176708E0,1.205862999E1
4.065178609E1,-1.460818172E0,1.949552298E0,1.306122208E1
4.067288375E1,-8.865407705E-1,1.667199135E0,1.352303696E1
4.069398172E1,-4.785645306E-1,2.046461582E0,1.302832127E1
4.071507963E1,-1.207179070E0,2.187039852E0,1.170688438E1
4.073617755E1,-1.259821177E0,2.286342144E0,1.103749275E1
4.075727494E1,-1.681556106E0,1.700100541E0,1.261196995E1
4.077837260E1,-1.837687731E0,1.366899967E0,1.410329628E1
4.079947073E1,-1.360917926E0,1.087537885E0,1.367916870E1
4.082056870E1,-8.871390224E-1,1.087537885E0,1.205803108E1
4.084166661E1,-5.377869010E-1,1.370489120E0,1.027956581E1
4.086276479E1,-3.014956415E-1,1.732403636E0,9.061020851E0
4.088386286E1,-5.635097623E-1,2.008774519E0,8.327022552E0
4.090496078E1,-8.889335990E-1,2.166700840E0,7.823333740E0
4.092605870E1,-1.048056364E0,2.285743713E0,7.457231998E0
4.094715677E1,-1.173679471E0,2.364108801E0,7.143772125E0
4.096825469E1,-9.026923180E-1,2.401197433E0,7.027122021E0
4.098935281E1,-6.586244106E-1,2.207378864E0,7.280162811E0
4.101045073E1,-4.773681164E-1,1.786242127E0,7.495516777E0
4.103154890E1,-3.948157281E-2,1.493121386E0,7.345965385E0
4.105264687E1,2.679961324E-1,1.442273855E0,7.171887875E0
4.107374463E1,8.614161611E-2,1.532602906E0,7.055835724E0
4.109484250E1,-3.457628787E-1,1.841277003E0,6.936194420E0
4.111594020E1,-6.747759581E-1,2.292324066E0,6.836892605E0
4.113703791E1,-9.762716293E-1,2.633301258E0,7.087540627E0
4.115813557E1,-1.280758262E0,2.898904562E0,7.579265594E0
4.117923364E1,-1.580459356E0,3.134597778E0,7.996813297E0
4.120033182E1,-2.026122570E0,3.403790236E0,8.812167168E0
4.122142963E1,-2.955734253E0,3.178864956E0,1.003669453E1
4.124252755E1,-3.190829039E0,2.429313183E0,1.129412270E1
4.126362557E1,-2.506481647E0,1.956132531E0,1.204427242E1
4.128472370E1,-2.030309916E0,1.515853167E0,1.173559856E1
4.130582156E1,-1.950748682E0,1.548754454E0,1.064148045E1
4.132691963E1,-2.468196630E0,1.671386600E0,1.014377308E1
4.134801760E1,-3.123830080E0,1.649253011E0,1.112961674E1
4.136911562E1,-3.942175388E0,1.116251707E0,1.290867996E1
4.139021385E1,-4.186243057E0,5.551348329E-1,1.390050507E1
4.141131213E1,-3.902095556E0,2.410768867E-1,1.393699551E1
4.143241036E1,-3.228515863E0,4.755735099E-1,1.276152134E1
4.145350844E1,-3.052045345E0,1.004985452E0,1.103749275E1
4.147460656E1,-3.571287870E0,1.554138303E0,9.415159225E0
4.149570468E1,-3.911666870E0,2.133201361E0,8.455039024E0
4.151680276E1,-3.552145243E0,2.273181438E0,7.714460373E0
4.153790088E1,-3.185445070E0,2.093121529E0,7.159325123E0
4.155899922E1,-2.751745939E0,1.882553220E0,7.251449108E0
4.158009724E1,-2.420340061E0,1.729412556E0,7.682755470E0
4.160119526E1,-2.258824587E0,1.466202021E0,7.926823139E0
4.162229328E1,-1.904686809E0,1.290329576E0,7.838887215E0
4.164339140E1,-1.413560033E0,1.305284739E0,7.500900745E0
4.166448989E1,-1.406979680E0,1.520040631E0,6.975676060E0
4.168558849E1,-1.685743570E0,1.601396561E0,6.486343861E0
4.170668672E1,-1.862812400E0,1.950748682E0,6.229713917E0
4.172778494E1,-2.171486616E0,2.368894339E0,6.168696880E0
4.174888302E1,-2.669193745E0,2.781656265E0,6.414559364E0
4.176998078E1,-2.981456995E0,3.032304525E0,6.907480717E0
4.179107906E1,-3.088535786E0,3.135794163E0,7.411767960E0
4.181217718E1,-3.181257725E0,3.182454109E0,8.202595711E0
4.183327526E1,-2.357528448E0,2.557329178E0,9.263813019E0
4.185437338E1,-1.010967612E0,2.338984251E0,1.078325558E1
4.187547125E1,-6.903293133E-1,2.078166485E0,1.241216946E1
4.189656963E1,-1.070788130E-1,1.786840320E0,1.312822151E1
4.191766791E1,1.447657645E-1,1.810170293E0,1.325145149E1
4.193876620E1,-4.660021961E-1,1.799402595E0,1.341057491E1
4.195986453E1,-1.296909928E0,1.549352646E0,1.349073410E1
4.198096260E1,-1.709671736E0,1.424327731E0,1.338365555E1
4.200206088E1,-1.014556766E0,1.548754454E0,1.350509071E1
4.202315896E1,-5.168496966E-1,1.186840057E0,1.316650677E1
4.204425724E1,3.589233849E-3,9.936196208E-1,1.182832050E1
4.206535547E1,5.132604837E-1,1.054038405E0,1.020179939E1
4.208645380E1,7.130611539E-1,1.252642632E0,8.976674080E0
4.210755187E1,8.075776696E-1,1.441675663E0,8.079963684E0
4.212864989E1,7.639086246E-1,1.436890006E0,7.878368378E0
4.214974833E1,6.765705943E-1,1.298106313E0,8.033902168E0
4.217084692E1,4.271188378E-1,1.207777262E0,8.079365730E0
4.219194520E1,2.117647976E-1,1.320838094E0,7.738388538E0
4.221304323E1,2.135594189E-1,1.564906001E0,7.253841877E0
4.223414146E1,3.415754437E-1,1.692323804E0,6.811768055E0
4.225523974E1,4.307080805E-1,1.698904037E0,6.646064758E0
4.227633823E1,3.990031779E-1,1.697707653E0,6.639484406E0
4.229743651E1,3.732803464E-1,1.728814363E0,6.589833736E0
4.231853520E1,1.657029688E-1,1.853241086E0,6.794419765E0
4.233963370E1,-2.087737769E-1,2.006979942E0,7.210771084E0
4.236073192E1,-5.377869010E-1,2.281556368E0,7.625327587E0
4.238183020E1,-8.650053740E-1,2.514258385E0,8.132007599E0
4.240292828E1,-1.349551916E0,2.786442041E0,8.730213165E0
4.242402672E1,-2.190629244E0,2.805584431E0,9.617950439E0
4.244512479E1,-2.542374134E0,2.421536446E0,1.025444126E1
4.246622291E1,-2.330609322E0,2.103889227E0,1.088076305E1
4.248732130E1,-2.382055044E0,1.611566067E0,1.168355465E1
4.250841963E1,-2.735594511E0,1.078564763E0,1.272802162E1
4.252951812E1,-2.857030153E0,9.649057388E-1,1.264726448E1
4.255061656E1,-3.238685369E0,5.760720372E-1,1.231705475E1
4.257171474E1,-3.400799274E0,4.486542344E-1,1.234816170E1
4.259281286E1,-3.787240028E0,2.380858511E-1,1.293081379E1
4.261391094E1,-3.878167391E0,2.751746029E-2,1.333579922E1
4.263500922E1,-3.769293785E0,-2.213360928E-2,1.299960709E1
4.265610771E1,-3.426522017E0,2.123630047E-1,1.191027451E1
4.267720630E1,-3.265006542E0,6.305087805E-1,1.055055332E1
4.269830479E1,-3.336791277E0,9.367900491E-1,9.230313301E0
4.271940344E1,-3.201596737E0,1.342971683E0,8.100900650E0
4.274050130E1,-2.946761131E0,1.458425403E0,7.371089935E0
4.276159942E1,-2.824727058E0,1.360319614E0,7.271189690E0
4.278269739E1,-2.706880569E0,1.242473125E0,7.560122967E0
4.280379520E1,-2.516052961E0,1.121635556E0,7.664809227E0
4.282489338E1,-2.159522533E0,1.048056364E0,7.377670288E0
4.284599198E1,-1.646261930E0,1.034895778E0,6.739385128E0
4.286709057E1,-1.221535921E0,1.111466169E0,6.106483459E0
4.288818859E1,-1.010967612E0,1.289133191E0,5.788836002E0
4.290928656E1,-1.214357495E0,1.518844128E0,5.752345562E0
4.293038463E1,-1.570888042E0,1.831705689E0,5.765506268E0
4.295148265E1,-1.861616015E0,2.252842426E0,5.857629776E0
4.297258083E1,-2.161317110E0,2.638087034E0,6.224329948E0
4.299367911E1,-2.496910334E0,2.953939438E0,7.095317364E0
4.301477729E1,-2.761317253E0,3.174079180E0,8.419744492E0
4.303587552E1,-2.715255499E0,3.214757204E0,9.751350403E0
4.305697385E1,-2.268395901E0,3.122035265E0,1.100040436E1
4.307807213E1,-1.284347534E0,3.000599623E0,1.194138145E1
4.309917052E1,-1.208375469E-1,2.761317253E0,1.284826088E1
4.312026870E1,7.142575383E-1,2.659622431E0,1.414816189E1
4.314136651E1,7.298108935E-2,2.769692183E0,1.462493229E1
4.316246458E1,-1.591825247E0,2.687737942E0,1.480977726E1
4.318356265E1,-1.513460279E0,2.069193363E0,1.489771366E1
4.320466047E1,-9.589236975E-1,8.482556343E-1,1.459322739E1
4.322575849E1,-6.975077987E-1,3.840480447E-1,1.438385487E1
4.324685635E1,-6.287141442E-1,1.758724600E-1,1.355115318E1
4.326795411E1,-5.521438122E-1,2.189432681E-1,1.154118156E1
4.328905208E1,-5.491527915E-1,5.952146053E-1,9.614361763E0
4.331014994E1,-6.017948985E-1,1.049850941E0,8.196614265E0
4.333124797E1,-6.394818425E-1,1.186840057E0,7.237690449E0
4.335234567E1,-5.778666735E-1,1.077966571E0,6.716054916E0
4.337344359E1,-7.477570772E-1,1.183848977E0,6.291328907E0
4.339454187E1,-2.584248483E-1,1.045065284E0,6.320042610E0
4.341564010E1,-6.281159520E-1,1.282552958E0,6.607779503E0
4.343673817E1,-4.576273263E-1,1.293320656E0,6.516254425E0
4.345783630E1,-4.785645381E-2,1.410568953E0,6.160920143E0
4.347893422E1,3.302095234E-1,1.489532113E0,5.930611134E0
4.350003213E1,2.069791555E-1,1.494915962E0,5.824130535E0
4.352113041E1,-1.375873089E-1,1.735394597E0,6.265605927E0
4.354222870E1,-5.150550604E-1,2.022533417E0,6.885347366E0
4.356332666E1,-8.913264275E-1,2.236092806E0,7.266404152E0
4.358442468E1,-1.296909928E0,2.347957134E0,7.605587006E0
4.360552297E1,-1.813759565E0,2.488535643E0,8.401798248E0
4.362662114E1,-2.481955290E0,2.413759947E0,9.546165466E0
4.364771927E1,-2.927020311E0,2.223530531E0,1.047398281E1
4.366881729E1,-2.977867842E0,1.665404558E0,1.096032429E1
4.368991552E1,-2.886940479E0,6.717849374E-1,1.178584766E1
4.371101370E1,-2.400599241E0,5.754738450E-1,1.241994572E1
4.373211187E1,-3.005385160E0,4.079762697E-1,1.218784237E1
4.375321015E1,-3.855435371E0,2.117647976E-1,1.217169094E1
4.377430833E1,-4.461417675E0,-1.794617064E-2,1.310429287E1
4.379540640E1,-4.897509575E0,-6.520441771E-1,1.391665649E1
4.381650442E1,-4.939982414E0,-1.266999602E0,1.394716454E1
4.383760255E1,-4.237090588E0,-1.387837172E0,1.322094345E1
4.385870041E1,-3.348755360E0,-9.858429432E-1,1.207597733E1
4.387979833E1,-2.992822886E0,-5.760720372E-1,1.108534908E1
4.390089604E1,-3.166302681E0,-3.720839322E-1,9.929018021E0
4.392199396E1,-3.339184046E0,-7.657032460E-2,8.702097893E0
4.394309187E1,-3.544368505E0,3.427718580E-1,7.615158081E0
4.396418974E1,-3.589233875E0,6.017948985E-1,6.600601196E0
4.398528760E1,-3.482753277E0,6.711867452E-1,6.372684956E0
4.400638573E1,-3.355933666E0,6.969096065E-1,6.553342819E0
4.402748390E1,-3.110669374E0,7.561319470E-1,6.610770702E0
4.404858208E1,-2.632104874E0,7.322037220E-1,6.375676155E0
4.406968005E1,-2.145763636E0,7.722834945E-1,6.342176437E0
4.409077776E1,-2.008774519E0,8.488538265E-1,6.552744865E0
4.411187594E1,-2.064407825E0,1.073779106E0,6.664609432E0
4.413297385E1,-2.056032896E0,1.360319614E0,6.471388817E0
