"Time (s)","Acceleration x (m/s^2)","Acceleration y (m/s^2)","Acceleration z (m/s^2)"
2.561585200E-2,-1.058835745E0,6.615777969E0,5.743091106E0
4.552080000E-2,-1.643020868E0,6.836044312E0,7.026383400E0
6.542574800E-2,-1.575983286E0,6.587047577E0,8.453327179E0
8.533069600E-2,-6.997054219E-1,5.897517204E0,8.237849236E0
1.052356440E-1,8.978256024E-3,5.863998413E0,6.983287811E0
1.251405920E-1,-3.501519859E-1,6.625354767E0,6.715137005E0
1.450455400E-1,-1.121084929E0,7.113771915E0,6.672041416E0
1.649504880E-1,-1.303044319E0,7.027580738E0,6.681618214E0
1.848554350E-1,-1.149815321E0,6.385934353E0,6.925827026E0
2.047603830E-1,-9.582792521E-1,6.060323238E0,7.102997780E0
2.246653310E-1,-8.960300088E-1,6.342838764E0,7.045536995E0
2.445702790E-1,-1.034893632E0,6.582259178E0,6.763021469E0
2.644752270E-1,-8.194155097E-1,6.524798393E0,6.293757915E0
2.843801750E-1,-6.183025837E-1,6.486490726E0,6.624157429E0
3.042851230E-1,-6.039373875E-1,6.615777969E0,7.040748596E0
3.241900710E-1,-6.230909824E-1,6.836044312E0,7.074267387E0
3.440950190E-1,-2.687491477E-1,6.898293495E0,7.098209381E0
3.639999670E-1,-5.327098817E-2,6.903081894E0,7.270592213E0
3.839049150E-1,-5.225345492E-1,7.568670273E0,7.701548100E0
4.038098630E-1,-1.413177609E0,8.057086945E0,7.821258545E0
4.237148100E-1,-9.056068063E-1,7.832032204E0,8.319252014E0
4.436197580E-1,-1.336563110E0,7.669226646E0,9.621698380E0
4.635247060E-1,-1.743577361E0,7.832032204E0,1.108216095E1
4.834296540E-1,-1.829768658E0,8.167220116E0,1.073260784E1
5.033346020E-1,-1.710058570E0,8.660426140E0,9.262567520E0
5.232395500E-1,-1.734000564E0,8.918999672E0,8.721478462E0
5.431444980E-1,-2.117072821E0,8.583811760E0,9.090185165E0
5.630494460E-1,-3.141791105E0,7.520786285E0,1.006223106E1
5.829543940E-1,-3.927089453E0,6.017227650E0,1.167592335E1
6.028593420E-1,-3.381211281E0,3.991732836E0,1.289217758E1
6.227642900E-1,-2.145803213E0,2.612672567E0,1.303582954E1
6.426692380E-1,-1.700481772E0,2.765901566E0,1.186745930E1
6.625741850E-1,-1.743577361E0,3.828927040E0,9.569025993E0
6.824791330E-1,-1.829768658E0,4.729146957E0,7.265803814E0
7.023840810E-1,-1.968632340E0,4.638167381E0,6.332065105E0
7.222890290E-1,-2.514510393E0,4.001309395E0,7.385513783E0
7.421939770E-1,-2.437895775E0,3.575141668E0,7.634510517E0
7.620989250E-1,-1.240795016E0,3.249530315E0,6.336853504E0
7.820038730E-1,-6.135141850E-1,3.249530315E0,5.580285549E0
8.019088210E-1,-7.428010702E-1,3.364451885E0,5.953781128E0
8.218137690E-1,-1.025316834E0,3.771466255E0,6.815693855E0
8.417187170E-1,-6.422445774E-1,4.192845821E0,5.800552368E0
8.616236650E-1,-5.368997455E-1,4.178480625E0,4.718372822E0
8.815286130E-1,-2.543839216E-1,3.766677856E0,6.494870663E0
9.014335600E-1,2.483984232E-1,3.790619850E0,8.740632057E0
9.213385080E-1,3.633201122E-1,4.384381771E0,8.740632057E0
9.412434560E-1,6.985083222E-1,4.963778496E0,7.668029308E0
9.611484040E-1,8.277952671E-1,5.581482887E0,6.916250229E0
9.810533520E-1,3.728969097E-1,6.328473568E0,7.198765755E0
1.000958300E0,-2.304419130E-1,6.587047577E0,8.237849236E0
1.020863248E0,-2.160767019E-1,6.314108372E0,9.324816704E0
1.040768196E0,-5.512649417E-1,6.323685169E0,1.026813221E1
1.060673144E0,-5.416881442E-1,6.912658691E0,1.112046814E1
1.080578092E0,-2.783259451E-1,7.281365871E0,1.005744267E1
1.100483040E0,-5.985504249E-4,6.855197906E0,8.807669640E0
1.120387988E0,3.154360652E-1,6.132149220E0,9.008782387E0
1.140292935E0,3.010708690E-1,5.380369663E0,9.731831551E0
1.160197883E0,1.957259923E-1,4.772242546E0,9.909002304E0
1.180102831E0,-1.298854351E-1,4.389170170E0,9.578602791E0
1.200007779E0,-1.394622475E-1,4.015674591E0,9.214683533E0
1.219912727E0,4.351461530E-1,3.646967649E0,8.376712799E0
1.239817675E0,7.703344226E-1,3.503315687E0,7.289745808E0
1.259722623E0,7.655459642E-1,3.503315687E0,6.585850239E0
1.279627571E0,7.703344226E-1,3.402759075E0,6.308123112E0
1.299532519E0,7.368155718E-1,3.354875088E0,6.652887821E0
1.319437467E0,5.883750916E-1,3.421912670E0,6.509235859E0
1.339342415E0,4.159925580E-1,3.536834478E0,5.723937511E0
1.359247363E0,4.728548229E-2,3.666121244E0,5.216366768E0
1.379152310E0,-4.938040972E-1,3.551199675E0,5.699995518E0
1.399057258E0,-4.985924959E-1,3.287837505E0,7.055113792E0
1.418962206E0,-4.124012291E-1,3.168127298E0,7.438186169E0
1.438867154E0,-2.112883031E-1,3.350086689E0,7.155670166E0
1.458772102E0,1.238999367E-1,3.953425646E0,7.256227016E0
1.478677050E0,-3.118447661E-1,4.547187805E0,7.806893349E0
1.498581998E0,-1.025316834E0,5.121796131E0,8.659229279E0
1.518486946E0,-1.427542806E0,5.456984043E0,9.229048729E0
1.538391894E0,-1.585560083E0,5.576694489E0,9.320028305E0
1.558296842E0,-1.307832718E0,5.399523258E0,9.454104424E0
1.578201790E0,-6.661866307E-1,5.289390087E0,1.027292061E1
1.598106738E0,-4.315548539E-1,5.878363609E0,1.098160458E1
1.618011685E0,-8.960300088E-1,6.898293495E0,1.077570343E1
1.637916633E0,-1.087566137E0,7.678803444E0,1.012926865E1
1.657821581E0,-1.044470549E0,7.525574684E0,9.885060310E0
1.677726529E0,-1.245583415E0,6.395511150E0,1.090499020E1
1.697631477E0,-2.054823637E0,5.145738125E0,1.266233444E1
1.717536425E0,-2.763507366E0,3.919906616E0,1.380676270E1
1.737441373E0,-2.485780001E0,3.187281132E0,1.389774227E1
1.757346321E0,-1.892017841E0,3.316567898E0,1.214997482E1
1.777251269E0,-1.757942557E0,3.709217072E0,1.007180786E1
1.797156217E0,-1.695693374E0,3.819350243E0,8.927379608E0
1.817061165E0,-1.676539779E0,3.833715439E0,8.189965248E0
1.836966113E0,-1.652597666E0,3.953425646E0,7.342418194E0
1.856871060E0,-1.556829691E0,3.852869034E0,6.293757915E0
1.876776008E0,-1.168969035E0,3.555988073E0,5.388749599E0
1.896680956E0,-7.092822790E-1,3.134608507E0,4.646546841E0
1.916585904E0,-5.847837925E-1,2.808997154E0,4.526836872E0
1.936490852E0,-6.230909824E-1,2.574365377E0,5.225943565E0
1.956395800E0,-9.582792521E-1,2.574365377E0,6.523601055E0
1.976300748E0,-1.121084929E0,2.804208755E0,6.830059052E0
1.996205696E0,-8.768763542E-1,3.508104086E0,6.135740280E0
2.016110644E0,-5.368997455E-1,4.159327030E0,5.642534733E0
2.036015592E0,-4.028244317E-1,4.628590584E0,6.059125900E0
2.055920540E0,-1.107318252E-1,5.370792866E0,7.917026520E0
2.075825488E0,3.393780887E-1,5.878363609E0,9.185953140E0
2.095730435E0,1.526303589E-1,5.964554787E0,9.166799545E0
2.115635383E0,-1.921346933E-1,6.117784023E0,8.980051994E0
2.135540331E0,-5.847837925E-1,6.481702328E0,9.645640373E0
2.155445279E0,-9.582792521E-1,7.070676327E0,1.053149509E1
2.175350227E0,-1.145026922E0,7.190386295E0,1.108216095E1
2.195255175E0,-8.242039084E-1,6.749853134E0,1.147959900E1
2.215160123E0,-3.453635871E-1,6.649296761E0,1.216434002E1
2.235065071E0,-1.442506462E-1,6.596624374E0,1.197280407E1
2.254970019E0,-8.200141042E-2,6.060323238E0,1.087625980E1
2.274874967E0,-3.836708367E-1,5.150526524E0,1.017236423E1
2.294779915E0,-3.836708367E-1,4.274248600E0,1.063205147E1
2.314684863E0,-1.969230920E-1,3.675698042E0,1.078528023E1
2.334589810E0,1.430535465E-1,3.642179251E0,9.803657532E0
2.354494758E0,3.058592677E-1,3.728370667E0,8.371924400E0
2.374399706E0,-1.975216344E-2,3.670909643E0,7.529165745E0
2.394304654E0,-6.087257862E-1,3.642179251E0,7.442974567E0
2.414209602E0,-7.523778677E-1,3.350086689E0,7.304111004E0
2.434114550E0,-6.135141850E-1,3.038840532E0,6.566696644E0
2.454019498E0,-7.140706778E-1,3.125031710E0,5.661688328E0
2.473924446E0,-1.044470549E0,3.330933094E0,5.106233597E0
2.493829394E0,-1.216853023E0,3.374028683E0,5.067926407E0
2.513734342E0,-9.199720025E-1,3.216011524E0,5.350442410E0
2.533639290E0,-5.321113467E-1,3.134608507E0,5.642534733E0
2.553544238E0,-1.586158574E-1,3.340509892E0,5.853224754E0
2.573449185E0,4.303577542E-1,3.685275078E0,5.551555157E0
2.593354133E0,5.452794433E-1,4.432265759E0,5.652111530E0
2.613259081E0,7.122749835E-2,5.615001678E0,7.021595001E0
2.633164029E0,-6.709750295E-1,6.165668011E0,8.094197273E0
2.653068977E0,-9.630676508E-1,6.242282391E0,8.539519310E0
2.672973925E0,-4.411316514E-1,6.069900036E0,8.721478462E0
2.692878873E0,-5.386953708E-3,5.682039261E0,8.980051994E0
2.712783821E0,3.824737072E-1,5.485714436E0,1.043093872E1
2.732688769E0,4.351461530E-1,5.533598900E0,1.195843887E1
2.752593717E0,4.249707982E-2,6.002861977E0,1.209251404E1
2.772498665E0,2.627636492E-1,6.553528786E0,1.085231781E1
2.792403613E0,1.095347255E-1,6.941389084E0,1.000477028E1
2.812308560E0,-1.283890605E0,7.094618320E0,1.020109463E1
2.832213508E0,-2.480991602E0,6.917447090E0,1.083316422E1
2.852118456E0,-2.940678120E0,5.830479622E0,1.123060131E1
2.872023404E0,-3.184886694E0,4.446630955E0,1.160888577E1
2.891928352E0,-3.007715940E0,3.589506865E0,1.180999851E1
2.911833300E0,-2.514510393E0,3.211223125E0,1.065120506E1
2.931738248E0,-2.160168409E0,3.292625904E0,8.908226013E0
2.951643196E0,-2.179322004E0,3.828927040E0,7.720701694E0
2.971548144E0,-2.399588585E0,4.211999416E0,6.605003834E0
2.991453092E0,-2.322974205E0,3.977367640E0,5.905897141E0
3.011358040E0,-1.523310781E0,3.369240284E0,6.178835869E0
3.031262988E0,-6.853402257E-1,2.880823135E0,7.088632584E0
3.051167935E0,-3.309983909E-1,2.583942175E0,7.184400558E0
3.071072883E0,-6.284779310E-2,2.583942175E0,6.561908245E0
3.090977831E0,2.675520480E-1,2.741959572E0,5.647323132E0
3.110882779E0,4.255693555E-1,3.244741917E0,5.216366768E0
3.130787727E0,-5.386953708E-3,3.790619850E0,5.450998783E0
3.150692675E0,-6.422445774E-1,4.116231441E0,5.996876717E0
3.170597623E0,-8.050503135E-1,4.393958569E0,6.504447460E0
3.190502571E0,-3.693056107E-1,4.370016575E0,6.825270653E0
3.210407519E0,-9.636662155E-2,4.384381771E0,6.839635849E0
3.230312467E0,-4.369417951E-2,4.987720490E0,7.208342552E0
3.250217415E0,-1.777694821E-1,5.768230438E0,7.696759701E0
3.270122363E0,-9.582792521E-1,6.156091213E0,8.371924400E0
3.290027310E0,-1.738788962E0,6.093842030E0,9.904213905E0
3.309932258E0,-1.786673069E0,5.662885666E0,1.183872890E1
3.329837206E0,-1.312621117E0,5.040393353E0,1.314596272E1
3.349742154E0,-8.194155097E-1,4.978143692E0,1.316511631E1
3.369647102E0,-8.960300088E-1,5.749076843E0,1.236066437E1
3.389552050E0,-1.001374841E0,6.577470779E0,1.178126812E1
3.409456998E0,-1.331774712E0,6.821679115E0,1.151790619E1
3.429361946E0,-1.446696401E0,6.395511150E0,1.169507694E1
3.449266894E0,-1.326986313E0,5.677250862E0,1.166634655E1
3.469171842E0,-1.192911029E0,5.069123745E0,1.104864216E1
3.489076790E0,-9.678560495E-1,4.652532578E0,9.985616684E0
3.508981738E0,-7.954735160E-1,4.489726543E0,8.908226013E0
3.528886685E0,-6.997054219E-1,4.393958569E0,8.094197273E0
3.548791633E0,-6.183025837E-1,4.183269024E0,7.500435352E0
3.568696581E0,-5.895721912E-1,3.900753021E0,6.978499413E0
3.588601529E0,-5.321113467E-1,3.690063477E0,6.873154640E0
3.608506477E0,-4.890156984E-1,3.465008497E0,6.820482254E0
3.628411425E0,-6.230909824E-1,3.278260708E0,6.605003834E0
3.648316373E0,-6.566098332E-1,3.139396906E0,6.509235859E0
3.668221321E0,-6.757634282E-1,2.943072557E0,6.322488308E0
3.688126269E0,-7.332242727E-1,3.000533342E0,5.915473938E0
3.708031217E0,-9.295488000E-1,3.345298290E0,5.115810394E0
3.727936165E0,-9.870096445E-1,3.843292236E0,4.478952885E0
3.747841113E0,-4.459200799E-1,4.121019840E0,4.541202068E0
3.767746060E0,2.148796022E-1,4.240729809E0,5.202001572E0
3.787651008E0,6.697779298E-1,4.762665749E0,5.752667904E0
3.807555956E0,7.176619768E-1,5.418676853E0,6.087856293E0
3.827460904E0,5.261258483E-1,5.859210014E0,6.724713802E0
3.847365852E0,3.202244639E-1,6.170456409E0,7.170035362E0
3.867270800E0,1.430535465E-1,6.448183537E0,7.284957409E0
3.887175748E0,6.643909961E-2,6.491279125E0,7.677606106E0
3.907080696E0,1.669955701E-1,6.232705593E0,8.764574051E0
3.926985644E0,2.819172442E-1,6.002861977E0,9.995193481E0
3.946890592E0,3.585317135E-1,6.022016048E0,1.041178417E1
3.966795540E0,1.047463268E-1,6.304531574E0,1.071345425E1
3.986700488E0,-5.081692934E-1,6.783371925E0,1.139819527E1
4.006605435E0,-1.485003591E0,7.410652637E0,1.209730244E1
4.026510383E0,-3.036446333E0,7.458536625E0,1.221701241E1
4.046415331E0,-3.601477861E0,7.018003941E0,1.199674606E1
4.066320279E0,-3.572747469E0,5.959766388E0,1.147002220E1
4.086225227E0,-3.366846085E0,4.805761337E0,1.115398693E1
4.106130175E0,-2.988562346E0,3.814561844E0,1.139819527E1
4.126035123E0,-2.399588585E0,3.153762102E0,1.115877533E1
4.145940071E0,-1.915959954E0,3.014898539E0,9.808445930E0
4.165845019E0,-1.657386184E0,3.263895512E0,8.031948090E0
4.185749967E0,-1.643020868E0,3.560776472E0,6.466140270E0
4.205654915E0,-1.690904975E0,3.876811028E0,5.412691593E0
4.225559863E0,-1.571194887E0,3.929483652E0,4.852448463E0
4.245464810E0,-1.700481772E0,3.838503838E0,5.695207119E0
4.265369758E0,-1.628655672E0,3.819350243E0,6.892308235E0
4.285274706E0,-1.101931334E0,3.685275078E0,6.399102688E0
4.305179654E0,-6.709750295E-1,3.790619850E0,5.546766758E0
4.325084602E0,-6.757634282E-1,4.125808239E0,5.417479992E0
4.344989550E0,-8.337807655E-1,4.537611008E0,5.790975571E0
4.364894498E0,-5.799953341E-1,4.772242546E0,6.107009888E0
4.384799446E0,-3.262099922E-1,5.026028156E0,5.910685539E0
4.404704394E0,-3.070563674E-1,5.313332081E0,5.996876717E0
4.424609342E0,-3.980360329E-1,5.586271286E0,6.782175064E0
4.444514290E0,-4.459200799E-1,5.801749229E0,7.658452511E0
4.464419238E0,-8.481459618E-1,5.801749229E0,8.247426033E0
4.484324185E0,-1.116296530E0,5.696404457E0,9.554660797E0
4.504229133E0,-1.269525409E0,5.792172432E0,1.143650341E1
4.524134081E0,-1.480215192E0,5.969343185E0,1.206857204E1
4.544039029E0,-1.580771685E0,6.103418827E0,1.184351730E1
4.563943977E0,-1.274313807E0,6.084265232E0,1.175253773E1
4.583848925E0,-4.794389009E-1,6.007650852E0,1.195365047E1
4.603753873E0,-5.327098817E-2,6.002861977E0,1.177169132E1
4.623658821E0,-4.507084787E-1,6.031592846E0,1.126890850E1
4.643563769E0,-8.194155097E-1,5.576694489E0,1.056980228E1
4.663468717E0,-1.681926697E-1,4.757877350E0,1.028728580E1
4.683373665E0,6.218938828E-1,3.723582268E0,9.774927139E0
4.703278613E0,8.182184100E-1,3.158550501E0,9.185953140E0
4.723183560E0,5.213374496E-1,3.144185305E0,8.070255280E0
4.743088508E0,3.770867735E-2,3.374028683E0,6.997653008E0
4.762993456E0,-4.076128304E-1,3.316567898E0,6.537966251E0
4.782898404E0,-8.960300088E-1,3.326144695E0,6.763021469E0
4.802803352E0,-1.370081902E0,3.618237257E0,6.935403824E0
4.822708300E0,-1.355716705E0,3.757101059E0,6.509235859E0
4.842613248E0,-9.103952050E-1,3.661332846E0,6.169259071E0
4.862518196E0,-2.208651006E-1,3.565564871E0,6.241085052E0
4.882423144E0,3.345896900E-1,3.388393879E0,6.767809868E0
4.902328092E0,1.717839688E-1,3.570353270E0,7.146093369E0
4.922233040E0,1.478419602E-1,3.809773445E0,7.371148586E0
4.942137988E0,5.357026458E-1,4.106654644E0,7.409455776E0
4.962042935E0,9.379284978E-1,4.489726543E0,7.208342552E0
4.981947883E0,1.239597917E0,4.302978992E0,7.294534206E0
5.001852831E0,8.804676533E-1,4.523245335E0,9.152434349E0
5.021757779E0,6.165069342E-2,5.318120480E0,1.115398693E1
5.041662727E0,-3.411737457E-2,5.490502834E0,1.176690292E1
5.061567675E0,4.207809567E-1,4.930259705E0,1.194407368E1
5.081472623E0,-5.805939063E-2,4.954201698E0,1.282035160E1
5.101377571E0,-1.116296530E0,6.031592846E0,1.346678638E1
5.121282519E0,-2.164956808E0,6.764218330E0,1.292569637E1
5.141187467E0,-2.198475599E0,6.366780758E0,1.077091503E1
5.161092415E0,-2.231994629E0,5.188833714E0,9.971251488E0
5.180997363E0,-2.447472572E0,4.350862980E0,1.096245098E1
5.200902310E0,-2.586336374E0,4.063559055E0,1.090977859E1
5.220807258E0,-2.543240786E0,4.010886192E0,9.506776810E0
5.240712206E0,-2.404376984E0,4.049193859E0,7.591414928E0
5.260617154E0,-2.385223389E0,3.967790842E0,5.843647957E0
5.280522102E0,-2.533663988E0,4.101866245E0,5.441421986E0
5.300427050E0,-2.346916199E0,4.025251389E0,5.680841923E0
5.320331998E0,-1.925536752E0,3.642179251E0,5.743091106E0
5.340236946E0,-1.365293503E0,3.192069530E0,5.695207119E0
5.360141894E0,-9.965864420E-1,3.029263735E0,5.388749599E0
5.380046842E0,-1.073200941E0,3.369240284E0,5.053561211E0
5.399951790E0,-9.822212458E-1,3.862445831E0,4.814141273E0
5.419856738E0,-6.374561787E-1,4.293402195E0,4.694430828E0
5.439761685E0,-3.118447661E-1,4.279036999E0,5.393537998E0
5.459666633E0,-6.284779310E-2,4.494514942E0,6.193201065E0
5.479571581E0,-3.549404144E-1,5.351639271E0,6.858789444E0
5.499476529E0,-9.774328470E-1,6.242282391E0,7.993640900E0
5.519381477E0,-6.518214345E-1,6.256647587E0,9.013570786E0
5.539286425E0,-4.369417951E-2,6.041169643E0,9.090185165E0
5.559191373E0,-4.219780564E-1,6.572682381E0,9.324816704E0
5.579096321E0,-1.307832718E0,7.171232700E0,1.046924591E1
5.599001269E0,-1.796249866E0,6.941389084E0,1.216912842E1
5.618906217E0,-1.288679123E0,6.290166378E0,1.267669964E1
5.638811165E0,-1.326986313E0,6.381145954E0,1.278683281E1
5.658716113E0,-8.433575630E-1,6.649296761E0,1.115877533E1
5.678621060E0,-1.288679123E0,6.788160324E0,1.023461342E1
5.698526008E0,-1.398812294E0,6.371569157E0,1.000955868E1
5.718430956E0,-3.884592354E-1,5.150526524E0,1.044530392E1
5.738335904E0,2.148796022E-1,4.221576214E0,1.011011505E1
5.758240852E0,4.973953962E-1,3.919906616E0,8.376712799E0
5.778145800E0,3.154360652E-1,4.010886192E0,7.093420982E0
5.798050748E0,-3.890577704E-2,4.389170170E0,6.399102688E0
5.817955696E0,-2.735375464E-1,4.408323765E0,6.413467884E0
5.837860644E0,-2.783259451E-1,4.235941410E0,6.576273441E0
5.857765592E0,-7.242459804E-2,4.092289448E0,6.834847450E0
5.877670540E0,-1.250970364E-1,4.001309395E0,6.763021469E0
5.897575488E0,-5.273229480E-1,4.231153011E0,6.097433090E0
5.917480435E0,-7.715315223E-1,4.336497784E0,5.762245178E0
5.937385383E0,-5.991489887E-1,4.106654644E0,6.236296654E0
5.957290331E0,-2.687491477E-1,3.929483652E0,6.394314289E0
5.977195279E0,-4.938040972E-1,4.135385036E0,5.762245178E0
5.997100227E0,-7.811083198E-1,4.896740913E0,5.111021996E0
6.017005175E0,-9.726444483E-1,5.662885666E0,5.292981625E0
6.036910123E0,-1.111508131E0,5.978919983E0,6.025607109E0
6.056815071E0,-7.236474752E-1,6.247070789E0,6.997653008E0
6.076720019E0,-6.284779310E-2,6.203975201E0,8.103774071E0
6.096624967E0,2.334346622E-2,6.558317184E0,8.922591209E0
6.116529915E0,-4.602852762E-1,7.099406719E0,9.679159164E0
6.136434863E0,-8.960300088E-1,7.338826656E0,1.058895588E1
6.156339810E0,-1.312621117E0,7.506421089E0,1.184830570E1
6.176244758E0,-1.666962981E0,7.899069786E0,1.170465374E1
6.196149706E0,-2.208052635E0,7.420229435E0,1.109652615E1
6.216054654E0,-2.423530579E0,6.610989571E0,1.168550014E1
6.235959602E0,-2.605489969E0,5.490502834E0,1.237502956E1
6.255864550E0,-2.174533606E0,4.235941410E0,1.234151077E1
6.275769498E0,-1.470638394E0,3.517680883E0,1.101991177E1
6.295674446E0,-1.255160213E0,3.771466255E0,8.893860817E0
6.315579394E0,-1.202487826E0,3.905541420E0,7.045536995E0
6.335484342E0,-1.145026922E0,3.441066504E0,6.806117058E0
6.355389290E0,-1.154603720E0,3.196857929E0,7.170035362E0
6.375294238E0,-1.475426793E0,3.067570925E0,8.041524887E0
6.395199185E0,-1.192911029E0,2.660556555E0,7.342418194E0
6.415104133E0,-9.439139962E-1,2.722805977E0,5.834071159E0
6.435009081E0,-8.289923668E-1,3.014898539E0,4.689642429E0
6.454914029E0,-7.667431235E-1,3.369240284E0,4.622604847E0
6.474818977E0,-1.082777739E0,3.623025656E0,5.264250755E0
6.494723925E0,-1.039682031E0,3.632602453E0,5.934627533E0
6.514628873E0,-4.076128304E-1,3.646967649E0,5.767033577E0
6.534533821E0,-2.017114908E-1,4.144961834E0,5.470152378E0
6.554438769E0,-8.050503135E-1,5.112219334E0,5.580285549E0
6.574343717E0,-1.480215192E0,5.710769653E0,6.193201065E0
6.594248665E0,-1.293467522E0,5.634155273E0,7.313687801E0
6.614153613E0,-1.264737010E0,5.442618847E0,8.343194008E0
6.634058560E0,-1.777096152E0,5.528810501E0,9.501988411E0
6.653963508E0,-2.093130827E0,5.452195644E0,1.039741898E1
6.673868456E0,-2.160168409E0,5.648520470E0,1.129763889E1
6.693773404E0,-1.944690347E0,5.840056419E0,1.159452057E1
6.713678352E0,-1.499368787E0,5.921459198E0,1.148438740E1
6.733583300E0,-1.168969035E0,6.539163589E0,1.142213821E1
6.753488248E0,-1.025316834E0,7.032369137E0,1.122581291E1
6.773393196E0,-3.262099922E-1,6.419453144E0,1.106779575E1
6.793298144E0,-6.284779310E-2,5.476137638E0,1.122102451E1
6.813203092E0,-2.454056777E-2,4.604648590E0,1.146044540E1
6.833108040E0,-2.454056777E-2,3.943848848E0,1.107737255E1
6.853012988E0,-1.825578809E-1,3.982156038E0,9.875483513E0
6.872917935E0,-2.448071241E-1,4.341286182E0,8.673594475E0
6.892822883E0,6.165069342E-2,4.417900562E0,7.696759701E0
6.912727831E0,1.909375787E-1,4.336497784E0,7.419032574E0
6.932632779E0,-5.386953708E-3,4.331709385E0,7.428609371E0
6.952537727E0,-1.729810685E-1,4.288613796E0,7.002441406E0
6.972442675E0,-4.650736749E-1,4.432265759E0,6.375160694E0
6.992347623E0,-5.991489887E-1,4.417900562E0,5.752667904E0
7.012252571E0,-5.560533404E-1,3.948637247E0,5.436633587E0
7.032157571E0,-5.943605900E-1,3.666121244E0,5.326500416E0
7.052062571E0,-7.906851172E-1,3.718793869E0,5.259462357E0
7.071967571E0,-7.667431235E-1,3.694851875E0,5.613804340E0
7.091872571E0,-7.140706778E-1,3.771466255E0,5.996876717E0
7.111777571E0,-8.433575630E-1,4.111443043E0,6.241085052E0
7.131682571E0,-9.726444483E-1,4.575918198E0,6.858789444E0
7.151587571E0,-6.422445774E-1,4.963778496E0,7.471704960E0
7.171492571E0,-2.400187254E-1,5.270236492E0,7.888296127E0
7.191397571E0,-2.831143439E-1,5.366004467E0,8.845976830E0
7.211302571E0,-3.693056107E-1,5.289390087E0,1.040699577E1
7.231207571E0,-2.735375464E-1,5.160103321E0,1.156100178E1
7.251112571E0,-2.783259451E-1,5.519233704E0,1.171423054E1
7.271017571E0,-6.230909824E-1,6.175244808E0,1.183394051E1
7.290922571E0,-1.063624144E0,6.764218330E0,1.155621338E1
7.310827571E0,-1.288679123E0,6.888716698E0,1.077570343E1
7.330732571E0,-1.259948611E0,6.266224384E0,1.080922222E1
7.350637571E0,-8.625111580E-1,5.011662483E0,1.180521011E1
7.370542571E0,-8.385691643E-1,3.819350243E0,1.242291451E1
7.390447571E0,-5.895721912E-1,3.699640274E0,1.131200409E1
7.410352571E0,-2.256535143E-1,3.872022629E0,9.329605103E0
7.430257571E0,-2.783259451E-1,3.996521235E0,8.151658058E0
7.450162571E0,-7.188590765E-1,4.092289448E0,8.017582893E0
7.470067571E0,-9.678560495E-1,4.068347454E0,8.060678482E0
7.489972571E0,-9.391255975E-1,4.149750233E0,7.883507729E0
7.509877571E0,-8.768763542E-1,4.298190594E0,7.280169010E0
7.529782571E0,-8.050503135E-1,4.326920986E0,6.590638638E0
7.549687571E0,-6.518214345E-1,4.178480625E0,6.442198277E0
7.569592571E0,-5.273229480E-1,3.828927040E0,6.729502201E0
7.589497571E0,-2.831143439E-1,3.570353270E0,6.533177853E0
7.609402571E0,-9.157821536E-2,3.541622877E0,6.083067894E0
7.629307571E0,-5.327098817E-2,3.646967649E0,5.565920353E0
7.649212571E0,-2.879027426E-1,4.039616585E0,5.460575581E0
7.669117571E0,-4.315548539E-1,4.226364613E0,6.542754650E0
7.689022519E0,-6.183025837E-1,4.307767391E0,7.227496147E0
7.708927467E0,-7.236474752E-1,4.719570160E0,6.897096634E0
7.728832415E0,-7.619546652E-1,5.049970150E0,6.715137005E0
7.748737363E0,-7.571662664E-1,5.270236492E0,7.093420982E0
7.768642310E0,-7.284358740E-1,5.275024891E0,7.960122108E0
7.788547258E0,-8.720879555E-1,5.222352505E0,8.740632057E0
7.808452206E0,-9.965864420E-1,5.600636482E0,9.085396767E0
7.828357154E0,-7.571662664E-1,5.749076843E0,8.798092842E0
7.848262102E0,-6.566098332E-1,5.682039261E0,9.219471931E0
7.868167050E0,-9.534908533E-1,5.686827660E0,1.035911179E1
7.888071998E0,-1.030105233E0,5.715558052E0,1.106300735E1
7.907976946E0,-6.470330358E-1,5.959766388E0,1.113483334E1
7.927881894E0,-1.442506462E-1,5.974131584E0,1.091456699E1
7.947786842E0,-5.327098817E-2,5.595848083E0,1.065120506E1
7.967691790E0,-3.214215636E-1,5.155314922E0,1.086668301E1
7.987596738E0,-5.464765429E-1,4.571129799E0,1.114441013E1
8.007501685E0,-5.273229480E-1,4.116231441E0,1.135509968E1
8.027406633E0,-3.166331649E-1,3.843292236E0,1.100554657E1
8.047311581E0,-1.059434265E-1,3.685275078E0,1.033516979E1
8.067216529E0,1.376665942E-2,3.670909643E0,9.746196747E0
8.087121477E0,5.686229095E-2,3.714005470E0,9.051877975E0
8.107026425E0,1.382651478E-1,3.632602453E0,8.625710487E0
8.126931373E0,5.686229095E-2,3.330933094E0,8.750208855E0
8.146836321E0,-1.011550203E-1,3.235165119E0,8.731055260E0
8.166741269E0,-1.298854351E-1,3.182492495E0,8.333617210E0
8.186646217E0,-2.448071241E-1,3.230376720E0,8.027159691E0
8.206551165E0,-4.315548539E-1,3.268683910E0,7.620145321E0
8.226456113E0,-5.752069354E-1,3.297414303E0,7.490858555E0
8.246361060E0,-4.794389009E-1,3.163338900E0,7.605780125E0
8.266266008E0,-4.028244317E-1,3.057994127E0,7.510012150E0
8.286170956E0,-5.704185367E-1,3.211223125E0,7.356783390E0
8.306075904E0,-8.098387122E-1,3.445854902E0,7.419032574E0
8.325980852E0,-1.010951638E0,3.637390852E0,7.203554153E0
8.345885800E0,-1.111508131E0,3.857657433E0,7.179612160E0
8.365790748E0,-1.283890605E0,4.025251389E0,7.323264599E0
8.385695696E0,-1.374870300E0,4.226364613E0,7.318476200E0
8.405600644E0,-1.408389091E0,4.690839767E0,7.193977356E0
8.425505592E0,-1.293467522E0,5.140949726E0,7.213130951E0
8.445410540E0,-9.439139962E-1,5.169680119E0,7.414244175E0
8.465315488E0,-7.667431235E-1,5.069123745E0,7.883507729E0
8.485220435E0,-8.194155097E-1,4.973355293E0,8.098985672E0
8.505125383E0,-8.720879555E-1,4.901529312E0,8.156446457E0
8.525030331E0,-7.715315223E-1,5.030816555E0,7.749432564E0
8.544935279E0,-1.441908002E0,5.571906090E0,6.341641903E0
8.564840227E0,-1.508945584E0,5.504868031E0,7.936180115E0
8.584745175E0,-1.010951638E0,4.508880138E0,9.305663109E0
8.604650123E0,-1.370081902E0,4.451419353E0,1.036390018E1
8.624555071E0,-1.719635367E0,4.767454147E0,8.740632057E0
8.654658283E0,-1.825578809E-1,6.328473568E0,7.510012150E0
8.674563179E0,1.478419602E-1,6.122572422E0,8.012794495E0
8.694468075E0,4.878185987E-1,5.868786812E0,7.979275703E0
8.714372971E0,5.117605925E-1,5.840056419E0,7.668029308E0
8.734277866E0,2.867056429E-1,6.112995625E0,7.261015415E0
8.754182762E0,2.334346622E-2,6.357203960E0,7.088632584E0
8.774087658E0,-1.490390599E-1,6.467337132E0,7.112574577E0
8.793992554E0,-2.783259451E-1,6.496067524E0,7.299322605E0
8.813897450E0,-2.495955229E-1,6.472125530E0,7.356783390E0
8.833802346E0,-8.200141042E-2,6.462548733E0,7.160458565E0
8.853707241E0,5.207388848E-2,6.414664745E0,6.844424248E0
8.873612137E0,4.189853091E-3,6.462548733E0,7.098209381E0
8.893517033E0,-8.678980917E-2,6.189610004E0,7.213130951E0
8.913421929E0,-1.298854351E-1,6.141726017E0,7.126939774E0
8.933326825E0,-8.200141042E-2,6.074688435E0,6.916250229E0
8.953231721E0,-3.597288132E-1,5.974131584E0,7.538742542E0
8.973136616E0,-3.597288132E-1,5.940612793E0,7.610568523E0
8.993041512E0,-8.002619147E-1,6.007650852E0,8.070255280E0
9.012946408E0,-9.247604012E-1,6.247070789E0,8.793304443E0
9.032851304E0,-7.619546652E-1,6.395511150E0,8.764574051E0
9.052756200E0,-1.015740037E0,6.778583527E0,8.563461304E0
9.072661096E0,-1.054047346E0,7.113771915E0,8.491635323E0
9.092565991E0,-8.146271110E-1,7.228693485E0,8.922591209E0
9.112470887E0,-6.613982320E-1,7.362768650E0,9.420584679E0
9.132375783E0,-5.321113467E-1,7.664438248E0,9.535507202E0
9.152280679E0,-5.368997455E-1,8.172008514E0,9.564237595E0
9.172185575E0,-9.343371987E-1,8.358757019E0,9.961674690E0
9.192090471E0,-1.264737010E0,7.851185799E0,1.040699577E1
9.211995366E0,-1.341351509E0,7.334038258E0,1.027770901E1
9.231900262E0,-1.580771685E0,6.802525520E0,9.741408348E0
9.251805158E0,-2.394800186E0,6.036381245E0,9.324816704E0
9.271710054E0,-2.926312923E0,5.035604954E0,9.712677956E0
9.291614950E0,-2.284667015E0,4.216787815E0,1.026813221E1
9.311519846E0,-1.331774712E0,4.073135853E0,9.348758698E0
9.331424741E0,-1.312621117E0,4.470572948E0,7.471704960E0
9.351329637E0,-1.628655672E0,4.844068527E0,6.365583897E0
9.371234533E0,-1.537676096E0,4.566341400E0,6.791751862E0
9.391139429E0,-1.494580388E0,4.279036999E0,7.294534206E0
9.411044325E0,-1.389235497E0,4.264671803E0,7.198765755E0
9.430949221E0,-1.135450125E0,4.360439777E0,6.475717068E0
9.450854116E0,-7.523778677E-1,4.528033733E0,5.920262337E0
9.470759012E0,-4.411316514E-1,4.652532578E0,5.733514309E0
9.490663908E0,-3.836708367E-1,4.623802185E0,5.374384403E0
9.510568804E0,-4.411316514E-1,4.695628166E0,5.034407616E0
9.530473700E0,-8.002619147E-1,4.882375717E0,5.202001572E0
9.550378596E0,-1.317409515E0,5.030816555E0,5.714360714E0
9.570283491E0,-1.647809267E0,5.227140903E0,6.255450726E0
9.590188387E0,-1.398812294E0,5.461772442E0,7.074267387E0
9.610093283E0,-5.656301379E-1,5.270236492E0,7.787739754E0
9.629998179E0,-2.926911712E-1,5.605424881E0,8.237849236E0
9.649903075E0,-9.487023950E-1,6.831255913E0,8.223484039E0
9.669807971E0,-1.829768658E0,7.674015045E0,8.515577316E0
9.689712866E0,-1.844133854E0,7.267000675E0,1.000955868E1
9.709617762E0,-9.630676508E-1,6.496067524E0,1.156579018E1
9.729522658E0,-1.107318252E-1,6.740276337E0,1.084752941E1
9.749427554E0,-2.543839216E-1,7.808090210E0,8.362347603E0
9.769332450E0,-1.298255920E0,8.732252121E0,6.001665115E0
9.789237346E0,-1.537676096E0,8.579023361E0,5.613804340E0
9.809142241E0,-1.743577361E0,7.377133846E0,6.710348606E0
9.829047137E0,-2.117072821E0,5.868786812E0,9.138069153E0
9.848952033E0,-2.102707624E0,4.590283394E0,1.180042171E1
9.868856929E0,-1.604713678E0,4.259883404E0,1.220743561E1
9.888761825E0,-1.341351509E0,4.585494995E0,1.079964542E1
9.908666721E0,-1.331774712E0,4.805761337E0,9.353547096E0
9.928571616E0,-1.566406488E0,4.460996151E0,9.310451508E0
9.948476512E0,-1.614290476E0,3.809773445E0,9.578602791E0
9.968381408E0,-1.322197914E0,3.316567898E0,8.783727646E0
9.988286304E0,-5.321113467E-1,3.278260708E0,6.949769020E0
1.000819120E1,1.286883354E-1,3.589506865E0,5.101445198E0
1.002809610E1,9.570821524E-1,4.111443043E0,3.923498154E0
1.004800099E1,1.799841166E0,4.671686172E0,3.722385168E0
1.006790589E1,1.948281646E0,5.476137638E0,3.813364744E0
1.008781078E1,1.440710902E0,6.304531574E0,3.933074951E0
1.010771568E1,3.872621357E-1,6.563105583E0,5.427056789E0
1.012762058E1,-6.422445774E-1,6.476913929E0,7.974487305E0
1.014752547E1,-1.312621117E0,6.338050365E0,8.927379608E0
1.016743037E1,-1.824980259E0,6.318896770E0,8.908226013E0
1.018733526E1,-1.781884670E0,5.959766388E0,8.922591209E0
1.020724016E1,-1.360505104E0,5.485714436E0,1.018194103E1
1.022714505E1,-1.499368787E0,5.097854137E0,1.145086861E1
1.024704995E1,-1.734000564E0,4.805761337E0,1.234629917E1
1.026695485E1,-1.532887697E0,4.695628166E0,1.291611958E1
1.028685974E1,-1.671751380E0,5.121796131E0,1.211166763E1
1.030676464E1,-2.495356798E0,6.117784023E0,1.047882271E1
1.032666953E1,-3.141791105E0,6.869563103E0,9.281721115E0
1.034657443E1,-3.213617325E0,6.610989571E0,8.405443192E0
1.036647932E1,-2.868852139E0,5.916670799E0,8.467693329E0
1.038638422E1,-2.811391354E0,5.437830448E0,8.836400032E0
1.040628912E1,-2.404376984E0,4.800972939E0,8.913014412E0
1.042619401E1,-1.906383157E0,4.082712650E0,8.783727646E0
1.044609891E1,-1.532887697E0,3.661332846E0,8.525154114E0
1.046600380E1,-1.346139908E0,3.488950491E0,7.792528152E0
1.048590870E1,-1.341351509E0,3.421912670E0,6.944980621E0
1.050581360E1,-1.049258947E0,3.235165119E0,6.944980621E0
1.052571849E1,-5.895721912E-1,3.014898539E0,6.949769020E0
1.054562339E1,-1.442506462E-1,3.163338900E0,6.571485043E0
1.056552828E1,7.122749835E-2,3.488950491E0,5.671265125E0
1.058543318E1,-1.203086376E-1,3.910329819E0,4.502894878E0
1.060533808E1,-1.010951638E0,4.671686172E0,4.948216438E0
1.062524297E1,-2.026093245E0,5.428253651E0,6.461351871E0
1.064514787E1,-2.595913172E0,5.773018837E0,7.524377346E0
1.066505276E1,-2.126649618E0,5.605424881E0,7.940968513E0
1.068495766E1,-5.129576921E-1,5.131372929E0,6.973711014E0
1.070486255E1,6.889315248E-1,5.006874084E0,5.800552368E0
1.072476745E1,8.661024570E-1,5.389946461E0,6.250661850E0
1.074467235E1,6.123170853E-1,5.830479622E0,8.261791229E0
1.076457724E1,1.196502328E0,6.041169643E0,9.650428772E0
1.078448214E1,2.111087322E0,5.974131584E0,9.209895134E0
1.080438703E1,2.249951124E0,5.854421616E0,8.764574051E0
1.082429193E1,2.020107746E0,5.658097267E0,9.755773544E0
1.084419683E1,1.953070045E0,4.954201698E0,1.288738918E1
1.086410172E1,2.293046713E0,4.374804974E0,1.505174732E1
1.088400662E1,2.202066898E0,4.772242546E0,1.357213116E1
1.090391151E1,1.129464626E0,5.653308868E0,1.096245098E1
1.092381641E1,-4.890156984E-1,6.002861977E0,1.073739624E1
1.094372130E1,-1.140238523E0,5.342062473E0,1.238460732E1
1.096362620E1,-9.726444483E-1,4.269460201E0,1.283950520E1
1.098353110E1,-5.847837925E-1,3.757101059E0,1.149875259E1
1.100343599E1,-5.752069354E-1,3.747524261E0,9.209895134E0
1.102334089E1,-1.039682031E0,3.905541420E0,7.256227016E0
1.104324578E1,-1.374870300E0,3.747524261E0,6.657676220E0
1.106315068E1,-1.465849996E0,3.249530315E0,6.537966251E0
1.108305558E1,-1.408389091E0,2.804208755E0,6.107009888E0
1.110296047E1,-1.489791989E0,2.430713177E0,5.321712017E0
1.112286537E1,-1.590348482E0,2.186504602E0,5.058349609E0
1.114277026E1,-1.580771685E0,2.090736628E0,5.915473938E0
1.116267516E1,-1.269525409E0,1.750759959E0,6.815693855E0
1.118258005E1,-7.619546652E-1,1.583165884E0,7.141304970E0
1.120248495E1,-2.831143439E-1,1.669357181E0,7.323264599E0
1.122238985E1,9.516951442E-2,1.578377485E0,7.663240910E0
1.124229474E1,4.878185987E-1,1.760336757E0,7.562684536E0
1.126219964E1,1.196502328E0,2.545634985E0,6.868366241E0
1.128210453E1,2.005742550E0,3.484162092E0,6.130951881E0
1.130200943E1,2.781463861E0,4.513668537E0,5.747879505E0
1.132191433E1,3.648164749E0,5.418676853E0,5.331288815E0
1.134181922E1,3.825335741E0,5.768230438E0,5.312135220E0
1.136172412E1,3.447052002E0,5.677250862E0,6.490082264E0
1.138162901E1,2.973000050E0,5.840056419E0,8.759785652E0
1.140153391E1,2.858078241E0,5.801749229E0,1.107258415E1
1.142143880E1,1.962646842E0,5.552752495E0,1.300709915E1
1.144134370E1,-2.974795699E-1,5.897517204E0,1.583704567E1
1.146124860E1,-1.125873327E0,5.231929302E0,1.855685806E1
1.148115349E1,1.855506375E-2,3.527257681E0,1.847066689E1
1.150105839E1,3.250128925E-1,3.014898539E0,1.659840202E1
1.152096328E1,-1.068412542E0,3.910329819E0,1.475965500E1
1.154086818E1,-2.294243813E0,3.939060450E0,1.404139423E1
1.156077308E1,-2.413953781E0,2.694075346E0,1.455854225E1
1.158067797E1,-2.045246840E0,1.554435492E0,1.431912136E1
1.160058287E1,-1.753154159E0,1.204882026E0,1.247558689E1
1.162048776E1,-1.494580388E0,1.616684675E0,9.774927139E0
1.164039266E1,-8.912416101E-1,2.105101824E0,6.997653008E0
1.166029755E1,-4.369417951E-2,2.516904593E0,4.459799290E0
1.168020245E1,8.373720646E-1,2.540846586E0,3.109469414E0
1.170010735E1,1.708861470E0,2.354098797E0,3.688866377E0
1.172001224E1,2.340930700E0,2.258330822E0,5.048772812E0
1.173991714E1,2.451063871E0,2.181716204E0,5.470152378E0
1.175982203E1,2.053626537E0,2.622249365E0,4.632181644E0
1.177972693E1,1.388038397E0,4.087501049E0,3.061585426E0
1.179963182E1,6.937199235E-1,5.480926037E0,1.840542555E0
1.181953672E1,6.985083222E-1,5.863998413E0,2.161365509E0
1.183944162E1,1.148618221E0,5.701192856E0,3.114257812E0
1.185934651E1,1.431134105E0,5.787384033E0,3.688866377E0
1.187925141E1,1.627458572E0,6.022016048E0,4.043208122E0
1.189915630E1,1.799841166E0,6.304531574E0,4.316147327E0
1.191906120E1,1.704073071E0,6.912658691E0,4.694430828E0
1.193896610E1,1.220444322E0,7.784148216E0,5.254673958E0
1.195887099E1,6.027402878E-1,8.521562576E0,6.509235859E0
1.197877589E1,5.686229095E-2,8.890269279E0,8.443750381E0
1.199868078E1,-4.363432527E-1,8.923788071E0,9.865906715E0
1.201858568E1,-1.374870300E0,9.254188538E0,1.080443382E1
1.203849058E1,-2.208052635E0,9.747393608E0,1.115877533E1
1.205839547E1,-1.973420739E0,9.843161583E0,1.157057858E1
1.207830037E1,-1.130661726E0,9.254188538E0,1.171423054E1
1.209820526E1,-3.740940094E-1,8.162431717E0,1.118271732E1
1.211811016E1,1.095347255E-1,6.457760334E0,1.080922222E1
1.213801505E1,3.633201122E-1,4.777030945E0,1.149875259E1
1.215791995E1,7.080851793E-1,3.642179251E0,1.226010799E1
1.217782485E1,1.134253025E0,3.139396906E0,1.168550014E1
1.219772974E1,1.129464626E0,3.493738890E0,9.621698380E0
1.221763464E1,3.585317135E-1,4.245518208E0,7.098209381E0
1.223753953E1,-6.374561787E-1,5.155314922E0,5.336077213E0
1.225744443E1,-1.346139908E0,5.600636482E0,4.287416458E0
1.227734933E1,-1.724423766E0,5.543175697E0,3.827729940E0
1.229725422E1,-2.102707624E0,5.442618847E0,3.947440147E0
1.231715912E1,-2.658162355E0,5.610213280E0,3.885190725E0
1.233706401E1,-3.290231705E0,6.045958042E0,3.612251759E0
1.235696891E1,-3.122637510E0,6.065111637E0,3.152565002E0
1.237687380E1,-1.671751380E0,5.184045315E0,4.378396511E0
1.239677870E1,-3.166331649E-1,4.144961834E0,6.470928669E0
1.241668360E1,7.128735781E-1,3.814561844E0,7.476493359E0
1.243658849E1,1.455076098E0,3.862445831E0,7.988852501E0
1.245649339E1,2.111087322E0,4.092289448E0,7.883507729E0
1.247639828E1,2.312200308E0,4.853645325E0,7.404667377E0
1.249630318E1,2.513313293E0,5.524022102E0,6.796540260E0
1.251620808E1,2.235585928E0,5.773018837E0,6.892308235E0
1.253611297E1,1.354519606E0,6.012439251E0,8.266579628E0
1.255601787E1,3.345896900E-1,6.314108372E0,9.765350342E0
1.257592276E1,-5.464765429E-1,6.242282391E0,1.088583660E1
1.259582766E1,-1.599925280E0,5.662885666E0,1.201589966E1
1.261573255E1,-2.811391354E0,5.049970150E0,1.385464668E1
1.263563750E1,-3.668515444E0,4.619013786E0,1.424729538E1
1.265554245E1,-3.869628429E0,4.255095005E0,1.293048477E1
1.267544740E1,-4.305373192E0,3.685275078E0,1.237502956E1
1.269535235E1,-4.607042789E0,3.163338900E0,1.298794556E1
1.271525729E1,-4.042010784E0,3.014898539E0,1.254262447E1
1.273516224E1,-3.180098295E0,3.043628931E0,1.011490345E1
1.275506719E1,-2.413953781E0,3.469796896E0,7.102997780E0
1.277497214E1,-1.566406488E0,4.149750233E0,5.101445198E0
1.279487708E1,-6.230909824E-1,4.666897774E0,4.565144062E0
1.281478203E1,-1.203086376E-1,4.987720490E0,4.632181644E0
1.283468698E1,-2.448071241E-1,5.164891720E0,4.866813660E0
1.285459193E1,-6.039373875E-1,5.198410511E0,5.383961201E0
1.287449688E1,-8.720879555E-1,5.255871296E0,5.929839134E0
1.289440183E1,-1.274313807E0,5.174468517E0,6.499659061E0
1.291430677E1,-1.523310781E0,4.939836502E0,7.289745808E0
1.293421172E1,-1.030105233E0,4.470572948E0,7.888296127E0
1.295411667E1,-1.681926697E-1,4.058770657E0,7.126939774E0
1.297402162E1,2.771288455E-1,4.245518208E0,6.078279495E0
1.299392656E1,6.889315248E-1,4.437054157E0,5.412691593E0
1.301383151E1,9.427168965E-1,4.571129799E0,5.393537998E0
1.303373646E1,8.852560520E-1,4.863222122E0,6.006453514E0
1.305364141E1,6.985083222E-1,5.121796131E0,6.585850239E0
1.307354636E1,2.962824702E-1,5.217564106E0,6.681618214E0
1.309345130E1,-1.039682031E0,5.026028156E0,7.069478989E0
1.311335625E1,-2.476203203E0,5.696404457E0,1.003828907E1
1.313326120E1,-2.773084164E0,6.108207226E0,1.178126812E1
1.315316615E1,-2.342127800E0,6.031592846E0,1.041657257E1
1.317307110E1,-2.457049608E0,6.476913929E0,9.320028305E0
1.319297604E1,-3.036446333E0,6.553528786E0,9.669582367E0
1.321288099E1,-3.845686436E0,6.687603951E0,1.111567974E1
1.323278594E1,-4.434659958E0,6.821679115E0,1.139819527E1
1.325269089E1,-4.314949989E0,6.414664745E0,1.023940182E1
1.327259584E1,-4.875193119E0,5.945401192E0,9.597756386E0
1.329250078E1,-5.545569897E0,5.615001678E0,1.071345425E1
1.331240573E1,-5.397129059E0,4.901529312E0,1.130242729E1
1.333231068E1,-4.913500309E0,4.025251389E0,1.108694935E1
1.335221563E1,-4.573523998E0,3.225588322E0,1.066078186E1
1.337212058E1,-4.109048843E0,2.971802950E0,1.009096146E1
1.339202552E1,-3.184886694E0,3.062782526E0,9.157222748E0
1.341193047E1,-2.212841034E0,3.019686937E0,7.706336498E0
1.343183542E1,-1.451484799E0,2.856881142E0,6.423044682E0
1.345174037E1,-1.274313807E0,3.125031710E0,5.613804340E0
1.347164531E1,-1.259948611E0,3.474585295E0,5.484517574E0
1.349155026E1,-1.034893632E0,3.785831451E0,5.695207119E0
1.351145521E1,-7.188590765E-1,3.972579241E0,5.340865612E0
1.353136016E1,-1.442506462E-1,4.082712650E0,4.474164486E0
1.355126511E1,4.542997777E-1,4.015674591E0,4.182071686E0
1.357117005E1,7.846996188E-1,3.924695253E0,4.455010891E0
1.359107500E1,1.110311031E0,4.039616585E0,4.512471676E0
1.361097995E1,1.704073071E0,4.140173435E0,5.096656799E0
1.363088490E1,2.226009130E0,4.111443043E0,5.704783916E0
1.365078985E1,2.556408882E0,4.346074581E0,5.714360714E0
1.367069479E1,3.169324398E0,4.274248600E0,5.125387192E0
1.369059974E1,3.284246206E0,4.006097794E0,6.231508255E0
1.371050469E1,2.436698675E0,3.843292236E0,9.540295601E0
1.373040964E1,8.134300113E-1,4.044404984E0,1.165198135E1
1.375031459E1,-8.098387122E-1,4.781819344E0,1.189618969E1
1.377021953E1,-1.264737010E0,5.480926037E0,1.113962173E1
1.379012448E1,-1.255160213E0,5.586271286E0,1.104864216E1
1.381002943E1,-1.121084929E0,5.638943672E0,1.156100178E1
1.382993438E1,-1.403600693E0,6.060323238E0,1.158015537E1
1.384983933E1,-2.155380011E0,6.357203960E0,1.166155815E1
1.386974427E1,-2.935889721E0,6.127360821E0,1.297358036E1
1.388964922E1,-3.476979494E0,5.787384033E0,1.396956825E1
1.390955417E1,-3.453037500E0,5.174468517E0,1.241333771E1
1.392945912E1,-2.902370930E0,4.676474571E0,1.062726307E1
1.394936406E1,-2.504933596E0,3.752312660E0,1.027292061E1
1.396926901E1,-2.428318977E0,3.019686937E0,1.128806210E1
1.398917396E1,-2.471414804E0,3.029263735E0,1.202547646E1
1.400907896E1,-2.188898802E0,3.211223125E0,1.092414379E1
1.402898396E1,-1.757942557E0,3.527257681E0,9.003993988E0
1.404888896E1,-1.829768658E0,3.742735863E0,7.696759701E0
1.406879396E1,-2.059612036E0,4.140173435E0,6.916250229E0
1.408869896E1,-2.021304846E0,4.279036999E0,6.810905457E0
1.410860396E1,-1.714846969E0,3.441066504E0,6.609792233E0
1.412850896E1,-1.911171556E0,3.005321741E0,6.030395508E0
1.414841396E1,-1.341351509E0,2.799420357E0,5.910685539E0
1.416831896E1,-1.054047346E0,2.732382774E0,5.144540787E0
1.418822396E1,-1.403600693E0,3.402759075E0,4.067150116E0
1.420812896E1,-1.863287449E0,3.852869034E0,2.922721624E0
1.422803396E1,-2.107496023E0,3.891176224E0,2.980182648E0
1.424793896E1,-1.757942557E0,3.742735863E0,6.039972305E0
1.426784396E1,-1.633444071E0,4.279036999E0,8.826823235E0
1.428774896E1,-1.734000564E0,4.896740913E0,8.869918823E0
1.430765396E1,-1.365293503E0,5.021239281E0,8.223484039E0
1.432755896E1,-9.870096445E-1,5.437830448E0,9.918579102E0
1.434746396E1,-1.077989340E0,6.132149220E0,1.091935539E1
1.436736896E1,-1.422754407E0,6.476913929E0,1.115398693E1
1.438727396E1,-1.384447098E0,6.433818340E0,1.095766258E1
1.440717896E1,-9.678560495E-1,6.079476833E0,1.104864216E1
1.442708396E1,-1.322197914E0,5.801749229E0,1.304540634E1
1.444698896E1,-9.295488000E-1,4.733935356E0,1.513793850E1
1.446689396E1,1.382651478E-1,3.431489468E0,1.441489029E1
1.448679896E1,1.019331336E0,2.909553528E0,1.308850193E1
1.450670396E1,1.019331336E0,2.895188332E0,1.188182449E1
1.452660896E1,6.554127336E-1,3.000533342E0,1.073260784E1
1.454651396E1,-2.831143439E-1,3.187281132E0,1.004307747E1
1.456641896E1,-8.289923668E-1,3.120243311E0,9.516353607E0
1.458632396E1,-9.103952050E-1,2.928707123E0,9.090185165E0
1.460622896E1,-9.630676508E-1,2.837727547E0,8.640075684E0
1.462613396E1,-1.168969035E0,2.775478363E0,8.098985672E0
1.464603896E1,-1.604713678E0,3.105878115E0,7.179612160E0
1.466594396E1,-1.408389091E0,3.153762102E0,5.805340767E0
1.468584896E1,-4.124012291E-1,2.684498549E0,4.526836872E0
1.470575396E1,-5.386953708E-3,2.430713177E0,4.177283287E0
1.472565896E1,-1.634042710E-1,2.464232206E0,5.139752388E0
1.474556396E1,-3.693056107E-1,2.861669540E0,6.054337502E0
1.476546896E1,-5.847837925E-1,3.484162092E0,5.939415932E0
1.478537396E1,-8.098387122E-1,4.058770657E0,5.575497150E0
1.480527896E1,-6.135141850E-1,4.484938145E0,6.154893875E0
1.482518396E1,-1.969230920E-1,4.642955780E0,7.490858555E0
1.484508896E1,-3.884592354E-1,4.848856926E0,8.482058525E0
1.486499396E1,-8.672995567E-1,5.634155273E0,9.037512779E0
1.488489896E1,-7.188590765E-1,6.385934353E0,9.406219482E0
1.490480396E1,-1.298854351E-1,6.543951988E0,9.521142006E0
1.492470891E1,5.357026458E-1,6.084265232E0,1.003350067E1
1.494461386E1,6.123170853E-1,6.117784023E0,1.038784218E1
1.496451880E1,9.570821524E-1,5.902305603E0,1.137425327E1
1.498442375E1,4.303577542E-1,5.562329292E0,1.187703609E1
1.500432870E1,2.483984232E-1,5.160103321E0,1.271500683E1
1.502423365E1,4.399345517E-1,4.753088951E0,1.237981796E1
1.504413860E1,1.861491799E-1,4.853645325E0,1.056022549E1
1.506404354E1,-1.346738487E-1,5.174468517E0,9.794080734E0
1.508394849E1,-6.757634282E-1,5.313332081E0,1.051234150E1
1.510385344E1,-7.380126715E-1,4.829703331E0,1.091456699E1
1.512375839E1,-3.788824081E-1,4.350862980E0,9.894637108E0
1.514366334E1,-5.129576921E-1,4.355651379E0,8.802881241E0
1.516356828E1,-5.656301379E-1,4.480149746E0,7.936180115E0
1.518347323E1,-4.698620737E-1,4.446630955E0,6.892308235E0
1.520337818E1,-3.070563674E-1,4.106654644E0,6.432621479E0
1.522328313E1,-2.639607489E-1,3.680486679E0,6.490082264E0
1.524318808E1,-2.448071241E-1,3.364451885E0,6.403891087E0
1.526309302E1,-7.721300423E-2,3.086724520E0,6.284181118E0
1.528299797E1,5.686229095E-2,3.110666513E0,6.399102688E0
1.530290292E1,1.717839688E-1,3.196857929E0,6.236296654E0
1.532280787E1,2.244564146E-1,3.623025656E0,5.905897141E0
1.534271281E1,2.292448133E-1,3.996521235E0,5.647323132E0
1.536261776E1,5.021837950E-1,4.111443043E0,5.704783916E0
1.538252271E1,4.686649740E-1,4.456207752E0,6.303334713E0
1.540242766E1,-2.400187254E-1,5.102642536E0,7.222707748E0
1.542233261E1,-1.125873327E0,5.514444828E0,7.059902191E0
1.544223755E1,-9.247604012E-1,5.519233704E0,6.001665115E0
1.546214250E1,-4.411316514E-1,5.801749229E0,5.929839134E0
1.548204745E1,-6.374561787E-1,5.969343185E0,7.064690590E0
1.550195240E1,-1.331774712E0,6.524798393E0,7.739855766E0
1.552185735E1,-1.676539779E0,6.836044312E0,7.691971302E0
1.554176229E1,-1.456273198E0,6.778583527E0,7.730278969E0
1.556166724E1,-1.236006618E0,6.438606739E0,7.912238121E0
1.558157219E1,-1.303044319E0,6.486490726E0,8.051101685E0
1.560147714E1,-1.489791989E0,6.802525520E0,7.902661324E0
1.562138208E1,-1.566406488E0,6.855197906E0,8.592191696E0
1.564128709E1,-1.250371814E0,6.582259178E0,9.808445930E0
1.566119208E1,-7.858967185E-1,6.620566368E0,1.086189461E1
1.568109709E1,-4.938040972E-1,7.085041523E0,1.094329739E1
1.570100208E1,-6.183025837E-1,7.468113422E0,9.885060310E0
1.572090708E1,-1.015740037E0,7.587823868E0,8.913014412E0
1.574081209E1,-1.178545833E0,7.563881874E0,8.869918823E0
1.576071708E1,-1.159392118E0,6.998850346E0,1.044530392E1
1.578062209E1,-6.230909824E-1,5.983708382E0,1.182915211E1
1.580052708E1,3.824737072E-1,5.040393353E0,1.127848530E1
1.582043208E1,9.618705511E-1,4.815338135E0,9.774927139E0
1.584033709E1,1.000177741E0,4.872798920E0,8.573038101E0
1.586024209E1,1.048061848E0,4.623802185E0,8.084620476E0
1.588014708E1,1.378461599E0,4.001309395E0,7.816470146E0
1.590005209E1,1.383249998E0,3.465008497E0,7.586626530E0
1.591995708E1,9.570821524E-1,3.723582268E0,7.098209381E0
1.593986209E1,9.995792061E-2,4.336497784E0,6.628945827E0
1.595976709E1,-5.704185367E-1,4.494514942E0,6.083067894E0
1.597967208E1,-6.087257862E-1,4.317344189E0,5.609015942E0
1.599957709E1,-6.326677799E-1,4.140173435E0,5.589862347E0
1.601948208E1,-6.278793812E-1,4.044404984E0,5.920262337E0
1.603938708E1,-3.597288132E-1,3.905541420E0,6.025607109E0
1.605929209E1,4.249707982E-2,3.804985046E0,5.714360714E0
1.607919708E1,2.244564146E-1,4.010886192E0,5.489305973E0
1.609910209E1,-5.985504249E-4,4.279036999E0,5.613804340E0
1.611900708E1,-1.634042710E-1,4.714781761E0,6.054337502E0
1.613891208E1,-3.166331649E-1,5.193622112E0,6.078279495E0
1.615881709E1,-6.230909824E-1,5.892728806E0,5.340865612E0
1.617872208E1,-6.805518270E-1,6.352415562E0,5.455787182E0
1.619862709E1,-2.831143439E-1,6.146514416E0,6.461351871E0
1.621853208E1,1.238999367E-1,5.969343185E0,7.902661324E0
1.623843708E1,6.171054840E-1,5.883152008E0,8.568249702E0
1.625834209E1,1.009754539E0,6.103418827E0,8.242637634E0
1.627824708E1,1.139041424E0,6.486490726E0,7.955333710E0
1.629815208E1,1.110311031E0,6.687603951E0,8.304886818E0
1.631805708E1,1.062427044E0,6.615777969E0,8.687959671E0
1.633796208E1,1.105522633E0,6.610989571E0,8.936956406E0
1.635786709E1,1.019331336E0,6.610989571E0,9.238625526E0
1.637777208E1,6.793547273E-1,6.524798393E0,9.391854286E0
1.639767708E1,5.309142470E-1,6.266224384E0,9.712677956E0
1.641758208E1,4.159925580E-1,6.433818340E0,9.985616684E0
1.643748708E1,2.483984232E-1,7.037157536E0,9.932944298E0
1.645739209E1,3.770867735E-2,7.176021099E0,9.779715538E0
1.647729708E1,-1.303044319E0,7.367557049E0,1.066078186E1
1.649720208E1,-1.571194887E0,6.184821606E0,1.199195766E1
1.651710708E1,-1.710058570E0,4.882375717E0,1.351467037E1
1.653701208E1,-1.518522382E0,4.111443043E0,1.345242119E1
1.655691709E1,-1.202487826E0,3.733159065E0,1.236066437E1
1.657682208E1,-1.168969035E0,3.828927040E0,1.103427696E1
1.659672708E1,-1.322197914E0,3.986944437E0,9.932944298E0
1.661663208E1,-1.326986313E0,3.958214045E0,9.549872398E0
1.663653708E1,-1.245583415E0,3.661332846E0,9.559449196E0
1.665644209E1,-1.034893632E0,3.479373693E0,8.697536469E0
1.667634709E1,-9.103952050E-1,3.603872061E0,7.361571789E0
1.669625208E1,-1.077989340E0,3.943848848E0,6.935403824E0
1.671615708E1,-1.188122630E0,4.168903828E0,7.146093369E0
1.673606208E1,-1.006163239E0,3.900753021E0,7.208342552E0
1.675596708E1,-7.619546652E-1,3.460220098E0,7.031171799E0
1.677587209E1,-5.273229480E-1,3.244741917E0,6.518812656E0
1.679577708E1,-3.022679687E-1,3.273472309E0,5.819705963E0
1.681568208E1,-9.636662155E-2,3.441066504E0,5.307346821E0
1.683558708E1,-7.242459804E-2,3.737947464E0,5.436633587E0
1.685549208E1,-6.763619930E-2,4.077924252E0,5.723937511E0
1.687539709E1,-1.059434265E-1,4.480149746E0,5.719149113E0
1.689530208E1,-2.783259451E-1,4.958990097E0,6.145317078E0
1.691520708E1,-2.448071241E-1,5.318120480E0,6.796540260E0
1.693511208E1,-5.985504249E-4,5.567117691E0,7.189188957E0
1.695501708E1,2.292448133E-1,5.725134850E0,7.404667377E0
1.697492209E1,3.633201122E-1,5.830479622E0,7.510012150E0
1.699482708E1,4.351461530E-1,5.926247597E0,7.773374557E0
1.701473208E1,4.734533727E-1,5.835268021E0,8.683171272E0
1.703463708E1,4.973953962E-1,5.935824394E0,9.415796280E0
1.705454208E1,2.053027898E-1,6.132149220E0,1.016757584E1
1.707444709E1,-1.490390599E-1,6.290166378E0,1.079964542E1
1.709435208E1,-1.017535757E-2,6.381145954E0,1.154184818E1
1.711425708E1,1.430535465E-1,6.773795128E0,1.177647972E1
1.713416208E1,2.627636492E-1,7.128137112E0,1.112525654E1
1.715406708E1,4.207809567E-1,6.414664745E0,1.077091503E1
1.717397209E1,7.846996188E-1,5.160103321E0,1.125454330E1
1.719387708E1,1.139041424E0,3.776254654E0,1.153705978E1
1.721378209E1,1.186925530E0,3.029263735E0,1.127848530E1
1.723368708E1,8.373720646E-1,3.019686937E0,1.013405704E1
1.725359208E1,4.878185987E-1,3.153762102E0,8.913014412E0
1.727349709E1,2.436100245E-1,3.139396906E0,8.472481728E0
1.729340208E1,1.191115379E-1,3.005321741E0,8.127716064E0
1.731330708E1,1.238999367E-1,3.057994127E0,7.634510517E0
1.733321208E1,1.430535465E-1,3.302202702E0,7.610568523E0
1.735311708E1,4.189853091E-3,3.273472309E0,7.481281757E0
1.737302209E1,2.334346622E-2,3.158550501E0,7.351994991E0
1.739292708E1,9.995792061E-2,3.230376720E0,7.466916561E0
1.741283208E1,1.669955701E-1,3.283049107E0,6.442198277E0
1.743273708E1,2.196680009E-1,3.517680883E0,6.892308235E0
1.745264208E1,7.122749835E-2,3.354875088E0,8.889072418E0
1.747254709E1,-4.602852762E-1,3.378817081E0,8.563461304E0
1.750723126E1,-2.500145197E0,5.265448093E0,8.103774071E0
1.752713620E1,-2.332551003E0,5.049970150E0,8.711901665E0
1.754704115E1,-1.954267144E0,4.690839767E0,9.128492355E0
1.756694610E1,-1.657386184E0,4.590283394E0,8.956110001E0
1.758685105E1,-1.350928307E0,4.652532578E0,8.017582893E0
1.760675600E1,-1.437119603E0,4.949413300E0,7.763797760E0
1.762666094E1,-1.738788962E0,5.064335346E0,8.142081261E0
1.764656589E1,-1.848922253E0,4.935048103E0,8.405443192E0
1.766647084E1,-1.762730956E0,4.896740913E0,8.467693329E0
1.768637579E1,-1.556829691E0,4.925471306E0,8.122927666E0
1.770628074E1,-1.188122630E0,4.920682907E0,7.572261333E0
1.772618568E1,-9.917980433E-1,5.136161327E0,7.567472935E0
1.774609063E1,-8.768763542E-1,5.246294498E0,7.634510517E0
1.776599558E1,-7.332242727E-1,5.275024891E0,7.830835342E0
1.778590053E1,-5.608417392E-1,5.346850872E0,8.132504463E0
1.780580548E1,-3.501519859E-1,5.452195644E0,8.008006096E0
1.782571042E1,-1.777694821E-1,5.476137638E0,7.768586159E0
1.784561537E1,-6.949170232E-1,5.902305603E0,8.027159691E0
1.786552032E1,-8.481459618E-1,6.160879612E0,8.261791229E0
1.788542527E1,-7.236474752E-1,5.959766388E0,8.285733223E0
1.790533022E1,-1.006163239E0,5.974131584E0,8.419808388E0
1.792523516E1,-8.720879555E-1,5.528810501E0,8.472481728E0
1.794514011E1,-7.284358740E-1,5.533598900E0,8.209118843E0
1.796504506E1,-7.763199210E-1,5.725134850E0,7.490858555E0
1.798495001E1,-6.613982320E-1,5.787384033E0,6.743867874E0
1.800485496E1,-5.033808947E-1,5.801749229E0,6.494870663E0
1.802475990E1,-7.092822790E-1,6.017227650E0,6.528389454E0
1.804466485E1,-1.145026922E0,6.280589581E0,6.863577843E0
1.806456980E1,-1.015740037E0,6.112995625E0,6.968922615E0
1.808447475E1,-6.997054219E-1,6.074688435E0,7.122151375E0
1.810437969E1,-7.428010702E-1,6.007650852E0,7.265803814E0
1.812428464E1,-8.960300088E-1,6.256647587E0,7.529165745E0
1.814418959E1,-9.726444483E-1,6.520009995E0,7.806893349E0
1.816409454E1,-6.566098332E-1,6.855197906E0,8.189965248E0
1.818399949E1,-3.549404144E-1,7.233481884E0,8.036736488E0
1.820390443E1,-2.735375464E-1,7.755417824E0,7.179612160E0
1.822380938E1,-4.219780564E-1,8.109759331E0,6.868366241E0
1.824371433E1,-3.884592354E-1,8.219893456E0,7.275380611E0
1.826361928E1,-6.997054219E-1,8.152854919E0,7.739855766E0
1.828352423E1,-1.125873327E0,7.923011780E0,9.329605103E0
1.830342917E1,-7.811083198E-1,7.606977463E0,1.072781944E1
1.832333412E1,-1.975216344E-2,7.573458672E0,1.029207420E1
1.834323907E1,-7.242459804E-2,7.999626637E0,8.980051994E0
1.836314402E1,-7.092822790E-1,8.444948196E0,8.922591209E0
1.838304897E1,-1.446696401E0,7.803301811E0,9.300874710E0
1.840295391E1,-2.097919226E0,6.328473568E0,9.913790703E0
1.842285886E1,-2.624643564E0,4.920682907E0,1.096245098E1
1.844276381E1,-2.691681147E0,3.670909643E0,1.173817253E1
1.846266876E1,-2.093130827E0,2.684498549E0,1.156100178E1
1.848257371E1,-1.336563110E0,2.325368404E0,1.087625980E1
1.850247865E1,-1.274313807E0,2.406771183E0,9.664793968E0
1.852238360E1,-1.810615063E0,2.737171173E0,8.170811653E0
1.854228855E1,-2.509721994E0,3.014898539E0,7.126939774E0
1.856219350E1,-2.959831953E0,3.010110140E0,6.820482254E0
1.858209844E1,-2.940678120E0,2.957437754E0,6.887519836E0
1.860200339E1,-2.552817583E0,2.938283920E0,6.983287811E0
1.862190834E1,-1.954267144E0,3.096301317E0,6.863577843E0
1.864181329E1,-1.767519355E0,3.690063477E0,6.437409878E0
1.866171824E1,-1.978209138E0,4.599860191E0,6.154893875E0
1.868162318E1,-1.911171556E0,5.160103321E0,6.418256283E0
1.870152813E1,-1.370081902E0,5.394734859E0,6.992864609E0
1.872143308E1,-1.010951638E0,5.787384033E0,7.495646954E0
1.874133803E1,-1.341351509E0,6.457760334E0,7.500435352E0
1.876124298E1,-1.743577361E0,7.199963093E0,7.055113792E0
1.878114792E1,-1.671751380E0,7.219116688E0,6.461351871E0
1.880105287E1,-1.125873327E0,6.620566368E0,6.988076210E0
1.882095782E1,-5.512649417E-1,5.978919983E0,8.012794495E0
1.884086277E1,-2.926911712E-1,5.581482887E0,8.462904930E0
1.886076772E1,-2.208651006E-1,4.954201698E0,9.267355919E0
1.888067266E1,-5.985504249E-4,3.963002443E0,1.030643940E1
1.890057761E1,-5.327098817E-2,3.670909643E0,1.129763889E1
1.892048256E1,-3.166331649E-1,4.317344189E0,1.160409737E1
1.894038751E1,-7.763199210E-1,5.078700542E0,1.054107189E1
1.896029246E1,-6.853402257E-1,5.255871296E0,9.200318336E0
1.898019740E1,-2.112883031E-1,5.112219334E0,8.213907242E0
1.900010235E1,-7.242459804E-2,5.188833714E0,7.854777336E0
1.902000730E1,-2.448071241E-1,5.193622112E0,8.668806076E0
1.903991225E1,-4.076128304E-1,4.690839767E0,9.669582367E0
1.905981719E1,8.080431074E-2,3.924695253E0,1.000477028E1
1.907972214E1,7.272387743E-1,3.187281132E0,9.482834816E0
1.909962709E1,9.618705511E-1,2.899976730E0,8.831611633E0
1.911953204E1,7.655459642E-1,2.713229179E0,8.520365715E0
1.913943699E1,6.602011323E-1,2.516904593E0,8.228272438E0
1.915934193E1,4.159925580E-1,2.478597403E0,7.974487305E0
1.917924688E1,1.765723825E-1,2.818573952E0,7.806893349E0
1.919915183E1,1.047463268E-1,3.278260708E0,7.083844185E0
1.921905678E1,9.516951442E-2,3.804985046E0,6.126163483E0
1.923896173E1,-1.298854351E-1,4.269460201E0,6.078279495E0
1.925886667E1,-2.639607489E-1,4.437054157E0,6.739078999E0
1.927877162E1,-1.490390599E-1,4.121019840E0,7.864354134E0
1.929867657E1,-1.586158574E-1,3.915118217E0,8.778939247E0
1.931858152E1,-2.687491477E-1,3.886387825E0,9.229048729E0
1.933848647E1,-4.219780564E-1,3.867234230E0,9.425373077E0
1.935839141E1,-5.129576921E-1,3.833715439E0,1.009574986E1
1.937829636E1,-4.842272997E-1,3.603872061E0,1.075176144E1
1.939820131E1,-4.171896577E-1,3.565564871E0,1.110610294E1
1.941810626E1,-7.236474752E-1,4.034828186E0,1.089062500E1
1.943801121E1,-2.002151251E0,4.528033733E0,1.126890850E1
1.945791615E1,-2.753930569E0,4.317344189E0,1.257135487E1
1.947782110E1,-2.792237759E0,3.766677856E0,1.303582954E1
1.949772605E1,-2.624643564E0,3.584718466E0,1.210687923E1
1.951763100E1,-2.471414804E0,3.589506865E0,1.129285049E1
1.953753594E1,-1.973420739E0,3.527257681E0,1.100075817E1
1.955744089E1,-1.326986313E0,3.460220098E0,1.023940182E1
1.957734584E1,-1.063624144E0,3.551199675E0,9.147645950E0
1.959725079E1,-1.164180517E0,3.627814054E0,8.582614899E0
1.961715574E1,-1.130661726E0,3.321356297E0,8.347982407E0
1.963706068E1,-1.173757434E0,2.957437754E0,8.328828812E0
1.965696563E1,-1.384447098E0,3.034052134E0,7.988852501E0
1.967687058E1,-1.738788962E0,3.484162092E0,7.093420982E0
1.969677553E1,-1.959055543E0,3.704428673E0,6.068702698E0
1.971668048E1,-1.710058570E0,3.527257681E0,5.278616428E0
1.973658542E1,-1.259948611E0,3.177704096E0,4.550778866E0
1.975649037E1,-1.025316834E0,3.024475336E0,4.263474464E0
1.977639532E1,-7.858967185E-1,2.981379747E0,4.818929672E0
1.979630027E1,-1.298854351E-1,3.163338900E0,4.838083267E0
1.981620522E1,2.914940715E-1,3.565564871E0,4.450222492E0
1.983611016E1,8.038532138E-1,3.747524261E0,4.775833607E0
1.985601511E1,1.574786186E0,4.015674591E0,5.331288815E0
1.987592006E1,2.020107746E0,4.413112164E0,5.307346821E0
1.989582501E1,1.469441295E0,5.073912144E0,5.063138008E0
1.991572996E1,7.416039705E-1,5.385158062E0,7.112574577E0
1.993563490E1,1.004966140E0,4.274248600E0,1.120187092E1
1.995553985E1,1.890820742E0,3.148973703E0,1.482669258E1
1.997544480E1,1.761533856E0,3.369240284E0,1.576043129E1
1.999534975E1,7.942764163E-1,4.489726543E0,1.520497608E1
2.001525469E1,5.404910445E-1,5.145738125E0,1.530074406E1
2.003515964E1,1.110311031E0,5.380369663E0,1.545397377E1
2.005506459E1,1.052850246E0,5.725134850E0,1.531510925E1
2.007496954E1,2.771288455E-1,5.945401192E0,1.555931854E1
2.009487449E1,-2.495955229E-1,5.581482887E0,1.552579975E1
2.011477943E1,-8.200141042E-2,4.580706596E0,1.499428654E1
2.013468438E1,4.495113790E-1,3.670909643E0,1.373014832E1
2.015458933E1,6.027402878E-1,3.771466255E0,1.108216095E1
2.017449428E1,7.320271730E-1,4.360439777E0,7.902661324E0
2.019439923E1,9.283517003E-1,4.585494995E0,5.503671169E0
2.021430417E1,1.014542937E0,4.207211018E0,5.379172802E0
2.023420912E1,8.325836658E-1,3.570353270E0,6.399102688E0
2.025411407E1,4.207809567E-1,3.005321741E0,6.858789444E0
2.027401902E1,3.106476665E-1,2.502539396E0,6.102221489E0
2.029392397E1,2.627636492E-1,1.956661344E0,5.020042419E0
2.031382891E1,4.159925580E-1,1.185728431E0,5.053561211E0
2.033373386E1,7.320271730E-1,5.488707423E-1,5.747879505E0
2.035363881E1,5.883750916E-1,5.488707423E-1,5.738302708E0
2.037354376E1,8.559270948E-2,1.324592113E0,5.240308762E0
2.039344871E1,2.579752207E-1,2.009333849E0,5.101445198E0
2.041335365E1,8.996213078E-1,2.186504602E0,4.929062843E0
2.043325860E1,1.637035370E0,2.751536369E0,5.182847977E0
2.045316355E1,1.076792240E0,3.541622877E0,4.929062843E0
2.047306850E1,1.382651478E-1,4.044404984E0,6.657676220E0
2.049297344E1,2.531868219E-1,3.369240284E0,1.006223106E1
2.051287839E1,5.357026458E-1,3.287837505E0,1.141256142E1
2.053278334E1,-3.405751884E-1,4.427477360E0,1.182915211E1
2.055268829E1,-1.552041292E0,4.441842556E0,1.383549309E1
2.057259324E1,-1.111508131E0,2.560000181E0,1.837489891E1
2.059249818E1,1.957259923E-1,1.343745708E0,1.996464920E1
2.061240313E1,-1.442506462E-1,2.564788580E0,1.737891197E1
2.063230808E1,-1.135450125E0,4.269460201E0,1.417546940E1
2.065221303E1,-1.245583415E0,4.283825397E0,1.279162121E1
2.067211798E1,-7.044938207E-1,3.086724520E0,1.282035160E1
2.069202292E1,-3.022679687E-1,2.038064241E0,1.290175438E1
2.071192787E1,-3.262099922E-1,1.865681648E0,1.142692661E1
2.073183282E1,-5.847837925E-1,2.392405987E0,8.515577316E0
2.075173777E1,-8.433575630E-1,3.330933094E0,5.661688328E0
2.077164272E1,-1.121084929E0,4.240729809E0,3.703231573E0
2.079154766E1,-1.236006618E0,4.437054157E0,2.381632090E0
2.081145261E1,-1.149815321E0,3.761889458E0,1.639429569E0
2.083135756E1,-1.303044319E0,2.986168146E0,2.008136749E0
2.085126251E1,-2.026093245E0,2.775478363E0,3.631405354E0
2.087116746E1,-2.447472572E0,3.053205729E0,5.412691593E0
2.089107240E1,-2.107496023E0,3.273472309E0,5.867589951E0
2.091097735E1,-1.288679123E0,3.421912670E0,5.326500416E0
2.093088230E1,-6.470330358E-1,3.407547474E0,5.403114796E0
2.095078725E1,3.681085110E-1,3.024475336E0,6.930615425E0
2.097069219E1,1.292270422E0,3.259107113E0,7.318476200E0
2.099059714E1,1.115099430E0,4.355651379E0,6.925827026E0
2.101050209E1,1.957259923E-1,5.203198910E0,7.466916561E0
2.103040704E1,-6.326677799E-1,5.227140903E0,9.224260330E0
2.105031199E1,-5.991489887E-1,4.896740913E0,1.197280407E1
2.107021693E1,-1.346738487E-1,4.638167381E0,1.417068100E1
2.109012188E1,6.649895310E-1,4.657320976E0,1.581310368E1
2.111002683E1,7.607575655E-1,4.513668537E0,1.684261131E1
2.112993178E1,-3.932476342E-1,4.777030945E0,1.769973373E1
2.114983673E1,-1.556829691E0,4.777030945E0,1.803971100E1
2.116974167E1,-1.829768658E0,4.144961834E0,1.687612915E1
2.118964662E1,-1.178545833E0,3.694851875E0,1.485063457E1
2.120955157E1,-4.363432527E-1,3.790619850E0,1.198716927E1
2.122945652E1,-2.687491477E-1,4.202422619E0,9.061454773E0
2.124936147E1,-6.422445774E-1,4.647744179E0,7.184400558E0
2.126926641E1,-1.202487826E0,4.748300552E0,6.537966251E0
2.128917136E1,-1.834557056E0,4.614225388E0,6.849212646E0
2.130907631E1,-2.117072821E0,4.183269024E0,6.619369030E0
2.132898126E1,-2.198475599E0,3.757101059E0,5.618592739E0
2.134888621E1,-2.346916199E0,3.503315687E0,4.560355663E0
2.136879115E1,-2.509721994E0,3.187281132E0,4.258686066E0
2.138869610E1,-2.658162355E0,2.928707123E0,4.488529682E0
2.140860105E1,-2.385223389E0,2.679710150E0,4.325724125E0
2.142850600E1,-1.925536752E0,2.454655409E0,3.923498154E0
2.144841094E1,-1.571194887E0,2.454655409E0,3.511695385E0
2.146831589E1,-1.346139908E0,2.550423384E0,3.320159197E0
2.148822084E1,-1.034893632E0,2.799420357E0,3.286640406E0
2.150812579E1,-4.315548539E-1,3.311779499E0,3.703231573E0
2.152803074E1,6.266822815E-1,4.183269024E0,4.014477730E0
2.154793568E1,1.033696532E0,5.586271286E0,3.612251759E0
2.156784063E1,5.357026458E-1,6.314108372E0,4.737526417E0
2.158774558E1,-4.794389009E-1,7.046734333E0,6.504447460E0
2.160765053E1,-9.487023950E-1,7.630919456E0,8.482058525E0
2.162755548E1,-7.811083198E-1,7.381922245E0,1.065120506E1
2.164746042E1,-6.278793812E-1,6.539163589E0,1.281556320E1
2.166736537E1,-1.231218219E0,5.983708382E0,1.536299419E1
2.168727032E1,-2.442684174E0,6.496067524E0,1.611956215E1
2.170717527E1,-2.409165382E0,7.190386295E0,1.553537655E1
2.172708022E1,-1.920748353E0,6.769006729E0,1.525764847E1
2.174698516E1,-1.331774712E0,4.690839767E0,1.716343307E1
2.176689011E1,-4.794389009E-1,2.885611534E0,1.769015694E1
2.178679506E1,-2.783259451E-1,2.617460966E0,1.487457657E1
2.180670001E1,-1.614290476E0,3.105878115E0,1.023940182E1
2.182660496E1,-3.031657934E0,3.632602453E0,6.959345818E0
2.184650990E1,-3.745130062E0,3.809773445E0,6.035183907E0
2.186641485E1,-3.591901064E0,3.292625904E0,5.800552368E0
2.188631980E1,-2.911947727E0,2.234388828E0,5.245097160E0
2.190622475E1,-2.097919226E0,1.511339784E0,5.182847977E0
2.192612969E1,-1.868075848E0,1.434725404E0,4.680065632E0
2.194603464E1,-1.939901948E0,2.033275843E0,3.693654776E0
2.196593959E1,-1.829768658E0,2.665344954E0,2.755127668E0
2.198584454E1,-1.580771685E0,3.273472309E0,2.051232338E0
2.200574949E1,-1.111508131E0,4.020462990E0,2.137423515E0
2.202565443E1,-1.097142935E0,4.504091740E0,3.200449228E0
2.204555938E1,-1.887229443E0,5.380369663E0,3.904344320E0
2.206546433E1,-2.452261209E0,6.065111637E0,3.880402327E0
2.208536928E1,-1.954267144E0,5.916670799E0,4.675277233E0
2.210527423E1,-1.202487826E0,5.179256916E0,6.662464619E0
2.212517917E1,-1.140238523E0,5.308543682E0,7.672817707E0
2.214508412E1,-1.786673069E0,6.223128796E0,8.008006096E0
2.216498907E1,-2.902370930E0,6.836044312E0,9.391854286E0
2.218489402E1,-3.251924515E0,6.500856400E0,1.192492008E1
2.220479897E1,-2.490568399E0,5.643732071E0,1.316511631E1
2.222470391E1,-2.327762604E0,5.720346451E0,1.330397987E1
2.224460886E1,-3.031657934E0,6.448183537E0,1.295921516E1
2.226451381E1,-3.429095268E0,6.979696274E0,1.210209084E1
2.228441876E1,-3.122637510E0,6.520009995E0,1.219307041E1
2.230432370E1,-1.968632340E0,5.380369663E0,1.432869816E1
2.232422865E1,-5.656301379E-1,4.216787815E0,1.352903557E1
2.234413360E1,7.320271730E-1,3.795408249E0,1.174296093E1
2.236403855E1,1.167771935E0,3.522469282E0,1.073260784E1
2.238394350E1,5.931634903E-1,3.350086689E0,1.055064869E1
2.240384844E1,-2.687491477E-1,3.551199675E0,9.952097893E0
2.242375339E1,-6.135141850E-1,3.685275078E0,8.611345291E0
2.244365834E1,-8.625111580E-1,3.800196648E0,7.160458565E0
2.246356329E1,-1.145026922E0,3.996521235E0,6.188412666E0
2.248346824E1,-1.221641421E0,3.972579241E0,5.752667904E0
2.250337318E1,-1.303044319E0,3.761889458E0,5.513247967E0
2.252327813E1,-9.822212458E-1,3.388393879E0,5.230731964E0
2.254318308E1,-4.507084787E-1,2.813785553E0,4.953004837E0
2.256308803E1,-3.453635871E-1,2.469020605E0,4.747103214E0
2.258299298E1,-6.709750295E-1,2.358887196E0,5.364807606E0
2.260289792E1,-1.106719732E0,2.387617588E0,6.605003834E0
2.262280287E1,-1.135450125E0,3.014898539E0,6.605003834E0
2.264270782E1,-7.092822790E-1,4.144961834E0,5.891531944E0
2.266261277E1,-4.076128304E-1,5.366004467E0,5.489305973E0
2.268251772E1,-8.529343605E-1,6.266224384E0,6.614580631E0
2.270242266E1,-1.408389091E0,6.620566368E0,8.065466881E0
2.272232761E1,-1.853710651E0,6.419453144E0,9.746196747E0
2.274223256E1,-1.762730956E0,6.170456409E0,1.202068806E1
2.276213751E1,-1.523310781E0,6.045958042E0,1.319863510E1
2.278204246E1,-1.882441044E0,6.208763599E0,1.309807873E1
2.280194740E1,-3.036446333E0,6.050746441E0,1.274852562E1
2.282185235E1,-3.625419855E0,5.351639271E0,1.292090797E1
2.284175730E1,-3.400364876E0,4.211999416E0,1.304061794E1
2.286166225E1,-2.878428936E0,3.283049107E0,1.276767921E1
2.288156719E1,-2.610278368E0,3.038840532E0,1.203984165E1
2.290147214E1,-2.978985548E0,3.163338900E0,1.083795261E1
2.292137709E1,-3.476979494E0,3.412335873E0,9.655217171E0
2.294128204E1,-3.328538895E0,3.297414303E0,8.189965248E0
2.296118704E1,-3.007715940E0,3.110666513E0,7.002441406E0
2.298109204E1,-2.801814556E0,2.990956545E0,6.528389454E0
2.300099704E1,-2.351704597E0,2.852092743E0,6.815693855E0
2.302090204E1,-1.710058570E0,2.593518972E0,6.528389454E0
2.304080704E1,-1.293467522E0,2.363675594E0,5.963357925E0
2.306071204E1,-1.049258947E0,2.311003208E0,5.757456303E0
2.308061704E1,-8.577227592E-1,2.540846586E0,5.302558422E0
2.310052204E1,-6.661866307E-1,3.057994127E0,4.517260075E0
2.312042704E1,-5.512649417E-1,3.642179251E0,4.081515312E0
2.314033204E1,-4.459200799E-1,3.852869034E0,4.809352875E0
2.316023704E1,-2.256535143E-1,4.154538631E0,5.599439144E0
2.318014204E1,-9.157821536E-2,4.585494995E0,5.867589951E0
2.320004704E1,-3.118447661E-1,4.982932091E0,6.049549103E0
2.321995204E1,-9.295488000E-1,5.308543682E0,6.490082264E0
2.323985704E1,-1.341351509E0,5.466560841E0,7.806893349E0
2.325976204E1,-1.489791989E0,5.490502834E0,9.315239906E0
2.327966704E1,-2.030881643E0,5.653308868E0,1.028728580E1
2.329957204E1,-2.725200176E0,5.863998413E0,1.105343056E1
2.331947704E1,-2.864063740E0,5.902305603E0,1.181957531E1
2.333938204E1,-2.385223389E0,5.672462463E0,1.299273396E1
2.335928704E1,-1.336563110E0,5.849633217E0,1.311723232E1
2.337919204E1,-5.464765429E-1,6.347627163E0,1.178126812E1
2.339909704E1,-5.991489887E-1,6.534375191E0,1.056022549E1
2.341900204E1,-1.087566137E0,6.376357555E0,1.076133823E1
2.343890704E1,-1.523310781E0,5.471349239E0,1.144608021E1
2.345881204E1,-1.298255920E0,4.226364613E0,1.201111126E1
2.347871704E1,-6.087257862E-1,3.326144695E0,1.177169132E1
2.349862204E1,2.813187055E-2,2.899976730E0,1.057459068E1
2.351852699E1,9.995792061E-2,2.957437754E0,9.291297913E0
2.353843193E1,-3.980360329E-1,3.292625904E0,8.496423721E0
2.355833688E1,-5.608417392E-1,3.450643301E0,7.811681747E0
2.357824183E1,-6.661866307E-1,3.350086689E0,6.992864609E0
2.359814678E1,-7.906851172E-1,3.259107113E0,6.523601055E0
2.361805173E1,-8.002619147E-1,3.220799923E0,6.475717068E0
2.363795667E1,-8.050503135E-1,3.096301317E0,6.327276707E0
2.365786162E1,-6.661866307E-1,2.962226152E0,6.020818710E0
2.367776657E1,-2.974795699E-1,2.885611534E0,5.470152378E0
2.369767152E1,-1.250970364E-1,2.981379747E0,4.991312027E0
2.371757647E1,-3.836708367E-1,3.350086689E0,4.809352875E0
2.373748141E1,-7.140706778E-1,3.766677856E0,4.976946831E0
2.375738636E1,-6.949170232E-1,4.034828186E0,5.321712017E0
2.377729131E1,-3.980360329E-1,4.437054157E0,5.015254021E0
2.379719626E1,-5.416881442E-1,5.073912144E0,5.072714806E0
2.381710121E1,-1.293467522E0,5.591059685E0,5.939415932E0
2.383700615E1,-2.270301819E0,5.677250862E0,7.668029308E0
2.385691110E1,-3.060388327E0,5.375581264E0,9.889848709E0
2.387681605E1,-3.405153275E0,5.179256916E0,1.169028854E1
2.389672100E1,-2.849698544E0,5.097854137E0,1.167113495E1
2.391662594E1,-2.193687201E0,5.322908878E0,1.119229412E1
2.393653089E1,-2.634220362E0,5.485714436E0,1.127369690E1
2.395643584E1,-3.984550238E0,5.773018837E0,1.180999851E1
2.397634079E1,-5.009268284E0,5.811326027E0,1.159452057E1
2.399624574E1,-5.090671539E0,5.121796131E0,1.171423054E1
2.401615068E1,-5.124190331E0,3.699640274E0,1.271979523E1
2.403605563E1,-4.903923512E0,2.397194386E0,1.390253067E1
2.405596058E1,-4.319738388E0,1.779490471E0,1.379718590E1
2.407586553E1,-3.625419855E0,2.176927805E0,1.174774933E1
2.409577048E1,-2.983773947E0,2.861669540E0,8.812458038E0
2.411567542E1,-2.318185806E0,3.421912670E0,6.619369030E0
2.413558037E1,-1.585560083E0,3.714005470E0,5.431845188E0
2.415548532E1,-8.912416101E-1,3.551199675E0,5.896320343E0
2.417539027E1,-2.208651006E-1,3.148973703E0,7.356783390E0
2.419529522E1,3.681085110E-1,2.612672567E0,8.175600052E0
2.421520016E1,6.602011323E-1,2.550423384E0,8.692748070E0
2.423510511E1,1.158195019E0,2.852092743E0,7.964910507E0
2.425501006E1,1.565209389E0,2.823362350E0,7.031171799E0
2.427491501E1,1.119887829E0,2.957437754E0,7.227496147E0
2.429481996E1,3.298012912E-1,3.125031710E0,8.386289597E0
2.431472490E1,-2.352303118E-1,3.081936121E0,9.597756386E0
2.433462985E1,-1.039682031E0,3.397970676E0,1.017715263E1
2.435453480E1,-1.087566137E0,3.469796896E0,9.932944298E0
2.437443975E1,-1.006163239E0,3.517680883E0,8.903437614E0
2.439434469E1,-1.609502077E0,3.986944437E0,9.051877975E0
2.441424964E1,-2.141014814E0,4.374804974E0,9.166799545E0
2.443415459E1,-2.346916199E0,4.379593372E0,9.425373077E0
2.445405954E1,-2.548029184E0,4.092289448E0,1.035432339E1
2.447396449E1,-2.476203203E0,3.809773445E0,1.149875259E1
2.449386943E1,-2.222417831E0,3.733159065E0,1.177647972E1
2.451377438E1,-1.915959954E0,4.221576214E0,1.047403431E1
2.453367933E1,-2.375646591E0,4.125808239E0,1.003828907E1
2.455358428E1,-2.686892748E0,3.503315687E0,1.082837582E1
2.457348923E1,-2.581547976E0,2.722805977E0,1.062726307E1
2.459339417E1,-4.401141167E0,3.239953518E0,1.175253773E1
2.461329912E1,-2.777872562E0,3.043628931E0,1.009096146E1
2.463320407E1,-1.336563110E0,2.502539396E0,8.142081261E0
2.465310902E1,-1.824980259E0,3.168127298E0,7.648875713E0
2.467301397E1,-2.131438017E0,3.872022629E0,7.107786179E0
2.469291891E1,-2.030881643E0,3.958214045E0,6.657676220E0
2.471282386E1,-1.662174582E0,3.613448858E0,6.542754650E0
2.473272881E1,-1.245583415E0,3.172915697E0,6.255450726E0
2.475263376E1,-9.917980433E-1,3.134608507E0,5.551555157E0
2.477253871E1,-1.216853023E0,3.345298290E0,5.043984413E0
2.479244365E1,-1.475426793E0,3.690063477E0,5.000888824E0
2.481234860E1,-1.441908002E0,3.718793869E0,5.206789970E0
2.483225355E1,-1.307832718E0,3.781043053E0,5.632957935E0
2.485215850E1,-1.245583415E0,4.250306606E0,5.814917564E0
2.487206344E1,-1.054047346E0,4.652532578E0,5.680841923E0
2.489196839E1,-8.529343605E-1,5.131372929E0,6.121375084E0
2.491187334E1,-7.044938207E-1,5.519233704E0,7.074267387E0
2.493177829E1,-4.842272997E-1,5.701192856E0,7.802104950E0
2.495168324E1,-5.752069354E-1,6.060323238E0,8.118139267E0
2.497158818E1,-7.715315223E-1,6.184821606E0,8.822034836E0
2.499149313E1,-9.726444483E-1,6.069900036E0,9.947309494E0
2.501139808E1,-1.355716705E0,6.045958042E0,1.074218464E1
2.503130303E1,-1.135450125E0,5.701192856E0,1.136467648E1
2.505120798E1,-1.010951638E0,5.461772442E0,1.200153446E1
2.507111292E1,-1.049258947E0,6.184821606E0,1.138383007E1
2.509101787E1,-1.508945584E0,6.898293495E0,1.095287418E1
2.511092282E1,-1.441908002E0,6.472125530E0,1.095766258E1
2.513082777E1,-1.614290476E0,4.973355293E0,1.244685650E1
2.515073272E1,-1.729212165E0,3.316567898E0,1.369662952E1
2.517063766E1,-1.762730956E0,3.139396906E0,1.201589966E1
2.519054261E1,-1.346139908E0,4.049193859E0,9.870695114E0
2.521044756E1,-1.135450125E0,4.662109375E0,8.687959671E0
2.523035251E1,-1.116296530E0,4.753088951E0,8.735843658E0
2.525025746E1,-1.106719732E0,4.422688961E0,8.936956406E0
2.527016240E1,-1.077989340E0,4.374804974E0,8.568249702E0
2.529006735E1,-1.346139908E0,4.489726543E0,8.118139267E0
2.530997230E1,-1.288679123E0,4.432265759E0,7.519588947E0
2.532987725E1,-1.073200941E0,4.154538631E0,7.136516571E0
2.534978219E1,-9.295488000E-1,3.666121244E0,6.877943039E0
2.536968714E1,-9.726444483E-1,3.172915697E0,6.724713802E0
2.538959209E1,-1.039682031E0,3.057994127E0,6.087856293E0
2.540949704E1,-1.015740037E0,3.287837505E0,5.484517574E0
2.542940199E1,-1.101931334E0,3.330933094E0,5.441421986E0
2.544930693E1,-1.422754407E0,3.512892485E0,5.977723122E0
2.546921188E1,-1.394023895E0,3.728370667E0,6.068702698E0
2.548911683E1,-9.247604012E-1,4.188057423E0,6.006453514E0
2.550902178E1,-8.050503135E-1,4.437054157E0,6.413467884E0
2.552892673E1,-9.391255975E-1,4.580706596E0,6.825270653E0
2.554883167E1,-8.816647530E-1,4.614225388E0,7.624933720E0
2.556873662E1,-6.661866307E-1,4.413112164E0,8.501212120E0
2.558864157E1,-1.116296530E0,4.537611008E0,8.644864082E0
2.560854652E1,-1.695693374E0,4.997297287E0,1.014842224E1
2.562845147E1,-1.207276225E0,4.791396141E0,1.043093872E1
2.567990537E1,-1.480215192E0,8.219893456E0,4.182071686E0
2.569981032E1,-1.049258947E0,7.808090210E0,6.504447460E0
2.571971527E1,-3.597288132E-1,7.410652637E0,7.773374557E0
2.573962022E1,4.189853091E-3,7.674015045E0,7.615356922E0
2.575952517E1,1.095347255E-1,8.373122215E0,6.858789444E0
2.577943011E1,2.962824702E-1,8.909422874E0,6.365583897E0
2.579933506E1,1.143231317E-1,9.153631210E0,6.140528679E0
2.581924001E1,-6.183025837E-1,9.402628899E0,6.777386665E0
2.583914496E1,-1.408389091E0,8.962095261E0,9.128492355E0
2.585904991E1,-1.485003591E0,8.315661430E0,1.305498314E1
2.587895485E1,-1.015740037E0,8.258200645E0,1.405097103E1
2.589885980E1,-1.686116576E0,8.880692482E0,1.063683987E1
2.591876475E1,-3.658938646E0,8.837596893E0,9.047089577E0
2.593866970E1,-5.057152748E0,7.482479095E0,1.088104820E1
2.595857465E1,-5.938218594E0,5.801749229E0,1.211645603E1
2.597847959E1,-5.899911404E0,4.542399406E0,1.153705978E1
2.599838454E1,-5.852027416E0,4.111443043E0,9.655217171E0
2.601828949E1,-5.727529049E0,4.073135853E0,7.414244175E0
2.603819444E1,-5.531204700E0,3.963002443E0,6.039972305E0
2.605809939E1,-5.282207489E0,3.785831451E0,5.695207119E0
2.607800433E1,-4.884769917E0,3.340509892E0,5.570708752E0
2.609790928E1,-4.123414040E0,3.144185305E0,5.245097160E0
2.611781423E1,-3.065176725E0,3.201646328E0,4.641758442E0
2.613771918E1,-2.212841034E0,3.120243311E0,3.985747337E0
2.615762412E1,-2.059612036E0,3.101089716E0,4.052784920E0
2.617752907E1,-2.332551003E0,3.268683910E0,5.020042419E0
2.619743402E1,-2.337339401E0,3.723582268E0,6.087856293E0
2.621733897E1,-1.465849996E0,3.967790842E0,5.522824764E0
2.623724392E1,1.143231317E-1,3.804985046E0,4.550778866E0
2.625714886E1,1.335366011E0,3.852869034E0,4.900332451E0
2.627705381E1,7.655459642E-1,5.342062473E0,6.083067894E0
2.629695876E1,4.728548229E-2,6.864774704E0,6.992864609E0
2.631686371E1,2.148796022E-1,7.037157536E0,8.036736488E0
2.633676866E1,1.765723825E-1,7.137713909E0,9.444527626E0
2.635667360E1,-1.585560083E0,8.358757019E0,1.074697304E1
2.637657855E1,-2.308609009E0,9.431359291E0,1.103427696E1
2.639648350E1,-1.614290476E0,9.072228432E0,1.015321064E1
2.641638845E1,-1.346139908E0,9.024344444E0,1.121623611E1
2.643629340E1,-1.461061597E0,9.531915665E0,1.378282070E1
2.645619834E1,-1.379658699E0,9.517550468E0,1.414195061E1
2.647610329E1,-1.269525409E0,8.650849342E0,1.306934834E1
2.649600824E1,-1.666962981E0,6.912658691E0,1.323694229E1
2.651591319E1,-2.696469545E0,5.567117691E0,1.474050140E1
2.653581814E1,-2.988562346E0,4.460996151E0,1.332792187E1
2.655572308E1,-2.600701571E0,3.919906616E0,9.387065887E0
2.657562803E1,-2.294243813E0,3.967790842E0,6.715137005E0
2.659553298E1,-1.671751380E0,3.450643301E0,7.117362976E0
2.661543793E1,-8.960300088E-1,2.306214809E0,8.486846924E0
2.663534287E1,-4.124012291E-1,1.540070295E0,9.066243172E0
2.665524782E1,-5.368997455E-1,1.961449742E0,7.869142532E0
2.667515277E1,-8.529343605E-1,2.799420357E0,5.886743546E0
2.669505772E1,-8.481459618E-1,3.091512918E0,4.742314816E0
2.671496267E1,-6.566098332E-1,2.698863983E0,4.689642429E0
2.673486761E1,-6.853402257E-1,2.282272816E0,4.948216438E0
2.675477256E1,-9.199720025E-1,2.449866772E0,5.302558422E0
2.677467751E1,-1.537676096E0,3.086724520E0,5.412691593E0
2.679458246E1,-3.074753523E0,3.709217072E0,5.163694382E0
2.681448741E1,-4.032433987E0,3.642179251E0,5.388749599E0
2.683439235E1,-3.668515444E0,2.967014551E0,6.379949093E0
2.685429730E1,-3.539228678E0,2.947860956E0,8.659229279E0
2.687420225E1,-5.334879875E0,4.657320976E0,1.094808578E1
2.689410720E1,-7.863156796E0,7.391499043E0,1.084274101E1
2.691401215E1,-8.509591103E0,7.899069786E0,1.158973217E1
2.693391709E1,-7.556699276E0,6.529586792E0,1.412758541E1
2.695382204E1,-6.982090473E0,5.988496780E0,1.507568932E1
2.697372699E1,-7.480084896E0,5.691616058E0,1.470219421E1
2.699363194E1,-7.595006466E0,4.561553001E0,1.621533012E1
2.701353689E1,-6.129755020E0,2.990956545E0,1.716822243E1
2.703344183E1,-4.707599163E0,2.775478363E0,1.482669258E1
2.705334678E1,-3.888782024E0,3.603872061E0,1.100554657E1
2.707325173E1,-3.357269287E0,4.293402195E0,8.084620476E0
2.709315668E1,-2.773084164E0,4.551976204E0,6.245873451E0
2.711306162E1,-1.719635367E0,4.245518208E0,4.469376087E0
2.713296657E1,-1.485003591E0,3.828927040E0,3.578732967E0
2.715287152E1,-2.375646591E0,3.891176224E0,4.148552895E0
2.717277647E1,-2.562394381E0,3.977367640E0,4.862025261E0
2.719268142E1,-1.274313807E0,3.618237257E0,4.383184910E0
2.721258636E1,2.340332121E-1,3.125031710E0,3.530848980E0
2.723249131E1,7.703344226E-1,3.115454912E0,3.272275209E0
2.725239626E1,1.143231317E-1,3.737947464E0,4.536413670E0
2.727230121E1,4.638765752E-1,3.972579241E0,5.814917564E0
2.729220616E1,1.383249998E0,4.283825397E0,6.039972305E0
2.731211110E1,2.230797529E0,4.868010521E0,5.350442410E0
2.733201605E1,2.542043686E0,5.514444828E0,5.805340767E0
2.735192100E1,1.565209389E0,6.735487938E0,6.959345818E0
2.737182595E1,9.379284978E-1,7.099406719E0,7.845200539E0
2.739173090E1,2.125452518E0,6.328473568E0,7.845200539E0
2.741163584E1,2.580350876E0,6.342838764E0,8.122927666E0
2.743154079E1,1.158195019E0,7.334038258E0,8.936956406E0
2.745144574E1,-7.140706778E-1,7.132925510E0,1.052670670E1
2.747135069E1,-1.456273198E0,4.944624901E0,1.371099472E1
2.749125564E1,-3.448249102E0,3.618237257E0,1.615307999E1
2.751116058E1,-4.286219597E0,3.378817081E0,1.498470974E1
2.753106553E1,-2.318185806E0,2.291849613E0,1.353382397E1
2.755097048E1,-1.274313807E0,1.750759959E0,1.305019474E1
2.757087543E1,-1.757942557E0,2.650979757E0,1.187224770E1
2.759078037E1,-1.437119603E0,2.818573952E0,8.965686798E0
2.761068532E1,2.771288455E-1,2.076371431E0,6.068702698E0
2.763059027E1,5.692214370E-1,1.334168911E0,5.058349609E0
2.765049522E1,-1.058835745E0,2.181716204E0,6.346430302E0
2.767040017E1,-3.457825899E0,3.757101059E0,8.027159691E0
2.769030511E1,-4.516062737E0,4.647744179E0,9.003993988E0
2.771021006E1,-4.061164856E0,4.255095005E0,7.744644165E0
2.773011501E1,-3.615843058E0,3.790619850E0,5.862801552E0
2.775001996E1,-3.826532841E0,3.714005470E0,5.628169537E0
2.776992491E1,-3.764283657E0,3.508104086E0,6.652887821E0
2.778982985E1,-3.113060713E0,3.388393879E0,7.026383400E0
2.780973480E1,-2.710834980E0,3.555988073E0,6.365583897E0
2.782963975E1,-2.926312923E0,3.651756048E0,5.905897141E0
2.784954470E1,-3.232770920E0,3.273472309E0,7.514800549E0
2.786944965E1,-2.926312923E0,2.746747971E0,9.032724380E0
2.788935459E1,-2.562394381E0,2.636614561E0,9.808445930E0
2.790925954E1,-3.505709887E0,3.086724520E0,1.079485703E1
2.792916449E1,-5.521627903E0,3.512892485E0,1.301667595E1
2.794906944E1,-6.594230175E0,2.957437754E0,1.465909863E1
2.796897439E1,-6.871957302E0,2.138620615E0,1.324173069E1
2.798887933E1,-7.355586052E0,1.137844324E0,1.157057858E1
2.800878428E1,-7.858368397E0,3.651157767E-2,1.228404999E1
2.802868923E1,-7.240664482E0,-1.127070427E0,1.292569637E1
2.804859418E1,-5.832873821E0,-1.524507880E0,1.184351730E1
2.806849912E1,-5.564723492E0,4.770447016E-1,1.056980228E1
2.808840407E1,-5.641337872E0,3.263895512E0,8.424596786E0
2.810830902E1,-5.286995888E0,4.518456936E0,7.122151375E0
2.812821397E1,-4.583100796E0,4.528033733E0,7.797316551E0
2.814811892E1,-3.338115692E0,4.331709385E0,9.023147583E0
2.816802386E1,-1.413177609E0,3.800196648E0,9.569025993E0
2.818792881E1,-1.394622475E-1,3.575141668E0,8.946533203E0
2.820783376E1,4.830302000E-1,3.666121244E0,8.491635323E0
2.822773871E1,8.852560520E-1,3.819350243E0,8.644864082E0
2.824764366E1,1.143829823E0,3.503315687E0,9.597756386E0
2.826754860E1,2.067991734E0,2.363675594E0,1.077570343E1
2.828745355E1,3.121440411E0,1.180940032E0,1.092893219E1
2.830735850E1,3.289034605E0,9.175778031E-1,1.012448025E1
2.832726345E1,2.633023262E0,1.846528053E0,8.965686798E0
2.834716840E1,1.622670174E0,2.842515945E0,8.798092842E0
2.836707334E1,5.740098357E-1,3.388393879E0,8.845976830E0
2.838697829E1,-1.969230920E-1,3.785831451E0,8.611345291E0
2.840688324E1,-9.103952050E-1,4.393958569E0,7.984064102E0
2.842678819E1,-1.346139908E0,4.350862980E0,9.051877975E0
2.844669314E1,-1.748365760E0,3.814561844E0,1.175732613E1
2.846659808E1,-2.758718967E0,3.532046080E0,1.230799198E1
2.848650303E1,-4.070741653E0,4.714781761E0,1.109173775E1
2.850640798E1,-4.267066002E0,5.485714436E0,1.109652615E1
2.852631293E1,-2.864063740E0,4.025251389E0,1.235587597E1
2.854621787E1,-1.657386184E0,2.445078373E0,1.261445045E1
2.856612282E1,-2.231994629E0,2.512116194E0,1.245164490E1
2.858602777E1,-3.314173698E0,3.752312660E0,1.179563332E1
2.860593272E1,-3.443460703E0,4.532822132E0,1.012448025E1
2.862583767E1,-2.888005733E0,4.647744179E0,8.582614899E0
2.864574261E1,-2.773084164E0,4.116231441E0,8.391077995E0
2.866564756E1,-2.959831953E0,3.488950491E0,9.382277489E0
2.868555251E1,-2.715623379E0,2.876034737E0,9.736619949E0
2.870545746E1,-2.088342428E0,2.334945202E0,9.473258018E0
2.872536241E1,-1.427542806E0,1.856104851E0,8.759785652E0
2.874526735E1,-7.715315223E-1,1.540070295E0,7.289745808E0
2.876517230E1,-1.346738487E-1,1.664568782E0,5.417479992E0
2.878507725E1,5.261258483E-1,2.138620615E0,4.311358929E0
2.880498220E1,1.565209389E0,2.492962599E0,4.660912037E0
2.882488715E1,2.656965256E0,2.713229179E0,4.704007626E0
2.884479209E1,2.953846455E0,3.728370667E0,4.000112534E0
2.886469699E1,2.139817715E0,5.088277340E0,4.708796024E0
2.888460189E1,1.048061848E0,5.504868031E0,6.245873451E0
2.890450678E1,3.968389332E-1,5.418676853E0,7.112574577E0
2.892441168E1,4.189853091E-3,5.404311657E0,8.233060837E0
2.894431657E1,-8.816647530E-1,4.738723755E0,9.980828285E0
2.896422147E1,-1.164180517E0,3.359663486E0,1.180042171E1
2.898412636E1,-1.422754407E0,1.889623642E0,1.354340076E1
2.900403126E1,-2.289455414E0,1.501762986E0,1.495119095E1
2.902393616E1,-2.643797159E0,1.865681648E0,1.472613621E1
2.904384105E1,-2.236783028E0,2.138620615E0,1.288738918E1
2.906374595E1,-2.136226416E0,2.272696018E0,1.143171501E1
2.908365084E1,-2.016516447E0,2.430713177E0,1.033516979E1
2.910355574E1,-1.566406488E0,2.770689964E0,9.075819969E0
2.912346064E1,-1.480215192E0,3.426701069E0,7.778162956E0
2.914336553E1,-1.599925280E0,3.991732836E0,6.475717068E0
2.916327043E1,-1.202487826E0,3.867234230E0,6.284181118E0
2.918317532E1,-4.794389009E-1,2.899976730E0,7.351994991E0
2.920308022E1,-1.203086376E-1,2.387617588E0,9.128492355E0
2.922298511E1,-7.721300423E-2,2.703652382E0,9.329605103E0
2.924289001E1,2.483984232E-1,3.594295263E0,7.155670166E0
2.926279491E1,5.261258483E-1,4.034828186E0,5.848436356E0
2.928269980E1,7.942764163E-1,3.776254654E0,6.265027523E0
2.930260470E1,1.134253025E0,3.488950491E0,7.634510517E0
2.932250959E1,1.517325282E0,3.383605480E0,9.142857552E0
2.934241449E1,1.766322255E0,3.599083662E0,1.002392387E1
2.936231939E1,1.799841166E0,4.346074581E0,1.017715263E1
2.938222428E1,1.828571558E0,5.093065739E0,9.449316025E0
2.940212918E1,1.388038397E0,5.662885666E0,8.381501198E0
2.942203407E1,6.123170853E-1,5.902305603E0,9.142857552E0
2.944193897E1,8.134300113E-1,5.030816555E0,1.099118137E1
2.946184392E1,2.264316320E0,3.776254654E0,1.249474049E1
2.948174886E1,3.341706991E0,3.273472309E0,1.271500683E1
2.950165381E1,2.431910276E0,3.881599426E0,1.183872890E1
2.952155876E1,2.100912035E-1,4.590283394E0,1.236066437E1
2.954146371E1,-3.214215636E-1,4.259883404E0,1.346678638E1
2.956136866E1,7.128735781E-1,2.880823135E0,1.277246761E1
2.958127360E1,1.637035370E0,1.817797661E0,1.144608021E1
2.960117855E1,1.321000814E0,1.784278870E0,9.794080734E0
2.962108350E1,4.112041295E-1,2.354098797E0,9.061454773E0
2.964098845E1,1.334767491E-1,2.425924778E0,8.798092842E0
2.966089340E1,3.776853085E-1,2.023699045E0,8.247426033E0
2.968079834E1,5.835866928E-1,1.765125155E0,7.658452511E0
2.970070329E1,9.995792061E-2,1.865681648E0,7.419032574E0
2.972060824E1,-6.566098332E-1,2.210446835E0,7.557896137E0
2.974051319E1,-9.726444483E-1,2.349310398E0,7.533954144E0
2.976041814E1,-8.625111580E-1,2.315791607E0,7.404667377E0
2.978032308E1,-6.039373875E-1,2.421136379E0,7.021595001E0
2.980022803E1,-3.501519859E-1,2.684498549E0,7.131728172E0
2.982013298E1,4.189853091E-3,2.560000181E0,7.371148586E0
2.984003793E1,4.112041295E-1,2.330156803E0,7.514800549E0
2.985994287E1,1.143231317E-1,2.871246338E0,8.041524887E0
2.987984782E1,-9.534908533E-1,3.843292236E0,8.956110001E0
2.989975277E1,-1.844133854E0,4.159327030E0,1.002871227E1
2.991965772E1,-1.643020868E0,3.733159065E0,9.880271912E0
2.993956267E1,-1.068412542E0,3.311779499E0,1.006223106E1
2.995946761E1,-1.125873327E0,2.713229179E0,1.168071175E1
2.997937256E1,-1.269525409E0,2.172139406E0,1.250910568E1
2.999927751E1,-1.561618090E0,2.392405987E0,1.203026485E1
3.001918246E1,-2.088342428E0,3.211223125E0,1.086189461E1
3.003908741E1,-2.758718967E0,3.493738890E0,1.090977859E1
3.005899235E1,-2.720411777E0,3.216011524E0,1.075654984E1
3.007889730E1,-2.107496023E0,2.813785553E0,9.932944298E0
3.009880225E1,-1.987785935E0,2.665344954E0,9.631275177E0
3.011870720E1,-2.706046581E0,3.172915697E0,1.010532665E1
3.013861215E1,-3.625419855E0,4.058770657E0,1.100075817E1
3.015851709E1,-3.620631456E0,4.264671803E0,1.069430065E1
3.017842204E1,-2.844910145E0,3.704428673E0,9.521142006E0
3.019832699E1,-1.997362733E0,3.158550501E0,8.510788918E0
3.021823194E1,-1.432331204E0,3.263895512E0,7.830835342E0
3.023813689E1,-1.451484799E0,3.747524261E0,7.016806602E0
3.025804183E1,-1.508945584E0,4.144961834E0,6.284181118E0
3.027794678E1,-1.197699428E0,3.934272051E0,5.747879505E0
3.029785173E1,-9.774328470E-1,3.306991100E0,5.977723122E0
3.031775668E1,-8.050503135E-1,2.971802950E0,6.753444672E0
3.033766162E1,-3.884592354E-1,2.684498549E0,7.270592213E0
3.035756657E1,-1.017535757E-2,2.818573952E0,7.294534206E0
3.037747152E1,3.441664875E-1,3.091512918E0,7.600991726E0
3.039737647E1,1.043273449E0,2.986168146E0,8.103774071E0
3.041728142E1,1.215655923E0,3.062782526E0,9.080608368E0
3.043718636E1,8.421604633E-1,3.450643301E0,9.650428772E0
3.045709131E1,9.522937536E-1,3.148973703E0,9.808445930E0
3.047699626E1,1.569997787E0,2.722805977E0,1.190576649E1
3.049690121E1,1.364096403E0,2.765901566E0,1.423293018E1
3.051680616E1,8.948329091E-1,3.000533342E0,1.410843182E1
3.053671110E1,8.559270948E-2,3.321356297E0,1.312202072E1
3.055661605E1,-7.906851172E-1,3.163338900E0,1.294484997E1
3.057652100E1,-1.537676096E0,2.665344954E0,1.311723232E1
3.059642595E1,-2.002151251E0,2.488174200E0,1.253304768E1
3.061633090E1,-2.246359825E0,2.617460966E0,1.133594608E1
3.063623584E1,-2.720411777E0,2.967014551E0,1.004307747E1
3.065614079E1,-3.467402697E0,3.570353270E0,9.626486778E0
3.067604574E1,-3.567959070E0,3.972579241E0,9.090185165E0
3.069595069E1,-3.041234732E0,3.776254654E0,7.797316551E0
3.071585564E1,-2.260725021E0,3.345298290E0,6.763021469E0
3.073576058E1,-1.638232470E0,2.995744944E0,6.466140270E0
3.075566553E1,-1.283890605E0,2.842515945E0,6.595427036E0
3.077557048E1,-1.264737010E0,3.062782526E0,6.667253017E0
3.079547543E1,-1.192911029E0,3.426701069E0,6.245873451E0
3.081538037E1,-8.433575630E-1,3.579930067E0,5.489305973E0
3.083528532E1,-4.938040972E-1,3.441066504E0,5.556343555E0
3.085519027E1,-1.250970364E-1,3.503315687E0,6.408679485E0
3.087509522E1,-7.242459804E-2,4.346074581E0,6.954557419E0
3.089500017E1,-4.076128304E-1,5.260659695E0,6.418256283E0
3.091490511E1,-8.529343605E-1,6.098630428E0,6.083067894E0
3.093481006E1,-9.582792521E-1,6.266224384E0,6.810905457E0
3.095471501E1,-8.816647530E-1,5.394734859E0,8.908226013E0
3.097461996E1,-6.853402257E-1,4.599860191E0,1.083795261E1
3.099452491E1,-8.002619147E-1,4.949413300E0,1.132158089E1
3.101442985E1,-1.499368787E0,5.993285179E0,1.040699577E1
3.103433480E1,-1.925536752E0,6.615777969E0,1.008138466E1
3.105423975E1,-2.045246840E0,6.582259178E0,1.003828907E1
3.107414470E1,-2.179322004E0,5.945401192E0,1.024419022E1
3.109404965E1,-2.107496023E0,4.911106110E0,1.065599346E1
3.111395459E1,-2.251148224E0,3.680486679E0,1.126412010E1
3.113385954E1,-2.284667015E0,3.129820108E0,1.178126812E1
3.115376449E1,-2.241571426E0,3.139396906E0,1.107737255E1
3.117366944E1,-1.954267144E0,3.034052134E0,9.080608368E0
3.119357439E1,-1.729212165E0,2.871246338E0,7.907449722E0
3.121347933E1,-2.160168409E0,3.101089716E0,7.414244175E0
3.123338428E1,-2.543240786E0,3.192069530E0,7.500435352E0
3.125328923E1,-2.945466757E0,3.239953518E0,8.304886818E0
3.127319418E1,-2.763507366E0,3.393182278E0,8.271368027E0
3.129309912E1,-2.026093245E0,3.575141668E0,6.542754650E0
3.131300407E1,-1.504157186E0,4.001309395E0,5.470152378E0
3.133290902E1,-1.485003591E0,4.250306606E0,5.546766758E0
3.135281397E1,-1.264737010E0,4.202422619E0,5.920262337E0
3.137271892E1,-6.757634282E-1,3.991732836E0,6.006453514E0
3.139262386E1,-2.208651006E-1,3.905541420E0,5.656899929E0
3.141252881E1,8.978256024E-3,4.250306606E0,5.565920353E0
3.143243376E1,-1.873462796E-1,4.590283394E0,5.786187172E0
3.145233871E1,-5.081692934E-1,4.719570160E0,6.399102688E0
3.147224366E1,-7.475894690E-1,4.911106110E0,7.821258545E0
3.149214860E1,-6.374561787E-1,5.016450882E0,8.711901665E0
3.151205355E1,-6.613982320E-1,5.207987309E0,8.716690063E0
3.153195850E1,-1.001374841E0,5.447407246E0,8.774150848E0
3.155186345E1,-1.264737010E0,5.504868031E0,9.636063576E0
3.157176840E1,-1.054047346E0,4.920682907E0,1.117314053E1
3.159167334E1,-8.194155097E-1,4.317344189E0,1.249474049E1
3.161157829E1,-1.437119603E0,4.829703331E0,1.326088428E1
3.163148324E1,-2.002151251E0,5.897517204E0,1.231278038E1
3.165138819E1,-2.155380011E0,6.548740387E0,1.076612663E1
3.167129314E1,-1.805826664E0,6.237493992E0,1.051234150E1
3.169119808E1,-1.561618090E0,4.963778496E0,1.157536697E1
3.171110303E1,-1.671751380E0,3.546411276E0,1.444362068E1
3.173100798E1,-7.667431235E-1,2.804208755E0,1.283950520E1
3.175091293E1,-1.017535757E-2,3.053205729E0,1.011011505E1
3.177081787E1,1.813607812E-1,3.517680883E0,8.261791229E0
3.179072282E1,1.047463268E-1,3.675698042E0,7.275380611E0
3.181062777E1,1.526303589E-1,3.699640274E0,6.940192223E0
3.183053272E1,1.430535465E-1,3.517680883E0,6.825270653E0
3.185043767E1,1.909375787E-1,3.254318714E0,6.652887821E0
3.187034261E1,9.038111567E-2,3.038840532E0,6.839635849E0
3.189024756E1,-4.746504724E-1,3.158550501E0,6.901885033E0
3.191015251E1,-8.337807655E-1,3.536834478E0,6.518812656E0
3.193005746E1,-7.140706778E-1,3.804985046E0,5.800552368E0
3.194996241E1,-6.470330358E-1,4.135385036E0,4.866813660E0
3.196986735E1,-8.768763542E-1,4.499303341E0,4.148552895E0
3.198977230E1,-1.135450125E0,4.633378983E0,4.340089321E0
3.200967725E1,-9.295488000E-1,4.331709385E0,5.503671169E0
3.202958220E1,-4.794389009E-1,4.125808239E0,6.370372295E0
3.204948715E1,-3.884592354E-1,4.551976204E0,6.312911510E0
3.206939209E1,-8.385691643E-1,5.231929302E0,6.494870663E0
3.208929704E1,-1.595136881E0,5.619790077E0,7.591414928E0
3.210920199E1,-2.394800186E0,5.638943672E0,9.932944298E0
3.212910694E1,-2.126649618E0,5.117007732E0,1.153705978E1
3.214901189E1,-1.398812294E0,4.417900562E0,1.209251404E1
3.216891683E1,-1.887229443E0,4.868010521E0,1.214518642E1
3.218882178E1,-3.002927542E0,5.782595634E0,1.209251404E1
3.220872673E1,-3.295020103E0,6.543951988E0,1.208293724E1
3.222863168E1,-3.764283657E0,6.558317184E0,1.116356373E1
3.224853662E1,-4.343680382E0,5.696404457E0,1.173338413E1
3.226844157E1,-4.554370403E0,4.408323765E0,1.323694229E1
3.228834652E1,-4.405929565E0,3.230376720E0,1.336144066E1
3.230825147E1,-3.524863482E0,2.540846586E0,1.194886208E1
3.232815642E1,-2.653373957E0,2.531269789E0,1.002871227E1
3.234806136E1,-2.356492996E0,2.899976730E0,8.204330444E0
3.236796631E1,-2.394800186E0,3.072359324E0,7.342418194E0
3.238787126E1,-2.591124773E0,2.947860956E0,7.442974567E0
3.240777621E1,-2.739565372E0,2.828150749E0,7.577049732E0
3.242768116E1,-2.619855165E0,2.708440781E0,7.481281757E0
3.244758610E1,-2.476203203E0,2.684498549E0,7.433397770E0
3.246749105E1,-2.576759577E0,2.986168146E0,7.433397770E0
3.248739600E1,-2.567182779E0,3.249530315E0,7.107786179E0
3.250730095E1,-2.370858192E0,3.421912670E0,6.494870663E0
3.252720590E1,-2.160168409E0,3.589506865E0,6.025607109E0
3.254711084E1,-1.834557056E0,3.699640274E0,5.522824764E0
3.256701579E1,-1.666962981E0,3.848080635E0,5.211578369E0
3.258692074E1,-1.714846969E0,4.082712650E0,5.326500416E0
3.260682569E1,-1.638232470E0,4.121019840E0,5.948992729E0
3.262673064E1,-1.298255920E0,4.015674591E0,6.370372295E0
3.264663558E1,-1.255160213E0,4.077924252E0,6.657676220E0
3.266654053E1,-1.427542806E0,4.293402195E0,7.045536995E0
3.268644548E1,-1.537676096E0,4.374804974E0,7.452551365E0
3.270635043E1,-1.470638394E0,4.427477360E0,7.893084526E0
3.272625537E1,-1.451484799E0,4.561553001E0,8.443750381E0
3.274616032E1,-1.604713678E0,4.805761337E0,8.529942513E0
3.276606527E1,-1.824980259E0,5.126584530E0,8.247426033E0
3.278597022E1,-2.112284422E0,5.447407246E0,7.921814919E0
3.280587517E1,-2.356492996E0,5.734711647E0,7.840412140E0
3.282578011E1,-2.337339401E0,5.883152008E0,8.036736488E0
3.284568506E1,-2.370858192E0,5.863998413E0,8.381501198E0
3.286559001E1,-2.447472572E0,5.667674065E0,9.166799545E0
3.288549496E1,-2.461838007E0,5.547964096E0,9.564237595E0
3.290539991E1,-2.303820610E0,5.624578476E0,9.535507202E0
3.292530485E1,-2.231994629E0,5.782595634E0,9.267355919E0
3.294520980E1,-2.433107376E0,5.911882401E0,8.932168007E0
3.296511475E1,-2.653373957E0,5.945401192E0,9.252990723E0
3.298501970E1,-2.926312923E0,5.844844818E0,9.731831551E0
3.300492464E1,-2.959831953E0,5.696404457E0,1.026334381E1
3.302482959E1,-2.677315950E0,5.418676853E0,1.045966911E1
3.304473454E1,-2.308609009E0,5.049970150E0,1.034474659E1
3.306463949E1,-2.184110403E0,4.815338135E0,1.024419022E1
3.308454444E1,-1.801038265E0,4.595071793E0,1.023461342E1
3.310444938E1,-1.077989340E0,4.312555790E0,9.731831551E0
3.312435433E1,-7.092822790E-1,4.312555790E0,8.769362450E0
3.314425928E1,-8.194155097E-1,4.470572948E0,8.381501198E0
3.316416423E1,-8.960300088E-1,4.322132587E0,8.577826500E0
3.318406918E1,-7.188590765E-1,4.058770657E0,8.333617210E0
3.320397412E1,-5.464765429E-1,4.144961834E0,7.644087315E0
3.322387907E1,-5.368997455E-1,4.211999416E0,7.055113792E0
3.324378402E1,-8.050503135E-1,4.365228176E0,7.270592213E0
3.326368897E1,-9.343371987E-1,4.379593372E0,7.495646954E0
3.328359392E1,-8.146271110E-1,4.245518208E0,7.395090580E0
3.330349886E1,-9.247604012E-1,4.374804974E0,7.189188957E0
3.332340381E1,-9.008184075E-1,4.561553001E0,6.935403824E0
3.334330876E1,-7.044938207E-1,4.623802185E0,6.576273441E0
3.336321371E1,-6.087257862E-1,4.748300552E0,6.360795498E0
3.338311866E1,-3.118447661E-1,4.628590584E0,6.624157429E0
3.340302360E1,-2.112883031E-1,4.403535366E0,6.863577843E0
3.342292855E1,-1.312621117E0,5.337274075E0,4.426280499E0
3.344283350E1,-2.093130827E0,5.796960831E0,6.873154640E0
3.346273845E1,-1.671751380E0,5.634155273E0,7.581838131E0
3.348264340E1,-3.597288132E-1,4.116231441E0,7.419032574E0
3.352002145E1,-8.194155097E-1,6.974907875E0,6.025607109E0
3.353992650E1,-5.752069354E-1,6.678027153E0,6.561908245E0
3.355983155E1,-2.974795699E-1,6.467337132E0,7.059902191E0
3.357973661E1,-4.124012291E-1,6.634931564E0,7.184400558E0
3.359964166E1,-4.842272997E-1,7.061099529E0,6.681618214E0
3.361954671E1,-6.374561787E-1,7.338826656E0,6.504447460E0
3.363945176E1,-7.763199210E-1,7.420229435E0,7.026383400E0
3.365935681E1,-7.236474752E-1,7.348403454E0,7.725490570E0
3.367926187E1,-6.709750295E-1,7.276577473E0,8.381501198E0
3.369916692E1,-9.247604012E-1,7.573458672E0,8.290521622E0
3.371907197E1,-1.336563110E0,8.033144951E0,9.123703957E0
3.373897702E1,-2.457049608E0,8.588600159E0,1.123060131E1
3.375888207E1,-2.294243813E0,8.813654900E0,1.085710621E1
3.377878713E1,-3.050811529E0,9.282918930E0,9.147645950E0
3.379869218E1,-3.271078110E0,9.196727753E0,8.865130424E0
3.381859723E1,-3.069965124E0,7.444171429E0,9.841964722E0
3.383850228E1,-3.041234732E0,5.485714436E0,1.132636929E1
3.385840734E1,-3.295020103E0,4.336497784E0,1.190097809E1
3.387831239E1,-3.079541922E0,3.881599426E0,1.087147141E1
3.389821744E1,-2.739565372E0,3.833715439E0,8.754997253E0
3.391812249E1,-2.677315950E0,3.704428673E0,7.083844185E0
3.393802754E1,-2.667739153E0,3.493738890E0,6.427833080E0
3.395793260E1,-2.825756550E0,3.378817081E0,6.111798286E0
3.397783765E1,-2.950255156E0,3.163338900E0,6.107009888E0
3.399774270E1,-2.729988575E0,2.909553528E0,6.480505466E0
3.401764775E1,-2.500145197E0,2.866457939E0,6.509235859E0
3.403755280E1,-2.390011787E0,3.043628931E0,6.111798286E0
3.405745786E1,-2.294243813E0,3.216011524E0,5.814917564E0
3.407736291E1,-2.169745207E0,3.278260708E0,5.632957935E0
3.409726796E1,-1.939901948E0,3.244741917E0,5.580285549E0
3.411717301E1,-1.695693374E0,3.259107113E0,5.872378349E0
3.413707806E1,-1.719635367E0,3.445854902E0,6.312911510E0
3.415698312E1,-1.796249866E0,3.809773445E0,6.873154640E0
3.417688817E1,-1.585560083E0,4.298190594E0,7.342418194E0
3.419679322E1,-1.365293503E0,4.891952515E0,7.778162956E0
3.421669827E1,-1.738788962E0,5.916670799E0,8.836400032E0
3.423660332E1,-1.887229443E0,6.678027153E0,1.071824265E1
3.425650838E1,-1.236006618E0,6.826467514E0,1.223616600E1
3.427641343E1,-3.549404144E-1,6.859986305E0,1.317948151E1
3.429631848E1,1.622071713E-1,7.161655903E0,1.370620632E1
3.431622353E1,7.032967210E-1,7.803301811E0,1.408927822E1
3.433612859E1,1.507748485E0,8.775347710E0,1.267191124E1
3.435603364E1,1.857301950E0,8.598176956E0,1.098160458E1
3.437593869E1,1.613093376E0,6.874351501E0,1.192013168E1
3.439584374E1,1.148618221E0,3.709217072E0,1.638292313E1
3.441574879E1,8.325836658E-1,1.683722377E0,1.774761772E1
3.443565385E1,7.320271730E-1,1.631049871E0,1.504695892E1
3.445555890E1,1.286883354E-1,2.052429438E0,1.175732613E1
3.447546395E1,-9.726444483E-1,2.698863983E0,9.396642685E0
3.449536900E1,-1.432331204E0,3.029263735E0,7.921814919E0
3.451527405E1,-1.599925280E0,2.861669540E0,6.858789444E0
3.453517911E1,-1.887229443E0,2.909553528E0,5.920262337E0
3.455508416E1,-2.251148224E0,3.378817081E0,4.895544052E0
3.457498921E1,-2.691681147E0,3.833715439E0,4.234744072E0
3.459489426E1,-2.959831953E0,3.790619850E0,4.421492100E0
3.461479931E1,-2.892794132E0,3.407547474E0,4.842871666E0
3.463470437E1,-2.557605982E0,3.019686937E0,5.398326397E0
3.465460942E1,-1.872864246E0,2.785055161E0,6.020818710E0
3.467451447E1,-1.485003591E0,3.570353270E0,5.723937511E0
3.469441952E1,-1.077989340E0,5.567117691E0,4.330512524E0
3.471432457E1,-4.746504724E-1,6.591835976E0,4.115034103E0
3.473422963E1,-5.512649417E-1,5.619790077E0,8.438961983E0
3.475413468E1,-4.219780564E-1,4.815338135E0,1.291611958E1
3.477403973E1,3.058592677E-1,4.805761337E0,1.358170795E1
3.479394478E1,3.489548862E-1,5.495291233E0,1.166155815E1
3.481384984E1,-1.101931334E0,6.701969147E0,1.121144772E1
3.483375489E1,-2.619855165E0,7.305307865E0,1.118750572E1
3.485365994E1,-3.453037500E0,7.472901821E0,1.074218464E1
3.487356499E1,-4.223970413E0,7.056311131E0,9.597756386E0
3.489347004E1,-4.204816818E0,6.160879612E0,9.425373077E0
3.491337510E1,-4.190451622E0,5.107430935E0,9.971251488E0
3.493328015E1,-4.520851135E0,4.762665749E0,9.612121582E0
3.495318520E1,-4.381987572E0,5.188833714E0,7.347206593E0
3.497309025E1,-3.836109638E0,5.619790077E0,4.498106480E0
3.499299530E1,-3.596689463E0,5.796960831E0,3.377619982E0
3.501290036E1,-3.433883905E0,5.409100056E0,3.832518339E0
3.503280541E1,-2.782660961E0,4.834491730E0,4.455010891E0
3.505271046E1,-1.944690347E0,4.346074581E0,5.077503204E0
3.507261551E1,-1.221641421E0,3.867234230E0,5.594650745E0
3.509252056E1,-6.518214345E-1,3.670909643E0,5.747879505E0
3.511242562E1,-3.262099922E-1,3.852869034E0,5.968146324E0
3.513233067E1,-5.985504249E-4,3.982156038E0,6.044760704E0
3.515223572E1,6.889315248E-1,4.130596638E0,5.632957935E0
3.517214077E1,1.598728180E0,4.446630955E0,5.565920353E0
3.519204582E1,1.862090349E0,5.026028156E0,5.594650745E0
3.521195088E1,1.541267395E0,5.897517204E0,4.871602058E0
3.523185593E1,1.244386315E0,6.721122742E0,4.565144062E0
3.525176098E1,8.661024570E-1,7.243058681E0,5.450998783E0
3.527166603E1,5.117605925E-1,7.286154270E0,6.796540260E0
3.529157109E1,1.382651478E-1,6.965331078E0,8.309675217E0
3.531147614E1,8.559270948E-2,6.783371925E0,1.000477028E1
3.533138119E1,-2.256535143E-1,6.994061947E0,1.111089134E1
3.535128624E1,-4.459200799E-1,7.300519466E0,1.081401062E1
3.537119129E1,-2.448071241E-1,7.334038258E0,1.059374428E1
3.539109635E1,4.351461530E-1,6.970119476E0,1.121144772E1
3.541100140E1,1.244386315E0,6.764218330E0,1.169028854E1
3.543090645E1,1.809417963E0,6.998850346E0,1.095766258E1
3.545081150E1,2.096722126E0,6.783371925E0,9.272144318E0
3.547071655E1,1.761533856E0,5.409100056E0,1.020109463E1
3.549062161E1,1.814206362E0,3.819350243E0,1.323694229E1
3.551052666E1,2.369661093E0,3.062782526E0,1.375887871E1
3.553043171E1,2.403179884E0,3.187281132E0,1.153227139E1
3.555033676E1,1.929128051E0,3.900753021E0,9.415796280E0
3.557024181E1,1.220444322E0,4.360439777E0,8.223484039E0
3.559014687E1,7.846996188E-1,4.489726543E0,7.399878979E0
3.561005192E1,8.708908558E-1,4.025251389E0,6.739078999E0
3.562995697E1,1.139041424E0,3.498527288E0,6.226719856E0
3.564986202E1,1.373673201E0,3.292625904E0,5.307346821E0
3.566976707E1,1.244386315E0,3.306991100E0,4.862025261E0
3.568967213E1,8.565256596E-1,3.239953518E0,5.192424774E0
3.570957718E1,7.942764163E-1,3.239953518E0,5.144540787E0
3.572948223E1,9.331400990E-1,3.551199675E0,4.464587688E0
3.574938728E1,8.613140583E-1,4.006097794E0,4.263474464E0
3.576929234E1,4.351461530E-1,4.499303341E0,4.905120850E0
3.578919739E1,2.244564146E-1,5.284601688E0,6.250661850E0
3.580910244E1,4.255693555E-1,5.993285179E0,7.045536995E0
3.582900749E1,3.058592677E-1,6.721122742E0,7.002441406E0
3.584891254E1,-1.634042710E-1,7.204751492E0,7.725490570E0
3.586881760E1,-4.650736749E-1,6.989273548E0,9.746196747E0
3.588872265E1,8.978256024E-3,6.448183537E0,1.180521011E1
3.590862770E1,-1.975216344E-2,6.792948723E0,1.200153446E1
3.592853275E1,-9.678560495E-1,7.779359818E0,1.091935539E1
3.594843780E1,-1.528099179E0,8.267777443E0,1.075176144E1
3.596834286E1,-1.824980259E0,7.535151482E0,1.124496651E1
3.598824791E1,-1.954267144E0,6.103418827E0,1.144129181E1
3.600815296E1,-2.251148224E0,4.824914932E0,1.144129181E1
3.602805801E1,-2.576759577E0,3.757101059E0,1.200153446E1
3.604796306E1,-2.586336374E0,2.933495522E0,1.218349361E1
3.606786812E1,-2.806602955E0,2.435501575E0,1.094329739E1
3.608777317E1,-3.702034473E0,2.555211782E0,9.114127159E0
3.610767822E1,-4.856039524E0,3.077147722E0,7.500435352E0
3.612758327E1,-4.769848347E0,3.330933094E0,6.087856293E0
3.614748832E1,-3.783437252E0,3.067570925E0,5.206789970E0
3.616739338E1,-3.074753523E0,2.698863983E0,5.393537998E0
3.618729843E1,-2.854486942E0,2.818573952E0,6.499659061E0
3.620720348E1,-2.844910145E0,2.899976730E0,6.863577843E0
3.622710848E1,-2.476203203E0,2.832939148E0,6.327276707E0
3.624701348E1,-1.930325150E0,2.895188332E0,5.484517574E0
3.626691848E1,-1.465849996E0,3.239953518E0,4.991312027E0
3.628682348E1,-1.121084929E0,3.675698042E0,4.790199280E0
3.630672848E1,-9.439139962E-1,4.015674591E0,4.737526417E0
3.632663348E1,-6.661866307E-1,4.250306606E0,5.020042419E0
3.634653848E1,8.978256024E-3,4.441842556E0,5.925050735E0
3.636644348E1,9.906009436E-1,4.590283394E0,6.935403824E0
3.638634848E1,1.713649869E0,5.002085686E0,7.754220963E0
3.640625348E1,2.384026289E0,5.495291233E0,8.865130424E0
3.642615848E1,2.834136248E0,5.567117691E0,1.083316422E1
3.644606348E1,2.949058056E0,5.030816555E0,1.318905830E1
3.646596848E1,2.829347849E0,4.211999416E0,1.416589260E1
3.648587348E1,2.407968283E0,3.771466255E0,1.343326759E1
3.650577848E1,2.005742550E0,3.675698042E0,1.301667595E1
3.652568348E1,1.526902080E0,3.575141668E0,1.311244392E1
3.654558848E1,6.793547273E-1,3.350086689E0,1.342369080E1
3.656549348E1,3.770867735E-2,2.947860956E0,1.380676270E1
3.658539848E1,2.531868219E-1,2.751536369E0,1.301188755E1
3.660530348E1,7.032967210E-1,3.206434727E0,1.058895588E1
3.662520848E1,3.681085110E-1,4.025251389E0,8.673594475E0
3.664511348E1,-2.831143439E-1,4.681262970E0,8.400654793E0
3.666501848E1,-9.678560495E-1,5.006874084E0,8.506000519E0
3.668492348E1,-9.247604012E-1,4.532822132E0,8.501212120E0
3.670482848E1,-2.783259451E-1,3.498527288E0,8.750208855E0
3.672473348E1,5.213374496E-1,2.574365377E0,8.774150848E0
3.674463848E1,7.990648150E-1,2.138620615E0,7.912238121E0
3.676454348E1,5.165489912E-1,2.220023632E0,7.055113792E0
3.678444853E1,1.765723825E-1,2.483385801E0,6.514024258E0
3.680435359E1,-1.011550203E-1,2.655768156E0,6.767809868E0
3.682425864E1,-3.411737457E-2,2.550423384E0,7.189188957E0
3.684416369E1,1.095347255E-1,2.483385801E0,7.136516571E0
3.686406874E1,1.191115379E-1,2.588730574E0,7.136516571E0
3.688397379E1,-1.107318252E-1,2.746747971E0,7.768586159E0
3.690387885E1,-5.081692934E-1,3.101089716E0,8.415019989E0
3.692378390E1,-1.116296530E0,3.666121244E0,8.735843658E0
3.694368895E1,-1.461061597E0,3.618237257E0,9.683947563E0
3.696359400E1,-1.566406488E0,3.206434727E0,1.058416748E1
3.698349905E1,-2.141014814E0,3.474585295E0,1.047403431E1
3.700340411E1,-2.873640537E0,4.034828186E0,1.001913548E1
3.702330916E1,-3.328538895E0,3.809773445E0,1.028249741E1
3.704321421E1,-4.166509628E0,3.479373693E0,1.260008526E1
3.706311926E1,-4.516062737E0,3.369240284E0,1.357213116E1
3.708302431E1,-4.195240021E0,3.340509892E0,1.155142498E1
3.710292937E1,-4.271854401E0,3.283049107E0,1.046445751E1
3.712283442E1,-4.894346714E0,3.340509892E0,1.089541340E1
3.714273947E1,-4.994903088E0,3.431489468E0,1.089541340E1
3.716264452E1,-4.477755547E0,3.077147722E0,1.022982502E1
3.718254957E1,-3.797802448E0,2.694075346E0,9.434949875E0
3.720245463E1,-3.443460703E0,2.641402960E0,8.692748070E0
3.722235968E1,-3.678092480E0,2.880823135E0,8.027159691E0
3.724226473E1,-3.678092480E0,3.024475336E0,7.572261333E0
3.726216978E1,-3.213617325E0,3.129820108E0,7.122151375E0
3.728207484E1,-2.480991602E0,3.302202702E0,6.351218700E0
3.730197989E1,-1.877652645E0,3.699640274E0,5.541978359E0
3.732188494E1,-1.571194887E0,4.063559055E0,4.536413670E0
3.734178999E1,-1.609502077E0,4.164115429E0,4.483741283E0
3.736169504E1,-1.796249866E0,3.977367640E0,5.489305973E0
3.738160010E1,-1.489791989E0,3.508104086E0,6.308123112E0
3.740150515E1,-1.101931334E0,3.220799923E0,6.705560207E0
3.742141020E1,-1.010951638E0,3.330933094E0,6.590638638E0
3.744131525E1,-8.529343605E-1,3.690063477E0,6.399102688E0
3.746122030E1,-6.949170232E-1,4.116231441E0,6.322488308E0
3.748112536E1,-7.092822790E-1,4.523245335E0,6.542754650E0
3.750103041E1,-6.326677799E-1,4.839280128E0,7.385513783E0
3.752093546E1,-3.645172119E-1,4.595071793E0,9.114127159E0
3.754084051E1,-5.386953708E-3,3.972579241E0,1.127848530E1
3.756074556E1,4.207809567E-1,3.891176224E0,1.236066437E1
3.758065062E1,5.596446395E-1,4.604648590E0,1.203026485E1
3.760055567E1,1.909375787E-1,5.260659695E0,1.162325096E1
3.762046072E1,-3.693056107E-1,5.265448093E0,1.240854931E1
3.764036577E1,-5.273229480E-1,4.815338135E0,1.335665226E1
3.766027082E1,-3.740940094E-1,3.967790842E0,1.333749866E1
3.768017588E1,-1.017535757E-2,3.460220098E0,1.247558689E1
3.770008093E1,2.483984232E-1,3.479373693E0,1.088104820E1
3.771998598E1,4.590881765E-1,3.670909643E0,9.291297913E0
3.773989103E1,4.973953962E-1,3.848080635E0,8.156446457E0
3.775979609E1,1.095347255E-1,4.097077847E0,7.725490570E0
3.777970114E1,-9.157821536E-2,3.977367640E0,7.624933720E0
3.779960619E1,1.095347255E-1,3.235165119E0,8.036736488E0
3.781951124E1,5.261258483E-1,2.449866772E0,7.969698906E0
3.783941629E1,6.602011323E-1,2.124255419E0,7.816470146E0
3.785932135E1,4.447229803E-1,2.224812031E0,7.682394505E0
3.787922640E1,-1.250970364E-1,2.540846586E0,7.380725384E0
3.789913145E1,-7.428010702E-1,3.057994127E0,7.150881767E0
3.791903650E1,-6.901286244E-1,3.239953518E0,7.050325394E0
3.793894155E1,-4.363432527E-1,3.278260708E0,6.739078999E0
3.795884661E1,-3.884592354E-1,3.666121244E0,6.681618214E0
3.797875166E1,-3.884592354E-1,4.063559055E0,6.873154640E0
3.799865671E1,-5.129576921E-1,4.575918198E0,6.964134216E0
3.801856176E1,-8.289923668E-1,5.251082897E0,7.016806602E0
3.803846681E1,-8.146271110E-1,5.433042049E0,7.241861820E0
3.805837187E1,-5.752069354E-1,4.982932091E0,7.849988937E0
3.807827692E1,-5.752069354E-1,4.537611008E0,8.845976830E0
3.809818197E1,-1.030105233E0,4.824914932E0,1.014363384E1
3.811808702E1,-1.097142935E0,5.193622112E0,1.020588303E1
3.813799207E1,-9.247604012E-1,5.495291233E0,9.420584679E0
3.815789713E1,-1.331774712E0,5.734711647E0,9.779715538E0
3.817780218E1,-1.887229443E0,5.389946461E0,1.133115768E1
3.819770723E1,-1.820191860E0,4.748300552E0,1.197759247E1
3.821761228E1,-2.002151251E0,4.537611008E0,1.126412010E1
3.823751734E1,-3.122637510E0,4.192845821E0,1.164719296E1
3.825742239E1,-4.271854401E0,3.445854902E0,1.345242119E1
3.827732744E1,-4.329315186E0,2.392405987E0,1.482669258E1
3.829723249E1,-3.548805475E0,1.760336757E0,1.386901188E1
3.831713754E1,-2.873640537E0,2.033275843E0,1.090499020E1
3.833704260E1,-2.423530579E0,2.876034737E0,8.434173584E0
3.835694765E1,-1.935113549E0,3.670909643E0,6.767809868E0
3.837685270E1,-1.370081902E0,3.986944437E0,5.733514309E0
3.839675775E1,-4.842272997E-1,3.833715439E0,5.575497150E0
3.841666280E1,2.819172442E-1,3.603872061E0,5.240308762E0
3.843656786E1,4.303577542E-1,3.737947464E0,5.814917564E0
3.845647291E1,4.249707982E-2,3.747524261E0,8.051101685E0
3.847637796E1,3.345896900E-1,3.412335873E0,8.793304443E0
3.849628301E1,1.038484931E0,3.306991100E0,7.864354134E0
3.851618806E1,1.115099430E0,3.670909643E0,6.528389454E0
3.853609312E1,4.447229803E-1,4.221576214E0,5.958569527E0
3.855599817E1,-2.017114908E-1,4.700416565E0,5.814917564E0
3.857590322E1,-4.985924959E-1,4.887164116E0,5.613804340E0
3.859580827E1,-6.709750295E-1,4.796184540E0,5.939415932E0
3.861571332E1,-7.715315223E-1,4.719570160E0,6.921038628E0
3.863561838E1,-8.864531517E-1,4.944624901E0,7.423820972E0
3.865552343E1,-1.140238523E0,5.327697277E0,7.620145321E0
3.867542848E1,-1.475426793E0,5.705981255E0,7.735067368E0
3.869533353E1,-1.571194887E0,5.705981255E0,8.664017677E0
3.871523859E1,-1.504157186E0,5.318120480E0,1.019151783E1
3.873514364E1,-1.547252893E0,4.987720490E0,1.180042171E1
3.875504869E1,-1.585560083E0,5.207987309E0,1.162803936E1
3.877495374E1,-1.590348482E0,5.825691223E0,1.051712990E1
3.879485879E1,-1.374870300E0,6.443395138E0,9.535507202E0
3.881476385E1,-1.020528436E0,6.927023888E0,8.927379608E0
3.883466890E1,-8.912416101E-1,6.711545944E0,9.071031570E0
3.885457395E1,-1.221641421E0,5.763442039E0,1.092414379E1
3.887447900E1,-1.216853023E0,4.542399406E0,1.271500683E1
3.889438405E1,-1.092354536E0,3.824138641E0,1.252347088E1
3.891428911E1,-7.763199210E-1,4.025251389E0,1.072303104E1
3.893419416E1,-4.171896577E-1,4.470572948E0,8.257002831E0
3.895409921E1,-7.242459804E-2,4.705204964E0,6.499659061E0
3.897400426E1,8.978256024E-3,4.528033733E0,6.336853504E0
3.899390931E1,-5.985504249E-4,4.154538631E0,6.729502201E0
3.901381437E1,-5.386953708E-3,3.833715439E0,6.997653008E0
3.903371942E1,-3.022679687E-1,3.656544447E0,7.088632584E0
3.905362447E1,-6.135141850E-1,3.646967649E0,7.174823761E0
3.907352952E1,-5.656301379E-1,3.694851875E0,7.098209381E0
3.909343457E1,-3.309983909E-1,3.737947464E0,6.681618214E0
3.911333963E1,-5.386953708E-3,3.737947464E0,6.312911510E0
3.913324468E1,1.574187577E-1,3.661332846E0,6.557119846E0
3.915314973E1,-1.017535757E-2,3.824138641E0,6.739078999E0
3.917305478E1,-1.634042710E-1,4.058770657E0,6.959345818E0
3.919295984E1,2.334346622E-2,4.159327030E0,6.700771809E0
3.921286489E1,1.286883354E-1,4.197634220E0,6.250661850E0
3.923276994E1,-5.386953708E-3,4.312555790E0,6.624157429E0
3.925267499E1,1.376665942E-2,4.652532578E0,7.653664112E0
3.927258004E1,-3.740940094E-1,5.246294498E0,8.146869659E0
3.929248510E1,-9.391255975E-1,5.552752495E0,8.649652481E0
3.931239015E1,-8.385691643E-1,5.423465252E0,9.219471931E0
3.933229520E1,-7.858967185E-1,5.260659695E0,9.937732697E0
3.935220025E1,-9.774328470E-1,5.284601688E0,1.074697304E1
3.937210530E1,-8.337807655E-1,5.298966885E0,1.111089134E1
3.939201036E1,-5.991489887E-1,5.193622112E0,1.164240456E1
3.941191541E1,-8.289923668E-1,5.251082897E0,1.231278038E1
3.943182046E1,-1.461061597E0,5.667674065E0,1.221222401E1
3.945172551E1,-2.327762604E0,5.375581264E0,1.220264721E1
3.947163056E1,-2.485780001E0,4.551976204E0,1.266712284E1
3.949153562E1,-2.567182779E0,3.761889458E0,1.282514000E1
3.951144067E1,-2.399588585E0,3.239953518E0,1.240854931E1
3.953134572E1,-2.131438017E0,3.101089716E0,1.137425327E1
3.955125077E1,-1.834557056E0,3.120243311E0,9.779715538E0
3.957115582E1,-1.729212165E0,2.947860956E0,8.664017677E0
3.959106088E1,-1.820191860E0,2.842515945E0,8.175600052E0
3.961096593E1,-1.820191860E0,2.995744944E0,7.744644165E0
3.963087098E1,-1.968632340E0,3.172915697E0,6.944980621E0
3.965077603E1,-1.901594758E0,3.125031710E0,6.700771809E0
3.967068109E1,-1.341351509E0,2.818573952E0,6.854001045E0
3.969058614E1,-8.768763542E-1,2.794631958E0,6.408679485E0
3.971049119E1,-6.661866307E-1,3.235165119E0,5.374384403E0
3.973039624E1,-7.858967185E-1,3.781043053E0,4.885967255E0
3.975030129E1,-9.534908533E-1,4.015674591E0,5.604227543E0
3.977020635E1,-7.858967185E-1,3.982156038E0,5.953781128E0
3.979011140E1,-6.374561787E-1,4.173692226E0,5.872378349E0
3.981001645E1,-6.949170232E-1,4.417900562E0,6.073491096E0
3.982992150E1,-7.619546652E-1,4.470572948E0,6.911461830E0
3.984982655E1,-7.954735160E-1,4.484938145E0,7.380725384E0
3.986973161E1,-7.667431235E-1,4.772242546E0,7.141304970E0
3.988963666E1,-7.236474752E-1,5.112219334E0,6.830059052E0
3.990954171E1,-7.523778677E-1,5.389946461E0,6.763021469E0
3.992944676E1,-7.954735160E-1,5.480926037E0,7.375936985E0
3.994935181E1,-9.534908533E-1,5.442618847E0,8.257002831E0
3.996925687E1,-1.173757434E0,5.476137638E0,9.166799545E0
3.998916192E1,-1.001374841E0,5.409100056E0,1.011490345E1
4.000906697E1,-9.151836038E-1,5.653308868E0,1.015799904E1
4.002897202E1,-1.121084929E0,6.055534840E0,9.841964722E0
4.004887707E1,-1.571194887E0,6.218340397E0,1.043572712E1
4.006878213E1,-1.504157186E0,6.242282391E0,1.134552288E1
4.008868718E1,-7.763199210E-1,6.448183537E0,1.072781944E1
4.010859223E1,-7.284358740E-1,6.448183537E0,9.434949875E0
4.012849728E1,-1.101931334E0,6.323685169E0,9.468469620E0
4.014840234E1,-1.231218219E0,5.538387299E0,1.117792892E1
4.016830739E1,-9.917980433E-1,4.470572948E0,1.255698967E1
4.018821244E1,-7.523778677E-1,3.651756048E0,1.293527317E1
4.020811749E1,-4.219780564E-1,3.431489468E0,1.177647972E1
4.022802254E1,3.292027488E-2,3.646967649E0,9.976039886E0
4.024792760E1,7.122749835E-2,3.924695253E0,8.960898399E0
4.026783265E1,-2.256535143E-1,4.030039787E0,8.994417191E0
4.028773770E1,-1.921346933E-1,3.785831451E0,8.865130424E0
4.030764275E1,6.165069342E-2,3.546411276E0,8.276156425E0
4.032754780E1,-2.454056777E-2,3.613448858E0,7.409455776E0
4.034745286E1,-1.155202314E-1,3.781043053E0,6.815693855E0
4.036735791E1,-1.011550203E-1,3.848080635E0,6.245873451E0
4.038726296E1,4.189853091E-3,3.623025656E0,6.207566261E0
4.040716801E1,1.622071713E-1,3.340509892E0,6.197989464E0
4.042707306E1,1.526303589E-1,3.292625904E0,5.709572315E0
4.044697812E1,7.122749835E-2,3.378817081E0,5.455787182E0
4.046688317E1,-6.763619930E-2,3.493738890E0,5.786187172E0
4.048678822E1,4.249707982E-2,3.555988073E0,6.217143059E0
4.050669327E1,2.867056429E-1,3.603872061E0,6.312911510E0
4.052659832E1,4.399345517E-1,3.761889458E0,6.480505466E0
4.054650338E1,3.202244639E-1,4.188057423E0,6.849212646E0
4.056640843E1,1.238999367E-1,4.599860191E0,6.997653008E0
4.058631348E1,-1.538274586E-1,4.901529312E0,7.701548100E0
4.060621853E1,-4.267664552E-1,5.078700542E0,8.884284019E0
4.062612359E1,-6.997054219E-1,5.318120480E0,9.564237595E0
4.064602864E1,-8.816647530E-1,5.567117691E0,9.861118317E0
4.066593369E1,-7.332242727E-1,5.318120480E0,1.069430065E1
4.068583874E1,-4.267664552E-1,5.174468517E0,1.143171501E1
4.070574379E1,-6.135141850E-1,5.385158062E0,1.100075817E1
4.072564885E1,-1.140238523E0,5.696404457E0,1.084274101E1
4.074555390E1,-1.738788962E0,5.246294498E0,1.146523380E1
4.076545895E1,-2.595913172E0,4.298190594E0,1.224095440E1
4.078536400E1,-3.362057686E0,3.326144695E0,1.366311073E1
4.080526905E1,-3.807379246E0,2.363675594E0,1.464952183E1
4.082517411E1,-3.338115692E0,2.095525026E0,1.333749866E1
4.084507916E1,-2.538452387E0,2.469020605E0,1.077091503E1
4.086498421E1,-2.356492996E0,2.890399933E0,8.223484039E0
4.088488926E1,-2.686892748E0,3.048417330E0,7.960122108E0
4.090479431E1,-2.701258183E0,2.856881142E0,8.932168007E0
4.092469937E1,-2.528875589E0,2.622249365E0,8.879495621E0
4.094460442E1,-2.672527552E0,2.909553528E0,8.194753647E0
4.096450947E1,-2.504933596E0,3.292625904E0,7.553107738E0
4.098441452E1,-1.824980259E0,3.570353270E0,6.887519836E0
4.100431957E1,-1.532887697E0,3.785831451E0,6.317699909E0
4.102422463E1,-1.595136881E0,4.073135853E0,6.102221489E0
4.104412968E1,-1.417966008E0,4.149750233E0,5.972934723E0
4.106403473E1,-1.264737010E0,4.226364613E0,5.738302708E0
4.108393978E1,-1.111508131E0,4.039616585E0,6.121375084E0
4.110384484E1,-9.343371987E-1,3.814561844E0,6.600215435E0
4.112374989E1,-1.073200941E0,3.982156038E0,6.628945827E0
4.114365494E1,-1.489791989E0,4.480149746E0,6.782175064E0
4.116355999E1,-3.357269287E0,5.476137638E0,8.051101685E0
4.118346504E1,-3.208828926E0,6.065111637E0,7.146093369E0
4.120337010E1,-2.782660961E0,5.485714436E0,6.700771809E0
4.122327515E1,-1.422754407E0,4.408323765E0,8.927379608E0
4.124318020E1,-1.394622475E-1,3.718793869E0,9.181164742E0
4.126308525E1,-5.656301379E-1,4.221576214E0,9.985616684E0
4.128299030E1,-1.585560083E0,4.714781761E0,1.084752941E1
4.130289536E1,-1.360505104E0,4.781819344E0,1.078528023E1
4.132280041E1,-5.752069354E-1,4.585494995E0,1.063205147E1
4.134270546E1,-1.427542806E0,5.002085686E0,1.105343056E1
4.136261051E1,-2.313397408E0,4.777030945E0,1.154184818E1
4.138251556E1,-2.524087191E0,3.872022629E0,1.227926159E1
4.140242062E1,-1.681328177E0,3.105878115E0,1.183394051E1
4.142232567E1,-1.312621117E0,3.158550501E0,1.072303104E1
4.144223072E1,-1.623867273E0,3.393182278E0,1.001434708E1
4.146213577E1,-1.920748353E0,3.374028683E0,9.487623215E0
4.148204082E1,-1.963843942E0,3.369240284E0,8.956110001E0
4.150194588E1,-1.705270171E0,3.350086689E0,8.501212120E0
4.152185093E1,-1.427542806E0,3.603872061E0,7.217919350E0
4.154175598E1,-1.743577361E0,3.804985046E0,9.511565208E0
4.156166103E1,-1.700481772E0,3.953425646E0,9.727043152E0
4.158156609E1,-1.097142935E0,3.924695253E0,7.730278969E0
