"Time (s)","Acceleration x (m/s^2)","Acceleration y (m/s^2)","Acceleration z (m/s^2)"
6.913024400E-2,1.096950054E0,3.487950087E0,8.830950737E0
8.870293100E-2,1.135050058E0,3.508050203E0,8.908050537E0
1.082785800E-1,1.221000075E0,3.526950121E0,8.974950790E0
1.278561030E-1,1.260000110E0,3.546000242E0,8.908050537E0
1.474345560E-1,1.221000075E0,3.526950121E0,8.850000381E0
1.670121700E-1,1.125000000E0,3.421050072E0,9.003000259E0
1.865955500E-1,9.820500612E-1,3.307050228E0,9.291000366E0
2.061804590E-1,8.670000434E-1,3.259050131E0,9.520950317E0
2.257641460E-1,8.190000653E-1,3.307050228E0,9.597000122E0
2.453486800E-1,7.999500632E-1,3.421050072E0,9.481950760E0
2.649364580E-1,7.900500298E-1,3.535950184E0,9.271950722E0
2.845158720E-1,7.999500632E-1,3.594000101E0,9.109050751E0
3.040865780E-1,8.380500674E-1,3.613050222E0,9.079950333E0
3.236558860E-1,8.479500413E-1,3.631950140E0,9.184950829E0
3.432303280E-1,8.089500666E-1,3.651000261E0,9.319050789E0
3.628086840E-1,7.620000243E-1,3.651000261E0,9.385950089E0
3.823917610E-1,7.039500475E-1,3.651000261E0,9.376950264E0
4.019659870E-1,6.660000086E-1,3.679950237E0,9.271950722E0
4.215388030E-1,5.800500512E-1,3.736950159E0,9.051000595E0
4.411080970E-1,4.069500268E-1,3.766050100E0,8.782950401E0
4.606834240E-1,2.830500007E-1,3.679950237E0,8.638950348E0
4.802627980E-1,2.730000019E-1,3.508050203E0,8.773950577E0
4.998425830E-1,3.109500110E-1,3.412050247E0,9.109050751E0
5.194253560E-1,3.310500085E-1,3.460050106E0,9.376950264E0
5.390062020E-1,3.019500077E-1,3.517050266E0,9.520950317E0
5.585865100E-1,2.250000089E-1,3.556050062E0,9.588000298E0
5.781675150E-1,1.290000081E-1,3.603000164E0,9.597000122E0
5.977470960E-1,8.205000311E-2,3.642000198E0,9.511050224E0
6.173274580E-1,8.205000311E-2,3.661050081E0,9.328950882E0
6.369076750E-1,5.295000225E-2,3.727950096E0,9.090000153E0
6.564833670E-1,-3.195000067E-2,3.852000237E0,8.860050201E0
6.760576260E-1,-1.380000114E-1,4.006050110E0,8.716050148E0
6.956290150E-1,-2.340000123E-1,4.140000343E0,8.668050766E0
7.151954140E-1,-3.010500073E-1,4.282950401E0,8.638950348E0
7.347656450E-1,-3.289500177E-1,4.446000099E0,8.601000786E0
7.543332600E-1,-2.910000086E-1,4.561050415E0,8.544000626E0
7.739031790E-1,-1.950000077E-1,4.627950191E0,8.467050552E0
7.934850350E-1,-1.090500057E-1,4.666050434E0,8.410050392E0
8.130692560E-1,-7.095000148E-2,4.657050133E0,8.389950752E0
8.326545000E-1,-4.200000316E-2,4.609050274E0,8.410050392E0
8.522384950E-1,-5.205000192E-2,4.561050415E0,8.485950470E0
8.718238180E-1,-9.900000691E-2,4.552050114E0,8.592000008E0
8.914044290E-1,-1.090500057E-1,4.570950031E0,8.745000839E0
9.109800630E-1,-4.200000316E-2,4.599000454E0,8.869050026E0
9.305635250E-1,7.200000435E-2,4.657050133E0,8.908050537E0
9.501500050E-1,2.639999986E-1,4.705049992E0,8.898000717E0
9.697220050E-1,4.450500309E-1,4.734000206E0,8.869050026E0
9.892896980E-1,5.509500504E-1,4.714050293E0,8.887950897E0
1.008858005E0,5.599500537E-1,4.675950050E0,8.908050537E0
1.028432775E0,5.130000114E-1,4.647000313E0,8.869050026E0
1.048006867E0,3.690000176E-1,4.675950050E0,8.830950737E0
1.067583487E0,1.099500060E-1,4.743000031E0,8.812050819E0
1.087161410E0,-1.090500057E-1,4.780950069E0,8.773950577E0
1.106736424E0,-1.860000044E-1,4.743000031E0,8.734950066E0
1.126309419E0,-1.950000077E-1,4.675950050E0,8.764050484E0
1.145891872E0,-2.340000123E-1,4.723950386E0,9.003000259E0
1.165476112E0,-1.660500020E-1,4.915050030E0,9.472949982E0
1.185048496E0,8.205000311E-2,5.097000122E0,1.009500027E1
1.204619790E0,3.589500189E-1,5.145000458E0,1.073700047E1
1.224188496E0,4.360500276E-1,5.107050419E0,1.127295017E1
1.243757126E0,3.310500085E-1,5.125950336E0,1.167495060E1
1.263326660E0,2.059500068E-1,5.212050438E0,1.194405079E1
1.282900521E0,1.960500032E-1,5.155050278E0,1.209705067E1
1.302474275E0,2.639999986E-1,4.896000385E0,1.212600040E1
1.322052121E0,3.310500085E-1,4.465050220E0,1.205895042E1
1.341625675E0,3.979500234E-1,3.805050135E0,1.191495037E1
1.361200757E0,3.780000210E-1,3.105000257E0,1.170405102E1
1.380773356E0,2.059500068E-1,2.646000147E0,1.140705013E1
1.400343918E0,4.950000439E-3,2.491950035E0,1.091895008E1
1.419915009E0,-2.295000106E-2,2.491950035E0,1.024800014E1
1.439489775E0,1.680000126E-1,2.454000235E0,9.540000916E0
1.459066006E0,4.260000288E-1,2.338950157E0,8.869050026E0
1.478639924E0,6.660000086E-1,2.205000162E0,8.389950752E0
1.498212856E0,9.049500227E-1,2.157000065E0,8.055000305E0
1.517778001E0,1.116000056E0,2.196000099E0,7.690950394E0
1.537346087E0,1.269000053E0,2.272050142E0,7.366050243E0
1.556917394E0,1.345950007E0,2.320050001E0,7.107000351E0
1.576489765E0,1.317000031E0,2.406000137E0,6.829050541E0
1.596065769E0,1.164000034E0,2.587950230E0,6.657000542E0
1.615634991E0,9.630000591E-1,2.875950098E0,6.733950138E0
1.635202697E0,8.089500666E-1,3.211050034E0,7.011000156E0
1.654773159E0,7.330500484E-1,3.535950184E0,7.347000122E0
1.674346909E0,7.519500256E-1,3.862050295E0,7.605000496E0
1.693915616E0,8.860500455E-1,4.129950047E0,7.701000214E0
1.713486669E0,1.068000078E0,4.369950294E0,7.768050194E0
1.733058280E0,1.096950054E0,4.552050114E0,7.891950607E0
1.752628131E0,8.860500455E-1,4.647000313E0,8.046000481E0
1.772207828E0,5.700000525E-1,4.705049992E0,8.199000359E0
1.791790996E0,3.310500085E-1,4.780950069E0,8.389950752E0
1.811373059E0,2.830500007E-1,4.887000084E0,8.686950684E0
1.830956516E0,3.210000098E-1,4.983000278E0,9.109050751E0
1.850542991E0,3.310500085E-1,5.029950142E0,9.588000298E0
1.870124213E0,3.499500155E-1,5.068950176E0,1.005705070E1
1.889705674E0,3.499500155E-1,5.164050102E0,1.038300037E1
1.909291217E0,1.680000126E-1,5.251050472E0,1.061205006E1
1.928868217E0,-1.950000077E-1,5.337000370E0,1.082295036E1
1.948453665E0,-5.500500202E-1,5.308050156E0,1.090905094E1
1.968036819E0,-7.030500174E-1,5.011050224E0,1.083300018E1
1.987616434E0,-7.120500207E-1,4.513050079E0,1.052595043E1
2.007201726E0,-7.320000529E-1,3.985950232E0,1.003800011E1
2.026784495E0,-7.789500356E-1,3.535950184E0,9.481950760E0
2.046359798E0,-8.269500136E-1,3.220050097E0,9.079950333E0
2.065936102E0,-9.040500522E-1,3.105000257E0,8.917050362E0
2.085511174E0,-9.709500670E-1,3.067050219E0,8.841000557E0
2.105083789E0,-9.610500336E-1,2.962050200E0,8.734950066E0
2.124644486E0,-9.229500294E-1,2.799000025E0,8.581950188E0
2.144215236E0,-8.659500480E-1,2.713050127E0,8.352000237E0
2.163780740E0,-7.410000563E-1,2.751000166E0,8.046000481E0
2.183349889E0,-5.209500194E-1,2.836950064E0,7.768050194E0
2.202917659E0,-2.910000086E-1,2.952000141E0,7.633950233E0
2.222484399E0,-1.380000114E-1,3.028950214E0,7.672050476E0
2.242051472E0,-7.095000148E-2,3.019050121E0,7.891950607E0
2.261620640E0,-5.205000192E-2,3.000000238E0,8.227950096E0
2.281190467E0,-5.205000192E-2,3.085950136E0,8.437950134E0
2.300761005E0,-1.305000018E-2,3.268050194E0,8.389950752E0
2.320331775E0,3.405000269E-2,3.450000048E0,8.151000023E0
2.339901221E0,2.400000021E-2,3.631950140E0,7.921050549E0
2.359472986E0,-6.105000153E-2,3.843000174E0,7.902000427E0
2.379046751E0,-1.469999999E-1,4.006050110E0,8.161050797E0
2.398610813E0,-1.380000114E-1,4.063050270E0,8.620050430E0
2.418179428E0,-1.305000018E-2,4.006050110E0,9.195000648E0
2.437751414E0,2.160000056E-1,3.919050217E0,9.826950073E0
2.457319717E0,4.360500276E-1,3.832950115E0,1.042995071E1
2.476890198E0,5.220000148E-1,3.747000217E0,1.095705032E1
2.496459447E0,3.400500119E-1,3.709050179E0,1.136895084E1
2.516029837E0,-4.050000105E-3,3.709050179E0,1.167495060E1
2.535595765E0,-1.660500020E-1,3.747000217E0,1.189605045E1
2.555168644E0,4.950000439E-3,3.862050295E0,1.194405079E1
2.574741275E0,3.979500234E-1,3.985950232E0,1.179000092E1
2.594306798E0,7.710000277E-1,3.976950169E0,1.141695023E1
2.613879721E0,9.630000591E-1,3.910050154E0,1.081305027E1
2.633454827E0,9.820500612E-1,3.795000076E0,1.016205025E1
2.653031452E0,9.820500612E-1,3.546000242E0,9.712050438E0
2.672610298E0,9.720000625E-1,3.297000170E0,9.501000404E0
2.692186913E0,1.020000100E0,3.201000214E0,9.444000244E0
2.711757929E0,1.221000075E0,3.220050097E0,9.406050682E0
2.731324164E0,1.489050031E0,3.307050228E0,9.223950386E0
2.750893322E0,1.614000082E0,3.412050247E0,8.850000381E0
2.770463476E0,1.450950027E0,3.460050106E0,8.362050056E0
2.790029428E0,1.087050080E0,3.450000048E0,7.806000233E0
2.809593654E0,6.940500140E-1,3.441000223E0,7.299000263E0
2.829160500E0,4.360500276E-1,3.460050106E0,6.943950176E0
2.848730270E0,3.979500234E-1,3.508050203E0,6.877050400E0
2.868298246E0,5.029500127E-1,3.565050125E0,7.030950546E0
2.887861385E0,6.079500318E-1,3.546000242E0,7.212000370E0
2.907424774E0,6.660000086E-1,3.478950262E0,7.327050209E0
2.926992087E0,6.469500065E-1,3.450000048E0,7.375050545E0
2.946557996E0,5.800500512E-1,3.487950087E0,7.384950161E0
2.966127847E0,4.840500355E-1,3.574950218E0,7.384950161E0
2.985696385E0,4.170000255E-1,3.736950159E0,7.356000423E0
3.005265692E0,4.170000255E-1,3.976950169E0,7.299000263E0
3.024839832E0,4.549500346E-1,4.245000362E0,7.270050526E0
3.044419443E0,5.029500127E-1,4.465050220E0,7.299000263E0
3.063999837E0,4.360500276E-1,4.618950367E0,7.384950161E0
3.083582005E0,2.730000019E-1,4.705049992E0,7.548000336E0
3.103157361E0,1.290000081E-1,4.762050152E0,7.806000233E0
3.122723438E0,5.295000225E-2,4.828950405E0,8.218050003E0
3.142288679E0,-1.305000018E-2,4.887000084E0,8.734950066E0
3.161854289E0,-9.000000358E-2,4.906050205E0,9.214050293E0
3.181416996E0,-1.660500020E-1,4.887000084E0,9.616050720E0
3.200976996E0,-2.620500028E-1,4.819950104E0,1.000905037E1
3.220546621E0,-4.249500334E-1,4.647000313E0,1.040205002E1
3.240120169E0,-7.219500542E-1,4.465050220E0,1.073700047E1
3.259691770E0,-1.123950005E0,4.389000416E0,1.111005020E1
3.279262534E0,-1.450050116E0,4.389000416E0,1.152195072E1
3.298831765E0,-1.689000130E0,4.446000099E0,1.181895065E1
3.318398842E0,-1.822950125E0,4.474950314E0,1.197195053E1
3.337975765E0,-1.813950062E0,4.293000221E0,1.187700081E1
3.357547755E0,-1.737000108E0,4.024950027E0,1.144605064E1
3.377118832E0,-1.728000045E0,3.814050198E0,1.076595020E1
3.396692741E0,-1.861950040E0,3.556050062E0,1.008600044E1
3.416265957E0,-2.149049997E0,3.229950190E0,9.636000633E0
3.435841020E0,-2.475000143E0,2.980950117E0,9.529950142E0
3.455413559E0,-2.617950201E0,2.799000025E0,9.636000633E0
3.474985544E0,-2.521950006E0,2.617050171E0,9.730950356E0
3.494557226E0,-2.235000134E0,2.425050020E0,9.636000633E0
3.514130756E0,-1.890000105E0,2.301000118E0,9.280950546E0
3.533703991E0,-1.573950052E0,2.290950060E0,8.707050323E0
3.553279068E0,-1.287000060E0,2.368050098E0,8.046000481E0
3.572854207E0,-1.086000085E0,2.491950035E0,7.567050457E0
3.592432674E0,-9.420000315E-1,2.607000113E0,7.414050579E0
3.612007757E0,-7.890000343E-1,2.617050171E0,7.519050121E0
3.631580603E0,-6.450000405E-1,2.539950132E0,7.768050194E0
3.651156588E0,-5.209500194E-1,2.464050055E0,7.998000145E0
3.670735680E0,-4.540500343E-1,2.491950035E0,8.055000305E0
3.690314151E0,-5.299500227E-1,2.674050093E0,7.978950500E0
3.709889549E0,-7.030500174E-1,2.952000141E0,7.864050388E0
3.729466165E0,-8.269500136E-1,3.211050034E0,7.710000515E0
3.749038852E0,-8.659500480E-1,3.487950087E0,7.596000195E0
3.768612684E0,-8.370000124E-1,3.832950115E0,7.605000496E0
3.788184607E0,-6.739500165E-1,4.081950188E0,7.729950428E0
3.807764083E0,-4.729500115E-1,4.149000168E0,7.902000427E0
3.827343794E0,-3.960000277E-1,4.168050289E0,8.026950836E0
3.846919097E0,-4.830000103E-1,4.225950241E0,8.122050285E0
3.866497251E0,-7.030500174E-1,4.282950401E0,8.295000076E0
3.886074174E0,-9.900000691E-1,4.255050182E0,8.553000450E0
3.905650536E0,-1.267950058E0,4.188000202E0,8.946000099E0
3.925224934E0,-1.488000035E0,4.177950382E0,9.511050224E0
3.944796939E0,-1.546050072E0,4.273950100E0,1.020105076E1
3.964369353E0,-1.315950036E0,4.369950294E0,1.091895008E1
3.983941982E0,-9.520500302E-1,4.456050396E0,1.146495056E1
4.003512660E0,-7.410000563E-1,4.599000454E0,1.179000092E1
4.023085333E0,-6.450000405E-1,4.723950386E0,1.187700081E1
4.042655810E0,-5.209500194E-1,4.753050327E0,1.171395016E1
4.062232973E0,-4.440000355E-1,4.743000031E0,1.136895084E1
4.081807217E0,-4.060500264E-1,4.675950050E0,1.091895008E1
4.101379833E0,-3.289500177E-1,4.456050396E0,1.042995071E1
4.120953987E0,-2.050500065E-1,4.140000343E0,9.990000725E0
4.140530905E0,-1.189500093E-1,3.928950071E0,9.703050613E0
4.160105910E0,-7.095000148E-2,3.814050198E0,9.549000740E0
4.179680358E0,4.950000439E-3,3.757050276E0,9.339000702E0
4.199255127E0,1.870500147E-1,3.747000217E0,8.917050362E0
4.218828377E0,4.450500309E-1,3.805050135E0,8.284950256E0
4.238406270E0,6.370500326E-1,3.852000237E0,7.585950375E0
4.257986573E0,6.750000119E-1,3.891000271E0,7.030950546E0
4.277564688E0,5.800500512E-1,3.891000271E0,6.714000225E0
4.297142510E0,3.499500155E-1,3.823950291E0,6.676050186E0
4.316721894E0,9.105000645E-2,3.736950159E0,6.781950474E0
4.336306745E0,-9.000000358E-2,3.690000057E0,6.790950298E0
4.355886520E0,-9.900000691E-2,3.699000120E0,6.685950279E0
4.375475106E0,-2.295000106E-2,3.852000237E0,6.541950226E0
4.395059947E0,8.205000311E-2,4.111050129E0,6.493950367E0
4.414634790E0,2.350500077E-1,4.360050201E0,6.637950420E0
4.434211405E0,2.539499998E-1,4.561050415E0,6.810000420E0
4.453790708E0,5.295000225E-2,4.695000172E0,6.954000473E0
4.473369236E0,-1.570500135E-1,4.810050011E0,7.126050472E0
4.492950063E0,-7.095000148E-2,4.935000420E0,7.375050545E0
4.512529756E0,3.499500155E-1,5.077950478E0,7.720050335E0
4.532107987E0,7.519500256E-1,5.232000351E0,8.122050285E0
4.551684616E0,7.620000243E-1,5.317950249E0,8.620050430E0
4.571260265E0,4.069500268E-1,5.308050156E0,9.223950386E0
4.590832646E0,-6.105000153E-2,5.278950214E0,9.865050316E0
4.610405295E0,-3.100500107E-1,5.251050472E0,1.045005035E1
4.629981852E0,-2.719500065E-1,5.241000175E0,1.074600029E1
4.649550751E0,-9.900000691E-2,5.326950073E0,1.071795082E1
4.669119751E0,4.950000439E-3,5.500050068E0,1.057395077E1
4.688688401E0,-1.860000044E-1,5.662050247E0,1.035405064E1
4.708262280E0,-5.590500236E-1,5.671950340E0,1.006605053E1
4.727840746E0,-8.269500136E-1,5.452050209E0,9.837000847E0
4.747416781E0,-1.038000107E0,5.193000317E0,9.673950195E0
4.766991555E0,-1.335000038E0,4.972950459E0,9.271950722E0
4.786566636E0,-1.525950074E0,4.609050274E0,8.515049934E0
4.806143901E0,-1.402050018E0,4.168050289E0,7.786950588E0
4.825721684E0,-1.048050046E0,4.092000008E0,7.557000160E0
4.845300145E0,-5.779500008E-1,4.149000168E0,7.825050354E0
4.864874367E0,-1.279500127E-1,3.967050076E0,8.524950027E0
4.884449347E0,1.009500027E-1,3.661050081E0,9.271950722E0
4.904029659E0,1.099500060E-1,3.412050247E0,9.433950424E0
4.923607573E0,1.009500027E-1,3.192000151E0,9.079950333E0
4.943194553E0,2.250000089E-1,2.895000219E0,8.668050766E0
4.962778351E0,4.260000288E-1,2.578950167E0,8.533950806E0
4.982368203E0,5.130000114E-1,2.502000093E0,8.668050766E0
5.001956736E0,3.690000176E-1,2.770050049E0,8.887950897E0
5.021542890E0,1.009500027E-1,3.085950136E0,9.013050079E0
5.041133443E0,4.950000439E-3,3.144000053E0,8.860050201E0
5.060722871E0,1.489500105E-1,2.980950117E0,8.400000572E0
5.080309328E0,3.499500155E-1,2.866050243E0,7.873050213E0
5.099896405E0,3.880500197E-1,3.019050121E0,7.557000160E0
5.119483554E0,2.250000089E-1,3.478950262E0,7.596000195E0
5.139071774E0,-4.050000105E-3,3.948000193E0,7.681950569E0
5.158653390E0,-5.205000192E-2,4.120950222E0,7.528950214E0
5.178240462E0,1.200000048E-1,4.081950188E0,7.432950497E0
5.197825939E0,3.310500085E-1,4.111050129E0,7.738950253E0
5.217414016E0,4.549500346E-1,4.234950066E0,8.496000290E0
5.237000405E0,5.509500504E-1,4.245000362E0,9.291000366E0
5.256584116E0,6.750000119E-1,4.054049969E0,9.808050156E0
5.276170968E0,8.860500455E-1,3.795000076E0,1.008600044E1
5.295755906E0,1.105949998E0,3.631950140E0,1.024800014E1
5.315346060E0,1.096950054E0,3.613050222E0,1.045905018E1
5.334935583E0,7.999500632E-1,3.805050135E0,1.090905094E1
5.354524103E0,5.509500504E-1,4.063050270E0,1.156995010E1
5.374111242E0,6.180000305E-1,4.321950436E0,1.225995064E1
5.393693395E0,8.290500641E-1,4.513050079E0,1.254705048E1
5.413281088E0,1.087050080E0,4.408050060E0,1.250895023E1
5.432868088E0,1.231050014E0,4.044000149E0,1.243200016E1
5.452454535E0,1.068000078E0,3.747000217E0,1.218300056E1
5.472036771E0,9.150000215E-1,3.498000145E0,1.165605068E1
5.491627785E0,1.078050017E0,3.172050238E0,1.090905094E1
5.511219170E0,1.327050090E0,2.971050024E0,1.015305042E1
5.530806000E0,1.317000031E0,3.037950039E0,9.520950317E0
5.550392698E0,1.125000000E0,3.124950171E0,9.013050079E0
5.569975861E0,9.430500269E-1,3.037950039E0,8.677950859E0
5.589564154E0,8.190000653E-1,2.914050102E0,8.467050552E0
5.609150843E0,7.420500517E-1,2.836950064E0,8.304000854E0
5.628737894E0,7.039500475E-1,2.799000025E0,8.151000023E0
5.648328741E0,7.230000496E-1,2.751000166E0,7.978950500E0
5.667919510E0,7.900500298E-1,2.694000244E0,7.777950287E0
5.687507217E0,8.190000653E-1,2.703000069E0,7.548000336E0
5.707093371E0,8.380500674E-1,2.788950205E0,7.336950302E0
5.726679833E0,8.959500194E-1,2.875950098E0,7.117050171E0
5.746265303E0,9.529500604E-1,2.943000078E0,6.877050400E0
5.765849380E0,9.240000248E-1,3.019050121E0,6.742950439E0
5.785437679E0,8.190000653E-1,3.192000151E0,6.829050541E0
5.805025977E0,7.230000496E-1,3.393000126E0,7.087950230E0
5.824609054E0,6.469500065E-1,3.574950218E0,7.336950302E0
5.844194829E0,5.890500546E-1,3.784950256E0,7.548000336E0
5.863778219E0,5.220000148E-1,4.015050411E0,7.786950588E0
5.883356665E0,4.549500346E-1,4.216050148E0,8.055000305E0
5.902944132E0,4.170000255E-1,4.369950294E0,8.332950592E0
5.922527737E0,4.260000288E-1,4.426949978E0,8.515049934E0
5.942110517E0,3.979500234E-1,4.408050060E0,8.592000008E0
5.961692363E0,2.920500040E-1,4.389000416E0,8.629950523E0
5.981278005E0,1.870500147E-1,4.398000240E0,8.697000504E0
6.000864159E0,1.390500069E-1,4.350000381E0,8.887950897E0
6.020452078E0,1.579500139E-1,4.216050148E0,9.310050011E0
6.040038924E0,1.770000011E-1,3.996000290E0,9.865050316E0
6.059626834E0,1.099500060E-1,3.795000076E0,1.032495022E1
6.079211141E0,-5.205000192E-2,3.690000057E0,1.066995049E1
6.098798295E0,-1.759500057E-1,3.651000261E0,1.103400040E1
6.118385377E0,-2.239500135E-1,3.661050081E0,1.136895084E1
6.137973377E0,-2.530499995E-1,3.642000198E0,1.152195072E1
6.157562540E0,-1.759500057E-1,3.487950087E0,1.150305080E1
6.177148781E0,-2.295000106E-2,3.181950092E0,1.138800049E1
6.196734612E0,1.200000048E-1,2.847000122E0,1.121595097E1
6.216321622E0,1.290000081E-1,2.559000015E0,1.101495075E1
6.235909723E0,-3.195000067E-2,2.358000040E0,1.080405045E1
6.255495262E0,-2.430000156E-1,2.224050045E0,1.057395077E1
6.275082031E0,-3.870000243E-1,2.137950182E0,1.030605030E1
6.294680382E0,-3.870000243E-1,2.119050026E0,9.952050209E0
6.314273920E0,-2.719500065E-1,2.167050123E0,9.481950760E0
6.333861305E0,-1.189500093E-1,2.215050220E0,8.935950279E0
6.353449723E0,-4.050000105E-3,2.242950201E0,8.485950470E0
6.373037093E0,5.295000225E-2,2.253000021E0,8.199000359E0
6.392626862E0,7.200000435E-2,2.242950201E0,8.094000816E0
6.412216175E0,5.295000225E-2,2.253000021E0,8.113050461E0
6.431801411E0,3.405000269E-2,2.263050079E0,8.161050797E0
6.451380492E0,4.305000231E-2,2.272050142E0,8.209050179E0
6.470963507E0,4.305000231E-2,2.272050142E0,8.247000694E0
6.490543881E0,1.390500069E-1,2.263050079E0,8.266050339E0
6.510136708E0,3.310500085E-1,2.272050142E0,8.284950256E0
6.529721953E0,4.930500090E-1,2.320050001E0,8.266050339E0
6.549316169E0,5.320500135E-1,2.482950211E0,8.131950378E0
6.568909304E0,3.880500197E-1,2.694000244E0,7.987950325E0
6.588496992E0,1.579500139E-1,2.895000219E0,8.026950836E0
6.608087775E0,-5.205000192E-2,3.172050238E0,8.247000694E0
6.627682953E0,-1.570500135E-1,3.460050106E0,8.419050217E0
6.647282338E0,-1.189500093E-1,3.613050222E0,8.447999954E0
6.666873386E0,3.405000269E-2,3.661050081E0,8.553000450E0
6.686467563E0,3.310500085E-1,3.651000261E0,8.850000381E0
6.706065342E0,6.469500065E-1,3.603000164E0,9.157050133E0
6.725658981E0,7.710000277E-1,3.594000101E0,9.280950546E0
6.745253366E0,7.330500484E-1,3.622950077E0,9.262050629E0
6.764845352E0,5.989500284E-1,3.642000198E0,9.232950211E0
6.784440183E0,4.260000288E-1,3.661050081E0,9.300000191E0
6.804034333E0,3.210000098E-1,3.709050179E0,9.481950760E0
6.823633025E0,3.310500085E-1,3.718050241E0,9.885000229E0
6.843226337E0,4.069500268E-1,3.679950237E0,1.048800087E1
6.862817660E0,5.130000114E-1,3.651000261E0,1.105305099E1
6.882406275E0,6.180000305E-1,3.651000261E0,1.136895084E1
6.902000506E0,7.710000277E-1,3.679950237E0,1.142595100E1
6.921594645E0,9.430500269E-1,3.718050241E0,1.129200077E1
6.941183236E0,1.153950095E0,3.736950159E0,1.117695045E1
6.960776067E0,1.422000051E0,3.622950077E0,1.126395035E1
6.980368457E0,1.633050084E0,3.382950068E0,1.141695023E1
6.999957924E0,1.777050138E0,3.000000238E0,1.139805031E1
7.019551221E0,1.939950109E0,2.482950211E0,1.120605087E1
7.039145640E0,1.996950150E0,2.080950022E0,1.086105061E1
7.058739174E0,1.852950096E0,1.966050148E0,1.045005035E1
7.078332717E0,1.671000123E0,2.014050007E0,1.017195034E1
7.097923703E0,1.566000104E0,2.089950085E0,9.952050209E0
7.117517933E0,1.489050031E0,2.119050026E0,9.645000458E0
7.137108625E0,1.432050109E0,2.119050026E0,9.280950546E0
7.156696391E0,1.461000085E0,2.128950119E0,8.956050873E0
7.176289209E0,1.518000126E0,2.176050186E0,8.533950806E0
7.195877223E0,1.509000063E0,2.290950060E0,7.978950500E0
7.215457824E0,1.297950029E0,2.406000137E0,7.432950497E0
7.235040978E0,8.290500641E-1,2.434950113E0,7.107000351E0
7.254614213E0,1.870500147E-1,2.406000137E0,7.098000526E0
7.274191386E0,-4.060500264E-1,2.425050020E0,7.260000229E0
7.293766208E0,-6.930000186E-1,2.454000235E0,7.414050579E0
7.313346439E0,-5.689499974E-1,2.425050020E0,7.605000496E0
7.332922738E0,-2.340000123E-1,2.310000181E0,8.017050743E0
7.352505199E0,1.500000060E-2,2.128950119E0,8.592000008E0
7.372083439E0,-4.050000105E-3,2.052000046E0,8.935950279E0
7.391666824E0,-2.620500028E-1,2.233950138E0,8.812050819E0
7.411253280E0,-5.590500236E-1,2.751000166E0,8.352000237E0
7.430838218E0,-7.990500331E-1,3.268050194E0,8.161050797E0
7.450429925E0,-8.749500513E-1,3.430950165E0,8.161050797E0
7.470020377E0,-8.460000157E-1,3.469050169E0,7.987950325E0
7.489608319E0,-9.330000281E-1,3.556050062E0,7.854000568E0
7.509198564E0,-1.153050065E0,3.651000261E0,7.834950447E0
7.528786243E0,-1.392000079E0,3.690000057E0,8.103000641E0
7.548375103E0,-1.525950074E0,3.651000261E0,8.638950348E0
7.567963103E0,-1.546050072E0,3.642000198E0,9.195000648E0
7.587549646E0,-1.459050059E0,3.709050179E0,9.741000175E0
7.607142170E0,-1.219950080E0,3.747000217E0,1.028700066E1
7.626729881E0,-9.330000281E-1,3.651000261E0,1.070805073E1
7.646317647E0,-7.789500356E-1,3.460050106E0,1.111995029E1
7.665907478E0,-9.420000315E-1,3.286950111E0,1.156995010E1
7.685493343E0,-1.249050021E0,3.153000116E0,1.201095104E1
7.705082589E0,-1.459050059E0,2.989950180E0,1.233600044E1
7.724680372E0,-1.555050015E0,2.856000185E0,1.232700062E1
7.744281603E0,-1.603050113E0,2.770050049E0,1.196295071E1
7.763883208E0,-1.603050113E0,2.655000210E0,1.151295090E1
7.783490313E0,-1.564950109E0,2.445000172E0,1.121595097E1
7.803097065E0,-1.459050059E0,2.128950119E0,1.114905071E1
7.822705915E0,-1.230000019E0,1.678050041E0,1.102395058E1
7.842309395E0,-9.520500302E-1,1.237950087E0,1.061205006E1
7.861907165E0,-7.120500207E-1,1.123050094E0,1.010505009E1
7.881504698E0,-6.550500393E-1,1.305000067E0,9.616050720E0
7.901100160E0,-7.410000563E-1,1.630950093E0,9.280950546E0
7.920690314E0,-8.560500145E-1,1.879950047E0,9.109050751E0
7.940280794E0,-7.890000343E-1,1.908000112E0,8.841000557E0
7.959872405E0,-4.729500115E-1,1.698000073E0,8.400000572E0
7.979462659E0,-6.105000153E-2,1.410000086E0,8.006999969E0
7.999054875E0,1.680000126E-1,1.237950087E0,7.777950287E0
8.018646838E0,1.390500069E-1,1.209000111E0,7.729950428E0
8.038240146E0,-6.105000153E-2,1.276050091E0,7.845000267E0
8.057837001E0,-3.580500185E-1,1.390950084E0,8.065050125E0
8.077433011E0,-6.169500351E-1,1.534950018E0,8.284950256E0
8.097026613E0,-7.320000529E-1,1.698000073E0,8.389950752E0
8.116613996E0,-6.450000405E-1,1.870050073E0,8.343000412E0
8.136207232E0,-4.350000322E-1,2.071050167E0,8.218050003E0
8.155795752E0,-2.530499995E-1,2.301000118E0,8.113050461E0
8.175383213E0,-1.759500057E-1,2.569050074E0,8.140950203E0
8.194973622E0,-1.860000044E-1,2.761050224E0,8.304000854E0
8.214563790E0,-2.140500098E-1,2.808000088E0,8.476950645E0
8.234154631E0,-2.430000156E-1,2.761050224E0,8.649000168E0
8.253745055E0,-2.809500098E-1,2.694000244E0,8.821050644E0
8.273336987E0,-2.910000086E-1,2.665050030E0,8.926950455E0
8.292930607E0,-2.340000123E-1,2.683950186E0,8.946000099E0
8.312522530E0,-1.279500127E-1,2.751000166E0,8.974950790E0
8.332114218E0,-6.105000153E-2,2.856000185E0,9.051000595E0
8.351704165E0,-5.205000192E-2,2.952000141E0,9.157050133E0
8.371293387E0,-7.995000482E-2,3.019050121E0,9.243000031E0
8.390882530E0,-5.205000192E-2,3.000000238E0,9.280950546E0
8.410470900E0,-1.305000018E-2,2.971050024E0,9.367050171E0
8.430058212E0,-4.200000316E-2,3.000000238E0,9.492000580E0
8.449641386E0,-7.995000482E-2,3.048000097E0,9.616050720E0
8.469225688E0,-3.195000067E-2,3.085950136E0,9.693000793E0
8.488810001E0,1.500000060E-2,3.172050238E0,9.741000175E0
8.508389626E0,5.295000225E-2,3.297000170E0,9.778950691E0
8.527967823E0,1.390500069E-1,3.297000170E0,9.856050491E0
8.547547419E0,2.830500007E-1,3.153000116E0,9.999000549E0
8.567125655E0,4.260000288E-1,2.971050024E0,1.021005058E1
8.586703520E0,5.220000148E-1,2.866050243E0,1.062195015E1
8.606282823E0,5.989500284E-1,2.808000088E0,1.125405025E1
8.625876342E0,8.089500666E-1,2.694000244E0,1.188600063E1
8.645477655E0,1.078050017E0,2.482950211E0,1.226895046E1
8.665074814E0,1.231050014E0,2.310000181E0,1.236495018E1
8.684663207E0,1.327050090E0,2.119050026E0,1.235505104E1
8.704250592E0,1.354950070E0,2.100000143E0,1.241295052E1
8.723832992E0,1.279050112E0,2.224050045E0,1.241295052E1
8.743426204E0,1.393950105E0,2.041949987E0,1.217295074E1
8.763013036E0,1.690950036E0,1.774050117E0,1.156995010E1
8.782593877E0,1.872000098E0,1.774050117E0,1.070805073E1
8.802171487E0,1.948950052E0,1.966050148E0,9.894000053E0
8.821759728E0,1.948950052E0,2.215050220E0,9.147000313E0
8.841343454E0,1.777050138E0,2.425050020E0,8.544000626E0
8.860921915E0,1.393950105E0,2.713050127E0,8.236949921E0
8.880502925E0,9.910500646E-1,3.019050121E0,8.035950661E0
8.900084160E0,8.290500641E-1,3.096000195E0,7.768050194E0
8.919669314E0,8.760000467E-1,2.923050165E0,7.404000282E0
8.939248473E0,9.430500269E-1,2.722050190E0,7.098000526E0
8.958828723E0,8.760000467E-1,2.722050190E0,7.011000156E0
8.978409747E0,7.710000277E-1,2.856000185E0,6.973050117E0
8.997990285E0,7.420500517E-1,2.923050165E0,6.886950493E0
9.017575285E0,7.810500264E-1,2.914050102E0,7.021050453E0
9.037156732E0,7.810500264E-1,2.856000185E0,7.414050579E0
9.056741972E0,5.599500537E-1,2.980950117E0,7.615050316E0
9.076322895E0,1.489500105E-1,3.373950243E0,7.471050262E0
9.095909433E0,-2.910000086E-1,3.699000120E0,7.279950142E0
9.115498645E0,-6.640500426E-1,3.900000095E0,7.203000546E0
9.135094871E0,-8.749500513E-1,4.101000309E0,7.144950390E0
9.154690852E0,-8.940000534E-1,4.255050182E0,7.135950565E0
9.174288404E0,-7.600500584E-1,4.312050343E0,7.404000282E0
9.193884386E0,-7.219500542E-1,4.408050060E0,7.854000568E0
9.213473919E0,-7.890000343E-1,4.522950172E0,8.544000626E0
9.233068779E0,-7.990500331E-1,4.456050396E0,9.339000702E0
9.252670044E0,-7.320000529E-1,4.389000416E0,9.673950195E0
9.272267564E0,-5.879999995E-1,4.465050220E0,9.703050613E0
9.291857073E0,-4.150500298E-1,4.599000454E0,9.741000175E0
9.311444073E0,-1.189500093E-1,4.714050293E0,9.750000000E0
9.331031770E0,2.920500040E-1,4.801050186E0,9.826950073E0
9.350612405E0,5.800500512E-1,4.876950264E0,1.011405087E1
9.370197338E0,6.850500107E-1,4.887000084E0,1.042995071E1
9.389784800E0,6.559500098E-1,4.801050186E0,1.046895027E1
9.409373641E0,5.509500504E-1,4.762050152E0,1.032495022E1
9.428956733E0,4.740000367E-1,4.743000031E0,1.030605030E1
9.448538074E0,5.220000148E-1,4.618950367E0,1.038300037E1
9.468125463E0,5.890500546E-1,4.255050182E0,1.049700069E1
9.487712160E0,4.840500355E-1,3.699000120E0,1.070805073E1
9.507298395E0,1.290000081E-1,3.133950233E0,1.089000034E1
9.526887861E0,-3.010500073E-1,2.674050093E0,1.078500080E1
9.546481097E0,-6.640500426E-1,2.445000172E0,1.042995071E1
9.566072156E0,-9.520500302E-1,2.502000093E0,1.001895046E1
9.585663598E0,-1.057050109E0,2.665050030E0,9.588000298E0
9.605252136E0,-9.330000281E-1,2.713050127E0,9.175950050E0
9.624835300E0,-7.510500550E-1,2.646000147E0,8.793000221E0
9.644423593E0,-6.259500384E-1,2.502000093E0,8.437950134E0
9.664008112E0,-5.590500236E-1,2.386950016E0,8.140950203E0
9.683596179E0,-4.830000103E-1,2.358000040E0,7.969050407E0
9.703184794E0,-4.630500078E-1,2.386950016E0,8.006999969E0
9.722772722E0,-5.500500202E-1,2.425050020E0,8.151000023E0
9.742360770E0,-7.890000343E-1,2.464050055E0,8.236949921E0
9.761954540E0,-1.057050109E0,2.502000093E0,8.151000023E0
9.781541996E0,-1.182000041E0,2.578950167E0,7.959000587E0
9.801130544E0,-1.134000063E0,2.751000166E0,7.845000267E0
9.820719790E0,-1.048050046E0,3.019050121E0,7.845000267E0
9.840313665E0,-1.018950105E0,3.297000170E0,7.921050549E0
9.859905116E0,-1.086000085E0,3.460050106E0,7.930950165E0
9.879498280E0,-1.201050043E0,3.565050125E0,7.845000267E0
9.899091265E0,-1.335000038E0,3.718050241E0,7.786950588E0
9.918682270E0,-1.450050116E0,3.939000130E0,7.873050213E0
9.938279496E0,-1.516950130E0,4.101000309E0,8.131950378E0
9.957876126E0,-1.584000111E0,4.188000202E0,8.447999954E0
9.977464433E0,-1.621950030E0,4.207050323E0,8.686950684E0
9.997052741E0,-1.584000111E0,4.207050323E0,8.841000557E0
1.001664511E1,-1.525950074E0,4.245000362E0,8.956050873E0
1.003623834E1,-1.498050094E0,4.378950119E0,9.042000771E0
1.005583374E1,-1.498050094E0,4.513050079E0,9.136950493E0
1.007542574E1,-1.488000035E0,4.609050274E0,9.348000526E0
1.009501980E1,-1.450050116E0,4.675950050E0,9.712050438E0
1.011461279E1,-1.450050116E0,4.714050293E0,1.019100094E1
1.013420439E1,-1.498050094E0,4.734000206E0,1.074600029E1
1.015379175E1,-1.516950130E0,4.705049992E0,1.124400043E1
1.017338221E1,-1.507050037E0,4.627950191E0,1.136895084E1
1.019297328E1,-1.516950130E0,4.590000153E0,1.106205082E1
1.021256322E1,-1.555050015E0,4.638000011E0,1.067895031E1
1.023215176E1,-1.564950109E0,4.666050434E0,1.054500008E1
1.025174291E1,-1.536000013E0,4.590000153E0,1.058400059E1
1.027133049E1,-1.516950130E0,4.378950119E0,1.058400059E1
1.029091766E1,-1.516950130E0,4.111050129E0,1.045005035E1
1.031050504E1,-1.498050094E0,3.891000271E0,1.018095016E1
1.033009111E1,-1.479000092E0,3.727950096E0,9.874950409E0
1.034967941E1,-1.498050094E0,3.622950077E0,9.529950142E0
1.036926621E1,-1.468950033E0,3.498000145E0,9.070050240E0
1.038885459E1,-1.363950014E0,3.364050150E0,8.533950806E0
1.040844035E1,-1.230000019E0,3.286950111E0,8.035950661E0
1.042802990E1,-1.095000029E0,3.268050194E0,7.537950516E0
1.044761881E1,-9.709500670E-1,3.277950048E0,7.117050171E0
1.046720742E1,-9.610500336E-1,3.373950243E0,6.925050259E0
1.048679328E1,-1.171950102E0,3.517050266E0,6.943950176E0
1.050637921E1,-1.450050116E0,3.546000242E0,6.868050098E0
1.052596354E1,-1.564950109E0,3.441000223E0,6.676050186E0
1.054555022E1,-1.573950052E0,3.382950068E0,6.561000347E0
1.056513799E1,-1.546050072E0,3.487950087E0,6.657000542E0
1.058472999E1,-1.584000111E0,3.718050241E0,6.954000473E0
1.060431454E1,-1.747050047E0,3.948000193E0,7.279950142E0
1.062389801E1,-1.929000139E0,4.063050270E0,7.500000477E0
1.064347951E1,-2.023950100E0,4.120950222E0,7.642950535E0
1.066306319E1,-2.014950037E0,4.255050182E0,7.882950306E0
1.068264439E1,-1.957050085E0,4.437000275E0,8.209050179E0
1.070223301E1,-1.996050119E0,4.618950367E0,8.485950470E0
1.072181646E1,-2.158950090E0,4.780950069E0,8.572050095E0
1.074141886E1,-2.340000153E0,4.954050064E0,8.515049934E0
1.076102173E1,-2.464950085E0,5.097000122E0,8.467050552E0
1.078062441E1,-2.521950006E0,5.203050137E0,8.581950188E0
1.080022449E1,-2.608950138E0,5.299050331E0,8.908050537E0
1.081982533E1,-2.733000040E0,5.356050491E0,9.385950089E0
1.083942440E1,-2.838000059E0,5.365950108E0,9.846000671E0
1.085902539E1,-2.934000254E0,5.356050491E0,1.015305042E1
1.087862349E1,-3.010950089E0,5.394000053E0,1.034400082E1
1.089822788E1,-3.078000069E0,5.404050350E0,1.037295055E1
1.091782780E1,-3.135000229E0,5.317950249E0,1.017195034E1
1.093742080E1,-3.241050243E0,5.212050438E0,9.789000511E0
1.095701456E1,-3.403950214E0,5.116950035E0,9.481950760E0
1.097661891E1,-3.604950190E0,4.954050064E0,9.339000702E0
1.099621830E1,-3.766950130E0,4.695000172E0,9.195000648E0
1.101581616E1,-3.787050247E0,4.360050201E0,8.956050873E0
1.103540548E1,-3.700050116E0,4.101000309E0,8.725950241E0
1.105499800E1,-3.652950287E0,3.976950169E0,8.572050095E0
1.107459406E1,-3.748050213E0,3.880950212E0,8.362050056E0
1.109420114E1,-3.873000145E0,3.757050276E0,8.017050743E0
1.111380074E1,-3.901950121E0,3.651000261E0,7.663050175E0
1.113339929E1,-3.814950228E0,3.594000101E0,7.366050243E0
1.115299930E1,-3.681000233E0,3.603000164E0,7.165050507E0
1.117259307E1,-3.586050272E0,3.603000164E0,6.973050117E0
1.119218383E1,-3.729000092E0,3.651000261E0,6.331050396E0
1.121178174E1,-3.892050266E0,3.622950077E0,6.178050518E0
1.123138105E1,-3.958950281E0,3.651000261E0,7.030950546E0
1.125097274E1,-4.074000359E0,3.891000271E0,7.461000443E0
1.127056660E1,-3.940050125E0,3.948000193E0,6.943950176E0
1.135994441E1,-4.945050240E0,4.321950436E0,7.500000477E0
1.137952748E1,-5.050950050E0,4.426949978E0,7.489950180E0
1.139911119E1,-5.308950424E0,4.627950191E0,7.423050404E0
1.141870069E1,-5.539050102E0,4.734000206E0,7.336950302E0
1.143829184E1,-5.596950054E0,4.762050152E0,7.366050243E0
1.145787676E1,-5.395950317E0,4.723950386E0,7.576050282E0
1.147745983E1,-4.993050098E0,4.609050274E0,7.939950466E0
1.149704046E1,-4.561950207E0,4.542000294E0,8.380949974E0
1.151661917E1,-4.102950096E0,4.590000153E0,8.707050323E0
1.153621464E1,-3.613950253E0,4.686000347E0,8.812050819E0
1.155581341E1,-3.259950161E0,4.801050186E0,8.734950066E0
1.157541454E1,-3.040050030E0,4.858050346E0,8.544000626E0
1.159501245E1,-2.857950211E0,4.828950405E0,8.362050056E0
1.161461339E1,-2.676000118E0,4.801050186E0,8.284950256E0
1.163421086E1,-2.475000143E0,4.810050011E0,8.209050179E0
1.165380723E1,-2.167950153E0,4.810050011E0,8.140950203E0
1.167340192E1,-1.756050110E0,4.695000172E0,8.065050125E0
1.169299586E1,-1.363950014E0,4.446000099E0,7.825050354E0
1.171258908E1,-1.143000007E0,4.282950401E0,7.891950607E0
1.173218653E1,-1.095000029E0,4.282950401E0,8.563050270E0
1.175178474E1,-9.330000281E-1,4.159049988E0,9.511050224E0
1.177137797E1,-4.350000322E-1,3.747000217E0,1.004700089E1
1.179097090E1,2.539499998E-1,3.124950171E0,9.798000336E0
1.181056721E1,8.089500666E-1,2.530950069E0,9.310050011E0
1.183015983E1,1.144950032E0,2.004000187E0,9.166050911E0
1.184975238E1,1.537050128E0,1.429050088E0,9.319050789E0
1.186934993E1,1.815000057E0,9.220500588E-1,9.673950195E0
1.188893832E1,1.872000098E0,5.200500488E-1,1.029600048E1
1.190852910E1,1.786050081E0,1.360500008E-1,1.170405102E1
1.192811065E1,1.087050080E0,4.995000362E-2,1.402200031E1
1.194769772E1,1.489500105E-1,3.469500244E-1,1.510395050E1
1.196728439E1,-3.679500222E-1,7.110000253E-1,1.465395069E1
1.198687146E1,-6.259500384E-1,9.510000348E-1,1.443405056E1
1.200645770E1,-5.020500422E-1,9.889500737E-1,1.429005051E1
1.202604261E1,-4.050000105E-3,1.161000013E0,1.337100029E1
1.204562507E1,4.930500090E-1,1.792950034E0,1.187700081E1
1.206519953E1,8.959500194E-1,2.434950113E0,1.051695061E1
1.208477922E1,1.048950076E0,2.683950186E0,9.492000580E0
1.210435522E1,8.190000653E-1,2.683950186E0,8.994000435E0
1.212393584E1,3.310500085E-1,2.598000050E0,9.031949997E0
1.214352290E1,-4.050000105E-3,2.482950211E0,9.262050629E0
1.216311144E1,-1.090500057E-1,2.119050026E0,9.280950546E0
1.218270252E1,-1.380000114E-1,1.639950037E0,8.812050819E0
1.220229400E1,-1.759500057E-1,1.516050100E0,8.188950539E0
1.222188347E1,-6.450000405E-1,1.755000114E0,8.035950661E0
1.224146869E1,-1.258050084E0,1.860000134E0,8.017050743E0
1.226104631E1,-1.507050037E0,1.630950093E0,7.786950588E0
1.228062939E1,-1.584000111E0,1.438950062E0,7.461000443E0
1.230020663E1,-1.813950062E0,1.563000083E0,7.251000404E0
1.231978693E1,-2.082000017E0,1.918050051E0,7.231950283E0
1.233937432E1,-2.101050138E0,2.263050079E0,6.963000298E0
1.235895985E1,-2.014950037E0,2.338950157E0,6.781950474E0
1.237854354E1,-2.551050186E0,2.233950138E0,7.251000404E0
1.239813369E1,-3.250050068E0,2.224050045E0,8.094000816E0
1.241771832E1,-3.154950142E0,2.512050152E0,8.725950241E0
1.243730963E1,-2.628000021E0,2.827950239E0,9.079950333E0
1.245689371E1,-2.331000090E0,2.836950064E0,9.339000702E0
1.247647986E1,-2.388000011E0,2.550000191E0,9.540000916E0
1.249606787E1,-2.569950104E0,2.196000099E0,1.018095016E1
1.251565217E1,-2.656950235E0,2.041949987E0,1.110105038E1
1.253523922E1,-2.589000225E0,2.128950119E0,1.158000088E1
1.255482506E1,-2.331000090E0,2.157000065E0,1.156995010E1
1.257440630E1,-2.023950100E0,1.860000134E0,1.170405102E1
1.259398930E1,-1.996050119E0,1.257000089E0,1.201995087E1
1.261356344E1,-2.197050095E0,6.060000062E-1,1.215405083E1
1.263313922E1,-2.542050123E0,1.650000066E-1,1.183800030E1
1.265272130E1,-2.770950079E0,-3.495000303E-2,1.095705032E1
1.267230192E1,-2.800050020E0,-1.020000055E-1,1.018095016E1
1.269188470E1,-2.685000181E0,-5.400000140E-2,1.023900032E1
1.271146409E1,-2.388000011E0,2.040000111E-1,1.052595043E1
1.273104838E1,-1.938000083E0,5.869500041E-1,9.885000229E0
1.275062654E1,-1.546050072E0,9.030000567E-1,8.725950241E0
1.277020162E1,-1.479000092E0,1.189950109E0,7.912050247E0
1.278978014E1,-1.564950109E0,1.495950103E0,7.231950283E0
1.280936137E1,-1.632000089E0,1.783950090E0,6.600000381E0
1.282894806E1,-1.651050091E0,2.014050007E0,6.244950294E0
1.284853359E1,-1.603050113E0,2.176050186E0,6.178050518E0
1.286811924E1,-1.450050116E0,2.272050142E0,6.274050236E0
1.288770480E1,-1.267950058E0,2.377950191E0,6.561000347E0
1.290729249E1,-1.249050021E0,2.521050215E0,6.916050434E0
1.292687990E1,-1.383000016E0,2.674050093E0,7.144950390E0
1.294646352E1,-1.584000111E0,2.827950239E0,7.279950142E0
1.296605089E1,-1.813950062E0,2.952000141E0,7.461000443E0
1.298564052E1,-1.881000042E0,3.019050121E0,7.806000233E0
1.300522759E1,-1.774950027E0,3.028950214E0,8.371050835E0
1.302481343E1,-1.765950084E0,2.980950117E0,9.109050751E0
1.304439887E1,-1.948050141E0,2.770050049E0,9.913050652E0
1.306398141E1,-2.149049997E0,2.502000093E0,1.062195015E1
1.308356472E1,-2.254050016E0,2.397000074E0,1.118700027E1
1.310314543E1,-2.311950207E0,2.569050074E0,1.158000088E1
1.312272820E1,-2.254050016E0,2.971050024E0,1.171395016E1
1.314231252E1,-1.948050141E0,3.201000214E0,1.162800026E1
1.316189429E1,-1.737000108E0,3.220050097E0,1.133100033E1
1.318147283E1,-1.612950087E0,3.172050238E0,1.101495075E1
1.320105158E1,-1.392000079E0,3.000000238E0,1.079400063E1
1.322063343E1,-1.230000019E0,2.808000088E0,1.059300041E1
1.324022633E1,-1.086000085E0,2.665050030E0,1.055505085E1
1.325981065E1,-9.229500294E-1,2.550000191E0,1.064100075E1
1.327939034E1,-6.930000186E-1,2.368050098E0,1.065105057E1
1.329897157E1,-4.920000136E-1,2.061000109E0,1.062195015E1
1.331854780E1,-3.960000277E-1,1.822050095E0,1.057395077E1
1.333812165E1,-3.010500073E-1,1.707000136E0,1.029600048E1
1.335769274E1,-2.809500098E-1,1.659000039E0,9.682950020E0
1.337726974E1,-4.060500264E-1,1.687950134E0,9.013050079E0
1.339684874E1,-5.689499974E-1,1.639950037E0,8.601000786E0
1.341642535E1,-6.930000186E-1,1.543950081E0,8.371050835E0
1.343600413E1,-6.840000153E-1,1.449000120E0,8.055000305E0
1.345557859E1,-5.970000029E-1,1.458000064E0,7.786950588E0
1.347515652E1,-4.249500334E-1,1.687950134E0,7.605000496E0
1.349473096E1,-7.995000482E-2,1.936950088E0,7.423050404E0
1.351431004E1,1.489500105E-1,2.137950182E0,7.318050385E0
1.353389372E1,1.500000060E-2,2.386950016E0,7.270050526E0
1.355347680E1,-3.769500256E-1,2.751000166E0,7.288950443E0
1.357305392E1,-7.890000343E-1,3.153000116E0,7.404000282E0
1.359263277E1,-8.749500513E-1,3.450000048E0,7.701000214E0
1.361221546E1,-6.259500384E-1,3.727950096E0,8.074049950E0
1.363179792E1,-4.350000322E-1,3.985950232E0,8.314050674E0
1.365137794E1,-4.150500298E-1,4.081950188E0,8.649000168E0
1.367095524E1,-5.500500202E-1,4.168050289E0,9.262050629E0
1.369053895E1,-9.130500555E-1,4.330950260E0,9.922950745E0
1.371011826E1,-1.276950002E0,4.369950294E0,1.040205002E1
1.372969894E1,-1.459050059E0,4.303050041E0,1.059300041E1
1.374927892E1,-1.431000113E0,4.245000362E0,1.067895031E1
1.376886192E1,-1.431000113E0,4.225950241E0,1.090005016E1
1.378844261E1,-1.669950128E0,4.312050343E0,1.113900089E1
1.380801584E1,-1.842000127E0,4.398000240E0,1.109100056E1
1.382758838E1,-1.765950084E0,4.408050060E0,1.073700047E1
1.384715984E1,-1.498050094E0,4.293000221E0,1.022895050E1
1.386673494E1,-1.114950061E0,3.985950232E0,9.741000175E0
1.388631155E1,-7.789500356E-1,3.556050062E0,9.385950089E0
1.390589218E1,-5.500500202E-1,3.172050238E0,9.109050751E0
1.392546874E1,-4.729500115E-1,3.000000238E0,8.686950684E0
1.394504418E1,-4.440000355E-1,2.971050024E0,8.151000023E0
1.396461989E1,-4.729500115E-1,2.980950117E0,7.768050194E0
1.398419734E1,-7.120500207E-1,3.153000116E0,7.701000214E0
1.400377120E1,-8.179500103E-1,2.980950117E0,8.428950310E0
1.402334749E1,-5.590500236E-1,2.119050026E0,9.721950531E0
1.404292319E1,-5.400000215E-1,1.525050044E0,9.865050316E0
1.406249651E1,-7.789500356E-1,1.554000020E0,9.205050468E0
1.408207368E1,-1.018950105E0,1.774050117E0,9.051000595E0
1.410164876E1,-1.230000019E0,2.128950119E0,9.022950172E0
1.412122021E1,-1.191000104E0,2.473050117E0,8.802000046E0
1.414079183E1,-1.009050012E0,2.646000147E0,8.524950027E0
1.416036722E1,-8.179500103E-1,2.646000147E0,8.389950752E0
1.417994630E1,-6.840000153E-1,2.626950026E0,8.380949974E0
1.419952198E1,-6.739500165E-1,2.703000069E0,8.304000854E0
1.421909466E1,-6.070500016E-1,2.740950108E0,8.199000359E0
1.423866971E1,-3.769500256E-1,2.665050030E0,8.151000023E0
1.425823682E1,3.405000269E-2,2.569050074E0,8.275950432E0
1.427781190E1,5.410500169E-1,2.587950230E0,8.572050095E0
1.429738576E1,1.096950054E0,2.569050074E0,8.965050697E0
1.431695682E1,1.555950046E0,2.301000118E0,9.280950546E0
1.433653405E1,1.777050138E0,1.851000071E0,9.415050507E0
1.435610965E1,1.603950024E0,1.554000020E0,9.444000244E0
1.437568627E1,1.096950054E0,1.591950059E0,9.673950195E0
1.439526542E1,5.800500512E-1,1.879950047E0,1.069905090E1
1.441484910E1,3.400500119E-1,2.185950041E0,1.192395020E1
1.443443149E1,6.270000339E-1,2.196000099E0,1.242195034E1
1.445401488E1,1.144950032E0,1.947000146E0,1.262400055E1
1.447359424E1,1.317000031E0,1.765050054E0,1.294905090E1
1.449317260E1,1.116000056E0,1.650000095E0,1.321695042E1
1.451275784E1,9.720000625E-1,1.506000042E0,1.333200073E1
1.453234224E1,1.153950095E0,1.390950084E0,1.319805050E1
1.455192040E1,1.546950102E0,1.246950030E0,1.270995045E1
1.457150284E1,1.815000057E0,1.113000035E0,1.189605045E1
1.459108468E1,1.852950096E0,9.979500771E-1,1.090905094E1
1.461066436E1,1.758000135E0,8.070000410E-1,9.961050034E0
1.463024274E1,1.498950124E0,6.540000439E-1,9.339000702E0
1.464982374E1,1.153950095E0,7.489500642E-1,9.136950493E0
1.466940305E1,9.240000248E-1,8.830500245E-1,9.090000153E0
1.468897851E1,1.011000037E0,8.550000191E-1,8.725950241E0
1.470855506E1,1.173000097E0,7.399500608E-1,8.179950714E0
1.472813329E1,1.087050080E0,7.300500274E-1,7.777950287E0
1.474770982E1,7.420500517E-1,8.640000224E-1,7.461000443E0
1.476728858E1,3.589500189E-1,1.036949992E0,7.231950283E0
1.478686223E1,7.200000435E-2,1.267050028E0,7.174050331E0
1.480643884E1,-7.995000482E-2,1.602000117E0,7.203000546E0
1.482601393E1,-9.000000358E-2,1.860000134E0,7.203000546E0
1.484558346E1,1.099500060E-1,1.984950066E0,7.375050545E0
1.486515984E1,3.880500197E-1,2.032950163E0,7.854000568E0
1.488473400E1,5.130000114E-1,2.089950085E0,8.467050552E0
1.490430908E1,3.979500234E-1,2.167050123E0,9.022950172E0
1.492388664E1,1.489500105E-1,2.253000021E0,9.358050346E0
1.494346718E1,1.500000060E-2,2.386950016E0,9.520950317E0
1.496304143E1,8.205000311E-2,2.539950132E0,9.721950531E0
1.498261305E1,1.390500069E-1,2.731950045E0,1.020105076E1
1.500218297E1,-4.050000105E-3,3.028950214E0,1.068900013E1
1.502176044E1,-1.950000077E-1,3.229950190E0,1.078500080E1
1.504133620E1,-1.279500127E-1,3.105000257E0,1.052595043E1
1.506091182E1,2.920500040E-1,2.847000122E0,1.000905037E1
1.508048568E1,1.000950098E0,2.550000191E0,9.597000122E0
1.510006083E1,1.633050084E0,2.253000021E0,9.588000298E0
1.511963868E1,1.843950033E0,2.089950085E0,9.817050934E0
1.513920916E1,1.767000079E0,1.899000049E0,1.025805092E1
1.515877801E1,1.345950007E0,1.755000114E0,1.093800068E1
1.517834885E1,5.890500546E-1,1.803000093E0,1.155105019E1
1.519792015E1,-1.279500127E-1,1.735950112E0,1.177095032E1
1.521749829E1,-5.299500227E-1,1.458000064E0,1.184805012E1
1.523707058E1,-7.510500550E-1,1.285950065E0,1.210605049E1
1.525664535E1,-1.066950083E0,1.353000045E0,1.213500023E1
1.527622419E1,-1.297050118E0,1.324050069E0,1.139805031E1
1.529579520E1,-1.267950058E0,1.180050015E0,1.031505013E1
1.531536690E1,-1.086000085E0,1.141950011E0,9.682950020E0
1.533494205E1,-9.130500555E-1,1.228050113E0,9.472949982E0
1.535451397E1,-7.890000343E-1,1.305000067E0,9.195000648E0
1.537408850E1,-7.030500174E-1,1.285950065E0,8.572050095E0
1.539366473E1,-7.410000563E-1,1.285950065E0,7.786950588E0
1.541323396E1,-8.460000157E-1,1.333950043E0,7.192950249E0
1.543280512E1,-9.330000281E-1,1.438950062E0,6.877050400E0
1.545237803E1,-1.027950048E0,1.554000020E0,6.838950157E0
1.547194658E1,-1.086000085E0,1.516050100E0,6.954000473E0
1.549151798E1,-1.114950061E0,1.429050088E0,6.954000473E0
1.551108515E1,-1.249050021E0,1.516050100E0,6.973050117E0
1.553065554E1,-1.411050081E0,1.755000114E0,7.203000546E0
1.555023222E1,-1.468950033E0,1.947000146E0,7.548000336E0
1.556981062E1,-1.392000079E0,2.061000109E0,7.978950500E0
1.558938484E1,-1.239000082E0,2.128950119E0,8.505000114E0
1.560896114E1,-1.114950061E0,2.185950041E0,9.051000595E0
1.562854260E1,-9.709500670E-1,2.215050220E0,9.597000122E0
1.564811644E1,-7.320000529E-1,2.157000065E0,9.979950905E0
1.566768851E1,-4.540500343E-1,2.004000187E0,1.010505009E1
1.568725959E1,-3.480000198E-1,1.870050073E0,1.014300060E1
1.570683827E1,-4.729500115E-1,1.765050054E0,1.040205002E1
1.572641065E1,-7.600500584E-1,1.669050097E0,1.086105061E1
1.574598603E1,-1.171950102E0,1.735950112E0,1.117695045E1
1.576555611E1,-1.525950074E0,1.993950129E0,1.140705013E1
1.578513898E1,-1.564950109E0,2.281949997E0,1.175205040E1
1.580471652E1,-1.075950027E0,2.425050020E0,1.235505104E1
1.582429027E1,-1.660500020E-1,2.338950157E0,1.300695038E1
1.584386688E1,6.469500065E-1,2.080950022E0,1.318905067E1
1.586344112E1,8.670000434E-1,1.840950131E0,1.294005108E1
1.588302051E1,6.270000339E-1,1.812000036E0,1.243200016E1
1.590260287E1,4.650000334E-1,1.899000049E0,1.161795044E1
1.592218048E1,5.130000114E-1,2.052000046E0,1.051695061E1
1.594175703E1,5.989500284E-1,2.253000021E0,9.444000244E0
1.596133580E1,5.989500284E-1,2.464050055E0,8.707050323E0
1.598091587E1,5.509500504E-1,2.550000191E0,8.304000854E0
1.600049949E1,5.410500169E-1,2.530950069E0,8.026950836E0
1.602007803E1,5.890500546E-1,2.434950113E0,7.710000515E0
1.603965672E1,5.890500546E-1,2.338950157E0,7.366050243E0
1.605923588E1,4.650000334E-1,2.272050142E0,7.135950565E0
1.607881794E1,2.639999986E-1,2.215050220E0,7.117050171E0
1.609839640E1,1.099500060E-1,2.185950041E0,7.240950108E0
1.611797299E1,7.200000435E-2,2.205000162E0,7.509000301E0
1.613754498E1,2.059500068E-1,2.253000021E0,7.882950306E0
1.615712036E1,3.310500085E-1,2.358000040E0,8.256000519E0
1.617670096E1,2.250000089E-1,2.635950089E0,8.649000168E0
1.619628167E1,-4.200000316E-2,3.067050219E0,9.109050751E0
1.621586630E1,-2.340000123E-1,3.412050247E0,9.454050064E0
1.623545646E1,-2.530499995E-1,3.622950077E0,9.520950317E0
1.625504446E1,-1.570500135E-1,3.843000174E0,9.481950760E0
1.627463363E1,-9.000000358E-2,4.033950329E0,9.540000916E0
1.629422685E1,-1.090500057E-1,4.081950188E0,9.769950867E0
1.631381763E1,-2.340000123E-1,4.054049969E0,9.990000725E0
1.633340448E1,-5.879999995E-1,4.120950222E0,1.015305042E1
1.635299463E1,-1.095000029E0,4.341000080E0,1.036305046E1
1.637257680E1,-1.450050116E0,4.483950138E0,1.066995049E1
1.639216134E1,-1.420950055E0,4.341000080E0,1.105305099E1
1.641174880E1,-1.048050046E0,3.891000271E0,1.143600082E1
1.643133651E1,-5.779500008E-1,3.334950209E0,1.139805031E1
1.645093005E1,-3.289500177E-1,2.895000219E0,1.076595020E1
1.647052114E1,-3.199500144E-1,2.665050030E0,9.885000229E0
1.649011468E1,-2.340000123E-1,2.569050074E0,9.184950829E0
1.650970262E1,7.200000435E-2,2.521050215E0,8.946000099E0
1.652928763E1,4.069500268E-1,2.434950113E0,9.042000771E0
1.654886116E1,5.800500512E-1,2.233950138E0,9.118050575E0
1.656843185E1,5.800500512E-1,1.936950088E0,9.022950172E0
1.658800724E1,5.220000148E-1,1.707000136E0,8.850000381E0
1.660758055E1,5.509500504E-1,1.611000061E0,8.572050095E0
1.662715494E1,7.039500475E-1,1.534950018E0,8.094000816E0
1.664673004E1,7.810500264E-1,1.506000042E0,7.642950535E0
1.666630175E1,6.850500107E-1,1.591950059E0,7.336950302E0
1.668587128E1,4.840500355E-1,1.717050076E0,7.087950230E0
1.670544696E1,3.310500085E-1,1.822050095E0,6.925050259E0
1.672502145E1,2.730000019E-1,1.947000146E0,6.895950317E0
1.674459682E1,2.920500040E-1,2.080950022E0,7.059000492E0
1.676416920E1,2.639999986E-1,2.196000099E0,7.461000443E0
1.678374519E1,1.099500060E-1,2.301000118E0,8.179950714E0
1.680332334E1,-9.000000358E-2,2.397000074E0,9.136950493E0
1.682289620E1,-1.570500135E-1,2.425050020E0,9.970950127E0
1.684247710E1,1.500000060E-2,2.377950191E0,1.052595043E1
1.686205370E1,3.019500077E-1,2.301000118E0,1.096695042E1
1.688162363E1,5.320500135E-1,2.233950138E0,1.135005093E1
1.690119994E1,4.740000367E-1,2.233950138E0,1.161795044E1
1.692077647E1,1.770000011E-1,2.320050001E0,1.173300076E1
1.694035102E1,-5.205000192E-2,2.482950211E0,1.172295094E1
1.695993162E1,1.009500027E-1,2.703000069E0,1.176195049E1
1.697950754E1,6.660000086E-1,2.866050243E0,1.203900051E1
1.699908813E1,1.269000053E0,2.932950258E0,1.213500023E1
1.701866351E1,1.603950024E0,2.808000088E0,1.156995010E1
1.703824113E1,1.719000101E0,2.559000015E0,1.075605011E1
1.705781796E1,1.719000101E0,2.386950016E0,1.025805092E1
1.707739372E1,1.585050106E0,2.406000137E0,1.026795006E1
1.709697495E1,1.384050012E0,2.445000172E0,1.042095089E1
1.711655218E1,1.327050090E0,2.338950157E0,1.005705070E1
1.713612962E1,1.393950105E0,2.205000162E0,9.300000191E0
1.715570963E1,1.317000031E0,2.185950041E0,8.572050095E0
1.717528501E1,9.630000591E-1,2.233950138E0,7.912050247E0
1.719485915E1,5.320500135E-1,2.301000118E0,7.548000336E0
1.721443523E1,3.979500234E-1,2.263050079E0,7.489950180E0
1.723401154E1,6.940500140E-1,1.984950066E0,7.260000229E0
1.725359059E1,1.048950076E0,1.831950068E0,6.772050381E0
1.727316868E1,1.087050080E0,2.041949987E0,6.513000488E0
1.729274414E1,8.190000653E-1,2.491950035E0,6.694950104E0
1.731231953E1,5.220000148E-1,2.962050200E0,7.308000565E0
1.733189582E1,4.360500276E-1,3.220050097E0,8.113050461E0
1.735147827E1,5.599500537E-1,3.268050194E0,8.686950684E0
1.737106350E1,6.750000119E-1,3.393000126E0,8.887950897E0
1.739065327E1,6.469500065E-1,3.775950193E0,8.887950897E0
1.741024620E1,4.069500268E-1,4.188000202E0,8.946000099E0
1.742983419E1,5.295000225E-2,4.369950294E0,9.184950829E0
1.744942165E1,-3.010500073E-1,4.303050041E0,9.568050385E0
1.746900403E1,-5.879999995E-1,4.101000309E0,1.020105076E1
1.748859056E1,-7.219500542E-1,3.823950291E0,1.093800068E1
1.750817695E1,-6.550500393E-1,3.460050106E0,1.147395039E1
1.752776258E1,-5.110500455E-1,3.076950073E0,1.172295094E1
1.754734464E1,-3.769500256E-1,2.779950142E0,1.177095032E1
1.756691295E1,-2.340000123E-1,2.569050074E0,1.171395016E1
1.758648809E1,-3.195000067E-2,2.406000137E0,1.163700008E1
1.760606163E1,2.350500077E-1,2.310000181E0,1.156995010E1
1.762564030E1,4.069500268E-1,2.301000118E0,1.120605087E1
1.764522255E1,4.650000334E-1,2.310000181E0,1.032495022E1
1.766480194E1,3.880500197E-1,2.281949997E0,9.223950386E0
1.768438282E1,3.979500234E-1,2.071050167E0,8.812050819E0
1.770395819E1,5.800500512E-1,1.899000049E0,9.175950050E0
1.772353182E1,5.220000148E-1,2.041949987E0,9.358050346E0
1.774310528E1,3.780000210E-1,2.137950182E0,9.051000595E0
1.776267820E1,5.130000114E-1,1.918050051E0,8.400000572E0
1.778225359E1,8.569500446E-1,1.602000117E0,7.854000568E0
1.780182959E1,1.039050102E0,1.650000095E0,7.891950607E0
1.782140629E1,7.710000277E-1,2.176050186E0,8.343000412E0
1.784097921E1,4.069500268E-1,2.655000210E0,8.572050095E0
1.786055273E1,3.690000176E-1,2.779950142E0,8.256000519E0
1.788012350E1,4.650000334E-1,2.875950098E0,7.537950516E0
1.789969765E1,3.880500197E-1,3.181950092E0,6.916050434E0
1.791927359E1,2.440500110E-1,3.469050169E0,6.810000420E0
1.793884659E1,1.770000011E-1,3.583950281E0,7.144950390E0
1.795842376E1,6.195000187E-2,3.651000261E0,7.596000195E0
1.797799423E1,-1.469999999E-1,3.766050100E0,8.209050179E0
1.799756500E1,-2.809500098E-1,3.832950115E0,8.965050697E0
1.801713800E1,-2.140500098E-1,3.852000237E0,9.559050560E0
1.803671124E1,-1.090500057E-1,3.880950212E0,9.894000053E0
1.805628807E1,-1.189500093E-1,3.891000271E0,1.017195034E1
1.807586501E1,-1.469999999E-1,3.891000271E0,1.035405064E1
1.809544448E1,-1.189500093E-1,3.871950150E0,1.029600048E1
1.811502233E1,-9.900000691E-2,3.900000095E0,1.011405087E1
1.813459792E1,-1.570500135E-1,3.910050154E0,9.979950905E0
1.815417517E1,-3.480000198E-1,3.823950291E0,1.021005058E1
1.817375365E1,-4.920000136E-1,3.736950159E0,1.105305099E1
1.819333343E1,-3.199500144E-1,3.508050203E0,1.227900028E1
1.821291182E1,2.059500068E-1,3.010050058E0,1.321695042E1
1.823249126E1,8.190000653E-1,2.559000015E0,1.339005089E1
1.825207342E1,1.297950029E0,2.386950016E0,1.264305019E1
1.827165211E1,1.576050043E0,2.349000216E0,1.136895084E1
1.829123033E1,1.537050128E0,2.445000172E0,1.016205025E1
1.831080972E1,1.144950032E0,2.751000166E0,9.243000031E0
1.833039669E1,6.180000305E-1,2.866050243E0,8.467050552E0
1.834997948E1,2.440500110E-1,2.635950089E0,7.777950287E0
1.836956048E1,1.200000048E-1,2.502000093E0,7.432950497E0
1.838914664E1,-3.195000067E-2,2.607000113E0,7.384950161E0
1.840873034E1,-3.870000243E-1,2.818050146E0,7.480950356E0
1.842831334E1,-6.930000186E-1,2.914050102E0,7.528950214E0
1.844789457E1,-8.179500103E-1,2.875950098E0,7.203000546E0
1.846747734E1,-7.789500356E-1,2.799000025E0,6.790950298E0
1.848706099E1,-5.590500236E-1,2.761050224E0,6.694950104E0
1.850664321E1,-2.239500135E-1,2.731950045E0,6.849000454E0
1.852622404E1,2.400000021E-2,2.856000185E0,7.098000526E0
1.854580166E1,9.105000645E-2,3.201000214E0,7.471050262E0
1.856537974E1,1.500000060E-2,3.556050062E0,7.959000587E0
1.858496220E1,-1.279500127E-1,3.718050241E0,8.447999954E0
1.860453920E1,-2.809500098E-1,3.718050241E0,8.983950615E0
1.862411704E1,-4.540500343E-1,3.747000217E0,9.529950142E0
1.864369421E1,-6.739500165E-1,3.880950212E0,9.894000053E0
1.866326903E1,-7.890000343E-1,4.033950329E0,9.942000389E0
1.868284989E1,-6.739500165E-1,4.024950027E0,9.703050613E0
1.870243426E1,-4.350000322E-1,3.928950071E0,9.501000404E0
1.872202309E1,-2.239500135E-1,3.852000237E0,9.549000740E0
1.874160808E1,-6.105000153E-2,3.852000237E0,9.789000511E0
1.876118409E1,1.099500060E-1,3.919050217E0,1.013400078E1
1.878075570E1,2.059500068E-1,3.862050295E0,1.045005035E1
1.880032778E1,6.195000187E-2,3.526950121E0,1.064100075E1
1.881990412E1,-2.239500135E-1,2.980950117E0,1.072695065E1
1.883948444E1,-5.299500227E-1,2.397000074E0,1.077495098E1
1.885905799E1,-8.370000124E-1,1.918050051E0,1.095705032E1
1.887863832E1,-1.057050109E0,1.687950134E0,1.137900066E1
1.889822108E1,-1.123950005E0,1.630950093E0,1.176195049E1
1.891780538E1,-1.114950061E0,1.650000095E0,1.174200058E1
1.893738348E1,-1.153050065E0,1.765050054E0,1.127295017E1
1.895696417E1,-1.239000082E0,1.899000049E0,1.057395077E1
1.897654816E1,-1.306050062E0,1.956000090E0,9.922950745E0
1.899613331E1,-1.276950002E0,1.936950088E0,9.271950722E0
1.901571515E1,-1.066950083E0,1.908000112E0,8.544000626E0
1.903530070E1,-8.179500103E-1,1.888950109E0,7.987950325E0
1.905488170E1,-6.550500393E-1,1.918050051E0,7.738950253E0
1.907446169E1,-4.630500078E-1,1.984950066E0,7.701000214E0
1.909404101E1,-2.430000156E-1,1.947000146E0,7.701000214E0
1.911361494E1,-1.279500127E-1,1.860000134E0,7.653000355E0
1.913319337E1,-1.950000077E-1,1.888950109E0,7.749000549E0
1.915277423E1,-3.580500185E-1,2.023050070E0,7.950000286E0
1.917235668E1,-4.630500078E-1,2.157000065E0,8.046000481E0
1.919194436E1,-4.540500343E-1,2.242950201E0,7.987950325E0
1.921152629E1,-4.350000322E-1,2.310000181E0,7.930950165E0
1.923110776E1,-4.920000136E-1,2.406000137E0,8.083950043E0
1.925068714E1,-5.110500455E-1,2.473050117E0,8.447999954E0
1.927026499E1,-3.480000198E-1,2.454000235E0,8.887950897E0
1.928984475E1,-1.279500127E-1,2.416050196E0,9.406050682E0
1.930942291E1,-1.279500127E-1,2.569050074E0,9.894000053E0
1.932900752E1,-3.480000198E-1,2.827950239E0,1.033500004E1
1.934859059E1,-6.169500351E-1,2.836950064E0,1.098600006E1
1.936816998E1,-7.990500331E-1,2.655000210E0,1.153200054E1
1.938774970E1,-7.699500322E-1,2.530950069E0,1.174200058E1
1.940733116E1,-6.550500393E-1,2.683950186E0,1.173300076E1
1.942690684E1,-7.789500356E-1,3.133950233E0,1.165605068E1
1.944648754E1,-1.249050021E0,3.574950218E0,1.199100018E1
1.946607237E1,-1.822950125E0,3.670050144E0,1.257600021E1
1.948565860E1,-2.149049997E0,3.469050169E0,1.277700043E1
1.950523577E1,-2.110949993E0,3.172050238E0,1.251795101E1
1.952481668E1,-1.900050044E0,2.932950258E0,1.186695099E1
1.954439667E1,-1.689000130E0,2.847000122E0,1.084200096E1
1.956398320E1,-1.651050091E0,2.895000219E0,9.741000175E0
1.958356966E1,-1.603050113E0,3.076950073E0,8.878950119E0
1.960314782E1,-1.363950014E0,3.421050072E0,8.428950310E0
1.962273245E1,-1.057050109E0,3.736950159E0,8.295000076E0
1.964231337E1,-8.179500103E-1,3.795000076E0,8.131950378E0
1.966189276E1,-7.789500356E-1,3.613050222E0,7.845000267E0
1.968147144E1,-8.940000534E-1,3.478950262E0,7.452000141E0
1.970105613E1,-1.000050068E0,3.565050125E0,7.011000156E0
1.972063638E1,-1.009050012E0,3.709050179E0,6.724050522E0
1.974021308E1,-9.709500670E-1,3.736950159E0,6.532950401E0
1.975979576E1,-9.900000691E-1,3.690000057E0,6.370050430E0
1.977937362E1,-1.219950080E0,3.670050144E0,6.351000309E0
1.979895678E1,-1.651050091E0,3.814050198E0,6.513000488E0
1.981853610E1,-2.023950100E0,4.044000149E0,6.676050186E0
1.983811486E1,-2.178000212E0,4.225950241E0,6.694950104E0
1.985769610E1,-2.293050051E0,4.408050060E0,6.646950245E0
1.987727732E1,-2.484000206E0,4.579950333E0,6.667050362E0
1.989685740E1,-2.713950157E0,4.723950386E0,6.838950157E0
1.991644134E1,-3.097050190E0,4.887000084E0,7.192950249E0
1.993602788E1,-3.729000092E0,5.050050259E0,7.681950569E0
1.995560440E1,-4.351950169E0,5.164050102E0,8.266050339E0
1.997518286E1,-4.657950401E0,5.193000317E0,8.860050201E0
1.999475947E1,-4.677000046E0,5.173950195E0,9.319050789E0
2.001433917E1,-4.639050007E0,5.241000175E0,9.577950478E0
2.003391763E1,-4.735050201E0,5.356050491E0,9.540000916E0
2.005349553E1,-4.821000099E0,5.365950108E0,9.262050629E0
2.007307245E1,-4.762950420E0,5.365950108E0,9.022950172E0
2.009264753E1,-4.639050007E0,5.394000053E0,8.994000435E0
2.011222446E1,-4.543050289E0,5.317950249E0,8.974950790E0
2.013180105E1,-4.476000309E0,5.136000156E0,8.754000664E0
2.015137858E1,-4.456950188E0,4.954050064E0,8.362050056E0
2.017095952E1,-4.552950382E0,4.791000366E0,8.046000481E0
2.019053738E1,-4.783050060E0,4.609050274E0,7.873050213E0
2.021011368E1,-5.041050434E0,4.446000099E0,7.720050335E0
2.022969332E1,-5.242050171E0,4.330950260E0,7.519050121E0
2.024927612E1,-5.281050205E0,4.140000343E0,7.270050526E0
2.026886382E1,-5.107950211E0,3.910050154E0,6.954000473E0
2.028844621E1,-4.801950455E0,3.757050276E0,6.589950085E0
2.030802969E1,-4.561950207E0,3.709050179E0,6.235950470E0
2.032760714E1,-4.552950382E0,3.795000076E0,6.015000343E0
2.034718414E1,-4.716000080E0,3.891000271E0,5.977050304E0
2.036676783E1,-4.906949997E0,3.862050295E0,6.006000519E0
2.038634875E1,-5.022000313E0,3.775950193E0,5.899950504E0
2.040593053E1,-5.137050152E0,3.891000271E0,5.143950462E0
2.042550936E1,-4.993050098E0,3.958050251E0,4.617000103E0
2.044509021E1,-4.831050396E0,3.928950071E0,5.191950321E0
2.046467236E1,-5.011950016E0,4.101000309E0,5.872050285E0
2.048425461E1,-5.127000332E0,4.188000202E0,5.766000271E0
2.050383269E1,-5.098950386E0,4.225950241E0,4.951950073E0
2.052341146E1,-4.945050240E0,4.293000221E0,4.483050346E0
2.058608141E1,-3.490050077E0,4.848000050E0,7.930950165E0
2.060566939E1,-3.432000160E0,4.887000084E0,7.777950287E0
2.062525363E1,-3.412950277E0,4.983000278E0,7.404000282E0
2.064483735E1,-3.565950155E0,5.088000298E0,7.069050312E0
2.066442080E1,-3.739050150E0,5.097000122E0,7.087950230E0
2.068400576E1,-3.661950111E0,5.011050224E0,7.605000496E0
2.070359586E1,-3.364950180E0,4.915050030E0,8.371050835E0
2.072317892E1,-3.001050234E0,4.714050293E0,9.022950172E0
2.074276578E1,-2.617950201E0,4.426949978E0,9.511050224E0
2.076235155E1,-2.235000134E0,4.225950241E0,9.942000389E0
2.078193656E1,-1.870950103E0,4.120950222E0,1.019100094E1
2.080152302E1,-1.420950055E0,4.092000008E0,1.016205025E1
2.082110599E1,-9.610500336E-1,4.149000168E0,9.970950127E0
2.084069647E1,-6.169500351E-1,4.225950241E0,9.682950020E0
2.086028878E1,-3.769500256E-1,4.264050007E0,9.358050346E0
2.087988108E1,-2.620500028E-1,4.321950436E0,8.994000435E0
2.089947399E1,-1.090500057E-1,4.321950436E0,8.754000664E0
2.091906389E1,2.160000056E-1,4.111050129E0,8.686950684E0
2.093865220E1,5.800500512E-1,3.843000174E0,8.505000114E0
2.095824629E1,1.020000100E0,3.526950121E0,8.170050621E0
2.097783491E1,1.585050106E0,3.010050058E0,7.816050529E0
2.099742753E1,2.236050129E0,2.281949997E0,7.615050316E0
2.101701836E1,2.916000128E0,1.486950040E0,7.864050388E0
2.103660453E1,3.462000132E0,8.740500212E-1,8.745000839E0
2.105619253E1,3.702000141E0,6.250500083E-1,9.636000633E0
2.107577961E1,3.558000088E0,6.340500116E-1,9.846000671E0
2.109536638E1,3.060000181E0,6.250500083E-1,9.808050156E0
2.111495408E1,2.466000080E0,5.100000501E-1,1.022895050E1
2.113454383E1,1.930050135E0,2.320500165E-1,1.079400063E1
2.115413370E1,1.393950105E0,-2.359500080E-1,1.093800068E1
2.117372146E1,7.810500264E-1,-7.819500566E-1,1.074600029E1
2.119331582E1,9.105000645E-2,-1.194000006E0,1.055505085E1
2.121290629E1,-3.870000243E-1,-1.491000056E0,1.059300041E1
2.123249644E1,-4.830000103E-1,-1.788000107E0,1.111005020E1
2.125208483E1,-5.020500422E-1,-1.960050106E0,1.224000072E1
2.127167744E1,-6.360000372E-1,-1.902000070E0,1.330395031E1
2.129126997E1,-5.299500227E-1,-1.921950102E0,1.346595097E1
2.131087158E1,-2.295000106E-2,-2.083950043E0,1.291095066E1
2.133046875E1,3.979500234E-1,-1.989000082E0,1.243200016E1
2.135006196E1,4.740000367E-1,-1.663050056E0,1.227900028E1
2.136966044E1,3.589500189E-1,-1.462050080E0,1.213500023E1
2.138925680E1,2.250000089E-1,-1.395000100E0,1.177095032E1
2.140885767E1,1.099500060E-1,-1.290000081E0,1.113000011E1
2.142846199E1,-2.295000106E-2,-9.930000305E-1,1.033500004E1
2.144806146E1,-1.759500057E-1,-5.430000424E-1,9.577950478E0
2.146766269E1,-3.390000165E-1,-1.605000161E-2,8.908050537E0
2.148725776E1,-5.110500455E-1,4.810500145E-1,8.266050339E0
2.150685585E1,-5.779500008E-1,8.260500431E-1,7.729950428E0
2.152645192E1,-4.630500078E-1,1.065000057E0,7.308000565E0
2.154605254E1,-1.759500057E-1,1.246950030E0,7.030950546E0
2.156565275E1,1.770000011E-1,1.410000086E0,7.011000156E0
2.158524444E1,4.930500090E-1,1.516050100E0,7.336950302E0
2.160484198E1,8.190000653E-1,1.458000064E0,7.729950428E0
2.162443467E1,1.116000056E0,1.333950043E0,7.777950287E0
2.164402504E1,1.125000000E0,1.372050047E0,7.738950253E0
2.166360944E1,7.140000463E-1,1.621050119E0,8.026950836E0
2.168319582E1,2.440500110E-1,1.831950068E0,8.553000450E0
2.170278022E1,8.205000311E-2,1.831950068E0,8.965050697E0
2.172235888E1,1.579500139E-1,1.822050095E0,9.090000153E0
2.174193680E1,1.960500032E-1,1.966050148E0,9.090000153E0
2.176152387E1,1.290000081E-1,2.224050045E0,9.098999977E0
2.178111793E1,1.500000060E-2,2.512050152E0,9.157050133E0
2.180071092E1,-9.000000358E-2,2.674050093E0,9.291000366E0
2.182030754E1,-1.860000044E-1,2.751000166E0,9.454050064E0
2.183990602E1,-2.239500135E-1,2.770050049E0,9.673950195E0
2.185950079E1,-2.340000123E-1,2.722050190E0,9.952050209E0
2.187909824E1,-3.010500073E-1,2.635950089E0,1.024800014E1
2.189869373E1,-4.540500343E-1,2.530950069E0,1.055505085E1
2.191827734E1,-7.320000529E-1,2.521050215E0,1.082295036E1
2.193786295E1,-1.153050065E0,2.674050093E0,1.106205082E1
2.195744543E1,-1.516950130E0,2.770050049E0,1.132095051E1
2.197702696E1,-1.603050113E0,2.569050074E0,1.155105019E1
2.199660780E1,-1.411050081E0,2.100000143E0,1.174200058E1
2.201619158E1,-1.134000063E0,1.602000117E0,1.181895065E1
2.203577987E1,-1.075950027E0,1.285950065E0,1.158900070E1
2.205537064E1,-1.306050062E0,1.152000070E0,1.105305099E1
2.207495710E1,-1.737000108E0,1.189950109E0,1.045905018E1
2.209454564E1,-2.158950090E0,1.237950087E0,1.005705070E1
2.211412664E1,-2.293050051E0,1.132050037E0,9.778950691E0
2.213371127E1,-2.178000212E0,1.018050075E0,9.529950142E0
2.215329737E1,-2.071950197E0,9.979500771E-1,9.271950722E0
2.217287896E1,-2.053050041E0,1.018050075E0,8.917050362E0
2.219246820E1,-2.014950037E0,1.075049996E0,8.389950752E0
2.221205766E1,-2.005050182E0,1.141950011E0,7.930950165E0
2.223164298E1,-2.053050041E0,1.132050037E0,7.854000568E0
2.225122666E1,-1.977000117E0,9.600000381E-1,8.074049950E0
2.227081766E1,-1.804050088E0,7.300500274E-1,8.295000076E0
2.229040388E1,-1.660050035E0,6.340500116E-1,8.323050499E0
2.230999342E1,-1.498050094E0,6.820500493E-1,8.065050125E0
2.232957919E1,-1.402050018E0,7.879500389E-1,7.653000355E0
2.234915896E1,-1.459050059E0,9.220500588E-1,7.318050385E0
2.236874134E1,-1.593000054E0,1.045950055E0,7.222050190E0
2.238832321E1,-1.728000045E0,1.161000013E0,7.393950462E0
2.240790413E1,-1.813950062E0,1.267050028E0,7.834950447E0
2.242748690E1,-1.785000086E0,1.276050091E0,8.419050217E0
2.244707405E1,-1.584000111E0,1.171050072E0,9.118050575E0
2.246666143E1,-1.297050118E0,9.889500737E-1,9.990000725E0
2.248624605E1,-1.105050087E0,7.690500617E-1,1.094805050E1
2.250583395E1,-1.114950061E0,5.389500260E-1,1.183800030E1
2.252542080E1,-1.344000101E0,4.330500066E-1,1.248000050E1
2.254500465E1,-1.699050069E0,5.959500074E-1,1.276695061E1
2.256458373E1,-1.890000105E0,9.310500622E-1,1.273800087E1
2.258416619E1,-1.651050091E0,1.200000048E0,1.255695057E1
2.260374650E1,-1.105050087E0,1.237950087E0,1.239405060E1
2.262333058E1,-5.779500008E-1,1.045950055E0,1.244205093E1
2.264291785E1,-3.199500144E-1,7.879500389E-1,1.261395073E1
2.266250563E1,-3.580500185E-1,6.540000439E-1,1.255695057E1
2.268209294E1,-4.729500115E-1,7.020000219E-1,1.208700085E1
2.270167661E1,-5.020500422E-1,8.740500212E-1,1.133100033E1
2.272126715E1,-4.729500115E-1,1.123050094E0,1.056405067E1
2.274085698E1,-3.870000243E-1,1.285950065E0,9.913050652E0
2.276043935E1,-1.860000044E-1,1.237950087E0,9.339000702E0
2.278001880E1,2.400000021E-2,1.189950109E0,8.812050819E0
2.279959534E1,3.405000269E-2,1.237950087E0,8.295000076E0
2.281918094E1,-1.189500093E-1,1.305000067E0,7.825050354E0
2.283875787E1,-2.430000156E-1,1.267050028E0,7.441950321E0
2.285833656E1,-3.199500144E-1,1.189950109E0,7.117050171E0
2.287791546E1,-4.060500264E-1,1.189950109E0,6.829050541E0
2.289749454E1,-5.299500227E-1,1.276050091E0,6.646950245E0
2.291707507E1,-6.640500426E-1,1.458000064E0,6.609000206E0
2.293665968E1,-7.699500322E-1,1.698000073E0,6.742950439E0
2.295623851E1,-8.560500145E-1,1.879950047E0,7.135950565E0
2.297581852E1,-9.520500302E-1,1.966050148E0,7.720050335E0
2.299539722E1,-1.143000007E0,2.071050167E0,8.199000359E0
2.301498009E1,-1.383000016E0,2.290950060E0,8.371050835E0
2.303455915E1,-1.525950074E0,2.587950230E0,8.419050217E0
2.305414193E1,-1.546050072E0,2.895000219E0,8.544000626E0
2.307372525E1,-1.593000054E0,3.115050077E0,8.802000046E0
2.309330925E1,-1.900050044E0,3.201000214E0,9.262050629E0
2.311289662E1,-2.464950085E0,3.163050175E0,9.942000389E0
2.313248470E1,-3.106950045E0,3.019050121E0,1.077495098E1
2.315206771E1,-3.672000170E0,2.904000044E0,1.161795044E1
2.317165447E1,-4.015950203E0,2.779950142E0,1.238400078E1
2.319124163E1,-4.141050339E0,2.587950230E0,1.291095066E1
2.321082280E1,-4.179000378E0,2.434950113E0,1.304505062E1
2.323040371E1,-4.170000076E0,2.368050098E0,1.281495094E1
2.324998442E1,-3.921000242E0,2.242950201E0,1.242195034E1
2.326956403E1,-3.403950214E0,1.947000146E0,1.213500023E1
2.328914380E1,-2.857950211E0,1.582950115E0,1.190505028E1
2.330873024E1,-2.542050123E0,1.372050047E0,1.147395039E1
2.332831637E1,-2.464950085E0,1.381950021E0,1.074600029E1
2.334789546E1,-2.427000046E0,1.525050044E0,9.856050491E0
2.336747139E1,-2.293050051E0,1.659000039E0,8.974950790E0
2.338704954E1,-2.071950197E0,1.774050117E0,8.304000854E0
2.340663017E1,-1.900050044E0,1.870050073E0,7.921050549E0
2.342620772E1,-1.813950062E0,1.831950068E0,7.672050476E0
2.344578680E1,-1.765950084E0,1.717050076E0,7.441950321E0
2.346536742E1,-1.728000045E0,1.639950037E0,7.260000229E0
2.348494503E1,-1.660050035E0,1.630950093E0,7.098000526E0
2.350452074E1,-1.603050113E0,1.659000039E0,6.963000298E0
2.352410188E1,-1.555050015E0,1.707000136E0,6.886950493E0
2.354368218E1,-1.593000054E0,1.755000114E0,6.858000278E0
2.356326748E1,-1.699050069E0,1.774050117E0,6.925050259E0
2.358284996E1,-1.852050066E0,1.792950034E0,7.107000351E0
2.360243796E1,-1.966950059E0,1.888950109E0,7.270050526E0
2.362202406E1,-1.966950059E0,2.041949987E0,7.347000122E0
2.364161205E1,-1.870950103E0,2.185950041E0,7.452000141E0
2.366119697E1,-1.765950084E0,2.281949997E0,7.777950287E0
2.368078006E1,-1.632000089E0,2.263050079E0,8.400000572E0
2.370035490E1,-1.468950033E0,2.100000143E0,9.175950050E0
2.371993212E1,-1.354050040E0,1.851000071E0,9.990000725E0
2.373950926E1,-1.287000060E0,1.639950037E0,1.079400063E1
2.375908841E1,-1.276950002E0,1.563000083E0,1.150305080E1
2.377866218E1,-1.392000079E0,1.726050138E0,1.206795025E1
2.379823756E1,-1.507050037E0,2.023050070E0,1.243200016E1
2.381781201E1,-1.411050081E0,2.368050098E0,1.254705048E1
2.383738685E1,-1.027950048E0,2.617050171E0,1.252800083E1
2.385696555E1,-4.249500334E-1,2.617050171E0,1.255695057E1
2.387654871E1,1.009500027E-1,2.473050117E0,1.267095089E1
2.389613025E1,2.539499998E-1,2.386950016E0,1.249905014E1
2.391571826E1,9.105000645E-2,2.416050196E0,1.164705086E1
2.393530679E1,-1.570500135E-1,2.530950069E0,1.051695061E1
2.395489387E1,-4.540500343E-1,2.751000166E0,9.837000847E0
2.397448287E1,-6.070500016E-1,2.847000122E0,9.693000793E0
2.399406565E1,-3.480000198E-1,2.683950186E0,9.703050613E0
2.401364896E1,2.059500068E-1,2.491950035E0,9.481950760E0
2.403322936E1,7.330500484E-1,2.416050196E0,8.802000046E0
2.405281276E1,8.860500455E-1,2.473050117E0,7.806000233E0
2.407239088E1,6.270000339E-1,2.569050074E0,7.039950371E0
2.409197282E1,2.250000089E-1,2.559000015E0,6.705000401E0
2.411155582E1,-9.000000358E-2,2.530950069E0,6.589950085E0
2.413113736E1,-2.620500028E-1,2.578950167E0,6.523050308E0
2.415071982E1,-3.390000165E-1,2.683950186E0,6.580050468E0
2.417030082E1,-3.580500185E-1,2.788950205E0,6.820050240E0
2.418988392E1,-3.580500185E-1,2.923050165E0,7.011000156E0
2.420946353E1,-3.870000243E-1,3.192000151E0,7.078050137E0
2.422904228E1,-4.630500078E-1,3.574950218E0,7.059000492E0
2.424862514E1,-5.299500227E-1,3.967050076E0,6.991950512E0
2.426820759E1,-4.729500115E-1,4.282950401E0,6.963000298E0
2.428778814E1,-3.199500144E-1,4.483950138E0,7.117050171E0
2.430736637E1,-2.620500028E-1,4.599000454E0,7.519050121E0
2.432694759E1,-3.580500185E-1,4.627950191E0,8.065050125E0
2.434653249E1,-5.879999995E-1,4.638000011E0,8.677950859E0
2.436611617E1,-9.130500555E-1,4.609050274E0,9.454050064E0
2.438570077E1,-1.201050043E0,4.513050079E0,1.045905018E1
2.440528099E1,-1.306050062E0,4.321950436E0,1.142595100E1
2.442485858E1,-1.276950002E0,4.234950066E0,1.198200035E1
2.444443019E1,-1.344000101E0,4.378950119E0,1.206795025E1
2.446401304E1,-1.459050059E0,4.494000435E0,1.180995083E1
2.448358835E1,-1.498050094E0,4.303050041E0,1.154100037E1
2.450316988E1,-1.420950055E0,3.766050100E0,1.156095028E1
2.452274989E1,-1.287000060E0,3.124950171E0,1.176195049E1
2.454233020E1,-1.306050062E0,2.683950186E0,1.179000092E1
2.456190986E1,-1.459050059E0,2.617050171E0,1.141695023E1
2.458149386E1,-1.488000035E0,2.808000088E0,1.063200092E1
2.460107908E1,-1.249050021E0,2.989950180E0,9.597000122E0
2.462066398E1,-8.940000534E-1,3.019050121E0,8.668050766E0
2.464024745E1,-6.169500351E-1,2.866050243E0,8.256000519E0
2.465983267E1,-4.150500298E-1,2.607000113E0,8.304000854E0
2.467941258E1,-3.480000198E-1,2.397000074E0,8.314050674E0
2.469899542E1,-3.870000243E-1,2.281949997E0,8.065050125E0
2.471857842E1,-4.540500343E-1,2.215050220E0,7.777950287E0
2.473815883E1,-5.500500202E-1,2.167050123E0,7.663050175E0
2.475774254E1,-6.259500384E-1,2.148000002E0,7.729950428E0
2.477732062E1,-6.169500351E-1,2.185950041E0,7.912050247E0
2.479689693E1,-5.970000029E-1,2.290950060E0,8.006999969E0
2.481647660E1,-6.259500384E-1,2.454000235E0,7.912050247E0
2.483605823E1,-6.930000186E-1,2.635950089E0,7.797000408E0
2.485564315E1,-7.320000529E-1,2.799000025E0,7.902000427E0
2.487522284E1,-6.930000186E-1,2.962050200E0,8.227950096E0
2.489480594E1,-5.879999995E-1,3.085950136E0,8.620050430E0
2.491439172E1,-3.960000277E-1,3.144000053E0,9.042000771E0
2.493397573E1,-2.340000123E-1,3.133950233E0,9.433950424E0
2.495355576E1,-1.860000044E-1,3.096000195E0,9.817050934E0
2.497313730E1,-2.050500065E-1,3.010050058E0,1.020105076E1
2.499272223E1,-1.950000077E-1,2.875950098E0,1.060305023E1
2.501230478E1,-9.900000691E-2,2.722050190E0,1.101495075E1
2.503188233E1,1.500000060E-2,2.722050190E0,1.141695023E1
2.505146290E1,3.405000269E-2,2.971050024E0,1.165605068E1
2.507104598E1,-1.305000018E-2,3.277950048E0,1.167495060E1
2.509063058E1,7.200000435E-2,3.402000189E0,1.160805035E1
2.511021619E1,5.700000525E-1,3.124950171E0,1.156995010E1
2.512979619E1,1.441950083E0,2.482950211E0,1.158000088E1
2.514937580E1,1.911000133E0,1.870050073E0,1.160805035E1
2.516895127E1,1.393950105E0,1.630950093E0,1.165605068E1
2.518853212E1,3.880500197E-1,1.591950059E0,1.158900070E1
2.520811249E1,-3.769500256E-1,1.458000064E0,1.109100056E1
2.522768931E1,-7.890000343E-1,1.353000045E0,1.019100094E1
2.524726692E1,-8.940000534E-1,1.458000064E0,9.098999977E0
2.526684592E1,-6.259500384E-1,1.630950093E0,8.083950043E0
2.528642653E1,-9.000000358E-2,1.783950090E0,7.240950108E0
2.530601123E1,3.210000098E-1,1.947000146E0,6.561000347E0
2.532559732E1,4.069500268E-1,2.100000143E0,6.187950134E0
2.534517892E1,1.770000011E-1,2.185950041E0,6.207000256E0
2.536476165E1,-1.660500020E-1,2.176050186E0,6.589950085E0
2.538434288E1,-4.920000136E-1,2.137950182E0,7.126050472E0
2.540392133E1,-7.030500174E-1,2.148000002E0,7.663050175E0
2.542349641E1,-6.640500426E-1,2.205000162E0,8.065050125E0
2.544307756E1,-4.350000322E-1,2.310000181E0,8.266050339E0
2.546265982E1,-2.140500098E-1,2.530950069E0,8.419050217E0
2.548224040E1,-1.570500135E-1,2.827950239E0,8.677950859E0
2.550181951E1,-2.239500135E-1,3.076950073E0,9.003000259E0
2.552139706E1,-2.910000086E-1,3.238950253E0,9.280950546E0
2.554097216E1,-2.910000086E-1,3.354000092E0,9.472949982E0
2.556055400E1,-2.430000156E-1,3.460050106E0,9.673950195E0
2.558013338E1,-2.050500065E-1,3.546000242E0,1.000905037E1
2.559971608E1,-2.340000123E-1,3.574950218E0,1.049700069E1
2.561929639E1,-3.769500256E-1,3.517050266E0,1.111005020E1
2.563888007E1,-6.259500384E-1,3.450000048E0,1.171395016E1
2.565846537E1,-8.850000501E-1,3.334950209E0,1.214505100E1
2.567804659E1,-1.086000085E0,3.144000053E0,1.232700062E1
2.569763122E1,-1.219950080E0,2.827950239E0,1.236495018E1
2.571721491E1,-1.267950058E0,2.349000216E0,1.233600044E1
2.573679676E1,-1.249050021E0,1.783950090E0,1.214505100E1
2.575638077E1,-1.287000060E0,1.468050122E0,1.166595078E1
2.577596289E1,-1.363950014E0,1.516050100E0,1.090005016E1
2.579554445E1,-1.344000101E0,1.726050138E0,9.931950569E0
2.581513210E1,-1.134000063E0,1.947000146E0,8.850000381E0
2.583471387E1,-8.080500364E-1,2.109000206E0,7.902000427E0
2.585429487E1,-5.590500236E-1,2.185950041E0,7.404000282E0
2.587387579E1,-4.729500115E-1,2.185950041E0,7.308000565E0
2.589345580E1,-5.110500455E-1,2.167050123E0,7.270050526E0
2.591303148E1,-6.169500351E-1,2.196000099E0,7.107000351E0
2.593260655E1,-6.450000405E-1,2.233950138E0,7.021050453E0
2.595217701E1,-5.689499974E-1,2.205000162E0,7.222050190E0
2.597175487E1,-4.630500078E-1,2.080950022E0,7.642950535E0
2.599132770E1,-3.960000277E-1,1.899000049E0,8.055000305E0
2.601090496E1,-4.249500334E-1,1.851000071E0,8.410050392E0
2.603048280E1,-5.020500422E-1,1.956000090E0,8.782950401E0
2.605005605E1,-5.110500455E-1,2.089950085E0,9.271950722E0
2.606963605E1,-4.150500298E-1,2.233950138E0,9.894000053E0
2.608921732E1,-1.469999999E-1,2.397000074E0,1.037295055E1
2.610880073E1,2.920500040E-1,2.550000191E0,1.035405064E1
2.612838380E1,8.380500674E-1,2.646000147E0,1.011405087E1
2.614797051E1,1.345950007E0,2.713050127E0,1.019100094E1
2.616755273E1,1.555950046E0,2.827950239E0,1.066005039E1
2.618713488E1,1.422000051E0,2.932950258E0,1.117695045E1
2.620671365E1,1.000950098E0,3.144000053E0,1.150305080E1
2.622629457E1,5.599500537E-1,3.498000145E0,1.156995010E1
2.624587665E1,4.930500090E-1,3.690000057E0,1.139805031E1
2.626546003E1,9.240000248E-1,3.583950281E0,1.125405025E1
2.628503917E1,1.719000101E0,3.201000214E0,1.130205059E1
2.630462226E1,2.418000221E0,2.694000244E0,1.135905075E1
2.632420834E1,2.524050236E0,2.377950191E0,1.110105038E1
2.634379395E1,2.160000086E0,2.301000118E0,1.056405067E1
2.636339049E1,1.699950099E0,2.349000216E0,9.931950569E0
2.638299049E1,1.374000072E0,2.454000235E0,9.271950722E0
2.640258381E1,1.365000010E0,2.559000015E0,8.544000626E0
2.642217766E1,1.555950046E0,2.626950026E0,7.806000233E0
2.644176350E1,1.681050062E0,2.635950089E0,7.155000210E0
2.646134411E1,1.555950046E0,2.569050074E0,6.762000084E0
2.648092688E1,1.173000097E0,2.473050117E0,6.762000084E0
2.650050810E1,6.660000086E-1,2.368050098E0,7.087950230E0
2.652008934E1,1.960500032E-1,2.263050079E0,7.500000477E0
2.653966840E1,-6.105000153E-2,2.167050123E0,7.816050529E0
2.655925055E1,4.305000231E-2,2.137950182E0,7.902000427E0
2.657882994E1,3.400500119E-1,2.205000162E0,7.738950253E0
2.659840533E1,4.840500355E-1,2.406000137E0,7.480950356E0
2.661798156E1,3.979500234E-1,2.694000244E0,7.318050385E0
2.663756677E1,2.250000089E-1,2.962050200E0,7.393950462E0
2.665715199E1,1.200000048E-1,3.211050034E0,7.720050335E0
2.667673976E1,1.579500139E-1,3.412050247E0,8.140950203E0
2.669632408E1,3.210000098E-1,3.535950184E0,8.553000450E0
2.671590861E1,5.029500127E-1,3.613050222E0,8.994000435E0
2.673549579E1,5.890500546E-1,3.661050081E0,9.444000244E0
2.675507909E1,5.029500127E-1,3.679950237E0,9.826950073E0
2.677466040E1,2.440500110E-1,3.670050144E0,1.014300060E1
2.679424040E1,-4.200000316E-2,3.622950077E0,1.039200020E1
2.681382525E1,-2.910000086E-1,3.594000101E0,1.074600029E1
2.683340779E1,-5.590500236E-1,3.642000198E0,1.129200077E1
2.685298956E1,-7.219500542E-1,3.478950262E0,1.181895065E1
2.687257233E1,-6.259500384E-1,2.952000141E0,1.218300056E1
2.689215396E1,-3.960000277E-1,2.349000216E0,1.249905014E1
2.691173604E1,-3.289500177E-1,1.831950068E0,1.260405064E1
2.693132136E1,-5.970000029E-1,1.573050022E0,1.212600040E1
2.695090445E1,-1.027950048E0,1.687950134E0,1.115805054E1
2.697048375E1,-1.171950102E0,1.966050148E0,1.005705070E1
2.699006559E1,-9.610500336E-1,2.176050186E0,9.109050751E0
2.700964659E1,-6.640500426E-1,2.242950201E0,8.592000008E0
2.702922444E1,-4.729500115E-1,2.167050123E0,8.611050606E0
2.704880937E1,-4.060500264E-1,2.014050007E0,8.821050644E0
2.706839727E1,-4.249500334E-1,1.927050114E0,8.821050644E0
2.708797974E1,-5.020500422E-1,1.956000090E0,8.601000786E0
2.710756320E1,-5.590500236E-1,2.004000187E0,8.389950752E0
2.712714684E1,-5.879999995E-1,1.984950066E0,8.295000076E0
2.714672384E1,-5.500500202E-1,1.918050051E0,8.284950256E0
2.716630232E1,-4.060500264E-1,1.840950131E0,8.266050339E0
2.718588232E1,-1.950000077E-1,1.803000093E0,8.074049950E0
2.720546662E1,-7.995000482E-2,1.888950109E0,7.806000233E0
2.722504509E1,-1.570500135E-1,2.061000109E0,7.653000355E0
2.724462654E1,-3.199500144E-1,2.205000162E0,7.749000549E0
2.726420469E1,-3.769500256E-1,2.301000118E0,8.113050461E0
2.728377647E1,-2.530499995E-1,2.349000216E0,8.697000504E0
2.730335095E1,-4.200000316E-2,2.349000216E0,9.396000862E0
2.732292787E1,5.295000225E-2,2.290950060E0,1.018095016E1
2.734250849E1,6.195000187E-2,2.185950041E0,1.093800068E1
2.736208819E1,5.295000225E-2,2.061000109E0,1.153200054E1
2.738167096E1,9.105000645E-2,1.956000090E0,1.180005074E1
2.740124973E1,1.489500105E-1,1.899000049E0,1.167495060E1
2.742083096E1,1.579500139E-1,1.984950066E0,1.150305080E1
2.744041148E1,2.830500007E-1,2.071050167E0,1.169505024E1
2.745999210E1,6.850500107E-1,1.993950129E0,1.220205021E1
2.747957424E1,1.260000110E0,1.803000093E0,1.270995045E1
2.749915394E1,1.758000135E0,1.591950059E0,1.278600025E1
2.751873740E1,1.987050056E0,1.468050122E0,1.224000072E1
2.753831423E1,1.882050037E0,1.468050122E0,1.129200077E1
2.755788786E1,1.537050128E0,1.602000117E0,1.037295055E1
2.757745917E1,1.135050058E0,1.803000093E0,9.712050438E0
2.759703463E1,8.959500194E-1,1.936950088E0,9.280950546E0
2.761661802E1,9.049500227E-1,1.966050148E0,8.974950790E0
2.763620048E1,1.087050080E0,1.993950129E0,8.592000008E0
2.765578684E1,1.221000075E0,2.061000109E0,8.026950836E0
2.767537084E1,1.125000000E0,2.128950119E0,7.480950356E0
2.769495092E1,8.959500194E-1,2.137950182E0,7.174050331E0
2.771452572E1,7.039500475E-1,2.061000109E0,7.117050171E0
2.773410293E1,5.509500504E-1,1.984950066E0,7.165050507E0
2.775368439E1,4.549500346E-1,1.975050092E0,7.270050526E0
2.777326321E1,5.130000114E-1,2.023050070E0,7.356000423E0
2.779283975E1,6.370500326E-1,2.109000206E0,7.336950302E0
2.781241483E1,6.660000086E-1,2.290950060E0,7.279950142E0
2.783198436E1,5.800500512E-1,2.539950132E0,7.288950443E0
2.785156136E1,4.650000334E-1,2.761050224E0,7.461000443E0
2.787113544E1,3.400500119E-1,2.962050200E0,7.786950588E0
2.789072191E1,2.920500040E-1,3.181950092E0,8.103000641E0
2.791030592E1,3.880500197E-1,3.382950068E0,8.323050499E0
2.792988531E1,5.599500537E-1,3.508050203E0,8.505000114E0
2.794946445E1,6.270000339E-1,3.594000101E0,8.793000221E0
2.796904507E1,5.599500537E-1,3.661050081E0,9.367050171E0
2.798862570E1,4.450500309E-1,3.727950096E0,9.922950745E0
2.800821394E1,4.260000288E-1,3.670050144E0,1.026795006E1
2.802780447E1,5.220000148E-1,3.421050072E0,1.067895031E1
2.804739852E1,6.180000305E-1,3.163050175E0,1.109100056E1
2.806698107E1,5.890500546E-1,3.085950136E0,1.145505047E1
2.808656292E1,4.740000367E-1,3.058050156E0,1.191495037E1
2.810614717E1,4.170000255E-1,2.808000088E0,1.239405060E1
2.812572666E1,4.930500090E-1,2.253000021E0,1.276695061E1
2.814530512E1,5.800500512E-1,1.650000095E0,1.277700043E1
2.816489098E1,4.450500309E-1,1.401000023E0,1.214505100E1
2.818448145E1,5.295000225E-2,1.543950081E0,1.114905071E1
2.820406635E1,-4.150500298E-1,1.803000093E0,1.026795006E1
2.822364756E1,-8.460000157E-1,1.993950129E0,9.846000671E0
2.824322970E1,-1.086000085E0,2.052000046E0,9.904050827E0
2.826280817E1,-9.130500555E-1,1.888950109E0,1.004700089E1
2.828239178E1,-4.540500343E-1,1.534950018E0,9.942000389E0
2.830197184E1,-9.900000691E-2,1.219050050E0,9.568050385E0
2.832155246E1,-4.050000105E-3,1.065000057E0,9.013050079E0
2.834113669E1,-2.295000106E-2,1.084950089E0,8.419050217E0
2.836071884E1,-1.305000018E-2,1.219050050E0,7.873050213E0
2.838030324E1,2.400000021E-2,1.438950062E0,7.624050140E0
2.839988663E1,9.105000645E-2,1.621050119E0,7.663050175E0
2.841946818E1,2.160000056E-1,1.621050119E0,7.729950428E0
2.843905124E1,2.539499998E-1,1.563000083E0,7.749000549E0
2.845863209E1,1.579500139E-1,1.591950059E0,7.777950287E0
2.847821493E1,6.195000187E-2,1.755000114E0,7.873050213E0
2.849780168E1,1.500000060E-2,1.908000112E0,8.140950203E0
2.851738714E1,7.200000435E-2,1.984950066E0,8.592000008E0
2.853697091E1,3.780000210E-1,2.004000187E0,9.051000595E0
2.855655583E1,9.340500236E-1,1.947000146E0,9.367050171E0
2.857614321E1,1.402950048E0,1.792950034E0,9.559050560E0
2.859572467E1,1.509000063E0,1.543950081E0,9.655050278E0
2.861530630E1,1.260000110E0,1.219050050E0,9.769950867E0
2.863488416E1,1.020000100E0,8.640000224E-1,1.011405087E1
2.865446101E1,1.306950092E0,4.720500112E-1,1.076595020E1
2.867403985E1,1.948950052E0,3.660000265E-1,1.149300098E1
2.869362354E1,2.293950081E0,6.820500493E-1,1.207800102E1
2.871320137E1,2.111999989E0,8.830500245E-1,1.266195107E1
2.873277428E1,1.576050043E0,8.359500170E-1,1.331295109E1
2.875234382E1,1.144950032E0,9.220500588E-1,1.338000107E1
2.877191980E1,1.173000097E0,1.200000048E0,1.283400059E1
2.879149796E1,1.422000051E0,1.554000020E0,1.216395092E1
2.881107642E1,1.566000104E0,1.765050054E0,1.131195068E1
2.883065334E1,1.662000060E0,1.822050095E0,1.042095089E1
2.885023673E1,1.758000135E0,1.870050073E0,9.693000793E0
2.886981389E1,1.623000026E0,2.014050007E0,9.223950386E0
2.888938936E1,1.125000000E0,2.253000021E0,9.079950333E0
2.890896783E1,7.330500484E-1,2.377950191E0,8.898000717E0
2.892854323E1,7.710000277E-1,2.281949997E0,8.447999954E0
2.894811554E1,1.000950098E0,2.100000143E0,7.921050549E0
2.896769083E1,1.164000034E0,2.061000109E0,7.404000282E0
2.898726345E1,1.135050058E0,2.176050186E0,6.838950157E0
2.900683275E1,9.430500269E-1,2.349000216E0,6.360000134E0
2.902640899E1,6.850500107E-1,2.521050215E0,6.139950275E0
2.904598685E1,4.650000334E-1,2.665050030E0,6.130050182E0
2.906556356E1,2.350500077E-1,2.836950064E0,6.139950275E0
2.908513772E1,-2.050500065E-1,3.124950171E0,6.255000114E0
2.910470718E1,-8.179500103E-1,3.450000048E0,6.657000542E0
2.912428143E1,-1.210050106E0,3.565050125E0,7.078050137E0
2.914385151E1,-1.191000104E0,3.469050169E0,7.231950283E0
2.916342665E1,-1.009050012E0,3.382950068E0,7.192950249E0
2.918300204E1,-1.075950027E0,3.556050062E0,7.251000404E0
2.920257370E1,-1.536000013E0,3.996000290E0,7.633950233E0
2.922214349E1,-2.071950197E0,4.350000381E0,8.247000694E0
2.924170970E1,-2.331000090E0,4.437000275E0,8.965050697E0
2.926128746E1,-2.427000046E0,4.341000080E0,9.693000793E0
2.928086071E1,-2.569950104E0,4.140000343E0,1.055505085E1
2.930043402E1,-2.896050215E0,3.880950212E0,1.148400021E1
2.932001157E1,-3.451050282E0,3.690000057E0,1.216395092E1
2.933958563E1,-3.969000101E0,3.631950140E0,1.248000050E1
2.935916046E1,-4.486050129E0,3.622950077E0,1.248900032E1
2.937873360E1,-5.223000050E0,3.603000164E0,1.220205021E1
2.939831112E1,-5.922000408E0,3.556050062E0,1.169505024E1
2.941788466E1,-6.133050442E0,3.382950068E0,1.116795063E1
2.943745541E1,-5.836050510E0,3.124950171E0,1.062195015E1
2.945702842E1,-5.424000263E0,2.884950161E0,1.002795029E1
2.947660712E1,-5.185050011E0,2.655000210E0,9.348000526E0
2.949617634E1,-5.098950386E0,2.473050117E0,8.601000786E0
2.951575644E1,-5.022000313E0,2.416050196E0,8.055000305E0
2.953532504E1,-4.821000099E0,2.406000137E0,7.758000374E0
2.955489581E1,-4.504950047E0,2.263050079E0,7.567050457E0
2.957447027E1,-4.218000412E0,2.052000046E0,7.393950462E0
2.959404718E1,-4.063950062E0,1.927050114E0,7.126050472E0
2.961362494E1,-4.093050003E0,1.947000146E0,6.724050522E0
2.963319478E1,-4.237050056E0,2.061000109E0,6.264000416E0
2.965276132E1,-4.438050270E0,2.205000162E0,5.929050446E0
2.967233016E1,-4.552950382E0,2.320050001E0,5.862000465E0
2.969190123E1,-4.543050289E0,2.358000040E0,5.986950397E0
2.971147394E1,-4.524000168E0,2.358000040E0,6.073050499E0
2.973104986E1,-4.486050129E0,2.406000137E0,6.082050323E0
2.975062464E1,-4.486050129E0,2.559000015E0,6.063000202E0
2.977019672E1,-4.582050323E0,2.799000025E0,6.111000061E0
2.978977026E1,-4.735050201E0,3.028950214E0,6.283050060E0
2.980933734E1,-4.917000294E0,3.192000151E0,6.504000187E0
2.982890617E1,-5.011950016E0,3.220050097E0,6.646950245E0
2.984847910E1,-4.993050098E0,3.211050034E0,6.705000401E0
2.986805356E1,-4.926000118E0,3.316050053E0,6.820050240E0
2.988762411E1,-4.869000435E0,3.469050169E0,6.991950512E0
2.990719365E1,-4.858950138E0,3.594000101E0,7.144950390E0
2.992676534E1,-4.926000118E0,3.670050144E0,7.192950249E0
2.994633642E1,-5.022000313E0,3.747000217E0,7.155000210E0
2.996590934E1,-5.050950050E0,3.843000174E0,7.203000546E0
2.998548228E1,-4.965000153E0,3.843000174E0,7.452000141E0
3.000505329E1,-4.858950138E0,3.775950193E0,7.758000374E0
3.002462383E1,-4.849950314E0,3.775950193E0,7.930950165E0
3.004419791E1,-4.965000153E0,3.880950212E0,7.939950466E0
3.006378014E1,-5.118000031E0,4.024950027E0,7.873050213E0
3.008336253E1,-5.223000050E0,4.120950222E0,7.633950233E0
3.010294438E1,-5.434050083E0,4.255050182E0,7.107000351E0
3.012253518E1,-5.557950497E0,4.207050323E0,7.098000526E0
3.014212410E1,-5.530050278E0,4.044000149E0,7.690950394E0
3.016170695E1,-5.644950390E0,4.024950027E0,7.845000267E0
3.018128993E1,-5.806950092E0,3.976950169E0,7.615050316E0
3.020087430E1,-5.817000389E0,3.862050295E0,7.690950394E0
3.027458075E1,-3.058950186E0,4.734000206E0,8.524950027E0
3.029416009E1,-3.001050234E0,4.638000011E0,8.496000290E0
3.031373926E1,-2.905950069E0,4.389000416E0,8.419050217E0
3.033331679E1,-2.800050020E0,4.081950188E0,8.275950432E0
3.035289128E1,-2.743050098E0,3.900000095E0,8.247000694E0
3.037246688E1,-2.713950157E0,3.948000193E0,8.544000626E0
3.039204113E1,-2.589000225E0,4.033950329E0,9.136950493E0
3.041161398E1,-2.254050016E0,3.928950071E0,9.721950531E0
3.043119274E1,-1.785000086E0,3.574950218E0,9.865050316E0
3.045076635E1,-1.459050059E0,3.172050238E0,9.607050896E0
3.047034566E1,-1.411050081E0,3.115050077E0,9.424950600E0
3.048992168E1,-1.431000113E0,3.316050053E0,9.481950760E0
3.050949798E1,-1.219950080E0,3.345000267E0,9.529950142E0
3.052907311E1,-9.130500555E-1,3.163050175E0,9.472949982E0
3.054865219E1,-9.610500336E-1,2.932950258E0,9.232950211E0
3.056822963E1,-1.134000063E0,2.731950045E0,9.184950829E0
3.058780170E1,-9.610500336E-1,2.464050055E0,9.481950760E0
3.060737741E1,-4.729500115E-1,1.966050148E0,9.607050896E0
3.062695187E1,2.539499998E-1,1.294950008E0,9.492000580E0
3.064652779E1,9.430500269E-1,7.300500274E-1,9.348000526E0
3.066610532E1,1.192050099E0,3.949500322E-1,9.492000580E0
3.068568470E1,1.096950054E0,2.419500053E-1,1.001895046E1
3.070527023E1,9.150000215E-1,-4.395000264E-2,1.048800087E1
3.072484622E1,7.620000243E-1,-6.289500594E-1,1.059300041E1
3.074442045E1,6.559500098E-1,-1.203000069E0,1.042095089E1
3.076399862E1,4.840500355E-1,-1.414050102E0,1.010505009E1
3.078357587E1,2.639999986E-1,-1.261050105E0,9.894000053E0
3.080315496E1,5.295000225E-2,-1.002000093E0,9.808050156E0
3.082273272E1,-1.380000114E-1,-7.720500231E-1,9.741000175E0
3.084231087E1,-2.719500065E-1,-5.899500251E-1,9.712050438E0
3.086189002E1,-3.679500222E-1,-4.560000300E-1,9.730950356E0
3.088146971E1,-5.110500455E-1,-2.839500010E-1,9.625950813E0
3.090105365E1,-8.080500364E-1,8.895000070E-2,9.358050346E0
3.092063057E1,-1.230000019E0,5.959500074E-1,9.310050011E0
3.094021032E1,-1.689000130E0,1.008000016E0,9.693000793E0
3.095979555E1,-1.881000042E0,1.401000023E0,9.568050385E0
3.097938140E1,-1.593000054E0,1.840950131E0,9.061050415E0
3.099895733E1,-1.153050065E0,2.119050026E0,9.051000595E0
3.101852998E1,-7.789500356E-1,2.215050220E0,9.243000031E0
3.103810467E1,-5.500500202E-1,2.233950138E0,9.597000122E0
3.105768138E1,-5.500500202E-1,2.185950041E0,1.041105080E1
3.107725121E1,-6.930000186E-1,2.014050007E0,1.138800049E1
3.109682812E1,-6.840000153E-1,1.783950090E0,1.195305061E1
3.111640803E1,-4.350000322E-1,1.669050097E0,1.204905033E1
3.113598278E1,-2.530499995E-1,1.783950090E0,1.205895042E1
3.115556122E1,-2.530499995E-1,1.984950066E0,1.225005054E1
3.117513575E1,-1.950000077E-1,2.080950022E0,1.252800083E1
3.119471259E1,6.195000187E-2,1.956000090E0,1.267095089E1
3.121429568E1,4.740000367E-1,1.659000039E0,1.261395073E1
3.123388038E1,9.240000248E-1,1.420050025E0,1.237500095E1
3.125347108E1,1.317000031E0,1.390950084E0,1.218300056E1
3.127306493E1,1.537050128E0,1.237950087E0,1.187700081E1
3.129265847E1,1.603950024E0,8.929500580E-1,1.125405025E1
3.131225547E1,1.441950083E0,8.830500245E-1,1.047795010E1
3.133185028E1,1.011000037E0,1.314000010E0,9.846000671E0
3.135144652E1,8.089500666E-1,1.698000073E0,9.559050560E0
3.137104098E1,1.057950020E0,1.678050041E0,9.376950264E0
3.139063145E1,1.393950105E0,1.477050066E0,9.051000595E0
3.141022167E1,1.384050012E0,1.477050066E0,8.668050766E0
3.142981675E1,1.068000078E0,1.650000095E0,8.247000694E0
3.144941399E1,6.750000119E-1,1.870050073E0,7.797000408E0
3.146900532E1,3.589500189E-1,2.061000109E0,7.414050579E0
3.148859155E1,2.059500068E-1,2.185950041E0,7.203000546E0
3.150818134E1,1.870500147E-1,2.233950138E0,7.203000546E0
3.152777584E1,2.440500110E-1,2.233950138E0,7.336950302E0
3.154736847E1,3.019500077E-1,2.205000162E0,7.441950321E0
3.156696537E1,2.350500077E-1,2.185950041E0,7.441950321E0
3.158656159E1,4.950000439E-3,2.233950138E0,7.423050404E0
3.160615082E1,-2.719500065E-1,2.386950016E0,7.489950180E0
3.162574190E1,-4.830000103E-1,2.559000015E0,7.633950233E0
3.164533120E1,-6.070500016E-1,2.683950186E0,7.768050194E0
3.166490897E1,-7.890000343E-1,2.856000185E0,7.854000568E0
3.168448650E1,-1.027950048E0,3.115050077E0,7.930950165E0
3.170406533E1,-1.143000007E0,3.354000092E0,8.035950661E0
3.172364563E1,-1.038000107E0,3.487950087E0,8.218050003E0
3.174322681E1,-8.370000124E-1,3.556050062E0,8.505000114E0
3.176280558E1,-6.840000153E-1,3.603000164E0,8.908050537E0
3.178237973E1,-6.360000372E-1,3.631950140E0,9.328950882E0
3.180196197E1,-6.840000153E-1,3.631950140E0,9.721950531E0
3.182154783E1,-8.370000124E-1,3.603000164E0,1.011405087E1
3.184112991E1,-1.057050109E0,3.583950281E0,1.058400059E1
3.186070775E1,-1.191000104E0,3.556050062E0,1.103400040E1
3.188027982E1,-1.258050084E0,3.556050062E0,1.129200077E1
3.189985574E1,-1.354050040E0,3.613050222E0,1.141695023E1
3.191943422E1,-1.450050116E0,3.727950096E0,1.141695023E1
3.193900968E1,-1.516950130E0,3.843000174E0,1.126395035E1
3.195858384E1,-1.516950130E0,3.814050198E0,1.106205082E1
3.197816446E1,-1.392000079E0,3.526950121E0,1.093800068E1
3.199774015E1,-1.191000104E0,3.048000097E0,1.088100052E1
3.201732016E1,-1.038000107E0,2.569050074E0,1.077495098E1
3.203689979E1,-1.162050009E0,2.263050079E0,1.065105057E1
3.205647393E1,-1.593000054E0,2.157000065E0,1.061205006E1
3.207604964E1,-1.909950137E0,2.023050070E0,1.051695061E1
3.209563118E1,-1.881000042E0,1.840950131E0,1.022895050E1
3.211521246E1,-1.747050047E0,1.803000093E0,9.846000671E0
3.213478938E1,-1.621950030E0,1.879950047E0,9.396000862E0
3.215436198E1,-1.488000035E0,1.975050092E0,8.898000717E0
3.217393891E1,-1.459050059E0,2.089950085E0,8.389950752E0
3.219351361E1,-1.516950130E0,2.242950201E0,7.939950466E0
3.221308713E1,-1.507050037E0,2.406000137E0,7.585950375E0
3.223265765E1,-1.363950014E0,2.521050215E0,7.366050243E0
3.225222996E1,-1.153050065E0,2.521050215E0,7.260000229E0
3.227180502E1,-1.009050012E0,2.425050020E0,7.222050190E0
3.229137880E1,-9.810000658E-1,2.358000040E0,7.203000546E0
3.231095274E1,-1.000050068E0,2.320050001E0,7.192950249E0
3.233052442E1,-1.038000107E0,2.290950060E0,7.231950283E0
3.235010258E1,-1.123950005E0,2.263050079E0,7.432950497E0
3.236967489E1,-1.182000041E0,2.233950138E0,7.786950588E0
3.238924350E1,-1.153050065E0,2.242950201E0,8.113050461E0
3.240880967E1,-1.105050087E0,2.358000040E0,8.304000854E0
3.242837430E1,-1.038000107E0,2.521050215E0,8.380949974E0
3.244793913E1,-9.130500555E-1,2.559000015E0,8.572050095E0
3.246750476E1,-8.269500136E-1,2.464050055E0,9.051000595E0
3.248707277E1,-8.940000534E-1,2.368050098E0,9.750000000E0
3.250665030E1,-9.810000658E-1,2.272050142E0,1.044000053E1
3.252622563E1,-9.520500302E-1,2.167050123E0,1.103400040E1
3.254580503E1,-7.789500356E-1,2.100000143E0,1.151295090E1
3.256538173E1,-4.830000103E-1,2.080950022E0,1.184805012E1
3.258495613E1,-1.950000077E-1,2.100000143E0,1.212600040E1
3.260453366E1,-7.095000148E-2,2.185950041E0,1.235505104E1
3.262410604E1,-9.000000358E-2,2.329950094E0,1.240305042E1
3.264367955E1,-1.380000114E-1,2.473050117E0,1.223100090E1
3.266325432E1,-1.090500057E-1,2.539950132E0,1.188600063E1
3.268282875E1,4.950000439E-3,2.502000093E0,1.151295090E1
3.270239398E1,1.099500060E-1,2.454000235E0,1.122495079E1
3.272196442E1,1.870500147E-1,2.434950113E0,1.095705032E1
3.274153702E1,3.210000098E-1,2.406000137E0,1.055505085E1
3.276111363E1,5.130000114E-1,2.386950016E0,1.008600044E1
3.278068963E1,6.940500140E-1,2.406000137E0,9.712050438E0
3.280026369E1,7.710000277E-1,2.406000137E0,9.433950424E0
3.281983875E1,6.750000119E-1,2.368050098E0,9.136950493E0
3.283941937E1,4.260000288E-1,2.329950094E0,8.830950737E0
3.285899444E1,1.579500139E-1,2.310000181E0,8.533950806E0
3.287856468E1,-1.305000018E-2,2.320050001E0,8.256000519E0
3.289813785E1,-3.195000067E-2,2.338950157E0,8.055000305E0
3.291771229E1,8.205000311E-2,2.338950157E0,7.873050213E0
3.293728898E1,1.579500139E-1,2.349000216E0,7.653000355E0
3.295687385E1,9.105000645E-2,2.386950016E0,7.384950161E0
3.297645293E1,-5.205000192E-2,2.425050020E0,7.117050171E0
3.299602894E1,-2.140500098E-1,2.434950113E0,7.021050453E0
3.301560163E1,-3.769500256E-1,2.454000235E0,7.183950424E0
3.303517982E1,-5.299500227E-1,2.502000093E0,7.548000336E0
3.305475767E1,-5.779500008E-1,2.502000093E0,7.959000587E0
3.307433029E1,-5.400000215E-1,2.512050152E0,8.140950203E0
3.309390929E1,-5.590500236E-1,2.646000147E0,8.006999969E0
3.311348467E1,-7.320000529E-1,2.914050102E0,7.758000374E0
3.313305738E1,-9.709500670E-1,3.192000151E0,7.701000214E0
3.315263367E1,-1.114950061E0,3.354000092E0,7.969050407E0
3.317221021E1,-1.075950027E0,3.345000267E0,8.467050552E0
3.319178722E1,-8.850000501E-1,3.277950048E0,8.917050362E0
3.321136291E1,-6.739500165E-1,3.297000170E0,9.175950050E0
3.323093792E1,-6.169500351E-1,3.441000223E0,9.319050789E0
3.325051246E1,-7.789500356E-1,3.546000242E0,9.529950142E0
3.327008353E1,-1.086000085E0,3.556050062E0,9.952050209E0
3.328965791E1,-1.354050040E0,3.469050169E0,1.055505085E1
3.330923086E1,-1.440000057E0,3.354000092E0,1.106205082E1
3.332880910E1,-1.392000079E0,3.307050228E0,1.136895084E1
3.334838324E1,-1.420950055E0,3.334950209E0,1.163700008E1
3.336795215E1,-1.621950030E0,3.249000072E0,1.200105095E1
3.338752315E1,-1.909950137E0,3.010050058E0,1.240305042E1
3.340709308E1,-2.167950153E0,2.847000122E0,1.257600021E1
3.342666592E1,-2.272950172E0,2.827950239E0,1.238400078E1
3.344624077E1,-2.082000017E0,2.884950161E0,1.192395020E1
3.346581004E1,-1.612950087E0,2.875950098E0,1.135905075E1
3.348537457E1,-1.182000041E0,2.740950108E0,1.084200096E1
3.350494663E1,-1.009050012E0,2.539950132E0,1.037295055E1
3.352451398E1,-1.075950027E0,2.397000074E0,9.894000053E0
3.354407952E1,-1.267950058E0,2.349000216E0,9.444000244E0
3.356365021E1,-1.459050059E0,2.358000040E0,9.109050751E0
3.358322406E1,-1.573950052E0,2.301000118E0,8.860050201E0
3.360280098E1,-1.612950087E0,2.167050123E0,8.629950523E0
3.362237419E1,-1.603050113E0,2.061000109E0,8.400000572E0
3.364194288E1,-1.564950109E0,2.023050070E0,8.140950203E0
3.366151240E1,-1.516950130E0,2.041949987E0,7.797000408E0
3.368108526E1,-1.431000113E0,2.089950085E0,7.404000282E0
3.370065367E1,-1.182000041E0,2.137950182E0,7.165050507E0
3.372022498E1,-8.560500145E-1,2.176050186E0,7.174050331E0
3.373979944E1,-6.169500351E-1,2.157000065E0,7.414050579E0
3.375937244E1,-5.970000029E-1,2.080950022E0,7.806000233E0
3.377894165E1,-7.510500550E-1,1.975050092E0,8.161050797E0
3.379851240E1,-1.009050012E0,1.947000146E0,8.275950432E0
3.381808064E1,-1.287000060E0,2.080950022E0,8.103000641E0
3.383764687E1,-1.479000092E0,2.338950157E0,7.797000408E0
3.385721789E1,-1.468950033E0,2.674050093E0,7.596000195E0
3.387678474E1,-1.153050065E0,2.943000078E0,7.471050262E0
3.389635212E1,-7.410000563E-1,3.133950233E0,7.375050545E0
3.391592220E1,-5.779500008E-1,3.325950146E0,7.605000496E0
3.393548935E1,-7.219500542E-1,3.487950087E0,8.332950592E0
3.395505826E1,-9.520500302E-1,3.460050106E0,9.184950829E0
3.397463357E1,-1.027950048E0,3.402000189E0,9.846000671E0
3.399420934E1,-9.040500522E-1,3.478950262E0,1.034400082E1
3.401378225E1,-7.600500584E-1,3.670050144E0,1.071795082E1
3.403335265E1,-7.320000529E-1,3.900000095E0,1.101495075E1
3.405292565E1,-8.179500103E-1,4.044000149E0,1.121595097E1
3.407250127E1,-9.229500294E-1,4.120950222E0,1.143600082E1
3.409208167E1,-9.520500302E-1,4.120950222E0,1.170405102E1
3.411165736E1,-8.659500480E-1,4.081950188E0,1.180995083E1
3.413123213E1,-6.930000186E-1,4.092000008E0,1.156995010E1
3.415081090E1,-4.830000103E-1,4.120950222E0,1.113900089E1
3.417038774E1,-1.950000077E-1,4.129950047E0,1.085205078E1
3.418995766E1,1.390500069E-1,4.033950329E0,1.085205078E1
3.420952528E1,4.740000367E-1,3.862050295E0,1.096695042E1
3.422909389E1,7.900500298E-1,3.670050144E0,1.095705032E1
3.424865972E1,9.240000248E-1,3.382950068E0,1.083300018E1
3.426822588E1,6.270000339E-1,3.010050058E0,1.067895031E1
3.428779056E1,1.099500060E-1,2.713050127E0,1.053600025E1
3.430735633E1,-2.620500028E-1,2.550000191E0,1.040205002E1
3.432692070E1,-3.580500185E-1,2.530950069E0,1.017195034E1
3.434647997E1,-1.759500057E-1,2.635950089E0,9.703050613E0
3.436604066E1,1.099500060E-1,2.827950239E0,9.022950172E0
3.438560066E1,2.639999986E-1,3.067050219E0,8.256000519E0
3.440516371E1,1.680000126E-1,3.307050228E0,7.557000160E0
3.442472640E1,-5.205000192E-2,3.498000145E0,7.011000156E0
3.444429663E1,-2.239500135E-1,3.594000101E0,6.801000118E0
3.446386795E1,-2.719500065E-1,3.583950281E0,6.925050259E0
3.448343357E1,-2.050500065E-1,3.478950262E0,7.212000370E0
3.450299049E1,-1.090500057E-1,3.325950146E0,7.500000477E0
3.452254770E1,-9.000000358E-2,3.172050238E0,7.653000355E0
3.454212002E1,-2.050500065E-1,3.133950233E0,7.624050140E0
3.456169665E1,-3.580500185E-1,3.229950190E0,7.509000301E0
3.458127813E1,-4.540500343E-1,3.382950068E0,7.366050243E0
3.460085113E1,-4.440000355E-1,3.526950121E0,7.260000229E0
3.462042984E1,-3.100500107E-1,3.670050144E0,7.308000565E0
3.464000830E1,-1.380000114E-1,3.823950291E0,7.548000336E0
3.465958500E1,-9.000000358E-2,3.985950232E0,7.825050354E0
3.467915939E1,-2.239500135E-1,4.197000027E0,7.845000267E0
3.469874309E1,-3.960000277E-1,4.408050060E0,7.585950375E0
3.471832186E1,-5.020500422E-1,4.552050114E0,7.366050243E0
3.473789889E1,-4.729500115E-1,4.590000153E0,7.432950497E0
3.475746742E1,-3.870000243E-1,4.552050114E0,7.825050354E0
3.477703336E1,-3.480000198E-1,4.513050079E0,8.352000237E0
3.479660442E1,-4.350000322E-1,4.522950172E0,8.773950577E0
3.481617212E1,-6.070500016E-1,4.579950333E0,9.098999977E0
3.483574311E1,-7.510500550E-1,4.570950031E0,9.444000244E0
3.485531080E1,-8.560500145E-1,4.504050255E0,9.885000229E0
3.487487695E1,-9.610500336E-1,4.483950138E0,1.035405064E1
3.489444873E1,-1.018950105E0,4.513050079E0,1.066005039E1
3.491401922E1,-9.520500302E-1,4.522950172E0,1.075605011E1
3.493358436E1,-7.890000343E-1,4.561050415E0,1.084200096E1
3.495315858E1,-6.070500016E-1,4.552050114E0,1.100505066E1
3.497272683E1,-4.920000136E-1,4.446000099E0,1.107195091E1
3.499229639E1,-5.299500227E-1,4.293000221E0,1.094805050E1
3.501186224E1,-7.219500542E-1,4.159049988E0,1.069905090E1
3.503142910E1,-9.810000658E-1,4.054049969E0,1.046895027E1
3.505099522E1,-1.171950102E0,3.928950071E0,1.034400082E1
3.507056478E1,-1.239000082E0,3.823950291E0,1.023900032E1
3.509012784E1,-1.230000019E0,3.736950159E0,1.005705070E1
3.510969277E1,-1.153050065E0,3.651000261E0,9.682950020E0
3.512925861E1,-1.000050068E0,3.517050266E0,9.166050911E0
3.514882500E1,-8.460000157E-1,3.345000267E0,8.668050766E0
3.516838872E1,-8.460000157E-1,3.238950253E0,8.323050499E0
3.518794995E1,-9.709500670E-1,3.192000151E0,8.179950714E0
3.520751309E1,-1.095000029E0,3.153000116E0,8.227950096E0
3.522707884E1,-1.123950005E0,3.133950233E0,8.343000412E0
3.524664632E1,-9.810000658E-1,3.096000195E0,8.389950752E0
3.526620903E1,-7.510500550E-1,3.058050156E0,8.284950256E0
3.528577709E1,-5.779500008E-1,3.067050219E0,8.046000481E0
3.530533974E1,-5.020500422E-1,3.172050238E0,7.797000408E0
3.532489861E1,-4.830000103E-1,3.307050228E0,7.642950535E0
3.534446222E1,-4.830000103E-1,3.402000189E0,7.624050140E0
3.536402693E1,-5.110500455E-1,3.478950262E0,7.681950569E0
3.538358991E1,-5.299500227E-1,3.565050125E0,7.749000549E0
3.540315239E1,-4.920000136E-1,3.631950140E0,7.758000374E0
3.542271646E1,-4.540500343E-1,3.690000057E0,7.729950428E0
3.544228808E1,-4.060500264E-1,3.757050276E0,7.720050335E0
3.546185699E1,-3.390000165E-1,3.795000076E0,7.797000408E0
3.548141982E1,-2.620500028E-1,3.795000076E0,8.017050743E0
3.550097913E1,-2.340000123E-1,3.814050198E0,8.332950592E0
3.552054067E1,-3.010500073E-1,3.832950115E0,8.686950684E0
3.554010659E1,-3.769500256E-1,3.862050295E0,8.965050697E0
3.555966997E1,-3.870000243E-1,3.919050217E0,9.109050751E0
3.557923580E1,-3.390000165E-1,4.033950329E0,9.136950493E0
3.559879856E1,-2.530499995E-1,4.188000202E0,9.109050751E0
3.561836690E1,-1.380000114E-1,4.303050041E0,9.175950050E0
3.563793328E1,-7.995000482E-2,4.369950294E0,9.415050507E0
3.565750159E1,-1.279500127E-1,4.474950314E0,9.865050316E0
3.567707265E1,-4.200000316E-2,4.542000294E0,1.053600025E1
3.569664349E1,3.109500110E-1,4.483950138E0,1.124400043E1
3.571621019E1,7.330500484E-1,4.426949978E0,1.171395016E1
3.573578126E1,9.820500612E-1,4.465050220E0,1.179000092E1
3.575535672E1,1.030050039E0,4.552050114E0,1.152195072E1
3.577493304E1,1.030050039E0,4.579950333E0,1.111005020E1
3.579450804E1,1.087050080E0,4.504050255E0,1.066005039E1
3.581408384E1,1.192050099E0,4.303050041E0,1.021995068E1
3.583365791E1,1.249950051E0,4.006050110E0,9.913050652E0
3.585322899E1,1.201950073E0,3.747000217E0,9.778950691E0
3.587280321E1,1.039050102E0,3.603000164E0,9.760050774E0
3.589237182E1,8.670000434E-1,3.546000242E0,9.712050438E0
3.591194907E1,7.900500298E-1,3.526950121E0,9.492000580E0
3.593152376E1,8.569500446E-1,3.498000145E0,9.022950172E0
3.595109494E1,1.057950020E0,3.508050203E0,8.410050392E0
3.597067278E1,1.231050014E0,3.546000242E0,7.921050549E0
3.599025617E1,1.221000075E0,3.535950184E0,7.701000214E0
3.600984747E1,1.000950098E0,3.508050203E0,7.663050175E0
3.602943828E1,7.039500475E-1,3.469050169E0,7.720050335E0
3.604902414E1,3.979500234E-1,3.430950165E0,7.806000233E0
3.606861314E1,1.200000048E-1,3.393000126E0,7.930950165E0
3.608820516E1,-9.900000691E-2,3.316050053E0,8.065050125E0
3.610779194E1,-2.620500028E-1,3.268050194E0,8.065050125E0
3.612738139E1,-3.870000243E-1,3.286950111E0,7.891950607E0
3.614696702E1,-4.630500078E-1,3.354000092E0,7.653000355E0
3.616655217E1,-4.540500343E-1,3.412050247E0,7.471050262E0
3.618613832E1,-3.199500144E-1,3.460050106E0,7.500000477E0
3.620572673E1,-9.900000691E-2,3.478950262E0,7.681950569E0
3.622531379E1,6.195000187E-2,3.517050266E0,7.816050529E0
3.624490056E1,6.195000187E-2,3.556050062E0,7.912050247E0
3.626448908E1,-1.469999999E-1,3.583950281E0,8.074049950E0
3.628407555E1,-5.209500194E-1,3.631950140E0,8.218050003E0
3.630365916E1,-8.659500480E-1,3.709050179E0,8.275950432E0
3.632323925E1,-1.027950048E0,3.823950291E0,8.284950256E0
3.634282259E1,-9.900000691E-1,3.910050154E0,8.362050056E0
3.636240063E1,-8.659500480E-1,3.996000290E0,8.458050728E0
3.638197240E1,-7.890000343E-1,4.129950047E0,8.581950188E0
3.640154770E1,-8.370000124E-1,4.245000362E0,8.734950066E0
3.642112307E1,-9.040500522E-1,4.303050041E0,8.887950897E0
3.644069845E1,-9.709500670E-1,4.321950436E0,9.031949997E0
3.646027813E1,-1.095000029E0,4.321950436E0,9.098999977E0
3.647985698E1,-1.219950080E0,4.273950100E0,9.109050751E0
3.649943452E1,-1.258050084E0,4.168050289E0,9.271950722E0
3.651901351E1,-1.344000101E0,4.033950329E0,9.750000000E0
3.653858743E1,-1.516950130E0,3.880950212E0,1.059300041E1
3.655816065E1,-1.737000108E0,3.651000261E0,1.161795044E1
3.657773013E1,-1.977000117E0,3.364050150E0,1.229805088E1
3.659729942E1,-2.263950109E0,3.316050053E0,1.224000072E1
3.661687272E1,-2.617950201E0,3.622950077E0,1.164705086E1
3.663644773E1,-2.886000156E0,3.919050217E0,1.096695042E1
3.665602342E1,-2.925000191E0,3.871950150E0,1.052595043E1
3.667560035E1,-2.704050064E0,3.421050072E0,1.033500004E1
3.669517604E1,-2.368950129E0,2.827950239E0,1.015305042E1
3.671474966E1,-2.110949993E0,2.368050098E0,9.789000511E0
3.673432006E1,-2.119950056E0,2.196000099E0,9.280950546E0
3.675389552E1,-2.282999992E0,2.329950094E0,8.850000381E0
3.677347430E1,-2.416950226E0,2.598000050E0,8.611050606E0
3.679304962E1,-2.427000046E0,2.788950205E0,8.581950188E0
3.681262500E1,-2.388000011E0,2.836950064E0,8.745000839E0
3.683220231E1,-2.475000143E0,2.827950239E0,8.917050362E0
3.685177269E1,-2.665950060E0,2.866050243E0,8.830950737E0
3.687133763E1,-2.866950035E0,3.000000238E0,8.505000114E0
3.689090348E1,-2.982000113E0,3.172050238E0,8.247000694E0
3.691047246E1,-2.973000050E0,3.229950190E0,8.256000519E0
3.693004045E1,-2.866950035E0,3.153000116E0,8.437950134E0
3.694960622E1,-2.685000181E0,3.019050121E0,8.572050095E0
3.696917152E1,-2.464950085E0,2.866050243E0,8.515049934E0
3.698874015E1,-2.331000090E0,2.761050224E0,8.218050003E0
3.700830507E1,-2.293050051E0,2.703000069E0,7.845000267E0
3.702786870E1,-2.379000187E0,2.626950026E0,7.585950375E0
3.704743822E1,-2.599050045E0,2.559000015E0,7.519050121E0
3.706700408E1,-2.857950211E0,2.521050215E0,7.557000160E0
3.708657338E1,-3.078000069E0,2.550000191E0,7.642950535E0
3.710614189E1,-3.163950205E0,2.626950026E0,7.777950287E0
3.712571143E1,-3.097050190E0,2.740950108E0,7.930950165E0
3.714528007E1,-2.992050171E0,2.875950098E0,8.017050743E0
3.716484877E1,-2.914950132E0,3.000000238E0,8.017050743E0
3.718441608E1,-2.866950035E0,3.067050219E0,8.065050125E0
3.720398038E1,-2.791050196E0,3.058050156E0,8.295000076E0
3.722354346E1,-2.647050142E0,2.989950180E0,8.620050430E0
3.724311146E1,-2.494050026E0,2.884950161E0,8.830950737E0
3.726268016E1,-2.388000011E0,2.761050224E0,8.782950401E0
3.728224566E1,-2.197050095E0,2.626950026E0,8.629950523E0
3.730180381E1,-1.918950081E0,2.454000235E0,8.745000839E0
3.732136806E1,-1.765950084E0,2.338950157E0,9.348000526E0
3.734093888E1,-1.785000086E0,2.272050142E0,1.042095089E1
3.736050319E1,-1.833000064E0,2.148000002E0,1.173300076E1
3.738006526E1,-1.795050144E0,2.032950163E0,1.295895100E1
3.739963180E1,-1.621950030E0,2.014050007E0,1.373505020E1
3.741919758E1,-1.354050040E0,2.089950085E0,1.383000088E1
3.743876250E1,-1.171950102E0,2.233950138E0,1.333200073E1
3.745832371E1,-1.123950005E0,2.338950157E0,1.264305019E1
3.747788993E1,-1.123950005E0,2.349000216E0,1.210605049E1
3.749745607E1,-1.143000007E0,2.301000118E0,1.173300076E1
3.751702432E1,-1.143000007E0,2.233950138E0,1.137900066E1
3.753659640E1,-1.171950102E0,2.196000099E0,1.101495075E1
3.755615787E1,-1.249050021E0,2.185950041E0,1.058400059E1
3.757572034E1,-1.276950002E0,2.185950041E0,9.970950127E0
3.759528444E1,-1.210050106E0,2.224050045E0,9.252000809E0
3.761484998E1,-1.114950061E0,2.301000118E0,8.601000786E0
3.763441206E1,-1.075950027E0,2.349000216E0,8.140950203E0
3.765397451E1,-1.143000007E0,2.358000040E0,7.834950447E0
3.767353736E1,-1.249050021E0,2.358000040E0,7.663050175E0
3.769309360E1,-1.354050040E0,2.377950191E0,7.633950233E0
3.771265491E1,-1.440000057E0,2.368050098E0,7.806000233E0
3.773222653E1,-1.459050059E0,2.329950094E0,8.179950714E0
3.775179368E1,-1.431000113E0,2.272050142E0,8.544000626E0
3.777135635E1,-1.354050040E0,2.253000021E0,8.716050148E0
3.779092191E1,-1.210050106E0,2.320050001E0,8.686950684E0
3.781048317E1,-9.420000315E-1,2.464050055E0,8.533950806E0
3.783004501E1,-6.640500426E-1,2.635950089E0,8.236949921E0
3.784961210E1,-4.540500343E-1,2.818050146E0,7.854000568E0
3.786917456E1,-3.289500177E-1,3.019050121E0,7.615050316E0
3.788873610E1,-3.010500073E-1,3.181950092E0,7.663050175E0
3.790829833E1,-3.480000198E-1,3.249000072E0,7.864050388E0
3.792786051E1,-4.729500115E-1,3.345000267E0,7.882950306E0
3.794742198E1,-6.360000372E-1,3.535950184E0,7.681950569E0
3.796698046E1,-7.699500322E-1,3.795000076E0,7.441950321E0
3.798654146E1,-8.749500513E-1,4.033950329E0,7.384950161E0
3.800610608E1,-8.749500513E-1,4.197000027E0,7.596000195E0
3.802566791E1,-8.269500136E-1,4.273950100E0,7.978950500E0
3.804523502E1,-8.370000124E-1,4.350000381E0,8.343000412E0
3.806479749E1,-8.850000501E-1,4.446000099E0,8.515049934E0
3.808436267E1,-8.269500136E-1,4.531949997E0,8.620050430E0
3.810392820E1,-6.739500165E-1,4.609050274E0,8.887950897E0
3.812349378E1,-6.450000405E-1,4.609050274E0,9.444000244E0
3.814306055E1,-8.940000534E-1,4.522950172E0,1.020105076E1
3.816262268E1,-1.306050062E0,4.350000381E0,1.084200096E1
3.818219222E1,-1.584000111E0,4.216050148E0,1.109100056E1
3.820175955E1,-1.669950128E0,4.225950241E0,1.101495075E1
3.822132453E1,-1.669950128E0,4.273950100E0,1.077495098E1
3.824088912E1,-1.564950109E0,4.159049988E0,1.056405067E1
3.826045242E1,-1.372950077E0,3.823950291E0,1.059300041E1
3.828001339E1,-1.230000019E0,3.345000267E0,1.076595020E1
3.829957708E1,-1.287000060E0,2.914050102E0,1.072695065E1
3.831913982E1,-1.440000057E0,2.740950108E0,1.037295055E1
3.833870567E1,-1.573950052E0,2.856000185E0,9.931950569E0
3.835827420E1,-1.621950030E0,3.000000238E0,9.636000633E0
3.837784403E1,-1.488000035E0,2.952000141E0,9.492000580E0
3.839742402E1,-1.219950080E0,2.799000025E0,9.433950424E0
3.841699941E1,-9.330000281E-1,2.674050093E0,9.243000031E0
3.843657879E1,-7.510500550E-1,2.598000050E0,8.821050644E0
3.845615481E1,-7.410000563E-1,2.617050171E0,8.371050835E0
3.847572873E1,-9.040500522E-1,2.635950089E0,8.256000519E0
3.849530504E1,-1.066950083E0,2.550000191E0,8.524950027E0
3.851488624E1,-1.048050046E0,2.406000137E0,8.793000221E0
3.853446594E1,-8.370000124E-1,2.329950094E0,8.745000839E0
3.855405265E1,-5.400000215E-1,2.329950094E0,8.410050392E0
3.857364320E1,-2.910000086E-1,2.425050020E0,8.046000481E0
3.859323275E1,-1.469999999E-1,2.569050074E0,7.825050354E0
3.861282044E1,-1.570500135E-1,2.703000069E0,7.681950569E0
3.863240436E1,-2.719500065E-1,2.866050243E0,7.596000195E0
3.865199062E1,-4.249500334E-1,3.048000097E0,7.642950535E0
3.867157647E1,-5.400000215E-1,3.238950253E0,7.777950287E0
3.869116222E1,-5.500500202E-1,3.421050072E0,7.959000587E0
3.871074929E1,-4.350000322E-1,3.526950121E0,8.161050797E0
3.873033884E1,-2.809500098E-1,3.603000164E0,8.380949974E0
3.874993123E1,-2.239500135E-1,3.642000198E0,8.659049988E0
3.876952415E1,-2.620500028E-1,3.594000101E0,9.013050079E0
3.878911360E1,-3.480000198E-1,3.487950087E0,9.328950882E0
3.880870321E1,-4.540500343E-1,3.430950165E0,9.501000404E0
3.882829521E1,-5.400000215E-1,3.430950165E0,9.433950424E0
3.884789061E1,-6.169500351E-1,3.498000145E0,9.223950386E0
3.886748384E1,-7.410000563E-1,3.631950140E0,9.136950493E0
3.888707638E1,-8.269500136E-1,3.718050241E0,9.271950722E0
3.890667546E1,-7.219500542E-1,3.690000057E0,9.607050896E0
3.892627239E1,-4.540500343E-1,3.603000164E0,9.961050034E0
3.894586785E1,-2.140500098E-1,3.441000223E0,1.020105076E1
3.896546715E1,-1.279500127E-1,3.096000195E0,1.063200092E1
3.898505891E1,-2.530499995E-1,2.473050117E0,1.156095028E1
3.900465083E1,-5.879999995E-1,1.822050095E0,1.266195107E1
3.902424570E1,-1.038000107E0,1.506000042E0,1.340895081E1
3.904383554E1,-1.468950033E0,1.602000117E0,1.351395035E1
3.906342692E1,-1.842000127E0,1.879950047E0,1.298805046E1
3.908302223E1,-2.053050041E0,2.023050070E0,1.210605049E1
3.910262170E1,-2.071950197E0,2.004000187E0,1.113000011E1
3.912222140E1,-1.909950137E0,1.936950088E0,1.023900032E1
3.914181762E1,-1.584000111E0,1.899000049E0,9.529950142E0
3.916141863E1,-1.239000082E0,1.927050114E0,9.031949997E0
3.918101084E1,-1.018950105E0,2.023050070E0,8.773950577E0
3.920060960E1,-8.850000501E-1,2.100000143E0,8.668050766E0
3.922020720E1,-8.370000124E-1,2.109000206E0,8.686950684E0
3.923979513E1,-9.520500302E-1,2.119050026E0,8.725950241E0
3.925938344E1,-1.114950061E0,2.137950182E0,8.659049988E0
3.927897267E1,-1.162050009E0,2.148000002E0,8.428950310E0
3.929856813E1,-1.000050068E0,2.167050123E0,8.103000641E0
3.931816136E1,-6.450000405E-1,2.196000099E0,7.882950306E0
3.933775851E1,-2.430000156E-1,2.233950138E0,7.825050354E0
3.935735212E1,-4.050000105E-3,2.320050001E0,7.786950588E0
3.937695059E1,-4.200000316E-2,2.473050117E0,7.642950535E0
3.939654935E1,-1.759500057E-1,2.665050030E0,7.432950497E0
3.941614618E1,-2.340000123E-1,2.818050146E0,7.308000565E0
3.943573910E1,-2.050500065E-1,2.904000044E0,7.404000282E0
3.945533386E1,-2.140500098E-1,2.923050165E0,7.672050476E0
3.947493016E1,-3.289500177E-1,2.943000078E0,8.026950836E0
3.949452777E1,-5.020500422E-1,2.989950180E0,8.371050835E0
3.951412715E1,-6.259500384E-1,3.058050156E0,8.620050430E0
3.953372008E1,-6.259500384E-1,3.153000116E0,8.734950066E0
3.955331609E1,-5.110500455E-1,3.259050131E0,8.697000504E0
3.957291271E1,-3.390000165E-1,3.393000126E0,8.620050430E0
3.959250780E1,-2.430000156E-1,3.508050203E0,8.581950188E0
3.961210804E1,-2.620500028E-1,3.583950281E0,8.668050766E0
3.963170743E1,-3.769500256E-1,3.661050081E0,8.850000381E0
3.965130321E1,-5.590500236E-1,3.747000217E0,8.887950897E0
3.967089767E1,-7.320000529E-1,3.852000237E0,8.649000168E0
3.969049276E1,-9.229500294E-1,3.948000193E0,8.419050217E0
3.971009268E1,-1.171950102E0,3.948000193E0,8.544000626E0
3.972969152E1,-1.287000060E0,3.784950256E0,9.166050911E0
3.974929123E1,-1.000050068E0,3.421050072E0,1.029600048E1
3.976889300E1,-3.679500222E-1,2.866050243E0,1.170405102E1
3.978848786E1,1.009500027E-1,2.272050142E0,1.280595016E1
3.980807772E1,9.105000645E-2,1.783950090E0,1.326495075E1
3.982767219E1,-2.620500028E-1,1.554000020E0,1.309305096E1
3.984726573E1,-7.789500356E-1,1.591950059E0,1.246995068E1
3.986685988E1,-1.324950099E0,1.822050095E0,1.172295094E1
3.988644939E1,-1.717950106E0,2.080950022E0,1.105305099E1
3.990604045E1,-1.822950125E0,2.205000162E0,1.065105057E1
3.992563173E1,-1.728000045E0,2.148000002E0,1.061205006E1
3.994522070E1,-1.584000111E0,1.947000146E0,1.081305027E1
3.996481139E1,-1.525950074E0,1.735950112E0,1.095705032E1
3.998440317E1,-1.584000111E0,1.650000095E0,1.074600029E1
4.000399393E1,-1.660050035E0,1.698000073E0,1.021995068E1
4.002358462E1,-1.612950087E0,1.755000114E0,9.721950531E0
4.004317940E1,-1.420950055E0,1.765050054E0,9.424950600E0
4.006277386E1,-1.230000019E0,1.765050054E0,9.184950829E0
4.008236870E1,-1.153050065E0,1.783950090E0,8.725950241E0
4.010195762E1,-1.201050043E0,1.792950034E0,7.998000145E0
4.012154370E1,-1.354050040E0,1.803000093E0,7.489950180E0
4.014113331E1,-1.507050037E0,1.783950090E0,7.393950462E0
4.016072276E1,-1.468950033E0,1.687950134E0,7.633950233E0
4.018031453E1,-1.201050043E0,1.621050119E0,8.122050285E0
4.019990471E1,-8.749500513E-1,1.602000117E0,8.668050766E0
4.021948842E1,-6.450000405E-1,1.543950081E0,8.935950279E0
4.023906443E1,-5.879999995E-1,1.591950059E0,8.821050644E0
4.025863947E1,-7.120500207E-1,1.783950090E0,8.533950806E0
4.027821309E1,-8.560500145E-1,1.975050092E0,8.284950256E0
4.029778624E1,-8.179500103E-1,2.128950119E0,8.209050179E0
4.031735978E1,-5.879999995E-1,2.224050045E0,8.323050499E0
4.033693116E1,-3.100500107E-1,2.310000181E0,8.533950806E0
4.035650294E1,-9.000000358E-2,2.416050196E0,8.754000664E0
4.037607372E1,1.200000048E-1,2.502000093E0,8.878950119E0
4.039565363E1,3.109500110E-1,2.587950230E0,8.878950119E0
4.041522193E1,3.589500189E-1,2.665050030E0,8.898000717E0
4.043479186E1,2.830500007E-1,2.694000244E0,9.003000259E0
4.045436286E1,1.960500032E-1,2.683950186E0,9.175950050E0
4.047393032E1,2.730000019E-1,2.694000244E0,9.367050171E0
4.049350109E1,3.880500197E-1,2.751000166E0,9.415050507E0
4.051306724E1,3.310500085E-1,2.770050049E0,9.291000366E0
4.053263493E1,1.770000011E-1,2.761050224E0,9.262050629E0
4.055220017E1,1.009500027E-1,2.799000025E0,9.492000580E0
4.057176899E1,1.960500032E-1,2.808000088E0,9.990000725E0
4.059133890E1,4.170000255E-1,2.740950108E0,1.052595043E1
4.061090411E1,6.370500326E-1,2.550000191E0,1.106205082E1
4.063047511E1,8.190000653E-1,2.377950191E0,1.167495060E1
4.065004997E1,9.910500646E-1,2.253000021E0,1.228800011E1
4.066962251E1,1.231050014E0,2.137950182E0,1.273800087E1
4.068919363E1,1.498950124E0,2.089950085E0,1.286295033E1
4.070876401E1,1.699950099E0,2.100000143E0,1.262400055E1
4.072833548E1,1.825050116E0,2.071050167E0,1.205895042E1
4.074791056E1,1.891950130E0,1.975050092E0,1.140705013E1
4.076748186E1,1.825050116E0,1.831950068E0,1.093800068E1
4.078704988E1,1.614000082E0,1.717050076E0,1.064100075E1
4.080661665E1,1.374000072E0,1.687950134E0,1.044000053E1
4.082619150E1,1.297950029E0,1.744950056E0,1.018095016E1
4.084576096E1,1.354950070E0,1.851000071E0,9.769950867E0
4.086533388E1,1.336050034E0,1.984950066E0,9.262050629E0
4.088490657E1,1.212000012E0,2.004000187E0,8.812050819E0
4.090447642E1,9.340500236E-1,2.032950163E0,8.515049934E0
4.092404813E1,6.270000339E-1,2.157000065E0,8.447999954E0
4.094361666E1,5.320500135E-1,2.310000181E0,8.284950256E0
4.096318594E1,7.230000496E-1,2.290950060E0,7.825050354E0
4.098276377E1,7.620000243E-1,2.320050001E0,7.441950321E0
4.100234463E1,4.450500309E-1,2.530950069E0,7.393950462E0
4.102192772E1,2.059500068E-1,2.539950132E0,7.567050457E0
4.104151202E1,2.730000019E-1,2.425050020E0,7.690950394E0
4.106109024E1,4.930500090E-1,2.377950191E0,7.729950428E0
4.108067293E1,6.469500065E-1,2.454000235E0,7.681950569E0
4.110025538E1,6.660000086E-1,2.598000050E0,7.557000160E0
4.111984276E1,5.700000525E-1,2.751000166E0,7.366050243E0
4.113942397E1,3.979500234E-1,2.875950098E0,7.251000404E0
4.115900704E1,3.310500085E-1,2.989950180E0,7.336950302E0
