"Time (s)","Acceleration x (m/s^2)","Acceleration y (m/s^2)","Acceleration z (m/s^2)"
1.226824400E-2,-3.088520288E0,4.137180328E0,6.169857979E0
3.228919500E-2,-2.487575531E0,4.776432514E0,7.010222435E0
5.227822300E-2,-3.974374831E-1,3.327940464E0,9.545681953E0
7.226809700E-2,-4.070143029E-2,2.482787132E0,1.077630138E1
9.228689400E-2,-2.030282974E0,3.141192675E0,1.033576870E1
1.122739990E-1,-3.552995205E0,3.543418407E0,9.581595421E0
1.322651040E-1,-3.430891037E0,3.447650433E0,9.157821655E0
1.522848260E-1,-2.001552582E0,2.990357876E0,8.607154846E0
1.722724690E-1,-1.637633920E0,3.057395458E0,8.250418663E0
1.922915740E-1,-2.008735180E0,3.555389643E0,9.270348549E0
2.122827560E-1,-1.280897856E0,3.423708439E0,9.042900085E0
2.322703990E-1,-9.481038451E-1,3.315969467E0,8.439560890E0
2.522904270E-1,-1.470039845E0,3.655946016E0,8.140285492E0
2.722799940E-1,-1.685518026E0,3.667917013E0,8.085219383E0
2.922681000E-1,-1.675941229E0,3.529053211E0,7.814674377E0
3.122893590E-1,-1.965639591E0,3.682282209E0,8.382100105E0
3.322752330E-1,-1.647210717E0,3.464409828E0,8.619126320E0
3.522653380E-1,-1.434126854E0,3.414131641E0,8.530540466E0
3.722866740E-1,-1.692700624E0,3.517082214E0,8.276755333E0
3.922750090E-1,-1.740584612E0,3.368641853E0,8.063671112E0
4.122941140E-1,-1.685518026E0,3.208230257E0,8.257601738E0
4.322839880E-1,-1.632845521E0,3.107673883E0,8.640673637E0
4.522740940E-1,-1.453280449E0,3.035847664E0,8.971074104E0
4.722920460E-1,-1.283292055E0,3.126827478E0,9.117119789E0
4.922821500E-1,-1.537077546E0,3.083731890E0,9.519346237E0
5.122687170E-1,-1.800439715E0,3.033453465E0,1.018732834E1
5.322899760E-1,-1.690306425E0,3.045424461E0,1.131260300E1
5.522780040E-1,-7.493851185E-1,2.758120298E0,1.284489250E1
5.722666470E-1,1.364694983E-1,2.525882721E0,1.320881081E1
5.922865980E-1,3.471592367E-1,2.097320795E0,1.206677628E1
6.122771660E-1,2.777273953E-1,2.063801765E0,1.119049835E1
6.322648090E-1,-1.460463107E-1,2.612074137E0,1.185848141E1
6.522839140E-1,6.105214357E-1,2.207453966E0,1.363497829E1
6.722731730E-1,1.259350061E0,1.407790542E0,1.426225948E1
6.922935090E-1,7.350199223E-1,1.086967587E0,1.336203957E1
7.122815370E-1,5.746084079E-2,1.036689281E0,1.122162342E1
7.322702570E-1,-2.873042040E-2,1.199495077E0,8.391676903E0
7.522905930E-1,2.130839527E-1,1.608903527E0,9.404424667E0
7.722785450E-1,8.667010069E-1,1.412579060E0,8.710105896E0
7.922675730E-1,7.110779285E-1,2.082955360E0,1.010831928E1
8.122885240E-1,3.327940404E-1,1.501164436E0,8.997409821E0
8.322777060E-1,5.147533417E-1,5.650315881E-1,7.675810814E0
8.522661190E-1,1.029506698E-1,7.541735172E-1,7.694964409E0
8.722857620E-1,1.029506698E-1,1.053448796E0,7.603984833E0
8.922747130E-1,-1.015141487E0,1.654393315E0,7.584830761E0
9.122948190E-1,-1.106121182E0,1.802833915E0,6.076483727E0
9.322846170E-1,2.011129409E-1,1.338358760E0,5.324704647E0
9.522733370E-1,2.092532396E0,1.795651317E-1,8.420407295E0
9.722932880E-1,-1.197100803E-2,1.484405100E-1,9.332598686E0
9.922813930E-1,-1.379060149E0,5.578489900E-1,9.811438560E0
1.012268190E0,-1.173158884E0,9.576806799E-3,1.020408726E1
1.032291218E0,-7.302315235E-1,-4.979939461E-1,1.031900978E1
1.052278708E0,8.379705995E-2,-4.979939461E-1,9.478644371E0
1.072269506E0,4.237737060E-1,1.915361360E-2,8.908824921E0
1.092287996E0,-1.628057212E-1,9.074024558E-1,9.794678688E0
1.112277178E0,-7.062895298E-1,1.142034173E0,1.002452278E1
1.132266206E0,-7.781155705E-1,4.812345505E-1,9.854534149E0
1.152285849E0,-8.930372596E-1,1.029506698E-1,9.406818390E0
1.172274800E0,-7.733271718E-1,-2.849099934E-1,1.079545593E1
1.192294828E0,-5.075707436E-1,4.118026793E-1,1.175792408E1
1.212284703E0,-6.272808313E-1,1.702277422E0,1.096304989E1
1.232272809E0,2.274491638E-1,8.307880163E-1,9.763554573E0
1.252290991E0,2.705447972E-1,3.519476354E-1,9.756371498E0
1.272281096E0,-7.541735172E-1,6.991068721E-1,1.091037750E1
1.292269739E0,-1.424550056E0,5.506663918E-1,1.113782597E1
1.312291613E0,-1.288080573E0,5.291185975E-1,1.159272480E1
1.332278410E0,-6.823474765E-1,5.602431893E-1,1.252646351E1
1.352268054E0,-3.375824392E-1,-1.197100803E-2,1.337161636E1
1.372287159E0,-5.889736414E-1,-6.512228847E-1,1.337879944E1
1.392275496E0,-1.525106430E0,-6.655880809E-1,1.222000504E1
1.412293985E0,-1.795651317E-1,-1.750161409E0,1.111149025E1
1.432286859E0,-3.399766386E-1,-6.631938815E-1,9.631873131E0
1.452273657E0,-8.451532125E-1,9.074024558E-1,8.295908928E0
1.472292146E0,-3.998316824E-1,1.156399369E0,7.850587368E0
1.492283943E0,3.112462163E-2,8.882488012E-1,7.996633530E0
1.512271972E0,-5.722141862E-1,9.624691010E-1,7.939172745E0
1.532291384E0,-8.044517636E-1,1.007958889E0,7.941566944E0
1.552278798E0,-7.422025204E-1,1.122880578E0,8.200140953E0
1.572269211E0,-6.847416759E-1,1.443703651E0,7.769184589E0
1.592289854E0,-4.525041282E-1,1.654393315E0,7.278373241E0
1.612276420E0,-2.609679997E-1,1.604115129E0,6.919242859E0
1.632266218E0,-1.268926859E-1,1.434126854E0,7.398083210E0
1.652285092E0,-7.302315235E-1,1.453280449E0,8.259995461E0
1.672274274E0,-1.098938584E0,1.453280449E0,8.614337921E0
1.692293687E0,-5.051765442E-1,1.233013868E0,8.180987358E0
1.712280562E0,6.703764945E-2,1.400607944E0,7.860164165E0
1.732273205E0,-5.746084079E-2,1.936909199E0,7.479485989E0
1.752290772E0,-5.985504389E-2,1.980004787E0,7.694964409E0
1.772282492E0,9.816227108E-2,1.948880196E0,8.350975990E0
1.792269597E0,-1.149216816E-1,2.252943754E0,8.911218643E0
1.812292010E0,-2.609679997E-1,2.221819162E0,8.777143478E0
1.832278192E0,-4.213795066E-1,2.099714994E0,8.760383606E0
1.852267527E0,-5.770025849E-1,1.781286120E0,9.481039047E0
1.872289018E0,-7.469909191E-1,1.450886250E0,1.083855152E1
1.892277738E0,-7.685387731E-1,1.017535686E0,1.201410389E1
1.912297382E0,-1.891419291E-1,8.547300100E-1,1.238041687E1
1.932284256E0,8.690952063E-1,1.331176162E0,1.241633034E1
1.952275669E0,1.058237195E0,1.721431017E0,1.247618484E1
1.972292850E0,6.991068721E-1,1.719036818E0,1.251928043E1
1.992285186E0,5.027823523E-2,1.565807939E0,1.173158836E1
2.012271138E0,-9.217676520E-1,1.649604917E0,1.126950741E1
2.032290859E0,-1.819593310E-1,1.326387763E0,1.187763500E1
2.052278502E0,1.266532660E0,4.165911078E-1,1.412339592E1
2.072269992E0,2.140416384E0,-3.040636182E-1,1.569159794E1
2.092290020E0,1.680729628E0,-1.091755986E0,1.524388218E1
2.112279509E0,3.543418646E-1,-1.206677675E0,1.348174953E1
2.132266614E0,-1.077390760E-1,-6.775590777E-1,1.071884060E1
2.152287873E0,2.298433632E-1,1.460463107E-1,8.444349289E0
2.172277441E0,9.313444495E-1,1.036689281E0,8.377311707E0
2.192295699E0,1.450886250E0,1.651999116E0,9.124302864E0
2.212286420E0,1.369483352E0,1.625662923E0,8.841787338E0
2.232273909E0,6.895300746E-1,1.434126854E0,7.335834026E0
2.252292014E0,1.843535304E-1,1.347935557E0,6.165069580E0
2.272281273E0,3.351882473E-2,1.465251446E0,6.361393929E0
2.292273378E0,3.782838583E-1,1.582567334E0,6.830657482E0
2.312291791E0,9.696516991E-1,1.455674648E0,6.658275127E0
2.332281051E0,1.043871999E0,1.529894829E0,6.028599739E0
2.352267925E0,4.836287498E-1,1.824381709E0,5.585672379E0
2.372287337E0,-1.197100878E-1,1.831564307E0,5.975927353E0
2.392277750E0,-7.733271718E-1,1.889025092E0,6.916848660E0
2.412266086E0,-6.368576288E-1,1.872265697E0,7.141903877E0
2.432283422E0,-5.386953950E-1,2.111685991E0,7.364564419E0
2.452273527E0,-4.405331016E-1,2.286462545E0,7.910442352E0
2.472292708E0,-1.046266198E0,2.446874142E0,8.853757858E0
2.492285353E0,-1.084573388E0,2.181117773E0,9.780313492E0
2.512274227E0,-1.029506683E0,2.238578558E0,9.686940193E0
2.532290024E0,-1.067813993E0,2.607285738E0,9.825803757E0
2.552281668E0,-8.068459630E-1,2.655169725E0,1.106839466E1
2.572271927E0,-7.805097699E-1,2.260126352E0,1.222479343E1
2.592287262E0,-1.307234168E0,1.879448295E0,1.286404610E1
2.612277444E0,-1.877054095E0,1.723825216E0,1.267250919E1
2.632299704E0,-2.494758129E0,2.329558372E0,1.176271248E1
2.652286501E0,-1.821987510E0,2.499546528E0,1.149695683E1
2.672274222E0,-7.733271718E-1,2.698265314E0,1.157117653E1
2.692297557E0,7.230489254E-1,2.542642117E0,1.234210968E1
2.712285893E0,2.226607651E-1,1.656787634E0,1.413776112E1
2.732274921E0,-6.033388376E-1,7.829039693E-1,1.421437550E1
2.752293411E0,-1.364694953E0,3.184288144E-1,1.281855583E1
2.772282054E0,-1.307234168E0,6.153098345E-1,1.069250488E1
2.792271928E0,-7.517793179E-1,1.237802267E0,9.174580574E0
2.812293188E0,-2.633621991E-1,1.453280449E0,9.167398453E0
2.832282062E0,-3.303998411E-1,1.065419793E0,9.828198433E0
2.852272321E0,-8.810662031E-1,6.727706790E-1,9.703699112E0
2.872292657E0,-1.242590666E0,6.081272364E-1,8.394071579E0
2.892277531E0,-1.012747288E0,7.110779285E-1,6.892906666E0
2.912297328E0,-5.123591423E-1,1.070208192E0,5.633556366E0
2.932286587E0,-5.315127969E-1,1.529894829E0,5.310339451E0
2.952277078E0,-4.237737060E-1,1.678335428E0,5.837063789E0
2.972293721E0,-4.333505034E-1,1.637633920E0,5.980715752E0
2.992284826E0,-5.626373887E-1,1.821987510E0,5.810727596E0
3.012273393E0,-5.961562395E-1,2.090138197E0,6.409277916E0
3.032294421E0,-5.434837937E-1,2.205059767E0,8.406042099E0
3.052283680E0,-6.775590777E-1,2.138022184E0,9.770736694E0
3.072269785E0,-4.788403511E-1,2.068590164E0,9.481039047E0
3.092287659E0,-1.939303428E-1,2.379836559E0,9.512163162E0
3.112280303E0,-1.747767180E-1,2.559401512E0,1.003170490E1
3.132270485E0,-3.591302633E-1,2.504334927E0,1.016578007E1
3.152285359E0,-5.315127969E-1,2.501940727E0,1.009634876E1
3.172277311E0,-2.849099934E-1,2.473210335E0,1.013704967E1
3.192296723E0,-2.298433632E-1,2.264914751E0,1.053688145E1
3.212287828E0,-2.466027737E-1,1.922544003E0,1.165976238E1
3.232274702E0,8.379705995E-2,1.716642618E0,1.260307789E1
3.252292577E0,-2.489969730E-1,1.766920805E0,1.276588345E1
3.272282990E0,-1.699883193E-1,2.015917778E0,1.133654499E1
3.292272557E0,6.512228847E-1,2.324769735E0,1.013465595E1
3.312291431E0,1.762132406E0,2.585737944E0,1.097262669E1
3.332280921E0,2.485181332E0,2.856282711E0,1.224634171E1
3.352271718E0,2.047042370E0,1.812410712E0,1.305797577E1
3.372289592E0,1.029506683E0,1.127668977E0,1.236844635E1
3.392276158E0,3.423708379E-1,6.320692301E-1,1.112585545E1
3.412299263E0,-2.705447972E-1,7.158663273E-1,1.010353088E1
3.432289139E0,-7.996633649E-1,1.482010841E0,9.368511200E0
3.452275244E0,-9.409212470E-1,2.121262789E0,8.406042099E0
3.472292579E0,-4.692635238E-1,2.291250944E0,8.140285492E0
3.492285838E0,2.418143749E-1,2.233790159E0,8.269572258E0
3.512274097E0,9.648633003E-1,1.728613615E0,8.279149055E0
3.532291125E0,1.077390790E0,1.541865945E0,8.281543732E0
3.552283384E0,5.099649429E-1,1.635239720E0,8.001421928E0
3.572271181E0,-2.154781483E-2,2.104503393E0,7.709329605E0
3.592290903E0,-2.394201700E-3,2.250549555E0,7.402871609E0
3.612279777E0,-1.484405100E-1,2.458845139E0,7.563282967E0
3.632269651E0,-1.070208192E0,2.398990154E0,7.055712223E0
3.652288217E0,-4.908113480E-1,2.901772499E0,7.247248650E0
3.672278015E0,-3.998316824E-1,3.222595453E0,7.264008045E0
3.692299043E0,4.237737060E-1,3.476380825E0,7.292738438E0
3.712286994E0,1.244984865E-1,3.828328609E0,7.151480675E0
3.732275330E0,-1.915361360E-2,4.062960148E0,7.750030994E0
3.752295436E0,4.884171486E-1,3.787626982E0,8.403648376E0
3.772284387E0,-3.399766386E-1,3.517082214E0,8.631096840E0
3.792275184E0,-2.147598982E0,4.043806553E0,9.066842079E0
3.812293981E0,-2.528276920E0,4.118026733E0,9.500192642E0
3.832282855E0,-1.764526606E0,3.634398222E0,1.005085850E1
3.852271884E0,-1.537077546E0,3.203441858E0,1.137964058E1
3.872290296E0,-1.675941229E0,2.837129116E0,1.210987186E1
3.892280787E0,-2.480392933E0,2.956839085E0,1.213620853E1
3.912300815E0,-3.251325846E0,3.646369219E0,1.182256794E1
3.932288843E0,-3.136404276E0,3.677493811E0,1.117613316E1
3.952277256E0,-2.439691544E0,3.169923067E0,1.159033012E1
3.972296284E0,-2.272097349E0,2.595314741E0,1.167652130E1
3.992286235E0,-2.547430515E0,2.518700123E0,1.142752457E1
4.012273878E0,-2.398990154E0,2.573766708E0,1.031182671E1
4.032296137E0,-1.941697598E0,2.633621931E0,9.143456459E0
4.052284704E0,-2.030282974E0,2.631227732E0,8.078036308E0
4.072271579E0,-2.430114746E0,2.427720547E0,7.884106159E0
4.092294914E0,-2.853888512E0,2.501940727E0,7.723694801E0
4.112280250E0,-2.561795712E0,2.451662540E0,7.668628216E0
4.132270432E0,-1.711854219E0,2.339135170E0,7.726089001E0
4.152290152E0,-8.882488012E-1,2.353500366E0,7.860164165E0
4.172279642E0,-5.506663918E-1,2.547430515E0,8.157045364E0
4.192299747E0,7.422025502E-2,2.614468336E0,7.730877399E0
4.212287391E0,6.560112834E-1,2.442085743E0,7.553706169E0
4.232277035E0,1.484405100E-1,2.343923569E0,6.924031258E0
4.252295447E0,-6.655880809E-1,2.487575531E0,6.591237068E0
4.272283168E0,-1.326387763E0,2.822763920E0,6.926425457E0
4.292273119E0,-1.879448295E0,2.956839085E0,6.646304131E0
4.312293685E0,-1.805228114E0,3.126827478E0,6.615179062E0
4.332283252E0,-1.604115129E0,3.119644880E0,6.971915245E0
4.352271895E0,-1.424550056E0,3.181894064E0,8.389283180E0
4.372292617E0,-1.393425345E0,3.371036053E0,9.581595421E0
4.392279414E0,-1.328781962E0,3.466804028E0,1.112346077E1
4.412300057E0,-7.829039693E-1,3.361459255E0,1.256955910E1
4.432288393E0,-3.711012602E-1,2.885013103E0,1.298375607E1
4.452277267E0,-5.339069963E-1,2.554613113E0,1.253604031E1
4.472297911E0,-7.086837292E-1,2.552218914E0,1.201410389E1
4.492288093E0,-8.451532125E-1,2.693476915E0,1.185129833E1
4.512273967E0,-6.823474765E-1,2.820369720E0,1.148259163E1
4.532295227E0,-2.992752194E-1,2.913743496E0,1.165736771E1
4.552285409E0,1.053448766E-1,2.839523315E0,1.241633034E1
4.572273129E0,4.094084799E-1,2.106897593E0,1.314895535E1
4.592293465E0,2.442085743E-1,1.323993564E0,1.290953541E1
4.612282185E0,-4.548983276E-2,1.613691926E0,1.327345467E1
4.632271367E0,-9.361328483E-1,1.726219416E0,1.107078838E1
4.652289857E0,-1.867477298E-1,1.960851192E0,9.823410034E0
4.672279808E0,6.919242740E-1,2.238578558E0,8.927978516E0
4.692299529E0,7.637503147E-1,2.827552319E0,8.145073891E0
4.712289019E0,5.482721925E-1,3.280056238E0,7.314286232E0
4.732276816E0,7.469909191E-1,3.284844637E0,6.823474884E0
4.752296229E0,1.443703651E0,3.208230257E0,6.205770969E0
4.772286026E0,9.672574997E-1,3.021482468E0,5.798756599E0
4.792273208E0,-7.661445439E-2,2.794033289E0,5.674258232E0
4.812294697E0,-6.272808313E-1,2.576161146E0,6.019022942E0
4.832283726E0,-7.757213712E-1,2.671929121E0,6.366182327E0
4.852270754E0,-7.182605267E-1,2.710236311E0,6.818686485E0
4.872289936E0,-6.224924326E-1,2.643198729E0,7.536946774E0
4.892281041E0,-7.781155705E-1,2.820369720E0,8.073247910E0
4.912302300E0,-9.481038451E-1,2.947262287E0,8.377311707E0
4.932290944E0,-1.221042871E0,3.117250681E0,8.394071579E0
4.952277972E0,-1.110909581E0,3.380612850E0,8.336610794E0
4.972299307E0,-8.954314590E-1,3.655946016E0,8.841787338E0
4.992287336E0,-1.252167463E0,4.204218388E0,9.490615845E0
5.012276595E0,-1.496376038E0,4.218583584E0,1.008677197E1
5.032294162E0,-1.443703651E0,4.046200752E0,1.056800652E1
5.052284036E0,-1.498770237E0,3.871424198E0,1.072362900E1
5.072271372E0,-1.867477298E0,3.811569214E0,1.079545593E1
5.092293861E0,-2.240972757E0,3.574543238E0,1.071644688E1
5.112282505E0,-2.485181332E0,3.222595453E0,1.047702694E1
5.132272763E0,-2.930502892E0,3.189076662E0,1.018014526E1
5.152290639E0,-3.270479441E0,3.330334663E0,1.056082344E1
5.172277744E0,-3.311181068E0,3.354276657E0,1.110909557E1
5.192300233E0,-2.887407303E0,3.145981073E0,1.134612179E1
5.212287261E0,-1.874659896E0,2.494758129E0,1.116895103E1
5.232276520E0,-6.272808313E-1,2.181117773E0,1.127908421E1
5.252296548E0,-4.979939461E-1,1.752555609E0,1.160230160E1
5.272285576E0,-7.422025204E-1,1.963245392E0,1.095826149E1
5.292276681E0,-1.043871999E0,1.989581585E0,9.854534149E0
5.312296710E0,-9.002198577E-1,2.099714994E0,9.196128845E0
5.332283431E0,-8.906430602E-1,2.616862535E0,8.025363922E0
5.352272382E0,-8.858546019E-1,3.004723072E0,7.328651428E0
5.372290948E0,-4.932055473E-1,2.925714493E0,6.773196697E0
5.392280130E0,-2.992752194E-1,2.810792685E0,6.845022678E0
5.412300543E0,-2.202665508E-1,2.707842112E0,7.094019413E0
5.432290648E0,-4.405331016E-1,2.590526342E0,7.592013359E0
5.452278445E0,-7.493851185E-1,2.339135170E0,7.402871609E0
5.472299089E0,-8.451532125E-1,2.166752577E0,7.168240070E0
5.492285887E0,-1.118092179E0,2.506729126E0,7.517793179E0
5.512278222E0,-1.024718285E0,2.688688517E0,7.915230751E0
5.532297558E0,-1.144428372E0,2.647987127E0,7.319074631E0
5.552287740E0,-1.247379065E0,2.612074137E0,7.268796444E0
5.572276076E0,-1.623268723E0,2.829946518E0,7.352593422E0
5.592294565E0,-1.374271750E0,3.289633036E0,8.554482460E0
5.612283286E0,-9.768342972E-1,3.679888010E0,9.275136948E0
5.632271238E0,-9.361328483E-1,3.864241600E0,9.691728592E0
5.652292189E0,-1.187524080E0,3.718195200E0,1.094150162E1
5.672280525E0,-1.118092179E0,3.251325846E0,1.139640045E1
5.692300861E0,-1.261744261E0,3.179499865E0,1.198776817E1
5.712289196E0,-1.362300754E0,3.347094059E0,1.213860226E1
5.732277609E0,-1.094150186E0,3.387795448E0,1.130542088E1
5.752296637E0,-7.110779285E-1,3.459621429E0,1.078827286E1
5.772290589E0,-1.484405100E-1,3.519476414E0,1.118570995E1
5.792277925E0,-6.272808313E-1,3.263296843E0,1.093671322E1
5.812292722E0,-8.092401624E-1,2.899378300E0,1.124077702E1
5.832284827E0,-7.350199223E-1,2.935291290E0,1.134372807E1
5.852274932E0,-5.937620401E-1,3.011905670E0,1.074278259E1
5.872291345E0,-4.979939461E-1,2.501940727E0,9.387664795E0
5.892282988E0,-8.283938169E-1,2.688688517E0,8.734047890E0
5.912300555E0,-1.280897856E0,3.244143248E0,8.362946510E0
5.932292661E0,-7.158663273E-1,3.349488258E0,8.530540466E0
5.952280919E0,-9.576806799E-3,3.174711466E0,8.470685959E0
5.972300024E0,7.182605099E-3,3.165134668E0,7.989450932E0
5.992291129E0,-4.094084799E-1,3.251325846E0,7.149086475E0
6.012277927E0,-6.153098345E-1,3.002328873E0,6.701370716E0
6.032294647E0,-8.882488012E-1,2.817975283E0,6.785167694E0
6.052286906E0,-1.154005170E0,2.822763920E0,7.481880188E0
6.072275934E0,-1.443703651E0,2.796427488E0,7.850587368E0
6.092294348E0,-1.513135433E0,2.794033289E0,7.733271599E0
6.112285145E0,-1.391031146E0,2.851494312E0,7.266402245E0
6.132274711E0,-1.182735682E0,3.009511471E0,7.077260017E0
6.152291739E0,-1.139639974E0,3.167528868E0,7.105990410E0
6.172282460E0,-1.233013868E0,3.445256233E0,7.417236805E0
6.192302565E0,-1.477222443E0,3.653551817E0,7.656657219E0
6.212289593E0,-1.889025092E0,4.074931145E0,8.286332130E0
6.232280775E0,-2.315192938E0,4.515464306E0,8.975862503E0
6.252299496E0,-2.504334927E0,4.747702122E0,9.828198433E0
6.272288755E0,-2.126051188E0,4.687847137E0,1.071644688E1
6.292275860E0,-1.685518026E0,4.271255970E0,1.160948372E1
6.312295965E0,-1.874659896E0,3.785232782E0,1.190397072E1
6.332285839E0,-2.726995707E0,3.751713991E0,1.128626728E1
6.352273790E0,-3.423708439E0,3.974374771E0,1.066377449E1
6.372292357E0,-3.102885485E0,4.017470360E0,1.105163479E1
6.392284308E0,-2.750937700E0,3.983951569E0,1.257195282E1
6.412303414E0,-2.410961151E0,3.160346270E0,1.364216137E1
6.432290288E0,-2.322375536E0,2.200271368E0,1.278503704E1
6.452280162E0,-2.202665567E0,1.345541358E0,1.064701462E1
6.472299882E0,-3.150769472E0,2.042253971E0,8.568847656E0
6.492289987E0,-3.275267839E0,2.736572504E0,8.149862289E0
6.512278708E0,-2.552218914E0,2.964021683E0,8.722076416E0
6.532298659E0,-1.728613615E0,3.011905670E0,9.502586365E0
6.552287611E0,-1.362300754E0,2.712630510E0,9.105149269E0
6.572275331E0,-1.599326730E0,2.331952572E0,7.726089001E0
6.592295129E0,-1.944091797E0,2.243366957E0,6.706159115E0
6.612285618E0,-1.800439715E0,2.427720547E0,6.433219910E0
6.632273646E0,-1.350329757E0,2.554613113E0,6.947973251E0
6.652291751E0,-9.816226959E-1,2.525882721E0,7.426813602E0
6.672282549E0,-9.648633003E-1,2.367865562E0,7.359776020E0
6.692301115E0,-1.276109457E0,2.286462545E0,6.876147270E0
6.712291913E0,-1.833958507E0,2.389413357E0,6.634333134E0
6.732281403E0,-2.109291792E0,2.461239338E0,6.883329868E0
6.752300277E0,-1.704671621E0,2.343923569E0,7.153874874E0
6.772289151E0,-1.326387763E0,2.470816135E0,7.151480675E0
6.792278410E0,-1.285686255E0,2.602497339E0,7.393294811E0
6.812297284E0,-1.537077546E0,2.820369720E0,8.166622162E0
6.832286543E0,-1.448492050E0,2.767697096E0,9.275136948E0
6.852278264E0,-1.213860273E0,2.552218914E0,1.024239445E1
6.872295754E0,-9.217676520E-1,2.291250944E0,1.135330486E1
6.892282936E0,-9.217676520E-1,2.063801765E0,1.236844635E1
6.912303195E0,-1.187524080E0,1.853112102E0,1.287362289E1
6.932291531E0,-1.338358760E0,1.805228114E0,1.232535076E1
6.952281097E0,-1.206677675E0,2.087743998E0,1.107557678E1
6.972300202E0,-1.091755986E0,2.643198729E0,1.046984386E1
6.992290769E0,-8.092401624E-1,3.153163671E0,1.073081207E1
7.012279027E0,2.753331959E-1,2.516305923E0,1.143470764E1
7.032298749E0,1.223437071E0,3.385401249E0,1.222000504E1
7.052287392E0,1.403002143E0,3.177105665E0,1.276588345E1
7.072278882E0,4.596867263E-1,2.707842112E0,1.211466026E1
7.092295217E0,-9.097966552E-1,2.413355350E0,1.053927612E1
7.112286015E0,-2.039859772E0,2.470816135E0,9.514557838E0
7.132276504E0,-2.217030764E0,2.698265314E0,9.593565941E0
7.152292148E0,-1.323993564E0,2.588132143E0,9.888052940E0
7.172282714E0,-8.547300100E-1,2.224213362E0,9.442731857E0
7.192304282E0,-7.589619160E-1,2.169146776E0,7.999027729E0
7.212291310E0,-7.589619160E-1,2.262520552E0,6.651092529E0
7.232279722E0,-8.092401624E-1,2.262520552E0,6.667851925E0
7.252300366E0,-7.350199223E-1,2.140416384E0,7.376535416E0
7.272288625E0,-4.932055473E-1,1.879448295E0,7.343016624E0
7.292276960E0,-4.955997467E-1,1.915361404E0,6.691793919E0
7.312295835E0,-1.046266198E0,2.482787132E0,6.059724331E0
7.332284786E0,-1.185129881E0,2.901772499E0,5.846640587E0
7.352276199E0,-8.379706144E-1,2.849100113E0,6.009446144E0
7.372295843E0,-8.595184088E-1,3.371036053E0,6.272808552E0
7.392284486E0,-1.321599364E0,4.036623955E0,6.758831501E0
7.412303284E0,-1.893813491E0,4.331110954E0,7.735665798E0
7.432290696E0,-2.061407566E0,4.467580318E0,9.114726067E0
7.452283724E0,-1.738190413E0,4.453215122E0,9.991003990E0
7.472302137E0,-1.556231141E0,4.307168961E0,1.046984386E1
7.492290166E0,-1.606509328E0,4.216189384E0,1.086967564E1
7.512277656E0,-1.951274395E0,4.326322556E0,1.138442898E1
7.532299530E0,-2.147598982E0,4.007893562E0,1.146104336E1
7.552289942E0,-2.583343744E0,3.732560396E0,1.062786102E1
7.572279278E0,-3.035847664E0,3.742137194E0,1.001973438E1
7.592300460E0,-3.392583847E0,3.895366192E0,1.001015759E1
7.612286411E0,-3.383007050E0,3.756502390E0,1.113064384E1
7.632275593E0,-2.559401512E0,3.275267839E0,1.197579670E1
7.652295084E0,-1.975216389E0,2.430114746E0,1.232056236E1
7.672284343E0,-2.513911724E0,1.833958507E0,1.199495029E1
7.692304601E0,-3.452438831E0,1.716642618E0,1.105402946E1
7.712292629E0,-2.971204281E0,1.084573388E0,9.694122314E0
7.732280734E0,-2.451662540E0,1.721431017E0,8.657433510E0
7.752300070E0,-2.686294317E0,3.038241863E0,8.142680168E0
7.772289329E0,-1.793257117E0,3.007117271E0,8.010998726E0
7.792277357E0,-1.513135433E0,2.571372509E0,8.099584579E0
7.812298924E0,-1.939303398E0,2.554613113E0,7.879317760E0
7.832288260E0,-2.006340981E0,2.580949545E0,7.457938194E0
7.852277442E0,-1.642422318E0,2.549824715E0,7.445967197E0
7.872297778E0,-1.312022567E0,2.547430515E0,7.742848396E0
7.892283960E0,-1.070208192E0,2.564189911E0,7.460332394E0
7.912305219E0,-1.048660398E0,2.523488522E0,6.880935669E0
7.932296400E0,-1.297657371E0,2.509123325E0,6.461950302E0
7.952282198E0,-1.616086125E0,2.865859509E0,6.665457726E0
7.972303150E0,-1.589749932E0,2.492363930E0,6.512228489E0
7.992292178E0,-1.565807939E0,2.482787132E0,6.801927090E0
8.012280744E0,-1.539471745E0,2.557007313E0,7.141903877E0
8.032300772E0,-1.872265697E0,2.803610086E0,7.431602001E0
8.052289108E0,-2.121262789E0,2.980781078E0,8.494627953E0
8.072278752E0,-1.855506301E0,2.930502892E0,9.651026726E0
8.092298164E0,-1.419761658E0,2.880224705E0,1.096544361E1
8.112287115E0,-1.060631394E0,3.114856482E0,1.160709000E1
8.132276683E0,-1.096544385E0,3.280056238E0,1.192551899E1
8.152294173E0,-1.247379065E0,3.196259260E0,1.228464890E1
8.172283124E0,-1.438915253E0,3.160346270E0,1.233253288E1
8.192303459E0,-1.347935557E0,3.325546265E0,1.177229023E1
8.212293103E0,-9.600749016E-1,3.447650433E0,1.119049835E1
8.232283823E0,-9.169792533E-1,3.303998232E0,1.053927612E1
8.252301467E0,-1.405396342E0,3.236960649E0,1.068053341E1
8.272292187E0,-9.504981041E-1,3.167528868E0,1.166694450E1
8.292280216E0,1.821987510E0,5.959167957E0,1.283531570E1
8.312298398E0,9.576806426E-2,1.841141105E0,1.268687439E1
8.332287349E0,-1.383848548E0,1.855506301E0,1.127190113E1
8.352273839E0,-1.800439715E0,1.977610588E0,9.586383820E0
8.372294867E0,-1.070208192E0,2.597708941E0,8.568847656E0
8.392283125E0,-8.212111592E-1,3.031059265E0,8.259995461E0
8.412305923E0,-7.350199223E-1,2.873042107E0,8.552088737E0
8.432296106E0,-5.937620401E-1,2.573766708E0,8.408436775E0
8.452282057E0,-8.643068075E-1,2.437297344E0,7.948749542E0
8.472304546E0,-1.118092179E0,2.442085743E0,7.524975777E0
8.492294344E0,-1.034295082E0,2.537853718E0,7.307103634E0
8.512281449E0,-6.129156351E-1,2.547430515E0,7.247248650E0
8.532299400E0,-7.972691655E-1,2.760514498E0,6.816292286E0
8.552289889E0,-1.300051570E0,2.971204281E0,6.464344501E0
8.572276994E0,-1.424550056E0,2.987963676E0,6.493074894E0
8.592298254E0,-1.367089152E0,3.033453465E0,6.679822922E0
8.612287821E0,-1.728613615E0,3.313575268E0,6.703764915E0
8.632277310E0,-2.341529369E0,3.478775024E0,6.890512466E0
8.652297338E0,-2.547430515E0,3.881000996E0,7.194576263E0
8.672285982E0,-2.085349798E0,4.271255970E0,7.931990147E0
8.692304241E0,-1.496376038E0,4.405331135E0,9.064447403E0
8.712294038E0,-1.786074519E0,4.410119534E0,1.004128170E1
8.732281450E0,-2.525882721E0,4.460397720E0,1.019451046E1
8.752301864E0,-2.557007313E0,4.424484730E0,1.024000072E1
8.772291661E0,-2.384624958E0,4.582501888E0,1.007719517E1
8.792281843E0,-2.322375536E0,4.405331135E0,1.047223854E1
8.812300102E0,-2.509123325E0,3.763684988E0,1.102290440E1
8.832287822E0,-3.545812607E0,3.634398222E0,1.088643551E1
8.852277927E0,-4.271255970E0,3.684676409E0,1.006282997E1
8.872298648E0,-3.888183594E0,3.885789394E0,1.023521233E1
8.892288522E0,-3.004723072E0,3.579331636E0,1.137245846E1
8.912305089E0,-2.564189911E0,2.494758129E0,1.203325748E1
8.932294348E0,-3.124433279E0,1.716642618E0,1.144667816E1
8.952285146E0,-4.338293552E0,1.805228114E0,1.038125896E1
8.972304943E0,-4.259284973E0,2.267308950E0,9.224859238E0
8.992293894E0,-3.011905670E0,3.560178041E0,8.070854187E0
9.012282153E0,-2.767697096E0,2.681505919E0,7.773972988E0
9.032300027E0,-3.409343243E0,3.457227230E0,7.431602001E0
9.052291209E0,-2.940079689E0,2.585737944E0,7.678205013E0
9.072279238E0,-2.710236311E0,2.123656988E0,7.776367188E0
9.092298343E0,-2.942473888E0,2.595314741E0,7.867346764E0
9.112288756E0,-2.552218914E0,2.736572504E0,7.781155586E0
9.132276784E0,-1.805228114E0,2.896984100E0,7.773972988E0
9.152296889E0,-1.288080573E0,2.882618904E0,7.094019413E0
9.172284224E0,-1.695094824E0,2.983175278E0,6.921637058E0
9.192306714E0,-2.413355350E0,2.806004286E0,7.369352818E0
9.212292973E0,-2.542642117E0,2.269703150E0,7.474697590E0
9.232283694E0,-2.348711967E0,2.310404539E0,6.950367451E0
9.252301568E0,-2.075772762E0,2.712630510E0,6.722918510E0
9.272292366E0,-1.836352706E0,3.574543238E0,7.785943985E0
9.292281009E0,-1.824381709E0,3.088520288E0,7.599195957E0
9.312299268E0,-2.252943754E0,3.052607059E0,9.531316757E0
9.332289450E0,-1.376665950E0,2.331952572E0,9.392453194E0
9.352278016E0,-3.483563423E0,3.857059002E0,5.427655220E0
9.372297738E0,-2.554613113E0,4.929661274E0,3.974374771E0
9.392286996E0,-1.142034173E0,4.661510944E0,7.132327080E0
9.412306101E0,-8.619126081E-1,4.910507679E0,8.944737434E0
9.432295668E0,-3.160346270E0,3.703830004E0,1.020408726E1
9.452286157E0,-4.977545261E0,2.640804529E0,1.120725822E1
9.472302878E0,-5.159504890E0,2.008735180E0,7.259219646E0
9.493526782E0,-3.751713991E0,5.396530628E0,5.549759388E0
9.513522132E0,-3.533841610E0,5.561730385E0,7.359776020E0
9.533507946E0,-2.636016130E0,5.382165432E0,9.569623947E0
9.553527373E0,-2.698265314E0,4.929661274E0,9.981427193E0
9.573517185E0,-3.732560396E0,4.929661274E0,8.774748802E0
9.593504768E0,-4.288015366E0,5.365406036E0,7.173028469E0
9.613524811E0,-3.648763418E0,5.566518784E0,7.316680431E0
9.633514547E0,-2.808398485E0,5.458779812E0,8.882488251E0
9.653501667E0,-2.758120298E0,5.212177277E0,1.002212811E1
9.673520941E0,-2.987963676E0,4.836287498E0,9.208099365E0
9.693509908E0,-3.155557871E0,4.843470097E0,8.015787125E0
9.713527951E0,-2.535459518E0,5.032611847E0,7.876923561E0
9.733521147E0,-1.616086125E0,4.771644115E0,8.255207062E0
9.753507576E0,-1.407790542E0,4.383783340E0,8.446743965E0
9.773525773E0,-1.726219416E0,4.141968727E0,8.595184326E0
9.793516509E0,-1.912967205E0,3.924096584E0,8.499416351E0
9.813507244E0,-1.762132406E0,4.053383350E0,8.525752068E0
9.833527441E0,-1.103726983E0,4.175487995E0,9.081207275E0
9.853514178E0,-6.607996821E-1,4.299986362E0,9.732429504E0
9.873502759E0,-5.243301988E-1,4.347870350E0,9.390059471E0
9.893523648E0,-4.884171486E-1,3.962403774E0,9.416395187E0
9.913513846E0,-7.422025204E-1,3.562572241E0,1.067095661E1
9.933533120E0,-1.309628367E0,3.533841610E0,1.287362289E1
9.953520470E0,-3.854664862E-1,3.150769472E0,1.342189503E1
9.973510284E0,6.679822803E-1,3.138798475E0,1.241872406E1
9.993528096E0,9.504981041E-1,3.857059002E0,1.120007515E1
1.001351729E1,6.895300746E-1,4.584896088E0,1.027591324E1
1.003350495E1,2.777273953E-1,4.532223701E0,1.012747288E1
1.005352984E1,-2.130839527E-1,4.024652958E0,1.018493366E1
1.007351665E1,-9.097966552E-2,3.380612850E0,9.325415611E0
1.009350608E1,-4.860229492E-1,3.349488258E0,8.757989883E0
1.011352389E1,-9.385270476E-1,3.433285236E0,8.188169479E0
1.013351409E1,-6.823474765E-1,3.438073635E0,8.128314972E0
1.015350106E1,-6.560112834E-1,3.521870613E0,7.982268333E0
1.017351979E1,-7.900865674E-1,2.961627483E0,7.326257229E0
1.019351176E1,-1.429338455E0,2.545036316E0,6.483498096E0
1.021352811E1,-2.391807556E0,2.726995707E0,6.433219910E0
1.023351908E1,-2.487575531E0,3.308786631E0,6.287173748E0
1.025350774E1,-1.580173135E0,3.332728863E0,6.143521786E0
1.027352709E1,-8.475474119E-1,3.248931646E0,6.110002518E0
1.029351652E1,-9.792284966E-1,3.442862034E0,6.203376770E0
1.031350233E1,-1.450886250E0,3.727771997E0,6.560112476E0
1.033352391E1,-1.867477298E0,3.938461781E0,7.105990410E0
1.035351249E1,-1.965639591E0,3.775655985E0,7.127538681E0
1.037350130E1,-2.432508945E0,3.833117008E0,7.307103634E0
1.039352189E1,-2.777273893E0,3.711012602E0,8.202534676E0
1.041351024E1,-2.889801502E0,3.483563423E0,9.694122314E0
1.043352897E1,-2.964021683E0,2.956839085E0,1.089840603E1
1.045352032E1,-3.881000996E0,2.528276920E0,1.191115379E1
1.047350760E1,-2.825158119E0,1.879448295E0,1.335006905E1
1.049352756E1,-2.789244890E0,1.635239720E0,1.343386555E1
1.051351615E1,-2.604891539E0,1.458068848E0,1.420479870E1
1.053350688E1,-2.279279947E0,1.268926859E0,1.404199314E1
1.055352592E1,-2.885013103E0,1.479616642E0,1.281376743E1
1.057351304E1,-2.272097349E0,5.793967843E-1,1.209550667E1
1.059350378E1,-1.613691926E0,-2.585737705E-1,9.986215591E0
1.061352459E1,-7.374141216E-1,-1.101332754E-1,9.339780807E0
1.063351264E1,-9.816226959E-1,4.309563041E-1,9.725247383E0
1.065350053E1,-1.422155857E0,1.108515382E0,9.157821655E0
1.067352111E1,-1.594538331E0,1.029506683E0,7.718906403E0
1.069350915E1,-2.147598982E0,6.248866320E-1,8.058882713E0
1.071352996E1,-3.299209833E0,6.392518282E-1,9.516951561E0
1.073351739E1,-3.828328609E0,4.357447028E-1,9.603142738E0
1.075350690E1,-1.345541358E0,-6.368576288E-1,9.270348549E0
1.077352594E1,9.648633003E-1,-1.194706678E0,8.310274124E0
1.079351721E1,1.417367458E0,-1.017535686E0,7.405265808E0
1.081350433E1,3.112462163E-1,-4.740519226E-1,6.998251438E0
1.083352392E1,-9.097966552E-1,-1.675941199E-1,6.770802498E0
1.085351434E1,-2.322375536E0,8.379705995E-2,9.133879662E0
1.087350300E1,-1.608903527E0,-6.488286853E-1,9.873687744E0
1.089352105E1,-5.650315881E-1,-1.568202138E0,9.873687744E0
1.091351186E1,-1.651999205E-1,-1.740584612E0,8.870517731E0
1.093350167E1,-6.224924326E-2,-1.189918280E0,8.681375504E0
1.095351941E1,-1.072602391E0,-4.812345505E-1,8.793902397E0
1.097350830E1,-2.401384354E0,-4.429273009E-1,9.540893555E0
1.099352734E1,-3.289633036E0,-6.440402865E-1,1.110670185E1
1.101351561E1,-3.296815634E0,2.106897533E-1,1.181059742E1
1.103350389E1,-1.596932530E0,-5.985504389E-1,1.205241108E1
1.105352486E1,-9.145850539E-1,-6.536170840E-1,1.134133339E1
1.107351344E1,-2.205059767E0,5.578489900E-1,1.249294472E1
1.109350379E1,-2.212242365E0,7.038952708E-1,1.244984913E1
1.111352198E1,-2.336740971E0,5.171475410E-1,1.234450436E1
1.113350934E1,-8.331822157E-1,7.661445439E-2,1.161906052E1
1.115352861E1,3.878606856E-1,6.560112834E-1,1.028549004E1
1.117351788E1,4.285621047E-1,1.819593310E0,8.623914719E0
1.119350677E1,3.160346150E-1,1.951274395E0,8.319850922E0
1.121352789E1,7.422025502E-2,1.079784989E0,1.037886429E1
1.123351648E1,-4.716577232E-1,3.615244627E-1,1.158554173E1
1.125350760E1,-1.187524080E0,3.806780577E-1,1.136048698E1
1.127352572E1,-1.024718285E0,5.961562395E-1,1.043632507E1
1.129351491E1,-8.595184088E-1,1.041477680E0,9.607931137E0
1.131350526E1,-5.602431893E-1,1.589749932E0,9.560047150E0
1.133352338E1,4.046200812E-1,1.862688899E0,1.030224991E1
1.135351143E1,1.120486379E0,1.673547029E0,9.461885452E0
1.137350209E1,6.272808313E-1,1.414973259E0,7.903259754E0
1.139351875E1,2.250549644E-1,1.194706678E0,6.212953568E0
1.141350948E1,-2.873042040E-2,1.441309452E0,4.759673119E0
1.143352883E1,-8.188169599E-1,1.776497602E0,4.876988888E0
1.145351772E1,-9.169792533E-1,1.814804912E0,5.635950565E0
1.147350684E1,-4.668693244E-1,1.527500629E0,6.370970726E0
1.149352742E1,-7.182604820E-2,1.410184860E0,6.789956093E0
1.151351516E1,-8.810662031E-1,1.654393315E0,7.297526836E0
1.153350097E1,-2.255337954E0,2.240972757E0,7.951143742E0
1.155352363E1,-2.564189911E0,2.695871115E0,8.813055992E0
1.157351406E1,-1.309628367E0,2.877830505E0,9.701305389E0
1.159350233E1,-5.817909837E-1,2.975992680E0,1.051293945E1
1.161352053E1,-7.972691655E-1,2.918531895E0,1.247857952E1
1.163351188E1,-9.241618514E-1,2.387019157E0,1.447773743E1
1.165350131E1,-1.582567334E0,1.965639591E0,1.446337223E1
1.167351920E1,-2.442085743E0,1.853112102E0,1.324472427E1
1.169350809E1,-3.943250179E0,2.394201756E0,1.262941360E1
1.171352713E1,-3.560178041E0,2.037465572E0,1.264856720E1
1.173351656E1,-2.612074137E0,1.604115129E0,1.334288597E1
1.175350522E1,-1.958456993E0,1.778891921E0,1.352723980E1
1.177352149E1,-1.635239720E0,1.848323703E0,1.319923401E1
1.179351184E1,-1.544260144E0,1.637633920E0,1.234929276E1
1.181350296E1,-1.733402014E0,1.592144132E0,1.117373943E1
1.183352131E1,-1.766920805E0,1.872265697E0,9.600749016E0
1.185351113E1,-1.484405041E0,2.288856745E0,7.891288757E0
1.187349978E1,-6.991068721E-1,2.686294317E0,6.847416878E0
1.189352060E1,-5.434837937E-1,3.167528868E0,6.548141479E0
1.191350772E1,-1.122880578E0,3.505111217E0,6.957550049E0
1.193352799E1,-1.374271750E0,3.150769472E0,7.175422668E0
1.195351711E1,-1.149216771E0,2.401384354E0,7.046135426E0
1.197350792E1,-1.278503656E0,1.970427990E0,7.343016624E0
1.199352697E1,-1.508347034E0,1.857900500E0,6.746860504E0
1.201351363E1,-1.204283476E0,2.164358377E0,6.545747280E0
1.203350444E1,-1.963245422E-1,2.609679937E0,5.959167957E0
1.205352225E1,4.716577232E-1,2.954444885E0,6.040570736E0
1.207351260E1,7.924807668E-1,2.774879694E0,5.604825974E0
1.209349880E1,-1.221042871E-1,2.760514498E0,5.884947777E0
1.211351930E1,-9.481038451E-1,3.454833031E0,6.828263283E0
1.213350696E1,-1.098938584E0,3.550601006E0,8.085219383E0
1.215353247E1,-7.302315235E-1,3.426102638E0,9.753977776E0
1.217351713E1,-6.344634295E-1,3.428496838E0,1.051293945E1
1.219350625E1,-8.571242094E-1,3.823540211E0,1.024000072E1
1.221352868E1,-5.219359994E-1,3.971980572E0,1.027591324E1
1.223351634E1,-1.819593310E-1,3.912125587E0,1.140118885E1
1.225350315E1,7.182605099E-3,3.773261786E0,1.235168648E1
1.227352311E1,8.858546615E-2,3.497928619E0,1.188242340E1
1.229351285E1,2.825157940E-1,3.751713991E0,1.096544361E1
1.231350397E1,1.201889277E0,3.517082214E0,1.077630138E1
1.233352209E1,1.783680320E0,3.148375273E0,1.139161205E1
1.235351152E1,1.580173135E0,2.858676910E0,1.224394703E1
1.237349987E1,1.364694953E0,2.456450939E0,1.237323475E1
1.239351953E1,8.283938169E-1,2.480392933E0,1.155920601E1
1.241350780E1,9.002198577E-1,2.798821688E0,9.923966408E0
1.243352715E1,8.882488012E-1,3.069366693E0,8.523358345E0
1.245351666E1,-1.077390760E-1,3.778050184E0,8.090007782E0
1.247350370E1,-7.876923680E-1,4.163516521E0,8.939949036E0
1.249352551E1,1.149216816E-1,3.591302633E0,8.784325600E0
1.251351217E1,6.727706790E-1,3.342305660E0,7.639897823E0
1.253350168E1,6.296750307E-1,3.481169224E0,6.435614109E0
1.255352018E1,5.363011956E-1,3.579331636E0,5.832275391E0
1.257350907E1,9.576806799E-3,3.663128614E0,6.265625954E0
1.259349919E1,-1.388636976E-1,3.215412855E0,6.801927090E0
1.261352093E1,-1.005564705E-1,2.719813108E0,6.959944248E0
1.263350951E1,-3.615244627E-1,2.564189911E0,6.993463039E0
1.265349663E1,-7.852981687E-1,2.664746523E0,7.046135426E0
1.267351721E1,-1.319205165E0,3.143586874E0,7.046135426E0
1.269350702E1,-1.905784607E0,3.933673382E0,7.340622425E0
1.271352422E1,-2.066195965E0,4.390965939E0,8.228871346E0
1.273351303E1,-2.051830769E0,4.498704910E0,9.095572472E0
1.275350377E1,-2.161964178E0,4.587290287E0,9.612719536E0
1.277352258E1,-2.070984364E0,4.596867085E0,9.334992409E0
1.279351109E1,-2.473210335E0,4.812345505E0,9.842563629E0
1.281350182E1,-3.081337690E0,4.532223701E0,1.130542088E1
1.283351940E1,-4.022258759E0,4.223371983E0,1.180580902E1
1.285350852E1,-4.448426723E0,3.701435804E0,1.159272480E1
1.287349649E1,-4.805162907E0,3.500322819E0,1.243787766E1
1.289351738E1,-4.699818134E0,3.023876667E0,1.417846203E1
1.291350750E1,-4.165910721E0,2.351106167E0,1.460702419E1
1.293352716E1,-3.383007050E0,1.965639591E0,1.399171448E1
1.295351482E1,-2.604891539E0,1.692700624E0,1.203325748E1
1.297350371E1,-2.477998734E0,2.063801765E0,9.674968719E0
1.299352406E1,-2.353500366E0,2.762908697E0,8.001421928E0
1.301351326E1,-1.781286120E0,3.327940464E0,7.065289021E0
1.303350214E1,-1.154005170E0,3.627215624E0,6.447585106E0
1.305352080E1,-6.991068721E-1,3.627215624E0,6.121973515E0
1.307350977E1,-4.908113480E-1,3.418920040E0,6.074089527E0
1.309349889E1,-3.639186621E-1,3.198653460E0,6.339846134E0
1.311351740E1,-4.405331016E-1,2.873042107E0,6.744466305E0
1.313350752E1,-7.302315235E-1,2.597708941E0,6.792350292E0
1.315349725E1,-9.744400978E-1,2.303221941E0,6.368576527E0
1.317351514E1,-1.039083481E0,1.939303398E0,5.983109951E0
1.319350672E1,-1.079784989E0,1.836352706E0,5.949591160E0
1.321352523E1,-9.720458984E-1,1.889025092E0,6.363788128E0
1.323351319E1,-7.182605267E-1,2.032677174E0,6.883329868E0
1.325350355E1,-6.129156351E-1,2.238578558E0,7.199364662E0
1.327352236E1,-6.105214357E-1,2.566584110E0,8.068459511E0
1.329350971E1,-8.044517636E-1,3.311181068E0,9.670180321E0
1.331350160E1,-4.955997467E-1,3.665522814E0,1.077630138E1
1.333351787E1,3.519476354E-1,3.655946016E0,1.058716011E1
1.335350892E1,7.948749661E-1,3.849876404E0,1.038604736E1
1.337349819E1,1.244984865E-1,4.134786129E0,1.066856289E1
1.339351416E1,-3.495534360E-1,3.739742994E0,1.164300251E1
1.341350543E1,-1.101332784E0,3.282450438E0,1.286643982E1
1.343352394E1,-1.395819545E0,2.676717520E0,1.340274143E1
1.345351459E1,-1.637633920E0,2.281674147E0,1.373314095E1
1.347350410E1,-1.350329757E0,2.037465572E0,1.446576691E1
1.349352099E1,-3.734954596E-1,1.242590666E0,1.459984207E1
1.351351088E1,4.788403213E-2,1.027112484E0,1.384088039E1
1.353349815E1,-3.447650373E-1,1.094150186E0,1.187763500E1
1.355351881E1,-1.233013868E0,1.096544385E0,9.655815125E0
1.357351078E1,-1.601720929E0,1.707065821E0,7.704541206E0
1.359349713E1,-9.457096457E-1,2.027888775E0,6.095637321E0
1.361351471E1,-4.932055473E-1,2.173935175E0,5.363011837E0
1.363350544E1,9.959878922E-1,1.388636947E0,5.221754074E0
1.365349649E1,1.594538331E0,8.571242094E-1,7.776367188E0
1.367351422E1,4.022258818E-1,1.414973259E0,9.672574997E0
1.369350319E1,-1.484405100E-1,1.683123827E0,7.613561630E0
1.371352431E1,-2.849099934E-1,1.584961534E0,6.936002254E0
1.373351228E1,4.429273009E-1,1.115697980E0,7.685387611E0
1.375349994E1,-2.394201700E-3,8.954314590E-1,6.524199486E0
1.377352206E1,-8.379705995E-2,1.029506683E0,6.871358871E0
1.379350787E1,-1.218648672E0,1.594538331E0,7.003039837E0
1.381350168E1,-2.705447912E0,2.576161146E0,7.750030994E0
1.383352019E1,-2.961627483E0,3.177105665E0,8.707711220E0
1.385350846E1,-9.672574997E-1,3.205836058E0,8.597578049E0
1.387349674E1,-4.596867263E-1,3.256114244E0,9.734824181E0
1.389351662E1,-5.147533417E-1,2.930502892E0,1.113064384E1
1.391350528E1,-1.192312479E0,3.174711466E0,1.154244614E1
1.393349256E1,-2.121262789E0,3.502717018E0,1.160469532E1
1.395351222E1,-2.930502892E0,3.801992416E0,1.069489861E1
1.397350172E1,-3.337517262E0,3.861847401E0,1.121683502E1
1.399352330E1,-3.126827478E0,3.428496838E0,1.176031876E1
1.401350819E1,-3.126827478E0,2.293645144E0,1.260307789E1
1.403350039E1,-3.136404276E0,1.307234168E0,1.263899040E1
1.405352136E1,-3.021482468E0,9.457096457E-1,1.213142014E1
1.407350717E1,-2.904166698E0,1.168370485E0,1.123359394E1
1.409349814E1,-2.640804529E0,1.620874524E0,1.019211674E1
1.411351695E1,-1.987187386E0,2.149993181E0,9.105149269E0
1.413350668E1,-1.493981838E0,2.451662540E0,7.809885979E0
1.415349280E1,-1.582567334E0,2.925714493E0,7.089231014E0
1.417351592E1,-1.616086125E0,2.935291290E0,6.665457726E0
1.419350443E1,-1.331176162E0,2.667140722E0,5.908889771E0
1.421352170E1,-6.775590777E-1,2.542642117E0,5.353435040E0
1.423351236E1,-9.409212470E-1,2.463633537E0,5.602431774E0
1.425349856E1,-1.429338455E0,2.111685991E0,6.119579315E0
1.427352252E1,-1.553836942E0,1.762132406E0,7.218518257E0
1.429350888E1,-2.018311977E0,1.474828243E0,9.042900085E0
1.431349746E1,-2.521094322E0,1.185129881E0,8.985439301E0
1.433351927E1,-2.774879694E0,1.343147159E0,8.825027466E0
1.435350601E1,-3.009511471E0,2.176329374E0,8.418013573E0
1.437349713E1,-2.841917515E0,2.803610086E0,8.470685959E0
1.439351525E1,-2.365471363E0,3.071760893E0,9.689333916E0
1.441350691E1,-1.905784607E0,2.964021683E0,1.108275986E1
1.443349395E1,-2.090138197E0,2.616862535E0,1.227267838E1
1.445351268E1,-2.027888775E0,2.176329374E0,1.223197651E1
1.447350219E1,-2.063801765E0,2.226607561E0,1.201410389E1
1.449352062E1,-2.138022184E0,2.451662540E0,1.225113010E1
1.451350735E1,-1.668758631E0,2.078166962E0,1.226070690E1
1.453350078E1,-1.017535686E0,1.570596337E0,1.154484081E1
1.455351744E1,-9.385270476E-1,1.740584612E0,1.097741508E1
1.457350664E1,-6.679822803E-1,1.692700624E0,1.144428444E1
1.459349583E1,1.675941236E-2,1.323993564E0,1.230140877E1
1.461351765E1,2.250549644E-1,8.547300100E-1,1.302445698E1
1.463350623E1,1.053448766E-1,6.153098345E-1,1.225352383E1
1.465349296E1,1.029506698E-1,6.847416759E-1,1.036928749E1
1.467351385E1,-2.274491638E-1,1.170764685E0,9.062053680E0
1.469350359E1,-6.224924326E-1,2.209848166E0,8.406042099E0
1.471352078E1,-6.033388376E-1,2.212242365E0,8.020575523E0
1.473351060E1,-7.876923680E-1,2.094926596E0,7.477091789E0
1.475349926E1,-5.458779931E-1,1.879448295E0,7.517793179E0
1.477351984E1,-3.375824392E-1,1.910573006E0,7.280767441E0
1.479350873E1,-2.873041928E-1,1.951274395E0,6.878541470E0
1.481349600E1,-5.506663769E-2,2.097320795E0,6.517016888E0
1.483351504E1,2.154781483E-2,2.245761156E0,6.679822922E0
1.485350486E1,-3.974374831E-1,2.284068346E0,7.419631004E0
1.487349590E1,-7.278373241E-1,2.286462545E0,8.200140953E0
1.489351687E1,-6.991068721E-1,2.257732153E0,8.774748802E0
1.491350483E1,-7.038952708E-1,2.683900118E0,8.719682693E0
1.493349365E1,-5.722141862E-1,2.908955097E0,8.082824707E0
1.495351331E1,-1.300051570E0,3.378218651E0,7.589619160E0
1.497349981E1,-2.815581083E0,4.072536945E0,8.346187592E0
1.499352039E1,-3.533841610E0,4.125209332E0,9.878476143E0
1.501351013E1,-3.040636063E0,3.466804028E0,1.094389629E1
1.503349909E1,-2.473210335E0,3.055001259E0,1.127190113E1
1.505351845E1,-2.688688517E0,2.722207308E0,1.141315937E1
1.507350549E1,-3.141192675E0,2.703053713E0,1.161427212E1
1.509349646E1,-3.593696833E0,2.817975283E0,1.094868469E1
1.511351404E1,-3.711012602E0,2.877830505E0,1.070447540E1
1.513350777E1,-3.438073635E0,2.978386879E0,1.161666679E1
1.515349366E1,-2.968810081E0,2.633621931E0,1.308191776E1
1.517351394E1,-2.432508945E0,1.750161409E0,1.332133865E1
1.519350398E1,-2.549824715E0,1.405396342E0,1.172679996E1
1.521352064E1,-2.628833532E0,1.800439715E0,9.428366661E0
1.523350860E1,-2.166752577E0,2.437297344E0,8.109161377E0
1.525349872E1,-1.493981838E0,2.463633537E0,7.788338184E0
1.527351900E1,-1.953668594E0,2.896984100E0,7.850587368E0
1.529350935E1,-1.917755604E0,2.810792685E0,7.606379032E0
1.531349701E1,-1.675941229E0,2.497152328E0,7.077260017E0
1.533351551E1,-1.577778935E0,2.564189911E0,6.399701118E0
1.535350594E1,-1.584961534E0,2.904166698E0,6.351817131E0
1.537349298E1,-1.386242747E0,2.772485495E0,6.495469093E0
1.539351388E1,-1.094150186E0,2.312798738E0,6.169857979E0
1.541350238E1,-1.407790542E0,2.233790159E0,5.870582581E0
1.543352150E1,-1.877054095E0,2.473210335E0,6.143521786E0
1.545351124E1,-2.090138197E0,2.549824715E0,6.701370716E0
1.547349889E1,-1.946485996E0,2.501940727E0,7.077260017E0
1.549352048E1,-2.066195965E0,2.590526342E0,7.184999466E0
1.551350906E1,-2.037465572E0,2.530671120E0,7.558494568E0
1.553349795E1,-2.161964178E0,2.604891539E0,8.391676903E0
1.555351884E1,-2.418143749E0,2.995146275E0,9.069235802E0
1.557350673E1,-2.609679937E0,3.773261786E0,9.945513725E0
1.559349692E1,-2.372653961E0,4.101267338E0,1.085770512E1
1.561351381E1,-2.080561161E0,3.955221176E0,1.146583176E1
1.563350270E1,-2.463633537E0,3.794809580E0,1.211226654E1
1.565349375E1,-2.662352324E0,3.483563423E0,1.234450436E1
1.567351210E1,-2.346317768E0,3.071760893E0,1.208353615E1
1.569349983E1,-1.869871497E0,3.363853455E0,1.191833591E1
1.571352034E1,-1.647210717E0,4.259284973E0,1.230619717E1
1.573351138E1,-7.517793179E-1,4.098873138E0,1.258631802E1
1.575349904E1,-8.619125932E-2,2.973598480E0,1.226549530E1
1.577351839E1,-1.029506683E0,2.736572504E0,1.197579670E1
1.579350482E1,-1.728613615E0,2.703053713E0,1.135809326E1
1.581349594E1,-1.371877551E0,2.592920542E0,9.902418137E0
1.583351767E1,-7.086837292E-1,3.131615877E0,8.444349289E0
1.585350479E1,1.436521020E-2,3.320757866E0,7.264008045E0
1.587349361E1,-2.896983922E-1,3.440467834E0,6.830657482E0
1.589351480E1,-1.192312479E0,3.232172251E0,6.983886242E0
1.591350216E1,-1.264138460E0,2.777273893E0,7.460332394E0
1.593352097E1,-8.164227605E-1,2.516305923E0,7.376535416E0
1.595351070E1,-6.560112834E-1,2.444479942E0,6.761225700E0
1.597350029E1,-1.204283476E0,2.770091295E0,6.224924564E0
1.599351833E1,-1.271321058E0,2.920926094E0,5.908889771E0
1.601350914E1,-1.194706678E0,2.971204281E0,6.038176537E0
1.603349642E1,-1.197100878E0,2.949656487E0,5.908889771E0
1.605351669E1,-1.539471745E0,3.102885485E0,5.724536419E0
1.607350412E1,-2.408566952E0,3.785232782E0,5.935225964E0
1.609349508E1,-3.090914488E0,4.228160381E0,7.359776020E0
1.611351413E1,-3.093308687E0,4.304774761E0,8.822632790E0
1.613350340E1,-3.227383852E0,4.357447147E0,9.497797966E0
1.615349291E1,-3.526659012E0,4.465186119E0,9.933543205E0
1.617351372E1,-3.629609823E0,4.596867085E0,1.052969933E1
1.619349992E1,-3.495534420E0,4.434061527E0,1.128147888E1
1.621352173E1,-3.201047659E0,4.393360138E0,1.155681133E1
1.623350746E1,-3.088520288E0,4.400542736E0,1.158793640E1
1.625349789E1,-3.909731388E0,4.058171749E0,1.129584408E1
1.627351632E1,-4.419696331E0,3.813963413E0,1.090080070E1
1.629350713E1,-4.163516521E0,3.967192173E0,1.102769279E1
1.631349602E1,-3.421314240E0,3.909731388E0,1.132217979E1
1.633351322E1,-2.604891539E0,3.256114244E0,1.131978607E1
1.635350388E1,-2.794033289E0,2.885013103E0,1.081221485E1
1.637349215E1,-1.726219416E0,1.754949808E0,1.018732834E1
1.639351066E1,-2.683900118E0,2.808398485E0,9.129091263E0
1.641349978E1,-2.829946518E0,3.181894064E0,8.341399193E0
1.643351828E1,-2.609679937E0,3.402160645E0,7.754819393E0
1.645350986E1,-2.784456491E0,3.579331636E0,7.268796444E0
1.647349875E1,-2.774879694E0,3.284844637E0,6.919242859E0
1.649351810E1,-2.844311714E0,3.095702887E0,6.957550049E0
1.651350799E1,-2.540247917E0,2.956839085E0,7.218518257E0
1.653349627E1,-2.324769735E0,2.806004286E0,7.177816868E0
1.655351677E1,-2.260126352E0,2.691082716E0,6.663063526E0
1.657350082E1,-2.185906172E0,2.475604534E0,5.918466568E0
1.659349363E1,-2.147598982E0,2.473210335E0,5.750872612E0
1.661351275E1,-2.293645144E0,2.518700123E0,6.014234543E0
1.663350218E1,-2.583343744E0,2.561795712E0,6.540958881E0
1.665349076E1,-2.667140722E0,2.480392933E0,6.643909931E0
1.667350949E1,-2.724601507E0,2.619256735E0,6.569689274E0
1.669350054E1,-2.616862535E0,3.172317266E0,6.866570473E0
1.671351904E1,-2.178723574E0,3.909731388E0,7.802703381E0
1.673350816E1,-1.829170108E0,4.211400986E0,9.569623947E0
1.675349467E1,-1.740584612E0,4.168305397E0,1.127668953E1
1.677351394E1,-2.145204782E0,4.249708176E0,1.204522896E1
1.679350445E1,-2.454056740E0,4.309563160E0,1.246660805E1
1.681349241E1,-2.042253971E0,4.050989151E0,1.271799946E1
1.683351115E1,-1.017535686E0,3.931279182E0,1.192312431E1
1.685350335E1,-4.501099288E-1,3.890577793E0,1.116416264E1
1.687349316E1,-1.592144132E0,4.252102375E0,1.082897472E1
1.689351220E1,-2.590526342E0,4.050989151E0,1.084573364E1
1.691350078E1,-2.006340981E0,3.371036053E0,1.125993061E1
1.693352114E1,-1.101332784E0,3.296815634E0,1.204522896E1
1.695350841E1,-6.847416759E-1,3.423708439E0,1.205480576E1
1.697349553E1,-8.906430602E-1,3.423708439E0,1.033576870E1
1.699351665E1,-1.446097851E0,3.770867586E0,8.592789650E0
1.701350616E1,-8.379706144E-1,3.612850428E0,8.214506149E0
1.703349389E1,-6.440402865E-1,3.792415380E0,8.884882927E0
1.705351416E1,-5.267243981E-1,3.318363667E0,9.210494041E0
1.707350513E1,-9.768342972E-1,2.990357876E0,8.238448143E0
1.709349410E1,-1.582567334E0,3.150769472E0,7.115567684E0
1.711351245E1,-1.379060149E0,3.208230257E0,6.624756336E0
1.713349980E1,-8.307880163E-1,3.308786631E0,7.053318024E0
1.715348930E1,-9.552865028E-1,3.366247654E0,7.596801758E0
1.717350650E1,-1.256955862E0,3.189076662E0,7.352593422E0
1.719349847E1,-1.556231141E0,3.066972494E0,6.440402508E0
1.721351605E1,-1.594538331E0,3.244143248E0,5.770026207E0
1.723350671E1,-1.651999116E0,3.720589399E0,5.647922039E0
1.725349529E1,-1.716642618E0,4.098873138E0,5.983109951E0
1.727351495E1,-1.745373011E0,4.029441357E0,6.234501362E0
1.729350361E1,-2.475604534E0,4.173093796E0,6.198588371E0
1.731349488E1,-3.251325846E0,4.505887508E0,6.315904140E0
1.733351339E1,-3.145981073E0,4.673481941E0,6.902483463E0
1.735350251E1,-2.202665567E0,4.967968464E0,8.044517517E0
1.737349324E1,-2.020706177E0,5.092466831E0,9.476250648E0
1.739350736E1,-2.959233284E0,5.135562420E0,1.063983250E1
1.741349941E1,-3.615244627E0,4.900930882E0,1.183932781E1
1.743351814E1,-3.699041605E0,4.438849926E0,1.184172153E1
1.745350734E1,-3.766079187E0,4.477157116E0,1.126232433E1
1.747349769E1,-3.536235809E0,4.699818134E0,1.131499767E1
1.749351650E1,-4.070142746E0,4.594472885E0,1.151371574E1
1.751350539E1,-4.232948780E0,3.739742994E0,1.206917095E1
1.753349428E1,-4.216189384E0,3.071760893E0,1.196861458E1
1.755351356E1,-4.187458992E0,2.968810081E0,1.089840603E1
1.757350160E1,-3.605667830E0,3.007117271E0,9.234436035E0
1.759349226E1,-2.985569477E0,3.339911461E0,7.845798969E0
1.761351038E1,-2.422932148E0,4.082113743E0,7.532158375E0
1.763349988E1,-2.157175779E0,5.049371243E0,8.152256966E0
1.765349008E1,-2.755726099E0,3.138798475E0,8.999804497E0
1.767350720E1,-4.350264549E0,3.354276657E0,8.504204750E0
1.769349670E1,-3.584120035E0,3.095702887E0,7.682993412E0
1.771351421E1,-2.145204782E0,3.301604033E0,7.161057472E0
1.773350525E1,-1.379060149E0,3.373430252E0,6.605602264E0
1.775349422E1,-1.675941229E0,3.095702887E0,5.822698593E0
1.777351226E1,-2.576161146E0,2.779668093E0,5.729324818E0
1.779350369E1,-3.043030262E0,2.439691544E0,6.040570736E0
1.781349281E1,-3.213018656E0,2.207453966E0,6.397306919E0
1.783351155E1,-3.186682463E0,2.389413357E0,6.873753071E0
1.785350074E1,-2.513911724E0,2.695871115E0,7.371747017E0
1.787349002E1,-2.217030764E0,2.734178305E0,7.764396191E0
1.789351145E1,-2.339135170E0,2.643198729E0,8.465897560E0
1.791349757E1,-2.207453966E0,2.947262287E0,2.051830769E0
1.793351876E1,-3.519476414E0,3.643975019E0,6.052541733E0
1.795350681E1,-4.338293552E0,3.421314240E0,9.636661530E0
1.797349662E1,-4.199429989E0,3.785232782E0,8.444349289E0
1.799351505E1,-4.458003521E0,4.740519524E0,5.614402771E0
1.802717911E1,-4.663905144E0,4.070142746E0,7.474697590E0
1.804720170E1,-3.835511208E0,3.406949043E0,8.221688271E0
1.806719220E1,-3.636792421E0,3.572149038E0,9.370905876E0
1.808717717E1,-3.081337690E0,3.648763418E0,1.028070164E1
1.810719867E1,-3.136404276E0,3.277662039E0,9.988609314E0
1.812718864E1,-3.775655985E0,3.495534420E0,9.323021889E0
1.814717699E1,-3.600879431E0,3.720589399E0,8.327033043E0
1.816719265E1,-2.880224705E0,4.086902142E0,7.764396191E0
1.818718469E1,-2.303221941E0,4.491522312E0,7.410054207E0
1.820717312E1,-2.477998734E0,4.644751072E0,7.163451672E0
1.822719378E1,-2.956839085E0,4.841075897E0,7.091625214E0
1.824717936E1,-3.574543238E0,5.310339451E0,7.244854450E0
1.826720117E1,-3.993528366E0,5.712565422E0,7.510610580E0
1.828719206E1,-3.792415380E0,5.913678169E0,7.750030994E0
1.830717764E1,-3.292027235E0,6.148310184E0,8.042123795E0
1.832720038E1,-2.580949545E0,6.038176537E0,8.147468567E0
1.834719119E1,-2.636016130E0,5.880159378E0,8.099584579E0
1.836717954E1,-3.081337690E0,5.413290024E0,8.130708694E0
1.838719743E1,-3.165134668E0,4.817133904E0,8.564059258E0
1.840718739E1,-3.069366693E0,4.414907932E0,8.937555313E0
1.842717444E1,-2.523488522E0,4.163516521E0,8.760383606E0
1.844719456E1,-2.087743998E0,4.060565948E0,8.350975990E0
1.846718629E1,-1.889025092E0,3.948038578E0,8.377311707E0
1.848717249E1,-1.589749932E0,3.598485231E0,8.635885239E0
1.850719492E1,-1.412579060E0,3.229778051E0,8.698134422E0
1.852718273E1,-1.259350061E0,3.064578056E0,9.308655739E0
1.854720085E1,-9.792284966E-1,3.138798475E0,9.993397713E0
1.856719258E1,-7.110779285E-1,3.224989653E0,1.002212811E1
1.858718032E1,-5.770025849E-1,3.428496838E0,9.610325813E0
1.860720159E1,-8.547300100E-1,3.268085241E0,1.014662647E1
1.862718779E1,-6.488286853E-1,1.843535304E0,1.147780323E1
1.864717622E1,-1.539471745E0,1.376665950E0,1.223197651E1
1.866719526E1,-2.001552582E0,1.843535304E0,1.169088650E1
1.868718700E1,-8.331822157E-1,2.061407566E0,1.017056847E1
1.870717666E1,-3.064578176E-1,2.767697096E0,8.640673637E0
1.872719416E1,-3.495534360E-1,3.390189648E0,8.367734909E0
1.874718290E1,4.668693244E-1,2.513911724E0,8.379706383E0
1.876720286E1,1.434126854E0,1.034295082E0,6.773196697E0
1.878719529E1,3.591302410E-2,1.247379065E0,5.940014362E0
1.880718241E1,-1.304839969E0,2.430114746E0,6.497863293E0
1.882720122E1,-1.460463047E0,2.475604534E0,7.175422668E0
1.884718988E1,-1.142034173E0,1.994369984E0,7.271190643E0
1.886717884E1,-1.161187768E0,2.114080191E0,7.977479935E0
1.888719797E1,-1.139639974E0,1.814804912E0,7.699752808E0
1.890718693E1,-2.070984364E0,1.137245774E0,7.881711960E0
1.892717551E1,-3.318363667E0,3.806780577E-1,8.303091049E0
1.894719625E1,-3.885789394E0,-3.519476354E-1,1.109473038E1
1.896718421E1,-4.932055473E0,1.723825186E-1,1.270363426E1
1.898720187E1,-3.658340216E0,-4.788403511E-1,1.355118179E1
1.900719353E1,-2.580949545E0,-1.094150186E0,1.426944256E1
1.902718311E1,-2.485181332E0,-4.405331016E-1,1.514332581E1
1.904720162E1,-3.114856482E0,-6.655880809E-1,1.400607967E1
1.906719035E1,-4.086902142E0,-2.006340981E0,1.303403378E1
1.908717901E1,-5.633556366E0,-2.085349798E0,1.435563374E1
1.910720052E1,-6.605602264E0,-8.451532125E-1,1.519120979E1
1.912718948E1,-4.793191910E0,-1.958456993E0,1.731965446E1
1.914717845E1,-3.881000996E0,-2.829946518E0,1.564610767E1
1.916719734E1,-4.541800499E0,-2.832340717E0,1.218888092E1
1.918718561E1,-3.933673382E0,-3.126827478E0,1.026873112E1
1.920717612E1,-3.593696833E0,-8.140285611E-1,1.012029076E1
1.922719408E1,-8.834604025E-1,-9.624691010E-1,9.971850395E0
1.924718020E1,8.188169599E-1,-1.321599364E0,1.087446404E1
1.926720401E1,-2.322375625E-1,-1.012747288E0,9.193734169E0
1.928719290E1,-5.315127969E-1,-2.159569979E0,5.082890034E0
1.930718102E1,1.268926859E-1,-2.652775526E0,3.564966440E0
1.932720191E1,1.455674648E0,-2.161964178E0,6.588842869E0
1.934719311E1,2.674323320E0,-1.244984865E0,9.339780807E0
1.936718077E1,3.239354849E0,-8.164227605E-1,8.722076416E0
1.938719743E1,2.073378563E0,-3.423708379E-1,5.425261021E0
1.940718832E1,1.182735682E0,-7.182604820E-2,2.161964178E0
1.942729820E1,2.039859772E0,3.351882473E-2,2.059013367E0
1.944719702E1,6.871358752E-1,8.882488012E-1,6.476315498E0
1.946718437E1,1.465251446E0,6.224924326E-1,9.897629738E0
1.948720626E1,8.547300100E-1,-3.423708379E-1,1.053688145E1
1.950719684E1,-6.416460276E-1,-1.486799240E0,1.033576870E1
1.952718419E1,-1.259350061E0,-2.370259762E0,1.188721180E1
1.954720339E1,-1.335964561E0,-3.220201254E0,1.375947762E1
1.956719235E1,-3.734954596E-1,-3.847482204E0,1.422395229E1
1.958717978E1,-9.600749016E-1,-3.545812607E0,1.303882217E1
1.960719944E1,-3.043030262E0,-1.946485996E0,1.235886955E1
1.962718933E1,-4.630385876E0,-2.178723514E-1,1.048899746E1
1.964717868E1,-5.087678432E0,8.164227605E-1,8.274360657E0
1.966719811E1,-4.934449673E0,1.699883223E0,8.121131897E0
1.968718853E1,-5.698200226E0,3.236960649E0,7.805097580E0
1.970717473E1,-5.612008572E0,3.703830004E0,9.670180321E0
1.972719539E1,-4.726154327E0,2.640804529E0,1.223676491E1
1.974718805E1,-5.140350819E0,1.640028119E0,1.228464890E1
1.976720448E1,-5.817910194E0,1.367089152E0,1.024000072E1
1.978719313E1,-5.676652431E0,1.563413739E0,8.061277390E0
1.980718425E1,-4.163516521E0,1.991975784E0,8.066065788E0
1.982720330E1,-2.276885748E0,2.145204782E0,1.014183807E1
1.984719257E1,-1.426944256E0,1.699883223E0,1.107797146E1
1.986718030E1,-2.336740971E0,1.216254473E0,1.109951878E1
1.988720066E1,-2.387019157E0,2.322375625E-1,1.029985619E1
1.990718808E1,-2.774879694E0,-6.847416759E-1,8.604761124E0
1.992717797E1,-4.244919777E0,-3.639186621E-1,8.250418663E0
1.994719902E1,-4.398148537E0,9.169792533E-1,8.125920296E0
1.996718675E1,-2.698265314E0,1.654393315E0,7.479485989E0
1.998720679E1,-1.065419793E0,1.776497602E0,7.024587631E0
2.000719507E1,2.346317619E-1,1.386242747E0,7.848193169E0
2.002718526E1,-4.668693244E-1,1.450886250E0,8.659827232E0
2.004720469E1,-1.458068848E0,1.149216771E0,9.662998199E0
2.006719427E1,-1.455674648E0,4.453215301E-1,9.876082420E0
2.008718478E1,-1.414973259E0,1.891419291E-1,8.377311707E0
2.010720182E1,-9.097966552E-1,3.327940404E-1,6.962338448E0
2.012718833E1,-4.572925270E-1,7.254431248E-1,6.052541733E0
2.014718006E1,3.591302410E-2,1.029506683E0,5.918466568E0
2.016720010E1,1.580173075E-1,1.213860273E0,5.839457989E0
2.018719061E1,-3.112462163E-2,1.352723956E0,5.875370979E0
2.020717865E1,-2.011129409E-1,1.527500629E0,6.169857979E0
2.022719831E1,-3.830722719E-2,2.118868589E0,6.830657482E0
2.024718735E1,-7.350199223E-1,2.837129116E0,8.006210327E0
2.026720609E1,-1.821987510E0,2.726995707E0,9.538499832E0
2.028719444E1,-2.401384354E0,2.640804529E0,1.050575733E1
2.030718594E1,-5.243301988E-1,1.189918280E0,1.089122391E1
2.032720376E1,4.572925270E-1,3.016694188E-1,1.176989555E1
2.034719403E1,-7.900865674E-1,3.112462163E-1,1.336922264E1
2.036718084E1,-2.020706177E0,2.250549644E-1,1.489432907E1
2.038719996E1,-1.968033791E0,-1.939303428E-1,1.348174953E1
2.040718793E1,-2.233790159E0,-1.053448766E-1,1.241393566E1
2.042718036E1,-1.632845521E0,3.423708379E-1,1.312501335E1
2.044719848E1,-8.930372596E-1,4.094084799E-1,1.411381912E1
2.046718837E1,-2.298433632E-1,2.777273953E-1,1.334049225E1
2.048717649E1,7.182605099E-3,7.182605267E-1,1.065180302E1
2.050719684E1,1.699883193E-1,1.565807939E0,8.283937454E0
2.052718419E1,2.154781520E-1,2.679111719E0,7.354987621E0
2.054720669E1,2.489969730E-1,3.438073635E0,7.754819393E0
2.056719450E1,5.339069963E-1,3.490746021E0,8.324639320E0
2.058718339E1,8.978256583E-1,3.100491285E0,8.259995461E0
2.060720436E1,5.889736414E-1,2.540247917E0,7.402871609E0
2.062719210E1,-4.309562966E-2,1.984793186E0,6.797138691E0
2.064718175E1,-5.674257874E-1,1.762132406E0,6.950367451E0
2.066720203E1,-8.954314590E-1,2.061407566E0,7.450755596E0
2.068718884E1,-1.000776291E0,2.219424963E0,8.362946510E0
2.070717911E1,-7.038952708E-1,1.989581585E0,8.233659744E0
2.072719877E1,-4.501099288E-1,1.891419291E0,7.766790390E0
2.074718782E1,-9.026140571E-1,2.571372509E0,7.747636795E0
2.076720909E1,-1.651999116E0,3.380612850E0,8.774748802E0
2.078719498E1,-2.772485495E0,3.881000996E0,1.214578533E1
2.080718518E1,-2.724601507E0,2.966415882E0,1.411860752E1
2.082720206E1,-2.470816135E0,1.764526606E0,1.285207462E1
2.084719442E1,-3.761290789E0,1.209071875E0,1.140118885E1
2.086718530E1,-4.802768707E0,4.309563041E-1,1.072362900E1
2.088720435E1,-5.556941986E0,3.040636182E-1,1.045308495E1
2.090719239E1,-5.578489780E0,5.746083856E-1,9.739612579E0
2.092718136E1,-3.883395195E0,2.489969730E-1,9.483432770E0
2.094720048E1,-2.925714493E0,8.212111592E-1,1.023760605E1
2.096718914E1,-2.245761156E0,9.337386489E-1,1.211226654E1
2.098720918E1,-1.750161409E0,1.125274822E-1,1.247857952E1
2.100719691E1,-2.159569979E0,2.873042040E-2,1.139161205E1
2.102718803E1,-2.300827742E0,3.567360640E-1,9.658209801E0
2.104720692E1,-2.020706177E0,1.015141487E0,8.602366447E0
2.106719581E1,-2.647987127E0,1.929726601E0,9.109937668E0
2.108718301E1,-2.545036316E0,1.972822189E0,9.722852707E0
2.110720367E1,-1.697489023E0,1.587355733E0,9.198522568E0
2.112719471E1,-1.182735682E0,1.580173135E0,8.674192429E0
2.114718368E1,-1.177947283E0,1.857900500E0,8.212111473E0
2.116720256E1,-1.719036818E0,1.874659896E0,8.106766701E0
2.118719092E1,-1.685518026E0,1.541865945E0,7.987056732E0
2.120718019E1,-1.252167463E0,1.144428372E0,7.017405033E0
2.122719869E1,-9.265560508E-1,1.022324085E0,5.832275391E0
2.124719074E1,-8.307880163E-1,1.455674648E0,5.209783077E0
2.126720916E1,-3.375824392E-1,2.102109194E0,5.736507416E0
2.128719875E1,4.788403213E-2,2.621650934E0,6.512228489E0
2.130718717E1,-4.788403213E-2,2.789244890E0,7.326257229E0
2.132720560E1,-5.267243981E-1,2.683900118E0,8.061277390E0
2.134719680E1,-5.961562395E-1,2.432508945E0,9.030928612E0
2.136718323E1,-2.657563984E-1,2.080561161E0,1.034774017E1
2.138719996E1,1.173158810E-1,2.049436569E0,1.239238834E1
2.140719231E1,3.782838583E-1,1.601720929E0,1.365652657E1
2.142718066E1,5.075707436E-1,1.041477680E0,1.313219643E1
2.144719940E1,6.296750307E-1,8.930372596E-1,1.122880554E1
2.146719090E1,1.039083481E0,1.091755986E0,1.039322948E1
2.148721095E1,1.446097851E0,9.648633003E-1,1.129823780E1
2.150719960E1,1.199495077E0,2.250549644E-1,1.339316463E1
2.152718696E1,4.716577232E-1,-4.237737060E-1,1.393664837E1
2.154720669E1,-5.698199868E-1,-2.035071403E-1,1.209550667E1
2.156719689E1,-1.259350061E0,5.434837937E-1,9.825803757E0
2.158718624E1,-1.206677675E0,1.470039845E0,7.809885979E0
2.160720228E1,-1.893813491E0,2.501940727E0,8.753201485E0
2.162719456E1,-1.807622313E0,2.583343744E0,1.088882923E1
2.164718391E1,-5.171475410E-1,2.176329374E0,1.108994198E1
2.166720356E1,7.565677166E-1,2.123656988E0,9.267954826E0
2.168719107E1,1.244984865E0,2.252943754E0,7.153874874E0
2.170718057E1,1.443703651E0,1.994369984E0,5.743690014E0
2.172719885E1,7.445967197E-1,1.814804912E0,5.638344765E0
2.174719020E1,5.027823523E-2,1.814804912E0,5.951985359E0
2.176720940E1,-2.657563984E-1,1.640028119E0,6.361393929E0
2.178719775E1,-5.865794420E-1,1.651999116E0,7.335834026E0
2.180718579E1,-3.998316824E-1,1.747767210E0,7.912836552E0
2.182720822E1,-2.154781520E-1,2.442085743E0,7.331045628E0
2.184719534E1,-1.007958889E0,3.679888010E0,5.815515995E0
2.186718584E1,-1.690306425E0,4.630385876E0,4.630385876E0
2.188720558E1,-2.592920542E0,5.547365189E0,4.922478676E0
2.190719247E1,-4.082113743E0,6.497863293E0,7.326257229E0
2.192718112E1,-5.899312973E0,6.466738701E0,1.132696819E1
2.194719994E1,-7.970297337E0,5.415684223E0,1.486320400E1
2.196719190E1,-8.377311707E0,3.706224203E0,1.630930138E1
2.198720987E1,-8.173804283E0,2.513911724E0,1.706108093E1
2.200719853E1,-6.689399719E0,1.067813993E0,1.697249603E1
2.202718772E1,-4.958391666E0,-1.484405100E-1,1.569878101E1
2.204720808E1,-5.221754074E0,8.475474119E-1,1.308910084E1
2.206719896E1,-4.010287762E0,2.355894566E0,1.096304989E1
2.208718578E1,-9.457096457E-1,3.545812607E0,1.051772785E1
2.210720674E1,1.556231081E-1,4.707000732E0,1.164300251E1
2.212719440E1,-6.967126727E-1,4.103661537E0,1.170046329E1
2.214718460E1,-1.601720929E0,2.597708941E0,1.066616821E1
2.216720495E1,-1.805228114E0,1.623268723E0,9.275136948E0
2.218719238E1,-8.475474119E-1,8.714894056E-1,7.711723804E0
2.220721334E1,8.212111592E-1,2.896983922E-1,6.569689274E0
2.222720385E1,1.903390408E0,-5.267243832E-2,5.719748020E0
2.224719035E1,2.530671120E0,-5.817909837E-1,4.663905144E0
2.226721009E1,2.200271368E0,-8.451532125E-1,4.199429989E0
2.228719936E1,2.243366957E0,-1.216254473E0,4.905719280E0
2.230718863E1,1.951274395E0,-1.522712231E0,6.631938934E0
2.232720722E1,9.959878922E-1,-1.568202138E0,8.870517731E0
2.234719710E1,-2.561795712E-1,-8.810662031E-1,1.229662037E1
2.236718546E1,1.661576033E0,-1.872265697E0,1.359906578E1
2.238720542E1,4.110844135E0,-2.664746523E0,1.400368595E1
2.240719416E1,4.252102375E0,-2.715024710E0,1.313698483E1
2.242718435E1,1.587355733E0,-1.024718285E0,1.694615936E1
2.244720286E1,-1.307234168E0,-8.547300100E-1,1.876575279E1
2.246719275E1,-1.316810966E0,-1.161187768E0,1.014902115E1
2.248721271E1,-3.907337189E0,-2.202665508E-1,9.457097054E0
2.250720106E1,-6.119579315E0,1.393425345E0,7.553706169E0
2.252718765E1,-6.057330132E0,2.221819162E0,4.953603268E0
2.254720830E1,-5.669469833E0,2.401384354E0,4.364629745E0
2.256719904E1,-4.910507679E0,1.929726601E0,6.854599476E0
2.258718678E1,-3.315969467E0,1.098938584E0,8.039729118E0
2.260720651E1,-2.403778553E0,7.398083210E-1,6.873753071E0
2.262719648E1,-1.041477680E0,6.775590777E-1,5.307945251E0
2.264718544E1,1.029506698E-1,1.177947283E0,6.133944988E0
2.266720456E1,-2.552218914E0,2.633621931E0,7.364564419E0
2.268719414E1,-3.928884983E0,2.475604534E0,9.131484985E0
2.270718150E1,-1.862688899E0,8.690952063E-1,9.380482674E0
2.272720069E1,-2.221819162E0,1.034295082E0,9.753977776E0
2.274719266E1,-5.937620163E0,3.066972494E0,1.229662037E1
2.276720970E1,-7.620744228E0,3.995922565E0,1.401326275E1
2.278719928E1,-8.683769226E0,4.350264549E0,1.253843403E1
2.280719071E1,-5.573701382E0,2.190694571E0,1.190157700E1
2.282720768E1,-3.940855980E0,2.250549644E-1,1.372116947E1
2.284719664E1,-7.321468830E0,8.427590132E-1,1.391988850E1
2.286718646E1,-6.442796707E0,6.440402865E-1,7.955932140E0
2.288720619E1,3.471592367E-1,-9.097966552E-2,1.987187386E0
2.290719800E1,3.658340216E0,6.679822803E-1,2.138022184E0
2.292718320E1,2.880224705E0,6.440402865E-1,8.640673637E0
2.294720417E1,2.255337954E0,-7.948749661E-1,1.341950035E1
2.296719352E1,1.896207690E0,-1.738190413E0,1.152568722E1
2.298721048E1,3.493140221E0,-1.034295082E0,6.813898087E0
2.300720060E1,3.694253206E0,5.315127969E-1,3.861847401E0
2.302719180E1,2.741360903E0,5.554547906E-1,1.302445769E0
2.304721246E1,-1.939303398E0,-2.633621916E-2,2.183511972E0
2.306719858E1,-4.173093796E0,-2.011129409E-1,8.868123055E0
2.308718939E1,-1.381454349E0,-5.913678408E-1,1.353681660E1
2.310720951E1,2.877830505E0,-8.164227605E-1,1.181538582E1
2.312719786E1,1.036689281E0,-6.703764945E-2,1.523670006E1
2.314718675E1,-3.201047659E0,1.417367458E0,1.576581860E1
2.316720587E1,-3.821146011E0,3.303998232E0,9.562441826E0
2.318719645E1,-1.503558636E0,3.945644379E0,7.675810814E0
2.320718388E1,6.512228847E-1,3.550601006E0,9.308655739E0
2.322720392E1,1.237802267E0,4.041412354E0,1.208832455E1
2.324719343E1,-9.169792533E-1,6.464344501E0,1.147301483E1
2.326721347E1,-4.836287498E-1,6.926425457E0,8.178592682E0
2.328720067E1,1.412578970E-1,4.627991676E0,7.161057472E0
2.330719233E1,-2.865859509E0,2.913743496E0,9.461885452E0
2.332721052E1,-4.733336926E0,1.295263171E0,1.085052204E1
2.334720041E1,-2.468421936E0,-5.219359994E-1,1.058237171E1
2.336718853E1,6.823474765E-1,2.442085743E-1,9.519346237E0
2.338720665E1,1.216254473E0,1.470039845E0,8.808267593E0
2.340719600E1,-1.268926859E0,2.308010340E0,8.291120529E0
2.342718920E1,-3.093308687E0,1.711854219E0,7.352593422E0
2.344720501E1,-3.112462282E0,1.345541358E0,7.912836552E0
2.346719452E1,-2.188300371E0,2.102109194E0,7.735665798E0
2.348721579E1,-2.803610086E0,4.249708176E0,8.880094528E0
2.350720352E1,-5.006275654E0,6.263231754E0,9.830592155E0
2.352719126E1,-5.159504890E0,6.660669327E0,7.941566944E0
2.354721223E1,-3.210624456E0,5.628767967E0,7.632715225E0
2.356720304E1,-4.996698856E0,5.305551052E0,9.730035782E0
2.358719085E1,-6.385335922E0,4.558559895E0,1.315613842E1
2.360720659E1,-3.059789658E0,2.602497339E0,1.289038181E1
2.362719917E1,-2.458845139E0,2.466027737E0,1.009156036E1
2.364718760E1,-1.225831270E0,3.385401249E0,7.936778545E0
2.366720733E1,2.331952572E0,3.727771997E0,7.608773232E0
2.368719807E1,3.981557369E0,3.730166197E0,8.504204750E0
2.370718465E1,3.620033026E0,1.702277422E0,9.770736694E0
2.372720431E1,1.640028119E0,6.200982332E-1,8.731653214E0
2.374719543E1,-7.062895298E-1,1.266532660E0,8.022970200E0
2.376721393E1,-1.161187768E0,1.656787634E0,6.481103897E0
2.378720267E1,-5.051765442E-1,9.888052940E-1,5.398924828E0
2.380719094E1,-3.232172430E-1,4.213795066E-1,5.207388878E0
2.382721044E1,-7.661445439E-2,1.465251446E0,5.707777023E0
2.384720003E1,-1.484405100E-1,2.401384354E0,6.873753071E0
2.386719015E1,1.503558636E0,2.118868589E0,9.330204010E0
2.388720873E1,2.832340717E0,1.742978811E0,1.067095661E1
2.390719892E1,7.829039693E-1,3.062183857E0,1.192791271E1
2.392718666E1,-3.284844637E0,6.172252178E0,1.448252583E1
2.394720301E1,-1.857900500E0,4.364629745E0,1.992215157E1
2.396719567E1,2.099714994E0,1.278503656E0,1.783680344E1
2.398721779E1,1.824381709E0,2.015917778E0,1.141794777E1
2.400720376E1,-9.648633003E-1,4.424484730E0,8.358158112E0
2.402719180E1,-1.173158884E0,5.683835030E0,7.908048153E0
2.404721238E1,-2.250549644E-1,6.339846134E0,9.557653427E0
2.406720235E1,3.016694188E-1,4.740519524E0,1.255519390E1
2.408718977E1,-6.057330370E-1,2.485181332E0,1.172919369E1
2.410721043E1,-1.699883223E0,1.812410712E0,8.226476669E0
2.412719940E1,-2.377442360E0,2.145204782E0,5.846640587E0
2.414718898E1,-1.034295082E0,2.533065319E0,5.489904404E0
2.416720648E1,4.884171486E-1,2.952050686E0,5.999869347E0
2.418719976E1,3.016694188E-1,2.439691544E0,6.093243122E0
2.420718565E1,-9.337386489E-1,1.491587639E0,5.561730385E0
2.422720600E1,-2.379836559E0,1.206677675E0,5.272032261E0
2.424719412E1,-2.066195965E0,9.840168953E-1,5.197812080E0
2.426721470E1,-1.185129881E0,1.288080573E0,6.141127586E0
2.428720374E1,-1.879448295E0,3.078943491E0,6.787561893E0
2.430719417E1,-3.852270603E0,4.256890774E0,9.698910713E0
2.432721390E1,-3.768473387E0,4.812345505E0,1.081939793E1
2.434720226E1,-2.047042370E0,4.242525578E0,1.268448067E1
2.436719161E1,1.127668977E0,2.341529369E0,1.306276417E1
2.438721065E1,2.154781483E-2,2.001552582E0,1.229422569E1
2.440719838E1,-1.738190413E0,2.554613113E0,1.029985619E1
2.442718558E1,-1.647210717E0,3.138798475E0,8.947132111E0
2.444720801E1,-9.504981041E-1,3.964797974E0,9.404424667E0
2.446719605E1,1.795651317E-1,2.674323320E0,9.715670586E0
2.448721456E1,-6.344634295E-1,1.479616642E0,8.501810074E0
2.450720452E1,-2.693476915E0,1.795651317E0,8.339004517E0
2.452719341E1,-2.822763920E0,2.075772762E0,8.556877136E0
2.454721538E1,-2.039859772E0,2.418143749E0,7.785943985E0
2.456720096E1,1.077390760E-1,2.743755102E0,-2.537853718E-1
2.458719139E1,-1.594538331E0,2.813186884E0,3.342305660E0
2.460721266E1,-3.138798475E0,2.085349798E0,1.075475407E1
2.462720078E1,-3.143586874E0,1.821987510E0,1.103966427E1
2.464718944E1,-1.776497602E0,8.738836050E-1,7.426813602E0
2.467785696E1,-3.098097086E0,4.273650169E0,9.004592896E0
2.469787751E1,-2.003946781E0,3.797203779E0,1.120486355E1
2.471786575E1,-2.961627483E0,2.999934673E0,1.114979744E1
2.473785514E1,-4.553771496E0,2.810792685E0,9.844957352E0
2.475787692E1,-5.027823448E0,3.057395458E0,8.899248123E0
2.477786392E1,-4.371812344E0,3.339911461E0,8.887276649E0
2.479788570E1,-2.904166698E0,3.593696833E0,9.440337181E0
2.481787217E1,-2.540247917E0,3.586514235E0,9.564835548E0
2.483786041E1,-3.268085241E0,3.670311213E0,8.961497307E0
2.485787911E1,-3.512293816E0,3.576937437E0,8.015787125E0
2.487786912E1,-3.521870613E0,3.837905407E0,7.620744228E0
2.489785890E1,-2.865859509E0,3.780444384E0,8.066065788E0
2.491787890E1,-3.136404276E0,3.833117008E0,8.755595207E0
2.493786776E1,-3.354276657E0,3.727771997E0,9.564835548E0
2.495785754E1,-3.126827478E0,3.445256233E0,1.012029076E1
2.497787500E1,-3.174711466E0,3.500322819E0,9.988609314E0
2.499786378E1,-2.712630510E0,3.258508444E0,9.562441826E0
2.501788371E1,-2.456450939E0,3.256114244E0,9.497797966E0
2.503787318E1,-1.711854219E0,3.076549292E0,9.356540680E0
2.505786542E1,-5.770025849E-1,2.815581083E0,8.645462036E0
2.507788297E1,3.830722719E-2,2.882618904E0,7.867346764E0
2.509786959E1,-1.268926859E-1,2.765302896E0,7.436390400E0
2.511785845E1,-2.442085743E-1,2.291250944E0,6.993463039E0
2.513787838E1,6.272808313E-1,1.668758631E0,5.755661011E0
2.515786692E1,1.197100878E0,1.450886250E0,4.498704910E0
2.517785732E1,8.188169599E-1,1.666364431E0,4.161122322E0
2.519787671E1,8.667010069E-1,1.800439715E0,5.767632008E0
2.521786710E1,2.796427488E0,2.025494576E0,7.809885979E0
2.523785557E1,5.573701382E0,1.201889277E0,7.924807549E0
2.525787181E1,3.976768970E0,1.022324085E0,9.684545517E0
2.527786251E1,8.714894056E-1,1.525106430E0,1.321359921E1
2.529788121E1,-6.368576288E-1,7.134721279E-1,1.530852604E1
2.531787099E1,1.120486379E0,-3.423708379E-1,1.642182922E1
2.533785861E1,1.996764183E0,-1.853112102E0,1.775779343E1
2.535787854E1,-1.580173075E-1,-1.867477298E0,1.932120705E1
2.537786870E1,-3.380612850E0,-9.193734527E-1,1.868674469E1
2.539785664E1,-4.757278919E0,-1.467645645E0,1.512896061E1
2.541787741E1,-4.386177540E0,-1.302445769E0,1.103008747E1
2.543786627E1,-3.481169224E0,-3.495534360E-1,1.121922874E1
2.545785574E1,-3.440467834E0,5.410895944E-1,1.393185997E1
2.547787298E1,-3.038241863E0,-2.705447972E-1,1.264617348E1
2.549786298E1,-3.435679436E0,-1.094150186E0,1.114261436E1
2.551785284E1,-4.608838081E0,-1.532289088E-1,9.112331390E0
2.553787123E1,-7.240066051E0,2.085349798E0,7.426813602E0
2.555785847E1,-3.284844637E0,1.750161409E0,8.360552788E0
2.557787817E1,-6.991068721E-1,2.068590164E0,8.078036308E0
2.559787010E1,6.607996821E-1,1.201889277E0,7.094019413E0
2.561785619E1,-4.932055473E-1,3.902548850E-1,6.823474884E0
2.563787612E1,-2.949656487E0,1.197100803E-2,6.007051945E0
2.565786397E1,-4.118026733E0,6.464344263E-2,6.983886242E0
2.567785598E1,-4.201824188E0,8.188169599E-1,8.564059258E0
2.569787530E1,-4.151545525E0,1.091755986E0,1.221761131E1
2.571786046E1,-5.051765442E0,-6.464344859E-1,1.661815453E1
2.573788339E1,-4.220977783E0,-3.124433279E0,1.617522621E1
2.575787163E1,-1.783680320E0,-4.532223701E0,1.413776112E1
2.577786056E1,-1.532289028E0,-3.605667830E0,1.221042824E1
2.579788195E1,-2.094926596E0,-1.766920805E0,9.277531624E0
2.581786996E1,6.679822803E-1,-1.177947283E0,6.217741966E0
2.583785812E1,2.861071110E0,-8.259995580E-1,5.125985622E0
2.585787782E1,3.236960649E0,-3.830722719E-2,7.874529362E0
2.587786791E1,1.917755604E0,4.788403399E-3,9.909601212E0
2.589785615E1,1.647210717E0,-6.943184733E-1,1.024478912E1
2.591787477E1,1.759738207E0,-1.637633920E0,1.088404083E1
2.593786332E1,-1.589749932E0,-2.552218914E0,1.252167511E1
2.595785317E1,-6.746860504E0,-2.444479942E0,1.394383049E1
2.597787149E1,-6.837840080E0,-1.589749932E0,1.303642845E1
2.599786188E1,-2.571372509E0,-4.812345505E-1,1.009874249E1
2.601787843E1,8.786720037E-1,-5.027823523E-2,8.746018410E0
2.603786797E1,2.375048161E0,9.097966552E-1,1.052491093E1
2.605785952E1,1.189918280E0,2.188300371E0,1.060391903E1
2.607787883E1,2.154781520E-1,2.841917515E0,8.200140953E0
2.609786769E1,-5.985504389E-1,2.308010340E0,6.256049156E0
2.611785593E1,-7.182605099E-3,1.934514999E0,4.086902142E0
2.613787563E1,5.770025849E-1,1.273715258E0,3.265691042E0
2.615786541E1,3.256114423E-1,6.631938815E-1,3.835511208E0
2.617785272E1,-1.065419793E0,7.637503147E-1,4.149151325E0
2.619787504E1,-1.649604917E0,8.738836050E-1,4.347870350E0
2.621786212E1,-3.562572241E0,1.472434044E0,8.336610794E0
2.623788144E1,-2.578555346E0,2.281674147E0,6.258443356E0
2.625787052E1,-2.870647907E0,2.841917515E0,5.248090267E0
2.627785976E1,-2.418143749E0,2.355894566E0,8.379706383E0
2.629787869E1,-2.248155355E0,1.350329757E0,9.780313492E0
2.631786762E1,-1.551442742E0,6.679822803E-1,1.085291672E1
2.633785671E1,-8.619126081E-1,7.445967197E-1,9.370905876E0
2.635787633E1,-2.466027737E0,1.438915253E0,8.698134422E0
2.637786342E1,-4.311957359E0,2.595314741E0,9.136273384E0
2.639785535E1,-4.498704910E0,2.588132143E0,1.031900978E1
2.641787459E1,-4.417302132E0,1.742978811E0,1.261265469E1
2.643786252E1,-3.962403774E0,1.350329757E0,1.266532707E1
2.645785084E1,-3.064578056E0,1.268926859E0,1.218169785E1
2.647787038E1,-2.049436569E0,1.225831270E0,1.197819138E1
2.649785862E1,-7.158663273E-1,6.871358752E-1,1.042435455E1
2.651787617E1,-1.199495077E0,-3.854664862E-1,1.121683502E1
2.653786779E1,-3.679888010E0,3.232172430E-1,1.069968700E1
2.655785626E1,-4.350264549E0,5.530605912E-1,8.595184326E0
2.657787596E1,-1.795651317E0,-6.512228847E-1,6.581660271E0
2.659786566E1,-1.501164436E0,1.221042871E-1,5.676652431E0
2.661785490E1,-2.293645144E0,1.551442742E0,7.311892033E0
2.663787352E1,-3.198653460E0,1.175553083E0,1.020887566E1
2.665786338E1,-3.696647406E0,6.153098345E-1,1.052730465E1
2.667784977E1,-2.803610086E0,6.560112834E-1,8.609549522E0
2.669787178E1,-1.268926859E-1,6.631938815E-1,7.891288757E0
2.671785948E1,9.145850539E-1,1.048660398E0,6.859387875E0
2.673784918E1,8.810662031E-1,1.379060149E0,6.368576527E0
2.675786880E1,2.394201700E-3,1.606509328E0,7.366958618E0
2.677785527E1,-5.195417404E-1,1.493981838E0,8.657433510E0
2.679787882E1,-6.943184882E-2,1.319205165E0,9.493009567E0
2.681786644E1,2.681505978E-1,1.661576033E0,9.148244858E0
2.683785530E1,8.619125932E-2,2.324769735E0,9.136273384E0
2.685787284E1,-6.799532771E-1,2.961627483E0,1.054885292E1
2.687786416E1,-1.508347094E-1,2.779668093E0,1.221761131E1
2.689785140E1,1.022324085E0,2.035071373E0,1.304839897E1
2.691787264E1,2.054224968E0,8.978256583E-1,1.273236465E1
2.693785957E1,2.379836559E0,3.327940404E-1,1.257674122E1
2.695784873E1,2.571372509E0,5.243301988E-1,1.240435886E1
2.697786812E1,1.920149803E0,3.591302633E-1,1.268687439E1
2.699785513E1,8.978256583E-1,1.340752989E-1,1.171722317E1
2.701787468E1,4.309563041E-1,-5.985504389E-2,1.070447540E1
2.703786661E1,1.673547029E0,-5.913678408E-1,1.066616821E1
2.705785577E1,2.018311977E0,-2.322375625E-1,1.174355888E1
2.707787386E1,1.197100878E0,1.843535304E-1,1.225831223E1
2.709786333E1,7.206547260E-1,2.178723514E-1,1.093910789E1
2.711785495E1,1.000776291E0,5.267243981E-1,8.973467827E0
2.713787211E1,9.145850539E-1,1.101332784E0,7.718906403E0
2.715786035E1,5.434837937E-1,1.570596337E0,8.224082947E0
2.717784743E1,1.283292055E0,1.273715258E0,9.255983353E0
2.719787044E1,1.711854219E0,9.385270476E-1,9.734824181E0
2.721785891E1,1.383848548E0,8.738836050E-1,8.781931877E0
2.723784569E1,6.440402865E-1,8.140285611E-1,7.915230751E0
2.725786470E1,-7.900865376E-2,9.121908545E-1,7.335834026E0
2.727785509E1,-1.074996591E0,1.331176162E0,8.544905663E0
2.729787471E1,-7.805097699E-1,1.118092179E0,9.746794701E0
2.731786349E1,-2.274491638E-1,9.002198577E-1,9.239224434E0
2.733785427E1,-1.515529633E0,1.302445769E0,8.559270859E0
2.735787358E1,-2.444479942E0,1.745373011E0,9.004592896E0
2.737786336E1,-1.733402014E0,1.965639591E0,9.619902611E0
2.739785129E1,5.027823523E-2,2.039859772E0,9.854534149E0
2.741787030E1,8.379706144E-1,2.408566952E0,9.581595421E0
2.743785977E1,-2.035071403E-1,2.432508945E0,1.090080070E1
2.745784947E1,-7.110779285E-1,1.867477298E0,1.205001736E1
2.747786756E1,1.699883193E-1,1.343147159E0,1.179862595E1
2.749785672E1,2.873042040E-2,1.493981838E0,1.027351952E1
2.751787734E1,-1.063025594E0,2.047042370E0,8.786720276E0
2.753786312E1,-1.630451322E0,2.207453966E0,9.895236015E0
2.755785313E1,-1.778891921E0,2.679111719E0,1.225591850E1
2.757787344E1,-8.307880163E-1,1.750161409E0,1.343147182E1
2.759786353E1,-1.747767180E-1,5.099649429E-1,1.333570385E1
2.761784838E1,-2.442085743E-1,-2.561795712E-1,1.153047562E1
2.763787047E1,1.149216816E-1,-3.878606856E-1,9.821015358E0
2.765785924E1,-6.751648784E-1,7.302315235E-1,9.435548782E0
2.767785087E1,-2.336740971E0,2.001552582E0,1.048899746E1
2.769786872E1,-1.467645645E0,2.181117773E0,9.974244118E0
2.771785573E1,5.075707436E-1,1.532289028E0,8.542511940E0
2.773784428E1,1.173158884E0,1.242590666E0,7.328651428E0
2.775786698E1,9.816226959E-1,1.436521053E0,6.402095318E0
2.777785391E1,9.600749016E-1,1.482010841E0,6.725312710E0
2.779787199E1,2.537853718E-1,1.790862918E0,6.251260757E0
2.781786400E1,-2.801215947E-1,1.984793186E0,6.150704384E0
2.783785093E1,-1.771709323E-1,2.025494576E0,5.887341976E0
2.785787248E1,1.651999205E-1,1.903390408E0,6.888118267E0
2.787785979E1,5.434837937E-1,2.075772762E0,8.406042099E0
2.789785050E1,5.099649429E-1,2.379836559E0,8.908824921E0
2.791786827E1,4.548983276E-1,2.741360903E0,9.732429504E0
2.793785774E1,3.471592367E-1,3.351882458E0,1.023281765E1
2.795784567E1,1.747767180E-1,3.371036053E0,1.071884060E1
2.797786399E1,1.072602391E0,2.659958124E0,1.087685871E1
2.799785538E1,2.454056740E0,2.482787132E0,1.068771648E1
2.801787347E1,2.971204281E0,2.985569477E0,1.064462090E1
2.803786347E1,2.305616140E0,3.325546265E0,1.071644688E1
2.805785048E1,2.133233786E0,3.193865061E0,1.072841740E1
2.807787411E1,2.964021683E0,3.179499865E0,1.033337498E1
2.809786119E1,3.960009575E0,2.997540474E0,1.024957752E1
2.811784943E1,4.302380562E0,2.482787132E0,1.054885292E1
2.813786751E1,3.107673883E0,1.994369984E0,1.077630138E1
2.815785606E1,1.395819545E0,2.073378563E0,9.727641106E0
2.817784461E1,5.889736414E-1,2.475604534E0,8.556877136E0
2.819786546E1,4.357447028E-1,2.894589901E0,8.018181801E0
2.821785332E1,1.149216816E-1,4.077325344E0,8.604761124E0
2.823787486E1,1.276109457E0,3.406949043E0,9.148244858E0
2.825786403E1,1.829170108E0,3.318363667E0,9.124302864E0
2.827785103E1,2.097320795E0,3.014299870E0,8.465897560E0
2.829786850E1,2.018311977E0,2.743755102E0,7.407660007E0
2.831786197E1,1.649604917E0,2.676717520E0,6.488286495E0
2.833785136E1,1.604115129E0,2.698265314E0,6.098031521E0
2.835786860E1,1.623268723E0,2.942473888E0,6.148310184E0
2.837785769E1,1.347935557E0,3.165134668E0,6.433219910E0
2.839784847E1,1.242590666E0,3.311181068E0,6.816292286E0
2.841786409E1,1.074996591E0,3.414131641E0,7.953537941E0
2.843785533E1,7.398083210E-1,3.763684988E0,9.248801231E0
2.845784549E1,4.285621047E-1,3.809175014E0,1.060391903E1
2.847786442E1,2.633621991E-1,3.260902643E0,1.129823780E1
2.849785274E1,-3.256114423E-1,2.870647907E0,1.146583176E1
2.851787136E1,-1.003170490E0,2.908955097E0,1.150892735E1
2.853786091E1,-1.340752959E0,3.112462282E0,1.100375080E1
2.855785399E1,-1.539471745E0,3.387795448E0,1.048420906E1
2.857787185E1,-1.233013868E0,3.517082214E0,1.126471901E1
2.859785724E1,-1.197100803E-2,3.347094059E0,1.310585976E1
2.861784617E1,5.506663918E-1,2.861071110E0,1.497333717E1
2.863786826E1,4.979939461E-1,1.982398987E0,1.464772606E1
2.865785673E1,-7.182604820E-2,1.362300754E0,1.279222012E1
2.867784435E1,-1.132457376E0,1.405396342E0,1.077869606E1
2.869786497E1,-1.807622313E0,1.889025092E0,9.677363396E0
2.871785321E1,-1.256955862E0,1.898601890E0,9.081207275E0
2.873784207E1,1.029506698E-1,2.104503393E0,8.966285706E0
2.875785892E1,8.355764151E-1,2.604891539E0,8.449137688E0
2.877785085E1,9.074024558E-1,3.004723072E0,7.508216381E0
2.879787483E1,8.523358107E-1,3.095702887E0,6.457161903E0
2.881786761E1,5.698199868E-1,2.940079689E0,6.038176537E0
2.883785439E1,2.298433632E-1,2.731784105E0,5.978321552E0
2.885787425E1,7.422025502E-2,2.458845139E0,6.203376770E0
2.887786034E1,-2.537853718E-1,2.267308950E0,6.318298340E0
2.889785204E1,-2.346317619E-1,2.128445387E0,6.332663536E0
2.891787220E1,-5.985504389E-2,2.035071373E0,6.064512730E0
2.893785983E1,-2.944868207E-1,2.118868589E0,6.246472359E0
2.895784753E1,-7.517793179E-1,2.142810583E0,6.569689274E0
2.897786685E1,-8.164227605E-1,1.989581585E0,7.120356083E0
2.899785501E1,-7.086837292E-1,1.893813491E0,7.824251175E0
2.901787502E1,-7.445967197E-1,2.181117773E0,8.288725853E0
2.903786634E1,-9.361328483E-1,2.573766708E0,8.908824921E0
2.905785304E1,-9.433154464E-1,2.954444885E0,9.818621635E0
2.907787451E1,-2.585737705E-1,3.361459255E0,1.019451046E1
2.909786206E1,8.188169599E-1,3.380612850E0,1.073320580E1
2.911785192E1,2.035071373E0,3.100491285E0,1.154962921E1
2.913786878E1,2.236184359E0,3.172317266E0,1.211944866E1
2.915786040E1,1.905784607E0,3.550601006E0,1.226070690E1
2.917784826E1,2.243366957E0,3.876212597E0,1.307712936E1
2.919786888E1,2.918531895E0,3.629609823E0,1.469800377E1
2.921785835E1,3.629609823E0,2.808398485E0,1.553358078E1
2.923784537E1,3.505111217E0,2.013523579E0,1.506431675E1
2.925786245E1,2.456450939E0,1.383848548E0,1.322317600E1
2.927785416E1,1.704671621E0,1.041477680E0,1.087925243E1
2.929787463E1,1.419761658E0,1.721431017E0,9.581595421E0
2.931785987E1,1.304839969E0,3.040636063E0,9.605537415E0
2.933785119E1,1.994369984E0,3.411737442E0,9.892841339E0
2.935787381E1,2.379836559E0,2.944868088E0,9.531316757E0
2.937785967E1,1.709460020E0,2.659958124E0,8.391676903E0
2.939784906E1,1.144428372E0,2.343923569E0,7.211335659E0
2.941786900E1,7.613561153E-1,1.812410712E0,5.942408562E0
2.943785762E1,-2.178723514E-1,1.405396342E0,4.970362663E0
2.945784556E1,-1.039083481E0,1.027112484E0,4.230554581E0
2.947786395E1,-1.096544385E0,6.823474765E-1,4.168305397E0
2.949785527E1,-2.298433632E-1,9.074024558E-1,5.963956356E0
2.951787305E1,1.295263171E0,1.189918280E0,6.710947514E0
2.953786375E1,6.057330370E-1,1.395819545E0,6.282385349E0
2.955784891E1,-5.578489900E-1,1.503558636E0,4.862623692E0
2.957786946E1,-1.149216771E0,1.599326730E0,3.737348795E0
2.959786109E1,-1.022324085E0,1.443703651E0,4.340687752E0
2.961784925E1,-1.048660398E0,1.838746905E0,6.521805286E0
2.963786857E1,-1.228225470E0,2.272097349E0,8.746018410E0
2.965785896E1,-2.504334927E0,2.753331900E0,1.070447540E1
2.967784444E1,-2.973598480E0,3.066972494E0,1.120246983E1
2.969786622E1,-2.925714493E0,3.256114244E0,1.108515358E1
2.971785423E1,-3.394978046E0,4.108449936E0,1.078827286E1
2.973787416E1,-3.981557369E0,4.970362663E0,1.184650993E1
2.975786417E1,-3.495534420E0,4.788403511E0,1.472912884E1
2.977785149E1,-3.596091032E0,4.752490520E0,1.579933739E1
2.979787273E1,-3.529053211E0,5.082890034E0,1.660857773E1
2.981786028E1,-3.239354849E0,4.106055737E0,1.718318558E1
2.983785167E1,-2.027888775E0,2.576161146E0,1.771948624E1
2.985786968E1,-2.346317619E-1,1.707065821E0,1.401805115E1
2.987785823E1,-9.840168953E-1,2.904166698E0,1.279461384E1
2.989784624E1,-2.458845139E0,3.572149038E0,1.650083733E1
2.991786525E1,-1.980004787E0,1.817199111E0,2.071223831E1
2.993785649E1,1.826775908E0,-2.197877169E0,1.923741150E1
2.995784381E1,2.767697096E0,-1.031900883E0,1.285925770E1
2.997786351E1,-8.643068075E-1,6.076483727E0,1.023042393E1
2.999785668E1,-4.194641590E0,7.053318024E0,6.318298340E0
3.001784307E1,-6.026205540E0,5.597643375E0,9.380482674E0
3.003786147E1,-5.248090267E0,3.387795448E0,1.102529907E1
3.005785432E1,-2.885013103E0,9.385270476E-1,1.224155331E1
3.007787026E1,-4.153939724E0,6.703764796E-1,1.382890892E1
3.009785934E1,-4.893748283E0,6.751648784E-1,1.444182491E1
3.011784828E1,-1.501164436E0,2.250549644E-1,7.903259754E0
3.013786852E1,2.147598982E0,1.939303428E-1,3.165134668E0
3.015785645E1,3.227383852E0,-5.626373887E-1,2.671929121E0
3.017784531E1,2.865859509E0,-8.714894056E-1,4.328716755E0
3.019786493E1,1.211466074E0,-9.097966552E-1,9.440337181E0
3.021785379E1,2.961627483E0,-8.930372596E-1,8.774748802E0
3.023784480E1,2.566584110E0,-1.084573388E0,8.224082947E0
3.025786250E1,3.311181068E0,-1.565807939E0,6.993463039E0
3.027785236E1,2.540247917E0,-2.262520552E0,5.657498837E0
3.029786983E1,1.110909581E0,-1.551442742E0,4.448426723E0
3.031785984E1,6.416460276E-1,-5.650315881E-1,4.359841347E0
3.033785001E1,-3.591302410E-2,1.017535686E0,7.915230751E0
3.035786902E1,-3.663128614E-1,3.153163671E0,1.254801083E1
3.037785633E1,3.236960649E0,3.078943491E0,1.384088039E1
3.039784511E1,5.882553577E0,7.254431248E-1,1.266532707E1
3.041786482E1,3.746925592E0,9.552865028E-1,1.062546730E1
3.043785421E1,-2.011129379E0,4.343081951E0,8.825027466E0
3.045784214E1,-4.156333923E0,4.896142483E0,8.279149055E0
3.047786362E1,-2.243366957E0,2.741360903E0,9.533711433E0
3.049785186E1,-7.422025204E-1,2.475604534E0,9.471462250E0
3.051787148E1,-1.704671621E0,3.751713991E0,8.966285706E0
3.053786034E1,-5.288791656E0,4.477157116E0,8.875306129E0
3.055785019E1,-8.154650688E0,4.515464306E0,9.478644371E0
3.057787036E1,-4.944026470E0,4.441244125E0,1.053927612E1
3.059785714E1,1.371877551E0,4.046200752E0,7.663839817E0
3.061784715E1,2.387019157E0,5.456385612E0,5.669469833E0
3.063786531E1,2.394201607E-2,6.445190907E0,3.586514235E0
3.065785386E1,-1.194706678E0,6.028599739E0,2.425326347E0
3.067784326E1,-3.950432837E-1,4.888959885E0,2.961627483E0
3.069786473E1,7.278373241E-1,3.555389643E0,6.129156113E0
3.071785397E1,-1.410184860E0,3.224989653E0,9.234436035E0
3.073784160E1,-5.109226227E0,3.663128614E0,9.914389610E0
3.075786091E1,-4.704606533E0,3.098097086E0,7.702147007E0
3.077784792E1,-2.200271368E0,2.992752075E0,8.257601738E0
3.079786809E1,-4.716577232E-1,2.600103140E0,1.016578007E1
3.081785694E1,-1.173158884E0,2.703053713E0,9.878476143E0
3.083784795E1,-2.870647907E0,3.639186621E0,7.247248650E0
3.085786727E1,-3.167528868E0,5.145139217E0,5.889736176E0
3.087785613E1,-2.183511972E0,5.588066578E0,7.864952564E0
3.089784406E1,-9.361328483E-1,3.660734415E0,1.297178459E1
3.091786369E1,-1.039083481E0,3.222595453E0,1.481771469E1
3.093785108E1,-1.201889277E0,3.320757866E0,1.282095051E1
3.095784332E1,-9.361328483E-1,3.160346270E0,9.217676163E0
3.097786103E1,-6.200982332E-1,3.224989653E0,6.301538944E0
3.099784873E1,-5.650315881E-1,3.833117008E0,4.958391666E0
3.101786743E1,-5.195417404E-1,3.976768970E0,5.226542473E0
3.103785713E1,-1.379060149E0,3.706224203E0,6.471527100E0
3.105784760E1,-2.094926596E0,3.078943491E0,6.447585106E0
3.107786508E1,-2.015917778E0,2.832340717E0,4.225766182E0
3.109785478E1,-1.860294700E0,3.670311213E0,3.531447411E0
3.111784402E1,-1.968033791E0,3.715801001E0,4.663905144E0
3.113786542E1,-3.196259260E0,3.442862034E0,7.055712223E0
3.115785396E1,-2.755726099E0,2.856282711E0,6.775590897E0
3.117784105E1,-1.898601890E0,3.169923067E0,5.027823448E0
3.119785975E1,-1.379060149E0,4.254496574E0,5.937620163E0
3.121784923E1,-1.010353088E0,4.276044369E0,9.033323288E0
3.123787162E1,-7.422025204E-1,4.163516521E0,9.825803757E0
3.125785732E1,8.978256583E-1,3.897760391E0,7.903259754E0
3.127784964E1,6.727706790E-1,4.467580318E0,3.584120035E0
3.129786711E1,-2.925714493E0,4.146757126E0,1.379060173E1
3.131785535E1,-4.390965939E0,4.201824188E0,1.492784786E1
3.133784482E1,-4.101267338E0,4.137180328E0,9.734824181E0
3.135786568E1,-3.471592367E-1,4.862623692E0,7.417236805E0
3.138118128E1,-9.074024558E-1,4.125209332E0,8.985439301E0
3.140117271E1,-9.792284966E-1,3.881000996E0,1.068771648E1
3.142119168E1,-2.116474390E0,3.380612850E0,1.046745014E1
3.144118334E1,-3.502717018E0,3.861847401E0,9.916783333E0
3.146116731E1,-3.105279684E0,4.314351559E0,1.036210537E1
3.148118889E1,-2.008735180E0,4.223371983E0,1.123598862E1
3.150117778E1,-2.049436569E0,3.888183594E0,1.142513084E1
3.152119806E1,-3.002328873E0,3.490746021E0,1.148977375E1
3.154118418E1,-3.957615376E0,2.999934673E0,1.165497398E1
3.156117361E1,-4.491522312E0,2.451662540E0,1.094868469E1
3.158119419E1,-4.359841347E0,2.346317768E0,9.184157372E0
3.160118493E1,-3.636792421E0,2.904166698E0,7.857769966E0
3.162117320E1,-3.380612850E0,3.378218651E0,7.678205013E0
3.164119194E1,-3.852270603E0,3.292027235E0,8.267178535E0
3.166118060E1,-3.869029999E0,2.427720547E0,8.997409821E0
3.168117003E1,-3.564966440E0,2.042253971E0,8.805873871E0
3.170118823E1,-2.968810081E0,2.346317768E0,8.034940720E0
3.172118074E1,-1.522712231E0,2.545036316E0,7.311892033E0
3.174116755E1,-6.033388376E-1,2.612074137E0,6.840234280E0
3.176118721E1,-9.792284966E-1,2.647987127E0,6.600813866E0
3.178117572E1,-1.977610588E0,2.276885748E0,6.339846134E0
3.180119361E1,-2.456450939E0,1.788468719E0,6.189011574E0
3.182118581E1,-2.159569979E0,1.448492050E0,6.117185116E0
3.184117500E1,-2.588132143E0,2.056619167E0,6.483498096E0
3.186119320E1,-3.440467834E0,2.499546528E0,6.856993675E0
3.188118232E1,-4.695029736E0,2.659958124E0,7.745242596E0
3.190117275E1,-5.262455463E0,2.904166698E0,1.020169353E1
3.192119157E1,-4.144362926E0,2.487575531E0,1.087207031E1
3.194117977E1,-3.426102638E0,2.509123325E0,1.128147888E1
3.196116658E1,-5.152322292E0,4.448426723E0,1.126471901E1
3.198118962E1,-6.892906666E0,5.810727596E0,1.125993061E1
3.200117605E1,-4.814739704E0,5.214571476E0,1.090798283E1
3.202119471E1,-7.900865674E-1,4.146757126E0,1.107318306E1
3.204118545E1,3.830722570E-1,3.203441858E0,1.435563374E1
3.206117534E1,-1.771709323E-1,1.491587639E0,1.532049656E1
3.208119439E1,1.419761658E0,-1.405396342E0,1.264856720E1
3.210118197E1,2.736572504E0,-1.561019540E0,1.231816769E1
3.212116932E1,8.738836050E-1,1.520318031E0,1.169328117E1
3.214119267E1,-3.232172251E0,1.886630893E0,1.306515884E1
3.216118095E1,-3.646369219E0,-1.513135433E0,1.662054825E1
3.218117138E1,-7.996633649E-1,-4.067748547E0,1.697728348E1
3.220118858E1,1.771709323E-1,-3.205836058E0,1.497812557E1
3.222118062E1,-1.850717902E0,4.357447028E-1,1.414254951E1
3.224116490E1,-4.276044369E0,4.177882195E0,1.208353615E1
3.226118517E1,-4.247313976E0,4.920084476E0,1.282573891E1
3.228117583E1,7.302315235E-1,2.274491549E0,1.357033539E1
3.230119434E1,2.336740971E0,1.747767180E-1,1.262462521E1
3.232118377E1,-5.544970989E0,-3.950432837E-1,1.468603325E1
3.234117243E1,-9.950302124E0,8.571242094E-1,1.275630665E1
3.236119294E1,-8.911218643E0,1.546654344E0,8.628703117E0
3.238117975E1,-5.291185856E0,2.375048161E0,8.980650902E0
3.240116887E1,-2.657563925E0,1.604115129E0,1.337879944E1
3.242118892E1,-2.171540976E0,1.108515382E0,1.224634171E1
3.244117904E1,-2.272097349E0,1.628057122E0,7.697358608E0
3.246116977E1,5.746083856E-1,7.829039693E-1,3.931279182E0
3.248118690E1,5.913678408E-1,1.185129881E0,1.491587639E0
3.250117494E1,-1.223437071E0,2.319981337E0,3.974374831E-1
3.252119306E1,-1.726219416E0,1.817199111E0,2.370259613E-1
3.254118472E1,-2.973598480E0,2.604891539E0,1.654393315E0
3.256117261E1,-3.830722809E0,2.059013367E0,6.303933144E0
3.258119258E1,-1.010353088E0,5.865794420E-1,8.719682693E0
3.260118393E1,-2.219424963E0,2.274491638E-1,1.070208168E1
3.262117098E1,-6.351817131E0,7.709329724E-1,1.308431244E1
3.264118972E1,-9.686940193E0,1.065419793E0,1.207635307E1
3.266118045E1,-1.108994198E1,1.460463047E0,1.600523758E1
3.268116757E1,-1.362779617E1,8.667010069E-1,2.303461456E1
3.270118877E1,-9.753977776E0,-5.008669853E0,2.410482216E1
3.272117820E1,-3.706224203E0,-7.766790390E0,1.821508598E1
3.274116809E1,-1.963245422E-1,-5.056553841E0,1.054166985E1
3.276118398E1,1.424550056E0,-1.821987510E0,6.215347767E0
3.278117349E1,1.101332784E0,-3.567360640E-1,7.120356083E0
3.280119438E1,1.098938584E0,-1.520318031E0,1.190397072E1
3.282118458E1,3.239354849E0,-1.611297727E0,1.106599998E1
3.284117278E1,5.997475147E0,-1.821987510E0,4.618414879E0
3.286119275E1,6.241683960E0,-2.013523579E0,2.078166962E0
3.288117918E1,7.661445141E-1,-1.582567334E0,6.191405773E0
3.290117022E1,-7.781155705E-1,-7.158663273E-1,1.391031170E1
3.292118750E1,6.488286853E-1,-4.884171486E-1,1.220324612E1
3.294117816E1,2.128445387E0,-7.086837292E-1,1.018493366E1
3.296116682E1,3.926490784E0,1.268926859E-1,5.176264286E0
3.298118640E1,3.526659012E0,6.655880809E-1,1.745373011E0
3.300117567E1,1.920149803E0,7.589619160E-1,2.633621931E0
3.302119495E1,5.291185975E-1,1.051054597E0,3.562572241E0
3.304118261E1,6.224924326E-2,6.488286853E-1,3.428496838E0
3.306117188E1,9.935936928E-1,7.086837292E-1,4.675876141E0
3.308119308E1,3.907337189E0,1.103726983E0,6.270414352E0
3.310118167E1,3.435679436E0,8.355764151E-1,9.988609314E0
3.312116987E1,-6.057330370E-1,-8.714894056E-1,1.469082165E1
3.314119114E1,-1.134851575E0,-2.042253971E0,1.476743603E1
3.316117726E1,1.106121182E0,-1.252167463E0,1.295023727E1
3.318116677E1,2.114080191E0,8.475474119E-1,1.175074196E1
3.320118758E1,1.211466074E0,3.435679436E0,1.079066753E1
3.322117747E1,5.602431893E-1,4.113238335E0,1.074278259E1
3.324116444E1,1.740584612E0,3.236960649E0,1.108515358E1
3.326118818E1,1.225831270E0,7.445967197E-1,1.184890461E1
3.328117461E1,-1.551442742E0,-4.836287498E-1,1.011310768E1
3.330118958E1,-4.800374508E0,3.351882473E-2,7.757213593E0
3.332117977E1,-5.961562157E0,4.716577232E-1,4.462791920E0
3.334117174E1,-5.796362400E0,2.023100376E0,3.318363667E0
3.336119040E1,-6.172252178E0,2.621650934E0,5.319916248E0
3.338117722E1,-3.722983599E0,1.884236693E0,8.523358345E0
3.340116880E1,-2.458845139E0,6.679822803E-1,1.088882923E1
3.342118915E1,-6.950367451E0,1.513135433E0,1.476743603E1
3.344117581E1,-7.094019413E0,1.379060149E0,1.285925770E1
3.346116632E1,-4.209006786E0,-4.884171486E-1,1.092953110E1
3.348118559E1,-3.677493811E0,-2.154781520E-1,9.375694275E0
3.350117664E1,-6.387730122E0,9.504981041E-1,1.308191776E1
3.352119630E1,-7.750030994E0,-4.141969085E-1,1.956062698E1
3.354118334E1,-6.710947514E0,-2.262520552E0,1.920868111E1
3.356117131E1,-4.891354084E0,-1.431732655E0,1.595495987E1
3.358118974E1,-4.098873138E0,-2.609679997E-1,1.540429401E1
3.360118240E1,-4.367023945E0,-5.554547906E-1,1.644337654E1
3.362117029E1,-3.964797974E0,-9.768342972E-1,1.311783123E1
3.364119003E1,-2.293645144E0,-6.368576288E-1,8.453926086E0
3.366117792E1,-1.101332784E0,-4.333505034E-1,5.200206280E0
3.368116750E1,-4.094084799E-1,-3.806780577E-1,3.383007050E0
3.370118685E1,5.291185975E-1,-2.537853718E-1,2.774879694E0
3.372117505E1,1.915361404E0,-9.193734527E-1,3.801992416E0
3.374119387E1,2.049436569E0,-1.927332401E0,7.632715225E0
3.376118422E1,8.451532125E-1,-1.946485996E0,9.289502144E0
3.378117280E1,9.816227108E-2,-1.479616642E0,7.496245384E0
3.380119154E1,4.548983276E-2,-8.092401624E-1,5.264849663E0
3.382118205E1,5.219359994E-1,2.394201700E-3,7.383718014E0
3.384116940E1,4.141969085E-1,6.416460276E-1,9.227252960E0
3.386118867E1,-2.825157940E-1,6.464344263E-2,7.673416615E0
3.388117972E1,-2.873041928E-1,-7.086837292E-1,6.086060524E0
3.390116953E1,4.477157295E-1,-6.368576288E-1,5.655104637E0
3.392118950E1,4.213795066E-1,3.016694188E-1,7.077260017E0
3.394117508E1,-3.687070608E-1,5.817909837E-1,9.605537415E0
3.396116420E1,-6.320692301E-1,3.830722570E-1,1.042195988E1
3.398118548E1,-1.910573006E0,1.218648672E0,1.193509579E1
3.400117429E1,-4.848258495E0,1.872265697E0,1.367568016E1
3.402119372E1,-6.722918510E0,1.793257117E0,1.510262394E1
3.404118169E1,-6.378153324E0,1.426944256E0,1.534443855E1
3.406117274E1,-4.007893562E0,2.240972757E0,1.165736771E1
3.408119047E1,-1.929726601E0,4.094084740E0,8.286332130E0
3.410117998E1,-3.033453465E0,5.652710438E0,8.956708908E0
3.412116802E1,-7.450755596E0,5.355829239E0,1.143949604E1
3.414118861E1,-4.050989151E0,2.679111719E0,1.286404610E1
3.416117781E1,-1.096544385E0,2.082955360E0,1.120965195E1
3.418116539E1,-2.418143749E-1,2.425326347E0,6.936002254E0
3.420118536E1,3.327940404E-1,2.767697096E0,5.085284233E0
3.422117517E1,-3.050212860E0,4.094084740E0,4.089296341E0
3.424119398E1,-2.841917515E0,3.193865061E0,8.418013573E0
3.426118288E1,-2.130839586E0,1.113303781E0,9.660603523E0
3.428117208E1,-2.200271368E0,-1.005564705E-1,9.153033257E0
3.430119174E1,-3.098097086E0,-1.723825186E-1,8.710105896E0
3.432118155E1,-4.084507942E0,3.806780577E-1,9.883264542E0
3.434116944E1,-4.144362926E0,1.886630893E0,9.325415611E0
3.436118848E1,-3.229778051E0,2.300827742E0,8.422801971E0
3.438117984E1,-2.873042040E-2,1.546654344E0,8.090007782E0
3.440116780E1,1.762132406E0,1.695094824E0,9.749189377E0
3.442118531E1,5.339069963E-1,1.584961534E0,1.082658005E1
3.444117243E1,-2.190694571E0,1.640028119E0,1.037647057E1
3.446119386E1,-2.810792685E0,2.128445387E0,7.757213593E0
3.448118468E1,-1.438915253E0,2.329558372E0,6.426037312E0
3.450117264E1,2.466027737E-1,2.190694571E0,7.225700855E0
3.452119323E1,3.112462163E-2,1.994369984E0,8.971074104E0
3.454118120E1,-1.374271750E0,1.680729628E0,8.980650902E0
3.456117093E1,-2.391807556E0,1.424550056E0,7.462726593E0
3.458119028E1,-2.379836559E0,1.503558636E0,4.991910458E0
3.460117979E1,-1.946485996E0,2.252943754E0,3.993528366E0
3.462116714E1,-1.323993564E0,2.202665567E0,5.264849663E0
3.464118865E1,-1.527500629E0,1.991975784E0,7.290344238E0
3.466117546E1,-1.513135433E0,1.331176162E0,7.443572998E0
3.468116558E1,-9.002198577E-1,9.935936928E-1,6.976703644E0
3.470118640E1,-1.036689281E0,1.596932530E0,7.472303391E0
3.472117414E1,-1.060631394E0,1.867477298E0,7.477091789E0
3.474119280E1,-7.134721279E-1,1.800439715E0,6.737283707E0
3.476118138E1,-7.996633649E-1,2.296039343E0,6.569689274E0
3.478117096E1,-1.424550056E0,2.849100113E0,6.179434776E0
3.480118970E1,-1.980004787E0,4.022258759E0,6.342240334E0
3.482118159E1,-9.624691010E-1,4.955997467E0,6.517016888E0
3.484116833E1,-1.125274777E0,6.002263546E0,7.120356083E0
3.486119106E1,-1.551442742E0,7.249642849E0,8.619126320E0
3.488117572E1,-3.071760893E0,8.224082947E0,1.062307262E1
3.490116584E1,-4.249708176E0,8.061277390E0,1.256477070E1
3.492118574E1,-2.676717520E0,6.634333134E0,1.458308220E1
3.494117409E1,-1.359906554E0,5.499481201E0,1.402044487E1
3.496116390E1,-1.968033791E0,5.585672379E0,1.294784260E1
3.498118256E1,-3.835511208E0,6.198588371E0,1.305079365E1
3.500117145E1,-4.477157116E0,5.224148273E0,1.342907715E1
3.502119111E1,-3.603273630E0,4.041412354E0,1.609621811E1
3.504118193E1,-1.446097851E0,1.673547029E0,1.566526127E1
3.506117143E1,-2.791639090E0,2.451662540E0,1.523909378E1
3.508118886E1,-1.005564690E0,1.525106430E0,1.352723980E1
3.510118052E1,-1.300051570E0,1.936909199E0,1.020887566E1
3.512116641E1,-2.753331900E0,1.991975784E0,9.095572472E0
3.514118792E1,-3.897760391E0,1.364694953E0,9.251194954E0
3.516117620E1,-1.793257117E0,8.140285611E-1,8.949525833E0
3.518116601E1,7.829039693E-1,1.345541358E0,8.798690796E0
3.520118467E1,5.243301988E-1,2.588132143E0,8.856152534E0
3.522117356E1,-1.089361787E0,3.646369219E0,8.085219383E0
3.524119230E1,-2.279279947E0,3.703830004E0,7.592013359E0
3.526118281E1,-1.534683347E0,2.734178305E0,9.382876396E0
3.528116885E1,-1.980004787E0,2.377442360E0,1.083615685E1
3.530118974E1,-1.108515382E0,2.229001760E0,9.320627213E0
3.532117932E1,-2.729389966E-1,2.322375536E0,5.786785603E0
3.534117029E1,1.209071875E0,3.277662039E0,2.145204782E0
3.536118787E1,-1.620874524E0,3.478775024E0,6.289567947E0
3.538117607E1,-4.067748547E0,2.482787132E0,1.011789608E1
3.540116527E1,-3.840299606E0,2.327163935E0,7.094019413E0
3.542118678E1,-1.836352706E0,2.566584110E0,3.876212597E0
3.544117475E1,5.746083856E-1,3.179499865E0,3.459621429E0
3.546116302E1,-5.339069963E-1,3.969586372E0,5.118803024E0
3.548484115E1,-4.685452938E0,4.110844135E0,5.896918774E0
3.550486213E1,-3.313575268E0,4.647145271E0,6.694188118E0
3.552485349E1,-1.613691926E0,4.213795185E0,9.785101891E0
3.554483985E1,-1.446097851E0,3.813963413E0,1.081939793E1
3.556485959E1,-2.626439333E0,3.677493811E0,9.919178009E0
3.558484933E1,-3.756502390E0,4.149151325E0,8.427590370E0
3.560483823E1,-3.620033026E0,4.436455727E0,7.987056732E0
3.562485582E1,-2.389413357E0,4.261679173E0,8.650250435E0
3.564484618E1,-1.963245392E0,4.450820923E0,9.097966194E0
3.566483446E1,-2.159569979E0,4.386177540E0,9.112331390E0
3.568485382E1,-2.566584110E0,4.168305397E0,8.868123055E0
3.570484334E1,-2.794033289E0,3.983951569E0,8.341399193E0
3.572486370E1,-2.767697096E0,3.926490784E0,7.941566944E0
3.574485321E1,-2.607285738E0,3.952826977E0,7.726089001E0
3.576484326E1,-2.389413357E0,4.187458992E0,7.855375767E0
3.578485993E1,-2.327163935E0,4.383783340E0,8.018181801E0
3.580485037E1,-2.138022184E0,4.244919777E0,7.874529362E0
3.582483919E1,-2.276885748E0,4.311957359E0,7.326257229E0
3.584485832E1,-2.561795712E0,4.618414879E0,6.998251438E0
3.586484652E1,-2.413355350E0,4.632780075E0,6.981492043E0
3.588483542E1,-2.152387381E0,4.740519524E0,7.232883453E0
3.590485570E1,-2.176329374E0,4.783615112E0,7.189787865E0
3.592484498E1,-2.255337954E0,4.793191910E0,7.302315235E0
3.594486434E1,-2.037465572E0,4.747702122E0,7.354987621E0
3.596485386E1,-1.948880196E0,4.683058739E0,7.390900612E0
3.598484206E1,-1.795651317E0,4.534617901E0,7.785943985E0
3.600486427E1,-1.980004787E0,4.627991676E0,8.817844391E0
3.602485224E1,-1.951274395E0,4.541800499E0,1.008437729E1
3.604483837E1,-1.568202138E0,4.197035789E0,1.077869606E1
3.606485735E1,-1.726219416E0,3.773261786E0,1.145146656E1
3.608484909E1,-2.473210335E0,3.725377798E0,1.196621990E1
3.610483645E1,-2.853888512E0,3.768473387E0,1.278503704E1
3.612485512E1,-2.564189911E0,3.356670856E0,1.364934349E1
3.614484532E1,-1.479616642E0,2.940079689E0,1.403720474E1
3.616483322E1,-3.663128614E-1,2.688688517E0,1.350329781E1
3.618485297E1,2.729389966E-1,2.573766708E0,1.244266605E1
3.620484179E1,2.011129409E-1,2.636016130E0,1.134851646E1
3.622486053E1,1.915361360E-2,2.525882721E0,9.665391922E0
3.624485220E1,2.561795712E-1,2.336740971E0,8.616731644E0
3.626484148E1,1.568202138E0,2.391807556E0,8.755595207E0
3.628485953E1,3.033453465E0,2.245761156E0,8.995016098E0
3.630484912E1,2.762908697E0,1.709460020E0,9.136273384E0
3.632483764E1,7.517793179E-1,1.213860273E0,9.188945770E0
3.634485854E1,-6.703764796E-1,1.139639974E0,7.934384346E0
3.636484597E1,-3.208230138E-1,1.450886250E0,7.053318024E0
3.638483356E1,-1.963245422E-1,1.565807939E0,6.950367451E0
3.640485446E1,-6.153098345E-1,1.323993564E0,7.264008045E0
3.642484251E1,-9.624691010E-1,1.039083481E0,8.485051155E0
3.644486549E1,-1.110909581E0,1.130063176E0,8.621520042E0
3.646485138E1,-9.888052940E-1,1.115697980E0,8.868123055E0
3.648484205E1,-1.256955862E0,1.206677675E0,8.851364136E0
3.650486056E1,-1.980004787E0,1.572990537E0,8.611943245E0
3.652485154E1,-1.800439715E0,1.690306425E0,8.104372978E0
3.654483928E1,-1.340752959E0,1.666364431E0,8.039729118E0
3.656485772E1,-9.983820915E-1,1.264138460E0,8.243236542E0
3.658484654E1,-2.466027737E-1,1.300051570E0,8.367734909E0
3.660483513E1,-1.843535304E-1,1.778891921E0,8.051700592E0
3.662485541E1,-3.184288144E-1,2.032677174E0,7.560888767E0
3.664484531E1,-3.064578176E-1,2.039859772E0,7.266402245E0
3.666483321E1,-5.530605912E-1,2.047042370E0,7.486668587E0
3.668485295E1,-8.259995580E-1,1.649604917E0,8.310274124E0
3.670484278E1,-1.161187768E0,1.355118155E0,1.017775154E1
3.672486267E1,-1.225831270E0,1.256955862E0,1.115697956E1
3.674484942E1,-1.398213744E0,1.285686255E0,1.227986050E1
3.676483862E1,-1.649604917E0,1.120486379E0,1.211944866E1
3.678485952E1,-1.845929503E0,6.320692301E-1,1.168609810E1
3.680484819E1,-2.049436569E0,2.418143749E-1,1.180820274E1
3.682483616E1,-2.566584110E0,-3.112462163E-2,1.259828949E1
3.684485606E1,-2.758120298E0,-2.035071403E-1,1.324232960E1
3.686484711E1,-2.901772499E0,-1.364694983E-1,1.337640476E1
3.688483517E1,-3.148375273E0,-1.197100803E-2,1.338598156E1
3.690485422E1,-2.109291792E0,-1.675941199E-1,1.337640476E1
3.692484373E1,-1.498770237E0,-4.357447028E-1,1.357033539E1
3.694486178E1,-1.493981838E0,-4.501099288E-1,1.306755257E1
3.696485191E1,-1.757344007E0,-2.059013397E-1,1.125993061E1
3.698484150E1,-2.250549555E0,-1.819593310E-1,9.097966194E0
3.700486024E1,-2.145204782E0,-5.865794420E-1,7.417236805E0
3.702485068E1,-1.833958507E0,-8.667010069E-1,7.340622425E0
3.704483950E1,-1.874659896E0,-9.169792533E-1,6.873753071E0
3.706485886E1,-1.592144132E0,-1.180341482E0,6.883329868E0
3.708484568E1,-1.383848548E0,-1.728613615E0,9.390059471E0
3.710483643E1,-2.027888775E0,-1.484405041E0,9.789890289E0
3.712485602E1,-2.365471363E0,-1.331176162E0,1.026394272E1
3.714484615E1,-1.335964561E0,-1.424550056E0,9.078812599E0
3.716483381E1,-3.471592367E-1,-1.403002143E0,7.996633530E0
3.718485286E1,-2.322375625E-1,-7.900865674E-1,7.852981567E0
3.720484238E1,-8.188169599E-1,-6.847416759E-1,7.647080421E0
3.722486089E1,-1.235408068E0,-8.882488012E-1,7.283161640E0
3.724484764E1,-1.125274777E0,-9.696516991E-1,6.734889507E0
3.726484046E1,-8.667010069E-1,-7.278373241E-1,6.878541470E0
3.728485836E1,-1.058237195E0,-2.992752194E-1,7.802703381E0
3.730485033E1,-1.177947283E0,-1.197100878E-1,8.362946510E0
3.732483823E1,-1.508347034E0,7.182605099E-3,7.723694801E0
3.734485736E1,-1.860294700E0,1.675941236E-2,8.111555099E0
3.736484526E1,-1.711854219E0,0.000000000E0,7.948749542E0
3.738483231E1,-4.979939461E-1,-2.130839527E-1,8.643068314E0
3.740485351E1,-7.613561153E-1,1.508347094E-1,1.006043530E1
3.742484333E1,-8.738836050E-1,3.854664862E-1,1.082897472E1
3.744486300E1,-6.177040339E-1,4.165911078E-1,1.092953110E1
3.746485128E1,-1.144428372E0,4.836287498E-1,1.050575733E1
3.748483841E1,-1.031900883E0,-1.197100878E-1,1.067574501E1
3.750486016E1,-1.350329757E0,-8.571242094E-1,1.174355888E1
3.752485036E1,-1.802833915E0,-1.434126854E0,1.316810894E1
3.754483734E1,-1.139639974E0,-2.082955360E0,1.374750614E1
3.756485616E1,3.232172430E-1,-2.288856745E0,1.394622517E1
3.758484444E1,1.098938584E0,-2.437297344E0,1.341231823E1
3.760483580E1,7.086837292E-1,-2.339135170E0,1.307234097E1
3.762485262E1,5.554547906E-1,-2.279279947E0,1.268208599E1
3.764484090E1,7.374141216E-1,-2.415749550E0,1.226310158E1
3.766483265E1,9.361328483E-1,-2.231395960E0,1.175313568E1
3.768485262E1,1.082179189E0,-1.733402014E0,1.098938560E1
3.770484360E1,1.271321058E0,-1.235408068E0,1.036928749E1
3.772486050E1,1.489193439E0,-8.236053586E-1,9.402029991E0
3.774484578E1,1.335964561E0,-3.878606856E-1,8.317456245E0
3.776483768E1,8.690952063E-1,-9.097966552E-2,7.589619160E0
3.778485927E1,2.992752194E-1,9.576806426E-2,7.551311970E0
3.780484717E1,1.244984865E-1,9.097966552E-2,7.821856976E0
3.782483522E1,-1.532289088E-1,9.576806426E-2,8.178592682E0
3.784485581E1,-2.729389966E-1,1.436520964E-1,8.319850922E0
3.786484463E1,-4.525041282E-1,2.705447972E-1,8.348581314E0
3.788483330E1,-9.409212470E-1,4.333505034E-1,8.556877136E0
3.790485296E1,-1.386242747E0,3.351882398E-1,8.860940933E0
3.792484209E1,-1.137245774E0,7.182604820E-2,8.954314232E0
3.794486122E1,-6.584054828E-1,4.548983276E-2,8.772355080E0
3.796485158E1,-4.620809257E-1,2.059013397E-1,8.647856712E0
3.798483986E1,-5.219359994E-1,4.070142806E-1,8.501810074E0
3.800485953E1,-6.200982332E-1,5.626373887E-1,8.307879448E0
3.802484812E1,-6.631938815E-1,6.200982332E-1,8.226476669E0
3.804483610E1,-6.081272364E-1,7.062895298E-1,8.013393402E0
3.806485799E1,-6.751648784E-1,9.864110947E-1,7.776367188E0
3.808484620E1,-7.829039693E-1,1.292868972E0,7.639897823E0
3.810483633E1,-9.864110947E-1,1.702277422E0,7.723694801E0
3.812485507E1,-1.149216771E0,1.948880196E0,7.910442352E0
3.814484335E1,-1.003170490E0,2.001552582E0,8.276755333E0
3.816483379E1,-7.757213712E-1,1.946485996E0,8.748413086E0
3.818485138E1,-1.264138460E0,2.027888775E0,9.244012833E0
3.820484182E1,-1.944091797E0,1.905784607E0,9.421183586E0
3.822485956E1,-2.324769735E0,1.742978811E0,9.849745750E0
3.824485061E1,-1.941697598E0,1.668758631E0,1.046026707E1
3.826483982E1,-2.078166962E0,1.754949808E0,1.116416264E1
3.828485672E1,-2.200271368E0,1.680729628E0,1.143231297E1
3.830484631E1,-1.687912226E0,1.436521053E0,1.142752457E1
3.832483605E1,-1.383848548E0,1.297657371E0,1.142273617E1
3.834485610E1,-1.685518026E0,1.106121182E0,1.194706631E1
3.836484316E1,-2.403778553E0,8.810662031E-1,1.252167511E1
3.838483359E1,-3.131615877E0,8.619126081E-1,1.311543655E1
3.840485288E1,-3.320757866E0,8.499416113E-1,1.352245140E1
3.842484085E1,-2.679111719E0,6.584054828E-1,1.375947762E1
3.844485959E1,-2.296039343E0,5.075707436E-1,1.316092682E1
3.846485003E1,-2.262520552E0,3.280056417E-1,1.177468395E1
3.848483800E1,-2.334346771E0,2.825157940E-1,1.029985619E1
3.850485829E1,-2.319981337E0,4.908113480E-1,9.244012833E0
3.852484657E1,-2.104503393E0,7.302315235E-1,8.813055992E0
3.854483762E1,-1.747767210E0,9.074024558E-1,8.944737434E0
3.856485667E1,-1.551442742E0,8.978256583E-1,9.220070839E0
3.858484588E1,-1.726219416E0,6.799532771E-1,8.887276649E0
3.860483362E1,-1.896207690E0,5.075707436E-1,8.080430984E0
3.862485260E1,-2.023100376E0,5.099649429E-1,7.615955830E0
3.864484311E1,-1.994369984E0,5.841852427E-1,7.536946774E0
3.866483286E1,-1.805228114E0,7.422025204E-1,7.750030994E0
3.868485106E1,-1.611297727E0,9.552865028E-1,7.788338184E0
3.870484119E1,-1.498770237E0,1.077390790E0,7.625532627E0
3.872485901E1,-1.388636947E0,1.103726983E0,7.357381821E0
3.874484852E1,-1.218648672E0,1.007958889E0,6.885724068E0
3.876483742E1,-1.216254473E0,1.132457376E0,7.003039837E0
3.878485555E1,-1.106121182E0,1.345541358E0,7.477091789E0
3.880484537E1,-1.022324085E0,1.508347034E0,7.855375767E0
3.882483542E1,-1.003170490E0,1.608903527E0,7.972691536E0
3.884485386E1,-9.624691010E-1,1.786074519E0,7.898471355E0
3.886484345E1,-1.019929886E0,1.884236693E0,7.989450932E0
3.888483166E1,-9.672574997E-1,1.896207690E0,8.264783859E0
3.890485202E1,-9.097966552E-1,1.991975784E0,8.707711220E0
3.892484022E1,-4.812345505E-1,2.044648170E0,9.102754593E0
3.894485989E1,-4.094084799E-1,2.255337954E0,9.409213066E0
3.896485002E1,-5.267243981E-1,2.339135170E0,9.536105156E0
3.898484115E1,-5.171475410E-1,2.152387381E0,9.658209801E0
3.900485674E1,-6.584054828E-1,1.896207690E0,1.029985619E1
3.902484502E1,-7.445967197E-1,1.723825216E0,1.137964058E1
3.904483492E1,-7.805097699E-1,1.429338455E0,1.213620853E1
3.906485605E1,-6.775590777E-1,1.264138460E0,1.210029507E1
3.908484156E1,-2.154781520E-1,1.225831270E0,1.143710136E1
3.910483392E1,3.351882398E-1,1.297657371E0,1.130542088E1
3.912485297E1,7.086837292E-1,1.256955862E0,1.168370438E1
3.914484249E1,1.175553083E0,8.810662031E-1,1.227746677E1
3.916482946E1,1.522712231E0,4.477157295E-1,1.255519390E1
3.918485067E1,1.441309452E0,5.746084079E-2,1.239957047E1
3.920484118E1,1.173158884E0,-1.364694983E-1,1.200452709E1
3.922485739E1,1.110909581E0,-2.633621991E-1,1.188481712E1
3.924484790E1,1.268926859E0,-2.896983922E-1,1.196382618E1
3.926483641E1,1.338358760E0,-3.495534360E-1,1.190875912E1
3.928485800E1,1.333570361E0,-3.734954596E-1,1.120007515E1
3.930484559E1,1.503558636E0,-2.537853718E-1,1.007719517E1
3.932483449E1,1.417367458E0,-2.633621916E-2,8.906430244E0
3.934485147E1,1.458068848E0,2.059013397E-1,8.135497093E0
3.936484529E1,1.359906554E0,3.854664862E-1,8.135497093E0
3.938483042E1,8.906430602E-1,4.453215301E-1,8.822632790E0
3.940485108E1,3.998316824E-1,2.178723514E-1,9.232041359E0
3.942484183E1,-1.244984865E-1,5.027823523E-2,8.939949036E0
3.944485896E1,-5.530605912E-1,1.580173075E-1,8.135497093E0
3.946484878E1,-7.565677166E-1,5.195417404E-1,7.864952564E0
3.948483714E1,-8.499416113E-1,1.065419793E0,8.092401505E0
3.950485711E1,-6.823474765E-1,1.410184860E0,8.195352554E0
3.952484662E1,-6.919242740E-1,1.592144132E0,8.226476669E0
3.954483398E1,-8.786720037E-1,1.692700624E0,8.022970200E0
3.956485480E1,-1.048660398E0,1.680729628E0,7.989450932E0
3.958484186E1,-1.108515382E0,1.695094824E0,7.841010571E0
3.960483383E1,-1.072602391E0,1.678335428E0,7.738059998E0
3.962485234E1,-9.169792533E-1,1.695094824E0,7.697358608E0
3.964483994E1,-8.523358107E-1,1.778891921E0,7.934384346E0
3.966482983E1,-7.709329724E-1,1.970427990E0,8.293514252E0
3.968485196E1,-8.834604025E-1,2.152387381E0,8.602366447E0
3.970483871E1,-9.074024558E-1,2.104503393E0,8.705317497E0
3.972485807E1,-9.840168953E-1,2.003946781E0,9.035717010E0
3.974484789E1,-9.911994934E-1,1.939303398E0,9.485827446E0
3.976483640E1,-8.643068075E-1,1.891419291E0,1.001973438E1
3.978485514E1,-9.888052940E-1,2.008735180E0,1.005085850E1
3.980484435E1,-1.125274777E0,2.090138197E0,1.005804157E1
3.982483294E1,-1.209071875E0,1.958456993E0,1.046266174E1
3.984485453E1,-1.074996591E0,1.644816518E0,1.120007515E1
3.986484343E1,-1.225831270E0,1.211466074E0,1.179144382E1
3.988483256E1,-1.735796213E0,9.720458984E-1,1.179862595E1
3.990484953E1,-1.503558636E0,9.433154464E-1,1.101572227E1
3.992484058E1,-8.427590132E-1,1.142034173E0,1.079784966E1
3.994482979E1,-6.631938815E-1,1.240196466E0,1.159511852E1
3.996484730E1,-1.381454349E0,8.164227605E-1,1.258631802E1
3.998483766E1,-2.262520552E0,2.537853718E-1,1.286883450E1
4.000485710E1,-3.184288263E0,1.347935557E0,1.197100830E1
4.002484531E1,-2.853888512E0,-9.576806426E-2,1.236605167E1
4.004483420E1,-2.765302896E0,9.337386489E-2,1.198537350E1
4.006485541E1,-2.358288765E0,4.740519226E-1,1.097980881E1
4.008484277E1,-1.987187386E0,7.062895298E-1,1.009395409E1
4.010483259E1,-1.960851192E0,9.552865028E-1,9.605537415E0
4.012485202E1,-1.946485996E0,1.039083481E0,9.318233490E0
4.014484208E1,-1.874659896E0,9.313444495E-1,9.033323288E0
4.016482975E1,-1.833958507E0,8.140285611E-1,8.750806808E0
4.018485010E1,-1.781286120E0,7.781155705E-1,8.762778282E0
4.020483893E1,-1.776497602E0,8.164227605E-1,8.935160637E0
4.022485890E1,-1.757344007E0,8.259995580E-1,8.927978516E0
4.024484788E1,-1.807622313E0,8.259995580E-1,8.336610794E0
4.026483646E1,-1.843535304E0,8.451532125E-1,7.592013359E0
4.028485575E1,-1.671152830E0,8.762778044E-1,7.266402245E0
4.030484495E1,-1.501164436E0,9.337386489E-1,7.374141216E0
4.032483485E1,-1.484405041E0,9.720458984E-1,7.836222172E0
4.034485236E1,-1.376665950E0,9.576807022E-1,7.891288757E0
4.036484065E1,-1.122880578E0,1.003170490E0,7.225700855E0
4.038483016E1,-8.834604025E-1,1.177947283E0,6.574477673E0
4.040485252E1,-7.398083210E-1,1.347935557E0,6.461950302E0
4.042483934E1,-1.005564690E0,1.522712231E0,6.825869083E0
4.044485901E1,-1.371877551E0,1.647210717E0,7.139509678E0
4.046484691E1,-1.470039845E0,1.577778935E0,6.991068840E0
4.048483611E1,-1.572990537E0,1.704671621E0,6.864176273E0
4.050485670E1,-1.668758631E0,1.951274395E0,7.259219646E0
4.052484445E1,-1.637633920E0,2.104503393E0,7.762001991E0
4.054483450E1,-1.493981838E0,1.980004787E0,8.379706383E0
4.056485694E1,-1.333570361E0,1.582567334E0,9.504981041E0
4.058484253E1,-1.642422318E0,1.230619669E0,1.074996567E1
4.060483019E1,-2.106897593E0,9.935936928E-1,1.236126328E1
4.062484986E1,-2.224213362E0,6.607996821E-1,1.339795303E1
4.064484184E1,-2.001552582E0,4.908113480E-1,1.307234097E1
4.066483004E1,-1.577778935E0,7.541735172E-1,1.185848141E1
4.068484917E1,-6.727706790E-1,9.576807022E-1,1.199495029E1
4.070483491E1,2.896983922E-1,7.757213712E-1,1.332373238E1
4.072485612E1,8.571242094E-1,0.000000000E0,1.455674648E1
4.074484602E1,9.002198577E-1,-7.637503147E-1,1.476504230E1
4.076483515E1,1.280897856E0,-1.367089152E0,1.401086807E1
4.078485635E1,1.975216389E0,-1.640028119E0,1.357512379E1
4.080484348E1,2.501940727E0,-1.620874524E0,1.364694977E1
4.082483199E1,2.343923569E0,-1.367089152E0,1.309149456E1
4.084485112E1,1.817199111E0,-1.189918280E0,1.125514221E1
4.086484025E1,1.546654344E0,-9.768342972E-1,9.382876396E0
4.088482861E1,1.991975784E0,-8.212111592E-1,7.704541206E0
4.090484974E1,2.528276920E0,-5.386953950E-1,6.890512466E0
4.092483864E1,2.427720547E0,-1.604115069E-1,7.218518257E0
4.094485707E1,1.690306425E0,0.000000000E0,8.171410561E0
4.096484943E1,8.403648138E-1,-2.537853718E-1,8.350975990E0
4.098483733E1,1.364694983E-1,-3.447650373E-1,7.855375767E0
4.100485577E1,-3.567360640E-1,-4.309562966E-2,7.536946774E0
4.102484251E1,-4.022258818E-1,4.333505034E-1,8.298302650E0
4.104483241E1,-2.442085743E-1,7.972691655E-1,9.306262016E0
4.106485362E1,-3.998316824E-1,1.015141487E0,9.854534149E0
4.108484213E1,-4.788403511E-1,9.696516991E-1,9.890447617E0
4.110483049E1,-1.675941199E-1,8.427590132E-1,9.521739960E0
4.112485108E1,1.221042871E-1,9.385270476E-1,9.157821655E0
4.114483959E1,2.681505978E-1,1.082179189E0,8.676587105E0
4.116482695E1,7.182604820E-2,1.142034173E0,8.552088737E0
4.118484854E1,2.777273953E-1,1.216254473E0,8.741230011E0
4.120483652E1,-3.591302410E-2,1.280897856E0,8.559270859E0
4.122485403E1,-1.628057212E-1,1.122880578E0,8.343792915E0
4.124484508E1,-5.578489900E-1,1.300051570E0,8.178592682E0
4.126483544E1,-5.578489900E-1,1.458068848E0,8.279149055E0
4.128485273E1,-2.537853718E-1,1.551442742E0,8.631096840E0
4.130484155E1,-4.213795066E-1,1.731007814E0,9.021351814E0
4.132483229E1,-7.086837292E-1,1.783680320E0,9.354146004E0
4.134485234E1,-9.624691010E-1,1.690306425E0,9.155426979E0
4.136484155E1,-1.261744261E0,1.628057122E0,9.093177795E0
4.138482822E1,-1.168370485E0,1.470039845E0,9.725247383E0
4.140484973E1,-1.029506683E0,1.247379065E0,1.037886429E1
4.142483686E1,-9.792284966E-1,1.039083481E0,1.050336266E1
4.144485806E1,-1.259350061E0,1.106121182E0,1.022324085E1
4.146484912E1,-1.637633920E0,1.352723956E0,9.825803757E0
4.148483486E1,-1.482010841E0,1.534683347E0,9.909601212E0
4.150485699E1,-9.600749016E-1,1.640028119E0,1.070926380E1
4.152484442E1,-5.291185975E-1,1.470039845E0,1.202128696E1
4.154483201E1,-9.457096457E-1,1.228225470E0,1.329021358E1
4.156485322E1,-1.544260144E0,8.738836050E-1,1.372595787E1
4.158483935E1,-1.594538331E0,3.208230138E-1,1.268448067E1
4.160483071E1,-1.228225470E0,4.070143029E-2,1.174355888E1
4.162484830E1,-1.328781962E0,3.280056417E-1,1.178904915E1
4.164484020E1,-1.436520964E-1,3.493140221E0,1.061349583E1
4.166482786E1,-2.796427488E0,1.915361360E-2,1.202128696E1
4.168484761E1,-3.442862034E0,-1.029506698E-1,1.042195988E1
4.170483612E1,-3.373430252E0,-9.337386489E-2,8.722076416E0
4.172485464E1,-3.007117271E0,2.537853718E-1,8.022970200E0
4.174484407E1,-2.274491549E0,8.403648138E-1,8.056488991E0
