"Time (s)","Acceleration x (m/s^2)","Acceleration y (m/s^2)","Acceleration z (m/s^2)"
2.466199800E-2,-1.409671664E0,5.460421085E0,8.040482521E0
4.064251900E-2,-1.754238129E0,5.996712685E0,7.542775154E0
6.064251900E-2,0.000000000E0,0.000000000E0,0.000000000E0
8.064251900E-2,0.000000000E0,0.000000000E0,0.000000000E0
1.006425190E-1,0.000000000E0,0.000000000E0,0.000000000E0
1.206425190E-1,0.000000000E0,0.000000000E0,0.000000000E0
1.406425190E-1,0.000000000E0,0.000000000E0,0.000000000E0
1.606425190E-1,0.000000000E0,0.000000000E0,0.000000000E0
1.806425190E-1,0.000000000E0,0.000000000E0,0.000000000E0
2.006425190E-1,0.000000000E0,0.000000000E0,0.000000000E0
2.206425190E-1,0.000000000E0,0.000000000E0,0.000000000E0
2.406425190E-1,0.000000000E0,0.000000000E0,0.000000000E0
2.606425190E-1,0.000000000E0,0.000000000E0,0.000000000E0
2.806425190E-1,0.000000000E0,0.000000000E0,0.000000000E0
3.006425190E-1,0.000000000E0,0.000000000E0,0.000000000E0
3.206425190E-1,0.000000000E0,0.000000000E0,0.000000000E0
3.406425190E-1,0.000000000E0,0.000000000E0,0.000000000E0
3.606425190E-1,0.000000000E0,0.000000000E0,0.000000000E0
3.806425190E-1,0.000000000E0,0.000000000E0,0.000000000E0
4.006425190E-1,0.000000000E0,0.000000000E0,0.000000000E0
4.206425190E-1,0.000000000E0,0.000000000E0,0.000000000E0
4.406425190E-1,0.000000000E0,0.000000000E0,0.000000000E0
4.606425190E-1,0.000000000E0,0.000000000E0,0.000000000E0
4.806425190E-1,0.000000000E0,0.000000000E0,0.000000000E0
5.006425190E-1,0.000000000E0,0.000000000E0,0.000000000E0
5.206425190E-1,0.000000000E0,0.000000000E0,0.000000000E0
5.406425190E-1,0.000000000E0,0.000000000E0,0.000000000E0
5.606425190E-1,0.000000000E0,0.000000000E0,0.000000000E0
5.806425190E-1,0.000000000E0,0.000000000E0,0.000000000E0
6.006425190E-1,0.000000000E0,0.000000000E0,0.000000000E0
6.206425190E-1,0.000000000E0,0.000000000E0,0.000000000E0
6.406425190E-1,0.000000000E0,0.000000000E0,0.000000000E0
6.606425190E-1,0.000000000E0,0.000000000E0,0.000000000E0
6.806425190E-1,0.000000000E0,0.000000000E0,0.000000000E0
7.006425190E-1,0.000000000E0,0.000000000E0,0.000000000E0
7.206425190E-1,0.000000000E0,0.000000000E0,0.000000000E0
7.406425190E-1,0.000000000E0,0.000000000E0,0.000000000E0
7.606425190E-1,0.000000000E0,0.000000000E0,0.000000000E0
7.806425190E-1,0.000000000E0,0.000000000E0,0.000000000E0
8.006425190E-1,0.000000000E0,0.000000000E0,0.000000000E0
8.206425190E-1,0.000000000E0,0.000000000E0,0.000000000E0
8.406425190E-1,0.000000000E0,0.000000000E0,0.000000000E0
8.606425190E-1,0.000000000E0,0.000000000E0,0.000000000E0
8.806425190E-1,0.000000000E0,0.000000000E0,0.000000000E0
9.006425190E-1,0.000000000E0,0.000000000E0,0.000000000E0
9.206425190E-1,0.000000000E0,0.000000000E0,0.000000000E0
9.406425190E-1,0.000000000E0,0.000000000E0,0.000000000E0
9.606425190E-1,0.000000000E0,0.000000000E0,0.000000000E0
9.806425190E-1,0.000000000E0,0.000000000E0,0.000000000E0
1.000642519E0,3.143570721E-1,4.655834675E0,7.504190922E0
1.020642519E0,3.143570721E-1,4.655834675E0,7.504190922E0
1.040642519E0,3.143570721E-1,4.655834675E0,7.504190922E0
1.060642519E0,1.961516380E0,4.694119930E0,7.006184578E0
1.080642519E0,1.654935956E0,4.540979385E0,7.197909832E0
1.100642519E0,1.654935956E0,4.540979385E0,7.197909832E0
1.120642519E0,1.654935956E0,4.540979385E0,7.197909832E0
1.140642519E0,1.654935956E0,4.540979385E0,7.197909832E0
1.140642519E0,3.526422381E-1,4.579264164E0,5.167599678E0
1.180642519E0,-9.116654396E-1,5.958427429E0,7.581060410E0
1.200642519E0,-3.050848842E-2,5.728417397E0,7.925626755E0
1.220642519E0,-1.256231904E0,7.107580662E0,7.734200954E0
1.240642519E0,8.434699476E-2,6.609574318E0,8.423632622E0
1.260642519E0,6.972087026E-1,6.341578007E0,9.764511108E0
1.280642519E0,1.195214868E0,5.996712685E0,1.137338543E1
1.300642519E0,1.348654628E0,5.767001629E0,1.198624706E1
1.320642519E0,1.233500123E0,5.651846886E0,1.271396446E1
1.340642519E0,3.143570721E-1,5.728417397E0,1.206281757E1
1.360642519E0,-3.050848842E-2,6.494719028E0,1.022423172E1
1.380642519E0,2.374876440E-1,6.609574318E0,9.841081619E0
1.400642519E0,2.374876440E-1,6.494719028E0,9.304789543E0
1.420642519E0,-2.602194548E-1,6.609574318E0,8.577073097E0
1.440642519E0,-1.070788130E-1,5.996712685E0,8.347063065E0
1.460642519E0,-8.733802438E-1,5.422136307E0,8.768498421E0
1.480642519E0,-1.792523265E0,4.885844707E0,9.572786331E0
1.500642519E0,-9.882357717E-1,4.464408875E0,7.619345665E0
1.520642519E0,-7.582256794E-1,4.885844707E0,6.201897144E0
1.540642519E0,-6.433702111E-1,5.077270508E0,6.163611889E0
1.560642519E0,-9.499505758E-1,5.422136307E0,6.546762943E0
1.580642519E0,-1.371386528E0,5.307280540E0,5.014459133E0
1.600642519E0,-1.371386528E0,5.230411053E0,5.359025478E0
1.620642519E0,-1.179661512E0,5.268995285E0,6.431608200E0
1.640642519E0,-4.519443810E-1,5.038985252E0,8.730213165E0
1.660642519E0,-6.816553473E-1,5.153841019E0,8.461917877E0
1.680642519E0,-1.064806104E0,5.498706341E0,7.159624577E0
1.700642519E0,-9.116654396E-1,5.728417397E0,6.431608200E0
1.720642519E0,-9.116654396E-1,5.728417397E0,6.431608200E0
1.740642519E0,-2.219343036E-1,5.498706341E0,8.653642654E0
1.760642519E0,-5.667998791E-1,5.651846886E0,8.577073097E0
1.780642519E0,1.609173268E-1,6.034997940E0,7.695915699E0
1.800642519E0,4.674977362E-1,5.958427429E0,8.117351532E0
1.820642519E0,7.740781307E-1,5.651846886E0,8.806783676E0
1.840642519E0,1.156929731E0,5.767001629E0,9.381360054E0
1.860642519E0,8.889335990E-1,6.379863262E0,8.385348320E0
1.880642519E0,1.386939883E0,6.801299095E0,7.044768810E0
1.900642519E0,2.267797709E0,6.686144829E0,7.504190922E0
1.920642519E0,2.382952213E0,5.038985252E0,1.141167068E1
1.940642519E0,1.846660852E0,4.809274197E0,1.026251698E1
1.960642519E0,1.310369492E0,5.230411053E0,7.083054066E0
1.980642519E0,1.310369492E0,5.920142174E0,4.746163845E0
2.000642519E0,1.310369492E0,5.690132141E0,6.469893456E0
2.020642519E0,1.080359459E0,5.345565796E0,7.810771465E0
2.040642519E0,6.589235067E-1,5.038985252E0,8.117351532E0
2.060642519E0,3.909274042E-1,5.268995285E0,6.393322945E0
2.080642519E0,5.440680385E-1,5.767001629E0,5.780461311E0
2.100642519E0,8.506484628E-1,6.034997940E0,5.857031822E0
2.120642519E0,7.354938388E-1,6.149853230E0,6.010471344E0
2.140642519E0,7.740781307E-1,6.073283195E0,6.240182400E0
2.160642519E0,8.123632669E-1,6.226423740E0,6.201897144E0
2.180642519E0,5.440680385E-1,6.494719028E0,6.087041855E0
2.200642519E0,3.909274042E-1,7.031010151E0,7.504190922E0
2.220642519E0,2.374876440E-1,7.337590694E0,8.308777809E0
2.240642519E0,1.609173268E-1,7.797012806E0,8.040482521E0
2.260642519E0,2.374876440E-1,8.103592873E0,7.083054066E0
2.280642519E0,2.760719061E-1,7.835597038E0,8.232207298E0
2.300642519E0,6.589235067E-1,7.414160728E0,9.419645309E0
2.320642519E0,6.972087026E-1,7.222435951E0,9.917651176E0
2.340642519E0,1.992024779E-1,7.452445984E0,9.113364220E0
2.360642519E0,2.760719061E-1,7.643871784E0,8.040482521E0
2.380642519E0,4.292125702E-1,7.873881817E0,6.776473522E0
2.400642519E0,6.972087026E-1,7.414160728E0,7.465905666E0
2.420642519E0,2.760719061E-1,6.647859573E0,8.615358353E0
2.440642519E0,-7.582256794E-1,6.073283195E0,9.151649475E0
2.460642519E0,-1.869392633E0,5.843572140E0,8.538488388E0
2.480642519E0,-1.294517040E0,5.958427429E0,6.585047722E0
2.500642519E0,-5.285146832E-1,5.996712685E0,6.891329288E0
2.520642519E0,-4.902295470E-1,5.920142174E0,6.814758778E0
2.540642519E0,-1.256231904E0,5.536991596E0,5.857031822E0
2.560642519E0,-1.524527073E0,5.536991596E0,5.397310734E0
2.580642519E0,-1.409671664E0,5.613562107E0,5.474180222E0
2.600642519E0,-4.519443810E-1,5.613562107E0,6.316752911E0
2.620642519E0,-1.453639716E-1,5.498706341E0,6.814758778E0
2.640642519E0,-2.602194548E-1,5.460421085E0,7.389335632E0
2.660642519E0,-4.519443810E-1,5.422136307E0,7.351050377E0
2.680642519E0,-1.453639716E-1,5.728417397E0,6.929614544E0
2.700642519E0,1.609173268E-1,5.920142174E0,7.044768810E0
2.720642519E0,2.374876440E-1,6.111567974E0,7.427620411E0
2.740642519E0,1.226321608E-1,6.303293228E0,8.232207298E0
2.760642519E0,1.992024779E-1,6.303293228E0,8.845068932E0
2.780642519E0,1.609173268E-1,6.264708996E0,9.534501076E0
2.800642519E0,1.992024779E-1,6.418148518E0,9.726225853E0
2.820642519E0,9.272187948E-1,6.609574318E0,9.381360054E0
2.840642519E0,1.156929731E0,6.686144829E0,8.423632622E0
2.860642519E0,1.042074203E0,7.107580662E0,6.929614544E0
2.880642519E0,6.206383705E-1,8.180163383E0,7.044768810E0
2.900642519E0,8.889335990E-1,7.605587006E0,8.768498421E0
2.920642519E0,1.386939883E0,6.418148518E0,1.118195915E1
2.940642519E0,1.118644595E0,5.575276852E0,1.152652550E1
2.960642519E0,-2.988037169E-1,5.460421085E0,7.351050377E0
2.980642519E0,-6.433702111E-1,5.613562107E0,6.048756599E0
3.000642519E0,-1.453639716E-1,5.536991596E0,6.087041855E0
3.020642519E0,3.143570721E-1,4.962415218E0,7.274479866E0
3.040642519E0,2.374876440E-1,4.924129963E0,7.083054066E0
3.060642519E0,2.760719061E-1,5.115555763E0,6.163611889E0
3.080642519E0,6.206383705E-1,5.383851051E0,5.397310734E0
3.100642519E0,6.589235067E-1,5.805286884E0,5.665606022E0
3.120642519E0,4.292125702E-1,5.843572140E0,6.393322945E0
3.140642519E0,2.760719061E-1,5.958427429E0,6.929614544E0
3.160642519E0,2.374876440E-1,6.686144829E0,6.929614544E0
3.180642519E0,2.760719061E-1,7.184150696E0,7.044768810E0
3.200642519E0,2.374876440E-1,7.452445984E0,7.427620411E0
3.220642519E0,1.226321608E-1,7.529016495E0,7.734200954E0
3.240642519E0,1.226321608E-1,7.529016495E0,7.734200954E0
3.260642519E0,-3.050848842E-2,7.873881817E0,7.925626755E0
3.280642519E0,2.374876440E-1,7.988737583E0,8.117351532E0
3.300642519E0,5.440680385E-1,7.682157040E0,8.921639442E0
3.320642519E0,8.434699476E-2,7.758727551E0,8.270492554E0
3.340642519E0,-2.219343036E-1,8.256733894E0,6.891329288E0
3.360642519E0,3.909274042E-1,8.448458672E0,6.431608200E0
3.380642519E0,3.909274042E-1,7.720442295E0,8.002197266E0
3.400642519E0,-3.050848842E-2,6.686144829E0,9.036494255E0
3.420642519E0,-9.116654396E-1,6.149853230E0,8.806783676E0
3.440642519E0,-9.116654396E-1,6.149853230E0,8.806783676E0
3.460642519E0,-1.754238129E0,6.264708996E0,6.048756599E0
3.480642519E0,-9.882357717E-1,6.188138485E0,6.240182400E0
3.500642519E0,-1.333101273E0,5.651846886E0,5.703890800E0
3.520642519E0,-1.830808401E0,5.613562107E0,4.899304390E0
3.540642519E0,-2.252244234E0,5.536991596E0,4.209872246E0
3.560642519E0,-1.830808401E0,5.575276852E0,4.593023300E0
3.580642519E0,-5.285146832E-1,5.613562107E0,5.933601856E0
3.600642519E0,-8.350951076E-1,5.613562107E0,6.010471344E0
3.620642519E0,-1.447956800E0,5.881857395E0,5.244169712E0
3.640642519E0,-1.447956800E0,5.881857395E0,5.244169712E0
3.660642519E0,-1.447956800E0,5.881857395E0,5.244169712E0
3.680642519E0,-9.499505758E-1,6.954440117E0,6.393322945E0
3.700642519E0,-1.447956800E0,7.107580662E0,6.585047722E0
3.720642519E0,-2.022533417E0,7.912167072E0,6.316752911E0
3.740642519E0,-1.830808401E0,8.256733894E0,6.469893456E0
3.760642519E0,-1.256231904E0,8.295019150E0,7.465905666E0
3.780642519E0,-9.882357717E-1,7.988737583E0,9.457930565E0
3.800642519E0,-1.103091240E0,7.720442295E0,1.010907745E1
3.820642519E0,-1.179661512E0,7.758727551E0,1.014766216E1
3.840642519E0,-6.050850153E-1,7.797012806E0,1.018594646E1
3.860642519E0,8.506484628E-1,7.682157040E0,1.041565800E1
3.880642519E0,8.123632669E-1,7.835597038E0,9.113364220E0
3.900642519E0,5.057829022E-1,7.912167072E0,7.963912010E0
3.920642519E0,7.354938388E-1,7.835597038E0,8.040482521E0
3.940642519E0,1.540080428E0,7.260721207E0,8.691927910E0
3.960642519E0,2.076371908E0,6.647859573E0,9.074779510E0
3.980642519E0,2.229512453E0,6.073283195E0,9.343074799E0
4.000642519E0,1.348654628E0,5.383851051E0,8.193922043E0
4.020642519E0,7.740781307E-1,5.307280540E0,7.121339321E0
4.040642519E0,8.123632669E-1,5.268995285E0,6.469893456E0
4.060642519E0,1.501795292E0,5.268995285E0,5.895316601E0
4.080642519E0,1.425225019E0,5.345565796E0,5.359025478E0
4.100642519E0,1.080359459E0,5.498706341E0,4.707878590E0
4.120642519E0,1.992024779E-1,6.188138485E0,4.248157501E0
4.140642519E0,2.374876440E-1,6.379863262E0,4.937589645E0
4.160642519E0,5.823532343E-1,6.418148518E0,6.201897144E0
4.180642519E0,7.354938388E-1,6.571289062E0,6.546762943E0
4.200642519E0,8.434699476E-2,7.337590694E0,5.512465000E0
4.220642519E0,-1.836491376E-1,7.797012806E0,5.627320766E0
4.240642519E0,-4.902295470E-1,8.065307617E0,6.431608200E0
4.260642519E0,-9.882357717E-1,8.027022362E0,7.963912010E0
4.280642519E0,-1.064806104E0,7.835597038E0,8.883354187E0
4.300642519E0,-1.409671664E0,7.720442295E0,9.687940598E0
4.320642519E0,-1.677667737E0,7.758727551E0,9.955936432E0
4.340642519E0,-1.141376376E0,8.295019150E0,8.538488388E0
4.360642519E0,-1.026520967E0,8.410173416E0,8.193922043E0
4.380642519E0,-1.371386528E0,8.716454506E0,7.887341499E0
4.400642519E0,-4.902295470E-1,8.103592873E0,7.695915699E0
4.420642519E0,-6.879365444E-2,7.643871784E0,8.117351532E0
4.440642519E0,3.143570721E-1,6.801299095E0,8.615358353E0
4.460642519E0,2.374876440E-1,6.034997940E0,8.883354187E0
4.480642519E0,2.374876440E-1,6.034997940E0,8.883354187E0
4.500642519E0,-4.136592150E-1,5.996712685E0,4.593023300E0
4.520642519E0,-1.070788130E-1,6.149853230E0,4.324728012E0
4.540642519E0,1.992024779E-1,5.575276852E0,5.320740223E0
4.560642519E0,1.992024779E-1,5.575276852E0,5.320740223E0
4.580642519E0,-5.285146832E-1,5.153841019E0,4.976173878E0
4.600642519E0,-1.064806104E0,5.345565796E0,4.439882278E0
4.620642519E0,-1.486241937E0,5.881857395E0,4.286442757E0
4.640642519E0,-1.103091240E0,6.034997940E0,5.014459133E0
4.660642519E0,-9.882357717E-1,6.149853230E0,5.895316601E0
4.680642519E0,-1.256231904E0,6.533003807E0,6.585047722E0
4.700642519E0,-1.179661512E0,6.647859573E0,6.738188744E0
4.720642519E0,-1.141376376E0,6.724429607E0,7.006184578E0
4.740642519E0,-8.733802438E-1,6.877869606E0,7.351050377E0
4.760642519E0,-2.219343036E-1,7.299006462E0,6.853044033E0
4.780642519E0,-2.988037169E-1,7.452445984E0,6.661618233E0
4.800642519E0,-4.519443810E-1,7.567301750E0,6.929614544E0
4.820642519E0,-1.836491376E-1,7.605587006E0,8.079066277E0
4.840642519E0,2.374876440E-1,7.643871784E0,8.270492554E0
4.860642519E0,1.609173268E-1,7.720442295E0,8.385348320E0
4.880642519E0,-3.370888829E-1,7.682157040E0,8.270492554E0
4.900642519E0,-1.179661512E0,8.410173416E0,7.389335632E0
4.920642519E0,-2.602194548E-1,8.295019150E0,6.776473522E0
4.940642519E0,5.440680385E-1,8.065307617E0,7.351050377E0
4.960642519E0,9.272187948E-1,6.877869606E0,9.955936432E0
4.980642519E0,1.003789067E0,6.303293228E0,1.033908749E1
5.000642519E0,1.233500123E0,6.073283195E0,9.879366875E0
5.020642519E0,1.233500123E0,6.073283195E0,9.879366875E0
5.040642519E0,1.425225019E0,6.341578007E0,6.125326633E0
5.060642519E0,1.118644595E0,6.188138485E0,5.665606022E0
5.080642519E0,6.972087026E-1,5.996712685E0,5.359025478E0
5.100642519E0,4.606183618E-2,6.073283195E0,5.205884933E0
5.120642519E0,-2.219343036E-1,6.264708996E0,4.861019135E0
5.140642519E0,-5.667998791E-1,6.418148518E0,5.091029167E0
5.160642519E0,-3.370888829E-1,6.226423740E0,7.159624577E0
5.180642519E0,-1.070788130E-1,6.303293228E0,7.351050377E0
5.200642519E0,7.776673418E-3,6.609574318E0,6.814758778E0
5.220642519E0,-2.219343036E-1,7.222435951E0,5.857031822E0
5.240642519E0,1.992024779E-1,7.912167072E0,5.742176056E0
5.260642519E0,5.440680385E-1,7.835597038E0,6.623332977E0
5.280642519E0,6.972087026E-1,7.873881817E0,7.351050377E0
5.300642519E0,1.226321608E-1,8.218448639E0,7.236194611E0
5.320642519E0,-1.453639716E-1,8.218448639E0,7.465905666E0
5.340642519E0,-2.219343036E-1,8.065307617E0,8.079066277E0
5.360642519E0,-3.050848842E-2,7.758727551E0,8.845068932E0
5.380642519E0,-2.988037169E-1,7.567301750E0,9.074779510E0
5.400642519E0,-5.667998791E-1,7.605587006E0,8.538488388E0
5.420642519E0,-9.499505758E-1,7.758727551E0,7.695915699E0
5.440642519E0,-9.499505758E-1,7.758727551E0,7.695915699E0
5.460642519E0,-7.199404836E-1,8.256733894E0,6.316752911E0
5.480642519E0,-2.988037169E-1,8.027022362E0,6.738188744E0
5.500642519E0,-3.753740489E-1,7.529016495E0,7.159624577E0
5.520642519E0,-1.026520967E0,6.954440117E0,7.197909832E0
5.540642519E0,-9.116654396E-1,7.031010151E0,6.891329288E0
5.560642519E0,-5.285146832E-1,6.954440117E0,6.393322945E0
5.580642519E0,-4.519443810E-1,6.341578007E0,5.244169712E0
5.600642519E0,-7.199404836E-1,6.073283195E0,5.052743912E0
5.620642519E0,-8.733802438E-1,5.767001629E0,5.091029167E0
5.640642519E0,-8.733802438E-1,5.651846886E0,4.976173878E0
5.660642519E0,-6.433702111E-1,5.575276852E0,4.478167534E0
5.680642519E0,-4.902295470E-1,5.613562107E0,4.937589645E0
5.700642519E0,-4.902295470E-1,5.690132141E0,5.244169712E0
5.720642519E0,-5.667998791E-1,6.073283195E0,5.474180222E0
5.740642519E0,-3.753740489E-1,6.264708996E0,5.627320766E0
5.760642519E0,-1.836491376E-1,6.418148518E0,5.971887112E0
5.780642519E0,4.606183618E-2,6.533003807E0,7.159624577E0
5.800642519E0,4.606183618E-2,6.686144829E0,7.312765121E0
5.820642519E0,-2.602194548E-1,7.107580662E0,7.121339321E0
5.840642519E0,-2.602194548E-1,7.490731239E0,7.044768810E0
5.860642519E0,-1.836491376E-1,7.682157040E0,8.079066277E0
5.880642519E0,7.776673418E-3,7.567301750E0,8.538488388E0
5.900642519E0,-3.050848842E-2,7.605587006E0,8.806783676E0
5.920642519E0,-2.219343036E-1,8.256733894E0,8.385348320E0
5.940642519E0,1.609173268E-1,8.218448639E0,8.730213165E0
5.960642519E0,3.143570721E-1,8.141878128E0,8.959924698E0
5.980642519E0,3.143570721E-1,7.988737583E0,8.959924698E0
6.000642519E0,4.674977362E-1,7.529016495E0,1.026251698E1
6.020642519E0,8.889335990E-1,6.992724895E0,1.014766216E1
6.040642519E0,1.233500123E0,6.456433773E0,8.538488388E0
6.060642519E0,1.501795292E0,6.341578007E0,5.014459133E0
6.080642519E0,1.271785259E0,6.647859573E0,3.903291941E0
6.100642519E0,8.506484628E-1,6.686144829E0,3.788436413E0
6.120642519E0,5.440680385E-1,6.379863262E0,4.018446445E0
6.140642519E0,6.206383705E-1,5.575276852E0,5.665606022E0
6.160642519E0,3.526422381E-1,5.651846886E0,5.703890800E0
6.180642519E0,1.992024779E-1,5.920142174E0,5.512465000E0
6.200642519E0,4.292125702E-1,6.418148518E0,6.087041855E0
6.220642519E0,3.909274042E-1,6.686144829E0,6.623332977E0
6.240642519E0,1.609173268E-1,7.145865917E0,7.044768810E0
6.260642519E0,-6.879365444E-2,7.529016495E0,7.274479866E0
6.280642519E0,-3.050848842E-2,7.835597038E0,8.461917877E0
6.300642519E0,-1.836491376E-1,7.873881817E0,8.730213165E0
6.320642519E0,-4.519443810E-1,8.027022362E0,8.577073097E0
6.340642519E0,-9.882357717E-1,8.486743927E0,7.504190922E0
6.360642519E0,-1.141376376E0,8.448458672E0,7.504190922E0
6.380642519E0,-1.486241937E0,8.218448639E0,7.772486210E0
6.400642519E0,-1.792523265E0,7.950452328E0,8.002197266E0
6.420642519E0,-1.179661512E0,7.643871784E0,8.615358353E0
6.440642519E0,-7.199404836E-1,7.720442295E0,8.040482521E0
6.460642519E0,-2.988037169E-1,7.720442295E0,6.967899323E0
6.480642519E0,-2.988037169E-1,7.720442295E0,6.967899323E0
6.500642519E0,-3.050848842E-2,6.533003807E0,8.768498421E0
6.520642519E0,1.226321608E-1,6.264708996E0,8.883354187E0
6.540642519E0,-6.050850153E-1,6.877869606E0,6.661618233E0
6.560642519E0,-7.199404836E-1,7.145865917E0,5.780461311E0
6.580642519E0,-7.582256794E-1,7.184150696E0,5.780461311E0
6.600642519E0,-9.116654396E-1,6.801299095E0,6.355037689E0
6.620642519E0,-1.486241937E0,5.805286884E0,6.699903488E0
6.640642519E0,-1.907677889E0,5.728417397E0,6.661618233E0
6.660642519E0,-2.213959217E0,5.920142174E0,6.201897144E0
6.680642519E0,-2.137388945E0,5.958427429E0,6.201897144E0
6.700642519E0,-2.099103689E0,5.843572140E0,6.469893456E0
6.720642519E0,-2.137388945E0,5.805286884E0,6.623332977E0
6.740642519E0,-2.290529490E0,5.728417397E0,6.585047722E0
6.760642519E0,-2.290529490E0,5.728417397E0,6.585047722E0
6.780642519E0,-1.830808401E0,5.996712685E0,6.469893456E0
6.800642519E0,-1.639382601E0,5.958427429E0,7.006184578E0
6.820642519E0,-1.639382601E0,5.805286884E0,7.963912010E0
6.840642519E0,-1.064806104E0,5.996712685E0,8.308777809E0
6.860642519E0,-2.602194548E-1,6.303293228E0,8.461917877E0
6.880642519E0,-3.050848842E-2,6.533003807E0,8.423632622E0
6.900642519E0,7.776673418E-3,6.801299095E0,7.389335632E0
6.920642519E0,-1.070788130E-1,6.839584351E0,7.236194611E0
6.940642519E0,3.143570721E-1,6.533003807E0,6.929614544E0
6.960642519E0,1.042074203E0,6.418148518E0,8.806783676E0
6.980642519E0,5.823532343E-1,6.341578007E0,9.266505241E0
7.000642519E0,3.143570721E-1,6.149853230E0,8.500203133E0
7.020642519E0,1.226321608E-1,6.188138485E0,6.393322945E0
7.040642519E0,-6.816553473E-1,4.847559452E0,2.830709219E0
7.060642519E0,7.776673418E-3,3.813261986E0,4.209872246E0
7.080642519E0,7.354938388E-1,3.353540897E0,7.581060410E0
7.100642519E0,-1.179661512E0,4.119543076E0,9.457930565E0
7.120642519E0,-8.350951076E-1,4.119543076E0,8.921639442E0
7.140642519E0,-7.199404836E-1,4.272983074E0,7.274479866E0
7.160642519E0,-1.409671664E0,4.196412563E0,6.048756599E0
7.180642519E0,-3.050848842E-2,2.242672920E0,7.006184578E0
7.200642519E0,-4.136592150E-1,1.476371527E0,6.087041855E0
7.220642519E0,-1.371386528E0,1.591227055E0,8.347063065E0
7.240642519E0,-1.907677889E0,3.276970625E0,1.156481075E1
7.260642519E0,-3.171686411E0,3.851547241E0,1.129681492E1
7.280642519E0,-4.320839405E0,4.157828331E0,1.037737274E1
7.300642519E0,-4.665705204E0,4.234697819E0,1.049222851E1
7.320642519E0,-4.435994148E0,4.234697819E0,1.033908749E1
7.340642519E0,-4.703989983E0,3.583251953E0,9.687940598E0
7.360642519E0,-4.474279404E0,2.434098721E0,1.007079220E1
7.380642519E0,-4.205984116E0,2.702394009E0,1.125852966E1
7.400642519E0,-4.205984116E0,2.702394009E0,1.125852966E1
7.420642519E0,-4.972285271E0,3.851547241E0,9.994221687E0
7.440642519E0,-5.048855782E0,4.234697819E0,8.500203133E0
7.460642519E0,-6.274579048E0,4.081258297E0,9.304789543E0
7.480642519E0,-7.117451191E0,3.889832258E0,9.917651176E0
7.500642519E0,-6.696014881E0,3.430111170E0,9.726225853E0
7.520642519E0,-5.853143215E0,2.893819809E0,8.998209953E0
7.540642519E0,-5.776573181E0,2.855534792E0,8.500203133E0
7.560642519E0,-5.393422127E0,2.625524759E0,7.887341499E0
7.580642519E0,-5.891428471E0,2.050948143E0,7.695915699E0
7.600642519E0,-5.853143215E0,2.012662888E0,8.079066277E0
7.620642519E0,-5.201996326E0,1.859522343E0,7.389335632E0
7.640642519E0,-5.623432159E0,1.782951951E0,4.056731701E0
7.660642519E0,-5.469992638E0,1.859522343E0,7.274479866E0
7.763369739E0,-2.252244234E0,2.127817631E0,1.022423172E1
7.783369739E0,-2.865106106E0,2.204387903E0,9.496215820E0
7.803369739E0,-3.248256683E0,2.664108992E0,9.151649475E0
7.823369739E0,-3.248256683E0,2.664108992E0,9.151649475E0
7.843369739E0,-2.443969250E0,2.587239504E0,9.036494255E0
7.863369739E0,-1.677667737E0,2.587239504E0,8.538488388E0
7.883369739E0,-6.433702111E-1,1.974377751E0,7.925626755E0
7.903369739E0,-1.907677889E0,2.089233160E0,9.151649475E0
7.923369739E0,-3.209971666E0,2.434098721E0,9.879366875E0
7.943369739E0,-2.060818434E0,2.204387903E0,9.343074799E0
7.963369739E0,-1.562812328E0,1.936092615E0,9.457930565E0
7.983369739E0,-1.984248161E0,1.744666815E0,9.802796364E0
8.003369739E0,-1.792523265E0,1.476371527E0,9.841081619E0
8.023369739E0,-2.022533417E0,1.514656782E0,1.007079220E1
8.043369739E0,-3.937987804E0,1.782951951E0,9.457930565E0
8.063369739E0,-3.056830883E0,1.208375454E0,1.110509014E1
8.083369739E0,-2.137388945E0,1.361516118E0,1.060708332E1
8.103369739E0,-2.137388945E0,1.629811287E0,1.018594646E1
8.123369739E0,-2.865106106E0,1.668096542E0,1.007079220E1
8.143369739E0,-3.631407499E0,2.089233160E0,9.304789543E0
8.163369739E0,-3.478266716E0,1.897807479E0,9.036494255E0
8.183369739E0,-3.822833300E0,1.974377751E0,9.917651176E0
8.203369739E0,-3.746263027E0,2.089233160E0,1.033908749E1
8.223369739E0,-3.439981699E0,2.127817631E0,1.030080223E1
8.243369739E0,-3.439981699E0,2.472383976E0,1.010907745E1
8.263369739E0,-2.980260611E0,2.242672920E0,1.030080223E1
8.283369739E0,-3.095116138E0,2.778964281E0,1.072223854E1
8.303369739E0,-2.941975355E0,3.162115097E0,1.114337540E1
8.323369739E0,-3.248256683E0,2.932105064E0,1.183310604E1
8.343369739E0,-3.095116138E0,2.472383976E0,1.248425293E1
8.363369739E0,-2.941975355E0,2.817249537E0,1.267567921E1
8.383369739E0,-3.056830883E0,3.008675337E0,1.271396446E1
8.403369739E0,-3.707977772E0,3.085245609E0,1.256082344E1
8.423369739E0,-3.784548044E0,2.932105064E0,1.079880905E1
8.443369739E0,-3.056830883E0,2.510669231E0,9.266505241E0
8.463369739E0,-2.137388945E0,2.242672920E0,9.879366875E0
8.483369739E0,-3.248256683E0,2.434098721E0,1.122024441E1
8.503369739E0,-4.091128349E0,2.089233160E0,1.095194912E1
8.523369739E0,-3.784548044E0,1.668096542E0,9.419645309E0
8.543369739E0,-3.056830883E0,1.361516118E0,8.385348320E0
8.563369739E0,-2.673680305E0,1.859522343E0,8.577073097E0
8.583369739E0,-2.482254505E0,2.319243431E0,8.079066277E0
8.603369739E0,-1.945963025E0,2.357528448E0,7.274479866E0
8.623369739E0,-1.830808401E0,2.127817631E0,7.695915699E0
8.643369739E0,-1.869392633E0,2.395813704E0,8.040482521E0
8.663369739E0,-1.792523265E0,2.548954248E0,7.772486210E0
8.683369739E0,-1.409671664E0,2.472383976E0,7.657630444E0
8.703369739E0,-1.256231904E0,2.472383976E0,8.193922043E0
8.723369739E0,-1.141376376E0,2.434098721E0,8.959924698E0
8.743369739E0,-1.333101273E0,2.319243431E0,9.151649475E0
8.763369739E0,-1.639382601E0,1.974377751E0,9.611071587E0
8.783369739E0,-1.792523265E0,1.706381679E0,1.045394325E1
8.803369739E0,-1.217946768E0,1.974377751E0,1.083709335E1
8.823369739E0,-9.116654396E-1,2.319243431E0,1.064536858E1
8.843369739E0,-1.141376376E0,2.702394009E0,1.045394325E1
8.863369739E0,-9.499505758E-1,2.625524759E0,1.133510017E1
8.883369739E0,-6.433702111E-1,2.970390320E0,1.049222851E1
8.903369739E0,-4.136592150E-1,2.970390320E0,1.003250694E1
8.923369739E0,-7.582256794E-1,3.238685369E0,1.087537861E1
8.943369739E0,-1.103091240E0,3.468396425E0,1.095194912E1
8.963369739E0,-1.294517040E0,3.506681681E0,8.921639442E0
8.983369739E0,-1.141376376E0,3.391826153E0,6.929614544E0
9.003369739E0,-1.141376376E0,3.315255880E0,7.159624577E0
9.023369739E0,-9.499505758E-1,3.621536970E0,8.500203133E0
9.043369739E0,-1.103091240E0,3.813261986E0,8.806783676E0
9.063369739E0,-1.371386528E0,3.583251953E0,8.193922043E0
9.083369739E0,-1.447956800E0,3.353540897E0,7.657630444E0
9.103369739E0,-1.217946768E0,3.391826153E0,7.504190922E0
9.123369739E0,-9.499505758E-1,3.468396425E0,7.734200954E0
9.143369739E0,-7.968099117E-1,3.736691713E0,8.308777809E0
9.163369739E0,-9.882357717E-1,3.621536970E0,8.653642654E0
9.183369739E0,-1.217946768E0,3.774976730E0,8.998209953E0
9.203369739E0,-1.294517040E0,3.506681681E0,9.994221687E0
9.223369739E0,-1.792523265E0,3.736691713E0,9.917651176E0
9.243369739E0,-1.639382601E0,3.774976730E0,8.959924698E0
9.263369739E0,-1.371386528E0,3.583251953E0,8.845068932E0
9.283369739E0,-1.562812328E0,3.468396425E0,1.010907745E1
9.303369739E0,-2.060818434E0,3.391826153E0,1.099023438E1
9.323369739E0,-2.443969250E0,3.391826153E0,1.118195915E1
9.343369739E0,-2.903690338E0,3.621536970E0,9.917651176E0
9.363369739E0,-2.635395050E0,3.162115097E0,8.385348320E0
9.383369739E0,-2.482254505E0,2.893819809E0,9.113364220E0
9.403369739E0,-3.095116138E0,3.123530865E0,1.076052380E1
9.423369739E0,-3.324826956E0,3.200400352E0,1.003250694E1
9.443369739E0,-2.903690338E0,2.970390320E0,8.461917877E0
9.463369739E0,-2.903690338E0,2.970390320E0,8.461917877E0
9.483369739E0,-1.524527073E0,2.702394009E0,8.500203133E0
9.503369739E0,-1.639382601E0,2.778964281E0,8.921639442E0
9.523369739E0,-2.137388945E0,2.664108992E0,8.691927910E0
9.543369739E0,-2.443969250E0,2.625524759E0,8.002197266E0
9.563369739E0,-2.213959217E0,2.625524759E0,8.040482521E0
9.583369739E0,-1.945963025E0,2.702394009E0,8.577073097E0
9.603369739E0,-1.792523265E0,2.817249537E0,9.074779510E0
9.623369739E0,-2.137388945E0,2.664108992E0,9.343074799E0
9.643369739E0,-2.405683994E0,2.357528448E0,9.534501076E0
9.663369739E0,-2.405683994E0,2.204387903E0,9.917651176E0
9.683369739E0,-1.792523265E0,2.050948143E0,1.010907745E1
9.703369739E0,-1.639382601E0,2.089233160E0,1.030080223E1
9.723369739E0,-1.639382601E0,2.089233160E0,1.033908749E1
9.743369739E0,-1.601097465E0,2.127817631E0,1.049222851E1
9.763369739E0,-1.524527073E0,2.166102648E0,1.083709335E1
9.783369739E0,-1.026520967E0,2.089233160E0,1.160309601E1
9.803369739E0,-1.141376376E0,2.204387903E0,1.137338543E1
9.823369739E0,-6.433702111E-1,2.089233160E0,1.064536858E1
9.843369739E0,-4.136592150E-1,2.280958176E0,1.053051376E1
9.863369739E0,-5.667998791E-1,2.587239504E0,1.053051376E1
9.883369739E0,-4.519443810E-1,2.548954248E0,1.026251698E1
9.903369739E0,7.776673418E-3,2.280958176E0,9.572786331E0
9.923369739E0,4.606183618E-2,2.127817631E0,9.228219986E0
9.943369739E0,-3.050848842E-2,2.204387903E0,9.228219986E0
9.963369739E0,-4.136592150E-1,2.434098721E0,8.691927910E0
9.983369739E0,-9.882357717E-1,2.510669231E0,7.542775154E0
1.000336974E1,-1.064806104E0,2.587239504E0,7.312765121E0
1.002336974E1,-1.217946768E0,2.932105064E0,7.925626755E0
1.004336974E1,-1.371386528E0,3.200400352E0,8.308777809E0
1.006336974E1,-1.447956800E0,3.506681681E0,8.270492554E0
1.008336974E1,-1.217946768E0,3.544966698E0,8.079066277E0
1.010336974E1,-1.026520967E0,3.506681681E0,8.117351532E0
1.012336974E1,-1.371386528E0,3.468396425E0,8.423632622E0
1.014336974E1,-1.754238129E0,3.468396425E0,8.845068932E0
1.016336974E1,-2.405683994E0,3.736691713E0,9.228219986E0
1.018336974E1,-2.137388945E0,3.813261986E0,9.419645309E0
1.020336974E1,-1.562812328E0,3.813261986E0,1.022423172E1
1.022336974E1,-1.294517040E0,3.736691713E0,1.152652550E1
1.024336974E1,-1.907677889E0,3.659822226E0,1.164138126E1
1.026336974E1,-2.635395050E0,3.698406458E0,1.079880905E1
1.028336974E1,-2.558824778E0,3.889832258E0,9.649655342E0
1.030336974E1,-2.750250578E0,4.349553585E0,8.998209953E0
1.032336974E1,-2.175673962E0,4.272983074E0,8.730213165E0
1.034336974E1,-1.869392633E0,4.042973042E0,9.266505241E0
1.036336974E1,-2.520539522E0,3.889832258E0,1.014766216E1
1.038336974E1,-3.018545866E0,3.698406458E0,9.802796364E0
1.040336974E1,-3.018545866E0,3.468396425E0,8.730213165E0
1.042336974E1,-1.945963025E0,2.932105064E0,8.768498421E0
1.044336974E1,-1.562812328E0,3.200400352E0,9.113364220E0
1.046336974E1,-1.715952992E0,3.506681681E0,8.730213165E0
1.048336974E1,-2.099103689E0,3.506681681E0,7.542775154E0
1.050336974E1,-2.022533417E0,3.391826153E0,7.044768810E0
1.052336974E1,-1.830808401E0,3.391826153E0,7.581060410E0
1.054336974E1,-1.907677889E0,3.544966698E0,8.117351532E0
1.056336974E1,-2.099103689E0,3.544966698E0,8.117351532E0
1.058336974E1,-2.175673962E0,3.468396425E0,7.810771465E0
1.060336974E1,-1.984248161E0,3.162115097E0,8.117351532E0
1.062336974E1,-2.213959217E0,3.162115097E0,8.998209953E0
1.064336974E1,-2.060818434E0,3.008675337E0,9.457930565E0
1.066336974E1,-1.601097465E0,2.855534792E0,9.611071587E0
1.068336974E1,-1.179661512E0,2.970390320E0,9.802796364E0
1.070336974E1,-1.179661512E0,3.085245609E0,1.010907745E1
1.072336974E1,-1.601097465E0,3.276970625E0,1.041565800E1
1.074336974E1,-1.601097465E0,3.430111170E0,1.030080223E1
1.076336974E1,-9.499505758E-1,3.315255880E0,1.049222851E1
1.078336974E1,-1.256231904E0,4.081258297E0,1.003250694E1
1.080336974E1,-1.453639716E-1,3.583251953E0,9.802796364E0
1.082336974E1,8.434699476E-2,3.468396425E0,1.007079220E1
1.084336974E1,-4.136592150E-1,3.621536970E0,1.026251698E1
1.086336974E1,-4.902295470E-1,3.315255880E0,9.841081619E0
1.088336974E1,-1.070788130E-1,3.200400352E0,8.883354187E0
1.090336974E1,1.609173268E-1,2.970390320E0,8.385348320E0
1.092336974E1,7.776673418E-3,2.855534792E0,8.385348320E0
1.094336974E1,-5.285146832E-1,2.778964281E0,9.074779510E0
1.096336974E1,-1.103091240E0,2.625524759E0,9.228219986E0
1.098336974E1,-1.256231904E0,2.472383976E0,8.653642654E0
1.100336974E1,-1.141376376E0,2.587239504E0,7.849056244E0
1.102336974E1,-9.882357717E-1,2.932105064E0,7.695915699E0
1.104336974E1,-9.116654396E-1,3.276970625E0,7.963912010E0
1.106336974E1,-9.116654396E-1,3.430111170E0,8.270492554E0
1.108336974E1,-9.499505758E-1,3.506681681E0,8.193922043E0
1.110336974E1,-1.141376376E0,3.468396425E0,8.002197266E0
1.112336974E1,-1.217946768E0,3.583251953E0,8.232207298E0
1.114336974E1,-1.294517040E0,3.928117514E0,8.308777809E0
1.116336974E1,-1.064806104E0,4.272983074E0,8.347063065E0
1.118336974E1,-9.116654396E-1,4.426123619E0,9.036494255E0
1.120336974E1,-9.882357717E-1,4.540979385E0,9.802796364E0
1.122336974E1,-1.371386528E0,4.540979385E0,1.049222851E1
1.124336974E1,-1.371386528E0,4.426123619E0,1.125852966E1
1.126336974E1,-1.333101273E0,4.464408875E0,1.171825027E1
1.128336974E1,-1.486241937E0,4.655834675E0,1.179482079E1
1.130336974E1,-1.830808401E0,4.579264164E0,1.106680489E1
1.132336974E1,-2.290529490E0,4.540979385E0,1.007079220E1
1.134336974E1,-2.290529490E0,4.004687786E0,9.304789543E0
1.136336974E1,-2.826820850E0,3.659822226E0,1.003250694E1
1.138336974E1,-2.980260611E0,4.004687786E0,1.099023438E1
1.140336974E1,-2.903690338E0,4.081258297E0,9.879366875E0
1.142336974E1,-2.711965322E0,3.851547241E0,8.117351532E0
1.144336974E1,-2.367398977E0,3.736691713E0,7.772486210E0
1.146336974E1,-2.443969250E0,3.813261986E0,8.959924698E0
1.148336974E1,-2.788535595E0,3.851547241E0,9.457930565E0
1.150336974E1,-3.056830883E0,3.430111170E0,8.232207298E0
1.152336974E1,-3.018545866E0,3.008675337E0,6.738188744E0
1.154336974E1,-3.018545866E0,2.932105064E0,5.895316601E0
1.156336974E1,-2.788535595E0,3.046960592E0,6.316752911E0
1.158336974E1,-2.520539522E0,3.162115097E0,6.814758778E0
1.160336974E1,-2.443969250E0,3.391826153E0,6.853044033E0
1.162336974E1,-2.597109795E0,3.430111170E0,6.661618233E0
1.164336974E1,-2.826820850E0,3.315255880E0,7.083054066E0
1.166336974E1,-3.056830883E0,3.353540897E0,7.849056244E0
1.168336974E1,-2.635395050E0,3.430111170E0,8.500203133E0
1.170336974E1,-2.213959217E0,3.506681681E0,9.304789543E0
1.172336974E1,-2.099103689E0,3.544966698E0,9.841081619E0
1.174336974E1,-1.869392633E0,3.698406458E0,1.037737274E1
1.176336974E1,-1.524527073E0,3.774976730E0,1.072223854E1
1.178336974E1,-1.639382601E0,3.698406458E0,1.099023438E1
1.180336974E1,-1.754238129E0,3.813261986E0,1.079880905E1
1.182336974E1,-1.141376376E0,3.659822226E0,1.076052380E1
1.184336974E1,-1.256231904E0,4.272983074E0,9.955936432E0
1.186336974E1,-2.988037169E-1,3.928117514E0,9.496215820E0
1.188336974E1,4.606183618E-2,3.851547241E0,1.003250694E1
1.190336974E1,-1.836491376E-1,3.468396425E0,1.118195915E1
1.192336974E1,-8.350951076E-1,3.123530865E0,1.137338543E1
1.194336974E1,-1.524527073E0,2.970390320E0,1.014766216E1
1.196336974E1,-1.141376376E0,2.778964281E0,8.653642654E0
1.198336974E1,-4.136592150E-1,2.587239504E0,8.155636787E0
1.200336974E1,-2.219343036E-1,2.548954248E0,9.228219986E0
1.202336974E1,-6.050850153E-1,2.740679264E0,9.994221687E0
1.204336974E1,-7.582256794E-1,2.778964281E0,9.611071587E0
1.206336974E1,-8.350951076E-1,2.970390320E0,8.308777809E0
1.208336974E1,-6.050850153E-1,3.200400352E0,7.657630444E0
1.210336974E1,-2.602194548E-1,3.468396425E0,8.193922043E0
1.212336974E1,-7.968099117E-1,4.157828331E0,9.228219986E0
1.214336974E1,-1.026520967E0,4.809274197E0,9.611071587E0
1.216336974E1,-7.582256794E-1,4.464408875E0,8.998209953E0
1.218336974E1,-7.968099117E-1,4.081258297E0,8.232207298E0
1.220336974E1,-9.116654396E-1,4.196412563E0,7.657630444E0
1.222336974E1,-9.116654396E-1,4.426123619E0,7.236194611E0
1.224336974E1,-9.882357717E-1,4.387838364E0,7.083054066E0
1.226336974E1,-1.371386528E0,4.387838364E0,7.312765121E0
1.228336974E1,-2.175673962E0,4.924129963E0,7.504190922E0
1.230336974E1,-2.290529490E0,5.192125797E0,8.002197266E0
1.232336974E1,-2.328814745E0,5.230411053E0,8.921639442E0
1.234336974E1,-2.558824778E0,5.307280540E0,1.018594646E1
1.236336974E1,-2.328814745E0,5.460421085E0,1.079880905E1
1.238336974E1,-2.673680305E0,5.728417397E0,1.010907745E1
1.240336974E1,-3.248256683E0,5.498706341E0,8.691927910E0
1.242336974E1,-3.286541939E0,4.924129963E0,8.270492554E0
1.244336974E1,-2.635395050E0,4.464408875E0,9.764511108E0
1.246336974E1,-1.869392633E0,4.311268330E0,1.179482079E1
1.248336974E1,-2.405683994E0,3.928117514E0,1.167966652E1
1.250336974E1,-2.788535595E0,3.583251953E0,1.003250694E1
1.252336974E1,-2.443969250E0,3.430111170E0,8.347063065E0
1.254336974E1,-2.060818434E0,3.774976730E0,8.500203133E0
1.256336974E1,-1.984248161E0,4.004687786E0,9.074779510E0
1.258336974E1,-2.060818434E0,4.004687786E0,8.577073097E0
1.260336974E1,-2.520539522E0,3.928117514E0,7.044768810E0
1.262336974E1,-2.865106106E0,3.889832258E0,6.010471344E0
1.264336974E1,-3.171686411E0,3.774976730E0,6.316752911E0
1.266336974E1,-3.669692516E0,3.928117514E0,7.197909832E0
1.268336974E1,-3.861118555E0,3.698406458E0,8.079066277E0
1.270336974E1,-3.669692516E0,3.430111170E0,8.347063065E0
1.272336974E1,-3.401696444E0,3.353540897E0,7.849056244E0
1.274336974E1,-2.673680305E0,3.200400352E0,7.389335632E0
1.276336974E1,-2.060818434E0,3.085245609E0,7.427620411E0
1.278336974E1,-1.907677889E0,3.238685369E0,8.347063065E0
1.280336974E1,-1.677667737E0,3.238685369E0,9.266505241E0
1.282336974E1,-1.601097465E0,3.468396425E0,9.841081619E0
1.284336974E1,-1.256231904E0,3.276970625E0,9.841081619E0
1.286336974E1,-1.141376376E0,3.085245609E0,9.534501076E0
1.288336974E1,-1.447956800E0,2.970390320E0,9.228219986E0
1.290336974E1,-1.869392633E0,2.893819809E0,9.687940598E0
1.292336974E1,-2.405683994E0,3.200400352E0,1.026251698E1
1.294336974E1,-1.945963025E0,2.970390320E0,1.045394325E1
1.296336974E1,-1.984248161E0,2.970390320E0,1.053051376E1
1.298336974E1,-3.018545866E0,3.162115097E0,1.083709335E1
1.300336974E1,-3.631407499E0,2.625524759E0,1.190967655E1
1.302336974E1,-4.359124660E0,2.548954248E0,1.229282761E1
1.304336974E1,-3.707977772E0,2.510669231E0,1.114337540E1
1.306336974E1,-2.865106106E0,2.893819809E0,9.611071587E0
1.308336974E1,-2.137388945E0,3.162115097E0,8.883354187E0
1.310336974E1,-1.677667737E0,3.200400352E0,9.457930565E0
1.312336974E1,-1.677667737E0,2.855534792E0,1.007079220E1
1.314336974E1,-1.907677889E0,2.548954248E0,9.955936432E0
1.316336974E1,-1.984248161E0,2.204387903E0,9.151649475E0
1.318336974E1,-1.830808401E0,2.127817631E0,8.500203133E0
1.320336974E1,-1.447956800E0,2.434098721E0,8.270492554E0
1.322336974E1,-1.256231904E0,2.855534792E0,7.887341499E0
1.324336974E1,-1.447956800E0,3.123530865E0,7.389335632E0
1.326336974E1,-1.601097465E0,3.085245609E0,7.465905666E0
1.328336974E1,-2.290529490E0,3.583251953E0,8.500203133E0
1.330336974E1,-2.980260611E0,4.004687786E0,9.534501076E0
1.332336974E1,-3.286541939E0,4.196412563E0,1.003250694E1
1.334336974E1,-3.439981699E0,4.272983074E0,1.007079220E1
1.336336974E1,-3.631407499E0,4.196412563E0,9.764511108E0
1.338336974E1,-3.899403572E0,4.234697819E0,9.304789543E0
1.340336974E1,-3.861118555E0,4.349553585E0,8.768498421E0
1.342336974E1,-3.478266716E0,4.272983074E0,8.653642654E0
1.344336974E1,-3.669692516E0,4.349553585E0,8.730213165E0
1.346336974E1,-4.512564182E0,4.387838364E0,7.963912010E0
1.348336974E1,-5.125426292E0,4.119543076E0,6.699903488E0
1.350336974E1,-4.780560493E0,3.928117514E0,6.699903488E0
1.352336974E1,-3.707977772E0,3.966402531E0,8.232207298E0
1.354336974E1,-3.133401155E0,3.889832258E0,9.687940598E0
1.356336974E1,-3.363112211E0,3.813261986E0,9.074779510E0
1.358336974E1,-3.324826956E0,3.698406458E0,7.657630444E0
1.360336974E1,-2.788535595E0,3.123530865E0,7.427620411E0
1.362336974E1,-2.673680305E0,3.046960592E0,8.845068932E0
1.364336974E1,-3.056830883E0,3.008675337E0,9.879366875E0
1.366336974E1,-3.478266716E0,3.085245609E0,9.266505241E0
1.368336974E1,-3.248256683E0,2.970390320E0,8.155636787E0
1.370336974E1,-2.826820850E0,2.970390320E0,8.577073097E0
1.372336974E1,-2.750250578E0,3.200400352E0,9.304789543E0
1.374336974E1,-2.941975355E0,3.506681681E0,8.806783676E0
1.376336974E1,-2.826820850E0,3.315255880E0,7.810771465E0
1.378336974E1,-2.443969250E0,3.162115097E0,7.963912010E0
1.380336974E1,-2.405683994E0,3.391826153E0,8.615358353E0
1.382336974E1,-1.945963025E0,3.430111170E0,8.883354187E0
1.384336974E1,-1.754238129E0,3.583251953E0,8.615358353E0
1.386336974E1,-1.601097465E0,3.430111170E0,8.806783676E0
1.388336974E1,-1.830808401E0,3.276970625E0,9.726225853E0
1.390336974E1,-1.830808401E0,3.162115097E0,1.087537861E1
1.392336974E1,-2.022533417E0,3.238685369E0,1.144995499E1
1.394336974E1,-2.367398977E0,3.276970625E0,1.141167068E1
1.396336974E1,-2.328814745E0,3.276970625E0,1.148824024E1
1.398336974E1,-1.945963025E0,3.430111170E0,1.053051376E1
1.400336974E1,-1.179661512E0,3.391826153E0,1.056879807E1
1.402336974E1,-7.968099117E-1,3.430111170E0,1.144995499E1
1.404336974E1,-7.582256794E-1,3.162115097E0,1.210110188E1
1.406336974E1,-5.667998791E-1,2.970390320E0,1.171825027E1
1.408336974E1,-7.968099117E-1,3.353540897E0,9.955936432E0
1.410336974E1,-5.667998791E-1,3.583251953E0,8.079066277E0
1.412336974E1,1.609173268E-1,3.391826153E0,7.159624577E0
1.414336974E1,2.374876440E-1,3.276970625E0,7.044768810E0
1.416336974E1,-4.519443810E-1,3.430111170E0,7.312765121E0
1.418336974E1,-8.733802438E-1,3.200400352E0,7.083054066E0
1.420336974E1,-9.882357717E-1,3.162115097E0,6.661618233E0
1.422336974E1,-9.882357717E-1,3.162115097E0,6.661618233E0
1.424336974E1,-6.050850153E-1,3.468396425E0,7.236194611E0
1.426336974E1,-1.064806104E0,3.813261986E0,7.657630444E0
1.428336974E1,-1.217946768E0,3.966402531E0,7.389335632E0
1.430336974E1,-1.179661512E0,4.272983074E0,6.738188744E0
1.432336974E1,-1.141376376E0,4.464408875E0,6.738188744E0
1.434336974E1,-9.882357717E-1,4.655834675E0,7.236194611E0
1.436336974E1,-1.524527073E0,4.924129963E0,7.581060410E0
1.438336974E1,-1.907677889E0,4.809274197E0,7.581060410E0
1.440336974E1,-2.099103689E0,4.502694130E0,8.270492554E0
1.442336974E1,-2.520539522E0,4.617549419E0,9.304789543E0
1.444336974E1,-3.018545866E0,5.038985252E0,1.007079220E1
1.446336974E1,-2.788535595E0,5.345565796E0,1.033908749E1
1.448336974E1,-2.367398977E0,5.307280540E0,1.037737274E1
1.450336974E1,-2.213959217E0,4.847559452E0,1.095194912E1
1.452336974E1,-2.635395050E0,4.502694130E0,1.179482079E1
1.454336974E1,-3.056830883E0,4.655834675E0,1.183310604E1
1.456336974E1,-2.290529490E0,4.694119930E0,1.095194912E1
1.458336974E1,-1.601097465E0,4.770989418E0,1.033908749E1
1.460336974E1,-1.447956800E0,4.540979385E0,1.018594646E1
1.462336974E1,-2.367398977E0,4.119543076E0,9.611071587E0
1.464336974E1,-3.171686411E0,3.851547241E0,8.768498421E0
1.466336974E1,-3.822833300E0,3.698406458E0,7.772486210E0
1.468336974E1,-4.052843571E0,3.353540897E0,7.734200954E0
1.470336974E1,-3.899403572E0,3.200400352E0,7.963912010E0
1.472336974E1,-3.784548044E0,3.123530865E0,7.695915699E0
1.474336974E1,-3.784548044E0,3.085245609E0,6.585047722E0
1.476336974E1,-3.669692516E0,2.855534792E0,5.703890800E0
1.478336974E1,-3.248256683E0,2.587239504E0,5.780461311E0
1.480336974E1,-2.903690338E0,2.855534792E0,6.776473522E0
1.482336974E1,-3.018545866E0,2.932105064E0,7.236194611E0
1.484336974E1,-3.018545866E0,2.893819809E0,6.661618233E0
1.486336974E1,-2.711965322E0,2.472383976E0,6.163611889E0
1.488336974E1,-3.056830883E0,2.280958176E0,6.585047722E0
1.490336974E1,-3.324826956E0,2.089233160E0,6.814758778E0
1.492336974E1,-3.209971666E0,1.897807479E0,6.853044033E0
1.494336974E1,-4.052843571E0,2.127817631E0,7.504190922E0
1.496336974E1,-3.209971666E0,9.783653617E-1,7.963912010E0
1.498336974E1,-4.589134693E0,1.821237087E0,7.427620411E0
1.500336974E1,-3.937987804E0,1.361516118E0,7.542775154E0
1.502336974E1,-3.707977772E0,1.438086390E0,7.236194611E0
1.504336974E1,-4.359124660E0,1.859522343E0,8.806783676E0
1.506336974E1,-4.665705204E0,1.821237087E0,9.726225853E0
1.508336974E1,-5.048855782E0,1.706381679E0,1.030080223E1
1.510336974E1,-5.355136871E0,1.591227055E0,1.110509014E1
1.512336974E1,-5.661717415E0,9.400802255E-1,1.175653553E1
1.514336974E1,-5.853143215E0,2.889333367E-1,1.351855087E1
1.516336974E1,-6.389434814E0,3.655036688E-1,1.474427414E1
1.518336974E1,-5.738287926E0,5.569294691E-1,1.374826145E1
1.520336974E1,-4.703989983E0,5.955137610E-1,1.340369511E1
1.522336974E1,-4.550849438E0,3.655036688E-1,1.321197033E1
1.524336974E1,-4.589134693E0,2.123630047E-1,1.374826145E1
1.526336974E1,-4.052843571E0,2.889333367E-1,1.344198036E1
1.528336974E1,-3.746263027E0,9.750752151E-2,1.179482079E1
1.530336974E1,-3.554837227E0,5.955137610E-1,1.018594646E1
1.532336974E1,-3.593122244E0,1.131805062E0,8.998209953E0
1.534336974E1,-3.707977772E0,1.361516118E0,8.806783676E0
1.536336974E1,-3.746263027E0,1.399801254E0,8.500203133E0
1.538336974E1,-3.286541939E0,1.476371527E0,8.002197266E0
1.540336974E1,-3.095116138E0,1.399801254E0,7.734200954E0
1.542336974E1,-2.941975355E0,1.323230863E0,7.695915699E0
1.544336974E1,-2.635395050E0,1.361516118E0,7.351050377E0
1.546336974E1,-2.367398977E0,1.246660590E0,6.585047722E0
1.548336974E1,-2.597109795E0,1.093519926E0,6.699903488E0
1.550336974E1,-3.248256683E0,1.514656782E0,6.776473522E0
1.552336974E1,-3.248256683E0,2.012662888E0,7.159624577E0
1.554336974E1,-3.439981699E0,1.821237087E0,6.776473522E0
1.556336974E1,-3.937987804E0,1.859522343E0,7.006184578E0
1.558336974E1,-3.822833300E0,2.050948143E0,7.312765121E0
1.560336974E1,-3.746263027E0,2.050948143E0,7.657630444E0
1.562336974E1,-3.937987804E0,2.050948143E0,7.351050377E0
1.564336974E1,-5.010570526E0,1.974377751E0,5.052743912E0
1.566336974E1,-5.010570526E0,1.706381679E0,6.776473522E0
1.568336974E1,-4.205984116E0,1.438086390E0,8.308777809E0
1.570336974E1,-3.976273060E0,1.591227055E0,1.049222851E1
1.572336974E1,-4.282554150E0,1.093519926E0,9.534501076E0
1.581740667E1,-1.869392633E0,1.936092615E0,1.091366386E1
1.583740667E1,-2.443969250E0,2.089233160E0,1.041565800E1
1.585740667E1,-2.788535595E0,2.050948143E0,9.879366875E0
1.587740667E1,-2.252244234E0,2.089233160E0,9.841081619E0
1.589740667E1,-1.792523265E0,2.012662888E0,9.802796364E0
1.591740667E1,-1.562812328E0,2.012662888E0,9.955936432E0
1.593740667E1,-1.562812328E0,2.050948143E0,9.726225853E0
1.595740667E1,-1.639382601E0,2.089233160E0,9.457930565E0
1.597740667E1,-1.601097465E0,2.204387903E0,9.381360054E0
1.599740667E1,-1.639382601E0,2.280958176E0,9.726225853E0
1.601740667E1,-1.256231904E0,2.089233160E0,9.304789543E0
1.603740667E1,-1.141376376E0,2.089233160E0,9.381360054E0
1.605740667E1,-1.294517040E0,2.434098721E0,9.649655342E0
1.607740667E1,-4.902295470E-1,2.204387903E0,1.037737274E1
1.609740667E1,2.374876440E-1,1.552941918E0,9.343074799E0
1.611740667E1,2.374876440E-1,7.869395614E-1,9.074779510E0
1.613740667E1,-6.050850153E-1,9.783653617E-1,9.457930565E0
1.615740667E1,-9.882357717E-1,1.744666815E0,9.649655342E0
1.617740667E1,-4.136592150E-1,2.050948143E0,9.802796364E0
1.619740667E1,-3.050848842E-2,2.089233160E0,9.917651176E0
1.621740667E1,5.057829022E-1,1.706381679E0,1.060708332E1
1.623740667E1,6.206383705E-1,1.208375454E0,1.030080223E1
1.625740667E1,2.374876440E-1,1.476371527E0,1.076052380E1
1.627740667E1,2.374876440E-1,1.897807479E0,1.068395329E1
1.629740667E1,-6.879365444E-2,1.936092615E0,1.072223854E1
1.631740667E1,-6.816553473E-1,2.089233160E0,1.033908749E1
1.633740667E1,-4.519443810E-1,2.089233160E0,9.649655342E0
1.635740667E1,-1.453639716E-1,2.089233160E0,9.994221687E0
1.637740667E1,-4.519443810E-1,2.089233160E0,9.611071587E0
1.639740667E1,-9.882357717E-1,2.242672920E0,9.343074799E0
1.641740667E1,-1.217946768E0,2.587239504E0,9.228219986E0
1.643740667E1,-9.116654396E-1,2.472383976E0,9.343074799E0
1.645740667E1,-4.902295470E-1,2.280958176E0,9.381360054E0
1.647740667E1,-7.582256794E-1,2.395813704E0,9.687940598E0
1.649740667E1,-9.116654396E-1,2.472383976E0,9.496215820E0
1.651740667E1,-9.882357717E-1,2.625524759E0,9.189934731E0
1.653740667E1,-9.116654396E-1,2.855534792E0,9.534501076E0
1.655740667E1,-7.582256794E-1,2.740679264E0,1.010907745E1
1.657740667E1,-9.499505758E-1,3.123530865E0,1.060708332E1
1.659740667E1,-9.499505758E-1,3.085245609E0,1.064536858E1
1.661740667E1,-1.026520967E0,3.162115097E0,1.099023438E1
1.663740667E1,-1.103091240E0,3.506681681E0,1.106680489E1
1.665740667E1,-9.499505758E-1,3.276970625E0,1.190967655E1
1.667740667E1,-1.754238129E0,3.813261986E0,1.248425293E1
1.669740667E1,-1.677667737E0,3.544966698E0,1.210110188E1
1.671740667E1,-1.830808401E0,2.625524759E0,1.129681492E1
1.673740667E1,-2.635395050E0,2.166102648E0,1.064536858E1
1.675740667E1,-2.137388945E0,1.476371527E0,1.072223854E1
1.677740667E1,-2.252244234E0,1.361516118E0,1.164138126E1
1.679740667E1,-2.520539522E0,8.252246976E-1,1.206281757E1
1.681740667E1,-2.826820850E0,1.093519926E0,1.122024441E1
1.683740667E1,-2.252244234E0,8.635098934E-1,9.955936432E0
1.685740667E1,-2.328814745E0,7.103692293E-1,1.018594646E1
1.687740667E1,-2.558824778E0,6.720840335E-1,9.994221687E0
1.689740667E1,-2.290529490E0,7.103692293E-1,8.730213165E0
1.691740667E1,-2.137388945E0,8.635098934E-1,7.810771465E0
1.693740667E1,-1.984248161E0,7.103692293E-1,7.465905666E0
1.695740667E1,-1.984248161E0,9.400802255E-1,7.734200954E0
1.697740667E1,-1.945963025E0,1.131805062E0,7.810771465E0
1.699740667E1,-2.022533417E0,1.399801254E0,7.274479866E0
1.701740667E1,-1.754238129E0,1.399801254E0,7.044768810E0
1.703740667E1,-1.754238129E0,1.629811287E0,7.925626755E0
1.705740667E1,-1.179661512E0,1.668096542E0,8.806783676E0
1.707740667E1,-1.064806104E0,2.012662888E0,9.074779510E0
1.709740667E1,-1.141376376E0,2.089233160E0,8.998209953E0
1.711740667E1,-1.217946768E0,2.050948143E0,9.419645309E0
1.713740667E1,-9.882357717E-1,2.012662888E0,1.003250694E1
1.715740667E1,-1.026520967E0,2.395813704E0,1.033908749E1
1.717740667E1,-1.064806104E0,2.472383976E0,1.053051376E1
1.719740667E1,-9.116654396E-1,2.242672920E0,1.106680489E1
1.721740667E1,-1.103091240E0,2.127817631E0,1.236939716E1
1.723740667E1,-1.294517040E0,2.357528448E0,1.229282761E1
1.725740667E1,-9.882357717E-1,2.510669231E0,1.156481075E1
1.727740667E1,-4.519443810E-1,2.204387903E0,1.099023438E1
1.729740667E1,-3.050848842E-2,2.089233160E0,1.141167068E1
1.731740667E1,2.374876440E-1,2.050948143E0,1.152652550E1
1.733740667E1,-1.070788130E-1,2.127817631E0,1.030080223E1
1.735740667E1,-3.050848842E-2,2.280958176E0,8.615358353E0
1.737740667E1,5.823532343E-1,2.050948143E0,7.963912010E0
1.739740667E1,3.526422381E-1,2.395813704E0,8.538488388E0
1.741740667E1,3.909274042E-1,2.434098721E0,8.691927910E0
1.743740667E1,1.992024779E-1,2.625524759E0,8.347063065E0
1.745740667E1,-6.879365444E-2,2.510669231E0,7.849056244E0
1.747740667E1,-3.370888829E-1,2.625524759E0,7.427620411E0
1.749740667E1,-2.988037169E-1,2.855534792E0,7.619345665E0
1.751740667E1,-6.879365444E-2,3.085245609E0,7.772486210E0
1.753740667E1,-5.667998791E-1,3.353540897E0,7.619345665E0
1.755740667E1,-9.499505758E-1,3.506681681E0,7.465905666E0
1.757740667E1,-9.499505758E-1,3.583251953E0,8.270492554E0
1.759740667E1,-9.116654396E-1,3.659822226E0,9.802796364E0
1.761740667E1,-1.103091240E0,3.966402531E0,1.072223854E1
1.763740667E1,-1.256231904E0,4.004687786E0,1.076052380E1
1.765740667E1,-1.486241937E0,3.813261986E0,1.079880905E1
1.767740667E1,-1.562812328E0,3.391826153E0,1.133510017E1
1.769740667E1,-1.715952992E0,3.238685369E0,1.198624706E1
1.771740667E1,-1.754238129E0,3.468396425E0,1.179482079E1
1.773740667E1,-1.869392633E0,3.583251953E0,1.114337540E1
1.775740667E1,-1.945963025E0,3.468396425E0,1.041565800E1
1.777740667E1,-2.711965322E0,3.813261986E0,9.036494255E0
1.779740667E1,-2.482254505E0,3.544966698E0,8.155636787E0
1.781740667E1,-2.060818434E0,3.046960592E0,9.151649475E0
1.783740667E1,-2.405683994E0,2.778964281E0,1.068395329E1
1.785740667E1,-3.363112211E0,2.778964281E0,1.037737274E1
1.787740667E1,-3.707977772E0,2.472383976E0,8.730213165E0
1.789740667E1,-3.209971666E0,2.204387903E0,7.772486210E0
1.791740667E1,-2.673680305E0,2.510669231E0,7.734200954E0
1.793740667E1,-2.443969250E0,3.008675337E0,8.193922043E0
1.795740667E1,-2.022533417E0,3.353540897E0,8.040482521E0
1.797740667E1,-1.217946768E0,3.123530865E0,7.542775154E0
1.799740667E1,-1.179661512E0,3.200400352E0,7.351050377E0
1.801740667E1,-1.830808401E0,3.276970625E0,7.619345665E0
1.803740667E1,-2.175673962E0,3.085245609E0,8.385348320E0
1.805740667E1,-2.099103689E0,3.162115097E0,9.151649475E0
1.807740667E1,-1.524527073E0,3.123530865E0,9.764511108E0
1.809740667E1,-1.103091240E0,2.893819809E0,1.007079220E1
1.811740667E1,-8.350951076E-1,2.702394009E0,1.010907745E1
1.813740667E1,-7.968099117E-1,2.587239504E0,1.022423172E1
1.815740667E1,-4.136592150E-1,2.395813704E0,1.041565800E1
1.817740667E1,7.776673418E-3,2.434098721E0,1.064536858E1
1.819740667E1,4.292125702E-1,2.434098721E0,1.106680489E1
1.821740667E1,1.003789067E0,2.280958176E0,1.152652550E1
1.823740667E1,6.206383705E-1,2.970390320E0,1.076052380E1
1.825740667E1,1.195214868E0,2.510669231E0,9.841081619E0
1.827740667E1,1.310369492E0,2.319243431E0,1.022423172E1
1.829740667E1,7.740781307E-1,2.548954248E0,1.076052380E1
1.831740667E1,3.143570721E-1,2.740679264E0,9.649655342E0
1.833740667E1,2.374876440E-1,2.932105064E0,8.079066277E0
1.835740667E1,6.589235067E-1,2.702394009E0,7.197909832E0
1.837740667E1,7.740781307E-1,2.817249537E0,7.312765121E0
1.839740667E1,4.674977362E-1,2.932105064E0,7.695915699E0
1.841740667E1,1.226321608E-1,2.817249537E0,7.887341499E0
1.843740667E1,-6.879365444E-2,2.625524759E0,7.810771465E0
1.845740667E1,-1.070788130E-1,2.817249537E0,7.619345665E0
1.847740667E1,1.226321608E-1,3.123530865E0,7.657630444E0
1.849740667E1,2.374876440E-1,3.276970625E0,8.193922043E0
1.851740667E1,2.374876440E-1,3.430111170E0,9.036494255E0
1.853740667E1,4.606183618E-2,3.391826153E0,9.189934731E0
1.855740667E1,-3.050848842E-2,3.468396425E0,9.189934731E0
1.857740667E1,1.992024779E-1,3.468396425E0,9.726225853E0
1.859740667E1,4.606183618E-2,3.736691713E0,1.060708332E1
1.861740667E1,-1.836491376E-1,3.659822226E0,1.079880905E1
1.863740667E1,-2.988037169E-1,3.659822226E0,1.014766216E1
1.865740667E1,-1.836491376E-1,3.659822226E0,9.611071587E0
1.867740667E1,-7.968099117E-1,3.506681681E0,1.045394325E1
1.869740667E1,-1.486241937E0,3.430111170E0,1.122024441E1
1.871740667E1,-2.520539522E0,3.966402531E0,1.076052380E1
1.873740667E1,-2.558824778E0,3.813261986E0,1.014766216E1
1.875740667E1,-1.754238129E0,3.315255880E0,1.122024441E1
1.877740667E1,-2.443969250E0,3.468396425E0,1.217767239E1
1.879740667E1,-3.631407499E0,3.430111170E0,1.091366386E1
1.881740667E1,-3.669692516E0,3.085245609E0,9.457930565E0
1.883740667E1,-2.941975355E0,2.664108992E0,8.653642654E0
1.885740667E1,-2.213959217E0,3.008675337E0,8.806783676E0
1.887740667E1,-1.907677889E0,3.200400352E0,8.653642654E0
1.889740667E1,-1.907677889E0,3.200400352E0,7.734200954E0
1.891740667E1,-1.524527073E0,2.855534792E0,7.083054066E0
1.893740667E1,-1.294517040E0,2.855534792E0,7.121339321E0
1.895740667E1,-1.371386528E0,2.970390320E0,7.351050377E0
1.897740667E1,-1.601097465E0,2.893819809E0,7.351050377E0
1.899740667E1,-1.409671664E0,2.778964281E0,7.389335632E0
1.901740667E1,-1.256231904E0,2.587239504E0,7.734200954E0
1.903740667E1,-1.179661512E0,2.395813704E0,8.461917877E0
1.905740667E1,-9.882357717E-1,2.395813704E0,9.457930565E0
1.907740667E1,-9.499505758E-1,2.472383976E0,9.879366875E0
1.909740667E1,-8.733802438E-1,2.548954248E0,1.007079220E1
1.911740667E1,-8.733802438E-1,2.548954248E0,1.007079220E1
1.913740667E1,-7.199404836E-1,2.932105064E0,1.087537861E1
1.915740667E1,7.776673418E-3,2.625524759E0,1.210110188E1
1.917740667E1,1.226321608E-1,3.238685369E0,1.279083347E1
1.919740667E1,2.760719061E-1,2.778964281E0,1.336540985E1
1.921740667E1,1.226321608E-1,2.472383976E0,1.397827148E1
1.923740667E1,-2.602194548E-1,2.434098721E0,1.355683613E1
1.925740667E1,3.909274042E-1,2.587239504E0,1.076052380E1
1.927740667E1,1.195214868E0,2.970390320E0,7.772486210E0
1.929740667E1,1.731506228E0,3.085245609E0,6.087041855E0
1.931740667E1,1.769791484E0,3.353540897E0,5.818746567E0
1.933740667E1,1.540080428E0,3.430111170E0,6.546762943E0
1.935740667E1,1.540080428E0,3.353540897E0,6.853044033E0
1.937740667E1,1.271785259E0,3.391826153E0,6.661618233E0
1.939740667E1,1.080359459E0,3.353540897E0,6.163611889E0
1.941740667E1,1.195214868E0,3.276970625E0,6.431608200E0
1.943740667E1,1.118644595E0,3.506681681E0,7.581060410E0
1.945740667E1,1.992024779E-1,4.426123619E0,7.695915699E0
1.947740667E1,1.992024779E-1,3.928117514E0,7.351050377E0
1.949740667E1,3.526422381E-1,3.468396425E0,7.389335632E0
1.951740667E1,4.292125702E-1,3.430111170E0,8.079066277E0
1.953740667E1,-1.453639716E-1,3.928117514E0,8.500203133E0
1.955740667E1,-7.199404836E-1,4.196412563E0,8.959924698E0
1.957740667E1,-9.882357717E-1,4.081258297E0,1.041565800E1
1.959740667E1,-1.486241937E0,4.004687786E0,1.256082344E1
1.961740667E1,-2.290529490E0,4.004687786E0,1.405484200E1
1.963740667E1,-2.367398977E0,3.813261986E0,1.309711456E1
1.965740667E1,-1.715952992E0,3.736691713E0,1.129681492E1
1.967740667E1,-1.371386528E0,4.042973042E0,9.802796364E0
1.969740667E1,-1.409671664E0,4.349553585E0,9.764511108E0
1.971740667E1,-3.753740489E-1,3.123530865E0,1.190967655E1
1.973740667E1,-1.026520967E0,2.472383976E0,1.340369511E1
1.975740667E1,-2.405683994E0,2.089233160E0,1.213938713E1
1.977740667E1,-3.324826956E0,2.089233160E0,9.841081619E0
1.979740667E1,-3.171686411E0,1.897807479E0,8.270492554E0
1.981740667E1,-2.903690338E0,2.089233160E0,8.002197266E0
1.983740667E1,-2.405683994E0,2.242672920E0,8.040482521E0
1.985740667E1,-2.328814745E0,2.434098721E0,7.465905666E0
1.987740667E1,-2.252244234E0,2.089233160E0,6.891329288E0
1.989740667E1,-2.443969250E0,1.974377751E0,6.776473522E0
1.991740667E1,-2.865106106E0,1.974377751E0,7.274479866E0
1.993740667E1,-2.482254505E0,1.897807479E0,7.542775154E0
1.995740667E1,-1.945963025E0,2.012662888E0,7.312765121E0
1.997740667E1,-1.409671664E0,1.821237087E0,7.389335632E0
1.999740667E1,-1.179661512E0,1.974377751E0,7.542775154E0
2.001740667E1,-1.064806104E0,1.936092615E0,8.079066277E0
2.003740667E1,-6.050850153E-1,1.936092615E0,8.768498421E0
2.005740667E1,-4.902295470E-1,2.050948143E0,9.955936432E0
2.007740667E1,-3.370888829E-1,2.166102648E0,1.125852966E1
2.009740667E1,-2.988037169E-1,2.434098721E0,1.187139130E1
2.011740667E1,-1.453639716E-1,2.357528448E0,1.198624706E1
2.013740667E1,1.609173268E-1,2.089233160E0,1.259910870E1
2.015740667E1,-3.050848842E-2,2.740679264E0,1.236939716E1
2.017740667E1,1.386939883E0,2.319243431E0,1.206281757E1
2.019740667E1,1.578365684E0,2.395813704E0,1.221625710E1
2.021740667E1,1.310369492E0,2.242672920E0,1.233111286E1
2.023740667E1,4.292125702E-1,2.395813704E0,1.129681492E1
2.025740667E1,7.776673418E-3,2.587239504E0,9.228219986E0
2.027740667E1,3.526422381E-1,2.166102648E0,7.772486210E0
2.029740667E1,1.156929731E0,2.089233160E0,8.538488388E0
2.031740667E1,1.003789067E0,2.319243431E0,9.917651176E0
2.033740667E1,2.374876440E-1,2.510669231E0,9.649655342E0
2.035740667E1,1.992024779E-1,2.280958176E0,8.002197266E0
2.037740667E1,3.143570721E-1,2.357528448E0,6.393322945E0
2.039740667E1,6.589235067E-1,2.357528448E0,5.818746567E0
2.041740667E1,7.354938388E-1,2.778964281E0,6.623332977E0
2.043740667E1,8.889335990E-1,2.893819809E0,7.121339321E0
2.045740667E1,4.674977362E-1,2.932105064E0,6.738188744E0
2.047740667E1,2.374876440E-1,2.740679264E0,6.240182400E0
2.049740667E1,-1.836491376E-1,2.625524759E0,6.967899323E0
2.051740667E1,-1.179661512E0,2.587239504E0,8.768498421E0
2.053740667E1,-2.175673962E0,2.664108992E0,1.003250694E1
2.055740667E1,-3.056830883E0,2.702394009E0,1.102851963E1
2.057740667E1,-3.439981699E0,2.472383976E0,1.183310604E1
2.059740667E1,-3.516551971E0,2.510669231E0,1.217767239E1
2.061740667E1,-3.286541939E0,2.664108992E0,1.194796181E1
2.063740667E1,-3.018545866E0,2.855534792E0,1.122024441E1
2.065740667E1,-2.597109795E0,3.085245609E0,1.026251698E1
2.067740667E1,-2.367398977E0,3.162115097E0,1.026251698E1
2.069740667E1,-2.367398977E0,3.123530865E0,1.129681492E1
2.071740667E1,-1.639382601E0,2.817249537E0,1.309711456E1
2.073740667E1,-1.179661512E0,2.319243431E0,1.259910870E1
2.075740667E1,-1.562812328E0,2.089233160E0,1.091366386E1
2.077740667E1,-1.524527073E0,1.629811287E0,9.649655342E0
2.079740667E1,-1.945963025E0,2.050948143E0,9.687940598E0
2.081740667E1,-1.792523265E0,2.089233160E0,9.534501076E0
2.083740667E1,-1.562812328E0,2.204387903E0,8.347063065E0
2.085740667E1,-1.141376376E0,2.280958176E0,7.427620411E0
2.087740667E1,-7.199404836E-1,2.242672920E0,7.197909832E0
2.089740667E1,-5.285146832E-1,2.204387903E0,7.772486210E0
2.091740667E1,-7.968099117E-1,2.204387903E0,8.423632622E0
2.093740667E1,-1.179661512E0,2.089233160E0,8.538488388E0
2.095740667E1,-1.371386528E0,1.936092615E0,8.232207298E0
2.097740667E1,-1.333101273E0,1.859522343E0,8.193922043E0
2.099740667E1,-1.026520967E0,1.936092615E0,8.385348320E0
2.101740667E1,-9.116654396E-1,2.012662888E0,8.653642654E0
2.103740667E1,-1.371386528E0,1.936092615E0,9.151649475E0
2.105740667E1,-1.601097465E0,1.859522343E0,9.572786331E0
2.107740667E1,-1.562812328E0,1.821237087E0,1.030080223E1
2.109740667E1,-1.333101273E0,1.897807479E0,1.175653553E1
2.111740667E1,-9.499505758E-1,1.936092615E0,1.290568924E1
2.113740667E1,-8.350951076E-1,2.012662888E0,1.286740398E1
2.115740667E1,-6.433702111E-1,2.089233160E0,1.202453232E1
2.117740667E1,-4.902295470E-1,2.166102648E0,1.122024441E1
2.119740667E1,-5.667998791E-1,2.664108992E0,1.056879807E1
2.121740667E1,5.823532343E-1,2.242672920E0,1.060708332E1
2.123740667E1,9.655039310E-1,2.395813704E0,1.141167068E1
2.125740667E1,2.374876440E-1,2.548954248E0,1.167966652E1
2.127740667E1,-3.050848842E-2,2.855534792E0,1.068395329E1
2.129740667E1,2.374876440E-1,2.740679264E0,8.653642654E0
2.131740667E1,1.080359459E0,2.625524759E0,7.083054066E0
2.133740667E1,1.961516380E0,2.472383976E0,7.044768810E0
2.135740667E1,1.846660852E0,3.162115097E0,8.117351532E0
2.137740667E1,1.769791484E0,3.085245609E0,8.423632622E0
2.139740667E1,1.310369492E0,3.200400352E0,7.581060410E0
2.141740667E1,1.540080428E0,2.970390320E0,7.006184578E0
2.143740667E1,1.693221092E0,2.932105064E0,7.695915699E0
2.145740667E1,1.386939883E0,3.276970625E0,8.461917877E0
2.147740667E1,8.889335990E-1,3.315255880E0,8.040482521E0
2.149740667E1,4.292125702E-1,3.430111170E0,6.929614544E0
2.151740667E1,2.760719061E-1,3.544966698E0,6.240182400E0
2.153740667E1,3.909274042E-1,3.889832258E0,6.431608200E0
2.155740667E1,5.057829022E-1,4.042973042E0,6.853044033E0
2.157740667E1,2.760719061E-1,4.272983074E0,7.159624577E0
2.159740667E1,1.609173268E-1,4.426123619E0,7.810771465E0
2.161740667E1,2.760719061E-1,4.349553585E0,9.036494255E0
2.163740667E1,3.526422381E-1,4.540979385E0,1.049222851E1
2.165740667E1,4.674977362E-1,4.770989418E0,1.190967655E1
2.167740667E1,5.823532343E-1,4.809274197E0,1.290568924E1
2.169740667E1,1.118644595E0,4.579264164E0,1.286740398E1
2.171740667E1,1.195214868E0,4.617549419E0,1.213938713E1
2.173740667E1,1.042074203E0,4.809274197E0,9.802796364E0
2.175740667E1,3.909274042E-1,5.038985252E0,8.500203133E0
2.177740667E1,6.206383705E-1,4.387838364E0,8.959924698E0
2.179740667E1,4.292125702E-1,4.234697819E0,1.106680489E1
2.181740667E1,7.776673418E-3,3.889832258E0,1.225454235E1
2.183740667E1,-9.882357717E-1,3.774976730E0,1.087537861E1
2.185740667E1,-1.677667737E0,3.774976730E0,8.845068932E0
2.187740667E1,-1.601097465E0,3.506681681E0,7.772486210E0
2.189740667E1,-9.499505758E-1,3.621536970E0,8.117351532E0
2.191740667E1,-7.199404836E-1,3.698406458E0,8.883354187E0
2.193740667E1,-1.026520967E0,3.583251953E0,8.500203133E0
2.195740667E1,-1.371386528E0,3.200400352E0,7.312765121E0
2.197740667E1,-1.524527073E0,2.932105064E0,6.546762943E0
2.199740667E1,-1.677667737E0,2.893819809E0,6.355037689E0
2.201740667E1,-1.409671664E0,2.932105064E0,6.546762943E0
2.203740667E1,-1.026520967E0,3.008675337E0,6.508477688E0
2.205740667E1,-1.256231904E0,3.046960592E0,6.661618233E0
2.207740667E1,-1.677667737E0,3.315255880E0,6.967899323E0
2.209740667E1,-1.409671664E0,3.391826153E0,7.236194611E0
2.211740667E1,-1.256231904E0,3.774976730E0,7.810771465E0
2.213740667E1,-2.290529490E0,3.774976730E0,8.921639442E0
2.215740667E1,-2.903690338E0,3.966402531E0,9.917651176E0
2.217740667E1,-2.673680305E0,4.119543076E0,1.033908749E1
2.219740667E1,-2.443969250E0,4.464408875E0,1.033908749E1
2.221740667E1,-2.290529490E0,4.885844707E0,1.037737274E1
2.223740667E1,-1.792523265E0,4.924129963E0,1.068395329E1
2.225740667E1,-1.333101273E0,4.809274197E0,1.137338543E1
2.227740667E1,-1.141376376E0,4.464408875E0,1.213938713E1
2.229740667E1,-1.371386528E0,4.502694130E0,1.198624706E1
2.231740667E1,-5.667998791E-1,4.272983074E0,1.026251698E1
2.233740667E1,-1.070788130E-1,4.004687786E0,9.113364220E0
2.235740667E1,-2.602194548E-1,4.081258297E0,9.381360054E0
2.237740667E1,-7.582256794E-1,3.889832258E0,1.030080223E1
2.239740667E1,-7.199404836E-1,3.851547241E0,1.041565800E1
2.241740667E1,-2.219343036E-1,3.889832258E0,9.419645309E0
2.243740667E1,2.760719061E-1,3.774976730E0,8.461917877E0
2.245740667E1,5.823532343E-1,3.851547241E0,9.304789543E0
2.247740667E1,4.674977362E-1,3.928117514E0,1.010907745E1
2.249740667E1,2.760719061E-1,3.698406458E0,9.649655342E0
2.251740667E1,-1.453639716E-1,3.583251953E0,8.232207298E0
2.253740667E1,-5.285146832E-1,3.276970625E0,7.619345665E0
2.255740667E1,-6.433702111E-1,3.315255880E0,7.849056244E0
2.257740667E1,-8.350951076E-1,3.276970625E0,7.810771465E0
2.259740667E1,-1.447956800E0,3.315255880E0,7.274479866E0
2.261740667E1,-2.175673962E0,3.315255880E0,6.738188744E0
2.263740667E1,-2.597109795E0,3.391826153E0,6.853044033E0
2.265740667E1,-3.171686411E0,3.851547241E0,7.887341499E0
2.267740667E1,-3.554837227E0,4.119543076E0,8.461917877E0
2.269740667E1,-4.052843571E0,4.464408875E0,8.385348320E0
2.271740667E1,-4.320839405E0,4.464408875E0,8.347063065E0
2.273740667E1,-4.665705204E0,4.272983074E0,9.074779510E0
2.275740667E1,-5.278566837E0,4.426123619E0,1.007079220E1
2.277740667E1,-5.623432159E0,4.655834675E0,1.033908749E1
2.279740667E1,-5.163711071E0,4.962415218E0,9.572786331E0
2.281740667E1,-3.937987804E0,4.885844707E0,8.308777809E0
2.283740667E1,-3.707977772E0,4.885844707E0,8.040482521E0
2.285740667E1,-4.818845749E0,4.426123619E0,8.347063065E0
2.287740667E1,-5.240281582E0,3.544966698E0,8.883354187E0
2.289740667E1,-4.014558315E0,2.548954248E0,9.687940598E0
2.291740667E1,-3.133401155E0,2.472383976E0,9.649655342E0
2.293740667E1,-3.554837227E0,2.280958176E0,8.845068932E0
2.295740667E1,-3.363112211E0,2.166102648E0,7.504190922E0
2.297740667E1,-2.826820850E0,1.744666815E0,7.427620411E0
2.299740667E1,-3.286541939E0,1.821237087E0,8.998209953E0
2.301740667E1,-3.554837227E0,1.744666815E0,1.014766216E1
2.303740667E1,-3.516551971E0,1.744666815E0,9.687940598E0
2.305740667E1,-2.865106106E0,1.438086390E0,8.959924698E0
2.307740667E1,-2.903690338E0,1.514656782E0,9.381360054E0
2.309740667E1,-3.095116138E0,1.821237087E0,9.381360054E0
2.311740667E1,-3.363112211E0,2.204387903E0,7.734200954E0
2.313740667E1,-3.209971666E0,2.319243431E0,6.393322945E0
2.315740667E1,-2.903690338E0,2.548954248E0,6.431608200E0
2.317740667E1,-2.711965322E0,2.778964281E0,7.121339321E0
2.319740667E1,-2.826820850E0,3.200400352E0,7.772486210E0
2.321740667E1,-2.711965322E0,3.238685369E0,7.734200954E0
2.323740667E1,-2.558824778E0,3.085245609E0,7.887341499E0
2.325740667E1,-2.750250578E0,3.162115097E0,9.036494255E0
2.327740667E1,-2.405683994E0,3.123530865E0,1.053051376E1
2.329740667E1,-1.792523265E0,3.276970625E0,1.175653553E1
2.331740667E1,-1.371386528E0,3.544966698E0,1.236939716E1
2.333740667E1,-2.022533417E0,3.468396425E0,1.271396446E1
2.335740667E1,-1.830808401E0,3.238685369E0,1.348026562E1
2.337740667E1,-1.486241937E0,3.813261986E0,1.305882931E1
2.339740667E1,-6.816553473E-1,3.774976730E0,1.156481075E1
2.341740667E1,-1.836491376E-1,3.468396425E0,1.068395329E1
2.343740667E1,-4.519443810E-1,3.315255880E0,1.114337540E1
2.345740667E1,-8.733802438E-1,2.893819809E0,1.049222851E1
2.347740667E1,-1.179661512E0,2.817249537E0,9.036494255E0
2.349740667E1,-7.968099117E-1,2.855534792E0,7.963912010E0
2.351740667E1,4.606183618E-2,3.008675337E0,7.963912010E0
2.353740667E1,3.909274042E-1,3.085245609E0,8.385348320E0
2.355740667E1,2.374876440E-1,2.855534792E0,8.577073097E0
2.357740667E1,-3.370888829E-1,2.893819809E0,7.925626755E0
2.359740667E1,-6.050850153E-1,2.855534792E0,7.274479866E0
2.361740667E1,-1.453639716E-1,2.817249537E0,7.849056244E0
2.363740667E1,-1.836491376E-1,3.123530865E0,8.461917877E0
2.365740667E1,-9.116654396E-1,3.276970625E0,7.810771465E0
2.367740667E1,-1.524527073E0,3.200400352E0,6.585047722E0
2.369740667E1,-1.524527073E0,3.200400352E0,6.585047722E0
2.371740667E1,-1.333101273E0,3.353540897E0,6.929614544E0
2.373740667E1,-1.524527073E0,3.621536970E0,7.504190922E0
2.375740667E1,-1.715952992E0,3.698406458E0,7.159624577E0
2.377740667E1,-1.294517040E0,3.659822226E0,6.585047722E0
2.379740667E1,-1.103091240E0,3.736691713E0,6.738188744E0
2.381740667E1,-1.256231904E0,3.813261986E0,7.504190922E0
2.383740667E1,-1.256231904E0,3.851547241E0,8.193922043E0
2.385740667E1,-1.026520967E0,3.928117514E0,8.117351532E0
2.387740667E1,-8.350951076E-1,3.889832258E0,8.193922043E0
2.389740667E1,-1.179661512E0,4.157828331E0,8.500203133E0
2.391740667E1,-1.601097465E0,3.928117514E0,9.611071587E0
2.393740667E1,-1.984248161E0,3.851547241E0,1.018594646E1
2.395740667E1,-2.252244234E0,3.966402531E0,1.030080223E1
2.397740667E1,-2.290529490E0,4.349553585E0,9.994221687E0
2.399740667E1,-1.830808401E0,4.004687786E0,9.917651176E0
2.401740667E1,-1.639382601E0,3.659822226E0,9.955936432E0
2.403740667E1,-1.984248161E0,3.315255880E0,9.687940598E0
2.405740667E1,-1.869392633E0,2.817249537E0,8.730213165E0
2.407740667E1,-1.486241937E0,2.472383976E0,7.772486210E0
2.409740667E1,-2.252244234E0,1.744666815E0,8.998209953E0
2.411740667E1,-2.405683994E0,2.204387903E0,6.699903488E0
2.413740667E1,-4.902295470E-1,9.400802255E-1,8.117351532E0
2.415740667E1,-2.602194548E-1,1.782951951E0,7.925626755E0
2.417740667E1,-2.750250578E0,2.166102648E0,9.151649475E0
2.419740667E1,-3.976273060E0,2.510669231E0,8.347063065E0
2.421740667E1,-3.669692516E0,2.548954248E0,7.236194611E0
2.423740667E1,-3.593122244E0,2.127817631E0,6.699903488E0
2.425740667E1,-5.278566837E0,1.859522343E0,8.806783676E0
2.427740667E1,-7.040880680E0,1.054935694E0,1.102851963E1
2.429740667E1,-5.891428471E0,7.486543655E-1,1.095194912E1
2.431740667E1,-4.435994148E0,1.054935694E0,1.022423172E1
2.433740667E1,-4.167698860E0,1.476371527E0,9.726225853E0
2.435740667E1,-5.010570526E0,1.821237087E0,9.343074799E0
2.437740667E1,-5.585147381E0,2.166102648E0,8.577073097E0
2.439740667E1,-5.738287926E0,2.089233160E0,8.385348320E0
2.441740667E1,-5.738287926E0,2.127817631E0,8.806783676E0
2.443740667E1,-7.155735970E0,3.928117514E0,2.792423964E0
2.445740667E1,-5.967998981E0,3.238685369E0,5.857031822E0
2.447740667E1,-6.044867992E0,2.012662888E0,1.095194912E1
2.449740667E1,-7.117451191E0,1.284945726E0,1.018594646E1
2.451740667E1,-7.692027569E0,1.208375454E0,7.849056244E0
2.461052464E1,-3.286541939E0,1.284945726E0,9.228219986E0
2.463052464E1,-2.941975355E0,1.706381679E0,9.113364220E0
2.465052464E1,-2.788535595E0,1.859522343E0,9.343074799E0
2.467052464E1,-2.137388945E0,1.668096542E0,9.994221687E0
2.469052464E1,-1.830808401E0,1.399801254E0,1.060708332E1
2.471052464E1,-1.945963025E0,1.438086390E0,1.030080223E1
2.473052464E1,-2.099103689E0,1.744666815E0,9.534501076E0
2.475052464E1,-2.022533417E0,1.859522343E0,9.419645309E0
2.477052464E1,-1.945963025E0,2.050948143E0,9.381360054E0
2.479052464E1,-9.882357717E-1,2.012662888E0,9.343074799E0
2.481052464E1,-1.026520967E0,1.859522343E0,9.649655342E0
2.483052464E1,-1.639382601E0,2.166102648E0,1.045394325E1
2.485052464E1,-1.754238129E0,2.395813704E0,1.022423172E1
2.487052464E1,-1.026520967E0,2.280958176E0,9.726225853E0
2.489052464E1,-8.350951076E-1,2.242672920E0,9.419645309E0
2.491052464E1,-1.447956800E0,2.434098721E0,9.687940598E0
2.493052464E1,-1.333101273E0,2.510669231E0,9.266505241E0
2.495052464E1,-5.667998791E-1,2.204387903E0,8.653642654E0
2.497052464E1,-6.433702111E-1,2.012662888E0,8.461917877E0
2.499052464E1,-1.677667737E0,2.050948143E0,9.419645309E0
2.501052464E1,-1.907677889E0,2.242672920E0,9.841081619E0
2.503052464E1,-1.256231904E0,1.936092615E0,9.802796364E0
2.505052464E1,-1.371386528E0,1.323230863E0,9.841081619E0
2.507052464E1,-1.715952992E0,1.591227055E0,1.129681492E1
2.509052464E1,-1.524527073E0,2.012662888E0,1.213938713E1
2.511052464E1,-1.524527073E0,1.974377751E0,1.290568924E1
2.513052464E1,-1.486241937E0,1.514656782E0,1.309711456E1
2.515052464E1,-1.486241937E0,1.131805062E0,1.305882931E1
2.517052464E1,-1.486241937E0,1.323230863E0,1.236939716E1
2.519052464E1,-1.294517040E0,1.170090318E0,1.229282761E1
2.521052464E1,-1.217946768E0,1.054935694E0,1.206281757E1
2.523052464E1,-7.582256794E-1,1.054935694E0,1.144995499E1
2.525052464E1,-1.524527073E0,1.016650558E0,1.148824024E1
2.527052464E1,-2.137388945E0,8.635098934E-1,1.087537861E1
2.529052464E1,-2.175673962E0,6.720840335E-1,1.064536858E1
2.531052464E1,-1.639382601E0,-2.856431901E-1,1.133510017E1
2.533052464E1,-2.175673962E0,-8.602197170E-1,1.056879807E1
2.535052464E1,-2.405683994E0,-1.281655669E0,9.457930565E0
2.537052464E1,-2.137388945E0,-2.124527454E0,8.500203133E0
2.539052464E1,-3.018545866E0,-2.201097727E0,8.806783676E0
2.541052464E1,-3.631407499E0,-1.664806366E0,9.687940598E0
2.543052464E1,-2.750250578E0,-1.281655669E0,8.691927910E0
2.545052464E1,-2.099103689E0,-1.205085278E0,7.925626755E0
2.547052464E1,-2.788535595E0,-1.281655669E0,7.963912010E0
2.549052464E1,-3.171686411E0,-1.588235974E0,8.461917877E0
2.551052464E1,-3.248256683E0,-1.281655669E0,8.691927910E0
2.553052464E1,-2.635395050E0,-1.013659477E0,8.883354187E0
2.555052464E1,-2.099103689E0,-9.367900491E-1,9.994221687E0
2.557052464E1,-2.099103689E0,-1.013659477E0,1.087537861E1
2.559052464E1,-1.869392633E0,-1.358225942E0,1.072223854E1
2.561052464E1,-1.907677889E0,-1.128515005E0,1.010907745E1
2.563052464E1,-2.060818434E0,-1.013659477E0,1.026251698E1
2.565052464E1,-1.754238129E0,-1.166800141E0,1.110509014E1
2.567052464E1,-1.103091240E0,-1.090229869E0,1.187139130E1
2.569052464E1,-8.733802438E-1,-6.687939167E-1,1.152652550E1
2.571052464E1,-1.333101273E0,-4.770690203E-1,1.110509014E1
2.573052464E1,-1.601097465E0,-2.473580390E-1,1.095194912E1
2.575052464E1,-1.026520967E0,-1.764706708E-2,1.091366386E1
2.577052464E1,-4.519443810E-1,-4.004986882E-1,1.099023438E1
2.579052464E1,-1.256231904E0,-5.593222752E-2,1.026251698E1
2.581052464E1,-2.060818434E0,5.955137610E-1,9.036494255E0
2.583052464E1,-2.367398977E0,1.016650558E0,8.117351532E0
2.585052464E1,-2.673680305E0,1.476371527E0,8.232207298E0
2.587052464E1,-2.788535595E0,2.012662888E0,8.691927910E0
2.589052464E1,-2.903690338E0,2.089233160E0,8.768498421E0
2.591052464E1,-2.520539522E0,1.706381679E0,8.500203133E0
2.593052464E1,-2.405683994E0,1.438086390E0,8.577073097E0
2.595052464E1,-2.558824778E0,1.782951951E0,8.270492554E0
2.597052464E1,-2.252244234E0,1.591227055E0,8.385348320E0
2.599052464E1,-2.328814745E0,1.170090318E0,8.806783676E0
2.601052464E1,-2.443969250E0,1.208375454E0,8.998209953E0
2.603052464E1,-2.788535595E0,1.668096542E0,9.343074799E0
2.605052464E1,-2.367398977E0,1.629811287E0,1.045394325E1
2.607052464E1,-1.294517040E0,1.284945726E0,1.210110188E1
2.609052464E1,-1.524527073E0,1.668096542E0,1.294397449E1
2.611052464E1,-1.984248161E0,1.936092615E0,1.099023438E1
2.613052464E1,-2.750250578E0,1.897807479E0,8.308777809E0
2.615052464E1,-2.941975355E0,1.476371527E0,7.657630444E0
2.617052464E1,-3.324826956E0,1.054935694E0,1.003250694E1
2.619052464E1,-2.788535595E0,1.744666815E0,1.202453232E1
2.621052464E1,-2.328814745E0,1.782951951E0,1.167966652E1
2.623052464E1,-3.401696444E0,2.050948143E0,9.649655342E0
2.625052464E1,-4.129413605E0,1.859522343E0,6.776473522E0
2.627052464E1,-4.014558315E0,1.629811287E0,7.197909832E0
2.629052464E1,-3.669692516E0,1.476371527E0,9.074779510E0
2.631052464E1,-3.171686411E0,1.514656782E0,1.014766216E1
2.633052464E1,-2.941975355E0,1.514656782E0,9.151649475E0
2.635052464E1,-3.401696444E0,1.897807479E0,7.389335632E0
2.637052464E1,-3.707977772E0,2.089233160E0,5.933601856E0
2.639052464E1,-3.439981699E0,2.166102648E0,5.895316601E0
2.641052464E1,-2.941975355E0,1.936092615E0,6.699903488E0
2.643052464E1,-2.750250578E0,1.668096542E0,7.887341499E0
2.645052464E1,-2.750250578E0,1.093519926E0,9.726225853E0
2.647052464E1,-3.209971666E0,9.783653617E-1,1.072223854E1
2.649052464E1,-3.593122244E0,7.486543655E-1,1.118195915E1
2.651052464E1,-3.478266716E0,5.186443329E-1,1.164138126E1
2.653052464E1,-2.750250578E0,7.103692293E-1,1.236939716E1
2.655052464E1,-2.252244234E0,1.131805062E0,1.321197033E1
2.657052464E1,-1.371386528E0,8.635098934E-1,1.355683613E1
2.659052464E1,-6.816553473E-1,4.037888348E-1,1.317368507E1
2.661052464E1,-1.447956800E0,9.400802255E-1,1.041565800E1
2.663052464E1,-1.294517040E0,1.054935694E0,9.074779510E0
2.665052464E1,-9.499505758E-1,9.400802255E-1,9.343074799E0
2.667052464E1,-1.217946768E0,1.054935694E0,1.053051376E1
2.669052464E1,-1.830808401E0,1.093519926E0,1.010907745E1
2.671052464E1,-2.175673962E0,1.361516118E0,8.845068932E0
2.673052464E1,-2.482254505E0,1.706381679E0,7.465905666E0
2.675052464E1,-2.558824778E0,2.012662888E0,7.044768810E0
2.677052464E1,-2.635395050E0,2.319243431E0,7.312765121E0
2.679052464E1,-2.788535595E0,2.625524759E0,7.504190922E0
2.681052464E1,-2.788535595E0,2.702394009E0,7.887341499E0
2.683052464E1,-2.826820850E0,2.893819809E0,7.963912010E0
2.685052464E1,-3.669692516E0,3.506681681E0,8.423632622E0
2.687052464E1,-3.669692516E0,3.276970625E0,8.691927910E0
2.689052464E1,-3.363112211E0,3.085245609E0,8.845068932E0
2.691052464E1,-3.095116138E0,3.085245609E0,9.343074799E0
2.693052464E1,-3.095116138E0,2.778964281E0,1.041565800E1
2.695052464E1,-3.056830883E0,2.434098721E0,1.114337540E1
2.697052464E1,-2.750250578E0,2.319243431E0,1.125852966E1
2.699052464E1,-1.869392633E0,2.166102648E0,1.076052380E1
2.701052464E1,-1.562812328E0,2.127817631E0,1.037737274E1
2.703052464E1,-1.524527073E0,2.089233160E0,9.726225853E0
2.705052464E1,-9.882357717E-1,2.089233160E0,9.036494255E0
2.707052464E1,-1.026520967E0,2.127817631E0,8.577073097E0
2.709052464E1,-2.673680305E0,2.357528448E0,8.577073097E0
2.711052464E1,-3.631407499E0,2.319243431E0,7.619345665E0
2.713052464E1,-4.512564182E0,2.395813704E0,8.193922043E0
2.715052464E1,-5.087141037E0,2.510669231E0,9.841081619E0
2.717052464E1,-5.508576870E0,2.778964281E0,1.037737274E1
2.719052464E1,-4.933701038E0,2.357528448E0,9.572786331E0
2.721052464E1,-3.937987804E0,2.012662888E0,8.730213165E0
2.723052464E1,-3.095116138E0,2.089233160E0,8.079066277E0
2.725052464E1,-2.865106106E0,2.319243431E0,7.925626755E0
2.727052464E1,-2.865106106E0,2.127817631E0,7.925626755E0
2.729052464E1,-3.018545866E0,2.050948143E0,7.925626755E0
2.731052464E1,-3.554837227E0,2.089233160E0,7.925626755E0
2.733052464E1,-3.861118555E0,2.089233160E0,7.734200954E0
2.735052464E1,-4.435994148E0,2.089233160E0,8.079066277E0
2.737052464E1,-4.244269371E0,2.089233160E0,9.151649475E0
2.739052464E1,-3.363112211E0,2.050948143E0,9.764511108E0
2.741052464E1,-2.941975355E0,2.204387903E0,9.917651176E0
2.743052464E1,-2.826820850E0,2.204387903E0,1.018594646E1
2.745052464E1,-2.482254505E0,2.012662888E0,1.037737274E1
2.747052464E1,-2.788535595E0,1.974377751E0,1.026251698E1
2.749052464E1,-2.903690338E0,2.089233160E0,9.841081619E0
2.751052464E1,-2.673680305E0,2.089233160E0,9.764511108E0
2.753052464E1,-2.443969250E0,2.089233160E0,1.064536858E1
2.755052464E1,-1.869392633E0,1.859522343E0,1.198624706E1
2.757052464E1,-1.830808401E0,2.050948143E0,1.122024441E1
2.759052464E1,-1.217946768E0,1.897807479E0,1.095194912E1
2.761052464E1,-7.199404836E-1,1.668096542E0,1.083709335E1
2.763052464E1,-9.499505758E-1,1.821237087E0,1.037737274E1
2.765052464E1,-1.064806104E0,1.552941918E0,9.266505241E0
2.767052464E1,-6.050850153E-1,1.131805062E0,8.423632622E0
2.769052464E1,-6.816553473E-1,1.246660590E0,8.615358353E0
2.771052464E1,-1.371386528E0,1.668096542E0,9.189934731E0
2.773052464E1,-2.060818434E0,1.936092615E0,9.074779510E0
2.775052464E1,-2.213959217E0,2.012662888E0,8.577073097E0
2.777052464E1,-1.486241937E0,2.280958176E0,8.193922043E0
2.779052464E1,-1.103091240E0,2.855534792E0,8.500203133E0
2.781052464E1,-6.816553473E-1,2.778964281E0,8.500203133E0
2.783052464E1,-6.050850153E-1,2.587239504E0,8.155636787E0
2.785052464E1,-7.968099117E-1,2.395813704E0,8.270492554E0
2.787052464E1,-1.064806104E0,2.319243431E0,8.615358353E0
2.789052464E1,-1.333101273E0,2.280958176E0,9.036494255E0
2.791052464E1,-1.294517040E0,2.204387903E0,9.228219986E0
2.793052464E1,-1.792523265E0,2.587239504E0,9.496215820E0
2.795052464E1,-1.984248161E0,2.510669231E0,1.018594646E1
2.797052464E1,-1.333101273E0,2.127817631E0,1.148824024E1
2.799052464E1,-1.256231904E0,2.242672920E0,1.210110188E1
2.801052464E1,-1.869392633E0,2.357528448E0,1.179482079E1
2.803052464E1,-2.405683994E0,2.472383976E0,1.083709335E1
2.805052464E1,-3.056830883E0,2.472383976E0,9.994221687E0
2.807052464E1,-3.286541939E0,2.357528448E0,1.007079220E1
2.809052464E1,-2.099103689E0,1.897807479E0,1.152652550E1
2.811052464E1,-1.064806104E0,2.242672920E0,1.206281757E1
2.813052464E1,-6.050850153E-1,2.319243431E0,1.076052380E1
2.815052464E1,-9.882357717E-1,2.319243431E0,8.959924698E0
2.817052464E1,-1.486241937E0,2.242672920E0,8.538488388E0
2.819052464E1,-1.754238129E0,2.166102648E0,9.304789543E0
2.821052464E1,-1.907677889E0,2.166102648E0,9.496215820E0
2.823052464E1,-1.830808401E0,2.204387903E0,8.270492554E0
2.825052464E1,-1.601097465E0,2.166102648E0,6.776473522E0
2.827052464E1,-1.869392633E0,2.319243431E0,6.431608200E0
2.829052464E1,-2.060818434E0,2.166102648E0,7.389335632E0
2.831052464E1,-2.443969250E0,2.166102648E0,8.423632622E0
2.833052464E1,-3.899403572E0,2.817249537E0,8.117351532E0
2.835052464E1,-4.895416260E0,3.123530865E0,8.002197266E0
2.837052464E1,-4.742275238E0,2.548954248E0,8.959924698E0
2.839052464E1,-4.589134693E0,2.089233160E0,1.007079220E1
2.841052464E1,-4.474279404E0,1.974377751E0,1.022423172E1
2.843052464E1,-3.669692516E0,1.476371527E0,1.014766216E1
2.845052464E1,-1.486241937E0,7.103692293E-1,1.129681492E1
2.847052464E1,4.606183618E-2,3.655036688E-1,1.351855087E1
2.849052464E1,2.760719061E-1,2.123630047E-1,1.493599892E1
2.851052464E1,3.526422381E-1,-1.764706708E-2,1.405484200E1
2.853052464E1,-6.879365444E-2,8.252246976E-1,1.129681492E1
2.855052464E1,9.655039310E-1,7.486543655E-1,9.381360054E0
2.857052464E1,9.272187948E-1,1.246660590E0,9.572786331E0
2.859052464E1,1.609173268E-1,1.706381679E0,1.056879807E1
2.861052464E1,-1.836491376E-1,1.361516118E0,1.053051376E1
2.863052464E1,-2.602194548E-1,1.476371527E0,9.841081619E0
2.865052464E1,4.606183618E-2,1.744666815E0,9.343074799E0
2.867052464E1,2.374876440E-1,1.897807479E0,8.806783676E0
2.869052464E1,1.992024779E-1,2.050948143E0,8.079066277E0
2.871052464E1,1.609173268E-1,1.936092615E0,7.619345665E0
2.873052464E1,-3.370888829E-1,1.974377751E0,7.619345665E0
2.875052464E1,-9.499505758E-1,2.089233160E0,7.734200954E0
2.877052464E1,-1.409671664E0,2.127817631E0,7.581060410E0
2.879052464E1,-1.409671664E0,2.127817631E0,7.772486210E0
2.881052464E1,-1.677667737E0,2.242672920E0,8.040482521E0
2.883052464E1,-2.328814745E0,2.357528448E0,7.963912010E0
2.885052464E1,-3.401696444E0,2.740679264E0,7.657630444E0
2.887052464E1,-4.282554150E0,3.391826153E0,8.308777809E0
2.889052464E1,-4.589134693E0,4.042973042E0,9.419645309E0
2.891052464E1,-4.052843571E0,3.889832258E0,1.079880905E1
2.893052464E1,-2.941975355E0,2.970390320E0,1.210110188E1
2.895052464E1,-2.673680305E0,2.740679264E0,1.244596767E1
2.897052464E1,-2.597109795E0,3.085245609E0,1.175653553E1
2.899052464E1,-2.290529490E0,3.200400352E0,1.026251698E1
2.901052464E1,-1.639382601E0,2.932105064E0,9.841081619E0
2.903052464E1,-1.907677889E0,3.162115097E0,1.033908749E1
2.905052464E1,-2.137388945E0,2.664108992E0,1.148824024E1
2.907052464E1,-1.907677889E0,2.280958176E0,1.164138126E1
2.909052464E1,-1.945963025E0,2.127817631E0,1.083709335E1
2.911052464E1,-2.482254505E0,2.204387903E0,9.419645309E0
2.913052464E1,-2.405683994E0,2.242672920E0,8.002197266E0
2.915052464E1,-1.830808401E0,2.127817631E0,7.695915699E0
2.917052464E1,-1.601097465E0,2.472383976E0,8.347063065E0
2.919052464E1,-1.333101273E0,2.893819809E0,8.308777809E0
2.921052464E1,-1.217946768E0,3.008675337E0,7.581060410E0
2.923052464E1,-1.103091240E0,2.702394009E0,6.699903488E0
2.925052464E1,-1.409671664E0,2.625524759E0,6.125326633E0
2.927052464E1,-1.907677889E0,2.625524759E0,6.814758778E0
2.929052464E1,-2.060818434E0,2.664108992E0,7.504190922E0
2.931052464E1,-2.443969250E0,3.123530865E0,7.389335632E0
2.933052464E1,-2.597109795E0,3.085245609E0,6.891329288E0
2.935052464E1,-2.443969250E0,2.587239504E0,7.274479866E0
2.937052464E1,-2.252244234E0,2.166102648E0,9.151649475E0
2.939052464E1,-2.558824778E0,2.242672920E0,9.917651176E0
2.941052464E1,-2.903690338E0,2.242672920E0,9.266505241E0
2.943052464E1,-3.056830883E0,2.089233160E0,8.577073097E0
2.945052464E1,-2.405683994E0,1.706381679E0,9.955936432E0
2.947052464E1,-1.792523265E0,1.744666815E0,1.141167068E1
2.949052464E1,-1.562812328E0,1.016650558E0,1.252253819E1
2.951052464E1,-2.597109795E0,7.869395614E-1,1.305882931E1
2.953052464E1,-2.826820850E0,1.054935694E0,1.298225880E1
2.955052464E1,-1.179661512E0,2.123630047E-1,1.259910870E1
2.957052464E1,-7.582256794E-1,4.037888348E-1,1.275254822E1
2.959052464E1,-7.199404836E-1,2.123630047E-1,1.279083347E1
2.961052464E1,-1.677667737E0,4.803591371E-1,1.175653553E1
2.963052464E1,-2.137388945E0,7.103692293E-1,9.419645309E0
2.965052464E1,-2.175673962E0,1.093519926E0,7.925626755E0
2.967052464E1,-2.213959217E0,1.859522343E0,7.083054066E0
2.969052464E1,-1.409671664E0,2.089233160E0,6.546762943E0
2.971052464E1,-1.836491376E-1,2.050948143E0,6.508477688E0
2.973052464E1,-1.070788130E-1,1.859522343E0,6.929614544E0
2.975052464E1,-5.285146832E-1,1.552941918E0,7.810771465E0
2.977052464E1,-1.141376376E0,1.514656782E0,8.653642654E0
2.979052464E1,-1.562812328E0,1.093519926E0,9.074779510E0
2.981052464E1,-1.907677889E0,9.783653617E-1,8.768498421E0
2.983052464E1,-1.677667737E0,9.017950296E-1,9.074779510E0
2.985052464E1,-1.715952992E0,1.361516118E0,9.457930565E0
2.987052464E1,-2.137388945E0,1.668096542E0,9.917651176E0
2.989052464E1,-2.443969250E0,1.744666815E0,1.095194912E1
2.991052464E1,-2.597109795E0,1.821237087E0,1.129681492E1
2.993052464E1,-2.137388945E0,1.744666815E0,1.102851963E1
2.995052464E1,-1.562812328E0,1.323230863E0,1.076052380E1
2.997052464E1,-1.792523265E0,7.486543655E-1,1.125852966E1
2.999052464E1,-2.635395050E0,5.922235921E-2,1.294397449E1
3.001052464E1,-3.056830883E0,-9.421738982E-2,1.363340569E1
3.003052464E1,-3.133401155E0,3.655036688E-1,1.210110188E1
3.005052464E1,-3.209971666E0,9.783653617E-1,1.102851963E1
3.007052464E1,-2.443969250E0,1.208375454E0,1.095194912E1
3.009052464E1,-2.597109795E0,1.016650558E0,1.171825027E1
3.011052464E1,-3.593122244E0,8.635098934E-1,1.129681492E1
3.013052464E1,-4.244269371E0,8.635098934E-1,9.419645309E0
3.015052464E1,-4.780560493E0,1.016650558E0,8.921639442E0
3.017052464E1,-3.209971666E0,4.420739710E-1,8.730213165E0
3.019052464E1,-2.711965322E0,1.093519926E0,8.117351532E0
3.021052464E1,-2.635395050E0,1.438086390E0,7.542775154E0
3.023052464E1,-2.520539522E0,1.016650558E0,7.581060410E0
3.025052464E1,-2.099103689E0,8.252246976E-1,7.657630444E0
3.027052464E1,-1.869392633E0,4.420739710E-1,7.810771465E0
3.029052464E1,-2.328814745E0,5.186443329E-1,8.538488388E0
3.031052464E1,-2.137388945E0,1.740778536E-1,9.457930565E0
3.033052464E1,-1.754238129E0,1.740778536E-1,9.343074799E0
3.035052464E1,-1.677667737E0,3.272185028E-1,8.806783676E0
3.037052464E1,-1.830808401E0,2.506481707E-1,8.423632622E0
3.039052464E1,-2.099103689E0,-9.421738982E-2,9.955936432E0
3.041052464E1,-2.022533417E0,-2.473580390E-1,1.091366386E1
3.043052464E1,-2.750250578E0,2.123630047E-1,1.076052380E1
3.045052464E1,-2.711965322E0,-4.387838542E-1,1.122024441E1
3.047052464E1,-1.447956800E0,-1.243370414E0,1.156481075E1
3.049052464E1,-1.677667737E0,-1.325025558E-1,1.156481075E1
3.051052464E1,-1.447956800E0,2.506481707E-1,1.033908749E1
3.053052464E1,-6.050850153E-1,-3.622135222E-1,1.141167068E1
3.055052464E1,-1.256231904E0,-1.707877219E-1,1.236939716E1
3.057052464E1,-2.443969250E0,-1.764706708E-2,1.248425293E1
3.059052464E1,-2.826820850E0,-2.090728730E-1,1.122024441E1
3.061052464E1,-2.788535595E0,1.357926875E-1,9.994221687E0
3.063052464E1,-2.252244234E0,2.889333367E-1,8.691927910E0
3.065052464E1,-1.447956800E0,2.123630047E-1,8.117351532E0
3.067052464E1,-1.639382601E0,2.889333367E-1,8.615358353E0
3.069052464E1,-2.060818434E0,4.420739710E-1,8.615358353E0
3.071052464E1,-2.443969250E0,2.889333367E-1,7.619345665E0
3.073052464E1,-2.367398977E0,6.337988973E-1,6.393322945E0
3.075052464E1,-2.367398977E0,7.486543655E-1,6.546762943E0
3.077052464E1,-2.252244234E0,9.400802255E-1,7.427620411E0
3.079052464E1,-2.328814745E0,9.783653617E-1,7.695915699E0
3.081052464E1,-2.328814745E0,9.783653617E-1,7.619345665E0
3.083052464E1,-2.635395050E0,7.486543655E-1,8.270492554E0
3.085052464E1,-3.056830883E0,8.635098934E-1,8.959924698E0
3.087052464E1,-3.248256683E0,9.400802255E-1,9.457930565E0
3.089052464E1,-3.516551971E0,6.337988973E-1,9.802796364E0
3.091052464E1,-3.554837227E0,-5.593222752E-2,1.106680489E1
3.093052464E1,-3.976273060E0,-2.856431901E-1,1.259910870E1
3.095052464E1,-4.167698860E0,-3.239283562E-1,1.348026562E1
3.097052464E1,-3.937987804E0,-6.687939167E-1,1.328883934E1
3.099052464E1,-3.669692516E0,-8.985049129E-1,1.160309601E1
3.101052464E1,-3.746263027E0,-4.387838542E-1,1.003250694E1
3.103052464E1,-3.822833300E0,-1.764706708E-2,1.007079220E1
3.105052464E1,-3.478266716E0,-2.090728730E-1,9.955936432E0
3.107052464E1,-3.516551971E0,-1.707877219E-1,1.148824024E1
3.109052464E1,-2.865106106E0,-1.166800141E0,1.148824024E1
3.111052464E1,-3.478266716E0,-1.626521230E0,1.060708332E1
3.113052464E1,-4.550849438E0,-1.090229869E0,8.806783676E0
3.115052464E1,-4.972285271E0,-5.156532526E-1,7.121339321E0
3.117052464E1,-4.550849438E0,-4.004986882E-1,7.581060410E0
3.119052464E1,-4.320839405E0,1.740778536E-1,8.577073097E0
3.121052464E1,-3.822833300E0,-9.421738982E-2,7.657630444E0
3.123052464E1,-3.324826956E0,-3.622135222E-1,6.623332977E0
3.125052464E1,-3.248256683E0,-5.593222752E-2,5.971887112E0
3.127052464E1,-3.861118555E0,4.803591371E-1,6.316752911E0
3.129052464E1,-4.512564182E0,4.420739710E-1,7.504190922E0
3.131052464E1,-4.818845749E0,4.037888348E-1,7.695915699E0
3.133052464E1,-4.474279404E0,1.740778536E-1,7.159624577E0
3.135052464E1,-4.780560493E0,-1.707877219E-1,7.159624577E0
3.137052464E1,-5.700002670E0,-1.325025558E-1,8.423632622E0
3.139052464E1,-5.546862125E0,-2.090728730E-1,9.113364220E0
3.141052464E1,-5.201996326E0,-4.770690203E-1,1.033908749E1
3.143052464E1,-5.393422127E0,-7.070791125E-1,1.110509014E1
3.145052464E1,-5.623432159E0,-7.453642488E-1,1.102851963E1
3.147052464E1,-5.585147381E0,-6.687939167E-1,1.060708332E1
3.149052464E1,-5.546862125E0,-5.539384484E-1,1.144995499E1
3.151052464E1,-5.623432159E0,-7.070791125E-1,1.317368507E1
3.153052464E1,-5.738287926E0,-8.985049129E-1,1.332712460E1
3.155052464E1,-5.393422127E0,-3.239283562E-1,1.179482079E1
3.157052464E1,-4.742275238E0,2.506481707E-1,1.053051376E1
3.159052464E1,-4.052843571E0,6.720840335E-1,1.068395329E1
3.161052464E1,-3.554837227E0,7.486543655E-1,1.091366386E1
3.163052464E1,-3.554837227E0,2.123630047E-1,1.041565800E1
3.165052464E1,-3.631407499E0,1.740778536E-1,8.883354187E0
3.167052464E1,-3.631407499E0,6.720840335E-1,7.581060410E0
3.169052464E1,-3.286541939E0,1.131805062E0,7.159624577E0
3.171052464E1,-2.443969250E0,1.514656782E0,7.312765121E0
3.173052464E1,-1.984248161E0,1.284945726E0,7.159624577E0
3.175052464E1,-2.290529490E0,9.783653617E-1,6.929614544E0
3.177052464E1,-3.363112211E0,1.016650558E0,7.236194611E0
3.179052464E1,-4.091128349E0,1.170090318E0,7.810771465E0
3.181052464E1,-3.861118555E0,1.131805062E0,7.734200954E0
3.183052464E1,-3.707977772E0,1.054935694E0,7.657630444E0
3.185052464E1,-3.631407499E0,1.170090318E0,7.504190922E0
3.187052464E1,-3.746263027E0,1.399801254E0,7.312765121E0
3.189052464E1,-3.746263027E0,1.782951951E0,6.853044033E0
3.191052464E1,-3.899403572E0,2.050948143E0,6.623332977E0
3.193052464E1,-4.129413605E0,2.012662888E0,6.699903488E0
3.195052464E1,-4.320839405E0,2.012662888E0,6.929614544E0
3.197052464E1,-4.205984116E0,1.897807479E0,7.389335632E0
3.199052464E1,-4.397409916E0,1.821237087E0,8.347063065E0
3.201052464E1,-4.014558315E0,1.476371527E0,9.113364220E0
3.203052464E1,-3.899403572E0,1.399801254E0,9.879366875E0
3.205052464E1,-4.244269371E0,1.629811287E0,9.266505241E0
3.207052464E1,-4.703989983E0,1.821237087E0,8.538488388E0
3.209052464E1,-5.010570526E0,1.936092615E0,8.232207298E0
3.211052464E1,-5.125426292E0,1.974377751E0,8.232207298E0
3.213052464E1,-5.355136871E0,2.166102648E0,8.730213165E0
3.215052464E1,-5.125426292E0,2.319243431E0,9.304789543E0
3.217052464E1,-4.665705204E0,1.936092615E0,9.151649475E0
3.219052464E1,-4.589134693E0,1.476371527E0,8.959924698E0
3.221052464E1,-4.550849438E0,1.170090318E0,8.998209953E0
3.223052464E1,-4.550849438E0,9.400802255E-1,8.998209953E0
3.225052464E1,-4.703989983E0,1.016650558E0,8.691927910E0
3.227052464E1,-4.895416260E0,1.246660590E0,8.461917877E0
3.229052464E1,-4.895416260E0,1.361516118E0,8.461917877E0
3.231052464E1,-4.972285271E0,1.323230863E0,8.117351532E0
3.233052464E1,-5.240281582E0,1.246660590E0,8.155636787E0
3.235052464E1,-5.546862125E0,1.016650558E0,8.423632622E0
3.237052464E1,-5.738287926E0,1.170090318E0,8.615358353E0
3.239052464E1,-5.316852093E0,1.399801254E0,8.270492554E0
3.241052464E1,-6.312864304E0,2.166102648E0,4.516452789E0
3.243052464E1,-5.546862125E0,2.089233160E0,7.695915699E0
3.245052464E1,-5.316852093E0,1.514656782E0,1.007079220E1
3.247052464E1,-5.508576870E0,8.252246976E-1,9.687940598E0
3.256437999E1,-3.248256683E0,1.936092615E0,1.007079220E1
3.258437999E1,-2.750250578E0,1.859522343E0,9.419645309E0
3.260437999E1,-2.328814745E0,1.936092615E0,8.577073097E0
3.262437999E1,-2.482254505E0,1.859522343E0,8.653642654E0
3.264437999E1,-2.558824778E0,1.591227055E0,9.074779510E0
3.266437999E1,-2.482254505E0,1.323230863E0,9.343074799E0
3.268437999E1,-2.673680305E0,1.208375454E0,9.266505241E0
3.270437999E1,-2.750250578E0,1.016650558E0,9.726225853E0
3.272437999E1,-2.443969250E0,1.170090318E0,1.018594646E1
3.274437999E1,-9.499505758E-1,7.869395614E-1,1.171825027E1
3.276437999E1,-1.064806104E0,1.357926875E-1,1.060708332E1
3.278437999E1,-1.562812328E0,-1.325025558E-1,1.003250694E1
3.280437999E1,-1.907677889E0,-5.593222752E-2,9.841081619E0
3.282437999E1,-1.639382601E0,-4.004986882E-1,1.137338543E1
3.284437999E1,-1.677667737E0,-9.750752449E-1,1.137338543E1
3.286437999E1,-1.830808401E0,-8.602197170E-1,1.087537861E1
3.288437999E1,-2.328814745E0,-8.985049129E-1,1.022423172E1
3.290437999E1,-2.328814745E0,-8.219345808E-1,9.228219986E0
3.292437999E1,-1.869392633E0,-4.387838542E-1,9.419645309E0
3.294437999E1,-1.294517040E0,-6.305087805E-1,8.998209953E0
3.296437999E1,-1.830808401E0,-7.836494446E-1,9.381360054E0
3.298437999E1,-2.137388945E0,-1.013659477E0,9.994221687E0
3.300437999E1,-1.907677889E0,-1.281655669E0,1.060708332E1
3.302437999E1,-1.294517040E0,-1.434796333E0,1.114337540E1
3.304437999E1,-1.026520967E0,-1.549950838E0,1.171825027E1
3.306437999E1,-7.968099117E-1,-2.277667999E0,1.259910870E1
3.308437999E1,-7.582256794E-1,-2.775674343E0,1.325025558E1
3.310437999E1,-3.753740489E-1,-2.890529871E0,1.328883934E1
3.312437999E1,-7.199404836E-1,-2.852244616E0,1.378684616E1
3.314437999E1,-1.792523265E0,-2.852244616E0,1.363340569E1
3.316437999E1,-2.711965322E0,-2.775674343E0,1.359512138E1
3.318437999E1,-3.171686411E0,-2.086242199E0,1.179482079E1
3.320437999E1,-3.401696444E0,-1.856232166E0,1.152652550E1
3.322437999E1,-2.405683994E0,-2.584248543E0,1.190967655E1
3.324437999E1,-2.405683994E0,-3.082254648E0,1.236939716E1
3.326437999E1,-2.558824778E0,-3.273680449E0,1.114337540E1
3.328437999E1,-2.213959217E0,-3.541676521E0,8.691927910E0
3.330437999E1,-1.907677889E0,-3.158824921E0,6.508477688E0
3.332437999E1,-1.945963025E0,-2.354238272E0,5.742176056E0
3.334437999E1,-2.405683994E0,-1.434796333E0,7.542775154E0
3.336437999E1,-2.635395050E0,-5.539384484E-1,7.887341499E0
3.338437999E1,-2.213959217E0,-4.004986882E-1,6.087041855E0
3.340437999E1,-1.715952992E0,-9.750752449E-1,6.393322945E0
3.342437999E1,-1.409671664E0,-1.473081470E0,6.125326633E0
3.344437999E1,-2.443969250E0,-1.205085278E0,6.699903488E0
3.346437999E1,-2.903690338E0,-1.325025558E-1,7.734200954E0
3.348437999E1,-2.328814745E0,-7.070791125E-1,8.500203133E0
3.350437999E1,-1.984248161E0,-1.243370414E0,8.691927910E0
3.352437999E1,-2.558824778E0,-8.219345808E-1,8.423632622E0
3.354437999E1,-3.018545866E0,-4.387838542E-1,9.304789543E0
3.356437999E1,-2.213959217E0,-6.687939167E-1,9.228219986E0
3.358437999E1,-1.409671664E0,-8.602197170E-1,9.764511108E0
3.360437999E1,-1.409671664E0,-1.205085278E0,1.248425293E1
3.362437999E1,-1.217946768E0,-1.358225942E0,1.340369511E1
3.364437999E1,-1.524527073E0,-1.243370414E0,1.263739395E1
3.366437999E1,-2.941975355E0,-8.219345808E-1,1.302054405E1
3.368437999E1,-3.018545866E0,-9.367900491E-1,1.210110188E1
3.370437999E1,-1.984248161E0,-1.396511078E0,1.110509014E1
3.372437999E1,-2.213959217E0,-1.166800141E0,1.179482079E1
3.374437999E1,-2.788535595E0,-8.602197170E-1,1.179482079E1
3.376437999E1,-2.941975355E0,-2.090728730E-1,1.068395329E1
3.378437999E1,-1.409671664E0,-1.764706708E-2,9.457930565E0
3.380437999E1,-3.370888829E-1,3.655036688E-1,8.347063065E0
3.382437999E1,-1.064806104E0,9.400802255E-1,7.849056244E0
3.384437999E1,-1.256231904E0,1.016650558E0,8.461917877E0
3.386437999E1,-1.294517040E0,8.635098934E-1,8.270492554E0
3.388437999E1,-9.882357717E-1,9.017950296E-1,8.538488388E0
3.390437999E1,-7.582256794E-1,1.093519926E0,8.308777809E0
3.392437999E1,-9.116654396E-1,1.208375454E0,8.193922043E0
3.394437999E1,-6.433702111E-1,8.635098934E-1,7.963912010E0
3.396437999E1,-1.103091240E0,5.186443329E-1,8.500203133E0
3.398437999E1,-1.715952992E0,9.783653617E-1,9.343074799E0
3.400437999E1,-1.907677889E0,1.399801254E0,1.072223854E1
3.402437999E1,-7.968099117E-1,1.740778536E-1,1.076052380E1
3.404437999E1,-3.370888829E-1,-8.602197170E-1,1.064536858E1
3.406437999E1,-1.907677889E0,-2.473580390E-1,1.037737274E1
3.408437999E1,-4.627419949E0,1.093519926E0,1.091366386E1
3.410437999E1,-5.585147381E0,1.208375454E0,1.079880905E1
3.412437999E1,-5.891428471E0,1.170090318E0,1.102851963E1
3.414437999E1,-5.776573181E0,1.438086390E0,1.053051376E1
3.416437999E1,-4.129413605E0,2.123630047E-1,1.129681492E1
3.418437999E1,-2.750250578E0,-1.626521230E0,1.236939716E1
3.420437999E1,-3.669692516E0,-1.473081470E0,1.156481075E1
3.422437999E1,-3.937987804E0,-1.434796333E0,9.917651176E0
3.424437999E1,-4.014558315E0,-1.511366606E0,8.768498421E0
3.426437999E1,-3.669692516E0,-1.473081470E0,8.385348320E0
3.428437999E1,-3.554837227E0,-7.836494446E-1,8.921639442E0
3.430437999E1,-2.711965322E0,-6.305087805E-1,8.193922043E0
3.432437999E1,-2.022533417E0,-7.836494446E-1,6.776473522E0
3.434437999E1,-1.869392633E0,-7.070791125E-1,6.240182400E0
3.436437999E1,-1.945963025E0,-1.325025558E-1,6.508477688E0
3.438437999E1,-2.520539522E0,9.750752151E-2,6.431608200E0
3.440437999E1,-3.439981699E0,1.357926875E-1,6.546762943E0
3.442437999E1,-3.209971666E0,2.063809521E-2,8.155636787E0
3.444437999E1,-2.290529490E0,-5.539384484E-1,9.036494255E0
3.446437999E1,-2.597109795E0,-5.922235847E-1,1.003250694E1
3.448437999E1,-2.750250578E0,-5.156532526E-1,1.114337540E1
3.450437999E1,-1.984248161E0,-8.602197170E-1,1.030080223E1
3.452437999E1,-9.882357717E-1,-8.219345808E-1,9.687940598E0
3.454437999E1,-8.733802438E-1,-1.473081470E0,1.198624706E1
3.456437999E1,-7.582256794E-1,-2.162812471E0,1.405484200E1
3.458437999E1,-7.582256794E-1,-2.124527454E0,1.424626827E1
3.460437999E1,-1.217946768E0,-1.013659477E0,1.102851963E1
3.462437999E1,-8.733802438E-1,-3.239283562E-1,1.018594646E1
3.464437999E1,-2.602194548E-1,-7.836494446E-1,1.125852966E1
3.466437999E1,-3.753740489E-1,-1.243370414E0,1.282911873E1
3.468437999E1,-8.350951076E-1,-1.051944613E0,1.282911873E1
3.470437999E1,-1.026520967E0,-2.856431901E-1,1.152652550E1
3.472437999E1,-4.902295470E-1,3.655036688E-1,8.959924698E0
3.474437999E1,-1.070788130E-1,1.131805062E0,7.810771465E0
3.476437999E1,7.776673418E-3,1.476371527E0,7.657630444E0
3.478437999E1,1.992024779E-1,9.017950296E-1,8.423632622E0
3.480437999E1,-1.453639716E-1,8.635098934E-1,8.079066277E0
3.482437999E1,-1.453639716E-1,8.635098934E-1,8.079066277E0
3.484437999E1,-6.816553473E-1,1.476371527E0,6.776473522E0
3.486437999E1,-9.499505758E-1,1.591227055E0,7.581060410E0
3.488437999E1,-6.433702111E-1,1.208375454E0,7.772486210E0
3.490437999E1,-2.602194548E-1,1.208375454E0,7.427620411E0
3.492437999E1,-5.285146832E-1,1.476371527E0,7.581060410E0
3.494437999E1,-1.141376376E0,1.706381679E0,9.151649475E0
3.496437999E1,-1.830808401E0,1.897807479E0,1.148824024E1
3.498437999E1,-1.064806104E0,1.399801254E0,1.206281757E1
3.500437999E1,-9.882357717E-1,5.186443329E-1,1.248425293E1
3.502437999E1,-2.175673962E0,5.186443329E-1,1.344198036E1
3.504437999E1,-2.826820850E0,6.720840335E-1,1.382513142E1
3.506437999E1,-2.711965322E0,7.486543655E-1,1.332712460E1
3.508437999E1,-2.520539522E0,4.803591371E-1,1.275254822E1
3.510437999E1,-3.133401155E0,8.635098934E-1,1.259910870E1
3.512437999E1,-3.554837227E0,1.016650558E0,1.164138126E1
3.514437999E1,-2.558824778E0,7.103692293E-1,1.087537861E1
3.516437999E1,-1.792523265E0,5.955137610E-1,9.955936432E0
3.518437999E1,-2.635395050E0,1.399801254E0,1.083709335E1
3.520437999E1,-3.478266716E0,3.272185028E-1,1.022423172E1
3.522437999E1,-3.363112211E0,-6.687939167E-1,8.883354187E0
3.524437999E1,-2.405683994E0,-4.770690203E-1,7.887341499E0
3.526437999E1,-1.984248161E0,-1.707877219E-1,8.308777809E0
3.528437999E1,-1.907677889E0,6.720840335E-1,8.768498421E0
3.530437999E1,-1.830808401E0,1.170090318E0,8.002197266E0
3.532437999E1,-1.409671664E0,9.400802255E-1,6.585047722E0
3.534437999E1,-1.371386528E0,4.420739710E-1,5.435595512E0
3.536437999E1,-2.060818434E0,1.246660590E0,6.240182400E0
3.538437999E1,-2.252244234E0,2.089233160E0,6.125326633E0
3.540437999E1,-1.715952992E0,1.552941918E0,6.661618233E0
3.542437999E1,-1.945963025E0,9.017950296E-1,8.730213165E0
3.544437999E1,-2.022533417E0,1.131805062E0,1.072223854E1
3.546437999E1,-1.371386528E0,5.186443329E-1,1.064536858E1
3.548437999E1,-9.882357717E-1,9.017950296E-1,9.611071587E0
3.550437999E1,-1.141376376E0,1.093519926E0,9.994221687E0
3.552437999E1,-1.333101273E0,1.438086390E0,1.045394325E1
3.554437999E1,-8.733802438E-1,1.208375454E0,1.129681492E1
3.556437999E1,-3.753740489E-1,7.486543655E-1,1.279083347E1
3.558437999E1,1.226321608E-1,2.123630047E-1,1.409312725E1
3.560437999E1,-3.370888829E-1,9.017950296E-1,1.359512138E1
3.562437999E1,1.992024779E-1,1.208375454E0,1.152652550E1
3.564437999E1,6.972087026E-1,1.016650558E0,1.068395329E1
3.566437999E1,8.434699476E-2,8.635098934E-1,1.056879807E1
3.568437999E1,-7.968099117E-1,9.017950296E-1,1.079880905E1
3.570437999E1,-9.116654396E-1,9.400802255E-1,1.018594646E1
3.572437999E1,-4.136592150E-1,1.246660590E0,9.419645309E0
3.574437999E1,-6.879365444E-2,1.936092615E0,9.266505241E0
3.576437999E1,2.760719061E-1,1.936092615E0,9.343074799E0
3.578437999E1,2.374876440E-1,1.821237087E0,8.883354187E0
3.580437999E1,4.606183618E-2,1.936092615E0,7.581060410E0
3.582437999E1,-1.070788130E-1,2.050948143E0,6.393322945E0
3.584437999E1,-2.602194548E-1,2.166102648E0,6.010471344E0
3.586437999E1,-6.050850153E-1,2.472383976E0,6.508477688E0
3.588437999E1,-6.050850153E-1,2.089233160E0,6.929614544E0
3.590437999E1,-9.882357717E-1,2.012662888E0,7.121339321E0
3.592437999E1,-9.882357717E-1,2.089233160E0,7.925626755E0
3.594437999E1,-6.050850153E-1,2.204387903E0,8.040482521E0
3.596437999E1,-1.453639716E-1,2.472383976E0,8.117351532E0
3.598437999E1,7.776673418E-3,2.625524759E0,8.959924698E0
3.600437999E1,-2.988037169E-1,2.932105064E0,1.087537861E1
3.602437999E1,-4.136592150E-1,2.855534792E0,1.190967655E1
3.604437999E1,-4.902295470E-1,2.548954248E0,1.229282761E1
3.606437999E1,-5.667998791E-1,2.242672920E0,1.328883934E1
3.608437999E1,-8.350951076E-1,2.012662888E0,1.497428417E1
3.610437999E1,-1.179661512E0,2.204387903E0,1.520399475E1
3.612437999E1,-1.179661512E0,3.046960592E0,1.298225880E1
3.614437999E1,-8.733802438E-1,3.276970625E0,1.087537861E1
3.616437999E1,-7.199404836E-1,3.200400352E0,1.018594646E1
3.618437999E1,-9.499505758E-1,2.587239504E0,1.110509014E1
3.620437999E1,-1.601097465E0,2.089233160E0,1.171825027E1
3.622437999E1,-2.213959217E0,2.089233160E0,1.095194912E1
3.624437999E1,-2.213959217E0,2.089233160E0,8.921639442E0
3.626437999E1,-1.984248161E0,2.204387903E0,7.159624577E0
3.628437999E1,-1.869392633E0,2.434098721E0,6.929614544E0
3.630437999E1,-1.754238129E0,2.050948143E0,7.849056244E0
3.632437999E1,-2.022533417E0,1.821237087E0,7.810771465E0
3.634437999E1,-2.367398977E0,1.897807479E0,7.006184578E0
3.636437999E1,-2.213959217E0,1.897807479E0,6.278467655E0
3.638437999E1,-1.869392633E0,2.050948143E0,6.278467655E0
3.640437999E1,-1.524527073E0,2.089233160E0,6.585047722E0
3.642437999E1,-1.601097465E0,2.089233160E0,7.772486210E0
3.644437999E1,-1.715952992E0,1.897807479E0,8.423632622E0
3.646437999E1,-1.447956800E0,2.012662888E0,8.768498421E0
3.648437999E1,-1.103091240E0,2.127817631E0,8.500203133E0
3.650437999E1,-8.733802438E-1,2.166102648E0,8.500203133E0
3.652437999E1,-7.968099117E-1,2.050948143E0,9.189934731E0
3.654437999E1,-1.064806104E0,2.050948143E0,1.041565800E1
3.656437999E1,-1.294517040E0,2.089233160E0,1.102851963E1
3.658437999E1,-1.256231904E0,2.166102648E0,1.083709335E1
3.660437999E1,-7.968099117E-1,2.319243431E0,1.152652550E1
3.662437999E1,1.226321608E-1,1.974377751E0,1.367169094E1
3.664437999E1,2.374876440E-1,1.170090318E0,1.470598888E1
3.666437999E1,-3.050848842E-2,1.399801254E0,1.367169094E1
3.668437999E1,-3.050848842E-2,1.514656782E0,1.129681492E1
3.670437999E1,-6.879365444E-2,1.897807479E0,1.060708332E1
3.672437999E1,-3.050848842E-2,1.744666815E0,1.152652550E1
3.674437999E1,-4.519443810E-1,1.629811287E0,1.106680489E1
3.676437999E1,-6.816553473E-1,1.668096542E0,1.076052380E1
3.678437999E1,-5.285146832E-1,1.859522343E0,9.802796364E0
3.680437999E1,-4.136592150E-1,2.089233160E0,8.921639442E0
3.682437999E1,-4.902295470E-1,2.510669231E0,8.538488388E0
3.684437999E1,-2.988037169E-1,2.357528448E0,8.308777809E0
3.686437999E1,-1.453639716E-1,2.204387903E0,8.270492554E0
3.688437999E1,-3.370888829E-1,2.280958176E0,8.117351532E0
3.690437999E1,-4.902295470E-1,2.280958176E0,7.389335632E0
3.692437999E1,-6.050850153E-1,2.434098721E0,6.738188744E0
3.694437999E1,-6.433702111E-1,2.625524759E0,6.240182400E0
3.696437999E1,-8.350951076E-1,2.740679264E0,6.163611889E0
3.698437999E1,-1.141376376E0,2.893819809E0,7.121339321E0
3.700437999E1,-1.562812328E0,2.740679264E0,8.615358353E0
3.702437999E1,-1.754238129E0,2.817249537E0,8.921639442E0
3.704437999E1,-1.792523265E0,3.085245609E0,8.461917877E0
3.706437999E1,-1.945963025E0,3.315255880E0,8.883354187E0
3.708437999E1,-2.099103689E0,3.430111170E0,9.764511108E0
3.710437999E1,-1.945963025E0,3.315255880E0,1.045394325E1
3.712437999E1,-1.945963025E0,3.353540897E0,1.083709335E1
3.714437999E1,-1.869392633E0,3.315255880E0,1.141167068E1
3.716437999E1,-1.754238129E0,3.353540897E0,1.183310604E1
3.718437999E1,-1.869392633E0,3.468396425E0,1.175653553E1
3.720437999E1,-2.213959217E0,3.774976730E0,1.102851963E1
3.722437999E1,-2.405683994E0,3.774976730E0,1.026251698E1
3.724437999E1,-2.213959217E0,3.544966698E0,1.037737274E1
3.726437999E1,-2.022533417E0,2.740679264E0,1.129681492E1
3.728437999E1,-2.405683994E0,2.127817631E0,1.171825027E1
3.730437999E1,-3.095116138E0,2.089233160E0,1.099023438E1
3.732437999E1,-3.056830883E0,2.089233160E0,9.343074799E0
3.734437999E1,-2.711965322E0,2.089233160E0,8.423632622E0
3.736437999E1,-2.099103689E0,2.280958176E0,8.691927910E0
3.738437999E1,-1.907677889E0,2.089233160E0,9.036494255E0
3.740437999E1,-2.213959217E0,2.204387903E0,8.270492554E0
3.742437999E1,-2.443969250E0,2.204387903E0,7.159624577E0
3.744437999E1,-2.137388945E0,2.510669231E0,6.623332977E0
3.746437999E1,-1.447956800E0,2.778964281E0,7.312765121E0
3.748437999E1,-1.103091240E0,2.625524759E0,7.810771465E0
3.750437999E1,-1.601097465E0,2.702394009E0,7.389335632E0
3.752437999E1,-2.367398977E0,2.510669231E0,6.891329288E0
3.754437999E1,-2.597109795E0,2.510669231E0,7.121339321E0
3.756437999E1,-2.137388945E0,2.702394009E0,7.772486210E0
3.758437999E1,-1.754238129E0,2.932105064E0,8.308777809E0
3.760437999E1,-1.639382601E0,3.008675337E0,8.806783676E0
3.762437999E1,-1.294517040E0,2.970390320E0,9.113364220E0
3.764437999E1,-1.639382601E0,2.932105064E0,9.074779510E0
3.766437999E1,-1.869392633E0,2.932105064E0,9.381360054E0
3.768437999E1,-1.639382601E0,2.855534792E0,1.010907745E1
3.770437999E1,-1.179661512E0,2.395813704E0,1.118195915E1
3.772437999E1,-1.371386528E0,2.395813704E0,1.259910870E1
3.774437999E1,-1.064806104E0,2.395813704E0,1.374826145E1
3.776437999E1,-4.519443810E-1,2.548954248E0,1.259910870E1
3.778437999E1,1.992024779E-1,2.166102648E0,1.079880905E1
3.780437999E1,1.992024779E-1,2.280958176E0,1.087537861E1
3.782437999E1,2.760719061E-1,1.936092615E0,1.217767239E1
3.784437999E1,3.143570721E-1,1.284945726E0,1.321197033E1
3.786437999E1,-3.050848842E-2,1.514656782E0,1.267567921E1
3.788437999E1,-3.370888829E-1,1.897807479E0,1.064536858E1
3.790437999E1,-2.219343036E-1,2.089233160E0,8.538488388E0
3.792437999E1,1.226321608E-1,2.280958176E0,7.695915699E0
3.794437999E1,8.434699476E-2,2.510669231E0,8.002197266E0
3.796437999E1,-1.070788130E-1,2.472383976E0,8.653642654E0
3.798437999E1,-1.836491376E-1,2.357528448E0,8.461917877E0
3.800437999E1,-6.879365444E-2,2.434098721E0,7.619345665E0
3.802437999E1,-1.070788130E-1,2.664108992E0,7.083054066E0
3.804437999E1,-2.219343036E-1,2.817249537E0,6.967899323E0
3.806437999E1,-3.753740489E-1,2.932105064E0,6.967899323E0
3.808437999E1,-4.136592150E-1,2.970390320E0,6.967899323E0
3.810437999E1,-4.136592150E-1,3.046960592E0,7.389335632E0
3.812437999E1,-7.199404836E-1,3.085245609E0,8.270492554E0
3.814437999E1,-1.026520967E0,3.008675337E0,9.266505241E0
3.816437999E1,-1.026520967E0,3.046960592E0,9.802796364E0
3.818437999E1,-9.116654396E-1,3.200400352E0,9.955936432E0
3.820437999E1,-6.816553473E-1,2.970390320E0,1.110509014E1
3.822437999E1,-6.816553473E-1,2.702394009E0,1.229282761E1
3.824437999E1,-6.816553473E-1,2.778964281E0,1.298225880E1
3.826437999E1,-4.902295470E-1,2.855534792E0,1.305882931E1
3.828437999E1,-1.026520967E0,2.970390320E0,1.240768242E1
3.830437999E1,-1.409671664E0,3.238685369E0,1.152652550E1
3.832437999E1,-8.350951076E-1,3.238685369E0,1.076052380E1
3.834437999E1,-3.370888829E-1,3.008675337E0,1.068395329E1
3.836437999E1,-8.350951076E-1,2.319243431E0,1.091366386E1
3.838437999E1,-1.524527073E0,1.668096542E0,1.030080223E1
3.840437999E1,-1.984248161E0,1.668096542E0,9.113364220E0
3.842437999E1,-1.945963025E0,1.936092615E0,8.155636787E0
3.844437999E1,-1.907677889E0,2.319243431E0,7.963912010E0
3.846437999E1,-1.907677889E0,2.510669231E0,8.155636787E0
3.848437999E1,-1.869392633E0,2.089233160E0,7.849056244E0
3.850437999E1,-1.830808401E0,1.782951951E0,7.542775154E0
3.852437999E1,-1.869392633E0,2.012662888E0,7.619345665E0
3.854437999E1,-1.792523265E0,2.127817631E0,7.810771465E0
3.856437999E1,-1.677667737E0,2.242672920E0,7.695915699E0
3.858437999E1,-1.677667737E0,2.280958176E0,7.274479866E0
3.860437999E1,-1.677667737E0,2.204387903E0,7.197909832E0
3.862437999E1,-1.715952992E0,2.127817631E0,7.657630444E0
3.864437999E1,-1.754238129E0,2.089233160E0,8.308777809E0
3.866437999E1,-1.677667737E0,2.127817631E0,8.653642654E0
3.868437999E1,-1.486241937E0,2.242672920E0,8.461917877E0
3.870437999E1,-1.371386528E0,2.319243431E0,8.308777809E0
3.872437999E1,-1.371386528E0,2.357528448E0,8.500203133E0
3.874437999E1,-1.715952992E0,2.587239504E0,8.921639442E0
3.876437999E1,-1.869392633E0,2.855534792E0,9.419645309E0
3.878437999E1,-1.792523265E0,2.893819809E0,1.099023438E1
3.880437999E1,-1.715952992E0,2.702394009E0,1.252253819E1
3.882437999E1,-1.601097465E0,2.625524759E0,1.309711456E1
3.884437999E1,-1.524527073E0,2.625524759E0,1.236939716E1
3.886437999E1,-1.371386528E0,2.625524759E0,1.106680489E1
3.888437999E1,-9.882357717E-1,2.855534792E0,1.060708332E1
3.890437999E1,-4.519443810E-1,2.587239504E0,1.133510017E1
3.892437999E1,-3.050848842E-2,2.166102648E0,1.244596767E1
3.894437999E1,-3.753740489E-1,1.859522343E0,1.363340569E1
3.896437999E1,-1.064806104E0,1.514656782E0,1.367169094E1
3.898437999E1,-1.677667737E0,1.629811287E0,1.248425293E1
3.900437999E1,-1.486241937E0,1.821237087E0,1.068395329E1
3.902437999E1,-8.350951076E-1,1.859522343E0,9.534501076E0
3.904437999E1,-6.879365444E-2,1.744666815E0,9.151649475E0
3.906437999E1,2.374876440E-1,1.438086390E0,9.113364220E0
3.908437999E1,2.374876440E-1,1.361516118E0,8.730213165E0
3.910437999E1,2.374876440E-1,1.744666815E0,7.810771465E0
3.912437999E1,2.374876440E-1,1.936092615E0,7.274479866E0
3.914437999E1,1.992024779E-1,2.089233160E0,7.197909832E0
3.916437999E1,4.606183618E-2,2.166102648E0,7.121339321E0
3.918437999E1,-4.136592150E-1,2.166102648E0,7.006184578E0
3.920437999E1,-7.968099117E-1,2.166102648E0,6.738188744E0
3.922437999E1,-1.026520967E0,2.280958176E0,6.891329288E0
3.924437999E1,-1.064806104E0,2.548954248E0,7.044768810E0
3.926437999E1,-7.968099117E-1,2.817249537E0,7.427620411E0
3.928437999E1,-6.050850153E-1,3.008675337E0,7.657630444E0
3.930437999E1,-9.882357717E-1,3.315255880E0,7.887341499E0
3.932437999E1,-1.141376376E0,3.621536970E0,7.963912010E0
3.934437999E1,-1.064806104E0,3.851547241E0,8.270492554E0
3.936437999E1,-6.050850153E-1,3.889832258E0,8.461917877E0
3.938437999E1,-2.602194548E-1,3.928117514E0,8.423632622E0
3.940437999E1,-4.136592150E-1,3.966402531E0,8.270492554E0
3.942437999E1,-1.026520967E0,3.966402531E0,8.653642654E0
3.944437999E1,-1.409671664E0,3.851547241E0,9.266505241E0
3.946437999E1,-1.371386528E0,3.889832258E0,1.003250694E1
3.948437999E1,-1.217946768E0,3.889832258E0,1.087537861E1
3.950437999E1,-1.026520967E0,3.813261986E0,1.122024441E1
3.952437999E1,-9.882357717E-1,4.081258297E0,1.137338543E1
3.954437999E1,-7.968099117E-1,3.698406458E0,1.187139130E1
3.956437999E1,-1.026520967E0,3.468396425E0,1.256082344E1
3.958437999E1,-1.562812328E0,3.506681681E0,1.325025558E1
3.960437999E1,-1.333101273E0,3.430111170E0,1.321197033E1
3.962437999E1,-6.433702111E-1,3.085245609E0,1.244596767E1
3.964437999E1,-5.285146832E-1,2.357528448E0,1.190967655E1
3.966437999E1,-1.064806104E0,2.204387903E0,1.122024441E1
3.968437999E1,-1.562812328E0,2.242672920E0,1.018594646E1
3.970437999E1,-1.830808401E0,2.166102648E0,9.228219986E0
3.972437999E1,-1.792523265E0,2.089233160E0,8.385348320E0
3.974437999E1,-1.715952992E0,2.089233160E0,8.079066277E0
3.976437999E1,-1.447956800E0,2.166102648E0,7.772486210E0
3.978437999E1,-1.601097465E0,2.319243431E0,7.465905666E0
3.980437999E1,-1.907677889E0,2.204387903E0,7.581060410E0
3.982437999E1,-2.405683994E0,2.127817631E0,7.887341499E0
3.984437999E1,-2.750250578E0,2.204387903E0,8.002197266E0
3.986437999E1,-2.482254505E0,2.166102648E0,7.542775154E0
3.988437999E1,-2.137388945E0,2.089233160E0,6.814758778E0
3.990437999E1,-2.213959217E0,2.127817631E0,6.776473522E0
3.992437999E1,-2.213959217E0,2.012662888E0,6.853044033E0
3.994437999E1,-2.252244234E0,1.974377751E0,7.083054066E0
3.996437999E1,-2.175673962E0,1.936092615E0,7.236194611E0
3.998437999E1,-1.869392633E0,2.242672920E0,7.159624577E0
4.000437999E1,-1.103091240E0,2.204387903E0,8.155636787E0
4.002437999E1,-1.179661512E0,2.204387903E0,8.461917877E0
4.004437999E1,-1.524527073E0,2.587239504E0,8.998209953E0
4.006437999E1,-1.869392633E0,2.434098721E0,9.113364220E0
4.008437999E1,-2.175673962E0,2.395813704E0,9.381360054E0
4.010437999E1,-2.405683994E0,2.664108992E0,9.955936432E0
4.012437999E1,-1.754238129E0,2.664108992E0,1.110509014E1
4.014437999E1,-1.409671664E0,2.587239504E0,1.167966652E1
4.016437999E1,-1.371386528E0,2.740679264E0,1.194796181E1
4.018437999E1,-1.639382601E0,2.702394009E0,1.156481075E1
4.020437999E1,-2.213959217E0,2.319243431E0,1.190967655E1
4.022437999E1,-2.443969250E0,2.434098721E0,1.217767239E1
4.024437999E1,-2.213959217E0,2.817249537E0,1.194796181E1
4.026437999E1,-1.830808401E0,3.200400352E0,1.202453232E1
4.028437999E1,-1.907677889E0,3.391826153E0,1.213938713E1
4.030437999E1,-1.715952992E0,2.855534792E0,1.233111286E1
4.032437999E1,-1.562812328E0,2.434098721E0,1.313539982E1
4.034437999E1,-1.333101273E0,2.357528448E0,1.359512138E1
4.036437999E1,-1.026520967E0,2.127817631E0,1.282911873E1
4.038437999E1,-9.499505758E-1,1.897807479E0,1.152652550E1
4.040437999E1,-1.524527073E0,1.859522343E0,1.045394325E1
4.042437999E1,-1.715952992E0,1.936092615E0,9.381360054E0
4.044437999E1,-1.256231904E0,2.089233160E0,7.849056244E0
4.046437999E1,-1.294517040E0,2.166102648E0,7.006184578E0
4.048437999E1,-1.256231904E0,2.166102648E0,7.006184578E0
4.050437999E1,-1.294517040E0,2.050948143E0,7.044768810E0
4.052437999E1,-1.677667737E0,2.050948143E0,7.006184578E0
4.054437999E1,-1.869392633E0,2.089233160E0,6.393322945E0
4.056437999E1,-1.830808401E0,2.242672920E0,5.857031822E0
4.058437999E1,-2.022533417E0,2.242672920E0,5.971887112E0
4.060437999E1,-2.750250578E0,2.242672920E0,6.623332977E0
4.062437999E1,-3.363112211E0,2.242672920E0,6.738188744E0
4.064437999E1,-3.363112211E0,2.319243431E0,6.393322945E0
4.066437999E1,-3.324826956E0,2.625524759E0,6.508477688E0
4.068437999E1,-3.937987804E0,3.046960592E0,7.197909832E0
4.070437999E1,-4.244269371E0,2.817249537E0,7.772486210E0
4.072437999E1,-4.052843571E0,2.778964281E0,7.925626755E0
4.074437999E1,-3.861118555E0,2.702394009E0,7.657630444E0
4.076437999E1,-4.129413605E0,2.472383976E0,7.351050377E0
4.078437999E1,-4.895416260E0,2.357528448E0,8.002197266E0
4.080437999E1,-5.929713726E0,3.008675337E0,7.695915699E0
4.082437999E1,-5.853143215E0,3.008675337E0,8.921639442E0
4.084437999E1,-5.585147381E0,2.242672920E0,9.036494255E0
