"Time (s)","Acceleration x (m/s^2)","Acceleration y (m/s^2)","Acceleration z (m/s^2)"
1.736116000E-2,7.316055298E-1,4.041477680E0,8.106285095E0
3.747089900E-2,5.156532526E-1,3.796811342E0,9.146564484E0
5.758063900E-2,2.931207716E-1,3.677768469E0,9.521639824E0
7.769037800E-2,1.968096644E-1,3.733401537E0,9.211171150E0
9.780011800E-2,2.291127741E-1,3.845864296E0,8.991629601E0
1.179098060E-1,2.961117923E-1,3.875774384E0,9.023334503E0
1.380195450E-1,3.284149170E-1,3.861417532E0,8.955737114E0
1.581292850E-1,2.488535494E-1,3.849453449E0,8.905488014E0
1.782390240E-1,2.811566591E-1,3.814159393E0,9.082556725E0
1.983487640E-1,3.798605800E-1,3.788436413E0,9.388239861E0
2.184585030E-1,4.025924206E-1,3.764508247E0,9.580862045E0
2.385682430E-1,3.505485058E-1,3.700500250E0,9.454640388E0
2.586779830E-1,1.866401732E-1,3.716053486E0,9.288339615E0
2.787877220E-1,7.477571070E-2,3.741178274E0,9.176474571E0
2.988974100E-1,4.785645381E-2,3.713660717E0,9.239884377E0
3.190071490E-1,-1.854437590E-2,3.704687595E0,9.380462646E0
3.391168890E-1,-6.580262631E-2,3.740580082E0,9.358329773E0
3.592266280E-1,-8.374879137E-3,3.767499208E0,9.253643036E0
3.793363680E-1,9.631111473E-2,3.743571043E0,9.226125717E0
3.994461080E-1,2.117647976E-1,3.691527128E0,9.244071960E0
4.195558470E-1,2.207378894E-1,3.710071564E0,9.224929810E0
4.396655870E-1,1.585244983E-1,3.726222992E0,9.154341698E0
4.597753260E-1,8.494520187E-2,3.684946775E0,9.244669914E0
4.798850660E-1,9.152546525E-2,3.637688637E0,9.306883812E0
4.999948060E-1,7.477571070E-2,3.653241873E0,9.145368576E0
5.201045450E-1,8.494520187E-2,3.722633839E0,8.880961418E0
5.402142330E-1,1.333998591E-1,3.789034605E0,8.752944946E0
5.603239720E-1,2.075773627E-1,3.803989887E0,8.970691681E0
5.804337120E-1,2.458625287E-1,3.750151396E0,9.333803177E0
6.005434510E-1,2.572284341E-1,3.682554007E0,9.479764938E0
6.206531910E-1,2.225325108E-1,3.683750391E0,9.372686386E0
6.407629310E-1,1.292124242E-1,3.700500250E0,9.146564484E0
6.608726700E-1,1.459621787E-1,3.698107481E0,8.922835350E0
6.809824100E-1,2.153540403E-1,3.710071564E0,8.920442581E0
7.010921490E-1,2.883351147E-1,3.659224033E0,9.067601204E0
7.212018890E-1,2.368894368E-1,3.608376503E0,9.302696228E0
7.413116280E-1,1.040877849E-1,3.541975737E0,9.415757179E0
7.614213680E-1,2.093719877E-2,3.512065411E0,9.275178909E0
7.815311080E-1,9.451649338E-2,3.509074450E0,9.096913338E0
8.016408470E-1,2.679961324E-1,3.486940861E0,9.126225471E0
8.217505350E-1,4.707878530E-1,3.471387386E0,9.327222824E0
8.418602740E-1,5.072783828E-1,3.520440340E0,9.530612946E0
8.619700140E-1,4.516452849E-1,3.534797192E0,9.506086349E0
8.820797530E-1,4.821537733E-1,3.507279873E0,9.342177391E0
9.021894930E-1,5.060819983E-1,3.530011654E0,9.343374252E0
9.222992330E-1,4.564309120E-1,3.607180119E0,9.199206352E0
9.424089720E-1,4.953143001E-1,3.582653761E0,8.930612564E0
9.625187120E-1,5.862415433E-1,3.511467218E0,8.944371223E0
9.826284510E-1,5.724828243E-1,3.467798233E0,9.278169632E0
1.002738191E0,4.271188378E-1,3.389433384E0,9.504889488E0
1.022847931E0,1.375873089E-1,3.342773199E0,9.291928291E0
1.042957670E0,-9.092725813E-2,3.305086374E0,9.168100357E0
1.063067410E0,-1.184447184E-1,3.346362352E0,9.245866776E0
1.083177149E0,-1.112662554E-1,3.385245800E0,9.227920532E0
1.103286889E0,-1.447657645E-1,3.384647608E0,9.135198593E0
1.123396628E0,-1.567298770E-1,3.400201082E0,9.116654396E0
1.143506368E0,-2.315055877E-1,3.395415306E0,9.317651749E0
1.163616108E0,-3.170489967E-1,3.354139090E0,9.425328255E0
1.183725847E0,-3.762713671E-1,3.359523058E0,9.332606316E0
1.203835535E0,-3.810569942E-1,3.379263878E0,9.262616158E0
1.223945274E0,-2.997010350E-1,3.440878868E0,9.308079720E0
1.244055014E0,-2.045863420E-1,3.529413462E0,9.385847092E0
1.264164753E0,-6.819544733E-2,3.597608805E0,9.462417603E0
1.284274493E0,-1.495514158E-2,3.653241873E0,9.522835732E0
1.304384233E0,-4.127619043E-2,3.623331785E0,9.557532310E0
1.324493972E0,-5.563312769E-2,3.585644722E0,9.681958199E0
1.344603712E0,5.084748194E-2,3.582055569E0,9.704689980E0
1.364713451E0,3.308077157E-1,3.618546009E0,9.614361763E0
1.384823191E0,5.754738450E-1,3.641277790E0,9.540781975E0
1.404932931E0,6.299105883E-1,3.656233072E0,9.570094109E0
1.425042670E0,3.810569942E-1,3.622135162E0,9.396614075E0
1.445152410E0,2.602194548E-1,3.330210924E0,9.232108116E0
1.465262149E0,4.546362907E-2,3.424129248E0,9.701101303E0
1.485371889E0,4.265206456E-1,3.486940861E0,9.888937950E0
1.505481628E0,5.569294691E-1,3.644268990E0,9.194420815E0
1.525591368E0,3.583251834E-1,3.687339783E0,8.837890625E0
1.545701108E0,1.603191197E-1,3.430709362E0,9.089137077E0
1.565810847E0,-1.387837082E-1,3.331407309E0,9.188439369E0
1.585920587E0,-2.177468538E-1,3.290729284E0,8.909674644E0
1.606030326E0,-3.487538993E-1,3.274577856E0,8.749954224E0
1.626140066E0,-3.607180119E-1,3.267997503E0,8.821739197E0
1.646249806E0,-3.834498227E-1,3.302095175E0,9.089735031E0
1.666359545E0,-7.579265833E-1,3.281157970E0,9.420542717E0
1.686469285E0,-5.264210105E-1,3.203391314E0,9.248259544E0
1.706579024E0,-3.702892959E-1,3.285345554E0,9.002396584E0
1.726688764E0,2.991028316E-2,3.403790236E0,8.830712318E0
1.746798503E0,-2.632105052E-1,3.429512978E0,8.977870941E0
1.766908243E0,-5.557330847E-1,3.337987661E0,9.190832138E0
1.787017983E0,-5.395814776E-1,3.381656647E0,9.309276581E0
1.807127722E0,-3.672982752E-1,3.452843189E0,9.349356651E0
1.827237462E0,-1.459621787E-1,3.494119167E0,9.302696228E0
1.847347149E0,-2.374876440E-1,3.366701365E0,9.440881729E0
1.867456889E0,-2.769692242E-1,2.886342287E0,9.792626381E0
1.887566628E0,-1.306481123E0,3.473181963E0,9.732806206E0
1.907676368E0,-9.894321561E-1,3.823132277E0,9.206983566E0
1.927786108E0,-3.403790295E-1,3.257229805E0,9.019744873E0
1.947895847E0,-5.102694035E-1,3.339184046E0,9.232706070E0
1.968005587E0,-6.879364848E-1,3.512065411E0,9.251849174E0
1.988115326E0,-5.461617708E-1,3.361915827E0,9.191430092E0
2.008225066E0,-3.529413342E-1,3.309273720E0,9.568299294E0
2.028334806E0,-3.068794906E-1,3.413959742E0,9.779465675E0
2.048444545E0,-4.606183469E-1,3.357130051E0,9.513862610E0
2.068554285E0,-5.371887088E-1,3.218346357E0,9.437891006E0
2.088664024E0,-5.760720372E-1,3.204587698E0,9.615557671E0
2.108773764E0,-5.473581553E-1,3.264408350E0,9.533603668E0
2.128883503E0,-5.371887088E-1,3.310470104E0,9.055039406E0
2.148993243E0,-5.108676553E-1,3.254837036E0,8.737990379E0
2.169102983E0,-5.880361795E-1,3.175873756E0,9.078369141E0
2.189212722E0,-3.092723191E-1,3.073580742E0,9.828518867E0
2.209322462E0,-1.872383654E-1,3.033500910E0,9.897313118E0
2.229432201E0,-2.895315289E-1,3.050250769E0,9.313464165E0
2.249541941E0,-2.386840582E-1,3.040679455E0,9.192625999E0
2.269651681E0,-2.973082066E-1,2.990430117E0,9.598209381E0
2.289761420E0,-2.673979402E-1,2.988635540E0,9.781859398E0
2.309871160E0,-1.698904037E-1,3.029313564E0,9.801599503E0
2.329980899E0,-9.571290575E-3,3.070589542E0,9.875179291E0
2.350090639E0,1.555334777E-1,3.153740168E0,9.763314247E0
2.370200378E0,1.483550072E-1,3.222533941E0,9.628120422E0
2.390310118E0,1.190429255E-1,3.216551781E0,9.731011391E0
2.410419858E0,-3.589233849E-3,3.169293642E0,1.000080204E1
2.430529597E0,-2.153540403E-2,3.136392355E0,9.975677490E0
2.450639337E0,2.871387079E-2,3.195614576E0,9.431908607E0
2.470749076E0,-1.794616925E-3,3.286541939E0,9.043074608E0
2.490858816E0,-1.274178028E-1,3.244667530E0,9.093324661E0
2.510968556E0,-2.685943544E-1,3.183052301E0,9.442078590E0
2.531078295E0,-3.116651475E-1,3.169293642E0,9.488738060E0
2.551188035E0,-3.194418252E-1,3.137588739E0,9.300303459E0
2.571297774E0,-3.613162339E-1,3.224328518E0,9.035896301E0
2.591407514E0,-2.931207716E-1,3.353540897E0,8.689535141E0
2.611517253E0,-1.328016520E-1,3.357130051E0,8.604590416E0
2.631626993E0,-4.127619043E-2,3.321237803E0,8.977272034E0
2.651736733E0,-5.742774159E-2,3.306282759E0,9.335597992E0
2.671846472E0,-1.052841991E-1,3.297907829E0,9.325428009E0
2.691956212E0,-6.101697683E-2,3.337987661E0,9.127422333E0
2.712065951E0,3.589233849E-3,3.380460262E0,9.087940216E0
2.732175743E0,6.101697683E-2,3.406183004E0,9.236893654E0
2.752285483E0,6.939185411E-2,3.401995659E0,9.394820213E0
2.772395222E0,-6.460621208E-2,3.399004459E0,9.524630547E0
2.792504962E0,-2.231307179E-1,3.358326674E0,9.588638306E0
2.812614701E0,-3.361915946E-1,3.299104214E0,9.796216011E0
2.832724441E0,-2.099701911E-1,3.317648649E0,9.781859398E0
2.852834181E0,-4.785645381E-2,3.357728481E0,9.504889488E0
2.872943920E0,-9.750752151E-2,3.394218922E0,9.284749985E0
2.893053660E0,-1.872383654E-1,3.425325632E0,9.276973724E0
2.913163399E0,-2.159522474E-1,3.388834953E0,9.292527199E0
2.933273139E0,-3.284149170E-1,3.330210924E0,9.378668785E0
2.953382878E0,-3.966103494E-1,3.354139090E0,9.498309135E0
2.973492618E0,-4.247260094E-1,3.374478102E0,9.503094673E0
2.993602358E0,-4.115654826E-1,3.361317635E0,9.374481201E0
3.013712097E0,-3.780659735E-1,3.348755360E0,9.314660072E0
3.033821837E0,-3.649054468E-1,3.310470104E0,9.391828537E0
3.053931576E0,-3.643072546E-1,3.297309637E0,9.340383530E0
3.074041316E0,-3.457628787E-1,3.328416348E0,9.332606316E0
3.094151056E0,-2.757728100E-1,3.304488182E0,9.403194427E0
3.114260795E0,-2.524427772E-1,3.283550978E0,9.240483284E0
3.134370535E0,-2.943171859E-1,3.407977581E0,8.989834785E0
3.154480274E0,-2.859423161E-1,3.471985579E0,8.880363464E0
3.174590014E0,-2.362912297E-1,3.391826153E0,9.008378983E0
3.194699753E0,-2.291127741E-1,3.323032379E0,9.341579437E0
3.214809493E0,-2.566302419E-1,3.269792080E0,9.682557106E0
3.234919233E0,-2.847459018E-1,3.254837036E0,9.698708534E0
3.255028972E0,-2.745763958E-1,3.291925669E0,9.494720459E0
3.275138712E0,-1.800599098E-1,3.339184046E0,9.304491043E0
3.295248451E0,-8.673982322E-2,3.360719442E0,9.276374817E0
3.315358191E0,-8.973085321E-3,3.358326674E0,9.314062119E0
3.335467931E0,-5.742774159E-2,3.381058455E0,9.327222824E0
3.355577670E0,-1.250249892E-1,3.377469063E0,9.322437286E0
3.375687410E0,-7.776673883E-2,3.377469063E0,9.362516403E0
3.395797149E0,3.649054468E-2,3.362514019E0,9.454640388E0
3.415906889E0,1.333998591E-1,3.349353552E0,9.425926208E0
3.436016628E0,1.399801224E-1,3.375076294E0,9.260822296E0
3.456126368E0,4.725824669E-2,3.414557934E0,9.148359299E0
3.476236108E0,5.982056726E-3,3.403192043E0,9.120243073E0
3.496345847E0,4.366901144E-2,3.370888948E0,9.248259544E0
3.516455587E0,1.202393398E-1,3.333201885E0,9.418747902E0
3.536565326E0,1.501496136E-1,3.333201885E0,9.345767021E0
3.556675066E0,1.339980662E-1,3.354139090E0,9.228518486E0
3.576784806E0,1.286142170E-1,3.307479143E0,9.236893654E0
3.596894545E0,1.112662554E-1,3.296113253E0,9.274580956E0
3.617004285E0,6.161518395E-2,3.330210924E0,9.029914856E0
3.637114076E0,4.007977992E-2,3.324228764E0,8.934800148E0
3.657223816E0,2.392822644E-3,3.337987661E0,9.203393936E0
3.677333556E0,-1.387837082E-1,3.411566973E0,9.338588715E0
3.697443295E0,-8.434699476E-2,3.387040377E0,9.334999084E0
3.717553035E0,-7.776673418E-3,3.361317635E0,9.547960281E0
3.737662774E0,1.836491376E-1,3.369692564E0,9.812367439E0
3.757772514E0,4.031906128E-1,3.406781197E0,9.801599503E0
3.777882253E0,4.396811724E-1,3.415156126E0,9.656235695E0
3.797991993E0,4.624129832E-1,3.365504980E0,9.586245537E0
3.818101733E0,4.223332107E-1,3.336791277E0,9.698708534E0
3.838211472E0,3.810569942E-1,3.259024382E0,9.629316330E0
3.858321212E0,2.979064286E-1,3.253042459E0,9.430113792E0
3.878430951E0,2.123630047E-1,3.239881754E0,9.491130829E0
3.898540691E0,1.435693651E-1,3.220739365E0,9.553942680E0
3.918650431E0,1.028913707E-1,3.240479946E0,9.444471359E0
3.938760170E0,9.152546525E-2,3.251247883E0,9.332606316E0
3.958869910E0,1.429711580E-1,3.247658491E0,9.306883812E0
3.978979649E0,2.213360965E-1,3.293720484E0,9.320642471E0
3.999089389E0,1.489532143E-1,3.359523058E0,9.277571678E0
4.019199128E0,1.375873014E-2,3.392424345E0,9.303294182E0
4.039308868E0,1.100698411E-1,3.272184849E0,9.559326172E0
4.059418608E0,3.589234054E-1,3.136990547E0,9.805787086E0
4.079528347E0,4.025924206E-1,3.130410194E0,9.859625816E0
4.099638139E0,2.877369225E-1,3.180659533E0,9.573683739E0
4.119747878E0,2.183450609E-1,3.195016384E0,9.318847656E0
4.139857566E0,2.662015259E-1,3.236292601E0,9.243474007E0
4.159967358E0,3.678964674E-1,3.263810158E0,9.164510727E0
4.180077097E0,4.283152521E-1,3.290131092E0,9.090332985E0
4.200186837E0,3.367897868E-1,3.380460262E0,8.942576408E0
4.220296576E0,3.272185028E-1,3.334398270E0,9.004191399E0
4.240406316E0,2.757728100E-1,3.181257725E0,9.388239861E0
4.260516056E0,1.704886109E-1,3.061018467E0,9.771689415E0
4.280625795E0,6.400800496E-2,3.043072224E0,9.847661972E0
4.300735535E0,-3.290131316E-2,3.091526747E0,9.745368004E0
4.320845274E0,-4.127619043E-2,3.146561861E0,9.406784058E0
4.340955014E0,1.333998591E-1,3.204587698E0,9.161520004E0
4.361064753E0,3.218346536E-1,3.281756163E0,9.013164520E0
4.381174493E0,2.494517565E-1,3.354737282E0,9.033503532E0
4.401284233E0,2.596212626E-1,3.393022537E0,9.062815666E0
4.421393972E0,3.134597540E-1,3.366103172E0,9.142376900E0
4.441503712E0,3.427718580E-1,3.343371391E0,9.383454323E0
4.461613451E0,3.188436031E-1,3.382254839E0,9.492327690E0
4.481723191E0,2.895315289E-1,3.404388428E0,9.437891006E0
4.501832931E0,2.512463629E-1,3.434298754E0,9.263813019E0
4.521942670E0,2.572284341E-1,3.458226919E0,9.140582085E0
4.542052410E0,2.327020019E-1,3.460619688E0,9.078369141E0
4.562162149E0,1.214357466E-1,3.495913982E0,8.899505615E0
4.582271941E0,9.571290575E-3,3.655634880E0,8.729615211E0
4.602381681E0,9.272187948E-2,3.793222189E0,8.692526817E0
4.622491420E0,3.834498227E-1,3.770490170E0,8.868398666E0
4.642601160E0,5.647061467E-1,3.701098442E0,8.997611046E0
4.662710899E0,4.546363056E-1,3.739383698E0,8.920442581E0
4.682820639E0,1.375873089E-1,3.818346739E0,8.687142372E0
4.702930378E0,-2.159522474E-1,3.966701746E0,8.492127419E0
4.723040118E0,-4.881358147E-1,4.244867325E0,8.534002304E0
4.743149858E0,-3.720839322E-1,4.356731892E0,8.654839516E0
4.763259597E0,9.272187948E-2,4.381258488E0,8.780462265E0
4.783369337E0,4.510470629E-1,4.478765965E0,8.884550095E0
4.803479076E0,5.473581553E-1,4.405186653E0,8.906085968E0
4.823588816E0,3.726821244E-1,4.269393921E0,9.075976372E0
4.843698556E0,2.991028316E-2,4.277170658E0,9.116654396E0
4.863808295E0,-2.847459018E-1,4.409373760E0,8.719446182E0
4.883918035E0,-2.548356056E-1,4.524827480E0,8.341978073E0
4.904027774E0,-7.118647546E-2,4.653441906E0,8.325227737E0
4.924137514E0,-1.573280841E-1,4.798805714E0,8.313861847E0
4.944247253E0,-3.487538993E-1,4.813760757E0,8.405985832E0
4.964356993E0,-5.306084156E-1,4.763511658E0,8.479565620E0
4.984466733E0,-5.940182209E-1,4.725824833E0,8.155936241E0
5.004576472E0,-4.815555513E-1,4.706083775E0,7.915457249E0
5.024686264E0,-1.908276081E-1,4.692325115E0,8.173283577E0
5.044796003E0,9.511470050E-2,4.709074974E0,8.345566750E0
5.064905743E0,1.872383654E-1,4.685744762E0,8.288737297E0
5.085015483E0,1.890329868E-1,4.712664127E0,8.298309326E0
5.105125222E0,2.105683982E-1,4.687539577E0,8.451449394E0
5.125234962E0,2.069791555E-1,4.564907551E0,8.663214684E0
5.145344701E0,2.817548811E-1,4.467998028E0,8.915657043E0
5.165454441E0,3.816552162E-1,4.463212490E0,8.994022369E0
5.185564181E0,2.733799815E-1,4.682155609E0,8.947959900E0
5.205673920E0,2.027917206E-1,4.869992256E0,9.280562401E0
5.225783660E0,2.021935135E-1,5.124229908E0,9.788438797E0
5.245893399E0,2.679961324E-1,5.653043270E0,1.051226807E1
5.266003139E0,1.926222295E-1,6.054439545E0,1.059721375E1
5.286112878E0,1.543370634E-1,6.210571289E0,9.898509026E0
5.306222618E0,1.812563092E-1,6.321837425E0,9.741779327E0
5.326332358E0,2.632105052E-1,6.149554253E0,1.046201897E1
5.346442097E0,4.450650215E-1,5.690132141E0,1.124746323E1
5.366551837E0,4.600201547E-1,5.239683151E0,1.193181038E1
5.386661576E0,-1.369891018E-1,5.105685234E0,1.183549881E1
5.406771316E0,-1.069591761E0,5.624927998E0,1.067856884E1
5.426881108E0,-1.165902853E0,5.292325497E0,1.045065308E1
5.446990795E0,-4.917250574E-1,3.812962770E0,1.232602787E1
5.467100587E0,-1.016949639E-1,2.891726255E0,1.331246853E1
5.487210326E0,-7.190431952E-1,3.276970625E0,1.160519028E1
5.507320066E0,-1.448255897E0,3.369094372E0,1.005703354E1
5.527429806E0,-1.100698471E0,2.385644197E0,1.131266689E1
5.547539545E0,3.158525825E-1,1.423729420E0,1.391545963E1
5.567649285E0,7.369893789E-1,1.264008522E0,1.448435402E1
5.587759024E0,-2.955136001E-1,1.877169371E0,1.174816132E1
5.607868764E0,-7.489534616E-1,2.413759947E0,8.294121742E0
5.627978503E0,-2.087737769E-1,2.583052158E0,6.033502102E0
5.648088243E0,2.321037948E-1,2.480758905E0,4.693521500E0
5.668197983E0,4.779663086E-1,1.992623091E0,4.442873478E0
5.688307722E0,3.439682424E-1,1.724028707E0,5.274379253E0
5.708417462E0,-8.255238086E-2,1.814357758E0,5.608178139E0
5.728527201E0,-2.566302419E-1,2.152942181E0,4.846064091E0
5.748636941E0,1.178465188E-1,2.544168711E0,3.756731510E0
5.768746681E0,6.819544435E-1,3.031108141E0,3.333800077E0
5.788856420E0,9.014959335E-1,3.321237803E0,4.348356724E0
5.808966160E0,4.935196638E-1,3.610769272E0,5.384449005E0
5.829075899E0,-3.230310604E-2,4.094717979E0,5.873781204E0
5.849185639E0,-2.087737769E-1,4.502095699E0,6.294918060E0
5.869295378E0,1.615155302E-2,4.695914268E0,7.669594765E0
5.889405170E0,4.917250574E-1,5.196014404E0,1.003131104E1
5.909514910E0,8.219345808E-1,5.980860233E0,1.152263737E1
5.929624649E0,4.325026870E-1,6.600601196E0,1.129292679E1
5.949734389E0,-3.595215976E-1,6.809374809E0,1.084487057E1
5.969844128E0,-3.882354796E-1,6.438487530E0,1.220100307E1
5.989953868E0,3.667000830E-1,5.760720730E0,1.342493153E1
6.010063608E0,1.666002750E0,4.745565414E0,1.390588856E1
6.030173347E0,1.624128342E0,4.582255363E0,1.375573921E1
6.050283087E0,2.883351147E-1,4.713262558E0,1.286680603E1
6.070392826E0,1.053440213E0,2.304886341E0,1.320239925E1
6.090502566E0,9.284151793E-1,1.067198873E0,1.425763416E1
6.110612306E0,-3.529413417E-2,1.805384636E0,1.358345604E1
6.130722045E0,1.120439172E0,1.298106313E0,1.223809147E1
6.150831785E0,2.816950560E0,6.652047038E-1,1.192403316E1
6.170941524E0,2.755335331E0,1.043270707E0,1.246899891E1
6.191051264E0,1.077368379E0,2.157129526E0,1.131505966E1
6.211161003E0,3.589233849E-3,2.667997360E0,9.091529846E0
6.231270743E0,1.740778536E-1,2.271386862E0,7.642675400E0
6.251380483E0,2.404786795E-1,2.063211441E0,6.824928284E0
6.271490222E0,8.015955985E-2,2.073979139E0,5.889933109E0
6.291599962E0,-1.782652885E-1,2.044068813E0,4.296911240E0
6.311709701E0,-4.289134443E-1,2.021935225E0,2.586641312E0
6.331819441E0,-5.928218365E-1,2.177468538E0,1.608574986E0
6.351929181E0,-9.888339639E-1,2.658426046E0,1.767697692E0
6.372038972E0,-1.408176184E0,3.192025423E0,2.979662418E0
6.392148712E0,-1.574477315E0,3.581457376E0,4.385445595E0
6.412258451E0,-1.397408366E0,4.216153622E0,6.216553211E0
6.432368191E0,-9.900303483E-1,5.217549801E0,7.889136314E0
6.452477931E0,-5.850451589E-1,5.974878311E0,9.117252350E0
6.472587670E0,-1.136590764E-1,5.799005508E0,9.964909554E0
6.492697410E0,1.136590727E-2,5.436492920E0,1.125045395E1
6.512807149E0,-4.677968323E-1,5.608178139E0,1.230568886E1
6.532916889E0,-1.386640668E0,5.786443233E0,1.283749390E1
6.553026628E0,-1.444666624E0,5.423332691E0,1.333340645E1
6.573136368E0,4.845465720E-1,4.791627407E0,1.379522038E1
6.593246108E0,2.131406784E0,4.275974274E0,1.393520069E1
6.613355847E0,1.182054400E0,4.534996986E0,1.262692547E1
6.633465587E0,-1.965105653E0,5.878567219E0,9.317052841E0
6.653575326E0,-3.830909014E0,5.958726406E0,7.734799385E0
6.673685066E0,-3.016751051E0,4.490729809E0,1.033280659E1
6.693794806E0,4.187439568E-3,2.551347256E0,1.422832203E1
6.713904545E0,2.660818815E0,7.016952634E-1,1.760280037E1
6.734014285E0,1.133001566E0,1.339980662E-1,1.611745453E1
6.754124024E0,-2.201995134E0,7.232306600E-1,1.107876873E1
6.774233764E0,-3.629313707E0,1.356730461E0,7.383652687E0
6.794343503E0,-3.044866800E0,2.026122570E0,5.668596745E0
6.814453243E0,-1.202991605E0,2.114058733E0,4.251447678E0
6.834562983E0,5.982056856E-1,1.335195065E0,3.353540897E0
6.854672722E0,2.376072884E0,9.104689956E-1,6.699305058E0
6.874782462E0,3.065205812E0,1.246660590E0,1.058046341E1
6.894892253E0,1.567897081E0,1.698904037E0,1.019222832E1
6.915001993E0,-1.770688742E-1,1.758724689E0,6.860222340E0
6.935111733E0,-5.994020700E-1,2.090130568E0,4.479363918E0
6.955221472E0,-2.943171859E-1,3.032902718E0,4.135993958E0
6.975331212E0,8.009973764E-1,3.788436413E0,5.245665550E0
6.995440951E0,1.216152072E0,4.370490551E0,6.435496330E0
7.015550691E0,5.700899959E-1,4.670191765E0,7.262216568E0
7.035660431E0,-5.198407173E-1,4.806582451E0,8.609973907E0
7.055770170E0,-7.160521746E-1,5.169095039E0,9.841081619E0
7.075879910E0,5.862415582E-2,5.898906231E0,1.005643559E1
7.095989649E0,5.138586760E-1,6.720840454E0,9.620942116E0
7.116099389E0,2.667997181E-1,6.943971157E0,1.009053326E1
7.136209128E0,3.170489967E-1,6.020939827E0,1.173440266E1
7.156318868E0,9.601200819E-1,4.399204254E0,1.382513142E1
7.176428608E0,1.092921734E0,4.275375843E0,1.501077461E1
7.196538347E0,1.314257860E0,4.765306473E0,1.297867012E1
7.216648087E0,3.242872953E0,3.019742250E0,1.226261806E1
7.236757826E0,3.411566973E0,2.000998020E0,1.341715431E1
7.256867566E0,1.645065546E0,2.575873613E0,1.259222889E1
7.276977306E0,8.321040869E-1,2.700898647E0,1.100758266E1
7.297087045E0,2.381456852E0,1.936391711E0,1.004387283E1
7.317196785E0,3.975076675E0,1.622333765E0,1.046620655E1
7.337306524E0,3.522833109E0,1.813759565E0,1.103390312E1
7.357416264E0,1.193420291E0,2.079362869E0,1.027178955E1
7.377526003E0,-2.075773627E-1,1.948355794E0,8.824131966E0
7.397635743E0,-5.168496966E-1,1.783849239E0,7.461419106E0
7.417745483E0,-1.728814393E-1,1.693520188E0,6.598806858E0
7.437855222E0,2.961117923E-1,1.806581140E0,6.848856449E0
7.457964962E0,3.098705411E-1,1.951945066E0,6.640082836E0
7.478074701E0,6.221338734E-2,2.030309916E0,5.487340450E0
7.498184441E0,-2.195414752E-1,2.166102648E0,5.079364300E0
7.518294181E0,-3.559323549E-1,2.623729944E0,5.999404430E0
7.538403920E0,-1.680957973E-1,3.138186932E0,6.737590313E0
7.558513660E0,1.250249892E-1,3.490530014E0,6.395416737E0
7.578623399E0,1.148554832E-1,3.795614958E0,5.775077343E0
7.598733139E0,-2.422732860E-1,4.259822369E0,5.886941910E0
7.618842878E0,-5.515456200E-1,4.704887390E0,6.607779503E0
7.638952618E0,-7.890332937E-1,5.090131760E0,7.287939548E0
7.659062358E0,-1.179661512E0,5.502893925E0,7.677371502E0
7.679172097E0,-1.680957913E0,5.847460270E0,8.199604988E0
7.699281837E0,-1.913061738E0,6.232704639E0,9.056833267E0
7.719391576E0,-1.170090318E0,6.304489613E0,9.785448074E0
7.739501316E0,1.049850941E0,5.783452511E0,1.044287586E1
7.759611056E0,1.707877159E0,5.501697540E0,1.235354519E1
7.779720795E0,-8.237292171E-1,5.955735683E0,1.400220013E1
7.799830535E0,-3.333800077E0,5.950950146E0,1.416491222E1
7.819940274E0,-2.242074728E0,3.815953970E0,1.516271877E1
7.840050014E0,2.937189937E-1,2.466402054E0,1.665105438E1
7.860159753E0,6.598208547E-1,3.388236761E0,1.585723591E1
7.880269493E0,-4.701896608E-1,3.147758245E0,1.434975719E1
7.900379233E0,-1.333998591E-1,1.667797327E0,1.397827148E1
7.920488972E0,8.039883971E-1,1.326221943E0,1.331904888E1
7.940598712E0,1.094118118E0,1.431506157E0,1.137189007E1
7.960708451E0,5.970092416E-1,1.348953724E0,9.172286987E0
7.980818191E0,-1.561316848E-1,1.180858016E0,7.073183537E0
8.000927931E0,-7.914260626E-1,1.229910851E0,5.170291424E0
8.021037670E0,-7.663014531E-1,1.329811215E0,3.857230186E0
8.041147410E0,-2.650051117E-1,1.652842283E0,3.336791277E0
8.061257149E0,1.304088384E-1,2.215155602E0,3.648456335E0
8.081366889E0,5.623133108E-2,2.648854733E0,4.066003799E0
8.101476628E0,-5.060819983E-1,2.972483873E0,4.268197536E0
8.121586368E0,-9.864411354E-1,3.294916868E0,4.540979385E0
8.141696108E0,-1.058225870E0,3.521038532E0,5.143372059E0
8.161805847E0,-8.171489239E-1,3.678964853E0,6.049654007E0
8.181915587E0,-3.499503136E-1,4.011567116E0,7.283154011E0
8.202025326E0,-1.770688742E-1,4.777868748E0,7.941180229E0
8.222135066E0,-7.818548083E-1,5.875576019E0,7.731808186E0
8.242244806E0,-8.751748800E-1,6.406184196E0,7.603193760E0
8.262354545E0,1.196411345E-2,6.224329948E0,8.714061737E0
8.282464285E0,5.790630579E-1,6.471388817E0,1.091186905E1
8.302574024E0,1.163509965E0,6.611369133E0,1.276630688E1
8.322683764E0,1.630708575E0,6.009573936E0,1.322991657E1
8.342793503E0,1.563709617E0,4.911268711E0,1.290030479E1
8.362903243E0,1.129412293E0,4.107878208E0,1.309591866E1
8.383012983E0,2.823530734E-1,4.489533424E0,1.243430328E1
8.403122722E0,9.750752449E-1,3.643072367E0,1.096211910E1
8.423232462E0,2.247458696E0,2.394019127E0,1.084845924E1
8.443342201E0,2.572882652E0,2.794218540E0,1.010967541E1
8.463451941E0,2.841476917E0,2.985046148E0,8.861818314E0
8.483561681E0,3.567698479E0,1.424327731E0,9.547960281E0
8.503671420E0,3.939184189E0,2.153540403E-2,1.257368469E1
8.523781160E0,2.230708838E0,7.537391037E-2,1.389392471E1
8.543890899E0,-3.008974493E-1,6.245267391E-1,1.147119141E1
8.564000639E0,-1.613958836E0,9.349954724E-1,8.803792953E0
8.584110378E0,-1.561316729E0,1.076770186E0,7.155138016E0
8.604220118E0,-9.732806087E-1,1.343569875E0,6.166902065E0
8.624329858E0,-3.314059377E-1,1.534397483E0,5.574678421E0
8.644439597E0,6.580262445E-3,1.724028707E0,5.158327579E0
8.664549337E0,-1.543370634E-1,1.964507341E0,4.710869789E0
8.684659076E0,-6.891329288E-1,2.200798512E0,4.246662140E0
8.704768816E0,-1.294517040E0,2.535793781E0,4.588835716E0
8.724878556E0,-1.794018745E0,3.026920557E0,5.748157978E0
8.744988295E0,-1.874178290E0,3.613162279E0,7.040880680E0
8.765098035E0,-1.696511269E0,4.795814991E0,7.858029366E0
8.785207774E0,-1.748555183E0,6.177670002E0,8.002795219E0
8.805317514E0,-1.265803218E0,6.303891182E0,9.167501450E0
8.825427253E0,-4.360919297E-1,5.325825214E0,1.240558910E1
8.845536993E0,-2.027917206E-1,4.627718925E0,1.552044582E1
8.865646733E0,-7.824530005E-1,4.776672363E0,1.630230141E1
8.885756472E0,-1.314257860E0,5.147559643E0,1.421994686E1
8.905866212E0,-4.761717021E-1,4.834099770E0,1.275015545E1
8.925975951E0,5.964110494E-1,3.873381615E0,1.412243938E1
8.946085691E0,-4.845465720E-1,3.510869026E0,1.503589916E1
8.966195431E0,-1.883749604E0,3.230310678E0,1.390708542E1
8.986305170E0,-1.459621787E0,1.760519266E0,1.424985695E1
9.006414858E0,-2.045863420E-1,1.534397483E0,1.498923969E1
9.026524649E0,5.503492355E-1,2.763710260E0,1.296491146E1
9.046634337E0,2.685345173E0,2.085345030E0,1.057089233E1
9.066744076E0,4.427918434E0,7.938188910E-1,1.061216831E1
9.086853816E0,3.126821041E0,6.969096065E-1,1.197667599E1
9.106963556E0,-1.920240223E-1,6.532405615E-1,1.124028397E1
9.127073295E0,-2.149353027E0,4.450650215E-1,9.000003815E0
9.147183035E0,-2.751147747E0,6.652047038E-1,6.868597507E0
9.167292774E0,-2.120639086E0,9.122636318E-1,5.368896008E0
9.187402514E0,-1.121037364E0,1.207179070E0,4.912465096E0
9.207512253E0,-4.456632137E-1,1.405783296E0,5.052444935E0
9.227621993E0,-2.063809484E-1,1.581655741E0,4.984847546E0
9.247731733E0,-2.745763958E-1,1.908874273E0,4.772484779E0
9.267841472E0,-3.720839322E-1,2.287538528E0,5.073382378E0
9.287951212E0,-7.531409264E-1,2.967100143E0,5.708676815E0
9.308060951E0,-1.401595831E0,3.960719585E0,6.089135647E0
9.328170691E0,-1.556531072E0,4.511068821E0,6.138786316E0
9.348280431E0,-1.082154036E0,4.642076015E0,6.506084919E0
9.368390170E0,-6.496513486E-1,4.609174728E0,7.083951473E0
9.388499910E0,-6.137589812E-1,4.721637249E0,8.188837051E0
9.408609649E0,-1.247258782E0,4.747360229E0,9.978070259E0
9.428719389E0,-2.099103689E0,4.855037212E0,1.108235836E1
9.448829128E0,-2.059023857E0,4.935794830E0,1.061994553E1
9.468938868E0,-1.102493048E0,4.775475979E0,9.714262009E0
9.489048556E0,3.427718580E-1,3.915854216E0,1.089691448E1
9.509158295E0,1.368694544E0,2.734996319E0,1.405005646E1
9.529268035E0,1.734796464E-1,2.659024239E0,1.589432430E1
9.549377774E0,-1.345364571E0,3.486342669E0,1.460160160E1
9.569487514E0,7.992027402E-1,2.857030153E0,1.179183006E1
9.589597253E0,3.178266764E0,2.514856577E0,1.001994514E1
9.609706993E0,3.718446493E0,3.227319479E0,9.122636795E0
9.629816733E0,3.443870068E0,2.866003275E0,1.026999474E1
9.649926472E0,3.180659533E0,1.411167145E0,1.347159195E1
9.670036212E0,2.216950178E0,1.086341500E0,1.416909885E1
9.690145951E0,7.178468108E-1,1.890329838E0,1.121276665E1
9.710255691E0,2.596212626E-1,2.484348059E0,7.675576687E0
9.730365431E0,8.105686903E-1,2.626721144E0,5.264808178E0
9.750475170E0,1.169492126E0,2.504088879E0,4.147958279E0
9.770584910E0,7.088736892E-1,2.364108801E0,4.566701889E0
9.790694649E0,-6.879365444E-2,2.431107759E0,6.159723759E0
9.810804389E0,-5.168496966E-1,2.644068956E0,6.396014690E0
9.830914128E0,-7.812566161E-1,2.950350285E0,5.048257351E0
9.851023816E0,-3.750749528E-1,3.183650494E0,4.328616142E0
9.871133556E0,1.704886109E-1,3.367299557E0,5.210969448E0
9.891243295E0,4.067798555E-1,3.509672642E0,6.825526714E0
9.911353035E0,1.262213886E-1,3.789632797E0,7.876574039E0
9.931462774E0,-6.771687865E-1,4.100101471E0,8.006982803E0
9.951572514E0,-1.293918848E0,4.374079704E0,8.132605553E0
9.971682253E0,-1.107278705E0,4.733003139E0,8.422137260E0
9.991791993E0,-3.577269912E-1,5.054837704E0,8.767900467E0
1.001190173E1,2.566302419E-1,5.035695076E0,9.737591743E0
1.003201147E1,2.763710022E-1,4.789234638E0,1.113200951E1
1.005212121E1,-3.290131092E-1,4.526023865E0,1.274237919E1
1.007223095E1,-8.201399446E-1,4.007977962E0,1.413440323E1
1.009234069E1,-9.607182741E-1,3.689134359E0,1.452263927E1
1.011245038E1,-1.551147223E0,4.377668858E0,1.261376476E1
1.013256012E1,-1.810768485E0,4.633102894E0,1.079222870E1
1.015266986E1,-9.577272534E-1,3.580260992E0,1.135095215E1
1.017277960E1,-2.817548811E-1,2.230708838E0,1.355593872E1
1.019288934E1,-9.032905847E-2,8.745766878E-1,1.497787380E1
1.021299908E1,-3.619144261E-1,-3.230310678E-1,1.450588894E1
1.023310882E1,-1.274776220E0,-3.936193287E-1,1.210947704E1
1.025321856E1,-1.834696770E0,7.357929349E-1,8.695517540E0
1.027332830E1,-1.170688510E0,1.515254974E0,5.557928562E0
1.029343804E1,1.474576950E0,1.053440213E0,5.912664890E0
1.031354777E1,3.909274101E0,8.153542876E-1,9.784850121E0
1.033365751E1,3.448057413E0,1.269392371E0,1.197966671E1
1.035376725E1,9.876375198E-1,1.718046665E0,1.075155067E1
1.037387694E1,-2.374876440E-1,1.680957913E0,8.472985268E0
1.039398668E1,-4.552344978E-1,1.931606054E0,6.352345943E0
1.041409642E1,-1.902294010E-1,2.416152716E0,4.649852753E0
1.043420616E1,6.520441771E-1,2.796013355E0,4.472185612E0
1.045431590E1,1.178465128E0,3.186641455E0,5.446064472E0
1.047442564E1,8.410771489E-1,3.360719442E0,6.655037880E0
1.049453538E1,1.262213886E-1,3.403192043E0,8.063812256E0
1.051464512E1,-3.218346536E-1,3.636492252E0,8.962915421E0
1.053475486E1,-2.327020019E-1,3.941577196E0,9.044271469E0
1.055486455E1,1.830509305E-1,4.109673023E0,8.851051331E0
1.057497429E1,4.169493318E-1,4.092923164E0,8.568099976E0
1.059508402E1,7.088736892E-1,3.355933666E0,9.471389771E0
1.061519376E1,3.505485058E-1,2.967698336E0,1.272682571E1
1.063530350E1,1.639083475E-1,3.025125980E0,1.618684769E1
1.065541324E1,1.154536963E0,2.295315027E0,1.733959007E1
1.067552298E1,1.608574986E0,1.902892232E0,1.517827225E1
1.069563272E1,6.388836503E-1,3.570091486E0,1.124148083E1
1.071574246E1,2.065006018E0,3.672384501E0,8.552546501E0
1.073585220E1,3.769293785E0,2.673381090E0,9.538987160E0
1.075596189E1,3.653840065E0,1.983649969E0,1.245464230E1
1.077607163E1,1.920240164E0,9.134600163E-1,1.423669624E1
1.079618137E1,-1.363908947E-1,-5.383851007E-3,1.381316662E1
1.081629111E1,-1.371087432E0,1.758724600E-1,1.192223835E1
1.083640085E1,-1.118046403E0,1.090528965E0,9.244669914E0
1.085651059E1,2.931207791E-2,1.963909149E0,7.295716286E0
1.087662033E1,9.678967595E-1,2.120040894E0,7.138986588E0
1.089673001E1,8.249256015E-1,1.990828395E0,8.112266541E0
1.091683975E1,-5.563312769E-2,1.844268084E0,8.397012711E0
1.093694949E1,-8.225327730E-1,1.697707653E0,7.581060410E0
1.095705923E1,-1.178465128E0,1.674975872E0,6.470192432E0
1.097716897E1,-1.081555843E0,1.807179332E0,5.697908878E0
1.099727871E1,-9.218349457E-1,2.147558212E0,5.374877930E0
1.101738845E1,-9.236295223E-1,2.580060959E0,5.505286694E0
1.103749819E1,-9.732806087E-1,2.900699139E0,6.079564095E0
1.105760793E1,-9.810572863E-1,3.101098061E0,6.782455921E0
1.107771767E1,-1.009771109E0,3.513859987E0,7.940581799E0
1.109782736E1,-7.465606928E-1,3.884747505E0,8.558527946E0
1.111793710E1,-3.870390654E-1,4.226921082E0,8.682954788E0
1.113804684E1,-2.231307179E-1,4.492524624E0,9.145368576E0
1.115815658E1,7.298108935E-2,4.973481655E0,9.153742790E0
1.117826632E1,3.451646566E-1,5.566901684E0,9.032307625E0
1.119837606E1,7.100701332E-1,5.866004944E0,8.896514893E0
1.121848580E1,7.896314859E-1,5.874977589E0,9.415159225E0
1.123859548E1,4.007977992E-2,6.063412666E0,1.022213840E1
1.125870522E1,-1.566102386E0,6.548557281E0,1.068275642E1
1.127881496E1,-1.215553880E0,4.591826439E0,1.311745358E1
1.129892470E1,1.513460279E-1,2.857030153E0,1.653679657E1
1.131903444E1,2.285145670E-1,2.913261652E0,1.720738602E1
1.133914418E1,-4.354937077E-1,2.758326292E0,1.477149200E1
1.135925392E1,-1.256231815E-1,1.688136339E0,1.343270779E1
1.137936361E1,7.525427341E-1,8.195417523E-1,1.275494099E1
1.139947335E1,6.263213158E-1,9.146564603E-1,1.170090294E1
1.141958309E1,2.291127741E-1,1.442872047E0,9.649655342E0
1.143969283E1,1.471585929E-1,1.792822361E0,7.246663570E0
1.145980257E1,3.487538993E-1,2.014158487E0,5.434698582E0
1.147991231E1,4.713860750E-1,2.177468538E0,4.649852753E0
1.150002205E1,4.887340367E-1,2.176870346E0,4.865206718E0
1.152013173E1,1.812563092E-1,2.231307030E0,5.858826160E0
1.154024147E1,-3.176472187E-1,2.421536446E0,6.601797581E0
1.156035121E1,-8.620143533E-1,2.796013355E0,6.483353138E0
1.158046095E1,-1.159920812E0,3.144168854E0,6.104688644E0
1.160057069E1,-1.112064362E0,3.384647608E0,6.253642082E0
1.162068043E1,-8.195417523E-1,3.594019651E0,6.773482800E0
1.164079017E1,-3.349951804E-1,3.853640795E0,7.145566463E0
1.166089986E1,-1.692921966E-1,4.130012035E0,7.441678524E0
1.168100960E1,-4.731806815E-1,4.478765965E0,7.590631485E0
1.170111934E1,-9.182456732E-1,4.720440865E0,8.083553314E0
1.172122908E1,-1.222134113E0,4.817350388E0,8.751151085E0
1.174133882E1,-1.266999602E0,5.195415974E0,9.268000603E0
1.176144856E1,-9.044869542E-1,5.637490273E0,9.646664619E0
1.178155824E1,1.136590727E-2,5.475974560E0,1.036690426E1
1.180166798E1,1.177866936E0,4.584648132E0,1.153280735E1
1.182177772E1,1.964507341E0,3.690330744E0,1.284945774E1
1.184188746E1,1.737189293E0,3.228515863E0,1.351526070E1
1.186199720E1,5.856433511E-1,3.854238987E0,1.202453232E1
1.188210694E1,5.611169338E-1,4.013361931E0,1.006241703E1
1.190221668E1,1.542174220E0,3.732205153E0,9.583254814E0
1.192232637E1,2.246860504E0,3.775275946E0,9.751350403E0
1.194243611E1,2.265404940E0,3.562314749E0,1.033579731E1
1.196254585E1,2.020738840E0,2.091925144E0,1.267418289E1
1.198265559E1,2.682354212E0,7.561319470E-1,1.570768452E1
1.200276533E1,2.653640270E0,1.027717352E0,1.588714600E1
1.202287507E1,1.568495274E0,2.002194405E0,1.165244770E1
1.204298475E1,1.113260746E0,2.418545485E0,7.759325504E0
1.206309449E1,1.276570916E0,2.329412937E0,5.868397713E0
1.208320423E1,1.486541033E0,2.079961061E0,6.645466805E0
1.210331397E1,1.226321578E0,2.253440619E0,8.665607452E0
1.212342371E1,3.343969584E-1,2.468196630E0,8.085348129E0
1.214353345E1,-1.399801224E-1,2.552543640E0,5.924030781E0
1.216364314E1,-4.307080805E-1,2.584846735E0,4.263411522E0
1.218375288E1,-5.024927258E-1,2.801397085E0,4.046263218E0
1.220386262E1,-4.492524564E-1,3.104687452E0,5.326423168E0
1.222397236E1,-5.916253924E-1,3.243471146E0,6.449255466E0
1.224408210E1,-8.554341197E-1,3.442673683E0,7.136593342E0
1.226419179E1,-1.153340459E0,3.810570002E0,8.006384850E0
1.228430152E1,-1.596012712E0,4.297509670E0,8.837890625E0
1.230441126E1,-1.688136339E0,4.970490932E0,8.840283394E0
1.232452100E1,-1.180858016E0,5.785845280E0,8.392825127E0
1.234463074E1,-4.785645381E-2,6.109474182E0,8.491529465E0
1.236474048E1,1.316052437E0,5.950950146E0,9.400801659E0
1.238485017E1,1.166501045E0,6.008377552E0,1.034716320E1
1.240495991E1,-8.715856671E-1,5.923432350E0,1.113500023E1
1.242506965E1,-1.498505235E0,4.971088886E0,1.310429287E1
1.244517939E1,-3.858426511E-1,3.865006685E0,1.611924934E1
1.246528913E1,1.150349498E0,3.009572744E0,1.789831352E1
1.248539882E1,1.207777262E0,2.983251572E0,1.596192169E1
1.250550856E1,1.208375469E-1,2.732603550E0,1.307916832E1
1.252561830E1,-1.166501045E0,2.125424623E0,1.243310642E1
1.254572804E1,-2.184048891E0,1.387238979E0,1.331067371E1
1.256583777E1,-1.993819475E0,5.928218365E-1,1.436172104E1
1.258594746E1,-8.428717852E-1,2.069791555E-1,1.392981720E1
1.260605720E1,1.070788130E-1,5.090730190E-1,1.109013462E1
1.262616694E1,6.406782866E-1,1.207777262E0,7.969893932E0
1.264627668E1,9.236295223E-1,1.577468276E0,5.571687698E0
1.266638642E1,7.220342159E-1,1.673181176E0,3.529413462E0
1.268649616E1,2.374876440E-1,1.683948994E0,2.318047047E0
1.270660585E1,1.022931710E-1,1.811964989E0,3.154936552E0
1.272671559E1,1.962114573E-1,2.137987137E0,4.983053207E0
1.274682533E1,2.075773627E-1,2.442473650E0,5.638088226E0
1.276693507E1,2.937189937E-1,2.642872572E0,5.651846886E0
1.278704481E1,3.284149170E-1,3.130410194E0,5.706882000E0
1.280715449E1,8.973085321E-3,4.037888050E0,5.837290764E0
1.282726423E1,-5.413761139E-1,4.905884743E0,5.787639618E0
1.284737397E1,-7.770691514E-1,5.306084156E0,6.002993584E0
1.286748371E1,-3.122633696E-1,5.468796253E0,6.539584160E0
1.288759345E1,3.062812984E-1,5.746363640E0,7.680362701E0
1.290770314E1,5.641079545E-1,6.068198204E0,8.928817749E0
1.292781288E1,-7.178468257E-2,6.364310265E0,9.366106033E0
1.294792262E1,3.134597540E-1,5.864210129E0,9.205188751E0
1.296803236E1,2.417947292E0,4.975276470E0,9.739984512E0
1.298814210E1,3.777668715E0,4.380660057E0,1.111825085E1
1.300825178E1,1.994417667E0,5.187639713E0,1.200838089E1
1.302836152E1,5.102694035E-1,5.192425251E0,1.076949692E1
1.304847126E1,2.273181438E0,2.691925526E0,1.171525955E1
1.306858100E1,3.541377544E0,1.370489120E0,1.448255920E1
1.308869069E1,2.102692842E0,2.263610125E0,1.594756508E1
1.310880043E1,8.997012973E-1,2.481357098E0,1.545763397E1
1.312891017E1,1.430309772E0,1.862812400E0,1.414576912E1
1.314901991E1,2.573480844E0,1.970489502E0,1.249651623E1
1.316912965E1,2.306680918E0,2.316850424E0,1.162134171E1
1.318923934E1,1.011565804E0,2.251047850E0,1.100638580E1
1.320934908E1,-6.041877344E-2,2.011167526E0,9.734002113E0
1.322945882E1,-6.005984545E-1,1.751546144E0,7.961519241E0
1.324956856E1,-8.781659007E-1,1.726421595E0,6.222535133E0
1.326967824E1,-9.810572863E-1,1.876571178E0,4.802394867E0
1.328978798E1,-8.829515576E-1,1.954936147E0,3.663411379E0
1.330989772E1,-8.799605370E-1,2.090130568E0,3.597010612E0
1.333000746E1,-6.490531564E-1,2.330011129E0,4.861617565E0
1.335011720E1,-5.712863803E-1,2.750549555E0,5.886941910E0
1.337022689E1,-6.364908218E-1,3.254837036E0,6.655636311E0
1.339033663E1,-3.487538993E-1,3.851846218E0,7.484749317E0
1.341044637E1,-1.615155339E-1,4.506283283E0,8.111070633E0
1.343055611E1,3.607180119E-1,4.816751957E0,8.423932076E0
1.345066585E1,1.012163997E0,4.947759151E0,8.801998138E0
1.347077554E1,1.123430252E0,5.313860893E0,9.261420250E0
1.349088527E1,4.462614357E-1,5.772684574E0,9.222537041E0
1.351099501E1,-2.691925466E-1,5.952744484E0,9.154939651E0
1.353110475E1,-7.058826834E-2,5.866602898E0,9.552147865E0
1.355121444E1,5.599204898E-1,5.749354839E0,1.029691410E1
1.357132418E1,9.044869542E-1,5.882156372E0,1.146520996E1
1.359143392E1,5.162515044E-1,6.489335060E0,1.196531010E1
1.361154366E1,-6.209374666E-1,6.444469452E0,1.170688438E1
1.363165335E1,-3.343969584E-1,4.394418716E0,1.290269756E1
1.365176309E1,1.244267747E-1,3.262015581E0,1.378086376E1
1.367187283E1,-4.552344978E-1,3.672384501E0,1.227338600E1
1.369198257E1,-8.063812256E-1,2.947957516E0,1.090828037E1
1.371209231E1,-3.822534084E-1,1.916052699E0,1.127438164E1
1.373220199E1,8.195417374E-2,1.890329838E0,1.179661560E1
1.375231173E1,4.773681164E-1,1.970489502E0,1.139761257E1
1.377242147E1,7.872386575E-1,1.664806366E0,1.075035381E1
1.379253121E1,8.979067206E-1,1.149153113E0,1.016590691E1
1.381264090E1,3.966103494E-1,9.894321561E-1,9.132805824E0
1.383275064E1,-2.410768867E-1,1.109671474E0,7.578069210E0
1.385286038E1,-7.423732281E-1,1.250848055E0,5.798407555E0
1.387297012E1,-1.075573802E0,1.445264935E0,4.584050179E0
1.389307981E1,-1.222732425E0,1.762912035E0,4.178466320E0
1.391318955E1,-1.215553880E0,2.119442701E0,4.883152962E0
1.393329928E1,-1.046859860E0,2.501696110E0,6.119643688E0
1.395340902E1,-9.050851464E-1,2.980260611E0,6.654439926E0
1.397351871E1,-5.126622319E-1,3.458226919E0,7.222734928E0
1.399362845E1,-2.452643216E-1,3.946960926E0,7.640282631E0
1.401373819E1,-1.842473447E-1,4.195216179E0,7.674978733E0
1.403384793E1,-3.278166950E-1,4.200001717E0,7.980661869E0
1.405395762E1,-5.132604837E-1,4.308875561E0,8.605188370E0
1.407406736E1,-5.425725579E-1,4.549354076E0,9.135796547E0
1.409417710E1,-7.752745152E-1,4.887938499E0,9.360722542E0
1.411428684E1,-7.764709592E-1,5.093122959E0,9.505488396E0
1.413439652E1,-1.920240223E-1,4.801796913E0,1.011147022E1
1.415450626E1,1.048056364E0,4.030111313E0,1.139402294E1
1.417461600E1,2.000399828E0,3.468396425E0,1.313061428E1
1.419472574E1,1.263410330E0,4.314259052E0,1.344467258E1
1.421483543E1,1.269392371E0,4.067200184E0,1.220100307E1
1.423494517E1,2.341975212E0,2.667997360E0,1.223390388E1
1.425505491E1,2.383849621E0,2.659622431E0,1.289312649E1
1.427516465E1,1.618146300E0,2.541775942E0,1.326162148E1
1.429527434E1,1.463211060E0,1.387238979E0,1.370429325E1
1.431538408E1,2.044667006E0,1.004387259E0,1.436471272E1
1.433549382E1,2.483151674E0,1.427916884E0,1.407577896E1
1.435560356E1,2.219342947E0,2.038086653E0,1.203769207E1
1.437571324E1,1.849651933E0,2.228316069E0,1.003489971E1
1.439582298E1,1.551745534E0,2.126621008E0,8.779266357E0
1.441593272E1,9.074779749E-1,2.043470621E0,7.764709473E0
1.443604246E1,2.093719840E-1,1.874178290E0,6.463014126E0
1.445615215E1,-3.990031779E-1,1.839482427E0,5.696114540E0
1.447626189E1,-5.611169338E-1,2.008176327E0,5.599802971E0
1.449637163E1,-7.214360237E-1,2.240280151E0,5.304887772E0
1.451648132E1,-7.483552694E-1,2.298904419E0,4.974678040E0
1.453659106E1,-4.809573591E-1,2.427518606E0,5.453242779E0
1.455670080E1,4.785645287E-3,2.697309256E0,6.631708145E0
1.457681054E1,1.519442350E-1,3.043670416E0,7.237690449E0
1.459692022E1,2.632105052E-1,3.406781197E0,7.441080093E0
1.461702996E1,-3.828516230E-2,4.027120590E0,7.251449108E0
1.463713970E1,-3.876372576E-1,4.350749969E0,7.480561733E0
1.465724944E1,-4.731806815E-1,4.441078663E0,8.624929428E0
1.467735913E1,-5.503492355E-1,4.786243439E0,9.659825325E0
1.469746887E1,-5.168496966E-1,5.098506927E0,1.024606609E1
1.471757861E1,-2.033899277E-1,5.103890896E0,1.074556828E1
1.473768830E1,1.483550072E-1,4.881956577E0,1.117986584E1
1.475779804E1,2.333002090E-1,4.427320004E0,1.189890862E1
1.477790777E1,-4.109672904E-1,4.367499352E0,1.228654575E1
1.479801751E1,-1.498505235E0,4.772484779E0,1.144427204E1
1.481812720E1,-1.036690354E0,3.454039574E0,1.247677517E1
1.483823694E1,2.877369225E-1,2.288136721E0,1.441735458E1
1.485834668E1,-2.793620527E-1,3.353540897E0,1.339681530E1
1.487845637E1,-1.533799291E0,4.246063709E0,1.091127110E1
1.489856611E1,-1.703689694E0,3.202793121E0,1.068574810E1
1.491867585E1,4.211367965E-1,1.731207132E0,1.311745358E1
1.493878559E1,2.117049932E0,1.197009563E0,1.504307747E1
1.495889527E1,7.471588850E-1,1.234098315E0,1.387538052E1
1.497900501E1,-1.144965649E0,1.177866936E0,1.094536877E1
1.499911475E1,-1.634297848E0,1.053440213E0,8.523234367E0
1.501922444E1,-1.094716311E0,1.200598717E0,6.852446079E0
1.503933418E1,2.691925503E-2,1.412961721E0,6.150152206E0
1.505944392E1,8.943174481E-1,1.748555183E0,6.392425537E0
1.507955366E1,1.037288666E0,2.067398787E0,6.067600250E0
1.509966335E1,5.060819983E-1,2.330609322E0,5.065007210E0
1.511977309E1,1.698904037E-1,2.594418049E0,4.567898273E0
1.513988283E1,1.686939895E-1,2.953939438E0,5.166702271E0
1.515999251E1,5.359922647E-1,3.126821041E0,6.238687038E0
1.518010225E1,7.627122402E-1,3.528217077E0,6.425925255E0
1.520021199E1,5.198407173E-1,4.207778454E0,6.026323795E0
1.522032173E1,1.016949639E-1,4.660620213E0,6.208776474E0
1.524043142E1,-1.543370634E-1,4.829314232E0,7.243073940E0
1.526054116E1,-1.609173268E-1,5.079364300E0,8.758329391E0
1.528065090E1,2.039881349E-1,5.444269657E0,9.982855797E0
1.530076059E1,8.207381964E-1,5.407180786E0,1.019162941E1
1.532087033E1,9.134600163E-1,4.925625324E0,9.542576790E0
1.534098007E1,6.329016089E-1,5.053641319E0,9.235098839E0
1.536108975E1,9.978070259E-1,5.478965759E0,9.772287369E0
1.538119949E1,1.846062660E0,5.160121918E0,1.036989498E1
1.540130923E1,1.879562140E0,4.709673405E0,1.130788136E1
1.542141892E1,7.016952634E-1,5.223531723E0,1.198445225E1
1.544152866E1,1.292722464E0,4.534996986E0,1.208554935E1
1.546163840E1,2.946162939E0,2.745764017E0,1.284287739E1
1.548174814E1,3.400201082E0,2.279163599E0,1.252223873E1
1.550185783E1,2.409572363E0,2.491526604E0,1.117926693E1
1.552196757E1,1.439282775E0,1.852642894E0,1.115115166E1
1.554207731E1,1.333998680E0,1.299900889E0,1.198923779E1
1.556218699E1,1.914258122E0,1.454836130E0,1.244507027E1
1.558229673E1,1.836491346E0,2.073979139E0,1.190728378E1
1.560240647E1,1.074975610E0,2.514258385E0,1.021735287E1
1.562251616E1,4.456632137E-1,2.648854733E0,8.790034294E0
1.564262590E1,3.589233849E-3,2.749951363E0,7.570890903E0
1.566273564E1,-5.653043389E-1,2.877369165E0,6.271588326E0
1.568284538E1,-1.038485050E0,2.916850805E0,5.076971531E0
1.570295507E1,-1.192223907E0,3.008376360E0,4.692325115E0
1.572306481E1,-1.061216831E0,3.171686411E0,5.072185993E0
1.574317454E1,-6.849454641E-1,3.224328518E0,5.991627693E0
1.576328423E1,-4.097708762E-1,3.268595695E0,6.595815659E0
1.578339397E1,-6.305087805E-1,3.424727440E0,7.025327206E0
1.580350371E1,-8.141579032E-1,3.504288673E0,7.701898098E0
1.582361340E1,-9.505487680E-1,3.675973892E0,8.263014793E0
1.584372314E1,-8.745766878E-1,3.985246181E0,8.288139343E0
1.586383288E1,-6.658028960E-1,4.408177376E0,8.120043755E0
1.588394257E1,-4.450650215E-1,4.899902344E0,7.963912010E0
1.590405231E1,-4.540380836E-1,5.449055195E0,8.135597229E0
1.592416205E1,-5.617151260E-1,5.885147095E0,8.831310272E0
1.594427173E1,-4.516452849E-1,5.960521221E0,9.957133293E0
1.596438147E1,1.543370634E-1,5.619544029E0,1.119003487E1
1.598449121E1,9.026923180E-1,5.251049519E0,1.195035458E1
1.600460090E1,1.248455167E0,4.945366383E0,1.215015507E1
1.602471064E1,7.926225066E-1,4.500899315E0,1.199880886E1
1.604482038E1,-6.777670383E-1,5.064409256E0,1.075992489E1
1.606493007E1,-2.857628345E0,7.301698208E0,8.865407944E0
1.608503981E1,-2.280359983E0,6.339783669E0,8.685347557E0
1.610514954E1,9.571290761E-2,3.867399693E0,1.199761295E1
1.612525923E1,7.082754970E-1,4.050450325E0,1.447837162E1
1.614536897E1,5.306084156E-1,4.057629108E0,1.421994686E1
1.616547871E1,1.101296663E0,2.743969440E0,1.316471195E1
1.618558840E1,2.229512453E0,1.859821439E0,1.188275719E1
1.620569814E1,2.321636200E0,1.338784218E0,1.061575794E1
1.622580788E1,1.558325768E0,1.155733347E0,9.872786522E0
1.624591757E1,3.421736360E-1,1.503290772E0,8.944371223E0
1.626602731E1,-6.334998012E-1,2.048854351E0,7.546962738E0
1.628613699E1,-1.168893814E0,2.582453728E0,5.839085579E0
1.630624673E1,-1.242473125E0,2.827718258E0,4.616353035E0
1.632635647E1,-7.764709592E-1,2.747558594E0,4.852046013E0
1.634646616E1,1.154536903E-1,2.710469961E0,6.409773827E0
1.636657590E1,6.759724021E-1,2.938386202E0,7.478168964E0
1.638668564E1,4.833501875E-1,3.224926710E0,7.249056339E0
1.640679533E1,-1.866401732E-1,3.414557934E0,6.010172367E0
1.642690507E1,-7.070791125E-1,3.713062525E0,5.442475319E0
1.644701481E1,-9.643075466E-1,4.192225456E0,5.686542988E0
1.646712449E1,-1.005583763E0,4.606781960E0,6.416952133E0
1.648723423E1,-1.007378340E0,4.920241356E0,6.945167542E0
1.650734397E1,-1.004387259E0,5.132006168E0,7.733004570E0
1.652745366E1,-8.620143533E-1,5.312664509E0,8.769695282E0
1.654756340E1,-7.124629617E-1,5.574080467E0,9.614959717E0
1.656767314E1,-5.443671346E-1,5.754738331E0,9.927821159E0
1.658778283E1,-5.144568533E-2,5.630311489E0,1.017547798E1
1.660789257E1,9.272187948E-1,5.176273346E0,1.056251717E1
1.662800225E1,1.719841242E0,4.843072891E0,1.098843956E1
1.664811199E1,4.253242314E-1,6.094519138E0,1.025145054E1
1.666822173E1,1.417747438E-1,5.727818966E0,9.499505997E0
1.668833142E1,1.996212244E0,3.157329559E0,1.194676495E1
1.670844116E1,2.924029350E0,1.984846354E0,1.465783310E1
1.672855090E1,2.523231506E0,1.695314884E0,1.645903015E1
1.674866059E1,1.978864312E0,1.327418327E0,1.632682800E1
1.676877033E1,2.323430777E0,1.200598717E0,1.442453289E1
1.678888007E1,3.403790236E0,1.625324726E0,1.165783215E1
1.680898975E1,3.681357622E0,2.521436930E0,9.540184021E0
1.682909949E1,3.064009428E0,3.277568817E0,8.325826645E0
1.684920918E1,1.965703845E0,3.491726398E0,7.585247993E0
1.686931892E1,1.141974568E0,3.211766243E0,7.655836105E0
1.688942866E1,6.490531564E-1,3.050250769E0,7.998608112E0
1.690953835E1,3.379862010E-1,3.142972469E0,7.655836105E0
1.692964809E1,4.253242314E-1,3.186043262E0,6.969694138E0
1.694975777E1,7.298108935E-1,3.168097258E0,6.404389858E0
1.696986751E1,7.716853023E-1,3.360121250E0,6.041877270E0
1.698997725E1,5.174478889E-1,3.613162279E0,5.423332691E0
1.701008694E1,1.674975827E-2,3.768695593E0,4.801198483E0
1.703019668E1,-6.717849374E-1,4.001996040E0,4.814957142E0
1.705030637E1,-1.165902853E0,4.106083870E0,5.933003902E0
1.707041611E1,-1.211964726E0,4.201198578E0,6.901498795E0
1.709052585E1,-1.149751306E0,4.495515347E0,7.585845947E0
1.711063554E1,-7.477570772E-1,4.654638290E0,8.289336205E0
1.713074527E1,-6.640082598E-1,4.850251675E0,8.782257080E0
1.715085501E1,-5.521438122E-1,5.026721954E0,9.085547447E0
1.717096470E1,-4.701896608E-1,5.154737949E0,8.894122124E0
1.719107444E1,-4.175475538E-1,5.055436134E0,9.280562401E0
1.721118413E1,-5.443671346E-1,4.809573650E0,9.955936432E0
1.723129387E1,-8.614161611E-1,4.505086899E0,1.077667522E1
1.725140361E1,-1.480558991E0,4.714458942E0,1.074915791E1
1.727151330E1,-2.375474691E0,6.071189404E0,9.605388641E0
1.729162304E1,-2.013560295E0,5.886941910E0,1.002173901E1
1.731173272E1,-7.507480979E-1,4.537988186E0,1.366301727E1
1.733184246E1,8.889335990E-1,3.289532900E0,1.750828362E1
1.735195220E1,3.035893679E0,1.501496196E0,1.843310928E1
1.737206189E1,3.126821041E0,4.169493318E-1,1.495992756E1
1.739217163E1,1.098305583E0,6.783652306E-1,1.034596729E1
1.741228137E1,-1.372283816E0,1.147956610E0,7.699504852E0
1.743239106E1,-3.412763357E0,1.503889084E0,7.399205685E0
1.745250080E1,-3.668795347E0,1.402792215E0,9.689735413E0
1.747261048E1,-1.846062660E0,1.066600680E0,1.174397373E1
1.749272022E1,-1.070788130E-1,9.870393276E-1,1.158245754E1
1.751282996E1,8.721838593E-1,1.371087432E0,9.823733330E0
1.753293965E1,4.271188378E-1,1.917249203E0,8.103293419E0
1.755304939E1,-1.214357466E-1,1.949552298E0,7.741379261E0
1.757315908E1,-5.234299302E-1,1.791027784E0,8.779864311E0
1.759326882E1,-4.564309120E-1,1.843071699E0,9.291330338E0
1.761337856E1,-3.828516304E-1,2.097309113E0,8.112865448E0
1.763348824E1,-2.165504545E-1,2.187039852E0,7.092924595E0
1.765359798E1,-9.391828626E-2,2.440080881E0,7.093522549E0
1.767370767E1,-9.391828626E-2,2.749353170E0,7.854440212E0
1.769381741E1,-2.153540403E-1,2.922234535E0,8.445467949E0
1.771392715E1,-3.320041299E-1,2.919841766E0,8.659625053E0
1.773403684E1,-2.003988922E-1,2.788834810E0,9.249456406E0
1.775414658E1,2.709871531E-1,2.843869686E0,9.547960281E0
1.777425626E1,8.009973764E-1,2.964707375E0,9.523433685E0
1.779436600E1,1.013958573E0,2.887538671E0,1.008395290E1
1.781447574E1,6.269195080E-1,2.944368362E0,1.106740284E1
1.783458543E1,1.710868180E-1,3.049652576E0,1.105962658E1
1.785469517E1,-6.879365444E-2,3.258426189E0,9.565308571E0
1.787480486E1,2.733799815E-1,3.479164124E0,8.490931511E0
1.789491460E1,1.216750264E0,3.232703447E0,9.580862045E0
1.791502428E1,1.508076429E0,2.919243574E0,1.110329533E1
1.793513402E1,1.065404296E0,2.835494757E0,1.111466122E1
1.795524376E1,1.184447184E-1,2.809173822E0,9.597611427E0
1.797535345E1,-3.792623878E-1,3.044268608E0,8.508278847E0
1.799546319E1,4.265206456E-1,3.026920557E0,8.764909744E0
1.801557288E1,8.111668825E-1,3.110071182E0,9.475577354E0
1.803568262E1,7.603194118E-1,2.991626501E0,9.568898201E0
1.805579236E1,4.941178858E-1,3.011367321E0,9.145368576E0
1.807590204E1,4.342973232E-1,3.106482029E0,8.462815285E0
1.809601178E1,5.617151260E-1,3.043670416E0,8.146365166E0
1.811612147E1,4.971089065E-1,2.928814888E0,8.686544418E0
1.813623121E1,2.656033039E-1,2.848655462E0,9.568898201E0
1.815634090E1,1.088734269E-1,2.783450842E0,9.870393753E0
1.817645064E1,-1.076770201E-2,2.828914642E0,9.546165466E0
1.819656033E1,1.034895778E-1,2.958127022E0,9.047860146E0
1.821667007E1,2.979064286E-1,3.081357241E0,9.045467377E0
1.823677981E1,3.613162339E-1,3.186043262E0,9.375079155E0
1.825688949E1,2.135594189E-1,3.243471146E0,9.354740143E0
1.827699923E1,7.956135273E-2,3.288336515E0,9.345767021E0
1.829710892E1,-7.058826834E-2,3.446262836E0,9.270393372E0
1.831721866E1,-3.708875179E-2,3.491128206E0,8.989236832E0
1.833732840E1,1.980060786E-1,3.403192043E0,9.227322578E0
1.835743809E1,3.314059377E-1,3.400799274E0,9.748359680E0
1.837754783E1,1.992024779E-1,3.380460262E0,9.845269203E0
1.839765751E1,-9.092725813E-2,3.352942705E0,9.713663101E0
1.841776725E1,-1.974078715E-1,3.411566973E0,9.433703423E0
1.843787694E1,6.161518395E-2,3.468396425E0,9.240483284E0
1.845798668E1,3.942175210E-1,3.485146284E0,9.464211464E0
1.847809642E1,5.641079545E-1,3.458226919E0,9.600004196E0
1.849820611E1,5.952146053E-1,3.474976778E0,9.369695663E0
1.851831585E1,4.869394004E-1,3.613760471E0,8.980861664E0
1.853842554E1,-1.250249892E-1,3.766901016E0,9.338588715E0
1.855853527E1,-2.452643216E-2,3.562912941E0,9.357132912E0
1.857864496E1,3.373879790E-1,3.686741590E0,8.523832321E0
1.859875470E1,6.155536175E-1,3.680759430E0,8.758927345E0
1.861886444E1,2.584248483E-1,3.585644722E0,9.341579437E0
1.863897413E1,-7.537391037E-2,3.457030535E0,9.391230583E0
1.865908387E1,-2.440679073E-1,3.561716557E0,9.076574326E0
1.867919356E1,-2.069791555E-1,3.595814228E0,8.961718559E0
1.869930330E1,9.332008660E-2,3.605983734E0,9.097511292E0
1.871941298E1,3.577269912E-1,3.669393539E0,9.315258980E0
1.873952272E1,5.569294691E-1,3.726222992E0,9.447462082E0
1.875963241E1,3.924229145E-1,3.851846218E0,9.351150513E0
1.877974215E1,2.297109663E-1,3.797409534E0,9.425328255E0
1.879985189E1,3.421736360E-1,3.736392498E0,9.565906525E0
1.881996158E1,4.301098585E-1,3.722035646E0,9.597013474E0
1.884007132E1,3.290131092E-1,3.715455294E0,9.305686951E0
1.886018100E1,2.943171859E-1,3.783650875E0,9.100502968E0
1.888029074E1,3.092723191E-1,3.833899975E0,9.087342262E0
1.890040043E1,2.811566591E-1,3.878765583E0,9.041878700E0
1.892051017E1,2.667997181E-1,3.833301783E0,9.075976372E0
1.894061986E1,3.924229145E-1,3.716053486E0,9.566504478E0
1.896072960E1,3.960121572E-1,3.714857101E0,9.857233047E0
1.898083934E1,3.678964674E-1,3.762713671E0,9.586843491E0
1.900094902E1,3.248256743E-1,3.816552162E0,9.184251785E0
1.902105876E1,3.230310678E-1,3.912265062E0,8.846264839E0
1.904116845E1,4.265206456E-1,3.855435371E0,8.860622406E0
1.906127819E1,5.024927258E-1,3.775275946E0,9.159725189E0
1.908138788E1,4.636093974E-1,3.761517286E0,9.341579437E0
1.910149762E1,3.433700502E-1,3.745963812E0,9.204590797E0
1.912160731E1,2.189432681E-1,3.729812384E0,9.024530411E0
1.914171704E1,2.255235314E-1,3.704089403E0,9.091529846E0
1.916182679E1,3.098705411E-1,3.607778311E0,9.346364975E0
1.918193647E1,2.650051117E-1,3.614956856E0,9.746564865E0
1.920204621E1,2.362912297E-1,3.705883980E0,9.844670296E0
1.922215590E1,6.281159073E-2,3.704089403E0,9.333204269E0
1.924226564E1,7.836493850E-2,3.753142357E0,8.694919586E0
1.926237533E1,3.116651475E-1,3.812364578E0,8.523234367E0
1.928248507E1,4.666004181E-1,3.758526087E0,8.800801277E0
1.930259475E1,4.935196638E-1,3.712464333E0,9.183652878E0
1.932270449E1,3.296113312E-1,3.735196114E0,9.322437286E0
1.934281418E1,2.009970993E-1,3.683750391E0,9.413962364E0
1.936292392E1,2.667997181E-1,3.620938778E0,9.729216576E0
1.938303366E1,3.014956415E-1,3.588635683E0,9.778269768E0
1.940314335E1,1.489532143E-1,3.635295868E0,9.311071396E0
1.942325309E1,6.699903309E-2,3.764508247E0,8.836095810E0
1.944336277E1,1.537388563E-1,3.834498405E0,8.765507698E0
1.946347251E1,1.597209126E-1,3.835096598E0,8.746364594E0
1.948358220E1,1.172483116E-1,3.768695593E0,8.913862228E0
1.950369194E1,1.387837082E-1,3.706482172E0,9.177073479E0
1.952380163E1,6.819544733E-2,3.704089403E0,9.274580956E0
1.954391137E1,5.802594870E-2,3.687339783E0,9.174679756E0
1.956402106E1,1.328016520E-1,3.718446493E0,9.116056442E0
1.958413080E1,2.715853751E-1,3.741776466E0,9.195018768E0
1.960424048E1,2.650051117E-1,3.684348583E0,9.260223389E0
1.962435022E1,1.710868180E-1,3.667000771E0,9.272188187E0
1.964445991E1,1.190429255E-1,3.729214191E0,9.190832138E0
1.966456965E1,1.902294010E-1,3.638885021E0,9.220742226E0
1.968467939E1,2.895315289E-1,3.523431301E0,9.502496719E0
1.970478908E1,2.303091735E-1,3.556930780E0,9.652647018E0
1.972489882E1,8.015955985E-2,3.613760471E0,9.431908607E0
1.974500850E1,-5.443671346E-2,3.708875179E0,9.047262192E0
1.976511824E1,-1.579262912E-1,3.803391695E0,8.793622971E0
1.978522793E1,-9.990034252E-2,3.728017569E0,8.831908226E0
1.980533767E1,7.178467698E-3,3.669991732E0,8.921041489E0
1.982544736E1,6.281159073E-2,3.638286829E0,9.093324661E0
1.984555710E1,4.725824669E-2,3.584448338E0,9.201001167E0
1.986566679E1,-1.854437590E-2,3.634697676E0,9.295517921E0
1.988577652E1,-8.973085321E-3,3.664009571E0,9.263215065E0
1.990588621E1,3.888336942E-2,3.684946775E0,9.266803741E0
1.992599595E1,1.441675574E-1,3.677768469E0,9.201001167E0
1.994610564E1,9.571290761E-2,3.735196114E0,9.084949493E0
1.996621538E1,1.435693540E-2,3.823132277E0,9.023334503E0
1.998632507E1,9.451649338E-2,3.782454491E0,9.110671997E0
2.000643481E1,1.351944804E-1,3.726222992E0,9.381061554E0
2.002654449E1,1.004985496E-1,3.692723513E0,9.448060036E0
2.004665423E1,1.112662554E-1,3.722035646E0,9.308079720E0
2.006676397E1,1.052841991E-1,3.778865099E0,9.087940216E0
2.008687366E1,1.112662554E-1,3.796213150E0,8.943174362E0
2.010698340E1,1.555334777E-1,3.741776466E0,9.033503532E0
2.012709309E1,2.027917206E-1,3.712464333E0,9.296713829E0
2.014720283E1,1.950150430E-1,3.704687595E0,9.336793900E0
2.016731251E1,1.040877849E-1,3.800998688E0,9.155537605E0
2.018742225E1,1.304088384E-1,3.839882135E0,9.100502968E0
2.020753194E1,1.824527234E-1,3.862613916E0,9.174679756E0
2.022764168E1,1.094716340E-1,3.803989887E0,9.130413055E0
2.024775137E1,1.052841991E-1,3.769293785E0,9.229715347E0
2.026786111E1,1.513460279E-1,3.798605919E0,9.242876053E0
2.028797080E1,1.046859920E-1,3.798007727E0,9.259625435E0
2.030808054E1,6.939185411E-2,3.801596880E0,9.233304024E0
2.032819022E1,7.956135273E-2,3.792025566E0,9.123832703E0
2.034829996E1,8.494520187E-2,3.754936934E0,9.133403778E0
2.036840965E1,1.609173268E-1,3.757329702E0,9.243474007E0
2.038851939E1,2.057827413E-1,3.745365620E0,9.336195946E0
2.040862908E1,2.237289101E-1,3.734597921E0,9.377471924E0
2.042873882E1,1.734796464E-1,3.798605919E0,9.240483284E0
2.044884850E1,1.848455518E-1,3.842873096E0,9.050851822E0
2.046895824E1,2.865405083E-1,3.796811342E0,8.989236832E0
2.048906793E1,2.285145670E-1,3.852444410E0,9.007183075E0
2.050917767E1,2.548356056E-1,3.874577999E0,9.001798630E0
2.052928736E1,2.943171859E-1,3.823730469E0,9.208778381E0
2.054939710E1,2.356930375E-1,3.744767427E0,9.432506561E0
2.056950684E1,2.099701911E-1,3.721437454E0,9.518648148E0
2.058961652E1,2.297109663E-1,3.739981890E0,9.436694145E0
2.060972621E1,2.327020019E-1,3.774079561E0,9.301499367E0
2.062983595E1,2.093719840E-1,3.772883177E0,9.131608963E0
2.064994569E1,2.530409992E-1,3.763311863E0,8.994022369E0
2.067005538E1,3.565305769E-1,3.755535126E0,9.032307625E0
2.069016507E1,4.827519655E-1,3.799802303E0,9.160921097E0
2.071027481E1,5.204389095E-1,3.844069481E0,9.145368576E0
2.073038454E1,4.959124923E-1,3.867399693E0,9.053842545E0
2.075049423E1,4.624129832E-1,3.869194269E0,9.169296265E0
2.077060397E1,4.474578202E-1,3.848257065E0,9.322437286E0
2.079071366E1,4.504488707E-1,3.877569199E0,9.245268822E0
2.081082340E1,4.624129832E-1,3.910470486E0,9.059824944E0
2.083093309E1,4.869394004E-1,3.893122435E0,9.104091644E0
2.085104283E1,4.127618968E-1,3.881756544E0,9.172286987E0
2.087115251E1,3.158525825E-1,3.835694790E0,9.041878700E0
2.089126225E1,3.451646566E-1,3.829712629E0,9.090332985E0
2.091137194E1,2.673979402E-1,3.845864296E0,9.209974289E0
2.093148168E1,2.057827413E-1,3.827918053E0,9.180064201E0
2.095159137E1,2.512463629E-1,3.840480328E0,9.107083321E0
2.097170111E1,2.691925466E-1,3.814757586E0,9.076574326E0
2.099181080E1,2.859423161E-1,3.823730469E0,9.251849174E0
2.101192054E1,2.518445849E-1,3.862613916E0,9.296713829E0
2.103203022E1,2.733799815E-1,3.802195072E0,9.186046600E0
2.105213996E1,2.177468538E-1,3.875176191E0,9.018548965E0
2.107224965E1,2.075773627E-1,3.968496323E0,8.932407379E0
2.109235939E1,2.697907388E-1,3.948755503E0,8.976076126E0
2.111246908E1,2.542374134E-1,3.891926050E0,9.119047165E0
2.113257882E1,2.476571500E-1,3.803391695E0,9.412167549E0
2.115268850E1,1.728814393E-1,3.835096598E0,9.373284340E0
2.117279824E1,1.381855011E-1,3.796811342E0,9.192625999E0
2.119290793E1,2.057827413E-1,3.815953970E0,9.063413620E0
2.121301767E1,2.841476798E-1,3.831507206E0,9.004789352E0
2.123312736E1,2.955136001E-1,3.784249067E0,9.093922615E0
2.125323710E1,2.955136001E-1,3.786641836E0,9.186046600E0
2.127334678E1,2.751746178E-1,3.815355778E0,9.189037323E0
2.129345652E1,2.267199457E-1,3.795016766E0,9.210572243E0
2.131356621E1,1.884347796E-1,3.795016766E0,9.143573761E0
2.133367595E1,2.739782035E-1,3.805186272E0,9.044271469E0
2.135378564E1,3.206382394E-1,3.843471289E0,9.057432175E0
2.137389538E1,2.656033039E-1,3.905684710E0,9.124430656E0
2.139400507E1,2.261217386E-1,3.905086517E0,9.155537605E0
2.141411481E1,2.267199457E-1,3.888935089E0,9.144171715E0
2.143422449E1,1.328016520E-1,3.850649834E0,9.128020287E0
2.145433423E1,1.860419661E-1,3.827319860E0,9.200403214E0
2.147444392E1,2.997010350E-1,3.870988846E0,9.281759262E0
2.149455366E1,3.511467278E-1,3.865604877E0,9.211171150E0
2.151466335E1,3.260220885E-1,3.867997885E0,9.104091644E0
2.153477304E1,3.780659735E-1,3.884747505E0,9.091529846E0
2.155488277E1,4.091726840E-1,3.859024763E0,9.129815102E0
2.157499251E1,3.774677813E-1,3.805784464E0,9.188439369E0
2.159510220E1,3.200400174E-1,3.794418573E0,9.244669914E0
2.161521189E1,3.595215976E-1,3.773481369E0,9.208778381E0
2.163532163E1,3.541377485E-1,3.779463291E0,9.129216194E0
2.165543132E1,2.219343036E-1,3.842274904E0,8.941978455E0
2.167554106E1,2.626122832E-1,3.792623997E0,9.072985649E0
2.169565074E1,3.044866920E-1,3.757927895E0,9.290133476E0
2.171576048E1,2.530409992E-1,3.744767427E0,9.336195946E0
2.173587017E1,2.201396823E-1,3.748954773E0,9.303294182E0
2.175597991E1,2.279163599E-1,3.774677753E0,9.243474007E0
2.177608960E1,2.709871531E-1,3.779463291E0,9.144769669E0
2.179619934E1,3.607180119E-1,3.782454491E0,9.038289070E0
2.181630902E1,4.037888348E-1,3.772883177E0,9.075378418E0
2.183641876E1,3.332005441E-1,3.749552965E0,8.677571297E0
2.185652845E1,4.175475538E-1,3.781257868E0,7.832306862E0
2.187663819E1,1.974078640E-2,3.675375462E0,1.033460140E1
2.189674788E1,3.643072546E-1,3.841676712E0,1.074257755E1
2.191685762E1,-3.409772366E-2,3.449253798E0,9.246464729E0
