"Time (s)","Acceleration x (m/s^2)","Acceleration y (m/s^2)","Acceleration z (m/s^2)"
4.775316100E-2,-1.039500013E-1,4.530000210E0,9.595950127E0
6.775316100E-2,-8.100000024E-2,4.575000286E0,9.601950645E0
8.775316100E-2,-7.095000148E-2,4.644000053E0,9.586950302E0
1.077531610E-1,-5.700000376E-2,4.707000256E0,9.505050659E0
1.277531610E-1,-5.595000088E-2,4.794000149E0,9.478950500E0
1.477531610E-1,-4.695000127E-2,4.816050053E0,9.436950684E0
1.677531610E-1,-7.050000131E-3,4.849950314E0,9.361950874E0
1.877531610E-1,4.695000127E-2,4.860000134E0,9.337050438E0
2.077531610E-1,1.080000028E-1,4.903050423E0,9.376049995E0
2.277531610E-1,1.519500017E-1,4.936050415E0,9.436050415E0
2.477531610E-1,1.009500027E-1,5.026950359E0,9.496950150E0
2.677531610E-1,9.900000691E-2,5.149950027E0,9.592950821E0
2.877531610E-1,7.905000448E-2,5.221950054E0,9.670050621E0
3.077531610E-1,1.080000028E-1,5.290050030E0,9.700950623E0
3.277531610E-1,1.369500011E-1,5.377050400E0,9.685050011E0
3.477531610E-1,1.210500076E-1,5.497050285E0,9.628050804E0
3.677531610E-1,6.795000285E-2,5.613000393E0,9.558000565E0
3.877531610E-1,5.895000324E-2,5.680050373E0,9.457050323E0
4.077531610E-1,8.805000782E-2,5.719950199E0,8.625000000E0
4.277531610E-1,1.260000020E-1,5.736000061E0,8.598000526E0
4.477531610E-1,1.429500133E-1,5.743050098E0,8.566950798E0
4.677531610E-1,1.710000038E-1,5.785950184E0,8.535000801E0
4.877531610E-1,2.639999986E-1,5.812950134E0,8.575050354E0
5.077531610E-1,3.169500232E-1,5.788050175E0,8.575950623E0
5.277531610E-1,3.540000021E-1,5.776950359E0,8.671050072E0
5.477531610E-1,3.880500197E-1,5.764050484E0,8.770050049E0
5.677531610E-1,3.810000122E-1,5.677050114E0,8.914950371E0
5.877531610E-1,3.480000198E-1,5.628000259E0,9.688050270E0
6.077531610E-1,3.460500240E-1,5.626950264E0,9.753000259E0
6.277531610E-1,3.600000143E-1,5.683050156E0,9.772050858E0
6.477531610E-1,3.100500107E-1,5.757000446E0,9.810000420E0
6.677531610E-1,3.319500089E-1,5.808000088E0,9.810000420E0
6.877531610E-1,3.829500079E-1,5.914950371E0,9.838050842E0
7.077531610E-1,4.470000267E-1,6.018000126E0,9.862050056E0
7.277531610E-1,4.620000124E-1,6.042000294E0,9.894000053E0
7.477531610E-1,4.320000112E-1,6.049050331E0,9.988050461E0
7.677531610E-1,3.730500042E-1,6.001950264E0,1.009395027E1
7.877531610E-1,2.760000229E-1,5.910000324E0,1.021800041E1
8.077531610E-1,2.010000050E-1,5.815050125E0,1.020405006E1
8.277531610E-1,1.380000114E-1,5.722950459E0,1.009905052E1
8.477531610E-1,9.000000544E-3,4.900050163E0,1.002300072E1
8.677531610E-1,-7.909500599E-1,4.092000008E0,9.915000916E0
8.877531610E-1,-8.350500464E-1,4.056000233E0,9.864000320E0
9.077531610E-1,-8.740500212E-1,4.018949986E0,9.798000336E0
9.277531610E-1,-9.340500236E-1,4.015950203E0,9.676050186E0
9.477531610E-1,-9.520500302E-1,4.057050228E0,8.841000557E0
9.677531610E-1,-9.420000315E-1,4.852050304E0,8.752950668E0
9.877531610E-1,-8.530500531E-1,4.803000450E0,8.701050758E0
1.007753161E0,-5.295000225E-2,3.943950176E0,8.781000137E0
1.027753161E0,-4.305000231E-2,3.907050133E0,9.496050835E0
1.047753161E0,-3.495000303E-2,3.901050091E0,9.477000237E0
1.067753161E0,-6.195000187E-2,3.978000164E0,9.466050148E0
1.087753161E0,-1.489500105E-1,4.657050133E0,9.502050400E0
1.107753161E0,-1.969500035E-1,4.705049992E0,9.547050476E0
1.127753161E0,-1.860000044E-1,4.756950378E0,9.523950577E0
1.147753161E0,-1.900500059E-1,4.845000267E0,9.454950333E0
1.167753161E0,-1.920000017E-1,5.674950123E0,8.638050079E0
1.187753161E0,-1.830000132E-1,5.673000336E0,8.641050339E0
1.207753161E0,-1.870500147E-1,5.679000378E0,8.562000275E0
1.227753161E0,-2.260500044E-1,5.749950409E0,8.461950302E0
1.247753161E0,-2.460000068E-1,5.814000130E0,8.449950218E0
1.267753161E0,-3.019500077E-1,5.901000500E0,8.553000450E0
1.287753161E0,-3.450000286E-1,6.034050465E0,8.650950432E0
1.307753161E0,-4.530000091E-1,6.766050339E0,9.466950417E0
1.327753161E0,-1.156949997E0,6.772050381E0,9.544050217E0
1.347753161E0,-1.165950060E0,6.715950489E0,1.032105064E1
1.367753161E0,-1.047000051E0,6.613050461E0,1.039995003E1
1.387753161E0,-2.770500183E-1,6.526950359E0,1.035600090E1
1.407753161E0,-2.190000117E-1,6.520950317E0,9.511050224E0
1.427753161E0,-1.690500081E-1,6.537000179E0,9.480000496E0
1.447753161E0,-1.440000087E-1,6.462000370E0,9.576000214E0
1.467753161E0,-1.080000028E-1,4.770000458E0,1.037505054E1
1.487753161E0,-1.950000064E-3,4.716000080E0,1.116000080E1
1.507753161E0,5.805000290E-2,4.606050014E0,1.107900047E1
1.527753161E0,1.090500057E-1,4.570950031E0,1.029795074E1
1.547753161E0,1.650000066E-1,4.597050190E0,9.349050522E0
1.567753161E0,2.680500150E-1,4.642950058E0,9.331950188E0
1.587753161E0,3.520500064E-1,4.663950443E0,9.253950119E0
1.607753161E0,3.840000033E-1,4.729950428E0,9.164999962E0
1.627753161E0,4.200000167E-1,4.729950428E0,8.383950233E0
1.647753161E0,3.900000155E-1,4.711050034E0,8.377050400E0
1.667753161E0,3.300000131E-1,4.642050266E0,8.365950584E0
1.687753161E0,3.169500232E-1,4.549050331E0,8.443950653E0
1.707753161E0,3.379500210E-1,4.477950096E0,8.598000526E0
1.727753161E0,4.099500179E-1,4.486050129E0,8.583000183E0
1.747753161E0,4.090500176E-1,4.567950249E0,8.485050201E0
1.767753161E0,3.370500207E-1,4.723950386E0,8.377050400E0
1.787753161E0,2.580000162E-1,5.466000080E0,8.289000511E0
1.807753161E0,2.080500126E-1,5.449950218E0,8.188950539E0
1.827753161E0,1.500000060E-1,5.434050083E0,8.121000290E0
1.847753161E0,1.050000042E-1,5.476950169E0,8.146950722E0
1.867753161E0,7.995000482E-2,6.273000240E0,8.215050697E0
1.887753161E0,1.605000161E-2,6.328050137E0,9.040050507E0
1.907753161E0,-4.305000231E-2,6.406050205E0,9.868050575E0
1.927753161E0,-1.630500108E-1,6.460950375E0,1.151505089E1
1.947753161E0,-2.059500068E-1,6.396000385E0,1.157700062E1
1.967753161E0,-1.699500084E-1,5.649000168E0,1.156395054E1
1.987753161E0,-3.900000080E-2,5.683050156E0,1.147800064E1
2.007753161E0,7.819500566E-1,6.547050476E0,1.054695034E1
2.027753161E0,7.129500508E-1,6.538050175E0,1.049400043E1
2.047753161E0,6.979500055E-1,6.502050400E0,1.039005089E1
2.067753161E0,6.829500198E-1,6.448950291E0,9.651000023E0
2.087753161E0,-2.920500040E-1,6.358950138E0,9.604050636E0
2.107753161E0,-1.072950006E0,5.560050488E0,9.639000893E0
2.127753161E0,-1.092000008E0,4.762050152E0,9.697950363E0
2.147753161E0,-1.083000064E0,4.657050133E0,9.765000343E0
2.167753161E0,-9.979500771E-1,4.524000168E0,9.760050774E0
2.187753161E0,-9.630000591E-1,3.808050156E0,9.715050697E0
2.207753161E0,-8.320500255E-1,3.901050091E0,8.944050789E0
2.227753161E0,-2.400000021E-2,4.633050442E0,8.038949966E0
2.247753161E0,-5.505000427E-2,4.686000347E0,7.255950451E0
2.267753161E0,-8.505000174E-2,4.809000015E0,7.233000278E0
2.287753161E0,-1.510500014E-1,5.668950081E0,7.299000263E0
2.307753161E0,-1.680000126E-1,5.686050415E0,7.398000240E0
2.327753161E0,-1.410000026E-1,5.641050339E0,8.245950699E0
2.347753161E0,-5.700000376E-2,5.583000183E0,8.227950096E0
2.367753161E0,1.695000008E-2,5.566950321E0,8.223000526E0
2.387753161E0,1.279500127E-1,5.569950104E0,8.278050423E0
2.407753161E0,1.939500123E-1,5.589000225E0,8.400000572E0
2.427753161E0,2.410500050E-1,5.692050457E0,8.447999954E0
2.447753161E0,2.380500138E-1,5.776950359E0,8.530050278E0
2.467753161E0,2.299500108E-1,5.862000465E0,9.318000793E0
2.487753161E0,1.900500059E-1,5.970000267E0,9.268050194E0
2.507753161E0,1.450500041E-1,6.090000153E0,9.274950027E0
2.527753161E0,1.030500084E-1,6.178950310E0,1.010205078E1
2.547753161E0,9.600000083E-2,6.214050293E0,1.108905029E1
2.567753161E0,1.009500027E-1,6.202950478E0,1.187595081E1
2.587753161E0,9.930000305E-1,6.297000408E0,1.189695072E1
2.607753161E0,9.570000172E-1,6.391950130E0,1.101705074E1
2.627753161E0,8.250000477E-1,6.354000092E0,1.093200016E1
2.647753161E0,7.189500332E-1,5.574000359E0,1.177305031E1
2.667753161E0,6.940500140E-1,4.767000198E0,1.174500084E1
2.687753161E0,7.630500197E-1,4.714950085E0,1.021695042E1
2.707753161E0,7.999500632E-1,4.777950287E0,8.745000839E0
2.727753161E0,7.609500289E-1,4.899000168E0,8.638050079E0
2.747753161E0,8.299500346E-1,4.939950466E0,8.584050179E0
2.767753161E0,1.602000117E0,4.860000134E0,8.560050011E0
2.787753161E0,1.606050134E0,4.723050117E0,8.447999954E0
2.807753161E0,8.520000577E-1,4.621050358E0,8.314949989E0
2.827753161E0,7.770000100E-1,3.862950087E0,8.334000587E0
2.847753161E0,7.420500517E-1,3.844050169E0,8.401950836E0
2.867753161E0,7.200000286E-1,3.747000217E0,8.509950638E0
2.887753161E0,6.679500341E-1,3.757050276E0,8.455050468E0
2.907753161E0,6.370500326E-1,3.859050274E0,8.311950684E0
2.927753161E0,5.110500455E-1,4.626000404E0,8.164950371E0
2.947753161E0,3.760500252E-1,4.703999996E0,8.152950287E0
2.967753161E0,2.689500153E-1,4.818000317E0,8.235000610E0
2.987753161E0,1.830000132E-1,4.920000076E0,8.380050659E0
3.007753161E0,1.009500027E-1,5.058000088E0,9.220050812E0
3.027753161E0,4.800000042E-2,5.842950344E0,9.310950279E0
3.047753161E0,0.000000000E0,6.579000473E0,9.426000595E0
3.067753161E0,-6.900000572E-2,6.588000298E0,1.025505066E1
3.087753161E0,-1.530000120E-1,6.589050293E0,1.122795010E1
3.107753161E0,-1.369500011E-1,6.556950092E0,1.137195015E1
3.127753161E0,-4.305000231E-2,6.525000095E0,1.137195015E1
3.147753161E0,-2.205000073E-2,6.430950165E0,1.129605007E1
3.167753161E0,-3.000000119E-2,6.292950153E0,1.126905060E1
3.187753161E0,-1.030500084E-1,5.461950302E0,1.128900051E1
3.207753161E0,-8.899500370E-1,4.618050098E0,1.137795067E1
3.227753161E0,-1.012950063E0,3.802950144E0,1.140795040E1
3.247753161E0,-1.057050109E0,3.766050100E0,1.033395004E1
3.267753161E0,-1.156949997E0,3.763950109E0,8.793000221E0
3.287753161E0,-1.857000113E0,3.859050274E0,8.787000656E0
3.307753161E0,-1.843050122E0,3.970950127E0,9.589950562E0
3.327753161E0,-1.077000022E0,4.048050404E0,9.601950645E0
3.347753161E0,-2.659500241E-1,3.979050159E0,8.817000389E0
3.367753161E0,-2.140500098E-1,3.892050266E0,8.032050133E0
3.387753161E0,-1.660500020E-1,3.919050217E0,7.983000278E0
3.407753161E0,-1.459500045E-1,4.035000324E0,8.056950569E0
3.427753161E0,-1.489500105E-1,4.170000076E0,8.901000023E0
3.447753161E0,-7.395000011E-2,5.023950100E0,8.883000374E0
3.467753161E0,-5.205000192E-2,5.124000072E0,8.833950043E0
3.487753161E0,-6.300000101E-2,5.263950348E0,8.773050308E0
3.507753161E0,-2.205000073E-2,5.355000019E0,8.857050896E0
3.527753161E0,-4.050000105E-3,5.395950317E0,8.967000008E0
3.547753161E0,7.800000161E-2,5.424000263E0,8.989950180E0
3.567753161E0,2.220000178E-1,5.428050041E0,8.907000542E0
3.587753161E0,1.000050068E0,5.521950245E0,8.031000137E0
3.607753161E0,9.709500670E-1,6.316950321E0,8.089950562E0
3.627753161E0,9.450000525E-1,6.336000443E0,8.973000526E0
3.647753161E0,1.032000065E0,6.424950123E0,9.771000862E0
3.667753161E0,1.036949992E0,7.194000244E0,9.841950417E0
3.687753161E0,1.920000017E-1,7.285950184E0,9.814050674E0
3.707753161E0,1.459500045E-1,7.245000362E0,1.057095051E1
3.727753161E0,1.770000011E-1,5.643000126E0,1.131900024E1
3.747753161E0,2.329500169E-1,4.771050453E0,1.208895016E1
3.767753161E0,3.289500177E-1,4.002000332E0,1.114095020E1
3.787753161E0,4.770000279E-1,4.000950336E0,1.035495090E1
3.807753161E0,1.198950052E0,4.015050411E0,9.613050461E0
3.827753161E0,1.267050028E0,4.009950161E0,9.580050468E0
3.847753161E0,1.276050091E0,3.889950275E0,9.541950226E0
3.867753161E0,1.186050057E0,3.747000217E0,9.472050667E0
3.887753161E0,4.399500191E-1,3.610050201E0,8.607000351E0
3.907753161E0,3.930000067E-1,3.585000277E0,8.518050194E0
3.927753161E0,3.229500055E-1,3.589950085E0,8.440950394E0
3.947753161E0,2.569500208E-1,3.655950069E0,8.428050041E0
3.967753161E0,2.110500038E-1,4.431000233E0,9.379050255E0
3.987753161E0,1.600500047E-1,4.540050030E0,9.349050522E0
4.007753161E0,5.700000376E-2,5.349000454E0,8.518050194E0
4.027753161E0,-4.800000042E-2,6.150000095E0,8.482049942E0
4.047753161E0,-9.795000404E-2,6.085050106E0,9.301050186E0
4.067753161E0,-1.219500080E-1,5.250000477E0,1.023705006E1
4.087753161E0,-1.090500057E-1,4.467000008E0,1.036095047E1
4.107753161E0,-1.279500127E-1,4.455000401E0,1.036695004E1
4.127753161E0,-1.819500029E-1,4.527000427E0,1.030500031E1
4.147753161E0,-1.939500123E-1,4.555950165E0,1.035600090E1
4.167753161E0,-1.530000120E-1,4.612050056E0,1.047300053E1
4.187753161E0,-9.705000371E-2,4.720050335E0,1.044405079E1
4.207753161E0,-8.400000632E-2,4.812000275E0,9.637950897E0
4.227753161E0,-7.905000448E-2,4.894050121E0,9.595050812E0
4.247753161E0,-8.880000710E-1,4.062000275E0,9.649050713E0
4.267753161E0,-9.919500351E-1,3.978000164E0,1.141305065E1
4.287753161E0,-1.803000093E0,3.163950205E0,1.240695095E1
4.307753161E0,-1.792950034E0,2.389950037E0,1.250895023E1
4.327753161E0,-1.717950106E0,2.341950178E0,1.250805092E1
4.347753161E0,-1.630950093E0,2.382000208E0,1.057005024E1
4.367753161E0,-1.549950123E0,2.494050026E0,9.723000526E0
4.387753161E0,-1.455000043E0,3.274050236E0,8.733000755E0
4.407753161E0,-1.357050061E0,3.319050074E0,8.700000763E0
4.427753161E0,-1.261050105E0,3.418950081E0,8.727000237E0
4.447753161E0,-5.650500059E-1,3.520950079E0,8.862000465E0
4.467753161E0,-6.079500318E-1,4.686000347E0,9.576000214E0
4.487753161E0,-6.079500318E-1,4.720050335E0,8.656949997E0
4.507753161E0,-5.479500294E-1,4.788000107E0,7.822950363E0
4.527753161E0,-4.150500298E-1,4.906949997E0,7.059000492E0
4.547753161E0,-2.730000019E-1,5.700000286E0,7.035000324E0
4.567753161E0,-1.969500035E-1,5.728950500E0,7.846950531E0
4.587753161E0,-1.260000020E-1,5.694000244E0,7.921950340E0
4.607753161E0,6.420000196E-1,5.632950306E0,8.650050163E0
4.627753161E0,7.390500307E-1,5.598000050E0,8.682000160E0
4.647753161E0,6.940500140E-1,5.608950138E0,8.761050224E0
4.667753161E0,-8.295000345E-2,5.566950321E0,1.108995056E1
4.687753161E0,-1.099500060E-1,5.524950027E0,1.266600037E1
4.707753161E0,-1.590000093E-1,5.551950455E0,1.337295055E1
4.727753161E0,-1.969050050E0,5.428950310E0,1.335195065E1
4.747753161E0,-2.746050119E0,3.955050230E0,1.454205036E1
4.767753161E0,-2.707950115E0,3.877050161E0,1.522095108E1
4.787753161E0,-1.882050037E0,3.745050192E0,1.265505028E1
4.807753161E0,-1.042950034E0,3.664050102E0,1.094295025E1
4.827753161E0,-9.030000567E-1,3.574050188E0,1.079595089E1
4.847753161E0,-1.200000048E-1,3.465000153E0,1.074495029E1
4.867753161E0,-9.105000645E-2,3.319050074E0,1.071300030E1
4.887753161E0,-3.000000119E-2,3.187950134E0,9.139050484E0
4.907753161E0,0.000000000E0,3.076950073E0,8.403000832E0
4.927753161E0,4.800000042E-2,3.021000147E0,8.289000511E0
4.947753161E0,5.505000427E-2,3.007950068E0,7.509000301E0
4.967753161E0,-1.200000010E-2,3.880050182E0,7.453050137E0
4.987753161E0,-8.400000334E-1,4.736999989E0,7.369050503E0
5.007753161E0,-1.677000046E0,5.485050201E0,7.300950527E0
5.027753161E0,-1.762950063E0,5.550000191E0,7.312950134E0
5.047753161E0,-1.750950098E0,5.533050060E0,8.103000641E0
5.067753161E0,-9.649500251E-1,4.759950161E0,9.091950417E0
5.087753161E0,-1.008000016E0,3.919050217E0,9.894000053E0
5.107753161E0,-1.069050074E0,3.922050238E0,9.991050720E0
5.127753161E0,-1.110000014E0,3.865050077E0,1.098405075E1
5.147753161E0,-1.149000049E0,3.769050121E0,1.173705101E1
5.167753161E0,-1.129050016E0,3.633000135E0,1.181205082E1
5.187753161E0,-3.820500076E-1,3.589950085E0,1.192500019E1
5.207753161E0,-3.079500198E-1,3.658950090E0,1.095795059E1
5.227753161E0,4.330500066E-1,3.753000259E0,1.009500027E1
5.247753161E0,4.590000212E-1,3.802050114E0,1.002795029E1
5.267753161E0,3.640500307E-1,3.022950172E0,1.172100067E1
5.287753161E0,-5.749500394E-1,3.096000195E0,1.268400097E1
5.307753161E0,-7.009500265E-1,3.157050133E0,1.269300079E1
5.327753161E0,-1.620000124E0,3.190050125E0,1.186605072E1
5.347753161E0,-2.449050188E0,3.271050215E0,1.031895065E1
5.367753161E0,-2.503050089E0,4.096050262E0,1.022595024E1
5.387753161E0,-2.596050024E0,4.195950031E0,9.543000221E0
5.407753161E0,-2.626950026E0,4.237050056E0,9.448050499E0
5.427753161E0,-2.536950111E0,4.225950241E0,8.509950638E0
5.447753161E0,-1.761000037E0,4.140000343E0,7.681950569E0
5.467753161E0,-1.723950028E0,4.021950245E0,7.588950157E0
5.487753161E0,-8.650500178E-1,3.933000088E0,7.524000168E0
5.507753161E0,-7.459500432E-1,3.874050140E0,7.419000149E0
5.527753161E0,8.895000070E-2,3.829050064E0,6.631950378E0
5.547753161E0,8.700000495E-2,3.913050175E0,5.878050327E0
5.567753161E0,7.800000161E-2,4.753950119E0,5.967000484E0
5.587753161E0,7.395000011E-2,4.810950279E0,6.823950291E0
5.607753161E0,6.900000572E-2,4.909050465E0,8.546999931E0
5.627753161E0,1.519500017E-1,5.005050182E0,9.407999992E0
5.647753161E0,9.610500336E-1,5.118000031E0,9.534000397E0
5.667753161E0,1.818000078E0,5.109000206E0,1.123695087E1
5.687753161E0,1.801950097E0,4.312050343E0,1.379505062E1
5.707753161E0,1.789050102E0,3.517950058E0,1.559595108E1
5.727753161E0,1.108050108E0,3.568950176E0,1.640999985E1
5.747753161E0,1.086000085E0,4.390050411E0,1.557300091E1
5.767753161E0,2.880000174E-1,5.857950211E0,1.392795086E1
5.787753161E0,1.549500078E-1,5.923050404E0,1.391805077E1
5.807753161E0,7.095000148E-2,5.062950134E0,1.238505077E1
5.827753161E0,2.295000106E-2,4.945950031E0,1.155705070E1
5.847753161E0,-1.395000052E-2,4.956000328E0,9.928050041E0
5.867753161E0,-1.159500033E-1,5.839050293E0,8.824950218E0
5.887753161E0,-1.840500087E-1,5.890950203E0,7.981050491E0
5.907753161E0,-1.579500139E-1,5.119050026E0,7.900050163E0
5.927753161E0,-1.050000042E-1,4.333050251E0,7.873950481E0
5.947753161E0,-1.180500090E-1,4.180050373E0,8.725049973E0
5.967753161E0,-2.100000083E-1,3.403950214E0,8.865000725E0
5.987753161E0,-2.580000162E-1,3.364950180E0,9.012000084E0
6.007753161E0,-2.550000250E-1,3.355050087E0,9.004950523E0
6.027753161E0,-2.910000086E-1,3.354000092E0,8.140950203E0
6.047753161E0,-2.989500165E-1,3.432000160E0,7.410000324E0
6.067753161E0,-3.390000165E-1,3.502050161E0,8.203050613E0
6.087753161E0,-3.130500019E-1,3.565050125E0,8.296950340E0
6.107753161E0,-2.790000141E-1,3.652950287E0,8.227050781E0
6.127753161E0,-2.659500241E-1,4.561950207E0,8.131950378E0
6.147753161E0,-3.250500262E-1,4.707000256E0,8.179050446E0
6.167753161E0,-3.679500222E-1,4.848000050E0,9.148950577E0
6.187753161E0,-3.030000031E-1,5.646000385E0,9.877050400E0
6.207753161E0,-2.560500205E-1,6.459000111E0,9.789000511E0
6.227753161E0,-3.310500085E-1,6.454950333E0,9.736050606E0
6.247753161E0,-3.790500164E-1,6.433050156E0,1.055295086E1
6.267753161E0,-3.100500107E-1,6.454950333E0,1.132500076E1
6.287753161E0,4.639500082E-1,6.474000454E0,1.046595097E1
6.307753161E0,5.620500445E-1,6.412050247E0,8.845050812E0
6.327753161E0,5.080500245E-1,6.403950214E0,7.024950504E0
6.347753161E0,-1.075950027E0,5.574000359E0,8.138999939E0
6.367753161E0,-1.171950102E0,3.984000206E0,1.102305031E1
6.387753161E0,-1.225950003E0,3.177000046E0,1.269405079E1
6.407753161E0,-2.146950006E0,3.073050261E0,1.279305077E1
6.427753161E0,-3.000000238E0,3.112050056E0,1.195905018E1
6.447753161E0,-2.917050123E0,3.901950121E0,1.036905003E1
6.467753161E0,-1.320000052E0,4.677000046E0,8.863050461E0
6.487753161E0,-1.212000012E0,5.515050411E0,7.899000168E0
6.507753161E0,-4.969500303E-1,5.539950371E0,7.792950153E0
6.527753161E0,-4.620000124E-1,5.503950119E0,7.746000290E0
6.547753161E0,-3.660000265E-1,4.696050167E0,7.807950497E0
6.567753161E0,-2.209500074E-1,4.618950367E0,7.945950508E0
6.587753161E0,4.999500215E-1,4.573950291E0,8.055000305E0
6.607753161E0,4.410000145E-1,4.671000004E0,8.050950050E0
6.627753161E0,3.820500076E-1,4.747050285E0,7.984950542E0
6.647753161E0,3.510000110E-1,4.833000183E0,8.005050659E0
6.667753161E0,3.450000286E-1,4.918950081E0,8.109000206E0
6.687753161E0,3.589500189E-1,4.987050056E0,8.929050446E0
6.707753161E0,3.799500167E-1,5.073000431E0,8.913000107E0
6.727753161E0,4.450500309E-1,5.869950294E0,8.865000725E0
6.747753161E0,4.540500343E-1,5.938950062E0,8.778000832E0
6.767753161E0,4.080000222E-1,6.723000526E0,8.806050301E0
6.787753161E0,3.310500085E-1,6.750000477E0,9.598950386E0
6.807753161E0,3.409500122E-1,6.790050507E0,9.646950722E0
6.827753161E0,4.600500166E-1,6.721050262E0,9.565050125E0
6.847753161E0,3.810000122E-1,5.166000366E0,9.688950539E0
6.867753161E0,-5.119500160E-1,5.034000397E0,1.231500053E1
6.887753161E0,-2.370000124E0,4.918950081E0,1.474800110E1
6.907753161E0,-3.124050140E0,4.852950096E0,1.477095032E1
6.927753161E0,-2.251049995E0,4.045050144E0,1.273695087E1
6.947753161E0,-1.458000064E0,3.915000200E0,1.109895039E1
6.967753161E0,-1.329000115E0,3.087000132E0,1.121205044E1
6.987753161E0,-4.780500233E-1,3.078000069E0,1.130295086E1
7.007753161E0,3.000000119E-1,3.052050114E0,1.044600010E1
7.027753161E0,2.800500095E-1,3.045000076E0,1.030905056E1
7.047753161E0,2.680500150E-1,3.058050156E0,9.439949989E0
7.067753161E0,2.290500104E-1,3.054000139E0,8.707950592E0
7.087753161E0,1.830000132E-1,3.070050240E0,8.697000504E0
7.107753161E0,1.429500133E-1,3.091050148E0,8.698050499E0
7.127753161E0,1.200000048E-1,3.141000032E0,7.800000191E0
7.147753161E0,8.400000632E-2,3.945000172E0,7.696950436E0
7.167753161E0,3.900000080E-2,4.756950378E0,7.654050350E0
7.187753161E0,-7.540500164E-1,4.746000290E0,7.744050503E0
7.207753161E0,-7.570500374E-1,4.717950344E0,8.668050766E0
7.227753161E0,-7.330500484E-1,4.699050426E0,8.791049957E0
7.247753161E0,-7.579500079E-1,4.702950001E0,8.893050194E0
7.267753161E0,-8.890500665E-1,4.738950253E0,9.043950081E0
7.287753161E0,-1.567950130E0,4.867950439E0,9.739050865E0
7.307753161E0,-1.543950081E0,4.981050014E0,9.699000359E0
7.327753161E0,-1.522950053E0,5.059050083E0,9.700950623E0
7.347753161E0,-1.419000030E0,5.028000355E0,9.715050697E0
7.367753161E0,-6.049500108E-1,4.920000076E0,9.855000496E0
7.387753161E0,-5.929500461E-1,4.830000401E0,9.891000748E0
7.407753161E0,-6.520500183E-1,4.174050331E0,9.952950478E0
7.427753161E0,-7.000500560E-1,4.201950073E0,1.007805061E1
7.447753161E0,-7.939500213E-1,4.102950096E0,1.013895035E1
7.467753161E0,-1.594950080E0,3.267000198E0,1.109595013E1
7.487753161E0,-2.380050182E0,3.160950184E0,1.121100044E1
7.507753161E0,-3.199950218E0,2.389050007E0,1.189905071E1
7.527753161E0,-3.334050179E0,2.442000151E0,1.186005020E1
7.547753161E0,-4.087950230E0,2.499000072E0,1.026405048E1
7.567753161E0,-3.952950239E0,2.512050152E0,8.704050064E0
7.587753161E0,-3.208050251E0,2.452050209E0,8.569950104E0
7.607753161E0,-3.151950121E0,2.373000145E0,7.948050499E0
7.627753161E0,-2.335950136E0,1.492050052E0,8.059950829E0
7.647753161E0,-2.193000078E0,1.455000043E0,8.163000107E0
7.667753161E0,-2.038050175E0,1.446000099E0,8.239050865E0
7.687753161E0,-1.923000097E0,2.188050032E0,8.194950104E0
7.707753161E0,-1.866000056E0,2.274000168E0,8.227050781E0
7.727753161E0,-1.786950111E0,2.428050041E0,8.281949997E0
7.747753161E0,-8.710500598E-1,2.524050236E0,9.098999977E0
7.767753161E0,-5.295000225E-2,2.673000097E0,9.223950386E0
7.787753161E0,-5.295000225E-2,2.796000242E0,9.334950447E0
7.807753161E0,-1.005000062E-2,3.598050117E0,1.025100040E1
7.827753161E0,8.569500446E-1,3.688950062E0,1.108800030E1
7.847753161E0,1.648950100E0,3.789000273E0,1.117995071E1
7.867753161E0,2.431950092E0,3.813000202E0,1.207905102E1
7.887753161E0,2.332950115E0,3.769950151E0,1.392795086E1
7.907753161E0,2.269050121E0,3.697050095E0,1.556400108E1
7.927753161E0,2.332950115E0,3.733050108E0,1.480200100E1
7.947753161E0,2.302950144E0,4.560000420E0,1.283205032E1
7.967753161E0,1.404000044E0,4.509000301E0,1.284900093E1
7.987753161E0,3.979500234E-1,3.718950272E0,1.499805069E1
8.007753161E0,-4.159500301E-1,2.961000204E0,1.585605049E1
8.027753161E0,-4.240500331E-1,2.917950153E0,1.426305103E1
8.047753161E0,-3.960000277E-1,2.881050110E0,1.166700077E1
8.067753161E0,-3.010500073E-1,2.880000114E0,9.868950844E0
8.087753161E0,5.440500379E-1,2.844000101E0,9.837000847E0
8.107753161E0,6.030000448E-1,2.032950163E0,9.865950584E0
8.127753161E0,7.110000253E-1,1.990950108E0,9.876000404E0
8.147753161E0,7.849500179E-1,1.899000049E0,9.820950508E0
8.167753161E0,7.939500213E-1,1.858050108E0,9.730050087E0
8.187753161E0,7.500000596E-1,1.857000113E0,9.624000549E0
8.207753161E0,6.720000505E-1,1.876950145E0,8.822999954E0
8.227753161E0,5.890500546E-1,1.929000139E0,7.920000553E0
8.247753161E0,5.020500422E-1,2.763000250E0,7.096950531E0
8.267753161E0,4.270500243E-1,2.815050125E0,7.149000168E0
8.287753161E0,4.039500058E-1,2.893050194E0,7.165050507E0
8.307753161E0,3.739500046E-1,3.676950216E0,8.067000389E0
8.327753161E0,3.160500228E-1,3.775050163E0,8.827050209E0
8.347753161E0,1.590000093E-1,3.922950268E0,9.669000626E0
8.367753161E0,6.000000052E-3,4.789950371E0,9.780000687E0
8.387753161E0,-8.149500489E-1,4.740000248E0,9.808950424E0
8.407753161E0,-8.950500488E-1,4.675050259E0,9.897000313E0
8.427753161E0,-9.589500427E-1,4.554000378E0,9.979050636E0
8.447753161E0,-9.300000668E-1,4.486050129E0,9.982950211E0
8.467753161E0,-9.450000525E-1,4.555050373E0,9.936000824E0
8.487753161E0,-9.390000701E-1,5.379000187E0,9.105000496E0
8.507753161E0,-9.510000348E-1,5.386950493E0,9.091950417E0
8.527753161E0,-9.670500755E-1,5.271000385E0,9.949950218E0
8.547753161E0,-1.069050074E0,4.422000408E0,1.180695057E1
8.567753161E0,-1.908000112E0,4.291950226E0,1.339395046E1
8.587753161E0,-2.005050182E0,4.180050373E0,1.336305046E1
8.607753161E0,-3.703050137E0,4.134000301E0,1.324305058E1
8.627753161E0,-3.727950096E0,4.207050323E0,1.236405087E1
8.647753161E0,-3.711000204E0,4.308000088E0,1.001505089E1
8.667753161E0,-2.833050251E0,4.315950394E0,8.409000397E0
8.687753161E0,-2.047049999E0,4.237050056E0,7.516050339E0
8.707753161E0,-1.936050057E0,3.528000116E0,6.720000267E0
8.727753161E0,-1.106999993E0,3.481950283E0,6.607050419E0
8.747753161E0,-1.113000035E0,3.436050177E0,6.505950451E0
8.767753161E0,-1.101000071E0,3.406950235E0,6.463050365E0
8.787753161E0,-1.003050089E0,3.418950081E0,6.502050400E0
8.807753161E0,-8.680500388E-1,3.442050219E0,6.619050503E0
8.827753161E0,-8.595000207E-2,3.484050274E0,7.303950310E0
8.847753161E0,-4.800000042E-2,3.529950142E0,7.252050400E0
8.867753161E0,-2.295000106E-2,3.658050060E0,7.231050491E0
8.887753161E0,-1.095000096E-2,4.605000019E0,8.308950424E0
8.907753161E0,4.395000264E-2,4.711050034E0,9.919950485E0
8.927753161E0,8.880000710E-1,4.780050278E0,1.003095055E1
8.947753161E0,9.979500771E-1,4.746000290E0,1.180395031E1
8.967753161E0,1.792950034E0,4.738050461E0,1.345305061E1
8.987753161E0,1.921950102E0,4.743000031E0,1.513605118E1
9.007753161E0,1.986000061E0,4.803000450E0,1.507005024E1
9.027753161E0,1.102950096E0,4.867950439E0,1.584405041E1
9.047753161E0,3.280500174E-1,4.005000114E0,1.783905029E1
9.067753161E0,-4.410000145E-1,3.153000116E0,1.934895134E1
9.087753161E0,-3.970500231E-1,2.488050222E0,1.558095074E1
9.107753161E0,-3.109500110E-1,2.629050016E0,1.150095081E1
9.127753161E0,5.959500074E-1,3.421050072E0,9.862950325E0
9.147753161E0,6.259500384E-1,3.465000153E0,9.064949989E0
9.167753161E0,6.780000329E-1,3.397950172E0,9.054000854E0
9.187753161E0,6.810000539E-1,3.276000261E0,9.004950523E0
9.207753161E0,7.110000253E-1,2.532000065E0,8.986950874E0
9.227753161E0,7.060500383E-1,2.491950035E0,8.893950462E0
9.247753161E0,6.580500603E-1,2.467050076E0,8.145000458E0
9.267753161E0,6.000000238E-1,2.455950022E0,8.014050484E0
9.287753161E0,5.569500327E-1,2.485050201E0,7.936950207E0
9.307753161E0,5.279999971E-1,2.599050045E0,7.830000401E0
9.327753161E0,4.609500170E-1,3.396000147E0,7.108050346E0
9.347753161E0,3.570000231E-1,3.504000187E0,7.165950298E0
9.367753161E0,2.380500138E-1,4.234050274E0,7.987950325E0
9.387753161E0,1.369500011E-1,4.234950066E0,8.842050552E0
9.407753161E0,5.400000140E-2,4.190999985E0,9.676950455E0
9.427753161E0,-4.095000029E-2,4.134000301E0,9.696000099E0
9.447753161E0,-9.900000691E-2,4.072950363E0,9.718050003E0
9.467753161E0,-1.720500141E-1,3.985050201E0,9.751049995E0
9.487753161E0,-2.929500043E-1,3.952950239E0,9.841050148E0
9.507753161E0,-1.048950076E0,4.018949986E0,9.916950226E0
9.527753161E0,-1.048050046E0,4.147050381E0,9.901950836E0
9.547753161E0,-1.054050088E0,4.956000328E0,9.807000160E0
9.567753161E0,-1.092000008E0,5.038050175E0,9.007950783E0
9.587753161E0,-1.183950067E0,5.029950142E0,9.826950073E0
9.607753161E0,-1.308000088E0,4.206000328E0,1.068495083E1
9.627753161E0,-2.092050076E0,4.089000225E0,1.317900085E1
9.647753161E0,-2.161950111E0,3.234000206E0,1.403205109E1
9.667753161E0,-2.254950047E0,3.169950247E0,1.399500084E1
9.687753161E0,-2.335950136E0,3.102000237E0,1.309695053E1
9.707753161E0,-2.365050077E0,3.082950115E0,1.208700085E1
9.727753161E0,-2.329950094E0,3.121050119E0,1.011405087E1
9.747753161E0,-2.247000217E0,3.163050175E0,8.457000732E0
9.767753161E0,-2.130000114E0,3.250050068E0,7.609050274E0
9.787753161E0,-1.999050140E0,3.358050108E0,6.601950169E0
9.807753161E0,-1.200000048E0,3.391050100E0,6.550950527E0
9.827753161E0,-3.979500234E-1,3.393000126E0,6.490050316E0
9.847753161E0,-3.270000219E-1,3.351000071E0,6.475950241E0
9.867753161E0,4.909500182E-1,3.348000050E0,6.541050434E0
9.887753161E0,5.119500160E-1,3.367950201E0,6.661050320E0
9.907753161E0,5.590500236E-1,4.330950260E0,7.486950397E0
9.927753161E0,6.289500594E-1,4.361999989E0,7.528050423E0
9.947753161E0,6.439500451E-1,4.492050171E0,8.298000336E0
9.967753161E0,1.486950040E0,5.412000179E0,8.302950859E0
9.987753161E0,1.491000056E0,5.428050041E0,8.281949997E0
1.000775316E1,1.437000036E0,5.353950024E0,9.784050941E0
1.002775316E1,1.276950002E0,4.258049965E0,1.491300106E1
1.004775316E1,1.321050048E0,4.213050365E0,1.657695007E1
1.006775316E1,1.305000067E0,4.132950306E0,1.581195068E1
1.008775316E1,2.680500150E-1,3.328950167E0,1.663800049E1
1.010775316E1,-1.321050048E0,3.243000269E0,1.758705139E1
1.012775316E1,-1.432050109E0,2.403000116E0,1.834395027E1
1.014775316E1,-1.498050094E0,2.376000166E0,1.568295097E1
1.016775316E1,-1.438950062E0,2.341050148E0,1.376100063E1
1.018775316E1,-6.499500275E-1,2.299950123E0,1.218000031E1
1.020775316E1,-6.439500451E-1,2.299950123E0,1.140705013E1
1.022775316E1,-5.779500008E-1,2.248050213E0,1.055100060E1
1.024775316E1,-4.930500090E-1,2.200950146E0,9.105000496E0
1.026775316E1,-3.709500134E-1,2.113049984E0,8.992950439E0
1.028775316E1,-2.820000052E-1,2.017950058E0,8.182050705E0
1.030775316E1,-2.020500153E-1,1.933050036E0,7.405950546E0
1.032775316E1,-1.219500080E-1,1.861950040E0,7.293000221E0
1.034775316E1,-4.200000316E-2,1.861050129E0,6.490050316E0
1.036775316E1,-4.050000105E-3,1.942050099E0,6.549000263E0
1.038775316E1,-7.905000448E-2,2.794050217E0,6.583950520E0
1.040775316E1,-8.310000300E-1,3.559950113E0,6.693000317E0
1.042775316E1,-9.690000415E-1,3.669000149E0,8.337000847E0
1.044775316E1,-1.848000050E0,4.486050129E0,9.127950668E0
1.046775316E1,-1.948050141E0,4.462050438E0,1.000695038E1
1.048775316E1,-2.809050083E0,4.372950077E0,1.163100052E1
1.050775316E1,-2.773050070E0,4.243050098E0,1.170195103E1
1.052775316E1,-2.718000174E0,3.516000271E0,1.164900017E1
1.054775316E1,-2.701950073E0,3.562050104E0,1.082595062E1
1.056775316E1,-2.644950151E0,3.619950056E0,1.078605080E1
1.058775316E1,-1.803000093E0,3.715950251E0,1.069200039E1
1.060775316E1,-1.831050038E0,4.498050213E0,9.948000908E0
1.062775316E1,-1.872000098E0,4.602000237E0,9.931050301E0
1.064775316E1,-1.893000126E0,4.687950134E0,9.985950470E0
1.066775316E1,-1.896000147E0,3.931050301E0,1.003995037E1
1.068775316E1,-1.912050128E0,3.849000216E0,1.100895023E1
1.070775316E1,-1.947000146E0,3.031950235E0,1.186500072E1
1.072775316E1,-2.032050133E0,2.280000210E0,1.264200020E1
1.074775316E1,-2.080950022E0,2.287950039E0,1.272900105E1
1.076775316E1,-2.128050089E0,2.328000069E0,1.169595051E1
1.078775316E1,-2.145000219E0,2.440050125E0,1.006905079E1
1.080775316E1,-2.128950119E0,3.172050238E0,8.875950813E0
1.082775316E1,-2.041949987E0,3.216000080E0,8.020050049E0
1.084775316E1,-1.273050070E0,3.216000080E0,7.966050148E0
1.086775316E1,-1.240950108E0,3.264000177E0,7.188000202E0
1.088775316E1,-1.159050107E0,3.294000149E0,7.185000420E0
1.090775316E1,-1.039050102E0,3.322050095E0,7.177050114E0
1.092775316E1,-3.360000253E-1,3.403050184E0,7.159950256E0
1.094775316E1,-2.910000086E-1,3.544950247E0,7.186050415E0
1.096775316E1,-2.760000229E-1,4.260000229E0,7.284000397E0
1.098775316E1,-2.850000262E-1,4.282050133E0,7.423950195E0
1.100775316E1,-2.689500153E-1,4.356000423E0,8.235000610E0
1.102775316E1,-1.999500096E-1,4.407000065E0,9.045000076E0
1.104775316E1,-9.405000508E-2,4.482000351E0,9.064949989E0
1.106775316E1,1.500000060E-2,4.537050247E0,9.210000038E0
1.108775316E1,3.195000067E-2,4.510050297E0,1.079595089E1
1.110775316E1,-2.595000155E-2,4.473000050E0,1.257105064E1
1.112775316E1,-1.279500127E-1,4.416000366E0,1.435395050E1
1.114775316E1,-1.540500075E-1,4.462950230E0,1.353195095E1
1.116775316E1,-1.084950089E0,4.467000008E0,1.271505070E1
1.118775316E1,-1.122000098E0,4.321050167E0,1.451205063E1
1.120775316E1,-1.200000048E0,3.465000153E0,1.528305054E1
1.122775316E1,-1.189050078E0,3.397050142E0,1.344900036E1
1.124775316E1,-1.123950005E0,3.403050184E0,1.164705086E1
1.126775316E1,-1.009050012E0,3.457950115E0,1.085400009E1
1.128775316E1,-2.250000089E-1,3.463950157E0,1.013400078E1
1.130775316E1,-2.020500153E-1,3.391950130E0,1.010205078E1
1.132775316E1,-1.990500093E-1,2.599050045E0,1.005105019E1
1.134775316E1,-1.980000138E-1,2.542050123E0,1.000905037E1
1.136775316E1,-1.939500123E-1,2.469000101E0,1.000800037E1
1.138775316E1,-1.990500093E-1,2.389050007E0,1.006905079E1
1.140775316E1,-1.690500081E-1,2.239050150E0,1.014300060E1
1.142775316E1,-9.195000678E-2,2.109000206E0,9.315000534E0
1.144775316E1,-4.500000179E-2,2.103000164E0,8.235000610E0
1.146775316E1,-1.800000109E-2,2.928000212E0,6.631950378E0
1.148775316E1,-3.105000220E-2,3.852000237E0,6.562950134E0
1.150775316E1,-1.305000018E-2,4.699050426E0,7.501950264E0
1.152775316E1,9.000000358E-2,4.753950119E0,8.263950348E0
1.154775316E1,9.405000508E-2,4.854000092E0,9.052950859E0
1.156775316E1,4.395000264E-2,5.605050087E0,9.160050392E0
1.158775316E1,-2.895000204E-2,5.592000484E0,1.088100052E1
1.160775316E1,-1.579500139E-1,5.509050369E0,1.168200016E1
1.162775316E1,-2.950500250E-1,5.428950310E0,1.174005032E1
1.164775316E1,-4.279500246E-1,4.648950100E0,1.170795059E1
1.166775316E1,-4.609500170E-1,4.626000404E0,1.083900070E1
1.168775316E1,-5.500500202E-1,4.657050133E0,1.008795071E1
1.170775316E1,-1.492050052E0,4.714950085E0,1.008600044E1
1.172775316E1,-2.256000042E0,4.789050102E0,1.017405033E1
1.174775316E1,-2.329950094E0,4.672950268E0,1.105605030E1
1.176775316E1,-2.409000158E0,3.901950121E0,1.111995029E1
1.178775316E1,-3.190950155E0,3.801000118E0,1.121505070E1
1.180775316E1,-4.047000408E0,3.792000294E0,1.117905045E1
1.182775316E1,-4.117050171E0,3.775050163E0,1.015395069E1
1.184775316E1,-4.078050137E0,3.778950214E0,1.003905010E1
1.186775316E1,-3.306000233E0,3.763050079E0,8.443950653E0
1.188775316E1,-3.186000109E0,3.762000084E0,7.473000526E0
1.190775316E1,-3.025950193E0,3.787050247E0,6.678000450E0
1.192775316E1,-2.282999992E0,3.798000097E0,6.609000206E0
1.194775316E1,-2.176050186E0,3.733950138E0,6.484050274E0
1.196775316E1,-1.167000055E0,3.661050081E0,5.520000458E0
1.198775316E1,-1.026000023E0,3.571950197E0,5.467050076E0
1.200775316E1,-3.409500122E-1,3.547950268E0,5.515050411E0
1.202775316E1,-3.880500197E-1,4.351050377E0,5.641050339E0
1.204775316E1,-4.519500136E-1,4.393949986E0,6.427050114E0
1.206775316E1,-4.440000355E-1,4.437000275E0,8.100000381E0
1.208775316E1,-3.559500277E-1,4.471950054E0,8.902950287E0
1.210775316E1,-2.820000052E-1,4.545000076E0,9.708000183E0
1.212775316E1,-2.220000178E-1,4.651950359E0,1.054305077E1
1.214775316E1,-1.230000034E-1,5.446950436E0,1.215105057E1
1.216775316E1,-7.605000585E-2,5.329950333E0,1.394205093E1
1.218775316E1,-9.000000544E-3,5.218050480E0,1.556805038E1
1.220775316E1,9.495000541E-2,5.140050411E0,1.546500111E1
1.222775316E1,7.095000148E-2,5.017050266E0,1.458900070E1
1.224775316E1,-7.270500064E-1,4.213950157E0,1.639005089E1
1.226775316E1,-1.662000060E0,4.093050003E0,1.715295029E1
1.228775316E1,-1.636050105E0,3.339000225E0,1.631700134E1
1.230775316E1,-1.578000069E0,3.352950096E0,1.289100075E1
1.232775316E1,-1.494000077E0,3.354000092E0,1.039095020E1
1.234775316E1,-6.739500165E-1,3.322950125E0,1.028205013E1
1.236775316E1,-5.770500302E-1,3.189000130E0,1.017300034E1
1.238775316E1,-4.360500276E-1,2.368950129E0,1.008795071E1
1.240775316E1,-3.030000031E-1,2.226000071E0,9.334950447E0
1.242775316E1,-2.089500129E-1,1.377000093E0,9.219000816E0
1.244775316E1,-1.720500141E-1,1.450950027E0,9.082950592E0
1.246775316E1,-1.819500029E-1,1.506000042E0,8.233950615E0
1.248775316E1,-1.990500093E-1,1.560000062E0,7.462950230E0
1.250775316E1,-1.920000017E-1,1.687950134E0,7.333950520E0
1.252775316E1,-2.250000089E-1,2.413050175E0,6.525000095E0
1.254775316E1,-3.289500177E-1,3.213000059E0,6.468000412E0
1.256775316E1,-1.221000075E0,3.246000051E0,7.255950451E0
1.258775316E1,-1.279950023E0,4.048950195E0,7.362000465E0
1.260775316E1,-2.041949987E0,4.021950245E0,8.191050529E0
1.262775316E1,-1.999050140E0,4.060950279E0,9.015000343E0
1.264775316E1,-1.992000103E0,4.054049969E0,9.172950745E0
1.266775316E1,-2.023950100E0,4.026000023E0,1.016505051E1
1.268775316E1,-2.083950043E0,3.925050259E0,1.096395016E1
1.270775316E1,-2.092050076E0,3.850050211E0,1.176195049E1
1.272775316E1,-2.109000206E0,3.931950092E0,1.166505051E1
1.274775316E1,-2.194950104E0,4.681950092E0,1.089195061E1
1.276775316E1,-2.248050213E0,4.750950336E0,1.086405087E1
1.278775316E1,-2.350950003E0,4.702050209E0,1.167795086E1
1.280775316E1,-3.160050154E0,3.945000172E0,1.250895023E1
1.282775316E1,-3.123000145E0,3.837000132E0,1.345305061E1
1.284775316E1,-3.096000195E0,3.046950102E0,1.349400043E1
1.286775316E1,-3.034050226E0,2.913000107E0,1.343205070E1
1.288775316E1,-2.914950132E0,2.836950064E0,1.190895081E1
1.290775316E1,-2.092950106E0,2.848950148E0,1.026195049E1
1.292775316E1,-2.056050062E0,2.968950033E0,8.523000717E0
1.294775316E1,-2.008050203E0,3.766050100E0,7.555050373E0
1.296775316E1,-2.047950029E0,3.901050091E0,6.877950191E0
1.298775316E1,-2.067000151E0,3.994050264E0,6.922950268E0
1.300775316E1,-2.023950100E0,4.011000156E0,6.982050419E0
1.302775316E1,-1.890000105E0,3.979050159E0,6.976950169E0
1.304775316E1,-1.069050074E0,3.948000193E0,6.990000248E0
1.306775316E1,-2.749500275E-1,3.930000305E0,7.033050537E0
1.308775316E1,-2.370000184E-1,3.982050180E0,7.066050529E0
1.310775316E1,-1.650000066E-1,4.026000023E0,7.105950356E0
1.312775316E1,-1.249500066E-1,4.114050388E0,7.882950306E0
1.314775316E1,-9.600000083E-2,4.201050282E0,8.955000877E0
1.316775316E1,-1.605000161E-2,4.308000088E0,9.021000862E0
1.318775316E1,1.120500043E-1,4.413000107E0,9.889050484E0
1.320775316E1,9.220500588E-1,4.402050018E0,9.991950035E0
1.322775316E1,9.049500227E-1,4.350000381E0,1.237905025E1
1.324775316E1,8.149500489E-1,4.216050148E0,1.396095085E1
1.326775316E1,7.270500064E-1,4.143000126E0,1.473405075E1
1.328775316E1,-3.600000218E-2,4.212000370E0,1.466295052E1
1.330775316E1,-9.720000625E-1,4.863000393E0,1.465905094E1
1.332775316E1,-1.912950039E0,3.327000141E0,1.569795036E1
1.334775316E1,-1.900950074E0,3.222000122E0,1.564995098E1
1.336775316E1,-2.026950121E0,3.189000130E0,1.415805054E1
1.338775316E1,-2.161950111E0,3.994950294E0,1.235400105E1
1.340775316E1,-2.134950161E0,4.060050011E0,9.610950470E0
1.342775316E1,-5.670000315E-1,3.234000206E0,8.752050400E0
1.344775316E1,-4.440000355E-1,3.199050188E0,8.661000252E0
1.346775316E1,2.910000086E-1,2.329950094E0,8.721000671E0
1.348775316E1,3.120000064E-1,2.281050205E0,8.761050224E0
1.350775316E1,3.370500207E-1,2.185950041E0,8.826000214E0
1.352775316E1,3.640500307E-1,1.242000103E0,9.568950653E0
1.354775316E1,4.390500188E-1,1.326000094E0,9.559050560E0
1.356775316E1,5.569500327E-1,2.182950020E0,8.581050873E0
1.358775316E1,6.370500326E-1,2.295000076E0,7.825950146E0
1.360775316E1,7.110000253E-1,3.087000132E0,7.762950420E0
1.362775316E1,6.850500107E-1,3.880950212E0,7.807950497E0
1.364775316E1,-7.395000011E-2,4.668000221E0,9.393000603E0
1.366775316E1,-8.400000632E-2,4.726950169E0,9.492000580E0
1.368775316E1,-8.700000495E-2,4.705049992E0,9.568050385E0
1.370775316E1,-1.669500023E-1,4.606950283E0,1.037100029E1
1.372775316E1,-9.559500217E-1,4.480950356E0,1.118700027E1
1.374775316E1,-1.102950096E0,4.393050194E0,1.200405025E1
1.376775316E1,-2.008949995E0,4.357950211E0,1.206195068E1
1.378775316E1,-2.722950220E0,4.328999996E0,1.209300041E1
1.380775316E1,-1.908000112E0,4.302000046E0,1.129395008E1
1.382775316E1,-1.930050135E0,4.417950153E0,1.051800060E1
1.384775316E1,-1.933050036E0,4.570050240E0,9.748950005E0
1.386775316E1,-1.878000140E0,5.296050072E0,8.983950615E0
1.388775316E1,-1.804050088E0,5.277000427E0,8.875050545E0
1.390775316E1,-1.708050132E0,5.211000443E0,8.763000488E0
1.392775316E1,-1.660050035E0,5.103000164E0,8.763000488E0
1.394775316E1,-1.678050041E0,4.984050274E0,8.824950218E0
1.396775316E1,-1.717950106E0,4.239000320E0,8.926950455E0
1.398775316E1,-1.723050117E0,4.228950024E0,9.061050415E0
1.400775316E1,-1.746000051E0,4.246050358E0,9.154950142E0
1.402775316E1,-1.719000101E0,4.348050117E0,9.096000671E0
1.404775316E1,-1.651950121E0,4.477950096E0,8.236050606E0
1.406775316E1,-1.591950059E0,4.618950367E0,8.113950729E0
1.408775316E1,-1.536000013E0,5.472000122E0,8.053050041E0
1.410775316E1,-1.479000092E0,5.490000248E0,8.064000130E0
1.412775316E1,-1.357950091E0,5.482050419E0,8.043000221E0
1.414775316E1,-5.460000038E-1,5.485950470E0,7.920000553E0
1.416775316E1,-4.600500166E-1,5.545050144E0,7.831950188E0
1.418775316E1,-3.700500131E-1,5.622000217E0,7.813050270E0
1.420775316E1,-2.710500062E-1,5.728950500E0,7.894950390E0
1.422775316E1,-1.990500093E-1,5.785950184E0,8.734050751E0
1.424775316E1,-9.105000645E-2,5.841000080E0,8.872950554E0
1.426775316E1,6.319500208E-1,5.923950195E0,8.974950790E0
1.428775316E1,6.400500536E-1,6.039000511E0,9.723000526E0
1.430775316E1,5.590500236E-1,6.154950142E0,1.057395077E1
1.432775316E1,4.360500276E-1,6.202950478E0,1.154295063E1
1.434775316E1,3.820500076E-1,6.262950420E0,1.241805077E1
1.436775316E1,4.200000167E-1,6.391950130E0,1.152600098E1
1.438775316E1,3.540000021E-1,6.517050266E0,9.895950317E0
1.440775316E1,2.449500114E-1,6.622050285E0,9.829050064E0
1.442775316E1,1.530000120E-1,5.683050156E0,1.160595036E1
1.444775316E1,1.170000061E-1,4.858950138E0,1.245195103E1
1.446775316E1,8.295000345E-2,4.810950279E0,1.160595036E1
1.448775316E1,6.795000285E-2,4.912050247E0,9.076950073E0
1.450775316E1,1.189500093E-1,5.011950016E0,7.185000420E0
1.452775316E1,2.569500208E-1,5.014950275E0,7.174050331E0
1.454775316E1,3.780000210E-1,4.924950123E0,7.276950359E0
1.456775316E1,4.480500221E-1,3.991050243E0,8.146950722E0
1.458775316E1,5.310000181E-1,3.240000248E0,8.226000786E0
1.460775316E1,5.419500470E-1,3.238950253E0,8.284049988E0
1.462775316E1,4.360500276E-1,3.283950090E0,8.332950592E0
1.464775316E1,3.630000055E-1,3.391950130E0,8.266950607E0
1.466775316E1,2.860500216E-1,3.517950058E0,7.435950279E0
1.468775316E1,2.410500050E-1,4.312050343E0,6.724050522E0
1.470775316E1,1.450500041E-1,4.402950287E0,6.784950256E0
1.472775316E1,7.950000465E-3,5.178000450E0,7.639950275E0
1.474775316E1,-7.390500307E-1,5.157000065E0,8.443050385E0
1.476775316E1,-7.410000563E-1,5.955000401E0,9.250050545E0
1.478775316E1,-1.600050092E0,5.965050220E0,9.318000793E0
1.480775316E1,-2.412000179E0,6.751950264E0,9.451950073E0
1.482775316E1,-2.449950218E0,7.668000221E0,1.015200043E1
1.484775316E1,-1.576950073E0,7.782000542E0,9.201000214E0
1.486775316E1,-1.069500074E-1,7.693050385E0,7.612950325E0
1.488775316E1,-2.805000171E-2,6.865050316E0,7.669050217E0
1.490775316E1,7.095000148E-2,6.060000420E0,9.517050743E0
1.492775316E1,4.995000362E-2,5.977050304E0,9.574050903E0
1.494775316E1,-4.095000029E-2,5.920050144E0,9.640050888E0
1.496775316E1,-8.239500523E-1,5.125950336E0,1.047195053E1
1.498775316E1,-9.220500588E-1,4.081950188E0,1.152300072E1
1.500775316E1,-9.949500561E-1,3.154050112E0,1.323495102E1
1.502775316E1,-1.062000036E0,2.389950037E0,1.411095047E1
1.504775316E1,-1.845000029E0,2.326950073E0,1.330500031E1
1.506775316E1,-1.929000139E0,2.406000137E0,1.245600033E1
1.508775316E1,-1.969950080E0,2.521050215E0,1.080300045E1
1.510775316E1,-1.893000126E0,2.641050100E0,8.818950653E0
1.512775316E1,-9.780000448E-1,2.748000145E0,6.976050377E0
1.514775316E1,-2.200500071E-1,2.877000093E0,6.819000244E0
1.516775316E1,-2.179500163E-1,3.681000233E0,6.151050091E0
1.518775316E1,-2.389500141E-1,3.705000162E0,6.976950169E0
1.520775316E1,-2.770500183E-1,3.786000252E0,7.081950188E0
1.522775316E1,-2.580000162E-1,3.853050232E0,7.225950241E0
1.524775316E1,-2.029500157E-1,3.979950190E0,7.945950508E0
1.526775316E1,-1.319999993E-1,4.719000340E0,7.923000336E0
1.528775316E1,-1.950000064E-3,4.747950077E0,8.032950401E0
1.530775316E1,5.700000376E-2,4.834050179E0,8.789999962E0
1.532775316E1,7.905000448E-2,5.581050396E0,8.911950111E0
1.534775316E1,1.960500032E-1,5.527950287E0,9.736050606E0
1.536775316E1,9.580500722E-1,5.437950134E0,9.810000420E0
1.538775316E1,1.027050018E0,5.335050106E0,1.144305038E1
1.540775316E1,1.072950006E0,5.178000450E0,1.238700104E1
1.542775316E1,1.117050052E0,5.089950085E0,1.313505077E1
1.544775316E1,1.108950019E0,5.887950420E0,1.307205105E1
1.546775316E1,3.160500228E-1,5.938950062E0,1.302795029E1
1.548775316E1,-1.431000113E0,5.131050110E0,1.545105076E1
1.550775316E1,-1.567050099E0,3.354000092E0,1.710105133E1
1.552775316E1,-1.345950007E0,3.295050144E0,1.558695030E1
1.554775316E1,-1.264950037E0,3.175050259E0,1.249395084E1
1.556775316E1,-4.789500237E-1,3.031950235E0,1.172295094E1
1.558775316E1,-4.279500246E-1,2.295000076E0,1.173195076E1
1.560775316E1,-3.460500240E-1,2.218950033E0,1.176000023E1
1.562775316E1,-2.890500128E-1,2.104950190E0,1.170300102E1
1.564775316E1,-2.269500047E-1,1.354950070E0,1.157895088E1
1.566775316E1,-1.810500026E-1,1.309050083E0,1.146600056E1
1.568775316E1,-1.750500053E-1,1.258050084E0,1.068795013E1
1.570775316E1,-2.050500065E-1,1.336050034E0,8.791049957E0
1.572775316E1,-2.650500238E-1,2.092950106E0,7.882950306E0
1.574775316E1,-3.810000122E-1,3.016050100E0,6.229950428E0
1.576775316E1,-3.679500222E-1,3.826050282E0,6.133050442E0
1.578775316E1,-3.040500283E-1,3.937950134E0,6.043050289E0
1.580775316E1,-2.610000074E-1,4.019999981E0,6.130950451E0
1.582775316E1,-2.200500071E-1,4.758000374E0,7.164000511E0
1.584775316E1,-2.580000162E-1,4.741050243E0,8.853000641E0
1.586775316E1,-9.889500737E-1,4.855050087E0,8.929950714E0
1.588775316E1,-8.920500278E-1,5.599050045E0,8.808000565E0
1.590775316E1,-8.220000267E-1,5.611050129E0,8.110050201E0
1.592775316E1,-7.759500146E-1,5.503950119E0,9.043050766E0
1.594775316E1,-7.950000167E-1,5.407950401E0,9.148050308E0
1.596775316E1,-7.980000377E-1,5.422050476E0,9.237000465E0
1.598775316E1,-8.530500531E-1,6.334950447E0,8.491050720E0
1.600775316E1,-9.600000381E-1,6.454950333E0,6.792000294E0
1.602775316E1,-1.048950076E0,6.556950092E0,6.787050247E0
1.604775316E1,-1.936950088E0,6.444000244E0,1.005600071E1
1.606775316E1,-2.896950245E0,4.582950115E0,1.267500019E1
1.608775316E1,-3.754050255E0,4.489050388E0,1.446705055E1
1.610775316E1,-3.768000126E0,4.369950294E0,1.452195072E1
1.612775316E1,-2.971050024E0,3.481050253E0,1.350105095E1
1.614775316E1,-2.943000078E0,3.555000067E0,1.267500019E1
1.616775316E1,-2.887950182E0,4.432050228E0,1.024005032E1
1.618775316E1,-2.868000031E0,4.534049988E0,8.505000114E0
1.620775316E1,-2.805000067E0,4.677000046E0,7.590000153E0
1.622775316E1,-2.659950018E0,4.756950378E0,6.697050095E0
1.624775316E1,-1.894950032E0,4.765050411E0,6.631050110E0
1.626775316E1,-9.180000424E-1,4.702050209E0,5.875050068E0
1.628775316E1,-8.910000324E-1,4.578000069E0,5.824950218E0
1.630775316E1,-1.069500074E-1,4.503000259E0,5.815050125E0
1.632775316E1,-2.805000171E-2,4.467000008E0,5.824950218E0
1.634775316E1,6.495000422E-2,4.495950222E0,6.567000389E0
1.636775316E1,1.350000054E-1,4.539000034E0,7.345050335E0
1.638775316E1,2.239500135E-1,4.572000027E0,8.245050430E0
1.640775316E1,9.799500704E-1,4.641000271E0,9.025050163E0
1.642775316E1,1.108950019E0,4.701000214E0,9.037950516E0
1.644775316E1,1.849050045E0,4.736999989E0,9.832950592E0
1.646775316E1,1.855050087E0,4.687050343E0,1.148505020E1
1.648775316E1,1.015050054E0,4.636050224E0,1.402500057E1
1.650775316E1,9.730500579E-1,4.615050316E0,1.563195038E1
1.652775316E1,1.759500057E-1,4.543050289E0,1.572495079E1
1.654775316E1,1.050000042E-1,4.449000359E0,1.584900093E1
1.656775316E1,-7.669500113E-1,4.345950127E0,1.597905064E1
1.658775316E1,-1.579050064E0,3.568050146E0,1.599495029E1
1.660775316E1,-1.575000048E0,3.478950262E0,1.518795109E1
1.662775316E1,-6.810000539E-1,3.381000042E0,1.328595066E1
1.664775316E1,-5.670000315E-1,3.286050081E0,1.131795025E1
1.666775316E1,1.789500117E-1,2.488050222E0,1.050105095E1
1.668775316E1,2.490000129E-1,2.494950056E0,1.035795021E1
1.670775316E1,3.540000021E-1,2.428950071E0,1.022805023E1
1.672775316E1,4.570500255E-1,2.284950018E0,9.424050331E0
1.674775316E1,4.690500200E-1,2.137950182E0,9.355050087E0
1.676775316E1,4.600500166E-1,1.407000065E0,8.578950882E0
1.678775316E1,4.339500070E-1,1.464000106E0,8.530950546E0
1.680775316E1,3.559500277E-1,1.588050127E0,7.510950565E0
1.682775316E1,2.920500040E-1,1.731000066E0,6.666000366E0
1.684775316E1,2.059500068E-1,2.511000156E0,6.003000259E0
1.686775316E1,8.805000782E-2,3.373950243E0,6.780000210E0
1.688775316E1,3.195000067E-2,3.468000174E0,6.726000309E0
1.690775316E1,2.295000106E-2,4.323000431E0,6.610950470E0
1.692775316E1,-7.909500599E-1,5.136000156E0,6.640950203E0
1.694775316E1,-1.647000074E0,5.245050430E0,9.175950050E0
1.696775316E1,-1.759950042E0,5.250000477E0,1.277595043E1
1.698775316E1,-1.720950127E0,3.619050264E0,1.391295052E1
1.700775316E1,-8.790000677E-1,2.704050064E0,1.395105076E1
1.702775316E1,-7.500000596E-1,2.590950012E0,1.293795109E1
1.704775316E1,-6.289500594E-1,2.568000078E0,1.216200066E1
1.706775316E1,-5.290500522E-1,2.608050108E0,1.063395023E1
1.708775316E1,1.879500151E-1,2.704050064E0,1.057005024E1
1.710775316E1,1.045050025E0,2.802000046E0,9.852000237E0
1.712775316E1,1.129050016E0,2.896050215E0,9.955950737E0
1.714775316E1,1.155000091E0,2.919000149E0,1.157100010E1
1.716775316E1,1.045050025E0,2.869050026E0,1.251495075E1
1.718775316E1,1.650000066E-1,2.770050049E0,1.332600021E1
1.720775316E1,-6.640500426E-1,2.640000105E0,1.406505108E1
1.722775316E1,-1.468050122E0,2.563950062E0,1.320600033E1
1.724775316E1,-1.576950073E0,2.586000204E0,1.241205025E1
1.726775316E1,-1.615950108E0,2.649000168E0,1.050900078E1
1.728775316E1,-1.531950116E0,2.731050014E0,8.731050491E0
1.730775316E1,-7.459500432E-1,2.848950148E0,7.690950394E0
1.732775316E1,-6.649500132E-1,2.956950188E0,6.933000565E0
1.734775316E1,-5.479500294E-1,3.082950115E0,6.817050457E0
1.736775316E1,-4.759500325E-1,3.141000032E0,6.775050163E0
1.738775316E1,-4.099500179E-1,3.210000038E0,6.768000126E0
1.740775316E1,-3.270000219E-1,3.303000212E0,6.813000202E0
1.742775316E1,-2.040000111E-1,3.412950277E0,6.796050549E0
1.744775316E1,-8.895000070E-2,4.195950031E0,6.822000504E0
1.746775316E1,6.000000052E-3,4.219050407E0,6.943950176E0
1.748775316E1,1.369500011E-1,4.270050049E0,7.677000523E0
1.750775316E1,9.000000358E-1,4.390950203E0,7.789950371E0
1.752775316E1,1.012050033E0,4.531949997E0,7.930050373E0
1.754775316E1,1.801050067E0,4.636050224E0,8.805000305E0
1.756775316E1,1.893000126E0,4.716000080E0,9.600000381E0
1.758775316E1,1.929000139E0,4.741050243E0,1.137900066E1
1.760775316E1,1.843950033E0,4.662000179E0,1.291905022E1
1.762775316E1,1.723050117E0,4.633950233E0,1.497795105E1
1.764775316E1,7.150500417E-1,4.681050301E0,1.511100101E1
1.766775316E1,-2.205000073E-2,4.642950058E0,1.525605106E1
1.768775316E1,-7.304999977E-2,3.832050085E0,1.615605164E1
1.770775316E1,-1.210500076E-1,3.052050114E0,1.620000076E1
1.772775316E1,-1.660500020E-1,2.959950209E0,1.515705109E1
1.774775316E1,-1.480500102E-1,2.941950083E0,1.320495033E1
1.776775316E1,-1.260000020E-1,2.989050150E0,1.142895031E1
1.778775316E1,-9.600000083E-2,3.052950144E0,1.060800076E1
1.780775316E1,-4.395000264E-2,3.048000097E0,1.055400085E1
1.782775316E1,4.695000127E-2,2.938050032E0,1.045095062E1
1.784775316E1,7.699500322E-1,2.160000086E0,9.691950798E0
1.786775316E1,8.220000267E-1,2.103000164E0,9.651000023E0
1.788775316E1,8.059500456E-1,2.028000116E0,9.621000290E0
1.790775316E1,7.429500222E-1,1.930050135E0,9.556950569E0
1.792775316E1,6.460500360E-1,1.888050079E0,8.794950485E0
1.794775316E1,5.100000501E-1,1.948050141E0,7.942950249E0
1.796775316E1,3.949500322E-1,2.062050104E0,7.843950272E0
1.798775316E1,2.970000207E-1,2.187000036E0,7.081050396E0
1.800775316E1,2.550000250E-1,2.977050066E0,7.045950413E0
1.802775316E1,1.960500032E-1,3.106050253E0,7.002000332E0
1.804775316E1,-5.860500336E-1,3.868050098E0,7.057050228E0
1.806775316E1,-6.139500141E-1,3.088950157E0,9.534000397E0
1.808775316E1,-5.830500126E-1,2.982000113E0,1.040505028E1
1.810775316E1,-1.408050060E0,2.941950083E0,1.047195053E1
1.812775316E1,-2.218950033E0,3.946950197E0,1.045200062E1
1.814775316E1,-2.998950243E0,4.054950237E0,1.042500019E1
1.816775316E1,-2.899050236E0,4.827000141E0,1.047405052E1
1.818775316E1,-2.769000053E0,4.900950432E0,1.042395020E1
1.820775316E1,-2.647050142E0,5.620050430E0,9.627000809E0
1.822775316E1,-1.875000119E0,5.527050495E0,9.594000816E0
1.824775316E1,-1.795950055E0,3.840000153E0,9.631950378E0
1.826775316E1,-1.722000122E0,2.953950167E0,1.129995060E1
1.828775316E1,-1.714050055E0,1.942950130E0,1.296195030E1
1.830775316E1,-1.795950055E0,1.828050137E0,1.374195099E1
1.832775316E1,-2.563950062E0,1.887000084E0,1.280400085E1
1.834775316E1,-2.668050051E0,2.707950115E0,1.185000038E1
1.836775316E1,-3.484050274E0,3.541950226E0,1.016700077E1
1.838775316E1,-3.463950157E0,3.640950203E0,9.295050621E0
1.840775316E1,-3.451050282E0,4.416000366E0,8.314050674E0
1.842775316E1,-3.370950222E0,4.423050404E0,8.287050247E0
1.844775316E1,-3.220950127E0,4.324950218E0,8.319000244E0
1.846775316E1,-2.368950129E0,3.547950268E0,8.338050842E0
1.848775316E1,-2.257050037E0,3.502950191E0,8.254950523E0
1.850775316E1,-1.264050007E0,3.480000257E0,7.516050339E0
1.852775316E1,-4.729500115E-1,3.442050219E0,7.641000271E0
1.854775316E1,-3.690000176E-1,3.406950235E0,8.530950546E0
1.856775316E1,5.200500488E-1,3.330000162E0,8.614950180E0
1.858775316E1,5.830500126E-1,3.244950056E0,1.021005058E1
1.860775316E1,6.649500132E-1,3.291000128E0,1.024995041E1
1.862775316E1,7.099500299E-1,4.083000183E0,1.027800083E1
1.864775316E1,7.039500475E-1,4.225950241E0,1.113300037E1
1.866775316E1,8.280000687E-1,4.258049965E0,1.192200089E1
1.868775316E1,1.567950130E0,4.213050365E0,1.204905033E1
1.870775316E1,1.516950130E0,4.279950142E0,1.216695023E1
1.872775316E1,1.050000079E-3,4.359000206E0,1.301805019E1
1.874775316E1,-1.738950133E0,3.490950108E0,1.703894997E1
1.876775316E1,-1.803000093E0,2.569950104E0,1.795605087E1
1.878775316E1,-1.770000100E0,9.340500236E-1,1.690305138E1
1.880775316E1,-1.677000046E0,9.229500294E-1,1.513305092E1
1.882775316E1,-9.090000391E-1,9.060000181E-1,1.351200104E1
1.884775316E1,-1.099500060E-1,9.100500345E-1,1.204605103E1
1.886775316E1,-1.039500013E-1,9.130500555E-1,1.028895092E1
1.888775316E1,-9.600000083E-2,9.630000591E-1,9.445950508E0
1.890775316E1,-9.405000508E-2,1.069050074E0,8.644950867E0
1.892775316E1,-1.990500093E-1,1.822050095E0,7.861050606E0
1.894775316E1,-1.048050046E0,1.873050094E0,7.816950321E0
1.896775316E1,-1.072050095E0,1.921950102E0,7.717950344E0
1.898775316E1,-1.012950063E0,1.939950109E0,6.910050392E0
1.900775316E1,-8.980500698E-1,2.007000208E0,6.061950207E0
1.902775316E1,-7.890000343E-1,2.131950140E0,5.218950272E0
1.904775316E1,-7.489500642E-1,2.916000128E0,5.239950180E0
1.906775316E1,-7.320000529E-1,3.690000057E0,6.204000473E0
1.908775316E1,-8.200500607E-1,3.727050066E0,6.307050228E0
1.910775316E1,-1.563000083E0,3.748050213E0,7.981050491E0
1.912775316E1,-1.582050085E0,3.694050074E0,9.025950432E0
1.914775316E1,-1.635000110E0,3.604950190E0,9.787050247E0
1.916775316E1,-1.768050075E0,3.495000124E0,1.069695091E1
1.918775316E1,-1.882950068E0,3.436050177E0,1.083300018E1
1.920775316E1,-1.996050119E0,3.529950142E0,1.086195087E1
1.922775316E1,-2.677050114E0,4.249050140E0,1.077600098E1
1.924775316E1,-2.779050112E0,3.487050056E0,1.173000050E1
1.926775316E1,-3.811950207E0,2.701050043E0,1.469295025E1
1.928775316E1,-3.750000238E0,2.581950188E0,1.591395092E1
1.930775316E1,-3.670950174E0,2.485950232E0,1.520895100E1
1.932775316E1,-3.538050175E0,2.455050230E0,1.347405052E1
1.934775316E1,-2.806950092E0,2.536050081E0,1.187805080E1
1.936775316E1,-2.821050167E0,2.677950144E0,1.179900074E1
1.938775316E1,-2.860950232E0,3.403050184E0,1.011600018E1
1.940775316E1,-2.914950132E0,3.544050217E0,9.313950539E0
1.942775316E1,-3.031050205E0,4.404000282E0,8.332050323E0
1.944775316E1,-3.100950241E0,4.384050369E0,8.224950790E0
1.946775316E1,-3.019050121E0,3.469050169E0,8.233950615E0
1.948775316E1,-1.477050066E0,2.655000210E0,8.253000259E0
1.950775316E1,-6.349500418E-1,2.584950209E0,7.446000576E0
1.952775316E1,-5.460000038E-1,2.587950230E0,7.414050579E0
1.954775316E1,-4.039500058E-1,2.670000076E0,7.351050377E0
1.956775316E1,-2.890500128E-1,3.472950220E0,7.345950127E0
1.958775316E1,-1.939500123E-1,3.517950058E0,7.366050243E0
1.960775316E1,6.040500402E-1,3.621000290E0,7.441950321E0
1.962775316E1,1.411050081E0,3.708000183E0,7.560000420E0
1.964775316E1,1.504050016E0,3.787050247E0,7.642950535E0
1.966775316E1,1.597050071E0,3.816000223E0,9.379050255E0
1.968775316E1,1.726950049E0,3.078000069E0,1.194600010E1
1.970775316E1,2.452050209E0,3.010950089E0,1.391595078E1
1.972775316E1,8.269500136E-1,2.959050179E0,1.471695042E1
1.974775316E1,2.400000021E-2,2.827050209E0,1.731599998E1
1.976775316E1,-7.150500417E-1,1.146000028E0,1.810200119E1
1.978775316E1,-7.900500298E-1,2.890500128E-1,1.811295128E1
1.980775316E1,-7.950000167E-1,2.749500275E-1,1.644795036E1
1.982775316E1,-7.189500332E-1,3.160500228E-1,1.339095020E1
1.984775316E1,-6.409500241E-1,4.099500179E-1,1.240995026E1
1.986775316E1,-5.380499959E-1,5.110500455E-1,1.160205078E1
1.988775316E1,-4.230000079E-1,5.220000148E-1,1.077000046E1
1.990775316E1,3.580500185E-1,5.160000324E-1,9.820050240E0
1.992775316E1,3.319500089E-1,5.119500160E-1,8.773950577E0
1.994775316E1,2.710500062E-1,5.940000415E-1,7.933050156E0
1.996775316E1,1.939500123E-1,1.327950120E0,7.156050205E0
1.998775316E1,1.290000081E-1,1.411950111E0,7.053000450E0
2.000775316E1,5.805000290E-2,2.265000105E0,6.202950478E0
2.002775316E1,2.805000171E-2,2.350050211E0,6.264000416E0
2.004775316E1,-7.549500465E-1,2.503050089E0,6.303000450E0
2.006775316E1,-1.663050056E0,3.477000237E0,7.104000568E0
2.008775316E1,-2.503050089E0,4.174950123E0,8.731950760E0
2.010775316E1,-2.518950224E0,4.138050079E0,1.023195076E1
2.012775316E1,-2.494950056E0,3.973950148E0,1.101900005E1
2.014775316E1,-2.421000004E0,3.232050180E0,1.100505066E1
2.016775316E1,-2.374950171E0,3.253950119E0,1.096005058E1
2.018775316E1,-2.343000174E0,3.288000107E0,1.094505024E1
2.020775316E1,-1.599000096E0,3.277950048E0,1.090995026E1
2.022775316E1,-8.760000467E-1,3.310050249E0,1.014405060E1
2.024775316E1,-9.370500445E-1,3.373950243E0,1.011300087E1
2.026775316E1,-9.619500637E-1,4.150050163E0,1.001505089E1
2.028775316E1,-9.379500151E-1,4.159950256E0,1.000095081E1
2.030775316E1,-1.012950063E0,4.063050270E0,1.081005096E1
2.032775316E1,-1.098000050E0,3.289950132E0,1.163205051E1
2.034775316E1,-1.230000019E0,2.451000214E0,1.247895050E1
2.036775316E1,-2.038950205E0,2.365950108E0,1.318605042E1
2.038775316E1,-2.119050026E0,2.332950115E0,1.239000034E1
2.040775316E1,-2.154000044E0,2.350050211E0,1.070895004E1
2.042775316E1,-2.190000057E0,2.404950142E0,9.804000854E0
2.044775316E1,-3.051000118E0,2.463000059E0,9.040050507E0
2.046775316E1,-3.937050104E0,3.256050110E0,9.837000847E0
2.048775316E1,-3.958050251E0,3.198000193E0,9.834000587E0
2.050775316E1,-3.106950045E0,2.287950039E0,9.048000336E0
2.052775316E1,-2.160000086E0,2.158050060E0,8.926950455E0
2.054775316E1,-1.321050048E0,2.035950184E0,8.062050819E0
2.056775316E1,-1.213950038E0,2.005050182E0,7.915950298E0
2.058775316E1,-1.150950074E0,2.095050097E0,7.257000446E0
2.060775316E1,-1.084050059E0,2.230950117E0,8.026050568E0
2.062775316E1,-9.820500612E-1,3.046050072E0,8.068950653E0
2.064775316E1,-8.350500464E-1,3.049050093E0,8.058000565E0
2.066775316E1,-6.949500442E-1,3.147000074E0,8.083050728E0
2.068775316E1,-5.650500059E-1,3.247950077E0,8.878950119E0
2.070775316E1,-4.330500066E-1,3.313050270E0,9.829950333E0
2.072775316E1,-3.529500067E-1,3.301950216E0,1.205295086E1
2.074775316E1,-2.670000196E-1,3.261000156E0,1.287600040E1
2.076775316E1,-1.740000099E-1,3.261000156E0,1.375005054E1
2.078775316E1,-1.038000107E0,3.280050039E0,1.371600056E1
2.080775316E1,-2.700000048E0,3.207000256E0,1.562505054E1
2.082775316E1,-3.427050114E0,2.374050140E0,1.878105164E1
2.084775316E1,-3.346050262E0,7.650000453E-1,1.957800102E1
2.086775316E1,-2.541000128E0,7.210500240E-1,1.604700089E1
2.088775316E1,-2.401050091E0,8.110500574E-1,1.250505066E1
2.090775316E1,-1.579050064E0,1.686000109E0,1.095795059E1
2.092775316E1,-6.529500484E-1,1.746000051E0,1.093800068E1
2.094775316E1,-5.640000105E-1,1.768950105E0,1.015200043E1
2.096775316E1,-4.720500112E-1,1.756050110E0,9.361050606E0
2.098775316E1,-4.230000079E-1,1.765050054E0,9.240000725E0
2.100775316E1,-4.069500268E-1,1.800000072E0,9.097050667E0
2.102775316E1,-4.159500301E-1,1.804950118E0,9.024000168E0
2.104775316E1,-4.339500070E-1,1.821000099E0,8.947950363E0
2.106775316E1,-4.519500136E-1,1.864950061E0,8.119950294E0
2.108775316E1,-5.200500488E-1,1.930950046E0,8.071050644E0
2.110775316E1,-5.839500427E-1,2.017950058E0,8.005949974E0
2.112775316E1,-1.393950105E0,2.121000051E0,7.960050583E0
2.114775316E1,-1.315950036E0,2.202000141E0,8.001000404E0
2.116775316E1,-1.248000026E0,2.280000210E0,8.071050644E0
2.118775316E1,-1.195050001E0,2.274000168E0,8.164050102E0
2.120775316E1,-1.111050010E0,2.200050116E0,9.010950089E0
2.122775316E1,-3.220500052E-1,2.136000156E0,9.736950874E0
2.124775316E1,-2.539499998E-1,2.083950043E0,8.968950272E0
2.126775316E1,-3.190500140E-1,2.976000071E0,8.920950890E0
2.128775316E1,-1.300950050E0,3.793050289E0,8.952000618E0
2.130775316E1,-2.269050121E0,4.689000130E0,8.989950180E0
2.132775316E1,-3.057000160E0,5.445000172E0,9.057000160E0
2.134775316E1,-3.136050224E0,5.515950203E0,9.960000038E0
2.136775316E1,-3.258000135E0,4.753050327E0,1.080000019E1
2.138775316E1,-3.259050131E0,3.981000185E0,1.248195076E1
2.140775316E1,-3.262950182E0,3.232050180E0,1.417500114E1
2.142775316E1,-3.334050179E0,3.127950191E0,1.432695103E1
2.144775316E1,-3.343950272E0,3.030000210E0,1.496805096E1
2.146775316E1,-3.327000141E0,2.989950180E0,1.319805050E1
2.148775316E1,-3.273000240E0,3.031050205E0,1.131795025E1
2.150775316E1,-3.199050188E0,3.115950108E0,9.630000114E0
2.152775316E1,-3.106950045E0,3.238050222E0,9.544950485E0
2.154775316E1,-2.991000175E0,4.060950279E0,8.676000595E0
2.156775316E1,-2.856000185E0,3.988050222E0,7.804050446E0
2.158775316E1,-1.995000124E0,3.841050148E0,7.009050369E0
2.160775316E1,-1.249050021E0,3.069000244E0,6.960000515E0
2.162775316E1,-4.789500237E-1,3.045000076E0,6.838950157E0
2.164775316E1,-4.170000255E-1,2.988000154E0,6.766950130E0
2.166775316E1,-3.199500144E-1,2.955000162E0,6.781950474E0
2.168775316E1,5.419500470E-1,2.932050228E0,7.575000286E0
2.170775316E1,4.729500115E-1,2.980950117E0,7.641000271E0
2.172775316E1,4.620000124E-1,3.813000202E0,8.482049942E0
2.174775316E1,4.830000103E-1,3.766950130E0,9.295050621E0
2.176775316E1,1.270050049E0,2.922000170E0,1.100595093E1
2.178775316E1,1.312950015E0,2.893050194E0,1.259100056E1
2.180775316E1,1.396050096E0,2.962050200E0,1.336095047E1
2.182775316E1,1.543050051E0,3.804000139E0,1.343400097E1
2.184775316E1,5.719500184E-1,3.792000294E0,1.432995033E1
2.186775316E1,4.840500355E-1,2.962950230E0,1.737795067E1
2.188775316E1,-4.009500146E-1,1.339950085E0,1.929795074E1
2.190775316E1,-4.249500334E-1,5.959500074E-1,1.935405159E1
2.192775316E1,-4.600500166E-1,6.670500040E-1,1.585800076E1
2.194775316E1,-4.750500321E-1,1.492050052E0,1.311105061E1
2.196775316E1,-4.609500170E-1,1.579950094E0,1.145895100E1
2.198775316E1,-4.290000200E-1,1.630950093E0,1.130205059E1
2.200775316E1,-3.900000155E-1,1.653000116E0,1.046595097E1
2.202775316E1,-3.619500101E-1,1.585050106E0,1.033905029E1
2.204775316E1,-3.559500277E-1,1.495050073E0,9.481050491E0
2.206775316E1,-3.280500174E-1,1.423050046E0,8.437050819E0
2.208775316E1,-3.070500195E-1,1.375050068E0,7.564950466E0
2.210775316E1,-2.970000207E-1,1.422000051E0,7.477050304E0
2.212775316E1,-3.430500031E-1,1.531950116E0,6.525000095E0
2.214775316E1,-4.399500191E-1,2.346000195E0,6.412950516E0
2.216775316E1,-1.195050001E0,3.300000191E0,6.277950287E0
2.218775316E1,-1.264950037E0,3.409050226E0,6.210000515E0
2.220775316E1,-1.341000080E0,3.478950262E0,6.246000290E0
2.222775316E1,-1.362000108E0,3.493050098E0,7.102050304E0
2.224775316E1,-1.366950035E0,3.481950283E0,7.897950172E0
2.226775316E1,-1.372050047E0,3.478950262E0,8.779050827E0
2.228775316E1,-4.369500279E-1,3.502950191E0,8.822999954E0
2.230775316E1,-4.690500200E-1,3.541950226E0,8.838000298E0
2.232775316E1,-4.009500146E-1,3.582000256E0,9.658950806E0
2.234775316E1,-3.220500052E-1,3.621000290E0,1.123995018E1
2.236775316E1,-2.610000074E-1,4.468950272E0,1.210305023E1
2.238775316E1,-3.559500277E-1,4.560000420E0,1.291995049E1
2.240775316E1,-1.870050073E0,5.262000084E0,1.551195049E1
2.242775316E1,-1.893000126E0,4.435950279E0,1.743105125E1
2.244775316E1,-1.969050050E0,2.829000235E0,1.895805168E1
2.246775316E1,-2.032950163E0,2.755950212E0,1.887795067E1
2.248775316E1,-2.905050039E0,2.656050205E0,1.648694992E1
2.250775316E1,-2.851050138E0,2.512950182E0,1.385205078E1
2.252775316E1,-2.757000208E0,1.726950049E0,1.224105072E1
2.254775316E1,-2.739000082E0,1.798050046E0,1.023705006E1
2.256775316E1,-2.692950010E0,1.912050128E0,8.518050194E0
2.258775316E1,-2.590050220E0,2.013000011E0,6.721950531E0
2.260775316E1,-1.759950042E0,2.094000101E0,5.668950081E0
2.262775316E1,-1.705050111E0,2.143050194E0,4.851000309E0
2.264775316E1,-9.229500294E-1,2.155050039E0,4.846050262E0
2.266775316E1,-8.790000677E-1,2.169000149E0,4.789950371E0
2.268775316E1,-8.895000070E-2,2.167050123E0,4.671000004E0
2.270775316E1,-1.189500093E-1,2.224950075E0,4.641000271E0
2.272775316E1,-1.219500080E-1,2.281949997E0,5.506050110E0
2.274775316E1,-1.180500090E-1,2.389950037E0,5.617050171E0
2.276775316E1,-1.480500102E-1,3.151950121E0,6.435000420E0
2.278775316E1,-2.209500074E-1,3.925950289E0,7.251000404E0
2.280775316E1,-2.959500253E-1,4.864050388E0,8.082000732E0
2.282775316E1,-3.190500140E-1,4.900050163E0,9.085050583E0
2.284775316E1,-2.740500271E-1,4.890000343E0,1.077000046E1
2.286775316E1,-2.290500104E-1,4.114950180E0,1.255905056E1
2.288775316E1,-1.710000038E-1,4.171050072E0,1.412895107E1
2.290775316E1,-1.390500069E-1,4.261950016E0,1.421100044E1
2.292775316E1,-1.420500129E-1,3.423000097E0,1.600005150E1
2.294775316E1,6.340500116E-1,2.467950106E0,1.934895134E1
2.296775316E1,5.590500236E-1,6.210000515E-1,2.136300087E1
2.298775316E1,-1.048050046E0,6.490500569E-1,2.220195198E1
2.300775316E1,-1.060950041E0,1.468050122E0,1.832505035E1
2.302775316E1,-2.779500186E-1,1.615050077E0,1.285200024E1
2.304775316E1,-2.479500175E-1,2.371050119E0,1.102395058E1
2.306775316E1,-2.070000172E-1,2.413950205E0,1.093800068E1
2.308775316E1,-1.840500087E-1,2.413050175E0,1.087305069E1
2.310775316E1,-1.660500020E-1,2.376000166E0,1.077105045E1
2.312775316E1,-1.469999999E-1,2.278050184E0,9.973950386E0
2.314775316E1,-1.230000034E-1,1.419000030E0,9.898050308E0
2.316775316E1,-1.440000087E-1,1.429050088E0,9.802050591E0
2.318775316E1,-1.840500087E-1,1.471050024E0,9.058050156E0
2.320775316E1,-2.419500053E-1,1.569000125E0,8.242050171E0
2.322775316E1,-3.630000055E-1,2.356050014E0,7.423050404E0
2.324775316E1,-5.010000467E-1,3.139050245E0,6.576000214E0
2.326775316E1,-6.570000052E-1,3.246000051E0,6.646950245E0
2.328775316E1,-1.305000067E0,4.071000099E0,7.437000275E0
2.330775316E1,-5.749500394E-1,4.114050388E0,7.512000561E0
2.332775316E1,-6.049500108E-1,4.192950249E0,7.566000462E0
2.334775316E1,-6.499500275E-1,4.282950401E0,9.340050697E0
2.336775316E1,-7.320000529E-1,4.378950119E0,1.041600037E1
2.338775316E1,-7.860000134E-1,4.468050003E0,1.042095089E1
2.340775316E1,-8.400000334E-1,4.587000370E0,1.037805080E1
2.342775316E1,-7.540500164E-1,5.553000450E0,1.029000092E1
2.344775316E1,-6.070500016E-1,5.668950081E0,9.471000671E0
2.346775316E1,-4.680000246E-1,6.456000328E0,8.647950172E0
2.348775316E1,2.929500043E-1,6.604050159E0,8.649000168E0
2.350775316E1,2.160000056E-1,6.754950523E0,8.661000252E0
2.352775316E1,-6.010500193E-1,6.819000244E0,8.716050148E0
2.354775316E1,-1.369950056E0,5.860950470E0,9.568950653E0
2.356775316E1,-1.272000074E0,5.074950218E0,1.116300011E1
2.358775316E1,-1.159050107E0,4.246950150E0,1.115295029E1
2.360775316E1,-1.054949999E0,4.168950081E0,1.028895092E1
2.362775316E1,-9.559500217E-1,4.210950375E0,9.466050148E0
2.364775316E1,-9.199500680E-1,4.345950127E0,7.671000481E0
2.366775316E1,-9.229500294E-1,5.176950455E0,6.928050518E0
2.368775316E1,-8.419500589E-1,5.140950203E0,7.857000351E0
2.370775316E1,-7.420500517E-1,5.149950027E0,8.695050240E0
2.372775316E1,-6.139500141E-1,5.128950119E0,8.653050423E0
2.374775316E1,-4.819500148E-1,5.172000408E0,7.843950272E0
2.376775316E1,3.370500207E-1,5.268000126E0,7.732950211E0
2.378775316E1,3.450000286E-1,6.114000320E0,6.982050419E0
2.380775316E1,3.570000231E-1,6.180000305E0,6.880950451E0
2.382775316E1,4.789500237E-1,6.291000366E0,6.192000389E0
2.384775316E1,1.327050090E0,6.397050381E0,6.955050468E0
2.386775316E1,1.432050109E0,6.487950325E0,7.797000408E0
2.388775316E1,1.504050016E0,6.589050293E0,7.909050465E0
2.390775316E1,1.435950041E0,6.676950455E0,9.583950043E0
2.392775316E1,1.288050056E0,6.709050179E0,1.129605007E1
2.394775316E1,1.149000049E0,6.688050270E0,1.286505032E1
2.396775316E1,1.078050017E0,6.736950397E0,1.290600014E1
2.398775316E1,2.809500098E-1,6.843000412E0,1.008705044E1
2.400775316E1,3.049500287E-1,6.859050274E0,9.300000191E0
2.402775316E1,3.910500109E-1,5.989950180E0,9.381000519E0
2.404775316E1,4.680000246E-1,5.874000072E0,1.105395031E1
2.406775316E1,4.800000191E-1,5.161050320E0,1.109805012E1
2.408775316E1,4.849500358E-1,5.920950413E0,1.018605042E1
2.410775316E1,4.369500279E-1,6.037950516E0,7.879950523E0
2.412775316E1,3.580500185E-1,6.807000160E0,7.044000149E0
2.414775316E1,4.450500309E-1,6.717000484E0,7.110000134E0
2.416775316E1,1.167000055E0,5.692050457E0,8.047950745E0
2.418775316E1,1.228950024E0,4.933050156E0,8.161950111E0
2.420775316E1,1.179000020E0,4.174950123E0,8.832000732E0
2.422775316E1,1.147950053E0,4.042950153E0,8.815050125E0
2.424775316E1,1.171050072E0,3.381000042E0,8.808000565E0
2.426775316E1,1.144950032E0,3.483000278E0,7.939050198E0
2.428775316E1,1.066050053E0,3.621000290E0,7.831050396E0
2.430775316E1,9.630000591E-1,4.394999981E0,7.006050110E0
2.432775316E1,8.790000677E-1,4.489050388E0,6.996000290E0
2.434775316E1,7.740000486E-1,5.356050491E0,7.054050446E0
2.436775316E1,6.480000019E-1,5.359950066E0,7.149000168E0
2.438775316E1,5.239500403E-1,5.446950436E0,7.266000271E0
2.440775316E1,4.219500124E-1,6.253950119E0,7.396050453E0
2.442775316E1,3.190500140E-1,6.352050304E0,8.104050636E0
2.444775316E1,2.209500074E-1,6.988950253E0,8.152950287E0
2.446775316E1,1.110000089E-1,6.859050274E0,8.982000351E0
2.448775316E1,-9.000000544E-3,6.013950348E0,9.823950768E0
2.450775316E1,-3.405000269E-2,5.943000317E0,9.952050209E0
2.452775316E1,-3.000000026E-3,5.884950161E0,9.990000725E0
2.454775316E1,2.895000204E-2,5.908050060E0,9.052950859E0
2.456775316E1,-1.395000052E-2,5.965950489E0,8.277000427E0
2.458775316E1,-1.546050072E0,4.984950066E0,9.124950409E0
2.460775316E1,-2.278950214E0,3.357000113E0,1.295205021E1
2.462775316E1,-2.284050226E0,2.416050196E0,1.719300079E1
2.464775316E1,-2.173050165E0,1.534950018E0,1.821300125E1
2.466775316E1,-1.366950035E0,1.426050067E0,1.670700073E1
2.468775316E1,-1.419000030E0,1.506000042E0,1.269495106E1
2.470775316E1,-1.522050023E0,3.061950207E0,1.020000076E1
2.472775316E1,-1.609050035E0,4.012050152E0,7.627050400E0
2.474775316E1,-1.666050076E0,4.834050179E0,6.139950275E0
2.476775316E1,-1.693950057E0,4.927950382E0,5.350950241E0
2.478775316E1,-1.663050056E0,5.035950184E0,4.540950298E0
2.480775316E1,-1.567050099E0,5.119050026E0,4.531949997E0
2.482775316E1,-1.497000098E0,5.179050446E0,4.579050064E0
2.484775316E1,-1.378050089E0,5.271000385E0,5.452050209E0
2.486775316E1,-5.140500069E-1,5.353050232E0,6.463950157E0
2.488775316E1,-5.500500202E-1,5.457000256E0,7.995000362E0
2.490775316E1,-4.410000145E-1,5.527950287E0,7.927050591E0
2.492775316E1,4.090500176E-1,5.488050461E0,7.197000504E0
2.494775316E1,1.249950051E0,5.410950184E0,8.908950806E0
2.496775316E1,1.333950043E0,5.325000286E0,9.885000229E0
2.498775316E1,1.477950096E0,5.302050114E0,1.150905037E1
2.500775316E1,1.591050029E0,5.320050240E0,1.163505077E1
2.502775316E1,1.729950070E0,5.308950424E0,1.240995026E1
2.504775316E1,1.858050108E0,5.211000443E0,1.321800041E1
2.506775316E1,1.948050141E0,5.167950153E0,1.400100040E1
2.508775316E1,1.162950039E0,5.181000233E0,1.405200100E1
2.510775316E1,2.070000172E-1,5.206050396E0,1.415895081E1
2.512775316E1,-6.540000439E-1,4.254000187E0,1.429005051E1
2.514775316E1,-1.456950068E0,3.450000048E0,1.430505085E1
2.516775316E1,-5.610000491E-1,2.536050081E0,1.177200031E1
2.518775316E1,-4.399500191E-1,2.578050137E0,9.810000420E0
2.520775316E1,4.249500334E-1,2.653050184E0,8.956050873E0
2.522775316E1,4.650000334E-1,2.728950024E0,8.181000710E0
2.524775316E1,4.849500358E-1,2.812050104E0,8.178000450E0
2.526775316E1,4.830000103E-1,2.752050161E0,9.108000755E0
2.528775316E1,3.919500113E-1,2.647050142E0,9.847950935E0
2.530775316E1,3.130500019E-1,2.605950117E0,9.907050133E0
2.532775316E1,2.599500120E-1,2.631000042E0,9.933000565E0
2.534775316E1,2.539499998E-1,2.641050100E0,9.892950058E0
2.536775316E1,2.200500071E-1,2.673000097E0,9.087000847E0
2.538775316E1,1.810500026E-1,3.472950220E0,8.971950531E0
2.540775316E1,1.170000061E-1,3.507000208E0,8.851950645E0
2.542775316E1,6.900000572E-2,3.481050253E0,8.833950043E0
2.544775316E1,1.500000060E-2,3.469050169E0,8.836050034E0
2.546775316E1,-8.295000345E-2,3.496050119E0,8.863050461E0
2.548775316E1,-8.650500178E-1,3.544950247E0,8.971050262E0
2.550775316E1,-1.756050110E0,3.610950232E0,9.747000694E0
2.552775316E1,-1.780050039E0,3.703050137E0,1.064400005E1
2.554775316E1,-1.906050086E0,3.780000210E0,1.066200066E1
2.556775316E1,-2.707050085E0,3.802950144E0,1.071900082E1
2.558775316E1,-2.722950220E0,3.898950100E0,1.081695080E1
2.560775316E1,-2.667000055E0,4.666950226E0,1.002600002E1
2.562775316E1,-2.538000107E0,5.437950134E0,9.924000740E0
2.564775316E1,-2.533050060E0,7.126050472E0,9.880050659E0
2.566775316E1,-4.237050056E0,7.225950241E0,9.970050812E0
2.568775316E1,-5.002050400E0,7.258950233E0,1.094895077E1
2.570775316E1,-4.939950466E0,6.378000259E0,1.107600021E1
2.572775316E1,-4.836000443E0,5.610000134E0,1.115595055E1
2.574775316E1,-4.771050453E0,5.464950085E0,1.203600025E1
2.576775316E1,-4.740000248E0,4.671000004E0,1.203105068E1
2.578775316E1,-4.669050217E0,4.606050014E0,1.124400043E1
2.580775316E1,-3.721050262E0,4.459950447E0,1.046805096E1
2.582775316E1,-2.967000246E0,3.681000233E0,9.687000275E0
2.584775316E1,-2.161050081E0,3.595050097E0,8.932950020E0
2.586775316E1,-2.140950203E0,3.517050266E0,7.966950417E0
2.588775316E1,-1.305000067E0,3.438000202E0,7.828050137E0
2.590775316E1,-1.180050015E0,3.379050255E0,6.256950378E0
2.592775316E1,-1.051050067E0,3.406050205E0,5.395950317E0
2.594775316E1,-9.430500269E-1,4.237050056E0,4.567950249E0
2.596775316E1,-8.539500237E-1,4.353000164E0,3.660000086E0
2.598775316E1,-1.905000024E-2,5.239950180E0,3.522000074E0
2.600775316E1,6.495000422E-2,5.284950256E0,3.409050226E0
2.602775316E1,1.669500023E-1,6.133950233E0,4.258950233E0
2.604775316E1,2.119500041E-1,7.051950455E0,5.116950035E0
2.606775316E1,1.969500035E-1,7.198050499E0,7.429050446E0
2.608775316E1,2.410500050E-1,8.005949974E0,9.090000153E0
2.610775316E1,3.529500067E-1,7.954050541E0,9.147000313E0
2.612775316E1,4.699500203E-1,7.150050163E0,1.103100014E1
2.614775316E1,1.189950109E0,7.039050102E0,1.178100014E1
2.616775316E1,2.950500250E-1,6.970950127E0,1.184895039E1
2.618775316E1,2.280000150E-1,6.895950317E0,1.473000050E1
2.620775316E1,-5.620500445E-1,6.052950382E0,1.575495052E1
2.622775316E1,-6.210000515E-1,5.169000149E0,1.642905045E1
2.624775316E1,-6.330000162E-1,5.064000130E0,1.559805107E1
2.626775316E1,-4.759500325E-1,4.237950325E0,1.312995052E1
2.628775316E1,3.949500322E-1,4.246050358E0,1.138005066E1
2.630775316E1,3.970500231E-1,4.240050316E0,1.046895027E1
2.632775316E1,4.339500070E-1,4.155000210E0,1.046505070E1
2.634775316E1,5.269500017E-1,3.258000135E0,1.045395088E1
2.636775316E1,1.231050014E0,2.364000082E0,1.029495049E1
2.638775316E1,1.173000097E0,2.248950005E0,9.580050468E0
2.640775316E1,1.055999994E0,2.169000149E0,9.517050743E0
2.642775316E1,2.550000250E-1,2.118000031E0,8.727000237E0
2.644775316E1,2.160000056E-1,2.151000023E0,7.111050129E0
2.646775316E1,1.339500099E-1,2.272950172E0,6.312000275E0
2.648775316E1,4.395000264E-2,3.151950121E0,6.289050102E0
2.650775316E1,-7.170000076E-1,3.285000086E0,6.327000141E0
2.652775316E1,-8.220000267E-1,3.958950281E0,6.448950291E0
2.654775316E1,-1.657950044E0,3.958050251E0,7.216950417E0
2.656775316E1,-1.693050027E0,3.951000214E0,8.179050446E0
2.658775316E1,-1.794000030E0,3.990000248E0,8.971950531E0
2.660775316E1,-2.712000132E0,4.099050045E0,9.835050583E0
2.662775316E1,-3.639000177E0,4.999050140E0,1.057905006E1
2.664775316E1,-3.679950237E0,5.028000355E0,1.047705078E1
2.666775316E1,-3.610950232E0,5.056050301E0,1.049400043E1
2.668775316E1,-2.766000032E0,5.040000439E0,1.148700047E1
2.670775316E1,-2.710050106E0,5.080050468E0,1.152105045E1
2.672775316E1,-1.840050101E0,6.598050117E0,9.976950645E0
2.674775316E1,-1.822050095E0,7.578000546E0,8.488950729E0
2.676775316E1,-1.840050101E0,7.683000565E0,8.434050560E0
2.678775316E1,-1.768950105E0,6.816000462E0,9.889950752E0
2.680775316E1,-8.310000300E-1,5.874000072E0,1.144605064E1
2.682775316E1,-7.069500089E-1,4.318050385E0,1.159800053E1
2.684775316E1,-7.500000596E-1,4.282050133E0,1.237305069E1
2.686775316E1,-2.413950205E0,5.134050369E0,1.233195019E1
2.688775316E1,-4.225950241E0,5.895000458E0,1.220400047E1
2.690775316E1,-4.305000305E0,5.913000107E0,1.058400059E1
2.692775316E1,-4.272000313E0,5.118000031E0,9.049950600E0
2.694775316E1,-3.388950109E0,5.035950184E0,8.298000336E0
2.696775316E1,-3.331950188E0,4.203000069E0,8.232000351E0
2.698775316E1,-2.499000072E0,4.120050430E0,7.450050354E0
2.700775316E1,-1.617000103E0,3.370950222E0,5.959050179E0
2.702775316E1,-7.320000529E-1,3.349950075E0,5.877000332E0
2.704775316E1,3.795000166E-2,3.280950069E0,5.761950493E0
2.706775316E1,9.670500755E-1,3.216000080E0,5.670000076E0
2.708775316E1,1.885950089E0,3.148050070E0,5.719050407E0
2.710775316E1,2.673000097E0,3.123000145E0,5.827950478E0
2.712775316E1,2.749950171E0,3.195000172E0,5.854950428E0
2.714775316E1,2.742000103E0,4.744050026E0,5.911950111E0
2.716775316E1,2.790000200E0,5.581950188E0,6.865050316E0
2.718775316E1,2.847000122E0,6.403950214E0,7.675950527E0
2.720775316E1,1.740000129E0,6.508950233E0,1.022295094E1
2.722775316E1,8.839500546E-1,6.523050308E0,1.461105061E1
2.724775316E1,8.620500565E-1,6.577050209E0,1.718295097E1
2.726775316E1,1.200000048E-1,6.670950413E0,1.719105148E1
2.728775316E1,-1.495050073E0,6.766950130E0,1.728705025E1
2.730775316E1,-1.581000090E0,6.718950272E0,1.804500008E1
2.732775316E1,-1.632000089E0,5.152050018E0,1.794405174E1
2.734775316E1,-7.999500632E-1,4.341000080E0,1.625505066E1
2.736775316E1,-6.919500232E-1,3.391050100E0,1.377705097E1
2.738775316E1,-5.440500379E-1,3.271950245E0,1.138500023E1
2.740775316E1,2.430000156E-1,3.184050083E0,9.712050438E0
2.742775316E1,3.090000153E-1,3.160050154E0,8.925000191E0
2.744775316E1,3.760500252E-1,3.160050154E0,8.127000809E0
2.746775316E1,4.140000343E-1,3.097050190E0,7.987050533E0
2.748775316E1,5.080500245E-1,2.950950146E0,7.285050392E0
2.750775316E1,5.929500461E-1,2.221950054E0,7.263000488E0
2.752775316E1,6.820500493E-1,2.209050179E0,7.195050240E0
2.754775316E1,7.210500240E-1,2.242950201E0,6.300000191E0
2.756775316E1,7.369500399E-1,2.349000216E0,5.464950085E0
2.758775316E1,6.690000296E-1,3.175050259E0,4.512000084E0
2.760775316E1,5.460000038E-1,3.267000198E0,4.486950397E0
2.762775316E1,4.579500258E-1,4.186050415E0,4.492950439E0
2.764775316E1,3.180000186E-1,4.237950325E0,6.900000095E0
2.766775316E1,-4.399500191E-1,4.306950092E0,7.809000492E0
2.768775316E1,-1.393950105E0,5.109000206E0,8.992050171E0
2.770775316E1,-2.157000065E0,5.181000233E0,9.784050941E0
2.772775316E1,-2.077050209E0,5.955000401E0,9.796050072E0
2.774775316E1,-1.309050083E0,6.040950298E0,9.754050255E0
2.776775316E1,-1.273050070E0,6.169950485E0,9.642000198E0
2.778775316E1,-1.285950065E0,6.972000122E0,9.582000732E0
2.780775316E1,-1.347000122E0,7.075050354E0,9.685050011E0
2.782775316E1,-2.277000189E0,7.822050571E0,9.793950081E0
2.784775316E1,-2.356950045E0,7.815000534E0,1.070400047E1
2.786775316E1,-2.335050106E0,7.774950504E0,1.156800079E1
2.788775316E1,-2.290950060E0,6.909000397E0,1.165500069E1
2.790775316E1,-2.245050192E0,5.908950329E0,1.252605057E1
2.792775316E1,-3.144000053E0,5.013000011E0,1.428405094E1
2.794775316E1,-3.129000187E0,4.222050190E0,1.499505043E1
2.796775316E1,-2.353950024E0,4.096050262E0,1.339500046E1
2.798775316E1,-2.293050051E0,3.387000084E0,1.173705101E1
2.800775316E1,-2.157000065E0,3.370050192E0,1.024905014E1
2.802775316E1,-2.020050049E0,3.355050087E0,8.536950111E0
2.804775316E1,-1.135950089E0,3.357000113E0,6.810000420E0
2.806775316E1,-1.102050066E0,3.409050226E0,5.977050304E0
2.808775316E1,-1.066050053E0,3.490950108E0,5.832000256E0
2.810775316E1,-1.045950055E0,3.640950203E0,5.037000179E0
2.812775316E1,-9.640500546E-1,4.404000282E0,5.014950275E0
2.814775316E1,-9.030000567E-1,4.470000267E0,5.031000137E0
2.816775316E1,-8.710500598E-1,4.606950283E0,5.143050194E0
2.818775316E1,-7.429500222E-1,5.427000046E0,5.268000126E0
2.820775316E1,-6.150000095E-1,5.415000439E0,5.326950073E0
2.822775316E1,-5.599500537E-1,5.434050083E0,6.103050232E0
2.824775316E1,-5.230500102E-1,5.539050102E0,7.779000282E0
2.826775316E1,-4.489500225E-1,5.655000210E0,8.577000618E0
2.828775316E1,-3.790500164E-1,6.508050442E0,1.008405018E1
2.830775316E1,-3.880500197E-1,6.531000137E0,1.207005024E1
2.832775316E1,-5.040000081E-1,6.478950500E0,1.462395096E1
2.834775316E1,-5.610000491E-1,6.418950081E0,1.548000050E1
2.836775316E1,-5.920500159E-1,7.207050323E0,1.450995064E1
2.838775316E1,-6.120000482E-1,7.314000130E0,1.254105091E1
2.840775316E1,-1.519950032E0,7.393950462E0,1.253805065E1
2.842775316E1,-1.602000117E0,6.391050339E0,1.363005066E1
2.844775316E1,-1.678050041E0,5.473050117E0,1.450005054E1
2.846775316E1,-8.650500178E-1,4.636050224E0,1.378605080E1
2.848775316E1,-7.249500155E-1,4.570050240E0,1.114695072E1
2.850775316E1,0.000000000E0,4.507050037E0,1.024605083E1
2.852775316E1,1.380000114E-1,3.660000086E0,1.014105034E1
2.854775316E1,2.560500205E-1,3.631950140E0,1.006305027E1
2.856775316E1,3.040500283E-1,3.549000263E0,9.286950111E0
2.858775316E1,2.680500150E-1,3.529050112E0,9.181050301E0
2.860775316E1,1.819500029E-1,3.547050238E0,8.422050476E0
2.862775316E1,5.805000290E-2,3.531000137E0,8.413050652E0
2.864775316E1,-7.120500207E-1,3.532950163E0,8.329950333E0
2.866775316E1,-7.330500484E-1,3.555000067E0,7.531950474E0
2.868775316E1,-7.510500550E-1,3.618000269E0,7.473000526E0
2.870775316E1,-8.010000587E-1,3.691950083E0,7.510050297E0
2.872775316E1,-7.969500422E-1,3.699000120E0,7.536000252E0
2.874775316E1,-1.582950115E0,3.691950083E0,7.609050274E0
2.876775316E1,-2.467950106E0,4.585050106E0,8.428050041E0
2.878775316E1,-3.241950035E0,4.659000397E0,8.480999947E0
2.880775316E1,-3.319950104E0,5.580000401E0,7.516950130E0
2.882775316E1,-3.411000252E0,5.686950207E0,6.613950253E0
2.884775316E1,-3.478050232E0,6.463050365E0,5.896950245E0
2.886775316E1,-3.511050224E0,6.543000221E0,5.827050209E0
2.888775316E1,-3.640050173E0,6.655050278E0,5.800950050E0
2.890775316E1,-3.790950298E0,7.483950138E0,5.842050076E0
2.892775316E1,-3.901950121E0,7.570950508E0,5.908950329E0
2.894775316E1,-3.141000032E0,7.657050133E0,5.923950195E0
2.896775316E1,-3.019950151E0,7.590000153E0,5.044950008E0
2.898775316E1,-2.953050137E0,5.776950359E0,7.267950535E0
2.900775316E1,-5.142000198E0,4.546050072E0,1.330395031E1
2.902775316E1,-6.736050129E0,3.795000076E0,1.660500145E1
2.904775316E1,-5.977050304E0,3.913050175E0,1.513305092E1
2.906775316E1,-5.155950069E0,4.006950378E0,1.160595036E1
2.908775316E1,-4.282950401E0,4.060050011E0,1.075200081E1
2.910775316E1,-3.373950243E0,4.114950180E0,9.838950157E0
2.912775316E1,-3.352050066E0,4.189050198E0,8.931000710E0
2.914775316E1,-3.322050095E0,4.284000397E0,7.951950550E0
2.916775316E1,-3.283950090E0,4.396049976E0,7.128000259E0
2.918775316E1,-3.208950043E0,4.416000366E0,7.003050327E0
2.920775316E1,-2.455950022E0,4.420950413E0,6.903000355E0
2.922775316E1,-2.362050056E0,4.393050194E0,6.817050457E0
2.924775316E1,-1.542000055E0,4.360050201E0,6.733950138E0
2.926775316E1,-6.640500426E-1,4.423950195E0,6.685950279E0
2.928775316E1,-5.779500008E-1,4.495050430E0,6.705000401E0
2.930775316E1,-4.819500148E-1,5.284050465E0,7.582050323E0
2.932775316E1,3.520500064E-1,5.344050407E0,8.421000481E0
2.934775316E1,4.170000255E-1,5.437950134E0,9.180000305E0
2.936775316E1,4.609500170E-1,5.497950077E0,1.012605095E1
2.938775316E1,4.819500148E-1,5.499000072E0,1.173105049E1
2.940775316E1,4.909500182E-1,5.377050400E0,1.356495094E1
2.942775316E1,5.670000315E-1,4.569000244E0,1.520595074E1
2.944775316E1,6.090000272E-1,4.521000385E0,1.520205116E1
2.946775316E1,5.179499984E-1,4.464000225E0,1.521195030E1
2.948775316E1,-3.540000021E-1,3.673950195E0,1.612095070E1
2.950775316E1,-3.810000122E-1,2.851950169E0,1.612995148E1
2.952775316E1,-4.450500309E-1,2.850000143E0,1.451805115E1
2.954775316E1,-5.149500370E-1,2.896950245E0,1.206600094E1
2.956775316E1,-5.569500327E-1,2.992050171E0,1.126695061E1
2.958775316E1,-5.710500479E-1,3.124050140E0,9.583950043E0
2.960775316E1,-5.299500227E-1,3.226950169E0,9.529950142E0
2.962775316E1,-4.549500346E-1,3.180000067E0,9.499950409E0
2.964775316E1,-4.110000134E-1,3.097950220E0,9.469050407E0
2.966775316E1,-4.189500213E-1,3.018000126E0,8.692950249E0
2.968775316E1,-4.440000355E-1,2.946000099E0,8.674950600E0
2.970775316E1,-4.519500136E-1,2.869050026E0,7.879050255E0
2.972775316E1,-4.789500237E-1,2.770950079E0,7.797000408E0
2.974775316E1,-4.530000091E-1,2.731050014E0,6.891000271E0
2.976775316E1,-3.769500256E-1,2.737050056E0,5.922000408E0
2.978775316E1,-3.490500152E-1,2.851050138E0,5.830950260E0
2.980775316E1,-1.144050002E0,3.787050247E0,5.872950077E0
2.982775316E1,-1.222050071E0,4.647000313E0,6.682950497E0
2.984775316E1,-2.038950205E0,4.732050419E0,7.630050182E0
2.986775316E1,-2.047950029E0,4.782000065E0,8.425050735E0
2.988775316E1,-2.061000109E0,4.846050262E0,8.559000015E0
2.990775316E1,-2.074949980E0,5.638950348E0,8.667000771E0
2.992775316E1,-2.025000095E0,5.641950130E0,8.770950317E0
2.994775316E1,-1.933050036E0,5.673000336E0,8.920050621E0
2.996775316E1,-1.875000119E0,5.617050171E0,1.040895081E1
2.998775316E1,-1.819050074E0,5.575950146E0,1.051305008E1
3.000775316E1,-1.867950082E0,5.640000343E0,1.059405041E1
3.002775316E1,-2.713050127E0,5.772000313E0,1.064805031E1
3.004775316E1,-3.529050112E0,6.622050285E0,1.147500038E1
3.006775316E1,-5.212950230E0,6.634950161E0,1.301295090E1
3.008775316E1,-6.019050121E0,6.640050411E0,1.462695026E1
3.010775316E1,-6.799050331E0,6.604950428E0,1.468395042E1
3.012775316E1,-5.977950096E0,5.794950485E0,1.464195061E1
3.014775316E1,-5.095050335E0,4.096050262E0,1.368495083E1
3.016775316E1,-3.316050053E0,3.229950190E0,1.203300095E1
3.018775316E1,-3.214950085E0,3.163050175E0,1.117905045E1
3.020775316E1,-2.278050184E0,3.076950073E0,9.351000786E0
3.022775316E1,-1.453050017E0,3.019050121E0,7.638000488E0
3.024775316E1,-6.120000482E-1,3.018000126E0,6.807000160E0
3.026775316E1,-5.470499992E-1,3.043050051E0,6.046950340E0
3.028775316E1,-4.339500070E-1,3.076950073E0,6.024000168E0
3.030775316E1,-3.000000119E-1,3.133050203E0,5.988000393E0
3.032775316E1,6.079500318E-1,3.198000193E0,5.893950462E0
3.034775316E1,6.870000362E-1,3.280950069E0,5.803050041E0
3.036775316E1,8.119500279E-1,4.033950329E0,5.758050442E0
3.038775316E1,9.420000315E-1,4.140000343E0,5.809950352E0
3.040775316E1,9.990000725E-1,4.255050182E0,6.618000507E0
3.042775316E1,1.068000078E0,4.360949993E0,7.510050297E0
3.044775316E1,1.207050085E0,5.181000233E0,8.433000565E0
3.046775316E1,1.297050118E0,5.146950245E0,9.268950462E0
3.048775316E1,1.380000114E0,5.185050011E0,1.016400051E1
3.050775316E1,1.414050102E0,5.182050228E0,1.099305058E1
3.052775316E1,1.348950028E0,5.143950462E0,1.108500099E1
3.054775316E1,1.246050000E0,5.125950336E0,1.259100056E1
3.056775316E1,4.369500279E-1,5.260950089E0,1.263405037E1
3.058775316E1,-4.729500115E-1,6.024000168E0,1.270305061E1
3.060775316E1,-1.375950098E0,6.022050381E0,1.433100033E1
3.062775316E1,-2.104950190E0,5.170050144E0,1.631295013E1
3.064775316E1,-2.025000095E0,4.360050201E0,1.637100029E1
3.066775316E1,-5.419500470E-1,4.300950050E0,1.442100048E1
3.068775316E1,-3.960000277E-1,4.200000286E0,1.201605034E1
3.070775316E1,3.559500277E-1,4.111050129E0,1.025400066E1
3.072775316E1,3.769500256E-1,4.044000149E0,1.016895008E1
3.074775316E1,3.750000298E-1,3.919050217E0,1.007205009E1
3.076775316E1,3.490500152E-1,3.040950060E0,9.967050552E0
3.078775316E1,4.069500268E-1,2.962050200E0,9.139950752E0
3.080775316E1,4.399500191E-1,2.833950043E0,8.338950157E0
3.082775316E1,4.639500082E-1,2.743950129E0,8.245950699E0
3.084775316E1,4.219500124E-1,2.706000090E0,7.485000134E0
3.086775316E1,3.409500122E-1,2.730000019E0,6.511950493E0
3.088775316E1,2.419500053E-1,2.838000059E0,6.364050388E0
3.090775316E1,1.020000055E-1,3.711000204E0,6.268050194E0
3.092775316E1,-8.110500574E-1,4.504950047E0,6.354000092E0
3.094775316E1,-8.890500665E-1,4.551000118E0,7.126950264E0
3.096775316E1,-9.360000491E-1,4.620000362E0,7.198950291E0
3.098775316E1,-9.690000415E-1,4.705049992E0,7.354050159E0
3.100775316E1,-1.000050068E0,4.842000008E0,8.199000359E0
3.102775316E1,-1.009050012E0,5.670000076E0,8.193000793E0
3.104775316E1,-9.940500259E-1,5.644950390E0,8.266950607E0
3.106775316E1,-9.319500327E-1,5.578050137E0,9.163050652E0
3.108775316E1,-7.950000167E-1,5.566050053E0,9.241050720E0
3.110775316E1,-6.940500140E-1,5.667000294E0,1.017195034E1
3.112775316E1,-7.530000210E-1,6.451950073E0,1.015005016E1
3.114775316E1,-8.880000710E-1,7.261950493E0,1.010400009E1
3.116775316E1,-1.758000135E0,7.176000118E0,1.088700008E1
3.118775316E1,-2.553000212E0,6.270000458E0,1.323900032E1
3.120775316E1,-2.677950144E0,4.600050449E0,1.488105106E1
3.122775316E1,-2.803050041E0,4.543050289E0,1.405995083E1
3.124775316E1,-3.561000109E0,4.572000027E0,1.314900017E1
3.126775316E1,-5.047050476E0,4.626000404E0,1.144605064E1
3.128775316E1,-5.014950275E0,4.645050049E0,1.064700031E1
3.130775316E1,-4.003050327E0,4.536000252E0,8.715000153E0
3.132775316E1,-3.169050217E0,3.775950193E0,7.018050194E0
3.134775316E1,-2.403000116E0,3.729000092E0,6.144000053E0
3.136775316E1,-2.322000027E0,3.700950146E0,5.296050072E0
3.138775316E1,-1.593000054E0,3.631950140E0,5.172000408E0
3.140775316E1,-1.509000063E0,3.502050161E0,5.145000458E0
3.142775316E1,-1.434000015E0,2.751000166E0,6.066000462E0
3.144775316E1,-5.950500369E-1,2.682000160E0,6.820950508E0
3.146775316E1,2.580000162E-1,2.625000238E0,6.798000336E0
3.148775316E1,2.710500062E-1,2.629050016E0,6.826950550E0
3.150775316E1,2.350500077E-1,2.728050232E0,9.208050728E0
3.152775316E1,2.730000019E-1,3.595950127E0,9.328950882E0
3.154775316E1,1.141050100E0,3.709050179E0,9.400950432E0
3.156775316E1,1.177050114E0,4.543950081E0,1.033200073E1
3.158775316E1,1.260000110E0,4.468050003E0,1.309800053E1
3.160775316E1,1.257000089E0,4.465950012E0,1.546200085E1
3.162775316E1,3.739500046E-1,4.464000225E0,1.624394989E1
3.164775316E1,-4.090500176E-1,4.411950111E0,1.707705116E1
3.166775316E1,-1.240050077E0,3.643950224E0,1.960095024E1
3.168775316E1,-1.339950085E0,2.767050028E0,1.960695076E1
3.170775316E1,-1.330950022E0,2.719050169E0,1.770900154E1
3.172775316E1,-5.460000038E-1,2.677950144E0,1.498095036E1
3.174775316E1,-4.410000145E-1,2.680950165E0,1.243005085E1
3.176775316E1,4.350000322E-1,2.664000034E0,1.070100021E1
3.178775316E1,4.600500166E-1,2.622000217E0,9.811050415E0
3.180775316E1,4.830000103E-1,2.551050186E0,9.739950180E0
3.182775316E1,4.870500267E-1,1.810950041E0,9.643950462E0
3.184775316E1,4.720500112E-1,1.716000080E0,9.616050720E0
3.186775316E1,4.170000255E-1,1.639050126E0,9.565050125E0
3.188775316E1,3.109500110E-1,1.591050029E0,9.465000153E0
3.190775316E1,2.260500044E-1,1.588950038E0,8.551050186E0
3.192775316E1,1.230000034E-1,1.674000025E0,7.786050320E0
3.194775316E1,1.395000052E-2,2.527050018E0,7.674000263E0
3.196775316E1,-8.809500337E-1,2.568000078E0,6.919050217E0
3.198775316E1,-8.389500380E-1,2.674950123E0,6.880050182E0
3.200775316E1,-8.050500154E-1,2.802000046E0,6.879000187E0
3.202775316E1,-8.569500446E-1,2.950950146E0,6.982050419E0
3.204775316E1,-1.711050034E0,3.760950089E0,8.548950195E0
3.206775316E1,-2.455050230E0,3.901050091E0,9.397950172E0
3.208775316E1,-2.527950048E0,4.645950317E0,1.039500046E1
3.210775316E1,-2.563050032E0,4.575000286E0,1.033605003E1
3.212775316E1,-2.583000183E0,4.621950150E0,1.025895023E1
3.214775316E1,-2.577000141E0,5.368950367E0,1.012395000E1
3.216775316E1,-2.515050173E0,6.232050419E0,8.488950729E0
3.218775316E1,-2.428950071E0,6.367950439E0,7.675050259E0
3.220775316E1,-2.319000006E0,6.424950123E0,7.747950554E0
3.222775316E1,-2.344950199E0,5.596950054E0,9.367950439E0
3.224775316E1,-2.461950064E0,4.761000156E0,1.264305019E1
3.226775316E1,-3.142050266E0,4.623000145E0,1.435305023E1
3.228775316E1,-3.100950241E0,3.871950150E0,1.335105038E1
3.230775316E1,-3.088950157E0,3.840000153E0,1.248795033E1
3.232775316E1,-3.150000095E0,3.886050224E0,1.153905010E1
3.234775316E1,-3.190050125E0,3.978000164E0,9.841950417E0
3.236775316E1,-3.180000067E0,4.057050228E0,9.004050255E0
3.238775316E1,-3.142950058E0,4.168950081E0,8.134050369E0
3.240775316E1,-3.063000202E0,4.228050232E0,7.255050182E0
3.242775316E1,-2.098050117E0,4.243050098E0,6.457950115E0
3.244775316E1,-1.353000045E0,4.240050316E0,6.396000385E0
3.246775316E1,-5.430000424E-1,4.261950016E0,5.584950447E0
3.248775316E1,-4.690500200E-1,4.317000389E0,5.617950439E0
3.250775316E1,-3.790500164E-1,4.410000324E0,5.737950325E0
3.252775316E1,-2.680500150E-1,4.537050247E0,6.490950108E0
3.254775316E1,-1.620000005E-1,4.651050091E0,6.574950218E0
3.256775316E1,-4.695000127E-2,4.747950077E0,8.055000305E0
3.258775316E1,8.730000257E-1,4.830000401E0,8.962050438E0
3.260775316E1,9.910500646E-1,4.905000210E0,9.769950867E0
3.262775316E1,1.722000122E0,4.965000153E0,1.200300026E1
3.264775316E1,9.030000567E-1,4.993050098E0,1.480905056E1
3.266775316E1,6.000000238E-2,5.077950478E0,1.558200073E1
3.268775316E1,1.249500066E-1,5.185950279E0,1.559805107E1
3.270775316E1,1.800000072E-1,5.293950081E0,1.398000050E1
3.272775316E1,-1.309950113E0,5.383950233E0,1.310700035E1
3.274775316E1,-2.205000162E0,5.341950417E0,1.396500111E1
3.276775316E1,-2.206950188E0,3.730050087E0,1.583205032E1
3.278775316E1,-1.384950042E0,2.857950211E0,1.469805050E1
3.280775316E1,-6.109500527E-1,2.826000214E0,1.197000027E1
3.282775316E1,-5.419500470E-1,2.860050201E0,9.528000832E0
3.284775316E1,-4.339500070E-1,3.652950287E0,7.812000275E0
3.286775316E1,-2.809500098E-1,3.657000065E0,7.747050285E0
3.288775316E1,4.200000167E-1,3.622950077E0,7.690050602E0
3.290775316E1,5.100000501E-1,3.580950260E0,7.570950508E0
3.292775316E1,5.749500394E-1,3.544050217E0,7.476000309E0
3.294775316E1,6.139500141E-1,3.549000263E0,7.366050243E0
3.296775316E1,5.910000205E-1,3.556050062E0,7.308000565E0
3.298775316E1,5.250000358E-1,3.577050209E0,7.252950191E0
3.300775316E1,4.560000300E-1,3.652950287E0,7.201950550E0
3.302775316E1,3.580500185E-1,4.549050331E0,7.119000435E0
3.304775316E1,2.260500044E-1,5.338050365E0,7.116000175E0
3.306775316E1,-5.860500336E-1,6.042000294E0,7.120050430E0
3.308775316E1,-1.515000105E0,6.067950249E0,7.896000385E0
3.310775316E1,-1.579950094E0,5.962950230E0,1.047495079E1
3.312775316E1,-1.626000047E0,5.236050129E0,1.209300041E1
3.314775316E1,-1.648950100E0,5.227050304E0,1.216605091E1
3.316775316E1,-1.615050077E0,5.119950294E0,1.220595074E1
3.318775316E1,-1.504050016E0,5.055000305E0,1.138995075E1
3.320775316E1,-7.470000386E-1,5.023050308E0,1.049895096E1
3.322775316E1,-6.619500518E-1,5.004000187E0,9.739050865E0
3.324775316E1,-5.490000248E-1,5.047050476E0,9.655050278E0
3.326775316E1,-4.270500243E-1,5.769000053E0,9.600000381E0
3.328775316E1,-3.229500055E-1,5.799000263E0,9.561000824E0
3.330775316E1,-3.540000021E-1,6.571950436E0,9.459000587E0
3.332775316E1,-4.480500221E-1,6.573000431E0,1.026195049E1
3.334775316E1,-1.282950044E0,5.467950344E0,1.274295044E1
3.336775316E1,-2.163000107E0,5.400000095E0,1.443705082E1
3.338775316E1,-2.289000034E0,3.886050224E0,1.529400063E1
3.340775316E1,-2.217000008E0,3.844950199E0,1.439895058E1
3.342775316E1,-2.106000185E0,3.778050184E0,1.049205017E1
3.344775316E1,-2.008050203E0,3.709050179E0,8.806050301E0
3.346775316E1,-1.198950052E0,3.721050262E0,8.037000656E0
3.348775316E1,-3.660000265E-1,3.720000267E0,7.300950527E0
3.350775316E1,-3.079500198E-1,3.685950279E0,6.487050533E0
3.352775316E1,-2.790000141E-1,3.675000191E0,6.376950264E0
3.354775316E1,-3.900000155E-1,4.603950024E0,6.394050121E0
3.356775316E1,-1.117950082E0,4.684050083E0,7.893000603E0
3.358775316E1,-1.018950105E0,4.732050419E0,8.701950073E0
3.360775316E1,-2.380500138E-1,4.809000015E0,7.866000175E0
3.362775316E1,-2.389500141E-1,4.948050022E0,7.060950279E0
3.364775316E1,-3.259500265E-1,5.836050510E0,6.319950104E0
3.366775316E1,-3.120000064E-1,6.583950520E0,7.177050114E0
3.368775316E1,-2.500500083E-1,6.589950085E0,7.999050617E0
3.370775316E1,-1.639500111E-1,6.642000198E0,8.122050285E0
3.372775316E1,-6.000000238E-2,6.712050438E0,8.929050446E0
3.374775316E1,-6.000000052E-3,6.750000477E0,9.040950775E0
3.376775316E1,1.800000109E-2,6.832950115E0,9.943950653E0
3.378775316E1,7.800000161E-2,6.868950367E0,1.099005032E1
3.380775316E1,9.529500604E-1,6.964950562E0,1.096500015E1
3.382775316E1,8.719500303E-1,7.066950321E0,8.655000687E0
3.384775316E1,1.480500102E-1,7.908000469E0,8.607000351E0
3.386775316E1,7.200000435E-2,7.918950558E0,9.469950676E0
3.388775316E1,-1.605000161E-2,6.973050117E0,1.096005058E1
3.390775316E1,-6.000000052E-3,6.178050518E0,1.101000023E1
3.392775316E1,8.119500279E-1,6.075000286E0,1.012395000E1
3.394775316E1,9.199500680E-1,5.938050270E0,9.148050308E0
3.396775316E1,1.003950000E0,5.895000458E0,8.299050331E0
3.398775316E1,1.038000107E0,5.851950169E0,9.100950241E0
3.400775316E1,1.053000093E0,5.833950043E0,9.172050476E0
3.402775316E1,1.059000015E0,5.757000446E0,9.108000755E0
3.404775316E1,1.126049995E0,4.900050163E0,7.453950405E0
3.406775316E1,1.204050064E0,4.876049995E0,6.652050495E0
3.408775316E1,1.186050057E0,4.914000034E0,6.625050545E0
3.410775316E1,1.095000029E0,4.992000103E0,6.628050327E0
3.412775316E1,2.080500126E-1,5.857950211E0,6.571950436E0
3.414775316E1,2.119500041E-1,5.947950363E0,6.538950443E0
3.416775316E1,2.100000083E-1,6.025050163E0,6.570000172E0
3.418775316E1,1.720500141E-1,6.109050274E0,7.422000408E0
3.420775316E1,1.249500066E-1,6.211050510E0,8.311050415E0
3.422775316E1,6.405000389E-2,6.295050144E0,8.409000397E0
3.424775316E1,-5.295000225E-2,6.373050213E0,9.189000130E0
3.426775316E1,-1.000500023E-1,6.429000378E0,1.000905037E1
3.428775316E1,-1.510500014E-1,6.520050526E0,9.949050903E0
3.430775316E1,-2.050500065E-1,6.651000500E0,9.133049965E0
3.432775316E1,-2.509500086E-1,7.399050236E0,9.153000832E0
3.434775316E1,-3.060000241E-1,7.471950531E0,9.198000908E0
3.436775316E1,-3.589500189E-1,7.537050247E0,9.151050568E0
3.438775316E1,-4.219500124E-1,7.591050148E0,9.082050323E0
3.440775316E1,-1.273050070E0,7.653000355E0,8.950050354E0
3.442775316E1,-2.092050076E0,7.666050434E0,8.905050278E0
3.444775316E1,-2.131950140E0,6.843000412E0,9.780000687E0
3.446775316E1,-2.226000071E0,5.719050407E0,1.069395065E1
3.448775316E1,-2.257050037E0,4.791000366E0,1.074600029E1
3.450775316E1,-2.185950041E0,4.698000431E0,1.064205074E1
3.452775316E1,-2.059050083E0,4.543950081E0,9.873000145E0
3.454775316E1,-1.909950137E0,4.461000443E0,8.280000687E0
3.456775316E1,-1.137000084E0,4.471950054E0,7.407000542E0
3.458775316E1,-1.084050059E0,4.519050121E0,6.601050377E0
3.460775316E1,-9.720000625E-1,4.639950275E0,6.508950233E0
3.462775316E1,-8.419500589E-1,4.756950378E0,6.448950291E0
3.464775316E1,-6.990000606E-1,5.596950054E0,6.471000195E0
3.466775316E1,7.050000131E-3,5.632950306E0,6.610950470E0
3.468775316E1,8.805000782E-2,5.749050140E0,6.711000443E0
3.470775316E1,9.610500336E-1,6.471000195E0,7.722000599E0
3.472775316E1,1.000050068E0,6.544950485E0,7.837950230E0
3.474775316E1,1.048050046E0,6.624000549E0,8.743050575E0
3.476775316E1,1.096950054E0,6.702000141E0,9.622050285E0
3.478775316E1,1.110000014E0,6.799950123E0,1.046700096E1
3.480775316E1,1.213950038E0,6.922050476E0,1.055805016E1
3.482775316E1,1.309950113E0,6.979950428E0,1.060800076E1
3.484775316E1,1.348050117E0,7.015950203E0,1.074600029E1
3.486775316E1,5.370000005E-1,6.991050243E0,1.157700062E1
3.488775316E1,5.290500522E-1,6.964050293E0,1.242795086E1
3.490775316E1,6.049500108E-1,6.900000095E0,1.166100025E1
3.492775316E1,5.689499974E-1,6.829050541E0,1.092900085E1
3.494775316E1,4.300500154E-1,6.850050449E0,1.180005074E1
3.496775316E1,2.929500043E-1,6.835950375E0,1.179300022E1
3.498775316E1,1.759500057E-1,6.067950249E0,1.098000050E1
3.500775316E1,2.070000172E-1,5.971950054E0,9.193050385E0
3.502775316E1,3.330000043E-1,5.833950043E0,8.331000328E0
3.504775316E1,4.500000179E-1,5.731950283E0,7.570950508E0
3.506775316E1,5.530500412E-1,4.977000237E0,7.624050140E0
3.508775316E1,6.370500326E-1,4.120950222E0,7.752000332E0
3.510775316E1,6.619500518E-1,4.170000076E0,7.866000175E0
3.512775316E1,5.449500084E-1,4.288949966E0,7.858950138E0
3.514775316E1,4.170000255E-1,5.077950478E0,7.798950195E0
3.516775316E1,3.199500144E-1,5.125050068E0,7.665000439E0
3.518775316E1,2.770500183E-1,5.115000248E0,6.889050484E0
3.520775316E1,2.730000019E-1,5.115000248E0,6.109950066E0
3.522775316E1,2.479500175E-1,5.086950302E0,6.172050476E0
3.524775316E1,2.569500208E-1,5.019000053E0,7.726050377E0
3.526775316E1,2.500500083E-1,5.005950451E0,7.878000259E0
3.528775316E1,2.310000062E-1,4.999050140E0,8.626950264E0
3.530775316E1,2.110500038E-1,5.028000355E0,8.637000084E0
3.532775316E1,1.870500147E-1,5.116950035E0,8.692950249E0
3.534775316E1,1.710000038E-1,5.272050381E0,8.646000862E0
3.536775316E1,1.410000026E-1,6.081000328E0,8.566950798E0
3.538775316E1,9.600000083E-2,6.016950130E0,9.466050148E0
3.540775316E1,1.200000010E-2,5.935050488E0,9.531000137E0
3.542775316E1,4.500000179E-2,5.248950481E0,1.031805038E1
3.544775316E1,7.710000277E-1,5.338050365E0,9.411000252E0
3.546775316E1,6.600000262E-1,5.325000286E0,8.690999985E0
3.548775316E1,-1.660500020E-1,5.380050182E0,1.059000015E1
3.550775316E1,-1.842000127E0,5.332050323E0,1.235100079E1
3.552775316E1,-2.613000154E0,4.401000023E0,1.236300087E1
3.554775316E1,-2.583000183E0,2.686950207E0,1.160505009E1
3.556775316E1,-2.554950237E0,1.854000092E0,1.150500011E1
3.558775316E1,-3.370050192E0,1.000050068E0,1.146795082E1
3.560775316E1,-3.366000175E0,9.150000215E-1,1.246500015E1
3.562775316E1,-2.494950056E0,4.095000029E-2,1.330695057E1
3.564775316E1,-7.789500356E-1,-7.570500374E-1,1.336005020E1
3.566775316E1,-6.169500351E-1,-7.669500113E-1,1.241505051E1
3.568775316E1,2.295000106E-2,8.100000024E-2,1.076205063E1
3.570775316E1,-1.279500127E-1,1.350000054E-1,9.945000648E0
3.572775316E1,-9.220500588E-1,1.867950082E0,8.989950180E0
3.574775316E1,-8.650500178E-1,1.974000096E0,8.922000885E0
3.576775316E1,-8.269500136E-1,2.719950199E0,8.782050133E0
3.578775316E1,-7.360500097E-1,2.857950211E0,7.990050316E0
3.580775316E1,-6.180000305E-1,3.592050076E0,7.900950432E0
3.582775316E1,-5.610000491E-1,3.667950153E0,7.879050255E0
3.584775316E1,-6.370500326E-1,4.510950089E0,7.942050457E0
3.586775316E1,-6.930000186E-1,4.444950104E0,8.068050385E0
3.588775316E1,-5.989500284E-1,3.673950195E0,9.130949974E0
3.590775316E1,2.149500102E-1,2.853000164E0,9.949050903E0
3.592775316E1,1.000950098E0,1.975950122E0,1.164105034E1
3.594775316E1,1.009050012E0,1.252050042E0,1.255305099E1
3.596775316E1,9.300000668E-1,1.234050035E0,1.338705063E1
3.598775316E1,9.220500588E-1,1.324050069E0,1.349505043E1
3.600775316E1,1.200000048E-1,2.080049992E0,1.347600079E1
3.602775316E1,-7.710000277E-1,2.067000151E0,1.335300064E1
3.604775316E1,-8.350500464E-1,1.186950088E0,1.264200020E1
3.606775316E1,-8.509500623E-1,1.072950006E0,1.343700027E1
3.608775316E1,-7.304999977E-2,3.190500140E-1,1.347405052E1
3.610775316E1,7.810500264E-1,2.749500275E-1,1.190295029E1
3.612775316E1,8.770500422E-1,2.779500186E-1,1.006500053E1
3.614775316E1,1.021050096E0,2.839500010E-1,9.241950035E0
3.616775316E1,1.171950102E0,3.450000286E-1,9.136950493E0
3.618775316E1,1.285050035E0,3.760500252E-1,1.001100063E1
3.620775316E1,1.332000017E0,3.319500089E-1,1.005300045E1
3.622775316E1,1.303050041E0,2.659500241E-1,1.013595009E1
3.624775316E1,1.219950080E0,1.819500029E-1,1.024500084E1
3.626775316E1,1.189050078E0,1.369500011E-1,1.029105091E1
3.628775316E1,1.144950032E0,1.189500093E-1,1.023000050E1
3.630775316E1,1.089000106E0,1.609500051E-1,9.445950508E0
3.632775316E1,9.499500394E-1,2.980500162E-1,8.665950775E0
3.634775316E1,1.770000011E-1,1.039950013E0,8.605050087E0
3.636775316E1,1.290000081E-1,1.131000042E0,8.536050797E0
3.638775316E1,6.495000422E-2,1.225950003E0,8.611950874E0
3.640775316E1,-4.200000316E-2,1.300950050E0,9.388050079E0
3.642775316E1,-8.220000267E-1,1.441950083E0,1.023000050E1
3.644775316E1,-9.310500622E-1,1.567050099E0,1.105905056E1
3.646775316E1,-1.009950042E0,1.630050063E0,1.183200073E1
3.648775316E1,-1.077000022E0,1.654050112E0,1.188405037E1
3.650775316E1,-1.051050067E0,1.644000053E0,1.194900036E1
3.652775316E1,-1.003950000E0,1.629000068E0,1.194495010E1
3.654775316E1,-9.730500579E-1,1.723950028E0,1.111800098E1
3.656775316E1,-9.769500494E-1,1.807950139E0,1.019805050E1
3.658775316E1,-9.160500169E-1,1.795950055E0,1.103895092E1
3.660775316E1,-8.059500456E-1,9.750000238E-1,1.115805054E1
3.662775316E1,-8.500500321E-1,1.410000026E-1,1.191600037E1
3.664775316E1,-9.769500494E-1,-8.500500321E-1,1.280205059E1
3.666775316E1,-1.099950075E0,-1.633050084E0,1.453995037E1
3.668775316E1,-1.249050021E0,-1.651950121E0,1.452000046E1
3.670775316E1,-2.083050013E0,-6.970500350E-1,1.376805019E1
3.672775316E1,-2.893950224E0,-5.430000424E-1,1.227405071E1
3.674775316E1,-2.931000233E0,2.380500138E-1,1.093905067E1
3.676775316E1,-2.851950169E0,3.130500019E-1,9.301950455E0
3.678775316E1,-2.042999983E0,4.429500103E-1,8.452950478E0
3.680775316E1,-1.957950115E0,1.269000053E0,8.422950745E0
3.682775316E1,-1.813950062E0,1.339950085E0,8.356050491E0
3.684775316E1,-1.084050059E0,1.417950034E0,7.546950340E0
3.686775316E1,-1.006049991E0,1.534050107E0,6.736050129E0
3.688775316E1,-1.609500051E-1,1.705950022E0,6.054000378E0
3.690775316E1,-1.410000026E-1,2.424000025E0,6.844050407E0
3.692775316E1,-1.690500081E-1,2.460000038E0,8.533050537E0
3.694775316E1,-2.190000117E-1,2.532000065E0,9.304050446E0
3.696775316E1,-2.140500098E-1,2.605050087E0,9.361950874E0
3.698775316E1,-1.620000005E-1,2.658000231E0,9.439949989E0
3.700775316E1,-8.805000782E-2,2.715000153E0,9.511050224E0
3.702775316E1,-2.205000073E-2,2.821050167E0,9.603000641E0
3.704775316E1,-3.600000218E-2,2.914050102E0,1.060200024E1
3.706775316E1,-1.069500074E-1,2.908050060E0,1.209000015E1
3.708775316E1,-2.539499998E-1,2.094000101E0,1.389795113E1
3.710775316E1,-2.730000019E-1,2.053050041E0,1.561005116E1
3.712775316E1,-3.160500228E-1,2.016000032E0,1.574400043E1
3.714775316E1,-4.219500124E-1,1.162950039E0,1.566900063E1
3.716775316E1,-1.258950114E0,1.024950027E0,1.485195065E1
3.718775316E1,-3.850500286E-1,1.780500114E-1,1.479705048E1
3.720775316E1,-2.839500010E-1,-5.629500151E-1,1.473795033E1
3.722775316E1,6.270000339E-1,-5.329500437E-1,1.375305080E1
3.724775316E1,6.060000062E-1,-4.189500213E-1,1.211505032E1
3.726775316E1,5.260500312E-1,4.879500270E-1,1.040700054E1
3.728775316E1,4.510500133E-1,6.220500469E-1,9.657000542E0
3.730775316E1,3.610500097E-1,1.312950015E0,8.761050224E0
3.732775316E1,2.740500271E-1,5.400000215E-1,8.751000404E0
3.734775316E1,2.299500108E-1,5.190000534E-1,8.742000580E0
3.736775316E1,2.449500114E-1,4.840500355E-1,8.817000389E0
3.738775316E1,3.139500022E-1,4.789500237E-1,8.821949959E0
3.740775316E1,4.150500298E-1,4.960500300E-1,8.014950752E0
3.742775316E1,4.189500213E-1,5.830500126E-1,7.086000443E0
3.744775316E1,4.099500179E-1,1.411050081E0,6.970950127E0
3.746775316E1,3.870000243E-1,1.492950082E0,6.961950302E0
3.748775316E1,2.890500128E-1,1.581000090E0,7.927950382E0
3.750775316E1,1.810500026E-1,1.699050069E0,8.814000130E0
3.752775316E1,-5.839500427E-1,1.792950034E0,8.922000885E0
3.754775316E1,-6.730500460E-1,1.908000112E0,1.051605034E1
3.756775316E1,-7.660500407E-1,1.990050077E0,1.139505100E1
3.758775316E1,-8.170500398E-1,2.083050013E0,1.149195099E1
3.760775316E1,-8.610000610E-1,2.133000135E0,1.158705044E1
3.762775316E1,-8.910000324E-1,2.146050215E0,1.171200085E1
3.764775316E1,-8.970000148E-1,2.083950043E0,1.258605099E1
3.766775316E1,-8.449500203E-1,2.005050182E0,1.338300037E1
3.768775316E1,-8.560500145E-1,1.960050106E0,1.426605034E1
3.770775316E1,-8.770500422E-1,1.851000071E0,1.421595097E1
3.772775316E1,-9.600000381E-1,2.659500241E-1,1.342305088E1
3.774775316E1,-1.824000120E0,-6.370500326E-1,1.338900089E1
3.776775316E1,-1.798950076E0,-6.919500232E-1,1.423305035E1
3.778775316E1,-1.717050076E0,-6.690000296E-1,1.432695103E1
3.780775316E1,-1.756050110E0,-5.680500269E-1,1.186200047E1
3.782775316E1,-2.677950144E0,-4.500000179E-1,9.076950073E0
3.784775316E1,-2.710950136E0,6.649500132E-1,9.037950516E0
3.786775316E1,-1.825950146E0,1.495050073E0,9.085050583E0
3.788775316E1,-1.000050068E0,1.483050108E0,8.171999931E0
3.790775316E1,-8.959500194E-1,1.474950075E0,7.264950275E0
3.792775316E1,-7.549500465E-1,1.429950118E0,7.140000343E0
3.794775316E1,-6.795000285E-2,1.498050094E0,7.135950565E0
3.796775316E1,-6.195000187E-2,1.596000075E0,7.239000320E0
3.798775316E1,-3.705000132E-2,1.717050076E0,7.318050385E0
3.800775316E1,-6.000000052E-3,1.861050129E0,7.423950195E0
3.802775316E1,9.000000544E-3,2.656950235E0,8.158050537E0
3.804775316E1,-1.200000010E-2,2.676000118E0,8.272050858E0
3.806775316E1,-3.000000026E-3,2.740950108E0,9.126000404E0
3.808775316E1,-7.800000161E-2,2.824950218E0,9.907050133E0
3.810775316E1,-1.042050004E0,2.784000158E0,1.141995049E1
3.812775316E1,-1.104000092E0,1.875000119E0,1.320000076E1
3.814775316E1,-1.141050100E0,1.093050003E0,1.502295113E1
3.816775316E1,-1.129950047E0,3.550500274E-1,1.594605064E1
3.818775316E1,-3.570000231E-1,3.289500177E-1,1.590705109E1
3.820775316E1,5.530500412E-1,2.920500040E-1,1.423395061E1
3.822775316E1,4.680000246E-1,3.079500198E-1,1.276905060E1
3.824775316E1,-4.180500209E-1,4.440000355E-1,1.288605022E1
3.826775316E1,-1.261950016E0,5.479500294E-1,1.455900097E1
3.828775316E1,-4.390500188E-1,5.170500278E-1,1.374000072E1
3.830775316E1,5.299500227E-1,4.489500225E-1,1.207095051E1
3.832775316E1,5.790000558E-1,4.140000343E-1,9.367950439E0
3.834775316E1,5.800500512E-1,4.900500178E-1,8.478000641E0
3.836775316E1,6.610500216E-1,1.360950112E0,8.389050484E0
3.838775316E1,7.560000420E-1,1.306950092E0,8.447999954E0
3.840775316E1,8.440500498E-1,1.180950046E0,9.202950478E0
3.842775316E1,9.090000391E-1,3.910500109E-1,9.193050385E0
3.844775316E1,9.349500537E-1,3.610500097E-1,9.067049980E0
3.846775316E1,9.109500647E-1,3.130500019E-1,8.287950516E0
3.848775316E1,9.060000181E-1,2.970000207E-1,8.302950859E0
3.850775316E1,9.010500312E-1,3.210000098E-1,8.365950584E0
3.852775316E1,9.850500226E-1,1.264050007E0,8.403000832E0
3.854775316E1,1.093950033E0,1.411050081E0,8.442000389E0
3.856775316E1,2.509500086E-1,2.065050125E0,9.292950630E0
3.858775316E1,1.789500117E-1,1.224000096E0,1.192800045E1
3.860775316E1,1.540500075E-1,4.290000200E-1,1.363605022E1
3.862775316E1,1.480500102E-1,-4.690500200E-1,1.513395119E1
3.864775316E1,9.495000541E-2,-5.040000081E-1,1.438305092E1
3.866775316E1,-7.510500550E-1,-4.980000257E-1,1.351305103E1
3.868775316E1,-1.537950039E0,-4.150500298E-1,1.267395020E1
3.870775316E1,-1.669950128E0,-2.939999998E-1,1.268895054E1
3.872775316E1,-1.725000024E0,-1.620000005E-1,1.269195080E1
3.874775316E1,-1.732050061E0,-2.205000073E-2,1.166100025E1
3.876775316E1,-9.990000725E-1,6.799500585E-1,9.952050209E0
3.878775316E1,-9.760500193E-1,7.099500299E-1,9.895050049E0
3.880775316E1,-1.081050038E0,7.549500465E-1,9.952950478E0
3.882775316E1,-1.224000096E0,7.570500374E-1,1.079505062E1
3.884775316E1,-2.121000051E0,6.799500585E-1,1.158795071E1
3.886775316E1,-2.167950153E0,5.590500236E-1,1.163100052E1
3.888775316E1,-2.211000204E0,5.100000501E-1,1.169100094E1
3.890775316E1,-2.266950130E0,5.380499959E-1,1.161900043E1
3.892775316E1,-2.172000170E0,5.749500394E-1,1.081500053E1
3.894775316E1,-1.279950023E0,5.689499974E-1,9.880950928E0
3.896775316E1,-1.231050014E0,5.680500269E-1,9.120000839E0
3.898775316E1,-1.161000013E0,5.820000172E-1,9.097949982E0
3.900775316E1,-1.114050031E0,6.990000606E-1,9.208950043E0
3.902775316E1,-1.105050087E0,1.546950102E0,9.285000801E0
3.904775316E1,-1.023000002E0,1.651050091E0,9.262050629E0
3.906775316E1,-1.018050075E0,2.434950113E0,9.214050293E0
3.908775316E1,-9.709500670E-1,2.521050215E0,9.117000580E0
3.910775316E1,-8.280000687E-1,2.611950159E0,8.986950874E0
3.912775316E1,-8.895000070E-2,2.689950228E0,8.290950775E0
3.914775316E1,-4.995000362E-2,2.779950142E0,9.258000374E0
3.916775316E1,7.540500164E-1,3.580050230E0,1.003800011E1
3.918775316E1,1.663050056E0,3.573000193E0,9.979050636E0
3.920775316E1,1.593000054E0,3.564000130E0,7.998000145E0
3.922775316E1,-3.795000166E-2,3.522000074E0,8.784000397E0
3.924775316E1,-9.319500327E-1,3.418050051E0,1.204605103E1
3.926775316E1,-8.890500665E-1,3.286050081E0,1.483605099E1
3.928775316E1,-8.479500413E-1,2.527950048E0,1.492800045E1
3.930775316E1,-9.330000281E-1,1.728000045E0,1.413405037E1
3.932775316E1,-1.632000089E0,9.100500345E-1,1.414095020E1
3.934775316E1,-1.578000069E0,7.870500088E-1,1.424505043E1
3.936775316E1,-7.450500131E-1,6.495000422E-2,1.428495026E1
3.938775316E1,-6.150000095E-1,6.795000285E-2,1.333500099E1
3.940775316E1,-4.900500178E-1,1.890000105E-1,1.143705082E1
3.942775316E1,-3.790500164E-1,1.021950006E0,9.727950096E0
3.944775316E1,-3.049500287E-1,1.173000097E0,8.839950562E0
3.946775316E1,-2.059500068E-1,1.879950047E0,8.779050827E0
3.948775316E1,-1.290000081E-1,1.800000072E0,8.855999947E0
3.950775316E1,-4.605000094E-2,8.130000234E-1,8.980050087E0
3.952775316E1,4.605000094E-2,7.680000067E-1,9.696000099E0
3.954775316E1,1.620000005E-1,7.530000210E-1,9.666000366E0
3.956775316E1,8.790000677E-1,8.140500188E-1,8.752050400E0
3.958775316E1,7.690500617E-1,9.700500369E-1,8.686950684E0
3.960775316E1,6.480000019E-1,1.837050080E0,8.553000450E0
3.962775316E1,5.149500370E-1,1.951050043E0,8.454000473E0
3.964775316E1,4.360500276E-1,2.089950085E0,8.401950836E0
3.966775316E1,3.349500299E-1,2.203950167E0,8.437050819E0
3.968775316E1,2.569500208E-1,2.308050156E0,9.351000786E0
3.970775316E1,1.840500087E-1,2.353049994E0,1.029495049E1
3.972775316E1,8.100000024E-2,2.442000151E0,1.029000092E1
3.974775316E1,-7.009500265E-1,2.560050011E0,1.038405037E1
3.976775316E1,-8.419500589E-1,3.327000141E0,1.123005009E1
3.978775316E1,-1.572000027E0,3.310950041E0,1.202400017E1
3.980775316E1,-1.578000069E0,2.500050068E0,1.215600014E1
3.982775316E1,-5.299500227E-1,1.653000116E0,1.289295101E1
3.984775316E1,-4.840500355E-1,1.651050091E0,1.286895084E1
3.986775316E1,-5.740500093E-1,1.726050138E0,1.200795078E1
3.988775316E1,-1.396050096E0,2.473050117E0,1.050105095E1
3.990775316E1,-1.498050094E0,2.542950153E0,1.040400028E1
3.992775316E1,-2.280000210E0,2.521950006E0,1.036200047E1
3.994775316E1,-2.284950018E0,1.627950072E0,1.113600063E1
3.996775316E1,-2.337000132E0,8.340000510E-1,1.195095062E1
3.998775316E1,-2.380950212E0,7.069500089E-1,1.199595070E1
4.000775316E1,-2.404050112E0,5.710500479E-1,1.201995087E1
4.002775316E1,-2.386050224E0,4.819500148E-1,1.122195053E1
4.004775316E1,-2.404050112E0,4.530000091E-1,1.035300064E1
4.006775316E1,-2.343000174E0,1.284000039E0,9.525000572E0
4.008775316E1,-2.305950165E0,2.061000109E0,8.628000259E0
4.010775316E1,-2.317050219E0,2.119950056E0,7.801050186E0
4.012775316E1,-2.272950172E0,2.194050074E0,7.785000324E0
4.014775316E1,-1.417950034E0,2.251950026E0,7.797000408E0
4.016775316E1,-4.480500221E-1,2.245050192E0,7.873050213E0
4.018775316E1,-3.679500222E-1,2.194050074E0,7.918050289E0
4.020775316E1,-2.710500062E-1,2.131050110E0,7.978950500E0
4.022775316E1,-2.010000050E-1,2.109000206E0,8.760000229E0
4.024775316E1,-1.489500105E-1,2.100000143E0,8.880000114E0
4.026775316E1,-1.669500023E-1,2.056050062E0,9.867000580E0
4.028775316E1,-1.909500062E-1,2.026050091E0,1.213905048E1
4.030775316E1,-1.084050059E0,2.919000149E0,1.468095112E1
4.032775316E1,-1.204950094E0,2.977050066E0,1.467195034E1
4.034775316E1,-1.267950058E0,3.037050247E0,1.312605095E1
4.036775316E1,-1.330950022E0,3.103950262E0,1.221795082E1
4.038775316E1,-1.384950042E0,3.159000158E0,1.215900040E1
4.040775316E1,-1.419000030E0,3.241050243E0,1.213200092E1
4.042775316E1,-1.401000023E0,2.409000158E0,1.367595100E1
4.044775316E1,-5.050500035E-1,1.486950040E0,1.547100067E1
4.046775316E1,1.980000138E-1,-1.120500043E-1,1.631895065E1
4.048775316E1,2.280000150E-1,-1.771950126E0,1.542600060E1
4.050775316E1,1.075049996E0,-1.852950096E0,1.381500053E1
4.052775316E1,1.900050044E0,-1.881000042E0,1.302105045E1
4.054775316E1,1.911000133E0,-1.755000114E0,1.149000072E1
4.056775316E1,1.888950109E0,-8.920500278E-1,1.061595058E1
4.058775316E1,1.816050053E0,-7.630500197E-1,9.808950424E0
4.060775316E1,9.859500527E-1,1.110000089E-1,9.726000786E0
4.062775316E1,1.450500041E-1,1.054949999E0,8.895000458E0
4.064775316E1,-8.809500337E-1,1.807950139E0,8.827950478E0
4.066775316E1,-9.370500445E-1,2.623950243E0,8.039999962E0
4.068775316E1,-1.722000122E0,2.716050148E0,7.989000320E0
4.070775316E1,-1.794000030E0,2.878950119E0,7.147050381E0
4.072775316E1,-2.649000168E0,3.753000259E0,6.397050381E0
4.074775316E1,-3.549000263E0,3.889050245E0,7.483950138E0
4.076775316E1,-3.607950211E0,3.990000248E0,9.463050842E0
4.078775316E1,-3.640950203E0,3.943050146E0,9.558000565E0
4.080775316E1,-3.559050083E0,3.033000231E0,1.036305046E1
4.082775316E1,-2.752050161E0,2.160000086E0,1.028805065E1
4.084775316E1,-1.923000097E0,2.028000116E0,1.022805023E1
4.086775316E1,-1.803000093E0,1.966050148E0,1.016805077E1
4.088775316E1,-1.705950022E0,2.029050112E0,1.008600044E1
4.090775316E1,-9.319500327E-1,2.109000206E0,1.005195045E1
4.092775316E1,-1.630500108E-1,2.188950062E0,1.086300087E1
4.094775316E1,-1.290000081E-1,2.269950151E0,1.160400009E1
4.096775316E1,-6.495000422E-2,3.055050135E0,1.150095081E1
4.098775316E1,1.050000079E-3,3.126000166E0,1.070895004E1
4.100775316E1,-1.395000052E-2,3.202950239E0,1.076700020E1
4.102775316E1,-1.572000027E0,3.175050259E0,1.237095070E1
4.104775316E1,-1.648050070E0,2.386050224E0,1.321095085E1
4.106775316E1,-1.693950057E0,1.552950025E0,1.332000065E1
4.108775316E1,-1.717050076E0,1.461000085E0,1.327305031E1
4.110775316E1,-1.693050027E0,1.450950027E0,1.163505077E1
4.112775316E1,-1.725000024E0,2.325000048E0,1.151895046E1
4.114775316E1,-1.791000128E0,2.407050133E0,1.056195068E1
4.116775316E1,-1.765950084E0,2.485950232E0,1.041795063E1
4.118775316E1,-8.520000577E-1,2.526000023E0,8.721000671E0
4.120775316E1,-7.999500632E-1,2.488950014E0,8.701950073E0
4.122775316E1,-6.690000296E-1,2.458050013E0,8.770950317E0
4.124775316E1,-5.760000348E-1,2.446050167E0,8.880000114E0
4.126775316E1,-5.089499950E-1,2.470050097E0,8.962050438E0
4.128775316E1,-4.810500145E-1,2.578050137E0,9.028050423E0
4.130775316E1,-4.519500136E-1,3.363000154E0,9.040950775E0
4.132775316E1,-4.330500066E-1,3.409050226E0,9.039000511E0
4.134775316E1,-3.820500076E-1,3.472950220E0,9.105000496E0
4.136775316E1,-3.420000076E-1,3.556050062E0,9.229050636E0
4.138775316E1,-3.160500228E-1,3.639000177E0,9.333000183E0
4.140775316E1,-2.580000162E-1,3.667950153E0,9.451950073E0
4.142775316E1,-2.029500157E-1,3.622050285E0,1.022295094E1
4.144775316E1,-1.540500075E-1,3.583050251E0,1.104105091E1
4.146775316E1,-4.995000362E-2,3.483000278E0,1.201500034E1
4.148775316E1,7.830000520E-1,3.403050184E0,1.205100060E1
4.150775316E1,9.000000358E-1,3.357000113E0,1.209000015E1
4.152775316E1,1.779000044E0,3.232950211E0,1.200495052E1
4.154775316E1,3.430050135E0,3.124050140E0,1.109400082E1
4.156775316E1,3.546000242E0,3.253050089E0,8.644050598E0
4.158775316E1,1.504950047E0,1.495950103E0,8.916000366E0
4.160775316E1,1.542000055E0,7.080000043E-1,1.289100075E1
4.162775316E1,1.503000021E0,6.199500561E-1,1.531305027E1
4.164775316E1,-5.895000324E-2,-1.500000060E-2,1.359105110E1
4.166775316E1,-8.460000157E-1,8.280000687E-1,9.931050301E0
4.168775316E1,-8.530500531E-1,1.564050078E0,9.118950844E0
4.170775316E1,-8.089500666E-1,1.555050015E0,9.952050209E0
4.172775316E1,-7.380000353E-1,1.492050052E0,1.077600098E1
4.174775316E1,-7.200000286E-1,1.405050039E0,9.885000229E0
4.176775316E1,-6.910500526E-1,1.372050047E0,8.769000053E0
4.178775316E1,-6.229500175E-1,1.420950055E0,8.683950424E0
4.180775316E1,-2.992950201E0,2.844000101E0,1.147005081E1
4.182775316E1,-2.111999989E0,2.490000010E0,1.144095039E1
