"Time (s)","Acceleration x (m/s^2)","Acceleration y (m/s^2)","Acceleration z (m/s^2)"
1.612226500E-2,-3.009511471E0,4.563348293E0,7.869740963E0
3.621299600E-2,-2.822763920E0,4.623203278E0,8.604761124E0
5.629695700E-2,-2.638410330E0,4.601655483E0,8.259995461E0
7.639257200E-2,-2.573766708E0,4.501099110E0,7.931990147E0
9.648095700E-2,-2.413355350E0,4.553771496E0,7.788338184E0
1.165699570E-1,-2.195482969E0,4.666299343E0,8.339004517E0
1.366561110E-1,-2.061407566E0,4.855441093E0,8.420407295E0
1.567446110E-1,-2.331952572E0,4.774038315E0,8.549694061E0
1.768343410E-1,-2.161964178E0,4.558559895E0,9.071630478E0
1.969253410E-1,-1.881842494E0,4.271255970E0,9.076418877E0
2.170138410E-1,-1.094150186E0,4.089296341E0,8.348581314E0
2.371084560E-1,-1.029506683E0,4.434061527E0,8.013393402E0
2.571976870E-1,-1.371877551E0,4.515464306E0,7.958326340E0
2.772929950E-1,-1.376665950E0,4.422090530E0,8.058882713E0
2.973821480E-1,-1.453280449E0,4.939238071E0,7.802703381E0
3.174736870E-1,-1.580173135E0,5.506663799E0,7.987056732E0
3.375596480E-1,-1.568202138E0,5.116408825E0,8.147468567E0
3.576481100E-1,-7.613561153E-1,4.541800499E0,8.276755333E0
3.777319170E-1,3.878606856E-1,4.043806553E0,7.814674377E0
3.978143400E-1,1.316810966E0,3.119644880E0,7.924807549E0
4.178890330E-1,3.936067581E0,1.379060149E0,9.792284966E0
4.379537250E-1,4.386177540E0,9.026140571E-1,1.039083576E1
4.580289560E-1,2.600103140E0,1.125274777E0,9.454702377E0
4.781312250E-1,1.438915253E0,2.748543501E0,8.817844391E0
4.982055320E-1,-1.189918280E0,3.744531393E0,8.425195694E0
5.182851860E-1,-3.842693806E0,4.687847137E0,7.855375767E0
5.383612240E-1,-3.790021181E0,4.893748283E0,7.900865555E0
5.584413780E-1,-1.640028119E0,4.424484730E0,8.224082947E0
5.785198400E-1,1.651999116E0,4.072536945E0,8.650250435E0
5.985991860E-1,3.576937437E0,3.622427225E0,1.040041256E1
6.186661860E-1,1.850717902E0,3.351882458E0,1.241872406E1
6.387368010E-1,-8.619125932E-2,3.435679436E0,1.178186703E1
6.588053780E-1,-9.097966552E-2,3.043030262E0,1.079306126E1
6.788767620E-1,-1.173158810E-1,2.822763920E0,1.050336266E1
6.989498010E-1,4.118026793E-1,2.947262287E0,9.813833237E0
7.190280310E-1,1.795651317E-1,3.112462282E0,9.224859238E0
7.391170310E-1,-4.932055473E-1,3.210624456E0,9.162610054E0
7.592339160E-1,-7.733271718E-1,3.627215624E0,9.102754593E0
7.793227240E-1,-2.049436569E0,4.412513733E0,8.104372978E0
7.994030310E-1,-1.070208192E0,3.440467834E0,8.480262756E0
8.194823000E-1,-5.027823448E-1,2.784456491E0,8.743624687E0
8.395610310E-1,-2.274491638E-1,2.437297344E0,9.004592896E0
8.596359920E-1,-3.208230138E-1,2.001552582E0,9.100360870E0
8.797182230E-1,4.548983276E-2,1.920149803E0,9.548076630E0
8.998139150E-1,2.370259613E-1,1.716642618E0,9.555258751E0
9.198989150E-1,-7.900865376E-2,1.764526606E0,9.435548782E0
9.399788000E-1,-4.094084799E-1,1.774103403E0,8.968679428E0
9.600660690E-1,-5.602431893E-1,1.735796213E0,8.743624687E0
9.801491460E-1,-8.451532125E-1,1.889025092E0,8.446743965E0
1.000236992E0,-6.967126727E-1,2.039859772E0,7.922413349E0
1.020321492E0,-4.525041282E-1,2.090138197E0,7.642292023E0
1.040406261E0,-1.628057212E-1,1.572990537E0,7.592013359E0
1.060472607E0,-4.979939461E-1,1.405396342E0,8.010998726E0
1.080558761E0,-1.292868853E-1,1.666364431E0,9.042900085E0
1.100645607E0,1.165976286E0,1.766920805E0,9.562441826E0
1.120738607E0,2.580949545E0,1.261744261E0,9.504981041E0
1.140818030E0,2.118868589E0,1.489193439E0,8.781931877E0
1.160896991E0,1.367089152E0,1.333570361E0,8.951920509E0
1.180981145E0,1.060631394E0,9.528923035E-1,9.868899345E0
1.201066914E0,4.046200812E-1,1.233013868E0,1.053927612E1
1.221160722E0,7.182604820E-2,1.553836942E0,1.065180302E1
1.241246683E0,3.184288144E-1,1.620874524E0,1.014423275E1
1.261331568E0,6.919242740E-1,1.640028119E0,9.600749016E0
1.281419645E0,8.906430602E-1,1.802833915E0,9.770736694E0
1.301507645E0,9.241618514E-1,2.099714994E0,1.039562416E1
1.321594568E0,1.027112484E0,2.233790159E0,1.068292809E1
1.341679875E0,1.280897856E0,2.047042370E0,1.044829655E1
1.361768144E0,1.304839969E0,1.900996208E0,1.045787334E1
1.381876990E0,1.110909581E0,1.740584612E0,1.101572227E1
1.401963798E0,8.762778044E-1,1.637633920E0,1.148738003E1
1.422047644E0,7.206547260E-1,1.620874524E0,1.120965195E1
1.442135952E0,5.243301988E-1,1.771709204E0,1.055842972E1
1.462226682E0,4.788403511E-1,1.843535304E0,9.923966408E0
1.482317567E0,5.841852427E-1,2.075772762E0,9.114726067E0
1.502403528E0,3.351882398E-1,2.327163935E0,8.348581314E0
1.522496528E0,1.867477298E-1,2.590526342E0,7.785943985E0
1.542583451E0,1.074996591E0,2.288856745E0,7.647080421E0
1.562670413E0,1.836352706E0,1.889025092E0,8.686163902E0
1.582759720E0,2.013523579E0,1.855506301E0,1.049139214E1
1.602835067E0,2.949656487E0,1.814804912E0,1.200213337E1
1.622907143E0,2.975992680E0,1.719036818E0,1.228464890E1
1.642979489E0,1.826775908E0,1.872265697E0,1.176510715E1
1.663049105E0,1.687912226E0,1.637633920E0,1.126232433E1
1.683137105E0,2.085349798E0,1.489193439E0,1.020408726E1
1.703239182E0,1.946485996E0,1.493981838E0,9.651026726E0
1.723331720E0,1.355118155E0,1.719036818E0,9.739612579E0
1.743419412E0,9.050082564E-1,1.783680320E0,9.397241592E0
1.763503720E0,1.175553083E0,1.726219416E0,8.374917984E0
1.783587489E0,1.278503656E0,1.948880196E0,7.592013359E0
1.803672027E0,1.400607944E0,2.121262789E0,8.046912193E0
1.823754989E0,1.783680320E0,1.932120800E0,8.465897560E0
1.843841989E0,1.343147159E0,1.987187386E0,8.461109161E0
1.863924681E0,9.720458984E-1,1.977610588E0,8.317456245E0
1.884003335E0,5.482721925E-1,2.070984364E0,7.929595947E0
1.904083373E0,5.746084079E-2,2.370259762E0,7.465120792E0
1.924156719E0,-2.298433632E-1,2.602497339E0,7.141903877E0
1.944226796E0,-2.609679997E-1,2.743755102E0,7.350199223E0
1.964346565E0,1.675941199E-1,2.738966703E0,8.113949776E0
1.984446027E0,6.200982332E-1,2.820369720E0,8.978256226E0
2.004538065E0,9.959878922E-1,2.813186884E0,9.615114212E0
2.024626988E0,1.122880578E0,2.789244890E0,9.421183586E0
2.044713526E0,8.762778044E-1,2.980781078E0,8.678980827E0
2.064813026E0,1.077390790E0,3.100491285E0,8.200140953E0
2.084905795E0,2.293645144E0,3.272873640E0,8.669404030E0
2.105008642E0,3.871424198E0,3.378218651E0,9.866505623E0
2.125077372E0,3.045424461E0,3.689464808E0,9.890447617E0
2.145155795E0,1.383848548E0,4.058171749E0,9.904812813E0
2.165245872E0,1.388636976E-1,3.823540211E0,1.054645824E1
2.185319257E0,-2.873042040E-2,3.473986626E0,1.063025570E1
2.205395410E0,-1.699883193E-1,3.636792421E0,9.703699112E0
2.225486410E0,2.274491638E-1,3.773261786E0,8.966285706E0
2.245576218E0,1.051054597E0,3.531447411E0,8.592789650E0
2.265664295E0,1.781286120E0,2.882618904E0,9.502586365E0
2.285756564E0,2.705447912E0,2.092532396E0,1.159990692E1
2.305821295E0,2.746149302E0,1.647210717E0,1.327824306E1
2.325894718E0,1.759738207E0,1.448492050E0,1.324232960E1
2.345962295E0,7.948749661E-1,1.419761658E0,1.175313568E1
2.366086679E0,1.987187415E-1,1.582567334E0,1.018253994E1
2.386159525E0,5.315127969E-1,1.783680320E0,9.148244858E0
2.406243756E0,2.085349798E0,1.812410712E0,7.817068577E0
2.426326833E0,4.474762917E0,2.078166962E0,5.023035049E0
2.446399256E0,4.446032524E0,2.736572504E0,4.448426723E0
2.466468179E0,3.016694069E0,2.056619167E0,5.492298603E0
2.486542602E0,2.482787132E0,1.352723956E0,9.512163162E0
2.506612755E0,1.647210717E0,1.185129881E0,9.167398453E0
2.526689717E0,1.003170490E0,1.223437071E0,9.339780807E0
2.546767486E0,4.261679053E-1,1.007958889E0,9.311050415E0
2.566853332E0,5.291185975E-1,1.106121182E0,9.478644371E0
2.586952217E0,9.361328483E-1,1.309628367E0,9.380482674E0
2.607036217E0,1.836352706E0,1.137245774E0,9.445125580E0
2.627116101E0,2.391807556E0,1.261744261E0,9.672574997E0
2.647216370E0,2.518700123E0,1.259350061E0,1.031182671E1
2.667304947E0,2.149993181E0,1.206677675E0,1.086009884E1
2.687394178E0,-2.154781483E-2,9.816226959E-1,1.176031876E1
2.707462601E0,-1.120486379E0,1.510741234E0,1.172679996E1
2.727533947E0,-3.112462163E-1,1.120486379E0,1.105402946E1
2.747617908E0,-3.351882398E-1,1.414973259E0,1.119049835E1
2.767704024E0,-3.591302633E-1,1.630451322E0,1.195903778E1
2.787773485E0,-5.291185975E-1,1.549048543E0,1.152808094E1
2.807867139E0,-1.400607944E0,1.285686255E0,1.087207031E1
2.827958023E0,-2.032677174E0,1.371877551E0,1.049378586E1
2.848048023E0,-5.147533417E-1,1.283292055E0,8.487444878E0
2.868117946E0,3.232172430E-1,2.568978310E0,8.573636055E0
2.888204639E0,-6.057330370E-1,2.317587137E0,7.764396191E0
2.908290523E0,-7.757213712E-1,1.412579060E0,9.433155060E0
2.928378138E0,-1.101332784E0,9.935936928E-1,1.067813969E1
2.948461485E0,6.871358752E-1,2.035071403E-1,9.050082207E0
2.968533292E0,2.748543501E0,8.164227605E-1,5.310339451E0
2.988598484E0,-1.795651317E-1,1.120486379E0,4.927267075E0
3.008664330E0,-5.063736439E0,1.438915253E0,7.237671852E0
3.028731830E0,-7.785943985E0,1.936909199E0,7.091625214E0
3.048805753E0,-7.615955830E0,2.351106167E0,9.196128845E0
3.068876138E0,-4.707000732E0,1.125274777E0,1.146822643E1
3.088944715E0,-2.679111719E0,1.185129881E0,8.942343712E0
3.109015253E0,-2.418143749E0,1.163581967E0,8.394071579E0
3.129099253E0,-2.961627483E0,1.766920805E0,4.654327869E0
3.149181984E0,-2.102109194E0,2.085349798E0,3.995922565E0
3.169250214E0,-8.906430602E-1,2.655169725E0,3.351882458E0
3.189319214E0,1.474828243E0,2.822763920E0,3.174711466E0
3.209394407E0,2.880224705E0,2.202665567E0,2.533065319E0
3.229467907E0,5.164293289E0,1.436521053E0,4.446032524E0
3.249538983E0,5.432443619E0,1.620874524E0,7.062894821E0
3.269605637E0,5.521028996E0,1.838746905E0,7.491456985E0
3.289677137E0,5.896918774E0,6.943184733E-1,6.600813866E0
3.309755829E0,4.874594688E0,-3.974374831E-1,5.858611584E0
3.329828214E0,2.698265314E0,5.003881454E-1,7.438784599E0
3.349905521E0,1.927332401E0,4.261679053E-1,6.897695065E0
3.369997560E0,3.392583847E0,-6.009446383E-1,5.647922039E0
3.390064214E0,6.232107162E0,-1.982398987E0,7.043741226E0
3.410132637E0,8.049305916E0,-2.288856745E0,9.900024414E0
3.430197521E0,7.606379032E0,-1.333570361E0,1.082897472E1
3.450267560E0,7.663839817E0,-2.087743998E0,7.438784599E0
3.470334790E0,9.186552048E0,-3.960009575E0,6.605602264E0
3.490404829E0,1.069729328E1,-5.046977043E0,1.048420906E1
3.510470867E0,1.006522369E1,-4.781220913E0,1.388876438E1
3.530542367E0,1.113064384E1,-5.779603004E0,1.438436413E1
3.550614405E0,1.121922874E1,-6.179434776E0,1.580173111E1
3.570684174E0,1.100614548E1,-5.284003258E0,1.707065773E1
3.590750559E0,9.404424667E0,-4.436455727E0,1.549766731E1
3.610819405E0,9.205705643E0,-4.347870350E0,1.382890892E1
3.630888905E0,8.523358345E0,-3.837905407E0,1.311304283E1
3.650967328E0,6.433219910E0,-2.911349297E0,1.227986050E1
3.671036289E0,5.176264286E0,-2.200271368E0,1.094868469E1
3.691104712E0,5.307945251E0,-1.860294700E0,1.023281765E1
3.711179289E0,5.046977043E0,-1.477222443E0,8.470685959E0
3.731244482E0,4.326322556E0,-1.007958889E0,6.320692539E0
3.751330828E0,3.718195200E0,-5.650315881E-1,5.990292549E0
3.771400058E0,3.155557871E0,-3.567360640E-1,6.373364925E0
3.791465366E0,3.016694069E0,3.591302410E-2,6.277596951E0
3.811532020E0,3.007117271E0,6.751648784E-1,6.461950302E0
3.831595597E0,2.782062292E0,1.120486379E0,7.012616634E0
3.851663520E0,1.860294700E0,1.429338455E0,7.225700855E0
3.871730019E0,1.039083481E0,1.814804912E0,6.761225700E0
3.891794366E0,1.328781962E0,2.013523579E0,6.236895561E0
3.911857019E0,1.814804912E0,2.257732153E0,6.823474884E0
3.931925519E0,1.635239720E0,2.382230759E0,6.974309444E0
3.951991327E0,1.326387763E0,2.568978310E0,6.129156113E0
3.972058134E0,1.175553083E0,2.588132143E0,5.236119270E0
3.992121788E0,5.937620401E-1,2.487575531E0,5.942408562E0
4.012191096E0,2.011129409E-1,2.336740971E0,6.270414352E0
4.032259365E0,1.096544385E0,2.018311977E0,5.020640850E0
4.052328326E0,4.249708176E0,5.578489900E-1,8.655038834E0
4.072395749E0,6.382941723E0,-3.591302410E-2,1.345780754E1
4.092462711E0,6.588842869E0,4.381389022E-1,1.391749477E1
4.112549711E0,6.038176537E0,3.471592367E-1,1.094150162E1
4.132619249E0,5.913678169E0,2.418143749E-1,1.042435455E1
4.152683480E0,4.867412090E0,-1.268926859E-1,1.067095661E1
4.172767403E0,3.445256233E0,-2.561795712E-1,1.128866100E1
4.192836864E0,2.633621931E0,-2.849099934E-1,1.111149025E1
4.212914903E0,1.912967205E0,-3.591302410E-2,9.979032516E0
4.232992172E0,1.817199111E0,2.035071403E-1,8.489839554E0
4.253071749E0,2.375048161E0,6.129156351E-1,7.881711960E0
4.273151787E0,3.095702887E0,9.026140571E-1,7.805097580E0
4.293233364E0,3.014299870E0,1.340752959E0,7.462726593E0
4.313311364E0,1.862688899E0,1.472434044E0,6.861782074E0
4.333382556E0,5.075707436E-1,1.414973259E0,7.089231014E0
4.353448671E0,7.805097699E-1,1.788468719E0,6.548141479E0
4.373514556E0,1.960851192E0,2.331952572E0,5.597643375E0
4.393577171E0,1.359906554E0,2.523488522E0,5.049371243E0
4.413648171E0,7.637503147E-1,2.451662540E0,5.923254967E0
4.433717748E0,1.230619669E0,1.862688899E0,6.868964672E0
4.453789479E0,1.379060149E0,1.805228114E0,7.922413349E0
4.473864133E0,1.850717902E0,1.728613615E0,9.311050415E0
4.493947671E0,2.360682964E0,1.630451322E0,8.925583839E0
4.514026440E0,2.509123325E0,1.747767210E0,9.442731857E0
4.534111325E0,2.224213362E0,1.335964561E0,1.031422138E1
4.554205055E0,1.280897856E0,1.455674648E0,9.720458984E0
4.574290094E0,4.788403213E-2,1.963245392E0,9.943120003E0
4.594370401E0,-7.254431248E-1,1.984793186E0,9.667786598E0
4.614444709E0,-2.873042040E-2,6.943184733E-1,9.299078941E0
4.634518824E0,7.326257229E-1,4.644751251E-1,1.021127033E1
4.654596632E0,2.317587137E0,-8.858546615E-2,1.101811600E1
4.674667439E0,6.284779549E0,1.388636976E-1,1.214339066E1
4.694734670E0,4.472368717E0,2.106897533E-1,1.157596493E1
4.714801362E0,2.250549555E0,-3.543418646E-1,1.144907284E1
4.734878362E0,2.937685490E0,-1.103726983E0,9.591172218E0
4.754939247E0,2.738966703E0,1.261744261E0,8.142680168E0
4.775012208E0,1.798045516E0,1.616086125E0,6.912060261E0
4.795069631E0,-1.125274822E-1,6.392518282E-1,7.522581577E0
4.815132900E0,-2.298433632E-1,9.816227108E-2,1.022084713E1
4.835267823E0,8.738836050E-1,-1.436521053E0,1.319444561E1
4.855330939E0,2.059013367E0,-2.341529369E0,1.572032833E1
4.875393862E0,3.160346270E0,-1.661576033E0,1.545457172E1
4.895454823E0,3.349488258E0,-5.123591423E-1,1.410424232E1
4.915516169E0,1.980004787E0,-2.633621991E-1,1.195424938E1
4.935588285E0,2.126051188E0,2.202665508E-1,9.545681953E0
4.955655285E0,9.816226959E-1,1.216254473E0,6.497863293E0
4.975716515E0,6.368576288E-1,1.455674648E0,5.600037575E0
4.995774323E0,8.858546019E-1,1.910573006E0,6.691793919E0
5.015836284E0,2.073378563E0,1.266532660E0,5.784391403E0
5.035889592E0,2.169146776E0,1.721431017E0,6.581660271E0
5.055945246E0,3.160346270E0,1.414973259E0,8.465897560E0
5.076002130E0,4.170699596E0,2.200271368E0,8.128314972E0
5.096078822E0,4.486733913E0,1.850717902E0,6.708553314E0
5.116150861E0,6.718130112E0,1.386242747E0,7.345410824E0
5.136213322E0,7.374141216E0,1.678335428E0,7.946355343E0
5.156278861E0,4.797980309E0,1.723825216E0,7.977479935E0
5.176344591E0,3.598485231E0,1.675941229E0,1.061828423E1
5.196435476E0,2.454056740E0,4.716577232E-1,1.134612179E1
5.216503053E0,2.207453966E0,-1.675941236E-2,1.345301914E1
5.236555668E0,2.992752075E0,3.064578176E-1,1.259589481E1
5.256622783E0,3.675099611E0,3.136404157E-1,1.187284660E1
5.276684091E0,2.844311714E0,4.285621047E-1,1.039322948E1
5.296746360E0,3.143586874E0,3.423708379E-1,9.801861763E0
5.316813552E0,1.529894829E0,8.212111592E-1,7.841010571E0
5.336879398E0,1.458068848E0,9.265560508E-1,6.768408298E0
5.356943283E0,-3.495534360E-1,2.925714493E0,7.857769966E0
5.377013937E0,1.175553083E0,3.256114423E-1,9.964667320E0
5.397078821E0,4.932055473E-1,2.920926213E-1,1.057997704E1
5.417156014E0,-6.943184882E-2,2.154781520E-1,1.079306126E1
5.437225590E0,-1.194706678E0,9.552865028E-1,1.192312431E1
5.457285360E0,-1.740584612E0,1.180341482E0,1.298614979E1
5.477347244E0,-7.326257229E-1,2.633621916E-2,1.303403378E1
5.497420821E0,-1.180341482E0,1.673547029E0,9.940725327E0
5.517503129E0,-1.422155857E0,1.628057122E0,1.010592556E1
5.537578705E0,-1.537077546E0,2.293645144E0,9.107542992E0
5.557647705E0,-1.359906554E0,2.458845139E0,8.571242332E0
5.577725782E0,-1.367089152E0,2.920926094E0,8.315062523E0
5.597802128E0,-1.431732655E0,3.124433279E0,7.898471355E0
5.617902897E0,-8.259995580E-1,3.045424461E0,7.666234016E0
5.637982782E0,-9.576806426E-2,2.643198729E0,7.905653954E0
5.658069513E0,3.615244627E-1,2.355894566E0,8.561665535E0
5.678150282E0,-7.422025502E-2,2.217030764E0,9.217676163E0
5.698228474E0,-5.554547906E-1,1.982398987E0,1.011310768E1
5.718307820E0,-4.525041282E-1,1.534683347E0,1.139400578E1
5.738385974E0,-6.895300746E-1,1.079784989E0,1.200452709E1
5.758450628E0,-6.129156351E-1,1.065419793E0,1.168370438E1
5.778546128E0,-7.015010715E-1,1.297657371E0,1.080024433E1
5.798626627E0,-9.241618514E-1,1.606509328E0,1.003170490E1
5.818717012E0,-7.517793179E-1,1.771709204E0,8.987833023E0
5.838803166E0,-4.237737060E-1,2.003946781E0,8.580819130E0
5.858883320E0,-9.720458984E-1,1.841141105E0,9.157821655E0
5.878959089E0,-1.549048543E0,1.359906554E0,1.055603504E1
5.899044396E0,-1.632845521E0,8.619126081E-1,1.106121159E1
5.919116550E0,-1.206677675E0,5.793967843E-1,1.012747288E1
5.939194704E0,-1.027112484E0,5.889736414E-1,8.690952301E0
5.959270896E0,-4.501099288E-1,6.847416759E-1,7.982268333E0
5.979344550E0,-3.256114423E-1,8.140285611E-1,7.400477409E0
5.999406127E0,2.825157940E-1,1.007958889E0,6.397306919E0
6.019468511E0,9.600749016E-1,1.130063176E0,5.662287235E0
6.039528434E0,1.235408068E0,1.352723956E0,5.827486992E0
6.059595473E0,-6.703764945E-2,1.881842494E0,7.881711960E0
6.079661242E0,-4.884171486E-1,1.857900500E0,9.124302864E0
6.099736242E0,0.000000000E0,1.731007814E0,9.445125580E0
6.119809780E0,3.351882473E-2,2.106897593E0,9.696516991E0
6.139892472E0,-9.145850539E-1,2.772485495E0,9.581595421E0
6.159971549E0,-2.715024710E0,4.376600742E0,8.674192429E0
6.180042780E0,-1.022324085E0,4.486733913E0,6.785167694E0
6.200119357E0,1.347935557E0,3.095702887E0,6.782773495E0
6.220189049E0,1.268926859E0,2.592920542E0,8.822632790E0
6.240255549E0,-3.280056417E-1,2.839523315E0,1.094868469E1
6.260314087E0,-6.464344859E-1,3.232172251E0,1.127190113E1
6.280380664E0,6.703764796E-1,3.088520288E0,9.911994934E0
6.300460818E0,2.035071373E0,2.959233284E0,8.853757858E0
6.320530279E0,2.343923569E0,3.045424461E0,8.875306129E0
6.340600587E0,1.625662923E0,2.837129116E0,9.373299599E0
6.360675895E0,1.295263171E0,2.712630510E0,9.926360130E0
6.380758664E0,1.592144132E0,2.573766708E0,1.009156036E1
6.400833741E0,1.781286120E0,2.791639090E0,9.114726067E0
6.420929894E0,1.742978811E0,3.325546265E0,9.136273384E0
6.441013433E0,2.777273953E-1,4.333505154E0,9.811438560E0
6.461100163E0,-1.204283476E0,4.707000732E0,1.038844109E1
6.481173009E0,-7.062895298E-1,3.873818398E0,1.108994198E1
6.501240202E0,-9.816227108E-2,2.841917515E0,1.164779091E1
6.521298740E0,-4.501099288E-1,2.542642117E0,1.192312431E1
6.541365817E0,-1.642422318E0,2.671929121E0,1.264856720E1
6.561425086E0,-1.608903527E0,2.367865562E0,1.339316463E1
6.581483355E0,-8.714894056E-1,1.872265697E0,1.299812126E1
6.601539932E0,-1.580173075E-1,1.663970232E0,1.171961689E1
6.621607355E0,9.816227108E-2,1.903390408E0,1.005325317E1
6.641670932E0,-8.140286058E-2,2.090138197E0,8.477868080E0
6.661730317E0,-3.998316824E-1,2.157175779E0,7.924807549E0
6.681797201E0,-3.447650373E-1,2.051830769E0,7.702147007E0
6.701877316E0,-2.274491638E-1,2.078166962E0,7.304709435E0
6.721941739E0,-5.123591423E-1,2.147598982E0,7.165845871E0
6.742010316E0,-9.433154464E-1,2.331952572E0,7.836222172E0
6.762099893E0,-1.142034173E0,2.252943754E0,8.389283180E0
6.782184470E0,-8.667010069E-1,2.185906172E0,8.429984093E0
6.802263816E0,-1.223437071E0,2.276885748E0,8.913613319E0
6.822343547E0,-6.153098345E-1,2.789244890E0,8.396465302E0
6.842423854E0,-3.567360640E-1,2.798821688E0,8.015787125E0
6.862514931E0,5.554547906E-1,3.066972494E0,7.477091789E0
6.882611123E0,1.867477298E-1,3.450044632E0,7.860164165E0
6.902701854E0,-1.005564705E-1,4.048594952E0,8.535328865E0
6.922787662E0,-2.537853718E-1,4.297592163E0,8.429984093E0
6.942885315E0,-1.077390760E-1,4.410119534E0,7.850587368E0
6.962976046E0,-4.644751251E-1,4.544194698E0,8.063671112E0
6.983064854E0,-3.256114423E-1,4.199429989E0,8.959102631E0
7.003147815E0,-1.221042871E-1,3.746925592E0,9.315838814E0
7.023240007E0,-6.224924326E-2,3.356670856E0,9.959878922E0
7.043318815E0,-5.363011956E-1,2.777273893E0,1.133654499E1
7.063422046E0,-8.188169599E-1,2.056619167E0,1.281137371E1
7.083481200E0,-6.296750307E-1,1.558625340E0,1.370201588E1
7.103548046E0,-5.913678408E-1,1.290474772E0,1.367089176E1
7.123613892E0,-3.687070608E-1,1.292868972E0,1.264138508E1
7.143676045E0,-1.915361285E-1,1.546654344E0,1.112585545E1
7.163746007E0,-5.458779931E-1,1.807622313E0,9.473855972E0
7.183813815E0,-1.137245774E0,2.185906172E0,8.530540466E0
7.203884430E0,-1.472434044E0,2.425326347E0,7.915230751E0
7.223950814E0,-1.300051570E0,2.415749550E0,7.117961884E0
7.244010776E0,-8.547300100E-1,2.272097349E0,6.552929878E0
7.264077314E0,-5.003881454E-1,2.264914751E0,6.062118530E0
7.284137314E0,-4.261679053E-1,2.475604534E0,5.882553577E0
7.304199699E0,-5.674257874E-1,2.703053713E0,5.719748020E0
7.324263776E0,-3.734954596E-1,2.846705914E0,5.346252441E0
7.344336545E0,-1.843535304E-1,3.040636063E0,5.513846397E0
7.364401275E0,9.816227108E-2,2.973598480E0,6.145915985E0
7.384462083E0,8.140286058E-2,2.978386879E0,6.943184853E0
7.404520391E0,2.250549644E-1,3.019088268E0,7.359776020E0
7.424610391E0,3.998316824E-1,2.916137695E0,8.248024940E0
7.444698698E0,4.165911078E-1,2.932897091E0,9.148244858E0
7.464792583E0,4.668693244E-1,3.462015629E0,1.031661510E1
7.484894698E0,8.714894056E-1,3.596091032E0,1.160230160E1
7.504965006E0,1.316810966E0,3.567360640E0,1.084812832E1
7.525044352E0,1.716642618E0,4.072536945E0,9.552865028E0
7.545146390E0,1.862688899E0,4.144362926E0,9.809044838E0
7.565232198E0,2.262520552E0,4.170699596E0,1.119528675E1
7.585301736E0,2.557007313E0,4.314351559E0,1.170285797E1
7.605362236E0,2.794033289E0,4.400542736E0,1.133893967E1
7.625424390E0,2.729389906E0,4.663905144E0,1.123598862E1
7.645488774E0,2.049436569E0,4.254496574E0,1.248336792E1
7.665558697E0,1.762132406E0,3.210624456E0,1.525585365E1
7.685619697E0,9.074024558E-1,1.850717902E0,1.708023453E1
7.705682274E0,6.272808313E-1,1.096544385E0,1.640985870E1
7.725755505E0,4.860229492E-1,1.158793569E0,1.424310589E1
7.745825966E0,3.327940404E-1,1.180341482E0,1.238759995E1
7.765908005E0,3.136404157E-1,1.340752959E0,1.064462090E1
7.785968466E0,3.902548850E-1,1.565807939E0,9.097966194E0
7.806028543E0,4.548983276E-1,1.690306425E0,7.905653954E0
7.826102158E0,7.637503147E-1,1.661576033E0,7.184999466E0
7.846162043E0,1.031900883E0,1.491587639E0,6.864176273E0
7.866223427E0,1.029506683E0,1.458068848E0,6.718130112E0
7.886280620E0,7.445967197E-1,1.403002143E0,6.816292286E0
7.906347735E0,7.733271718E-1,1.266532660E0,6.971915245E0
7.926410773E0,7.589619160E-1,1.300051570E0,7.378929615E0
7.946472312E0,7.733271718E-1,1.268926859E0,7.228095055E0
7.966532773E0,6.200982332E-1,1.256955862E0,6.634333134E0
7.986598619E0,3.591302633E-1,1.199495077E0,6.694188118E0
8.006660696E0,3.926490843E-1,1.063025594E0,7.247248650E0
8.026719196E0,9.816227108E-2,1.285686255E0,7.745242596E0
8.046805888E0,6.655880809E-1,1.290474772E0,7.584830761E0
8.066875350E0,8.978256583E-1,1.520318031E0,7.785943985E0
8.086954080E0,4.548983276E-1,2.336740971E0,9.145850182E0
8.107029773E0,-1.436520964E-1,3.057395458E0,9.270348549E0
8.127121080E0,-5.482721925E-1,3.600879431E0,8.841787338E0
8.147201042E0,-1.484405100E-1,4.039018154E0,8.801085472E0
8.167280926E0,4.285621047E-1,4.015076160E0,8.501810074E0
8.187374426E0,8.547300100E-1,4.062960148E0,8.348581314E0
8.207456811E0,9.169792533E-1,4.280832767E0,9.066842079E0
8.227543157E0,4.022258818E-1,4.364629745E0,9.636661530E0
8.247625272E0,-2.035071403E-1,4.165910721E0,9.366117477E0
8.267708810E0,-3.543418646E-1,3.842693806E0,9.423578262E0
8.287787503E0,-1.436520964E-1,3.155557871E0,1.024000072E1
8.307870964E0,6.464344263E-2,2.545036316E0,1.121683502E1
8.327941733E0,-5.985504389E-2,2.097320795E0,1.172919369E1
8.347996964E0,-4.285621047E-1,1.754949808E0,1.226070690E1
8.368055502E0,-3.998316824E-1,1.513135433E0,1.272518158E1
8.388118848E0,-2.418143749E-1,1.328781962E0,1.281376743E1
8.408177271E0,6.224924326E-2,1.218648672E0,1.200452709E1
8.428238579E0,2.442085743E-1,1.316810966E0,1.069489861E1
8.448313656E0,3.136404157E-1,1.448492050E0,9.701305389E0
8.468390310E0,1.867477298E-1,1.534683347E0,8.935160637E0
8.488461079E0,1.436520964E-1,1.618480325E0,8.437167168E0
8.508540348E0,1.077390760E-1,1.685518026E0,8.226476669E0
8.528614156E0,9.097966552E-2,1.606509328E0,8.099584579E0
8.548695502E0,2.011129409E-1,1.577778935E0,8.049305916E0
8.568772886E0,3.998316824E-1,1.515529633E0,8.307879448E0
8.588850732E0,4.309563041E-1,1.577778935E0,8.631096840E0
8.608921963E0,5.937620401E-1,1.702277422E0,8.638279915E0
8.629001732E0,8.236053586E-1,1.872265697E0,8.463502884E0
8.649074424E0,1.084573388E0,2.250549555E0,8.449137688E0
8.669146732E0,1.192312479E0,2.573766708E0,8.355764389E0
8.689220386E0,1.355118155E0,2.722207308E0,8.245630264E0
8.709308001E0,1.410184860E0,2.789244890E0,8.243236542E0
8.729389770E0,1.429338455E0,2.657563925E0,8.757989883E0
8.749478193E0,1.556231141E0,2.353500366E0,9.416395187E0
8.769553385E0,1.853112102E0,2.188300371E0,9.830592155E0
8.789639347E0,1.800439715E0,2.276885748E0,9.459490776E0
8.809715308E0,1.065419793E0,2.461239338E0,9.330204010E0
8.829787501E0,2.394201756E-1,2.614468336E0,1.002452278E1
8.849858500E0,-2.489969730E-1,2.619256735E0,1.011789608E1
8.869953923E0,-1.149216816E-1,2.571372509E0,9.780313492E0
8.890035039E0,1.197100803E-2,2.463633537E0,9.710882187E0
8.910109500E0,-3.184288144E-1,2.487575531E0,1.031422138E1
8.930182808E0,-5.075707436E-1,2.327163935E0,1.130063248E1
8.950269115E0,-4.477157295E-1,2.391807556E0,1.148259163E1
8.970349192E0,-4.788403213E-2,2.568978310E0,1.076193619E1
8.990428731E0,-2.154781483E-2,2.624045134E0,1.025915432E1
9.010505384E0,-3.327940404E-1,2.303221941E0,1.129344940E1
9.030589654E0,-3.519476354E-1,1.745373011E0,1.215536213E1
9.050653654E0,1.699883193E-1,9.744400978E-1,1.222718811E1
9.070718192E0,1.122880578E0,4.381389022E-1,1.213142014E1
9.090780692E0,1.216254473E0,3.303998411E-1,1.154005241E1
9.110864769E0,8.307880163E-1,5.578489900E-1,1.066137981E1
9.130943307E0,3.256114423E-1,1.005564690E0,9.694122314E0
9.151020115E0,2.370259613E-1,1.316810966E0,8.757989883E0
9.171090576E0,3.327940404E-1,1.493981838E0,8.353369713E0
9.191177191E0,1.819593310E-1,1.417367458E0,8.702922821E0
9.211257961E0,-2.130839527E-1,1.271321058E0,9.318233490E0
9.231338345E0,-7.541735172E-1,1.110909581E0,9.715670586E0
9.251412691E0,-1.285686255E0,9.409212470E-1,1.035252857E1
9.271499730E0,-1.649604917E0,8.643068075E-1,1.069729328E1
9.291581306E0,-1.458068848E0,8.379706144E-1,1.033816338E1
9.311660114E0,-1.106121182E0,9.720458984E-1,9.483432770E0
9.331736306E0,-9.433154464E-1,1.249773264E0,8.719682693E0
9.351822422E0,-8.523358107E-1,1.470039845E0,7.924807549E0
9.371903460E0,-4.932055473E-1,1.754949808E0,7.445967197E0
9.391964691E0,-1.508347094E-1,2.171540976E0,7.235277653E0
9.412024114E0,-4.070143029E-2,2.545036316E0,6.672640324E0
9.432090152E0,2.082955539E-1,2.928108692E0,6.040570736E0
9.452153767E0,5.626373887E-1,3.289633036E0,5.870582581E0
9.472217229E0,5.770025849E-1,3.495534420E0,6.299144745E0
9.492278613E0,3.830722570E-1,3.708618402E0,6.976703644E0
9.512359767E0,2.657563984E-1,3.794809580E0,7.354987621E0
9.532433767E0,5.219359994E-1,3.871424198E0,7.718906403E0
9.552509152E0,6.871358752E-1,3.653551817E0,8.058882713E0
9.572608075E0,5.410895944E-1,3.289633036E0,9.011775017E0
9.592703767E0,2.370259613E-1,2.930502892E0,9.847352028E0
9.612809036E0,4.812345505E-1,2.583343744E0,9.856928825E0
9.632887805E0,7.278373241E-1,2.298433542E0,1.005325317E1
9.652975767E0,6.895300746E-1,2.140416384E0,1.092474270E1
9.673062305E0,7.924807668E-1,1.754949808E0,1.139640045E1
9.693148574E0,9.313444495E-1,1.601720929E0,1.133175659E1
9.713231997E0,9.313444495E-1,1.477222443E0,1.125753593E1
9.733310997E0,9.026140571E-1,1.194706678E0,1.171243477E1
9.753379112E0,1.161187768E0,7.493851185E-1,1.261504841E1
9.773442843E0,1.666364431E0,4.285621047E-1,1.292629528E1
9.793505766E0,2.154781580E0,3.591302633E-1,1.268208599E1
9.813568881E0,2.466027737E0,5.410895944E-1,1.161666679E1
9.833636958E0,2.645592928E0,7.134721279E-1,1.044111347E1
9.853719420E0,2.753331900E0,8.858546019E-1,9.425971985E0
9.873793766E0,2.334346771E0,1.046266198E0,9.308655739E0
9.893873766E0,1.819593310E0,1.120486379E0,9.672574997E0
9.913963073E0,1.206677675E0,1.122880578E0,9.897629738E0
9.934041458E0,9.050082564E-1,1.125274777E0,9.730035782E0
9.954121765E0,8.714894056E-1,9.888052940E-1,9.679757118E0
9.974198996E0,1.046266198E0,7.709329724E-1,9.662998199E0
9.994284881E0,1.388636947E0,6.703764796E-1,9.325415611E0
1.001436700E1,1.637633920E0,8.044517636E-1,8.856152534E0
1.003444292E1,1.719036818E0,1.058237195E0,8.643068314E0
1.005451838E1,1.640028119E0,1.276109457E0,8.518569946E0
1.007460484E1,1.644816518E0,1.400607944E0,8.274360657E0
1.009468369E1,1.687912226E0,1.611297727E0,7.994239330E0
1.011476642E1,1.379060149E0,1.857900500E0,7.864952564E0
1.013484900E1,9.217676520E-1,2.154781580E0,7.790732384E0
1.015493692E1,5.889736414E-1,2.365471363E0,7.884106159E0
1.017501919E1,5.267243981E-1,2.420537949E0,8.236053467E0
1.019510323E1,6.727706790E-1,2.408566952E0,8.437167168E0
1.021518288E1,7.398083210E-1,2.446874142E0,8.729259491E0
1.023527253E1,5.410895944E-1,2.643198729E0,9.390059471E0
1.025535207E1,2.178723514E-1,2.731784105E0,1.006043530E1
1.027543080E1,-1.508347094E-1,2.767697096E0,1.049857426E1
1.029550553E1,-4.788403213E-2,2.887407303E0,9.967061996E0
1.031560500E1,1.005564705E-1,2.901772499E0,9.552865028E0
1.033569257E1,5.267243832E-2,2.829946518E0,9.902418137E0
1.035577819E1,-4.548983276E-2,2.724601507E0,1.033337498E1
1.037585834E1,6.464344263E-2,2.504334927E0,1.061110210E1
1.039594396E1,3.878606856E-1,2.298433542E0,1.087925243E1
1.041602688E1,5.410895944E-1,2.229001760E0,1.102290440E1
1.043610838E1,4.141969085E-1,2.133233786E0,1.105881786E1
1.045618607E1,5.434837937E-1,1.999158382E0,1.122162342E1
1.047627473E1,7.637503147E-1,1.709460020E0,1.105642319E1
1.049635846E1,7.398083210E-1,1.352723956E0,1.112824917E1
1.051646626E1,4.572925270E-1,1.089361787E0,1.130781460E1
1.053653749E1,2.154781520E-1,1.098938584E0,1.114261436E1
1.055662438E1,-5.746084079E-2,1.106121182E0,1.065419769E1
1.057670399E1,1.891419291E-1,1.180341482E0,9.825803757E0
1.059678919E1,7.158663273E-1,1.247379065E0,8.746018410E0
1.061687257E1,9.911994934E-1,1.438915253E0,7.778761387E0
1.063695219E1,8.978256583E-1,1.640028119E0,7.275979042E0
1.065701576E1,8.188169599E-1,1.742978811E0,7.029376030E0
1.067708072E1,7.829039693E-1,1.996764183E0,7.015010834E0
1.069714365E1,6.847416759E-1,2.178723574E0,7.161057472E0
1.071721742E1,7.709329724E-1,2.082955360E0,7.280767441E0
1.073728372E1,1.096544385E0,1.805228114E0,7.467514992E0
1.075734634E1,1.455674648E0,1.503558636E0,8.315062523E0
1.077742196E1,1.637633920E0,1.027112484E0,9.090784073E0
1.079750561E1,1.687912226E0,7.757213712E-1,9.124302864E0
1.081758080E1,1.118092179E0,9.959878922E-1,9.533711433E0
1.083766122E1,2.250549644E-1,1.467645645E0,1.024239445E1
1.085773788E1,1.436521020E-2,1.831564307E0,1.021366405E1
1.087783415E1,-4.309562966E-2,2.243366957E0,9.605537415E0
1.089791611E1,1.412578970E-1,2.810792685E0,8.841787338E0
1.091798618E1,6.248866320E-1,3.299209833E0,7.929595947E0
1.093805899E1,8.188169599E-1,3.636792421E0,7.513004780E0
1.095813761E1,3.136404157E-1,3.823540211E0,8.200140953E0
1.097820992E1,8.140286058E-2,3.670311213E0,8.942343712E0
1.099830653E1,2.226607651E-1,3.445256233E0,9.562441826E0
1.101839045E1,2.849099934E-1,3.236960649E0,1.001973438E1
1.103847792E1,2.561795712E-1,3.090914488E0,1.042674828E1
1.105855315E1,4.668693244E-1,2.899378300E0,1.077630138E1
1.107862930E1,7.278373241E-1,2.700659513E0,1.121922874E1
1.109870203E1,9.361328483E-1,2.501940727E0,1.130781460E1
1.111878445E1,9.959878922E-1,2.454056740E0,1.107318306E1
1.113886245E1,1.218648672E0,2.166752577E0,1.064701462E1
1.115893892E1,1.594538331E0,1.757344007E0,1.103487587E1
1.117901218E1,1.944091797E0,1.350329757E0,1.103726959E1
1.119909703E1,2.006340981E0,1.271321058E0,1.063025570E1
1.121917388E1,1.539471745E0,1.244984865E0,1.045308495E1
1.123925384E1,1.046266198E0,1.237802267E0,1.057279491E1
1.125933361E1,6.153098345E-1,1.228225470E0,1.056561184E1
1.127942011E1,3.160346150E-1,1.271321058E0,9.871294022E0
1.129950399E1,-2.705447972E-1,1.551442742E0,9.093177795E0
1.131958449E1,-1.101332784E0,1.891419291E0,8.583212852E0
1.133966407E1,-1.596932530E0,1.893813491E0,8.439560890E0
1.135974884E1,-1.747767210E0,1.613691926E0,8.784325600E0
1.137983238E1,-1.656787634E0,1.307234168E0,8.748413086E0
1.139991745E1,-1.446097851E0,1.290474772E0,8.556877136E0
1.141999688E1,-1.254561663E0,1.242590666E0,8.504204750E0
1.144008526E1,-8.834604025E-1,1.297657371E0,8.576030731E0
1.146016772E1,-3.040636182E-1,1.484405041E0,8.209717751E0
1.148024838E1,8.858546019E-1,1.359906554E0,7.982268333E0
1.150032834E1,2.475604534E0,1.125274777E0,7.896077156E0
1.152040911E1,2.480392933E0,1.209071875E0,8.209717751E0
1.154048061E1,1.915361404E0,1.458068848E0,8.872911453E0
1.156056284E1,1.568202138E0,1.675941229E0,9.538499832E0
1.158064499E1,1.635239720E0,1.754949808E0,1.001733971E1
1.160073238E1,1.733402014E0,2.068590164E0,1.026394272E1
1.162081403E1,1.843535304E0,2.190694571E0,9.952696800E0
1.164089580E1,1.855506301E0,2.298433542E0,9.428366661E0
1.166099322E1,1.972822189E0,2.506729126E0,8.810662270E0
1.168108087E1,1.810016513E0,2.712630510E0,8.331821442E0
1.170116776E1,1.850717902E0,2.841917515E0,8.817844391E0
1.172124872E1,1.663970232E0,2.889801502E0,9.495404243E0
1.174133310E1,1.685518026E0,2.722207308E0,9.892841339E0
1.176141641E1,1.877054095E0,2.566584110E0,1.022563553E1
1.178151445E1,2.286462545E0,2.238578558E0,1.045547867E1
1.180159322E1,2.925714493E0,1.900996208E0,1.078348446E1
1.182167157E1,3.366247654E0,1.647210717E0,1.090558910E1
1.184175684E1,4.129997730E0,1.771709204E0,1.031182671E1
1.186184407E1,4.024652958E0,2.152387381E0,9.117119789E0
1.188191187E1,3.373430252E0,2.236184359E0,9.136273384E0
1.190199045E1,3.028665066E0,1.546654344E0,1.124795914E1
1.192205457E1,3.210624456E0,4.716577232E-1,1.291671848E1
1.194211664E1,3.758896589E0,-4.237737060E-1,1.281616211E1
1.196217499E1,4.000710964E0,-4.453215301E-1,1.149695683E1
1.198223134E1,2.923320293E0,3.591302633E-1,9.804255486E0
1.200229645E1,2.205059767E0,1.130063176E0,8.789113998E0
1.202236322E1,1.836352706E0,1.426944256E0,8.169015884E0
1.204243349E1,1.714248419E0,1.651999116E0,7.747636795E0
1.206250391E1,1.637633920E0,1.774103403E0,7.141903877E0
1.208256899E1,1.580173135E0,1.848323703E0,6.823474884E0
1.210262603E1,1.630451322E0,1.697489023E0,7.163451672E0
1.212268633E1,1.606509328E0,1.556231141E0,7.678205013E0
1.214276268E1,1.640028119E0,1.450886250E0,7.879317760E0
1.216284576E1,1.965639591E0,1.295263171E0,7.967903137E0
1.218292053E1,2.226607561E0,1.110909581E0,8.463502884E0
1.220299445E1,2.487575531E0,1.015141487E0,8.808267593E0
1.222307049E1,2.205059767E0,1.213860273E0,8.662221909E0
1.224315837E1,1.924938202E0,1.628057122E0,8.066065788E0
1.226323933E1,1.965639591E0,1.898601890E0,8.025363922E0
1.228332076E1,2.236184359E0,1.915361404E0,8.329427719E0
1.230339468E1,2.240972757E0,2.243366957E0,8.475474358E0
1.232348522E1,2.018311977E0,2.686294317E0,8.276755333E0
1.234356764E1,1.932120800E0,3.028665066E0,8.171410561E0
1.236365226E1,2.185906172E0,3.189076662E0,8.839392662E0
1.238376226E1,2.310404539E0,3.081337690E0,9.085995674E0
1.240385302E1,2.585737944E0,3.215412855E0,8.944737434E0
1.242393660E1,2.528276920E0,3.172317266E0,9.054870605E0
1.244401791E1,2.659958124E0,3.083731890E0,9.344569206E0
1.246410379E1,2.545036316E0,2.913743496E0,9.856928825E0
1.248420845E1,2.674323320E0,2.640804529E0,1.025436592E1
1.250429741E1,2.877830505E0,2.360682964E0,1.057518864E1
1.252438987E1,3.287238836E0,2.147598982E0,1.063504410E1
1.254447141E1,3.725377798E0,2.044648170E0,1.064462090E1
1.256456456E1,3.873818398E0,2.039859772E0,1.081460953E1
1.258464806E1,3.524264812E0,2.250549555E0,1.086488724E1
1.260473306E1,3.081337690E0,2.370259762E0,1.078587818E1
1.262481768E1,2.671929121E0,2.063801765E0,1.086249352E1
1.264490856E1,2.578555346E0,1.666364431E0,1.135569859E1
1.266499087E1,2.243366957E0,1.154005170E0,1.183932781E1
1.268505545E1,1.867477298E0,7.254431248E-1,1.211944866E1
1.270511418E1,1.611297727E0,4.405331016E-1,1.188960552E1
1.272518210E1,1.374271750E0,2.418143749E-1,1.095586681E1
1.274525445E1,1.450886250E0,2.585737705E-1,1.010592556E1
1.276533122E1,1.335964561E0,3.327940404E-1,9.306262016E0
1.278540879E1,1.106121182E0,5.386953950E-1,8.487444878E0
1.280549660E1,7.972691655E-1,9.289502501E-1,7.632715225E0
1.282556002E1,6.153098345E-1,1.498770237E0,7.141903877E0
1.284562629E1,4.046200812E-1,1.915361404E0,6.746860504E0
1.286569248E1,4.237737060E-1,2.173935175E0,6.414066315E0
1.288576368E1,6.751648784E-1,2.243366957E0,6.404489517E0
1.290582910E1,9.145850539E-1,2.140416384E0,6.727706909E0
1.292589191E1,1.242590666E0,2.092532396E0,6.859387875E0
1.294595148E1,1.790862918E0,2.066195965E0,6.878541470E0
1.296601733E1,2.006340981E0,2.104503393E0,7.247248650E0
1.298608095E1,1.996764183E0,2.221819162E0,7.501033783E0
1.300615698E1,1.953668594E0,2.281674147E0,7.891288757E0
1.302622598E1,2.477998734E0,2.094926596E0,8.463502884E0
1.304630583E1,2.940079689E0,1.984793186E0,9.009381294E0
1.306639125E1,2.760514498E0,2.135627985E0,9.301473618E0
1.308650168E1,2.195482969E0,2.523488522E0,9.713275909E0
1.310657952E1,1.556231141E0,2.782062292E0,1.032379818E1
1.312666291E1,1.254561663E0,2.937685490E0,1.078108978E1
1.314674295E1,1.426944256E0,2.806004286E0,1.084812832E1
1.316682218E1,1.656787634E0,2.784456491E0,1.072602367E1
1.318690252E1,1.620874524E0,2.770091295E0,1.058955383E1
1.320698810E1,1.450886250E0,2.671929121E0,1.086009884E1
1.322706710E1,1.357512355E0,2.446874142E0,1.116895103E1
1.324714256E1,1.371877551E0,2.171540976E0,1.092474270E1
1.326721644E1,1.364694953E0,2.140416384E0,1.049618053E1
1.328729733E1,1.165976286E0,2.188300371E0,1.027830791E1
1.330737348E1,1.003170490E0,2.312798738E0,1.049378586E1
1.332744683E1,8.667010069E-1,2.346317768E0,1.060391903E1
1.334751787E1,7.924807668E-1,2.291250944E0,1.080024433E1
1.336759964E1,9.217676520E-1,2.279279947E0,1.098699188E1
1.338767818E1,9.409212470E-1,2.133233786E0,1.055603504E1
1.340775683E1,1.110909581E0,1.872265697E0,1.032140350E1
1.342782995E1,1.357512355E0,1.446097851E0,1.043632507E1
1.344791248E1,1.704671621E0,1.244984865E0,1.034295177E1
1.346799237E1,1.908178806E0,1.364694953E0,9.545681953E0
1.348807479E1,2.056619167E0,1.589749932E0,8.549694061E0
1.350815068E1,2.169146776E0,1.793257117E0,8.123526573E0
1.352823914E1,2.178723574E0,1.814804912E0,8.264783859E0
1.354831352E1,2.073378563E0,1.757344007E0,8.444349289E0
1.356838941E1,1.900996208E0,1.800439715E0,8.422801971E0
1.358846721E1,1.733402014E0,1.687912226E0,8.784325600E0
1.360855021E1,1.848323703E0,1.477222443E0,9.222464561E0
1.362862502E1,1.965639591E0,1.362300754E0,9.514557838E0
1.364870056E1,2.135627985E0,1.446097851E0,9.497797966E0
1.366877575E1,2.193088770E0,1.520318031E0,9.074024200E0
1.368886179E1,2.169146776E0,1.709460020E0,8.951920509E0
1.370894133E1,2.066195965E0,1.989581585E0,8.820239067E0
1.372901844E1,1.781286120E0,2.372653961E0,8.418013573E0
1.374909321E1,1.632845521E0,2.669534922E0,7.845798969E0
1.376918479E1,1.723825216E0,2.885013103E0,7.515398979E0
1.378927191E1,1.673547029E0,3.145981073E0,7.062894821E0
1.380935940E1,1.472434044E0,3.335123062E0,7.144298077E0
1.382944121E1,1.340752959E0,3.521870613E0,7.410054207E0
1.384953414E1,1.082179189E0,3.512293816E0,7.163451672E0
1.386962102E1,1.130063176E0,3.574543238E0,7.668628216E0
1.388970710E1,1.125274777E0,3.423708439E0,8.046912193E0
1.390978829E1,1.436521053E0,3.052607059E0,8.702922821E0
1.392988044E1,1.762132406E0,2.707842112E0,9.895236015E0
1.394997098E1,1.850717902E0,2.466027737E0,1.099656868E1
1.397004440E1,1.896207690E0,2.703053713E0,1.143231297E1
1.399013194E1,1.549048543E0,2.822763920E0,1.117134476E1
1.401021940E1,1.532289028E0,2.779668093E0,1.136527538E1
1.403028944E1,1.395819545E0,2.762908697E0,1.172440529E1
1.405035290E1,8.954314590E-1,2.597708941E0,1.202368069E1
1.407041521E1,4.836287498E-1,2.482787132E0,1.241633034E1
1.409048498E1,4.955997467E-1,2.147598982E0,1.225591850E1
1.411054675E1,1.000776291E0,1.788468719E0,1.154723454E1
1.413062533E1,1.249773264E0,1.584961534E0,1.081460953E1
1.415070083E1,1.453280449E0,1.453280449E0,9.842563629E0
1.417078533E1,1.534683347E0,1.453280449E0,9.062053680E0
1.419086479E1,1.209071875E0,1.630451322E0,8.401253700E0
1.421094306E1,5.123591423E-1,1.970427990E0,7.723694801E0
1.423101671E1,1.197100878E-1,2.229001760E0,7.431602001E0
1.425107990E1,1.867477298E-1,2.169146776E0,7.477091789E0
1.427114129E1,4.333505034E-1,2.025494576E0,7.582436562E0
1.429121963E1,7.062895298E-1,1.987187386E0,7.577648163E0
1.431129848E1,1.149216771E0,2.075772762E0,7.273584843E0
1.433136502E1,1.525106430E0,2.257732153E0,6.876147270E0
1.435142206E1,1.781286120E0,2.444479942E0,6.586448669E0
1.437147906E1,1.915361404E0,2.619256735E0,6.703764915E0
1.439153321E1,1.915361404E0,2.822763920E0,7.031770229E0
1.441159667E1,1.814804912E0,2.987963676E0,7.283161640E0
1.443166663E1,1.896207690E0,3.112462282E0,7.390900612E0
1.445173544E1,2.066195965E0,3.138798475E0,8.271966934E0
1.447180136E1,2.171540976E0,3.145981073E0,8.870517731E0
1.449188667E1,2.214636564E0,3.143586874E0,8.858546257E0
1.451197025E1,2.331952572E0,2.906560898E0,9.299078941E0
1.453207906E1,2.147598982E0,2.719813108E0,1.063025570E1
1.455216852E1,1.647210717E0,2.473210335E0,1.125274754E1
1.457224748E1,1.338358760E0,2.185906172E0,1.157117653E1
1.459231290E1,9.361328483E-1,1.848323703E0,1.204762268E1
1.461237929E1,6.871358752E-1,1.508347034E0,1.248336792E1
1.463244306E1,9.720458984E-1,1.326387763E0,1.251688671E1
1.465251182E1,9.600749016E-1,1.553836942E0,1.109951878E1
1.467259229E1,4.836287498E-1,2.013523579E0,1.026873112E1
1.469267259E1,2.825157940E-1,2.473210335E0,1.014183807E1
1.471275063E1,-1.268926859E-1,2.724601507E0,1.017056847E1
1.473283736E1,-1.819593310E-1,2.712630510E0,1.070208168E1
1.475291732E1,-4.309562966E-2,2.281674147E0,1.120007515E1
1.477299536E1,3.758896589E-1,1.568202138E0,1.187045193E1
1.479305659E1,6.631938815E-1,9.481038451E-1,1.233492756E1
1.481312536E1,8.690952063E-1,5.434837937E-1,1.266532707E1
1.483318621E1,1.323993564E0,3.208230138E-1,1.216972733E1
1.485324275E1,1.692700624E0,3.471592367E-1,1.058237171E1
1.487329886E1,1.786074519E0,6.584054828E-1,9.366117477E0
1.489337240E1,1.285686255E0,1.084573388E0,8.626308441E0
1.491343932E1,2.920926213E-1,1.549048543E0,7.996633530E0
1.493351463E1,-1.498770237E0,2.504334927E0,7.575253963E0
1.495358067E1,-1.063025594E0,2.659958124E0,6.847416878E0
1.497364617E1,3.567360640E-1,2.020706177E0,6.636727333E0
1.499370605E1,9.864110947E-1,1.292868972E0,8.255207062E0
1.501377529E1,7.948749661E-1,8.619126081E-1,9.909601212E0
1.503383255E1,5.578489900E-1,8.810662031E-1,1.000536919E1
1.505390298E1,2.681505978E-1,1.187524080E0,9.208099365E0
1.507397825E1,4.788403511E-1,1.434126854E0,8.664615631E0
1.509405594E1,5.339069963E-1,1.687912226E0,8.154650688E0
1.511412805E1,5.458779931E-1,1.960851192E0,7.979874134E0
1.513421125E1,6.440402865E-1,2.138022184E0,8.276755333E0
1.515428790E1,1.031900883E0,2.200271368E0,8.386888504E0
1.517436302E1,1.273715258E0,2.470816135E0,8.173804283E0
1.519443944E1,1.441309452E0,2.729389906E0,7.972691536E0
1.521453071E1,1.783680320E0,3.040636063E0,7.833827972E0
1.523461352E1,1.788468719E0,3.308786631E0,7.841010571E0
1.525469563E1,1.285686255E0,3.471592426E0,8.367734909E0
1.527477205E1,6.847416759E-1,3.828328609E0,8.923190117E0
1.529485575E1,4.501099288E-1,3.675099611E0,8.810662270E0
1.531493463E1,7.062895298E-1,3.541024208E0,8.738836288E0
1.533501571E1,4.812345505E-1,3.469198227E0,9.095572472E0
1.535509228E1,4.285621047E-1,3.236960649E0,9.859322548E0
1.537516278E1,3.591302633E-1,3.076549292E0,9.825803757E0
1.539524398E1,1.963245422E-1,2.889801502E0,9.198522568E0
1.541531855E1,-4.309562966E-2,2.370259762E0,9.998186111E0
1.543539321E1,-2.920926213E-1,1.745373011E0,1.171243477E1
1.545545486E1,-2.777273953E-1,1.249773264E0,1.305318737E1
1.547551098E1,-5.027823523E-2,1.120486379E0,1.319205093E1
1.549556932E1,3.591302633E-1,1.302445769E0,1.216733265E1
1.551562871E1,5.099649429E-1,1.410184860E0,1.104205799E1
1.553571467E1,5.386953950E-1,1.549048543E0,1.053209305E1
1.555578263E1,4.572925270E-1,1.647210717E0,1.007240677E1
1.557585628E1,3.423708379E-1,1.817199111E0,9.284713745E0
1.559592763E1,1.795651317E-1,1.848323703E0,8.748413086E0
1.561600794E1,-5.506663769E-2,1.800439715E0,8.729259491E0
1.563608309E1,-2.753331959E-1,1.546654344E0,8.935160637E0
1.565615832E1,-4.979939461E-1,1.477222443E0,8.882488251E0
1.567623355E1,-7.110779285E-1,1.484405041E0,9.097966194E0
1.569631755E1,-4.979939461E-1,1.448492050E0,9.112331390E0
1.571639497E1,-3.471592367E-1,1.479616642E0,8.841787338E0
1.573647624E1,-6.943184882E-2,1.632845521E0,8.341399193E0
1.575655263E1,2.442085743E-1,1.944091797E0,7.857769966E0
1.577663774E1,4.932055473E-1,2.296039343E0,7.256825447E0
1.579672386E1,5.147533417E-1,2.679111719E0,6.581660271E0
1.581678971E1,4.979939461E-1,3.112462282E0,6.157886982E0
1.583685578E1,2.370259613E-1,3.478775024E0,6.064512730E0
1.585693324E1,-9.337386489E-2,3.797203779E0,6.737283707E0
1.587700282E1,2.082955539E-1,3.435679436E0,7.838616371E0
1.589708632E1,9.864110947E-1,3.224989653E0,8.334216118E0
1.591716867E1,1.321599364E0,3.069366693E0,8.439560890E0
1.593725967E1,1.352723956E0,3.016694069E0,9.399636269E0
1.595734978E1,1.328781962E0,2.899378300E0,1.002931118E1
1.597743424E1,1.010353088E0,2.865859509E0,1.031661510E1
1.599754017E1,5.554547906E-1,2.722207308E0,1.080024433E1
1.601763378E1,3.926490843E-1,2.530671120E0,1.177947235E1
1.603770863E1,3.208230138E-1,2.090138197E0,1.262941360E1
1.605777901E1,2.154781520E-1,1.821987510E0,1.266772079E1
1.607784228E1,2.992752194E-1,1.726219416E0,1.217212105E1
1.609791417E1,3.208230138E-1,1.853112102E0,1.117852783E1
1.611799343E1,4.740519226E-1,2.054224968E0,1.031422138E1
1.613807486E1,4.213795066E-1,2.296039343E0,9.524134636E0
1.615815405E1,1.436520964E-1,2.528276920E0,9.303867340E0
1.617823851E1,1.197100803E-2,2.561795712E0,9.636661530E0
1.619831424E1,1.723825186E-1,2.363077164E0,9.866505623E0
1.621839240E1,2.250549644E-1,2.188300371E0,1.012029076E1
1.623846547E1,-9.576806799E-3,1.532289028E0,1.076433086E1
1.625855040E1,-3.591302410E-2,6.967126727E-1,1.216493893E1
1.627860701E1,2.130839527E-1,1.580173075E-1,1.333809757E1
1.629866140E1,4.213795066E-1,1.077390760E-1,1.251449203E1
1.631872251E1,4.572925270E-1,5.578489900E-1,1.050336266E1
1.633878959E1,6.775590777E-1,9.959878922E-1,8.499416351E0
1.635885066E1,1.000776291E0,1.371877551E0,7.362170219E0
1.637890809E1,1.151610970E0,1.520318031E0,7.065289021E0
1.639896101E1,1.285686255E0,1.556231141E0,6.809109688E0
1.641902059E1,1.496376038E0,1.513135433E0,6.981492043E0
1.643907513E1,1.323993564E0,1.441309452E0,7.651868820E0
1.645915178E1,1.010353088E0,1.233013868E0,8.552088737E0
1.647922489E1,4.141969085E-1,9.313444495E-1,9.342175484E0
1.649930443E1,-4.070143029E-2,7.398083210E-1,1.005804157E1
1.651937066E1,-2.968810201E-1,6.057330370E-1,1.081700325E1
1.653944751E1,-4.596867263E-1,6.631938815E-1,1.123838234E1
1.655952409E1,-5.099649429E-1,9.121908545E-1,1.081939793E1
1.657962136E1,-3.280056417E-1,1.302445769E0,9.557653427E0
1.659970174E1,-2.753331959E-1,1.690306425E0,8.456320763E0
1.661976743E1,-9.576806426E-2,2.080561161E0,7.946355343E0
1.663983039E1,2.873042040E-2,2.372653961E0,7.412448406E0
1.665989678E1,1.819593310E-1,2.671929121E0,7.038952827E0
1.667995436E1,6.416460276E-1,2.992752075E0,6.737283707E0
1.670001443E1,1.508347034E0,3.112462282E0,7.287950039E0
1.672008559E1,6.296750307E-1,3.881000996E0,8.087613106E0
1.674016836E1,-2.657563925E0,4.766855717E0,9.117119789E0
1.676023362E1,-4.726154327E0,4.987122059E0,9.514557838E0
1.678030893E1,-4.012681961E0,4.407725334E0,9.646238327E0
1.680037793E1,-1.276109457E0,2.918531895E0,1.032858658E1
1.682045666E1,5.434837937E-1,1.838746905E0,1.135809326E1
1.684052836E1,9.504981041E-1,1.584961534E0,1.201889229E1
1.686059128E1,8.451532125E-1,1.774103403E0,1.156878281E1
1.688066812E1,6.607996821E-1,1.618480325E0,1.124077702E1
1.690074993E1,8.212111592E-1,1.165976286E0,1.178665543E1
1.692080516E1,9.026140571E-1,4.740519226E-1,1.266532707E1
1.694085928E1,9.289502501E-1,3.830722719E-2,1.340992355E1
1.696091385E1,8.427590132E-1,-1.915361360E-2,1.321838760E1
1.698098093E1,8.810662031E-1,1.460463107E-1,1.182735634E1
1.700103839E1,7.876923680E-1,3.639186621E-1,1.021366405E1
1.702109735E1,5.243301988E-1,6.512228847E-1,8.966285706E0
1.704116397E1,8.140286058E-2,8.858546019E-1,8.358158112E0
1.706124297E1,-3.734954596E-1,1.051054597E0,8.140285492E0
1.708132158E1,-6.895300746E-1,1.154005170E0,7.943961143E0
1.710139743E1,-7.972691655E-1,1.189918280E0,7.357381821E0
1.712145501E1,-6.081272364E-1,1.192312479E0,6.761225700E0
1.714152285E1,-1.221042871E-1,9.624691010E-1,6.998251438E0
1.716158432E1,3.639186621E-1,7.948749661E-1,7.747636795E0
1.718165055E1,5.722141862E-1,8.738836050E-1,8.121131897E0
1.720172774E1,8.930372596E-1,1.089361787E0,7.819462776E0
1.722181078E1,1.206677675E0,1.450886250E0,7.390900612E0
1.724186943E1,1.237802267E0,1.845929503E0,7.513004780E0
1.726192585E1,1.177947283E0,2.087743998E0,7.414842606E0
1.728198674E1,1.266532660E0,2.389413357E0,7.113173485E0
1.730205431E1,1.242590666E0,2.647987127E0,7.407660007E0
1.732212778E1,9.768342972E-1,2.700659513E0,8.274360657E0
1.734220212E1,1.084573388E0,2.652775526E0,8.978256226E0
1.736227801E1,1.532289028E0,2.758120298E0,9.004592896E0
1.738236778E1,1.790862918E0,2.896984100E0,9.277531624E0
1.740243758E1,1.769315004E0,2.834734917E0,9.785101891E0
1.742253097E1,1.625662923E0,2.810792685E0,1.019211674E1
1.744261147E1,1.206677675E0,2.892195702E0,1.064701462E1
1.746270228E1,8.307880163E-1,2.868253708E0,1.141076565E1
1.748277116E1,5.530605912E-1,2.703053713E0,1.211226654E1
1.750283797E1,4.022258818E-1,2.391807556E0,1.245224285E1
1.752290412E1,3.256114423E-1,2.097320795E0,1.268208599E1
1.754297928E1,4.333505034E-1,1.977610588E0,1.232774448E1
1.756304620E1,5.267243981E-1,2.066195965E0,1.141315937E1
1.758312697E1,6.727706790E-1,2.209848166E0,1.093431950E1
1.760320166E1,9.959878922E-1,2.420537949E0,1.018253994E1
1.762328639E1,1.319205165E0,2.413355350E0,9.624691010E0
1.764336401E1,1.479616642E0,2.015917778E0,9.775525093E0
1.766344254E1,1.424550056E0,1.314416766E0,1.059673691E1
1.768351862E1,1.592144132E0,4.070142806E-1,1.137485218E1
1.770360497E1,2.078166962E0,-4.548983276E-1,1.191594219E1
1.772366447E1,2.619256735E0,-7.948749661E-1,1.164060879E1
1.774372439E1,2.173935175E0,-5.195417404E-1,1.062786102E1
1.776380258E1,1.187524080E0,-1.436521020E-2,9.672574997E0
1.778388897E1,3.447650373E-1,5.195417404E-1,8.892065048E0
1.780396262E1,2.346317619E-1,8.427590132E-1,8.348581314E0
1.782404327E1,3.088520169E-1,1.070208192E0,7.905653954E0
1.784411831E1,1.221042871E-1,1.259350061E0,7.843404770E0
1.786420181E1,-6.224924326E-2,1.211466074E0,8.240841866E0
1.788428297E1,-4.046200812E-1,1.096544385E0,8.848969460E0
1.790436185E1,-6.464344859E-1,9.816226959E-1,9.277531624E0
1.792443858E1,-6.464344859E-1,1.012747288E0,9.545681953E0
1.794452039E1,-5.147533417E-1,1.132457376E0,9.619902611E0
1.796460000E1,-4.884171486E-1,1.412579060E0,9.232041359E0
1.798467954E1,-3.136404157E-1,1.836352706E0,8.441955566E0
1.800475827E1,-6.703764945E-2,2.118868589E0,7.678205013E0
1.802484374E1,3.615244627E-1,2.437297344E0,7.242460251E0
1.804490531E1,5.889736414E-1,2.746149302E0,6.727706909E0
1.806496212E1,7.685387731E-1,3.019088268E0,6.430825710E0
1.808502296E1,1.106121182E0,3.081337690E0,6.821080685E0
1.810509258E1,1.525106430E0,3.002328873E0,7.108384609E0
1.812516681E1,1.805228114E0,2.746149302E0,8.698134422E0
1.814524085E1,1.965639591E0,2.523488522E0,1.027112484E1
1.816530812E1,1.936909199E0,2.674323320E0,1.002212811E1
1.818538377E1,1.735796213E0,3.014299870E0,9.670180321E0
1.820548031E1,1.163581967E0,3.090914488E0,9.852140427E0
1.822554435E1,8.164227605E-1,2.906560898E0,1.048899746E1
1.824562004E1,1.022324085E0,2.715024710E0,1.152089882E1
1.826568535E1,1.182735682E0,2.518700123E0,1.195424938E1
1.828575246E1,1.359906554E0,2.509123325E0,1.209071827E1
1.830581631E1,1.446097851E0,2.616862535E0,1.191833591E1
1.832587804E1,1.307234168E0,2.454056740E0,1.180580902E1
1.834594400E1,1.276109457E0,2.343923569E0,1.187045193E1
1.836600850E1,8.930372596E-1,2.037465572E0,1.183214474E1
1.838607377E1,4.692635238E-1,1.599326730E0,1.200452709E1
1.840614081E1,3.567360640E-1,1.168370485E0,1.217212105E1
1.842621277E1,5.817909837E-1,6.560112834E-1,1.199495029E1
1.844627962E1,7.661445141E-1,4.716577232E-1,1.103248119E1
1.846635670E1,3.926490843E-1,6.416460276E-1,9.900024414E0
1.848643396E1,-6.943184882E-2,6.344634295E-1,9.267954826E0
1.850652058E1,-1.891419291E-1,7.829039693E-1,8.858546257E0
1.852660692E1,-4.979939461E-1,1.086967587E0,8.398859978E0
1.854669277E1,-8.475474119E-1,1.525106430E0,7.383718014E0
1.856675269E1,-1.000776291E0,2.190694571E0,6.045359135E0
1.858682185E1,-9.888052940E-1,2.870647907E0,5.188235283E0
1.860688692E1,-1.290474772E0,3.339911461E0,5.626373768E0
1.862695623E1,-1.477222443E0,3.648763418E0,6.102819920E0
1.864701566E1,-6.775590777E-1,3.768473387E0,6.378153324E0
1.866708392E1,1.388636976E-1,3.775655985E0,7.271190643E0
1.868716000E1,4.237737060E-1,3.895366192E0,7.572859764E0
1.870723877E1,3.806780577E-1,4.149151325E0,7.776367188E0
1.872731585E1,1.173158810E-1,4.278438568E0,8.329427719E0
1.874741127E1,-1.795651317E-1,4.283226967E0,8.786720276E0
1.876749708E1,2.346317619E-1,3.936067581E0,8.444349289E0
1.878760489E1,5.171475410E-1,3.833117008E0,8.662221909E0
1.880769250E1,4.716577232E-1,3.813963413E0,9.318233490E0
1.882778912E1,1.987187415E-1,3.869029999E0,9.339780807E0
1.884788135E1,-1.197100878E-1,3.921702385E0,9.598354340E0
1.886796896E1,-2.753331959E-1,3.857059002E0,1.027830791E1
1.888805138E1,-3.184288144E-1,3.960009575E0,1.000058079E1
1.890814808E1,-4.764461517E-1,4.053383350E0,9.425971985E0
1.892823658E1,-7.757213712E-1,4.050989151E0,9.454702377E0
1.894832169E1,-1.089361787E0,4.022258759E0,9.524134636E0
1.896840319E1,-1.455674648E0,4.237737179E0,9.085995674E0
1.898849808E1,-1.568202138E0,4.596867085E0,8.683769226E0
1.900858850E1,-1.596932530E0,4.697423935E0,8.279149055E0
1.902867777E1,-7.757213712E-1,4.469974518E0,8.281543732E0
1.904876377E1,-8.619125932E-2,4.611232281E0,8.858546257E0
1.906886012E1,-9.481038451E-1,4.474762917E0,9.344569206E0
1.908894885E1,-1.491587639E0,4.223371983E0,9.947908401E0
1.910903804E1,-1.752555609E0,3.354276657E0,1.043632507E1
1.912912669E1,-1.256955862E0,2.530671120E0,1.115219116E1
1.914920992E1,-3.687070608E-1,2.159569979E0,1.151850414E1
1.916928654E1,4.429273009E-1,2.114080191E0,1.078827286E1
1.918936800E1,6.105214357E-1,2.327163935E0,9.545681953E0
1.920946177E1,3.016694188E-1,2.894589901E0,8.394071579E0
1.922954596E1,-2.106897533E-1,3.406949043E0,8.147468567E0
1.924962181E1,4.070143029E-2,3.107673883E0,8.556877136E0
1.926971862E1,7.374141216E-1,2.726995707E0,8.552088737E0
1.928980838E1,8.786720037E-1,2.466027737E0,8.647856712E0
1.930989508E1,5.339069963E-1,2.351106167E0,9.385271072E0
1.932997719E1,1.077390760E-1,2.437297344E0,9.801861763E0
1.935005723E1,-3.112462163E-2,2.509123325E0,9.574412346E0
1.937014000E1,-4.836287498E-1,2.504334927E0,9.521739960E0
1.939022942E1,5.027823448E-1,2.731784105E0,8.904036522E0
1.941031288E1,4.764461517E-1,2.695871115E0,7.893682957E0
1.943040061E1,-1.460463107E-1,3.098097086E0,7.137115479E0
1.945046500E1,-1.628057212E-1,3.342305660E0,7.086836815E0
1.947053431E1,-1.197100878E-1,3.473986626E0,7.132327080E0
1.949062938E1,-1.819593310E-1,3.550601006E0,7.742848396E0
1.951071508E1,-3.902548850E-1,3.394978046E0,8.473079681E0
1.953080334E1,-2.178723514E-1,3.126827478E0,9.121908188E0
1.955089392E1,1.340752989E-1,2.971204281E0,9.995792389E0
1.957097431E1,1.029506698E-1,2.755726099E0,1.065180302E1
1.959105696E1,2.920926213E-1,2.851494312E0,1.059434223E1
1.961114034E1,2.489969730E-1,3.093308687E0,1.055364132E1
1.963124719E1,3.663128614E-1,3.160346270E0,1.034774017E1
1.965133096E1,4.357447028E-1,3.102885485E0,1.035971069E1
1.967140708E1,6.991068721E-1,3.112462282E0,1.027112484E1
1.969147888E1,5.722141862E-1,3.167528868E0,1.064940929E1
1.971155973E1,1.699883193E-1,3.191470861E0,1.044111347E1
1.973163657E1,3.303998411E-1,3.531447411E0,1.021127033E1
1.975171446E1,1.508347094E-1,3.337517262E0,1.015620327E1
1.977178938E1,-4.620809257E-1,2.892195702E0,1.022084713E1
1.979187011E1,-4.644751251E-1,2.750937700E0,1.015859795E1
1.981197119E1,-7.924807668E-1,2.444479942E0,1.000297451E1
1.983205042E1,-1.139639974E0,2.111685991E0,1.001733971E1
1.985212773E1,-9.050082564E-1,1.733402014E0,1.002691650E1
1.987221207E1,-4.740519226E-1,1.553836942E0,9.943120003E0
1.989228988E1,-3.998316824E-1,1.520318031E0,9.275136948E0
1.991236680E1,-3.591302633E-1,1.812410712E0,8.784325600E0
1.993244050E1,-6.991068721E-1,2.078166962E0,8.319850922E0
1.995252269E1,-1.079784989E0,2.264914751E0,8.169015884E0
1.997259892E1,-1.175553083E0,2.528276920E0,8.135497093E0
1.999267704E1,-1.086967587E0,2.712630510E0,8.066065788E0
2.001277415E1,-8.667010069E-1,2.822763920E0,8.003816605E0
2.003286873E1,-5.530605912E-1,2.892195702E0,7.927201748E0
2.005295123E1,-1.699883193E-1,2.899378300E0,7.776367188E0
2.007302892E1,-2.154781483E-2,3.074155092E0,7.864952564E0
2.009311200E1,7.182605099E-3,3.239354849E0,7.915230751E0
2.011320284E1,5.746084079E-2,3.282450438E0,8.214506149E0
2.013329146E1,2.346317619E-1,3.112462282E0,8.554482460E0
2.015337738E1,4.405331016E-1,3.062183857E0,8.611943245E0
2.017345807E1,3.280056417E-1,3.131615877E0,8.884882927E0
2.019354069E1,2.154781520E-1,3.143586874E0,9.188945770E0
2.021362719E1,2.825157940E-1,3.191470861E0,9.351752281E0
2.023370734E1,2.657563984E-1,3.263296843E0,9.375694275E0
2.025378103E1,2.035071403E-1,3.454833031E0,9.943120003E0
2.027387511E1,-5.506663769E-2,3.442862034E0,1.038844109E1
2.029395507E1,8.619125932E-2,3.392583847E0,1.043153667E1
2.031403142E1,3.327940404E-1,3.445256233E0,1.037647057E1
2.033411061E1,-2.202665508E-1,3.615244627E0,1.021845245E1
2.035419888E1,-8.188169599E-1,3.823540211E0,1.009395409E1
2.037429284E1,-8.810662031E-1,3.773261786E0,1.005085850E1
2.039437534E1,-5.099649429E-1,3.430891037E0,1.023281765E1
2.041446580E1,-5.506663769E-2,3.181894064E0,1.053688145E1
2.043454892E1,-8.858546615E-2,3.713406801E0,1.057997704E1
2.045463000E1,-4.836287498E-1,4.237737179E0,1.008198357E1
2.047472122E1,-1.127668977E0,4.460397720E0,9.718064308E0
2.049478357E1,-1.204283476E0,4.410119534E0,9.730035782E0
2.051486830E1,-1.343147159E0,3.900154591E0,9.785101891E0
2.053494715E1,-9.002198577E-1,3.222595453E0,9.883264542E0
2.055505269E1,-3.519476354E-1,2.834734917E0,9.679757118E0
2.057511469E1,-1.723825186E-1,2.777273893E0,9.327810287E0
2.059520038E1,-3.711012602E-1,2.885013103E0,8.791508675E0
2.061528269E1,-7.350199223E-1,3.141192675E0,8.360552788E0
2.063538092E1,-1.055842996E0,3.299209833E0,8.216899872E0
2.065546715E1,-8.259995580E-1,2.896984100E0,8.657433510E0
2.067555472E1,-1.843535304E-1,2.308010340E0,9.126696587E0
2.069563049E1,-6.536170840E-1,2.786850691E0,9.038111687E0
2.071571011E1,-1.414973259E0,3.849876404E0,8.066065788E0
2.073578219E1,-1.074996591E0,4.388571739E0,7.503427982E0
2.075586572E1,-1.031900883E0,4.438849926E0,7.254431248E0
2.077593957E1,-8.451532125E-1,4.580107689E0,7.079654217E0
2.079603453E1,-3.782838583E-1,4.469974518E0,7.161057472E0
2.081611946E1,1.101332754E-1,4.256890774E0,7.316680431E0
2.083621284E1,1.268926859E-1,4.151545525E0,7.613561630E0
2.085630511E1,-2.394201607E-2,4.177882195E0,7.934384346E0
2.087639461E1,2.035071403E-1,4.472368717E0,7.881711960E0
2.089648034E1,5.626373887E-1,4.671087742E0,7.606379032E0
2.091657565E1,8.571242094E-1,4.781220913E0,7.417236805E0
2.093666380E1,1.106121182E0,5.114014626E0,7.426813602E0
2.095675618E1,1.386242747E0,5.353435040E0,7.438784599E0
2.097683780E1,1.697489023E0,5.046977043E0,7.953537941E0
2.099692388E1,2.097320795E0,4.841075897E0,8.343792915E0
2.101700149E1,2.640804529E0,4.661510944E0,8.233659744E0
2.103708315E1,1.941697598E0,4.718971729E0,8.650250435E0
2.105716492E1,1.441309452E0,4.845864296E0,9.605537415E0
2.107727122E1,1.309628367E0,4.776432514E0,1.048660374E1
2.109736099E1,1.479616642E0,4.455609322E0,1.063025570E1
2.111744303E1,2.032677174E0,4.477157116E0,9.686940193E0
2.113752507E1,2.463633537E0,4.843470097E0,9.057265282E0
2.115761849E1,2.322375536E0,5.240907669E0,8.827422142E0
2.117769568E1,1.778891921E0,5.463568211E0,8.968679428E0
2.119778165E1,1.410184860E0,5.626373768E0,8.975862503E0
2.121786853E1,1.082179189E0,5.434837818E0,8.860940933E0
2.123796434E1,8.786720037E-1,4.989516258E0,8.913613319E0
2.125805638E1,6.105214357E-1,4.481945515E0,9.449913979E0
2.127814488E1,1.675941199E-1,4.137180328E0,9.777919769E0
2.129821565E1,3.351882473E-2,3.794809580E0,9.617507935E0
2.131830415E1,1.628057212E-1,3.591302633E0,9.220070839E0
2.133838722E1,3.160346150E-1,3.687070608E0,8.860940933E0
2.135846949E1,3.854664862E-1,3.756502390E0,8.295908928E0
2.137855022E1,3.040636182E-1,3.955221176E0,7.503427982E0
2.139863311E1,-1.244984865E-1,3.936067581E0,7.963114738E0
2.141870803E1,-3.734954596E-1,3.720589399E0,8.410830498E0
2.143878230E1,-5.626373887E-1,3.610456228E0,8.492233276E0
2.145885711E1,-8.547300100E-1,3.610456228E0,8.870517731E0
2.147894349E1,-8.283938169E-1,3.416525841E0,8.899248123E0
2.149902488E1,-6.775590777E-1,3.438073635E0,8.875306129E0
2.151910380E1,-5.123591423E-1,3.500322819E0,8.365341187E0
2.153918111E1,-3.112462163E-1,3.878606796E0,7.613561630E0
2.155926903E1,-1.771709323E-1,4.271255970E0,6.957550049E0
2.157934214E1,1.675941236E-2,4.584896088E0,7.000645638E0
2.159941438E1,1.747767180E-1,4.498704910E0,7.829039574E0
2.161949584E1,-1.244984865E-1,4.709394932E0,8.286332130E0
2.163958657E1,-4.309563041E-1,5.341464043E0,8.157045364E0
2.165967153E1,-8.116343617E-1,5.861005783E0,7.273584843E0
2.167974949E1,-1.019929886E0,6.488286495E0,6.670246124E0
2.169982426E1,-1.094150186E0,6.615179062E0,6.967126846E0
2.171990445E1,-8.978256583E-1,6.552929878E0,7.513004780E0
2.173998468E1,-8.068459630E-1,6.634333134E0,7.496245384E0
2.176006507E1,-8.978256583E-1,6.804321289E0,7.244854450E0
2.178014849E1,-5.147533417E-1,6.914454460E0,7.175422668E0
2.180023887E1,3.830722719E-2,6.591237068E0,7.745242596E0
2.182032014E1,3.303998411E-1,6.540958881E0,7.654263020E0
2.184040480E1,1.867477298E-1,6.500257492E0,7.603984833E0
2.186048714E1,7.182604820E-2,5.985504150E0,8.595184326E0
2.188057764E1,4.692635238E-1,5.248090267E0,9.428366661E0
2.190064914E1,7.541735172E-1,5.432443619E0,9.907206535E0
2.192072264E1,5.267243981E-1,5.679046631E0,9.528923035E0
2.194080157E1,6.224924326E-1,5.995080948E0,9.303867340E0
2.196089360E1,5.003881454E-1,6.045359135E0,9.126696587E0
2.198097607E1,3.519476354E-1,5.959167957E0,9.057265282E0
2.200106122E1,4.357447028E-1,5.808333397E0,9.263166428E0
2.202114037E1,5.506663918E-1,5.580883980E0,9.277531624E0
2.204123414E1,4.165911078E-1,5.279214859E0,9.136273384E0
2.206132872E1,3.950432837E-1,4.766855717E0,8.923190117E0
2.208142106E1,4.860229492E-1,4.309563160E0,8.911218643E0
2.210150984E1,6.081272364E-1,3.914519787E0,9.059659004E0
2.212160514E1,5.889736414E-1,3.828328609E0,9.033323288E0
2.214169664E1,1.268926859E-1,3.960009575E0,8.865729332E0
2.216178764E1,-3.184288144E-1,4.129997730E0,8.791508675E0
2.218187230E1,-3.854664862E-1,4.086902142E0,8.731653214E0
2.220196999E1,-3.902548850E-1,4.072536945E0,8.473079681E0
2.222205830E1,-6.967126727E-1,4.165910721E0,8.020575523E0
2.224214899E1,-1.012747288E0,4.283226967E0,7.589619160E0
2.226223441E1,-1.280897856E0,4.244919777E0,7.273584843E0
2.228233049E1,-1.359906554E0,4.101267338E0,7.139509678E0
2.230242003E1,-1.199495077E0,3.969586372E0,6.983886242E0
2.232250999E1,-8.714894056E-1,3.904942989E0,6.746860504E0
2.234257153E1,-5.315127969E-1,3.926490784E0,6.756437302E0
2.236264130E1,-4.094084799E-1,4.010287762E0,6.912060261E0
2.238272564E1,-3.758896589E-1,4.015076160E0,6.924031258E0
2.240281195E1,1.436520964E-1,4.003105164E0,7.070077419E0
2.242289237E1,8.643068075E-1,4.252102375E0,7.522581577E0
2.244298541E1,5.530605912E-1,4.762067318E0,7.627926826E0
2.246307591E1,8.858546615E-2,5.216965675E0,8.157045364E0
2.248316353E1,-2.537853718E-1,5.183446884E0,9.694122314E0
2.250325126E1,-1.556231081E-1,4.750096321E0,1.089361763E1
2.252334879E1,4.932055473E-1,4.707000732E0,1.107318306E1
2.254341991E1,6.943184733E-1,4.922478676E0,1.080982113E1
2.256348518E1,6.991068721E-1,5.176264286E0,9.871294022E0
2.258356879E1,5.267243981E-1,5.420472622E0,9.124302864E0
2.260366099E1,5.147533417E-1,5.489904404E0,8.659827232E0
2.262374472E1,8.092401624E-1,5.468356609E0,8.274360657E0
2.264382668E1,1.316810966E0,5.523423195E0,8.219294548E0
2.266390710E1,1.218648672E0,5.363011837E0,8.489839554E0
2.268400053E1,1.000776291E0,5.157110691E0,9.442731857E0
2.270408949E1,5.434837937E-1,4.898536682E0,1.010592556E1
2.272416376E1,3.351882473E-2,4.592078686E0,1.037647057E1
2.274423406E1,-5.506663769E-2,4.328716755E0,1.095826149E1
2.276430195E1,2.394201700E-3,4.134786129E0,1.131499767E1
2.278436449E1,-6.224924326E-2,3.799597979E0,1.074278259E1
2.280445876E1,-2.059013397E-1,3.564966440E0,1.034774017E1
2.282453564E1,-4.213795066E-1,3.253720045E0,1.002452278E1
2.284461995E1,-2.968810201E-1,3.059789658E0,9.560047150E0
2.286470079E1,-7.182604820E-2,2.923320293E0,8.949525833E0
2.288477976E1,-5.506663769E-2,2.844311714E0,8.458714485E0
2.290485864E1,-2.130839527E-1,3.066972494E0,8.101978302E0
2.292495564E1,-2.896983922E-1,3.584120035E0,7.671022415E0
2.294504068E1,-6.536170840E-1,3.837905407E0,7.316680431E0
2.296511060E1,-9.217676520E-1,3.921702385E0,7.584830761E0
2.298518910E1,-1.316810966E0,3.974374771E0,7.874529362E0
2.300527783E1,-1.474828243E0,3.835511208E0,7.908048153E0
2.302536222E1,-1.319205165E0,3.493140221E0,8.418013573E0
2.304544737E1,-6.057330370E-1,2.849100113E0,8.954314232E0
2.306552279E1,7.182604820E-2,2.810792685E0,9.057265282E0
2.308560568E1,-1.268926859E-1,3.517082214E0,8.453926086E0
2.310569591E1,-1.154005170E0,4.328716755E0,8.070854187E0
2.312577356E1,-6.919242740E-1,4.568136692E0,7.496245384E0
2.314584525E1,1.173158810E-1,4.611232281E0,6.756437302E0
2.316592256E1,4.548983276E-2,4.953603268E0,6.454767704E0
2.318600368E1,-4.668693244E-1,5.130774021E0,6.782773495E0
2.320608483E1,-1.151610970E0,5.293580055E0,7.682993412E0
2.322616375E1,-1.525106430E0,5.535394192E0,7.984662533E0
2.324625402E1,-1.055842996E0,5.600037575E0,7.773972988E0
2.326634252E1,-6.129156351E-1,5.291185856E0,7.790732384E0
2.328642764E1,-2.801215947E-1,5.152322292E0,8.377311707E0
2.330651083E1,-3.926490843E-1,5.188235283E0,8.719682693E0
2.332660360E1,-7.182605267E-1,5.226542473E0,8.820239067E0
2.334666398E1,-7.350199223E-1,5.097255230E0,8.690952301E0
2.336674644E1,-1.867477298E-1,4.946420670E0,8.080430984E0
2.338686083E1,-2.202665508E-1,4.802768707E0,7.857769966E0
2.340694833E1,8.379705995E-2,4.568136692E0,7.836222172E0
2.342702952E1,2.394201700E-3,4.656722069E0,8.305485725E0
2.344710829E1,6.224924326E-2,4.367023945E0,8.252813339E0
2.346718656E1,5.913678408E-1,4.285621166E0,8.482656479E0
2.348727129E1,3.327940404E-1,4.527435303E0,8.676587105E0
2.350734979E1,-5.841852427E-1,4.764461517E0,8.370129585E0
2.352743137E1,-9.217676520E-1,5.030217648E0,8.123526573E0
2.354751221E1,-1.446097851E0,5.288791656E0,8.746018410E0
2.356760252E1,-1.939303398E0,4.685452938E0,9.713275909E0
2.358768041E1,-1.917755604E0,3.682282209E0,1.072841740E1
2.360774910E1,-1.510741234E0,2.717418909E0,1.156399441E1
2.362781075E1,-1.139639974E0,2.217030764E0,1.206917095E1
2.364787848E1,-1.115697980E0,1.984793186E0,1.206438255E1
2.366793860E1,-1.082179189E0,2.104503393E0,1.147540855E1
2.368801044E1,-9.481038451E-1,2.387019157E0,1.049378586E1
2.370808371E1,-9.026140571E-1,2.638410330E0,9.567230225E0
2.372816883E1,-8.786720037E-1,2.940079689E0,8.578424454E0
2.374824537E1,-8.044517636E-1,3.277662039E0,7.625532627E0
2.376831802E1,-6.224924326E-1,3.505111217E0,7.094019413E0
2.378839206E1,-6.440402865E-1,3.603273630E0,7.168240070E0
2.380848552E1,-6.871358752E-1,3.660734415E0,7.754819393E0
2.382859721E1,-8.068459630E-1,3.488351822E0,8.360552788E0
2.384868510E1,-6.607996821E-1,3.213018656E0,8.899248123E0
2.386877210E1,-4.644751251E-1,3.234566450E0,9.172186852E0
2.388886533E1,-4.213795066E-1,3.378218651E0,9.088389397E0
2.390895117E1,-5.985504389E-1,3.699041605E0,8.961497307E0
2.392903806E1,-9.911994934E-1,3.940855980E0,9.009381294E0
2.394912040E1,-8.020575643E-1,4.053383350E0,9.002198219E0
2.396921114E1,-3.064578176E-1,4.101267338E0,8.872911453E0
2.398931944E1,-6.464344263E-2,4.213795185E0,8.669404030E0
2.400940029E1,-2.274491638E-1,4.369418144E0,8.532935143E0
2.402948417E1,-2.322375625E-1,4.431667328E0,8.585607529E0
2.404957340E1,-1.436520964E-1,4.333505154E0,8.834604263E0
2.406965648E1,-1.149216816E-1,4.285621166E0,8.877699852E0
2.408974137E1,-2.130839527E-1,4.223371983E0,8.650250435E0
2.410982740E1,-1.340752989E-1,4.220977783E0,8.453926086E0
2.412991775E1,-1.460463107E-1,4.321534157E0,8.573636055E0
2.415000175E1,-1.197100803E-2,4.407725334E0,8.676587105E0
2.417008248E1,5.267243832E-2,4.668693542E0,8.987833023E0
2.419016098E1,-5.985504389E-2,4.747702122E0,9.097966194E0
2.421025233E1,4.788403213E-2,4.786009312E0,9.210494041E0
2.423033740E1,-3.543418646E-1,4.893748283E0,9.313444138E0
2.425042337E1,-1.175553083E0,4.671087742E0,9.442731857E0
2.427050617E1,-1.441309452E0,4.034229755E0,9.732429504E0
2.429059910E1,-1.388636947E0,3.201047659E0,1.021605873E1
2.431067271E1,-9.457096457E-1,2.758120298E0,1.013944435E1
2.433074860E1,-9.624691010E-1,2.664746523E0,1.001733971E1
2.435082560E1,-1.118092179E0,2.856282711E0,9.730035782E0
2.437091383E1,-1.225831270E0,3.088520288E0,9.028534889E0
2.439100948E1,-1.431732655E0,3.277662039E0,8.216899872E0
2.441109486E1,-1.647210717E0,3.404554844E0,7.819462776E0
2.443116663E1,-1.970427990E0,3.359065056E0,7.568071365E0
2.445125775E1,-2.226607561E0,3.179499865E0,7.730877399E0
2.447133936E1,-2.284068346E0,2.992752075E0,8.190564156E0
2.449142475E1,-2.267308950E0,2.961627483E0,8.688557625E0
2.451151290E1,-2.109291792E0,3.021482468E0,8.583212852E0
2.453160956E1,-1.580173135E0,3.198653460E0,7.982268333E0
2.455169744E1,-1.074996591E0,3.517082214E0,7.467514992E0
2.457178863E1,-8.451532125E-1,3.916913986E0,7.340622425E0
2.459186932E1,-6.775590777E-1,4.295197964E0,7.137115479E0
2.461196171E1,-1.189918280E0,4.759673119E0,6.727706909E0
2.463203856E1,-1.668758631E0,5.111620426E0,6.701370716E0
2.465211817E1,-1.525106430E0,4.884171486E0,7.149086475E0
2.467219840E1,-1.122880578E0,4.570530891E0,7.620744228E0
2.469228586E1,-1.086967587E0,4.505887508E0,7.977479935E0
2.471236209E1,-1.022324085E0,4.458003521E0,8.413225174E0
2.473244240E1,-8.858546019E-1,4.280832767E0,9.481039047E0
2.475252663E1,-4.333505034E-1,4.206612587E0,9.840168953E0
2.477261909E1,-4.357447028E-1,4.297592163E0,9.595960617E0
2.479268209E1,-5.937620401E-1,4.390965939E0,9.825803757E0
2.481276821E1,-6.416460276E-1,4.402936935E0,1.010592556E1
2.483285456E1,-7.158663273E-1,4.422090530E0,1.021127033E1
2.485295317E1,-4.955997467E-1,4.450820923E0,1.005325317E1
2.487304102E1,-1.388636976E-1,4.381389141E0,1.003649330E1
2.489312836E1,4.070143029E-2,4.280832767E0,1.025436592E1
2.491321425E1,4.429273009E-1,4.362235546E0,1.058476543E1
2.493331463E1,6.871358752E-1,4.620809078E0,1.046266174E1
2.495340709E1,4.740519226E-1,4.699818134E0,1.026633644E1
2.497349963E1,3.950432837E-1,4.338293552E0,1.082658005E1
2.499358786E1,3.974374831E-1,3.646369219E0,1.164539719E1
2.501366348E1,6.440402865E-1,2.820369720E0,1.217212105E1
2.503373352E1,9.002198577E-1,2.267308950E0,1.220803452E1
2.505380505E1,4.429273009E-1,2.140416384E0,1.185848141E1
2.507387405E1,5.746084079E-2,2.365471363E0,1.099656868E1
2.509396125E1,-4.788403399E-3,2.746149302E0,9.358934402E0
2.511404263E1,-1.532289088E-1,3.066972494E0,8.149862289E0
2.513412432E1,-2.322375625E-1,3.383007050E0,7.606379032E0
2.515420375E1,-3.160346150E-1,3.596091032E0,7.208941460E0
2.517429344E1,-4.501099288E-1,3.768473387E0,6.897695065E0
2.519438640E1,-5.339069963E-1,3.761290789E0,6.789956093E0
2.521445594E1,-7.230489254E-1,3.483563423E0,7.388506413E0
2.523454548E1,-6.895300746E-1,2.851494312E0,8.485051155E0
2.525463267E1,-1.699883193E-1,2.422932148E0,8.961497307E0
2.527471355E1,2.801215947E-1,2.070984364E0,8.971074104E0
2.529479386E1,5.770025849E-1,2.111685991E0,8.825027466E0
2.531488717E1,6.847416759E-1,2.379836559E0,8.449137688E0
2.533498051E1,2.825157940E-1,2.645592928E0,7.915230751E0
2.535506436E1,3.806780577E-1,3.055001259E0,7.931990147E0
2.537516540E1,7.086837292E-1,3.538630009E0,7.527369976E0
2.539524048E1,6.224924326E-1,3.895366192E0,6.811503887E0
2.541532282E1,4.764461517E-1,4.446032524E0,6.940790653E0
2.543539840E1,6.368576288E-1,5.027823448E0,7.723694801E0
2.545548455E1,5.171475410E-1,5.142745018E0,7.745242596E0
2.547557128E1,9.313444495E-1,5.006275654E0,7.395689011E0
2.549566209E1,1.647210717E0,4.790797710E0,8.298302650E0
2.551574813E1,1.742978811E0,4.376600742E0,9.423578262E0
2.553583305E1,1.230619669E0,4.197035789E0,9.895236015E0
2.555590494E1,1.369483352E0,4.156333923E0,9.437943459E0
2.557601432E1,1.300051570E0,4.328716755E0,9.682151794E0
2.559610574E1,6.919242740E-1,4.623203278E0,1.002931118E1
2.561619090E1,3.830722719E-2,4.948814869E0,9.888052940E0
2.563627451E1,-1.484405100E-1,5.240907669E0,1.002452278E1
2.565636563E1,1.436521020E-2,5.312733650E0,1.032140350E1
2.567645451E1,-1.484405100E-1,5.516240597E0,1.038125896E1
2.569653990E1,-7.134721279E-1,5.961562157E0,9.821015358E0
2.571662409E1,-1.163581967E0,6.141127586E0,9.126696587E0
2.573672174E1,-9.481038451E-1,6.114790916E0,8.884882927E0
2.575681451E1,-9.672574997E-1,5.463568211E0,8.736441612E0
2.577690617E1,-1.199495077E0,4.836287498E0,8.973467827E0
2.579698982E1,-1.201889277E0,4.192247391E0,8.937555313E0
2.581706847E1,-8.427590132E-1,3.593696833E0,8.458714485E0
2.583714444E1,-3.112462163E-1,3.323152065E0,7.776367188E0
2.585722947E1,6.943184882E-2,3.399766445E0,7.072471619E0
2.587731355E1,3.256114423E-1,3.603273630E0,6.732495308E0
2.589738459E1,1.436520964E-1,3.679888010E0,6.804321289E0
2.591744778E1,3.591302410E-2,3.806780815E0,7.101202011E0
2.593753282E1,-4.309562966E-2,3.888183594E0,7.122750282E0
2.595761513E1,-6.943184882E-2,3.928884983E0,7.026981831E0
2.597770778E1,-2.873041928E-1,3.967192173E0,7.335834026E0
2.599779432E1,-4.596867263E-1,3.799597979E0,8.054094315E0
2.601788190E1,-3.160346150E-1,3.450044632E0,8.834604263E0
2.603796655E1,2.633621916E-2,3.160346270E0,9.258378029E0
2.605804886E1,5.123591423E-1,3.299209833E0,9.186552048E0
2.607813913E1,6.871358752E-1,3.677493811E0,8.588001251E0
2.609823067E1,8.236053586E-1,4.012681961E0,8.245630264E0
2.611833917E1,8.595184088E-1,4.230554581E0,8.034940720E0
2.613843770E1,6.248866320E-1,4.378994942E0,8.147468567E0
2.615853924E1,6.009446383E-1,4.393360138E0,8.327033043E0
2.617863259E1,5.674257874E-1,4.209006786E0,8.623914719E0
2.619872451E1,5.506663918E-1,4.086902142E0,9.009381294E0
2.621882113E1,5.147533417E-1,3.825934410E0,9.583989143E0
2.623891116E1,4.165911078E-1,3.651157618E0,9.976638794E0
2.625900032E1,2.705447972E-1,3.519476414E0,9.665391922E0
2.627909009E1,2.920926213E-1,3.512293816E0,9.691728592E0
2.629918467E1,1.795651317E-1,3.275267839E0,9.991003990E0
2.631927755E1,2.394201700E-3,3.224989653E0,1.011071396E1
2.633935824E1,-4.141969085E-1,3.402160645E0,9.957485199E0
2.635944136E1,-7.637503147E-1,3.584120035E0,9.674968719E0
2.637953859E1,-1.149216771E0,3.677493811E0,9.473855972E0
2.639963336E1,-1.314416766E0,3.706224203E0,9.390059471E0
2.641972124E1,-1.522712231E0,3.670311213E0,9.351752281E0
2.643980532E1,-1.723825216E0,3.643975019E0,9.251194954E0
2.645989790E1,-1.891419291E0,3.608062029E0,9.421183586E0
2.647998451E1,-2.056619167E0,3.651157618E0,9.746794701E0
2.650007432E1,-2.224213362E0,3.715801001E0,9.854534149E0
2.652015482E1,-1.795651317E0,4.058171749E0,9.801861763E0
2.654024382E1,-1.596932530E0,4.333505154E0,9.339780807E0
2.656033228E1,-1.551442742E0,4.553771496E0,8.695740700E0
2.658042520E1,-1.216254473E0,4.728548527E0,8.013393402E0
2.660050978E1,-8.786720037E-1,4.438849926E0,7.963114738E0
2.662060197E1,-9.888052940E-1,3.569754839E0,9.291896820E0
2.664067728E1,-5.410895944E-1,2.576161146E0,1.031900978E1
2.666075124E1,-1.915361285E-1,1.853112102E0,1.087685871E1
2.668081920E1,1.197100878E-1,1.697489023E0,1.090558910E1
2.670090262E1,-1.963245422E-1,2.161964178E0,1.027591324E1
2.672099620E1,-6.536170840E-1,2.815581083E0,9.200917244E0
2.674107012E1,-6.775590777E-1,3.371036053E0,8.025363922E0
2.676114147E1,-1.173158810E-1,3.648763418E0,7.223306656E0
2.678122505E1,2.920926213E-1,3.823540211E0,7.213729858E0
2.680130474E1,1.460463107E-1,3.921702385E0,7.539340973E0
2.682140847E1,-2.681505978E-1,3.988739967E0,7.922413349E0
2.684149651E1,-7.924807668E-1,3.823540211E0,8.559270859E0
2.686159493E1,-1.197100878E0,3.263296843E0,1.029985619E1
2.688167247E1,-9.888052940E-1,2.415749550E0,1.191833591E1
2.690174328E1,-6.847416759E-1,1.711854219E0,1.244984913E1
2.692181124E1,-2.585737705E-1,1.458068848E0,1.214817905E1
2.694189605E1,9.576806799E-3,1.640028119E0,1.096544361E1
2.696197985E1,-2.442085743E-1,2.157175779E0,9.629479408E0
2.698205782E1,-5.458779931E-1,2.873042107E0,8.382100105E0
2.700213670E1,-5.554547906E-1,3.399766445E0,7.539340973E0
2.702222382E1,-4.908113480E-1,3.643975019E0,7.299921036E0
2.704230743E1,-4.884171486E-1,3.816357613E0,7.338228226E0
2.706238985E1,-5.147533417E-1,4.072536945E0,7.340622425E0
2.708247666E1,-2.059013397E-1,4.271255970E0,7.572859764E0
2.710257909E1,-4.070143029E-2,4.307168961E0,7.481880188E0
2.712267301E1,2.394201607E-2,4.556165695E0,7.393294811E0
2.714276132E1,-2.825157940E-1,4.757278919E0,7.630321026E0
2.716284762E1,-3.926490843E-1,4.592078686E0,8.441955566E0
2.718294493E1,-7.182604820E-2,4.232948780E0,9.038111687E0
2.720303589E1,2.298433632E-1,4.072536945E0,9.038111687E0
2.722312593E1,2.513911724E-1,4.232948780E0,9.028534889E0
2.724321362E1,2.418143749E-1,4.223371983E0,9.153033257E0
2.726327601E1,3.567360640E-1,3.921702385E0,9.399636269E0
2.728335985E1,6.751648784E-1,3.797203779E0,9.414001465E0
2.730344478E1,7.062895298E-1,3.842693806E0,9.339780807E0
2.732352758E1,6.392518282E-1,3.979163170E0,8.980650902E0
2.734361870E1,4.788403511E-1,4.062960148E0,8.939949036E0
2.736370374E1,5.339069963E-1,4.091690540E0,8.875306129E0
2.738379043E1,6.991068721E-1,4.153939724E0,8.432378769E0
2.740387528E1,7.637503147E-1,4.216189384E0,8.298302650E0
2.742396935E1,8.283938169E-1,4.218583584E0,8.576030731E0
2.744405704E1,1.043871999E0,4.144362926E0,8.810662270E0
2.746414366E1,1.388636947E0,4.108449936E0,8.726864815E0
2.748422970E1,8.882488012E-1,4.024652958E0,8.384494781E0
2.750432097E1,2.920926213E-1,3.845088005E0,8.650250435E0
2.752440962E1,7.182605099E-3,3.205836058E0,9.847352028E0
2.754448828E1,3.303998411E-1,2.506729126E0,1.106121159E1
2.756455831E1,8.571242094E-1,1.915361404E0,1.174116516E1
2.758462962E1,1.063025594E0,1.503558636E0,1.195185471E1
2.760469062E1,9.193734527E-1,1.577778935E0,1.180820274E1
2.762475143E1,4.979939461E-1,2.013523579E0,1.106599998E1
2.764483704E1,1.292868853E-1,2.456450939E0,9.969455719E0
2.766492081E1,-1.556231081E-1,2.786850691E0,9.023746490E0
2.768499504E1,-2.370259613E-1,3.019088268E0,8.367734909E0
2.770506789E1,-3.687070608E-1,3.260902643E0,8.051700592E0
2.772516654E1,-2.059013397E-1,3.421314240E0,7.912836552E0
2.774525889E1,-4.309562966E-2,3.402160645E0,7.872135162E0
2.776534874E1,1.436521020E-2,3.292027235E0,8.192957878E0
2.778543708E1,4.525041282E-1,3.002328873E0,8.827422142E0
2.780552966E1,9.265560508E-1,2.889801502E0,9.157821655E0
2.782562101E1,6.129156351E-1,3.162740469E0,9.313444138E0
2.784572620E1,1.197100803E-2,3.596091032E0,9.186552048E0
2.786582258E1,-2.154781483E-2,3.813963413E0,8.939949036E0
2.788590824E1,2.106897533E-1,3.790021181E0,9.040505409E0
2.790600224E1,3.830722570E-1,3.780444384E0,9.133879662E0
2.792609289E1,2.873041928E-1,3.885789394E0,8.935160637E0
2.794618520E1,2.442085743E-1,4.070142746E0,8.662221909E0
2.796626950E1,4.189853072E-1,3.952826977E0,8.868123055E0
2.798636500E1,4.908113480E-1,3.632004023E0,9.325415611E0
2.800645450E1,3.687070608E-1,3.493140221E0,9.440337181E0
2.802654716E1,2.657563984E-1,3.356670856E0,9.397241592E0
2.804663666E1,3.088520169E-1,3.203441858E0,9.390059471E0
2.806673231E1,2.130839527E-1,3.098097086E0,9.555258751E0
2.808681839E1,4.165911078E-1,3.122039080E0,9.725247383E0
2.810690712E1,4.740519226E-1,3.311181068E0,9.564835548E0
2.812699412E1,-5.985504389E-2,3.505111217E0,9.294290543E0
2.814709862E1,-4.644751251E-1,3.517082214E0,9.378087997E0
2.816719393E1,-5.219359994E-1,3.404554844E0,9.636661530E0
2.818729239E1,-2.968810201E-1,3.344699860E0,9.464279175E0
2.820738700E1,-1.987187415E-1,3.366247654E0,9.054870605E0
2.822748785E1,-4.118026793E-1,3.438073635E0,8.848969460E0
2.824758908E1,-5.889736414E-1,3.359065056E0,8.860940933E0
2.826768658E1,-4.189853072E-1,3.148375273E0,8.772355080E0
2.828778104E1,-1.197100878E-1,3.110068083E0,8.520963669E0
2.830787920E1,-1.388636976E-1,3.162740469E0,8.085219383E0
2.832797327E1,-1.987187415E-1,3.251325846E0,8.109161377E0
2.834806577E1,2.873042040E-2,3.232172251E0,8.106766701E0
2.836815781E1,2.609679997E-1,3.220201254E0,8.051700592E0
2.838825996E1,3.327940404E-1,3.162740469E0,8.099584579E0
2.840835504E1,4.070142806E-1,3.122039080E0,8.384494781E0
2.842845100E1,5.722141862E-1,3.157952070E0,8.554482460E0
2.844854608E1,7.350199223E-1,3.253720045E0,8.432378769E0
2.846864946E1,7.900865674E-1,3.270479441E0,8.475474358E0
2.848874116E1,8.523358107E-1,3.189076662E0,8.777143478E0
2.850883131E1,1.199495077E0,3.019088268E0,9.083600998E0
2.852892196E1,1.572990537E0,2.882618904E0,9.569623947E0
2.854902120E1,1.568202138E0,2.985569477E0,1.004846478E1
2.856910866E1,9.911994934E-1,3.313575268E0,1.022324085E1
2.858917923E1,7.398083210E-1,3.667917013E0,9.837775230E0
2.860928069E1,6.727706790E-1,3.916913986E0,9.267954826E0
2.862938327E1,5.075707436E-1,4.098873138E0,8.882488251E0
2.864948516E1,2.394201756E-1,4.209006786E0,8.705317497E0
2.866957885E1,1.939303428E-1,4.225766182E0,8.810662270E0
2.868966835E1,2.537853718E-1,4.122815132E0,8.904036522E0
2.870976542E1,3.567360640E-1,3.916913986E0,9.095572472E0
2.872985581E1,2.370259613E-1,3.794809580E0,9.658209801E0
2.874995143E1,2.082955539E-1,3.610456228E0,9.732429504E0
2.877004300E1,4.118026793E-1,3.610456228E0,9.368511200E0
2.879013912E1,4.860229492E-1,3.581725836E0,8.894459724E0
2.881022881E1,4.237737060E-1,3.653551817E0,9.038111687E0
2.883032162E1,4.884171486E-1,3.576937437E0,9.299078941E0
2.885041454E1,6.943184733E-1,3.608062029E0,9.114726067E0
2.887051535E1,9.002198577E-1,3.790021181E0,8.566453934E0
2.889060773E1,7.733271718E-1,3.849876404E0,8.173804283E0
2.891070316E1,6.416460276E-1,3.883395195E0,8.489839554E0
2.893079600E1,7.613561153E-1,3.921702385E0,8.999804497E0
2.895089796E1,7.230489254E-1,3.974374771E0,8.853757858E0
2.897099573E1,2.920926213E-1,4.213795185E0,8.707711220E0
2.899108935E1,1.484405100E-1,4.295197964E0,9.241618156E0
2.901118415E1,1.292868853E-1,3.792415380E0,1.034774017E1
2.903128542E1,2.825157940E-1,3.471592426E0,1.139640045E1
2.905135265E1,0.000000000E0,3.105279684E0,1.106599998E1
2.907143531E1,-6.224924326E-2,2.932897091E0,1.000297451E1
2.909153081E1,-4.548983276E-2,2.667140722E0,9.785101891E0
2.911162069E1,-2.849099934E-1,2.420537949E0,1.076911926E1
2.913170677E1,-6.392518282E-1,2.449268341E0,1.104445267E1
2.915179519E1,-1.127668977E0,2.363077164E0,1.021605873E1
2.917188123E1,-8.020575643E-1,2.442085743E0,9.591172218E0
2.919197504E1,-4.357447028E-1,2.561795712E0,9.229647636E0
2.921206296E1,-7.661445141E-1,2.906560898E0,8.226476669E0
2.923216665E1,-8.499416113E-1,3.825934410E0,6.904877663E0
2.925224654E1,-7.852981687E-1,4.448426723E0,5.700594425E0
2.927232069E1,-6.775590777E-1,4.601655483E0,5.396530628E0
2.929238738E1,-8.331822157E-1,4.704606533E0,6.428431511E0
2.931247227E1,-1.007958889E0,4.503493309E0,7.266402245E0
2.933255481E1,-4.285621047E-1,4.256890774E0,7.249642849E0
2.935264654E1,6.177040339E-1,4.017470360E0,7.651868820E0
2.937274027E1,1.122880578E0,3.969586372E0,8.259995461E0
2.939283019E1,1.154005170E0,4.254496574E0,8.200140953E0
2.941292204E1,8.403648138E-1,4.568136692E0,7.661445618E0
2.943302319E1,7.948749661E-1,4.625597477E0,7.333439827E0
2.945312265E1,7.637503147E-1,4.525041103E0,7.795520782E0
2.947321685E1,6.919242740E-1,4.194641590E0,8.398859978E0
2.949333650E1,6.033388376E-1,4.019864559E0,8.875306129E0
2.951343704E1,5.458779931E-1,3.969586372E0,8.961497307E0
2.953353519E1,3.160346150E-1,4.132391930E0,9.270348549E0
2.955362861E1,-7.422025502E-2,4.242525578E0,9.548076630E0
2.957372254E1,-3.232172430E-1,4.276044369E0,9.770736694E0
2.959382642E1,-4.788403511E-1,4.441244125E0,9.734824181E0
2.961391927E1,-7.110779285E-1,4.563348293E0,9.519346237E0
2.963400854E1,-7.972691655E-1,4.699818134E0,9.461885452E0
2.965410158E1,-5.171475410E-1,5.001487255E0,9.289502144E0
2.967420081E1,-5.123591423E-1,5.183446884E0,8.868123055E0
2.969429600E1,-6.823474765E-1,5.214571476E0,8.477868080E0
2.971438934E1,-4.525041282E-1,5.355829239E0,8.339004517E0
2.973447977E1,-6.464344263E-2,5.092466831E0,7.098807812E0
2.975457438E1,1.419761658E0,4.268861771E0,6.105214119E0
2.977464415E1,3.493140221E0,2.604891539E0,8.640673637E0
2.979471307E1,3.914519787E0,1.788468719E0,1.154962921E1
2.981478211E1,1.472434044E0,1.807622313E0,1.373792934E1
2.983485980E1,-2.561795712E0,2.360682964E0,1.491108799E1
2.985493319E1,-4.692635536E0,2.731784105E0,1.515290260E1
2.987500450E1,-4.108449936E0,2.351106167E0,1.420958710E1
2.989507219E1,-2.442085743E0,1.884236693E0,1.255519390E1
2.991514454E1,-1.096544385E0,1.747767210E0,1.069250488E1
2.993520773E1,-7.230489254E-1,2.104503393E0,8.978256226E0
2.995527546E1,-1.019929886E0,2.557007313E0,7.515398979E0
2.997535411E1,-1.065419793E0,3.083731890E0,6.519411087E0
2.999543138E1,-6.248866320E-1,3.313575268E0,6.521805286E0
3.001550573E1,-2.513911724E-1,3.169923067E0,7.395689011E0
3.003559969E1,-3.663128614E-1,2.906560898E0,8.264783859E0
3.005569288E1,-2.346317619E-1,2.600103140E0,9.006986618E0
3.007579073E1,3.830722570E-1,2.346317768E0,9.157821655E0
3.009587377E1,8.403648138E-1,2.444479942E0,8.681375504E0
3.011596280E1,5.817909837E-1,2.628833532E0,8.092401505E0
3.013604923E1,4.429273009E-1,3.009511471E0,7.809885979E0
3.015614988E1,5.913678408E-1,3.236960649E0,8.173804283E0
3.017624688E1,9.792284966E-1,3.232172251E0,8.166622162E0
3.019633950E1,1.364694953E0,3.476380825E0,7.642292023E0
3.021642992E1,1.340752959E0,3.775655985E0,7.366958618E0
3.023652965E1,1.707065821E0,4.259284973E0,7.977479935E0
3.025662669E1,1.999158382E0,4.484339714E0,8.104372978E0
3.027672219E1,1.798045516E0,4.774038315E0,7.800309181E0
3.029681734E1,1.484405041E0,5.128379822E0,8.183381081E0
3.031691715E1,1.654393315E0,5.224148273E0,8.667010307E0
3.033700715E1,1.381454349E0,5.027823448E0,9.548076630E0
3.035710184E1,6.871358752E-1,4.580107689E0,1.042914295E1
3.037720942E1,5.027823448E-1,4.187458992E0,1.145386124E1
3.039729226E1,7.541735172E-1,3.713406801E0,1.207395935E1
3.041736853E1,2.226607651E-1,3.497928619E0,1.154244614E1
3.043743876E1,-8.164227605E-1,3.203441858E0,1.094629002E1
3.045753273E1,-1.197100878E0,2.724601507E0,1.079066753E1
3.047762150E1,-1.094150186E0,2.296039343E0,1.081700325E1
3.049770407E1,-1.027112484E0,2.042253971E0,1.001015759E1
3.051779011E1,-1.525106430E0,2.229001760E0,8.678980827E0
3.053787280E1,-1.668758631E0,2.308010340E0,7.831433773E0
3.055795653E1,-6.296750307E-1,2.303221941E0,7.388506413E0
3.057802434E1,1.292868853E-1,2.817975283E0,6.715735912E0
3.059810703E1,6.224924326E-2,3.315969467E0,5.899312973E0
3.061821726E1,4.381389022E-1,3.744531393E0,5.899312973E0
3.063828922E1,9.121908545E-1,4.299986362E0,6.454767704E0
3.065835580E1,1.067813993E0,4.692635536E0,7.026981831E0
3.067843499E1,4.812345505E-1,4.905719280E0,7.577648163E0
3.069851222E1,4.740519226E-1,4.967968464E0,8.379706383E0
3.071859788E1,2.030282974E0,4.481945515E0,9.576807022E0
3.073869661E1,2.738966703E0,3.646369219E0,1.089601231E1
3.075876372E1,2.032677174E0,3.227383852E0,1.137724686E1
3.077885911E1,7.134721279E-1,3.359065056E0,1.162384892E1
3.079893157E1,-2.178723514E-1,3.098097086E0,1.069968700E1
3.081900792E1,-6.991068721E-1,3.100491285E0,9.488221169E0
3.083908292E1,-1.412579060E0,3.732560396E0,7.920019150E0
3.085915522E1,-2.020706177E0,4.192247391E0,6.476315498E0
3.087923557E1,-9.720458984E-1,4.288015366E0,6.349422932E0
3.089930265E1,1.987187415E-1,4.089296341E0,7.821856976E0
3.091937999E1,4.932055473E-1,3.916913986E0,9.291896820E0
3.093945138E1,7.709329724E-1,4.534617901E0,9.141061783E0
3.095952872E1,2.992752194E-1,5.451597214E0,8.051700592E0
3.097960292E1,-3.351882398E-1,5.585672379E0,8.626308441E0
3.099967976E1,-4.884171486E-1,4.754884720E0,1.028549004E1
3.101974976E1,1.484405100E-1,3.854664803E0,1.097023201E1
3.103983172E1,3.543418646E-1,3.371036053E0,1.160230160E1
3.105990180E1,-2.633621991E-1,2.729389906E0,1.193509579E1
3.107996884E1,-2.968810201E-1,2.662352324E0,1.047463226E1
3.110005619E1,3.471592367E-1,3.236960649E0,8.111555099E0
3.112012695E1,7.493851185E-1,3.296815634E0,6.222530365E0
3.114018807E1,1.426944256E0,3.040636063E0,6.459556103E0
3.116025053E1,1.994369984E0,2.760514498E0,8.707711220E0
3.118031430E1,2.264914751E0,2.279279947E0,1.020887566E1
3.120039215E1,2.588132143E0,2.456450939E0,1.035252857E1
3.122046607E1,1.489193439E0,2.511517525E0,9.404424667E0
3.124054461E1,5.386953950E-1,3.524264812E0,9.028534889E0
3.126063715E1,-3.495534360E-1,4.082113743E0,8.674192429E0
3.128071618E1,-4.788403399E-3,4.412513733E0,8.441955566E0
3.130079668E1,7.876923680E-1,4.723760128E0,7.762001991E0
3.132087307E1,1.168370485E0,4.800374508E0,7.103596210E0
3.134094345E1,2.121262789E0,4.582501888E0,7.788338184E0
3.136103438E1,2.343923569E0,4.141968727E0,8.451532364E0
3.138112142E1,2.454056740E0,4.015076160E0,8.908824921E0
3.140121318E1,2.343923569E0,3.734954596E0,9.162610054E0
3.142130184E1,2.185906172E0,3.181894064E0,9.512163162E0
3.144139941E1,1.683123827E0,2.746149302E0,9.607931137E0
3.146147799E1,1.247379065E0,2.367865562E0,9.612719536E0
3.148155715E1,1.563413739E0,2.106897593E0,9.315838814E0
3.150165091E1,1.640028119E0,2.430114746E0,8.532935143E0
3.152174153E1,1.422155857E0,3.196259260E0,7.218518257E0
3.154181734E1,1.422155857E0,3.909731388E0,5.585672379E0
3.156188107E1,8.738836050E-1,4.034229755E0,5.418078423E0
3.158194330E1,2.753331959E-1,3.576937437E0,8.224082947E0
3.160201476E1,2.226607651E-1,2.540247917E0,1.175313568E1
3.162207611E1,1.149216771E0,1.462857246E0,1.340034676E1
3.164213853E1,2.269703150E0,8.259995580E-1,1.304839897E1
3.166219834E1,2.195482969E0,8.667010069E-1,1.310585976E1
3.168228168E1,6.512228847E-1,1.355118155E0,1.380257320E1
3.170234784E1,-6.272808313E-1,1.939303398E0,1.181538582E1
3.172241145E1,-1.589749932E0,2.652775526E0,7.917624950E0
3.174247153E1,-1.316810966E0,3.584120035E0,6.320692539E0
3.176254249E1,-6.895300746E-1,3.651157618E0,6.636727333E0
3.178260445E1,-5.602431893E-1,3.260902643E0,8.176198959E0
3.180270022E1,-7.134721279E-1,3.167528868E0,9.246406555E0
3.182276560E1,-1.283292055E0,3.107673883E0,9.713275909E0
3.184283818E1,-1.252167463E0,2.923320293E0,9.610325813E0
3.186289430E1,-6.105214357E-1,2.750937700E0,8.904036522E0
3.188297122E1,-5.770025849E-1,2.789244890E0,8.535328865E0
3.190304634E1,-1.039083481E0,3.047818661E0,8.492233276E0
3.192313949E1,-1.656787634E0,3.363853455E0,8.207323074E0
3.194322326E1,-2.334346771E0,3.584120035E0,7.716512203E0
3.196329357E1,-2.597708941E0,3.555389643E0,8.068459511E0
3.198336353E1,-2.291250944E0,3.445256233E0,8.925583839E0
3.200345384E1,-1.975216389E0,3.102885485E0,9.660603523E0
3.202353203E1,-1.395819545E0,3.031059265E0,9.555258751E0
3.204360487E1,-8.571242094E-1,3.098097086E0,9.251194954E0
3.206369126E1,-5.889736414E-1,3.047818661E0,9.639056206E0
3.208377968E1,-7.350199223E-1,2.834734917E0,1.002931118E1
3.210385957E1,-7.230489254E-1,3.098097086E0,1.061110210E1
3.212392126E1,-1.137245774E0,3.256114244E0,1.032140350E1
3.214399891E1,-9.265560508E-1,3.256114244E0,9.885659218E0
3.216408157E1,-6.416460276E-1,2.887407303E0,1.013465595E1
3.218416403E1,-1.292868853E-1,2.607285738E0,1.064701462E1
3.220424410E1,-3.040636182E-1,2.750937700E0,1.054166985E1
3.222432556E1,-6.177040339E-1,3.019088268E0,9.437943459E0
3.224441164E1,2.396595955E0,6.074089527E0,1.001015759E1
3.226447487E1,-2.272097349E0,6.495469093E0,1.028309631E1
3.228453941E1,-5.633556366E0,2.492363930E0,9.260771751E0
3.230461372E1,-1.225831270E0,3.423708439E0,8.868123055E0
3.232468945E1,9.696516991E-1,2.504334927E0,7.283161640E0
3.234475622E1,1.896207690E0,1.568202138E0,6.378153324E0
3.236482045E1,1.745373011E0,1.364694953E0,6.732495308E0
3.238488437E1,1.608903527E0,1.259350061E0,7.685387611E0
3.240496460E1,1.654393315E0,1.608903527E0,8.597578049E0
3.242504118E1,2.851494312E0,2.889801502E0,9.076418877E0
3.244511730E1,2.324769735E0,3.813963413E0,8.820239067E0
3.246518945E1,6.512228847E-1,3.186682463E0,7.812280178E0
3.248527326E1,1.364694953E0,3.378218651E0,7.517793179E0
3.250537310E1,2.398990154E0,2.925714493E0,7.603984833E0
3.252546253E1,2.154781580E0,3.248931646E0,8.061277390E0
3.254555160E1,9.720458984E-1,3.881000996E0,8.032546997E0
3.256564780E1,2.609679997E-1,4.513070107E0,7.891288757E0
3.258573576E1,-4.070143029E-2,4.953603268E0,7.592013359E0
3.260582779E1,8.140286058E-2,5.082890034E0,8.434772491E0
3.262591337E1,-1.987187415E-1,5.269638062E0,9.521739960E0
3.264600579E1,-1.168370485E0,5.300762653E0,1.059673691E1
3.266607083E1,-1.414973259E0,5.190629482E0,1.109233665E1
3.268615729E1,-1.146822572E0,4.819528103E0,1.171961689E1
3.270622179E1,-8.619126081E-1,4.254496574E0,1.213142014E1
3.272629491E1,-4.118026793E-1,4.228160381E0,1.141555405E1
3.274636637E1,-7.709329724E-1,4.654327869E0,1.022802925E1
3.276645422E1,-1.898601890E0,4.886565685E0,9.109937668E0
3.278652402E1,-2.070984364E0,4.438849926E0,9.102754593E0
3.280661699E1,-7.996633649E-1,3.406949043E0,9.246406555E0
3.282669352E1,-1.388636976E-1,2.576161146E0,9.639056206E0
3.284677099E1,4.046200812E-1,2.513911724E0,1.004607010E1
3.286684614E1,1.795651317E-1,2.801215887E0,9.133879662E0
3.288693660E1,1.508347094E-1,3.354276657E0,7.929595947E0
3.290701306E1,3.830722719E-2,3.464409828E0,8.183381081E0
3.292708991E1,-2.944868207E-1,3.476380825E0,8.635885239E0
3.294718798E1,-7.182604820E-2,3.600879431E0,8.291120529E0
3.296728233E1,4.979939461E-1,3.715801001E0,7.680599213E0
3.298736810E1,1.055842996E0,3.737348795E0,7.814674377E0
3.300745618E1,8.595184088E-1,3.462015629E0,9.076418877E0
3.302754156E1,6.488286853E-1,3.282450438E0,1.013704967E1
3.304762537E1,6.607996821E-1,2.999934673E0,1.052491093E1
3.306770241E1,6.703764796E-1,2.887407303E0,1.061110210E1
3.308779818E1,6.991068721E-1,2.774879694E0,9.758766174E0
3.310788298E1,8.379706144E-1,3.057395458E0,9.368511200E0
3.312797637E1,6.703764945E-2,3.363853455E0,9.631873131E0
3.314808541E1,-9.265560508E-1,3.344699860E0,9.617507935E0
3.316819010E1,-5.937620401E-1,3.330334663E0,8.853757858E0
3.318827899E1,-5.985504389E-2,3.416525841E0,8.384494781E0
3.320837333E1,-2.873041928E-1,3.531447411E0,8.367734909E0
3.322846491E1,-7.541735172E-1,3.157952070E0,8.391676903E0
3.324855795E1,-3.639186621E-1,2.597708941E0,9.172186852E0
3.326865456E1,1.077390760E-1,2.164358377E0,1.021366405E1
3.328873895E1,5.315127969E-1,2.037465572E0,1.016338634E1
3.330881729E1,9.289502501E-1,2.224213362E0,9.473855972E0
3.332889868E1,9.816226959E-1,2.365471363E0,9.188945770E0
3.334897994E1,4.692635238E-1,2.576161146E0,9.655815125E0
3.336907006E1,-6.703764945E-2,2.777273893E0,9.686940193E0
3.338915287E1,1.292868853E-1,2.942473888E0,8.925583839E0
3.340923591E1,3.016694188E-1,3.124433279E0,8.298302650E0
3.342933014E1,2.035071403E-1,3.342305660E0,8.169015884E0
3.344942502E1,1.508347094E-1,3.478775024E0,8.135497093E0
3.346951248E1,3.016694188E-1,3.507505417E0,8.085219383E0
3.348959675E1,1.580173075E-1,3.773261786E0,8.157045364E0
3.350968071E1,-1.221042871E-1,3.964797974E0,8.446743965E0
3.352977637E1,6.943184882E-2,3.909731388E0,8.477868080E0
3.354986614E1,4.812345505E-1,3.904942989E0,8.087613106E0
3.356995091E1,6.871358752E-1,4.027047157E0,8.128314972E0
3.359002902E1,5.674257874E-1,4.067748547E0,8.652645111E0
3.361012098E1,3.208230138E-1,3.955221176E0,9.610325813E0
3.363020160E1,2.657563984E-1,3.825934410E0,1.024478912E1
3.365028691E1,6.033388376E-1,4.240131378E0,1.036928749E1
3.367037375E1,6.799532771E-1,4.627991676E0,9.392453194E0
3.369046556E1,3.543418646E-1,4.960785866E0,8.453926086E0
3.371054206E1,-2.873042040E-2,5.228936672E0,8.078036308E0
3.373061871E1,-2.394201700E-3,5.336675644E0,8.645462036E0
3.375070168E1,-7.422025502E-2,5.104437828E0,8.939949036E0
3.377079621E1,1.915361360E-2,4.857835293E0,8.690952301E0
3.379088175E1,2.633621991E-1,4.577713490E0,8.671798706E0
3.381096556E1,1.915361285E-1,4.371812344E0,9.272743225E0
3.383104767E1,3.088520169E-1,4.283226967E0,9.306262016E0
3.385114040E1,4.812345505E-1,4.525041103E0,8.631096840E0
3.387123206E1,4.572925270E-1,4.632780075E0,7.771578789E0
3.389132060E1,3.016694188E-1,4.481945515E0,7.960720539E0
3.391140340E1,9.193734527E-1,4.129997730E0,8.178592682E0
3.393150094E1,1.479616642E0,3.749319792E0,7.694964409E0
3.395159517E1,2.149993181E0,3.502717018E0,7.594407558E0
3.397168898E1,2.782062292E0,3.447650433E0,8.288725853E0
3.399177383E1,2.887407303E0,3.995922565E0,8.501810074E0
3.401186552E1,2.365471363E0,4.532223701E0,7.553706169E0
3.403195214E1,1.625662923E0,4.989516258E0,6.497863293E0
3.405202737E1,1.314416766E0,5.128379822E0,6.481103897E0
3.407210202E1,1.802833915E0,4.742913723E0,7.814674377E0
3.409219994E1,2.197877169E0,4.194641590E0,9.023746490E0
3.411227506E1,2.229001760E0,4.000710964E0,9.902418137E0
3.413235090E1,2.070984364E0,4.319139957E0,1.020169353E1
3.415242864E1,1.589749932E0,4.546588898E0,9.993397713E0
3.417252271E1,1.738190413E0,4.647145271E0,9.569623947E0
3.419260964E1,1.687912226E0,4.817133904E0,9.074024200E0
3.421269902E1,1.333570361E0,5.058948040E0,8.920795441E0
3.423278390E1,1.314416766E0,5.020640850E0,8.439560890E0
3.425287713E1,1.946485996E0,4.627991676E0,8.207323074E0
3.427296852E1,2.580949545E0,4.331110954E0,8.300697327E0
3.429305825E1,2.664746523E0,4.343081951E0,8.389283180E0
3.431314279E1,2.236184359E0,4.381389141E0,8.681375504E0
3.433323621E1,2.073378563E0,4.388571739E0,9.548076630E0
3.435332683E1,2.444479942E0,4.182670593E0,9.722852707E0
3.437341648E1,2.726995707E0,4.084507942E0,9.358934402E0
3.439349344E1,2.815581083E0,4.340687752E0,8.841787338E0
3.441358660E1,2.475604534E0,4.565742493E0,8.252813339E0
3.443367498E1,2.027888775E0,4.817133904E0,8.508993149E0
3.445376390E1,1.604115129E0,4.829104900E0,8.736441612E0
3.447385267E1,1.800439715E0,4.757278919E0,8.355764389E0
3.449394948E1,2.552218914E0,4.786009312E0,8.207323074E0
3.451403760E1,2.418143749E0,4.826710701E0,8.477868080E0
3.453412363E1,1.991975784E0,5.061342239E0,8.492233276E0
3.455420729E1,1.766920805E0,4.697423935E0,8.312667847E0
3.457430525E1,1.802833915E0,4.053383350E0,8.645462036E0
3.459440052E1,1.690306425E0,3.224989653E0,9.531316757E0
3.461448136E1,2.286462545E0,2.525882721E0,1.002691650E1
3.463455636E1,2.786850691E0,2.233790159E0,9.674968719E0
3.465463782E1,2.892195702E0,1.934514999E0,9.023746490E0
3.467472783E1,2.588132143E0,1.984793186E0,8.360552788E0
3.469481725E1,1.570596337E0,2.164358377E0,7.903259754E0
3.471490867E1,1.063025594E0,2.243366957E0,7.991845131E0
3.473499552E1,1.154005170E0,1.951274395E0,8.164227486E0
3.475507875E1,2.291250944E0,1.946485996E0,8.092401505E0
3.477516813E1,2.226607561E0,2.351106167E0,8.049305916E0
3.479526775E1,1.106121182E0,2.961627483E0,7.661445618E0
3.481536182E1,6.871358752E-1,3.574543238E0,7.204153061E0
3.483544648E1,1.417367458E0,3.952826977E0,7.374141216E0
3.485551767E1,1.802833915E0,4.019864559E0,7.338228226E0
3.487559217E1,1.505952835E0,4.163516521E0,6.720524311E0
3.489568994E1,9.768342972E-1,4.553771496E0,6.524199486E0
3.491577579E1,-9.337386489E-2,4.774038315E0,7.398083210E0
3.493586102E1,9.576806426E-2,4.493916512E0,8.446743965E0
3.495594606E1,1.314416766E0,4.024652958E0,8.212111473E0
3.497603175E1,2.106897593E0,4.118026733E0,7.783549786E0
3.499612748E1,1.972822189E0,4.316745758E0,8.829815865E0
3.501621848E1,1.563413739E0,4.484339714E0,9.057265282E0
3.503630794E1,1.630451322E0,5.104437828E0,8.772355080E0
3.505640944E1,6.631938815E-1,5.492298603E0,9.454702377E0
3.507650267E1,-1.651999205E-1,5.662287235E0,1.006761837E1
3.509659605E1,-3.758896589E-1,5.566518784E0,1.012747288E1
3.511668402E1,5.027823523E-2,5.341464043E0,1.032619190E1
3.513677825E1,1.048660398E0,4.903325081E0,1.091037750E1
3.515685790E1,1.783680320E0,4.618414879E0,1.071405220E1
3.517692479E1,2.128445387E0,4.381389141E0,1.001015759E1
3.519701409E1,2.782062292E0,4.481945515E0,9.923966408E0
3.521708228E1,2.640804529E0,4.338293552E0,1.059434223E1
3.523717175E1,2.291250944E0,4.309563160E0,1.077869606E1
3.525723636E1,1.826775908E0,4.206612587E0,1.038365269E1
3.527732198E1,1.182735682E0,3.605667830E0,9.916783333E0
3.529741998E1,1.757344007E0,2.619256735E0,1.042674828E1
3.531749586E1,2.767697096E0,1.910573006E0,1.112346077E1
3.533758909E1,3.536235809E0,1.671152830E0,1.035013390E1
3.535767552E1,3.780444384E0,1.917755604E0,8.638279915E0
3.537776182E1,3.799597979E0,2.394201756E0,7.098807812E0
3.539784309E1,3.122039080E0,2.772485495E0,6.864176273E0
3.541791978E1,2.827552319E0,2.868253708E0,7.716512203E0
3.543801944E1,3.124433279E0,2.669534922E0,8.063671112E0
3.545811721E1,3.050212860E0,2.458845139E0,7.963114738E0
3.547820609E1,2.597708941E0,2.427720547E0,8.128314972E0
3.549829505E1,2.090138197E0,2.331952572E0,8.578424454E0
3.551838448E1,2.195482969E0,2.133233786E0,9.299078941E0
3.553847336E1,2.798821688E0,2.547430515E0,9.928754807E0
3.555856151E1,2.829946518E0,3.153163671E0,9.210494041E0
3.557865305E1,1.987187386E0,3.909731388E0,8.121131897E0
3.559873048E1,8.236053586E-1,4.881777287E0,7.747636795E0
3.561882601E1,-1.149216816E-1,5.456385612E0,7.881711960E0
3.563890217E1,-5.482721925E-1,5.094861031E0,8.592789650E0
3.565898213E1,2.513911724E-1,4.264073372E0,9.696516991E0
3.567905778E1,1.098938584E0,3.483563423E0,1.069968700E1
3.569914590E1,1.405396342E0,2.585737944E0,1.086967564E1
3.571922601E1,1.599326730E0,2.296039343E0,9.753977776E0
3.573930436E1,1.367089152E0,2.303221941E0,8.674192429E0
3.575939755E1,7.158663273E-1,2.073378563E0,8.257601738E0
3.577948678E1,5.626373887E-1,1.841141105E0,8.681375504E0
3.579957074E1,3.998316824E-1,1.960851192E0,8.932766914E0
3.581965690E1,-6.416460276E-1,2.025494576E0,8.343792915E0
3.583973586E1,-7.637503147E-1,2.159569979E0,7.642292023E0
3.585982967E1,-7.158663273E-1,1.939303398E0,8.180987358E0
3.587993586E1,-3.974374831E-1,1.520318031E0,9.059659004E0
3.590001924E1,-2.394201756E-1,1.520318031E0,9.603142738E0
3.592010409E1,9.097966552E-2,1.450886250E0,9.459490776E0
3.594019759E1,1.187524080E0,1.386242747E0,9.562441826E0
3.596028051E1,1.987187386E0,1.139639974E0,9.854534149E0
3.598036751E1,1.546654344E0,1.467645645E0,1.072841740E1
3.600045236E1,3.112462163E-2,2.116474390E0,1.168609810E1
3.602055859E1,-1.625662923E0,2.889801502E0,1.232295609E1
3.604062624E1,-2.233790159E0,3.440467834E0,1.171961689E1
3.606069063E1,-1.826775908E0,3.629609823E0,9.768342972E0
3.608075432E1,-1.216254473E0,3.552995205E0,7.982268333E0
3.610083182E1,-3.663128614E-1,3.512293816E0,7.309497833E0
3.612091009E1,-5.841852427E-1,3.952826977E0,8.540117264E0
3.614098970E1,-1.551442742E0,4.000710964E0,9.988609314E0
3.616106344E1,-2.020706177E0,3.581725836E0,9.799467087E0
3.618114786E1,-1.364694953E0,3.337517262E0,9.366117477E0
3.620124224E1,-2.920926213E-1,3.043030262E0,9.526528358E0
3.622133224E1,6.655880809E-1,3.076549292E0,9.698910713E0
3.624140066E1,8.595184088E-1,3.320757866E0,9.653421402E0
3.626149305E1,8.068459630E-1,3.490746021E0,9.334992409E0
3.628157355E1,1.261744261E0,3.373430252E0,9.564835548E0
3.630165674E1,1.747767210E0,3.076549292E0,9.342175484E0
3.632174082E1,2.585737944E0,3.031059265E0,8.652645111E0
3.634183943E1,3.363853455E0,3.014299870E0,8.307879448E0
3.636191128E1,4.460397720E0,3.292027235E0,8.506598473E0
3.638198497E1,4.625597477E0,3.770867586E0,8.731653214E0
3.640205943E1,3.804386616E0,4.201824188E0,9.136273384E0
3.642215963E1,3.078943491E0,4.371812344E0,9.947908401E0
3.644224966E1,2.336740971E0,4.108449936E0,1.009634876E1
3.646232374E1,2.786850691E0,2.971204281E0,1.129344940E1
3.648238090E1,3.064578056E0,1.335964561E0,1.315374374E1
3.650248432E1,3.167528868E0,3.567360640E-1,1.410184765E1
3.652254928E1,3.011905670E0,-6.943184882E-2,1.356315231E1
3.654261178E1,2.164358377E0,2.873042040E-2,1.165018559E1
3.656267028E1,9.385270476E-1,4.477157295E-1,9.516951561E0
3.658274520E1,-1.197100803E-2,1.024718285E0,7.814674377E0
3.660280955E1,-3.327940404E-1,1.637633920E0,6.967126846E0
3.662288124E1,-9.385270476E-1,2.106897593E0,6.452373505E0
3.664294793E1,-2.746149302E0,2.418143749E0,6.538564682E0
3.666302347E1,-3.847482204E0,2.513911724E0,6.957550049E0
3.668309989E1,-3.105279684E0,2.719813108E0,7.343016624E0
3.670317389E1,-1.273715258E0,3.119644880E0,7.563282967E0
3.672324916E1,-5.027823448E-1,3.438073635E0,7.711723804E0
3.674333397E1,-4.165911078E-1,3.785232782E0,7.790732384E0
3.676340543E1,-1.604115069E-1,4.144362926E0,8.281543732E0
3.678349105E1,-4.788403511E-1,4.249708176E0,8.169015884E0
3.680357786E1,-9.097966552E-1,4.254496574E0,8.647856712E0
3.682368062E1,-7.996633649E-1,3.306392431E0,9.744400978E0
3.684378901E1,1.197100803E-2,2.331952572E0,1.083855152E1
3.686386178E1,9.792284966E-1,2.257732153E0,1.087685871E1
3.688393420E1,8.714894056E-1,2.489969730E0,9.658209801E0
3.690402493E1,3.136404157E-1,3.184288263E0,8.791508675E0
3.692412266E1,3.591302410E-2,3.629609823E0,8.942343712E0
3.694420078E1,-1.252167463E0,3.241749048E0,8.760383606E0
3.696428747E1,-2.652775526E0,2.236184359E0,8.580819130E0
3.698437601E1,-3.452438831E0,7.996633649E-1,9.536105156E0
3.700445412E1,-3.172317266E0,2.442085743E-1,1.173637676E1
3.702451816E1,-3.392583847E0,4.501099288E-1,1.281137371E1
3.704457958E1,-4.204218388E0,6.200982332E-1,1.232774448E1
3.706465335E1,-6.385335922E0,6.105214357E-1,1.246660805E1
3.708471728E1,-7.017405033E0,7.757213712E-1,1.231816769E1
3.710478216E1,-4.900930882E0,1.031900883E0,1.091516590E1
3.712484370E1,-2.827552319E0,1.182735682E0,9.085995674E0
3.714492170E1,-1.642422318E0,1.089361787E0,8.640673637E0
3.716499193E1,-1.572990537E0,1.431732655E0,8.951920509E0
3.718506855E1,-2.240972757E0,1.223437071E0,8.391676903E0
3.720516362E1,-2.463633537E0,1.237802267E0,8.401253700E0
3.722525758E1,-1.802833915E0,1.999158382E0,9.011775017E0
3.724534120E1,-8.283938169E-1,2.226607561E0,8.305485725E0
3.726542212E1,-5.985504389E-2,2.501940727E0,7.771578789E0
3.728550147E1,-6.009446383E-1,2.334346771E0,8.868123055E0
3.730559412E1,-1.467645645E0,1.908178806E0,1.091037750E1
3.732565647E1,-1.544260144E0,7.781155705E-1,1.214817905E1
3.734572120E1,4.046200812E-1,1.173158810E-1,1.159990692E1
3.736579424E1,2.614468336E0,6.392518282E-1,1.110430717E1
3.738587943E1,3.588908434E0,1.690306425E0,9.469067574E0
3.740598585E1,3.632004023E0,2.518700123E0,7.809885979E0
3.742606101E1,3.457227230E0,3.471592426E0,7.402871609E0
3.744613578E1,3.186682463E0,3.756502390E0,7.582436562E0
3.746622658E1,3.483563423E0,3.332728863E0,8.219294548E0
3.748632685E1,3.078943491E0,2.698265314E0,9.457097054E0
3.750640531E1,2.391807556E0,1.972822189E0,1.120725822E1
3.752647858E1,2.475604534E0,1.285686255E0,1.281616211E1
3.754655578E1,2.454056740E0,1.060631394E0,1.249294472E1
3.756661947E1,1.228225470E0,1.515529633E0,1.148977375E1
3.758671385E1,5.722141862E-1,2.003946781E0,1.067095661E1
3.760679458E1,7.637503147E-1,2.324769735E0,9.976638794E0
3.762689181E1,1.831564307E0,2.834734917E0,8.985439301E0
3.764696631E1,1.999158382E0,3.385401249E0,7.920019150E0
3.766704131E1,1.118092179E0,3.969586372E0,7.307103634E0
3.768711051E1,-7.422025502E-2,4.369418144E0,8.066065788E0
3.770719851E1,5.602431893E-1,4.022258759E0,9.138668060E0
3.772729539E1,1.996764183E0,3.576937437E0,8.597578049E0
3.774738516E1,2.784456491E0,3.938461781E0,7.534552574E0
3.776745970E1,2.075772762E0,4.486733913E0,6.902483463E0
3.778754828E1,1.810016513E0,4.381389141E0,7.568071365E0
3.780762600E1,2.300827742E0,3.684676409E0,8.037335396E0
3.782771428E1,2.885013103E0,3.433285236E0,7.812280178E0
3.784779958E1,3.220201254E0,3.265691042E0,7.627926826E0
3.786789601E1,3.964797974E0,2.820369720E0,7.472303391E0
3.788798700E1,4.491522312E0,2.657563925E0,7.924807549E0
3.790807743E1,4.402936935E0,2.626439333E0,8.379706383E0
3.792816281E1,4.635174274E0,2.815581083E0,8.753201485E0
3.794826208E1,4.836287498E0,2.875436306E0,8.889671326E0
3.796835377E1,5.070919037E0,2.430114746E0,9.787496567E0
3.798844235E1,4.939238071E0,2.609679937E0,1.106121159E1
3.800853747E1,3.756502390E0,3.246537447E0,1.116416264E1
3.802861674E1,2.480392933E0,4.096478939E0,9.732429504E0
3.804869700E1,2.023100376E0,4.668693542E0,8.537723541E0
3.806877947E1,1.781286120E0,4.922478676E0,8.125920296E0
3.808885808E1,1.948880196E0,4.955997467E0,8.137891769E0
3.810896008E1,2.561795712E0,4.769249916E0,7.637503624E0
3.812904974E1,3.325546265E0,4.838681698E0,7.445967197E0
3.814913297E1,3.555389643E0,5.049371243E0,7.766790390E0
3.816921966E1,2.791639090E0,5.413290024E0,8.300697327E0
3.818931824E1,1.855506301E0,5.645527840E0,8.485051155E0
3.820940520E1,1.400607944E0,5.547365189E0,8.085219383E0
3.822949220E1,1.742978811E0,4.759673119E0,8.396465302E0
3.824957762E1,2.391807556E0,3.936067581E0,9.531316757E0
3.826966820E1,2.506729126E0,3.490746021E0,1.031900978E1
3.828974543E1,2.406172752E0,3.524264812E0,9.828198433E0
3.830982181E1,2.152387381E0,3.797203779E0,9.074024200E0
3.832990454E1,2.078166962E0,3.926490784E0,8.829815865E0
3.835000416E1,2.126051188E0,3.998316765E0,8.370129585E0
3.837009404E1,2.097320795E0,4.242525578E0,7.455543995E0
3.839018377E1,1.778891921E0,4.299986362E0,6.634333134E0
3.841025839E1,1.865083098E0,4.144362926E0,6.952761650E0
3.843036204E1,1.771709204E0,3.610456228E0,8.010998726E0
3.845045754E1,1.321599364E0,3.536235809E0,8.971074104E0
3.847054204E1,2.293645144E0,3.320757866E0,9.641449928E0
3.849062081E1,3.423708439E0,3.052607059E0,8.671798706E0
3.851072212E1,3.643975019E0,3.478775024E0,7.580042362E0
3.853080293E1,3.155557871E0,3.849876404E0,7.371747017E0
3.855087923E1,2.636016130E0,4.022258759E0,7.809885979E0
3.857096639E1,2.243366957E0,3.938461781E0,8.561665535E0
3.859106820E1,2.506729126E0,3.763684988E0,9.028534889E0
3.861115670E1,2.707842112E0,3.354276657E0,9.047688484E0
3.863124835E1,2.272097349E0,3.124433279E0,9.258378029E0
3.865133416E1,1.115697980E0,3.078943491E0,9.823410034E0
3.867142816E1,7.493851185E-1,3.193865061E0,1.034295177E1
3.869150731E1,8.499416113E-1,3.483563423E0,1.070447540E1
3.871159404E1,1.096544385E0,4.355052948E0,1.080263805E1
3.873166235E1,8.403648138E-1,4.697423935E0,1.010353088E1
3.875175273E1,6.200982332E-1,5.066130638E0,8.111555099E0
3.877182069E1,5.434837937E-1,5.111620426E0,7.187393665E0
3.879189762E1,1.795651317E-1,5.188235283E0,8.312667847E0
3.881197277E1,-2.322375625E-1,5.549759388E0,8.810662270E0
3.883205781E1,-2.729389966E-1,6.030993938E0,8.022970200E0
3.885214762E1,-2.585737705E-1,6.301538944E0,7.402871609E0
3.887223012E1,-5.410895944E-1,6.009446144E0,7.738059998E0
3.889231785E1,-1.127668977E0,5.679046631E0,8.212111473E0
3.891241369E1,-8.667010069E-1,5.159504890E0,7.496245384E0
3.893250189E1,-2.298433632E-1,4.683058739E0,6.315904140E0
3.895258981E1,-1.628057212E-1,4.582501888E0,5.418078423E0
3.897265196E1,-1.843535304E-1,4.450820923E0,5.746084213E0
3.899272342E1,-4.165911078E-1,3.495534420E0,8.422801971E0
3.901278608E1,6.943184882E-2,2.813186884E0,9.818621635E0
3.903285827E1,7.972691655E-1,2.722207308E0,9.837775230E0
3.905292931E1,1.266532660E0,2.971204281E0,9.236829758E0
3.907301338E1,8.762778044E-1,2.827552319E0,9.543288231E0
3.909311112E1,1.946485996E0,3.160346270E0,9.557653427E0
3.911318885E1,1.254561663E0,3.323152065E0,9.059659004E0
3.913328173E1,7.134721279E-1,3.995922565E0,8.808267593E0
3.915337254E1,-2.035071403E-1,4.946420670E0,8.422801971E0
3.917345281E1,-1.024718285E0,5.753266811E0,7.927201748E0
3.919353354E1,-9.433154464E-1,5.901707172E0,7.364564419E0
3.921361169E1,-2.777273953E-1,5.494692802E0,7.453149796E0
3.923370588E1,2.944868207E-1,5.099649429E0,7.584830761E0
3.925379581E1,-2.873042040E-2,5.066130638E0,8.456320763E0
3.927388462E1,-4.309563041E-1,5.044582844E0,9.706093788E0
3.929396546E1,-1.867477298E-1,4.934449673E0,1.021366405E1
3.931405062E1,-2.609679997E-1,4.606443882E0,1.029027843E1
3.933413654E1,-2.082955539E-1,4.043806553E0,1.073320580E1
3.935422292E1,1.364694983E-1,3.548206806E0,1.147301483E1
3.937428604E1,1.819593310E-1,3.148375273E0,1.126471901E1
3.939437808E1,-3.040636182E-1,3.160346270E0,1.103966427E1
3.941445888E1,-1.048660398E0,3.270479441E0,9.986215591E0
3.943453927E1,-1.702277422E0,3.260902643E0,9.244012833E0
3.945463658E1,-1.924938202E0,3.028665066E0,9.560047150E0
3.947473154E1,-1.833958507E0,2.461239338E0,9.780313492E0
3.949482681E1,-1.640028119E0,2.212242365E0,9.552865028E0
3.951490981E1,-2.221819162E0,2.106897593E0,9.287108421E0
3.953498869E1,-2.545036316E0,2.250549555E0,9.253589630E0
3.955508646E1,-2.470816135E0,2.363077164E0,9.064447403E0
3.957517515E1,-2.020706177E0,2.257732153E0,9.459490776E0
3.959526815E1,-2.319981337E0,2.284068346E0,1.026633644E1
3.961534685E1,-3.260902643E0,2.801215887E0,9.828198433E0
3.963544008E1,-4.185064793E0,3.725377798E0,7.067683220E0
3.965550331E1,-4.036623955E0,4.637568474E0,5.652710438E0
3.967557896E1,-4.048594952E0,5.403713226E0,6.454767704E0
3.969565473E1,-2.796427488E0,5.525817394E0,6.313509941E0
3.971574261E1,-9.744400978E-1,5.415684223E0,5.688623428E0
3.973581511E1,1.005564705E-1,5.509057999E0,5.336675644E0
3.975587623E1,2.657563984E-1,5.645527840E0,5.327098846E0
3.977594004E1,3.040636182E-1,5.571307182E0,5.987898350E0
3.979603211E1,9.433154464E-1,5.212177277E0,6.272808552E0
3.981611792E1,2.059013367E0,5.003881454E0,6.890512466E0
3.983620584E1,2.329558372E0,4.841075897E0,8.279149055E0
3.985628211E1,2.339135170E0,4.841075897E0,9.308655739E0
3.987636754E1,2.662352324E0,5.070919037E0,8.839392662E0
3.989647665E1,2.892195702E0,5.161899090E0,7.821856976E0
3.991658738E1,3.222595453E0,5.260061264E0,7.915230751E0
3.993666638E1,3.457227230E0,5.568912983E0,8.499416351E0
3.995675457E1,3.655946016E0,6.454767704E0,8.250418663E0
3.997684704E1,3.557783842E0,7.347805023E0,7.539340973E0
3.999692454E1,3.639186621E0,7.852981567E0,8.188169479E0
4.001699246E1,2.688688517E0,7.661445618E0,9.291896820E0
4.003706477E1,1.312022567E0,6.634333134E0,1.024239445E1
4.005712777E1,9.074024558E-1,5.698200226E0,1.126232433E1
4.007719630E1,1.072602391E0,5.073313236E0,1.100135708E1
4.009726265E1,1.077390790E0,4.836287498E0,1.092234802E1
4.011733969E1,1.058237195E0,4.733336926E0,1.107557678E1
4.013740938E1,1.058237195E0,4.266467571E0,1.168849277E1
4.015747723E1,1.096544385E0,3.813963413E0,1.140837097E1
4.017754400E1,7.781155705E-1,3.308786631E0,1.077390766E1
4.019763342E1,4.070143029E-2,2.949656487E0,1.046505547E1
4.021771800E1,-2.322375625E-1,2.382230759E0,1.030703831E1
4.023780104E1,2.873042040E-2,1.927332401E0,9.962273598E0
4.025789753E1,1.029506698E-1,1.793257117E0,9.361329079E0
4.027798819E1,-1.029506698E-1,1.989581585E0,8.657433510E0
4.029807638E1,-3.950432837E-1,2.284068346E0,7.920019150E0
4.031816357E1,-6.248866320E-1,2.535459518E0,7.077260017E0
4.033823280E1,-6.081272364E-1,2.801215887E0,5.992686749E0
4.035830773E1,-2.633621916E-2,2.978386879E0,4.958391666E0
4.037837480E1,3.878606856E-1,3.057395458E0,4.572925091E0
4.039843673E1,4.860229492E-1,3.172317266E0,4.718971729E0
4.041850523E1,4.046200812E-1,3.289633036E0,5.367800236E0
4.043857892E1,8.858546615E-2,3.584120035E0,6.409277916E0
4.045864496E1,-2.226607651E-1,3.976768970E0,7.601590633E0
4.047872142E1,-4.141969085E-1,4.070142746E0,8.485051155E0
4.049879773E1,3.782838583E-1,4.091690540E0,8.698134422E0
4.051888584E1,1.173158884E0,4.110844135E0,9.289502144E0
4.053897776E1,1.604115129E0,4.355052948E0,1.024957752E1
4.055908761E1,1.132457376E0,4.426878929E0,1.041238308E1
4.057919038E1,1.000776291E0,4.508281708E0,1.030464458E1
4.059928919E1,9.600749016E-1,4.079719543E0,1.040520096E1
4.061938361E1,4.285621047E-1,3.763684988E0,1.172201157E1
4.063948088E1,2.968810201E-1,3.957615376E0,1.217212105E1
4.065959492E1,-4.501099288E-1,3.878606796E0,1.186326981E1
4.067966696E1,-9.576806426E-2,3.541024208E0,1.101093388E1
4.069976153E1,2.873041928E-1,2.770091295E0,1.105642319E1
4.071984134E1,3.016694188E-1,2.269703150E0,1.086249352E1
4.073992026E1,-8.667010069E-1,2.396595955E0,1.111627865E1
4.076001307E1,-1.704671621E0,2.604891539E0,1.093910789E1
4.078009988E1,-2.018311977E0,2.686294317E0,1.025915432E1
4.080018680E1,-1.754949808E0,2.681505919E0,9.057265282E0
4.082027080E1,-1.403002143E0,2.652775526E0,8.054094315E0
4.084035215E1,-8.523358107E-1,2.700659513E0,7.216124058E0
4.086041757E1,-3.184288144E-1,2.779668093E0,6.517016888E0
4.088048080E1,4.788403399E-3,2.956839085E0,6.174646378E0
4.090054742E1,2.250549644E-1,3.268085241E0,6.193799973E0
4.092062138E1,6.943184882E-2,3.495534420E0,6.179434776E0
4.094069049E1,0.000000000E0,3.610456228E0,6.179434776E0
4.096075649E1,4.118026793E-1,3.574543238E0,6.579266071E0
4.098082072E1,9.864110947E-1,3.691859007E0,7.374141216E0
4.100091307E1,1.350329757E0,3.926490784E0,7.702147007E0
4.102098688E1,1.455674648E0,4.074931145E0,8.042123795E0
4.104106334E1,1.912967205E0,4.431667328E0,8.410830498E0
4.106114453E1,1.735796213E0,4.371812344E0,8.966285706E0
4.108123638E1,1.125274777E0,4.513070107E0,9.710882187E0
4.110134507E1,1.019929886E0,4.565742493E0,1.044829655E1
4.112143030E1,1.211466074E0,4.407725334E0,1.153286934E1
4.114149488E1,9.576807022E-1,3.981557369E0,1.227986050E1
4.116156422E1,4.405331016E-1,3.414131641E0,1.302445698E1
4.118162942E1,4.022258818E-1,3.066972494E0,1.409705925E1
4.120169145E1,1.795651317E-1,2.633621931E0,1.415930843E1
4.122175245E1,1.436521020E-2,2.571372509E0,1.352723980E1
4.124182453E1,4.548983276E-2,2.640804529E0,1.227986050E1
4.126188642E1,4.237737060E-1,2.535459518E0,1.108515358E1
4.128196030E1,9.433154464E-1,2.458845139E0,1.029746151E1
4.130203484E1,1.233013868E0,2.451662540E0,9.627084732E0
4.132211988E1,1.132457376E0,2.315192938E0,9.126696587E0
4.134221607E1,1.070208192E0,2.011129379E0,8.889671326E0
4.136230022E1,9.816226959E-1,1.680729628E0,8.762778282E0
4.138238072E1,1.163581967E0,1.501164436E0,8.243236542E0
4.140246861E1,1.259350061E0,1.553836942E0,7.520187378E0
4.142253257E1,1.225831270E0,1.798045516E0,6.763619900E0
4.144259526E1,1.017535686E0,2.114080191E0,6.177040577E0
4.146265545E1,7.517793179E-1,2.389413357E0,6.035782337E0
4.148272603E1,3.974374831E-1,2.633621931E0,6.299144745E0
4.150278749E1,1.675941199E-1,2.662352324E0,6.643909931E0
4.152285026E1,2.059013397E-1,2.755726099E0,6.550535679E0
4.154291299E1,-1.436521020E-2,2.868253708E0,6.591237068E0
4.156298376E1,-1.077390760E-1,3.043030262E0,7.268796444E0
4.158305953E1,-2.202665508E-1,3.217807055E0,7.917624950E0
4.160313407E1,-5.195417404E-1,3.134010077E0,8.233659744E0
4.162320845E1,-2.322375625E-1,3.521870613E0,8.437167168E0
4.164331126E1,-3.639186621E-1,3.459621429E0,8.693346024E0
4.166342418E1,-6.703764945E-2,3.541024208E0,9.289502144E0
4.168351172E1,-2.059013397E-1,3.655946016E0,9.780313492E0
4.170359780E1,-3.040636182E-1,3.720589399E0,1.034055710E1
4.172369299E1,-5.578489900E-1,3.811569214E0,1.100135708E1
4.174378714E1,-5.698199868E-1,3.761290789E0,1.161666679E1
4.176385557E1,-1.963245422E-1,3.466804028E0,1.212902546E1
4.178391526E1,1.604115069E-1,3.052607059E0,1.285207462E1
4.180398368E1,2.466027737E-1,2.849100113E0,1.311304283E1
4.182404718E1,5.027823523E-2,2.607285738E0,1.315135002E1
4.184411195E1,4.788403213E-2,2.224213362E0,1.318008041E1
4.186417853E1,1.771709323E-1,1.948880196E0,1.268926907E1
4.188425245E1,2.561795712E-1,1.857900500E0,1.163342571E1
4.190431980E1,8.140286058E-2,1.982398987E0,1.046745014E1
4.192440068E1,-1.508347094E-1,2.164358377E0,9.435548782E0
4.194447784E1,-6.033388376E-1,2.331952572E0,8.595184326E0
4.196456364E1,-1.101332784E0,2.463633537E0,8.159439087E0
4.198464568E1,-1.302445769E0,2.456450939E0,7.860164165E0
4.200472999E1,-1.376665950E0,2.327163935E0,7.738059998E0
4.202481364E1,-1.407790542E0,2.264914751E0,7.510610580E0
4.204491191E1,-1.285686255E0,2.382230759E0,7.184999466E0
4.206497834E1,-1.125274777E0,2.568978310E0,6.821080685E0
4.208504560E1,-7.445967197E-1,2.908955097E0,6.404489517E0
4.210511030E1,-3.399766386E-1,3.426102638E0,5.844246387E0
4.212518441E1,-1.340752989E-1,3.890577793E0,5.453991413E0
4.214525160E1,1.651999205E-1,4.304774761E0,5.087678432E0
4.216531757E1,3.064578176E-1,4.671087742E0,4.963180065E0
4.218537976E1,5.051765442E-1,4.730942726E0,5.434837818E0
4.220545341E1,1.244984865E0,4.659116745E0,6.313509941E0
