"Time (s)","Acceleration x (m/s^2)","Acceleration y (m/s^2)","Acceleration z (m/s^2)"
2.172411300E-2,-1.024950027E0,6.960000515E0,7.783950329E0
4.172411400E-2,-5.509500504E-1,6.790050507E0,8.200050354E0
6.251695600E-2,2.340000123E-1,6.547950268E0,8.622000694E0
8.330905100E-2,7.819500566E-1,6.274950504E0,8.715000153E0
1.040982440E-1,1.800000109E-2,7.210950375E0,8.911050797E0
1.248876370E-1,-8.430000544E-1,6.157950401E0,1.294605064E1
1.456772790E-1,-6.820500493E-1,7.645050526E0,8.296050072E0
1.664669340E-1,-1.723950028E0,5.988000393E0,8.657999992E0
1.872389530E-1,-1.480500102E-1,5.023050308E0,7.827000141E0
2.080109640E-1,5.205000192E-2,5.458950043E0,7.518000126E0
2.287889690E-1,9.000000358E-2,6.088050365E0,6.571950436E0
2.495669640E-1,-1.432050109E0,5.724000454E0,7.264050484E0
2.703519020E-1,-5.389500260E-1,5.815050125E0,6.486000538E0
2.911368250E-1,7.320000529E-1,5.410950184E0,6.084000111E0
3.119279600E-1,1.287000060E0,5.025000095E0,6.429000378E0
3.327190750E-1,1.402050018E0,5.080050468E0,6.406950474E0
3.535090300E-1,1.692000031E0,4.723050117E0,5.896950245E0
3.742989930E-1,1.912050128E0,4.390950203E0,6.820950508E0
3.950876500E-1,1.938000083E0,4.078950405E0,6.400050163E0
4.158763050E-1,1.680000067E0,4.099050045E0,5.952000141E0
4.366607700E-1,2.100000083E-1,5.746050358E0,5.998050213E0
4.574452330E-1,-2.869500220E-1,5.482050419E0,7.153950214E0
4.782375810E-1,-7.420500517E-1,5.298000336E0,8.002050400E0
4.990298860E-1,-1.420050025E0,5.686050415E0,9.826050758E0
5.198085060E-1,-1.936950088E0,5.623950481E0,8.044950485E0
5.405871310E-1,-8.500500321E-1,4.768950462E0,9.634050369E0
5.613738950E-1,-2.689050198E0,4.831050396E0,9.852000237E0
5.821606600E-1,-2.677050114E0,3.901950121E0,1.092300034E1
6.029517230E-1,-1.300050020E0,3.760950089E0,1.241895103E1
6.237428000E-1,-9.619500637E-1,3.568950176E0,1.262700081E1
6.445337210E-1,-7.660500407E-1,3.871050119E0,1.187100029E1
6.653246460E-1,-6.900000572E-1,3.595950127E0,1.164795017E1
6.861118550E-1,3.820500076E-1,3.237000227E0,1.193805027E1
7.068990500E-1,1.002000093E0,2.892000198E0,1.130595016E1
7.276886190E-1,1.078950047E0,2.269050121E0,1.017300034E1
7.484781560E-1,-1.960500032E-1,2.398950100E0,9.357000351E0
7.692584870E-1,-6.420000196E-1,2.344050169E0,8.755949974E0
7.900388380E-1,-1.804950118E0,2.425050020E0,7.990050316E0
8.108148090E-1,-2.100000143E0,2.743050098E0,7.707000256E0
8.315907700E-1,-1.458000064E0,2.530050039E0,8.128050804E0
8.523715590E-1,-1.650000095E0,2.961000204E0,8.409000397E0
8.731523280E-1,-1.587000132E0,2.608950138E0,8.418000221E0
8.939288300E-1,-2.245950222E0,3.138000250E0,8.160000801E0
9.147053330E-1,-2.269950151E0,3.376050234E0,7.518000126E0
9.354871820E-1,-2.542950153E0,3.933000088E0,7.956000328E0
9.562690250E-1,-2.350950003E0,4.575000286E0,8.512050629E0
9.770519660E-1,-1.944000125E0,5.040000439E0,8.965950012E0
9.978348910E-1,-2.707950115E0,5.356050491E0,9.211050034E0
1.018617621E0,-3.642000198E0,5.535000324E0,9.244050026E0
1.039400352E0,-4.113000393E0,6.058950424E0,8.884950638E0
1.060174178E0,-3.361950159E0,6.361050129E0,9.874050140E0
1.080948031E0,-2.775000095E0,6.547950268E0,1.055895042E1
1.101734676E0,-2.674050093E0,6.675000191E0,1.031205082E1
1.122521323E0,-2.866050243E0,7.048050404E0,9.180000305E0
1.143310845E0,-3.100950241E0,7.342950344E0,8.308050156E0
1.164100386E0,-2.851950169E0,7.326000214E0,9.309000015E0
1.184889613E0,-1.273950100E0,7.803000450E0,9.244050026E0
1.205678844E0,-8.830500245E-1,8.134950638E0,8.241000175E0
1.226450989E0,-1.960950136E0,8.005949974E0,6.711000443E0
1.247223152E0,-2.752950191E0,7.546050549E0,5.980950356E0
1.268008828E0,-2.920950174E0,6.823050499E0,6.619950294E0
1.288794473E0,-2.382000208E0,6.088050365E0,8.386950493E0
1.309578309E0,-2.811000109E0,5.698050499E0,8.610000610E0
1.330362160E0,-2.895000219E0,5.892000198E0,7.884000301E0
1.351147680E0,-2.830050230E0,6.571950436E0,6.742050171E0
1.371933219E0,-1.350000024E0,5.521050453E0,6.610050201E0
1.392722913E0,-1.233000040E0,5.941950321E0,6.405000210E0
1.413512604E0,-4.260000288E-1,5.719950199E0,6.318000317E0
1.434296623E0,7.304999977E-2,5.680950165E0,5.575950146E0
1.455080666E0,4.470000267E-1,5.626050472E0,4.831950188E0
1.475855579E0,1.810500026E-1,5.941950321E0,5.365050316E0
1.496630506E0,2.805000171E-2,6.093000412E0,5.716950417E0
1.517406315E0,2.029500157E-1,6.493050098E0,5.248050213E0
1.538182122E0,3.769500256E-1,6.706050396E0,4.252050400E0
1.558967810E0,4.249500334E-1,7.233000278E0,3.862050295E0
1.579753501E0,7.304999977E-2,7.711950302E0,4.281000137E0
1.600542000E0,-5.295000225E-2,7.969950199E0,5.097000122E0
1.621330501E0,2.505000122E-2,8.143050194E0,5.992950439E0
1.642115074E0,1.380000114E-1,8.164050102E0,6.448050499E0
1.662899655E0,1.279500127E-1,8.190000534E0,6.627000332E0
1.683687858E0,3.319500089E-1,8.266950607E0,6.598950386E0
1.704476049E0,4.279500246E-1,8.204999924E0,6.895050526E0
1.725264615E0,6.599999964E-2,8.233950615E0,7.128000259E0
1.746053194E0,-3.060000241E-1,8.562000275E0,7.381050587E0
1.766841658E0,4.399500191E-1,8.353050232E0,7.450950146E0
1.787630121E0,7.270500064E-1,8.482950211E0,7.245000362E0
1.808416887E0,1.198950052E0,7.825950146E0,7.228050232E0
1.829203660E0,1.237050056E0,6.913950443E0,7.089000225E0
1.849989035E0,1.045050025E0,6.150000095E0,7.195050240E0
1.870774420E0,5.590500236E-1,6.103050232E0,7.278000355E0
1.891559173E0,-1.650000066E-1,6.354000092E0,7.369050503E0
1.912343944E0,-5.029500127E-1,6.304050446E0,7.099050522E0
1.933132908E0,-5.080500245E-1,6.411000252E0,7.021950245E0
1.953921867E0,-1.170000061E-1,6.406950474E0,7.156050205E0
1.974711263E0,3.559500277E-1,6.519000530E0,6.886050224E0
1.995500650E0,3.960000277E-1,6.688950539E0,6.666000366E0
2.016287372E0,4.905000329E-2,6.723000526E0,6.394950390E0
2.037074107E0,-4.090500176E-1,6.780000210E0,6.037950516E0
2.057857067E0,-7.009500265E-1,6.865950108E0,5.626050472E0
2.078640030E0,-9.550500512E-1,7.221000195E0,5.398950100E0
2.099431065E0,-8.710500598E-1,7.318950176E0,5.470950127E0
2.120222102E0,-5.910000205E-1,7.351950169E0,5.389050484E0
2.141010258E0,-2.299500108E-1,7.438950539E0,5.758050442E0
2.161798415E0,-7.300500274E-1,7.888950348E0,6.217950344E0
2.182582721E0,-8.479500413E-1,7.647000313E0,6.991050243E0
2.203367030E0,-8.260500431E-1,7.237050533E0,7.566000462E0
2.224155063E0,-1.270950079E0,7.822050571E0,8.049000740E0
2.244943102E0,-1.168050051E0,7.537050247E0,8.491950035E0
2.265729899E0,-1.654050112E0,7.603950500E0,8.665050507E0
2.286516670E0,-1.915050149E0,7.804950237E0,9.016950607E0
2.307306671E0,-1.683000088E0,7.957950592E0,9.103050232E0
2.328096670E0,-1.207050085E0,8.197950363E0,9.414000511E0
2.348876817E0,1.305000018E-2,7.825950146E0,9.463950157E0
2.369656978E0,7.459500432E-1,7.438950539E0,9.049950600E0
2.390430480E0,4.300500154E-1,7.114950180E0,8.557050705E0
2.411204021E0,-1.890000105E-1,6.667950153E0,8.167050362E0
2.431993732E0,-7.300500274E-1,6.483000278E0,7.501050472E0
2.452783415E0,-1.081950068E0,6.607950211E0,6.864000320E0
2.473573580E0,-8.119500279E-1,6.730050087E0,6.133950233E0
2.494363737E0,-4.330500066E-1,6.852000237E0,5.586000443E0
2.515137733E0,7.095000148E-2,6.772950172E0,5.035050392E0
2.535911742E0,3.870000243E-1,6.670050144E0,4.863000393E0
2.556686168E0,2.820000052E-1,6.715950489E0,5.191050053E0
2.577460589E0,3.299999982E-2,6.610050201E0,5.344050407E0
2.598250589E0,1.360500008E-1,6.490050316E0,5.466000080E0
2.619040584E0,-2.939999998E-1,7.027050495E0,5.622000217E0
2.639825386E0,-2.539499998E-1,7.132050514E0,5.908950329E0
2.660610199E0,-2.370000184E-1,7.306950569E0,6.261000156E0
2.681390620E0,7.304999977E-2,7.539000511E0,6.787950516E0
2.702171045E0,3.769500256E-1,7.561050415E0,7.300050259E0
2.722956317E0,6.070500016E-1,7.390950203E0,7.563000202E0
2.743741584E0,4.830000103E-1,7.455000401E0,7.663950443E0
2.764527082E0,3.889500201E-1,7.551000595E0,7.765050411E0
2.785312583E0,4.350000322E-1,7.507950306E0,7.747950554E0
2.806097200E0,6.720000505E-1,7.233000278E0,7.755000591E0
2.826881819E0,4.519500136E-1,7.216050148E0,7.815000534E0
2.847666445E0,8.920500278E-1,7.197000504E0,7.702050209E0
2.868451098E0,1.681950092E0,7.126950264E0,7.549050331E0
2.889239670E0,2.359950066E0,6.889950275E0,7.302000523E0
2.910028247E0,2.178000212E0,6.595950127E0,7.204050541E0
2.930818746E0,1.476000071E0,6.427950382E0,7.306950569E0
2.951609247E0,6.930000186E-1,6.403950214E0,7.381050587E0
2.972394339E0,-1.560000032E-1,6.631950378E0,7.258950233E0
2.993179420E0,-5.790000558E-1,6.973950386E0,7.252050400E0
3.013952323E0,-1.960500032E-1,7.318950176E0,7.372050285E0
3.034725252E0,5.899500251E-1,7.426950455E0,7.336050510E0
3.055499349E0,1.036050081E0,7.372050285E0,7.116000175E0
3.076273464E0,9.690000415E-1,7.258950233E0,6.939000130E0
3.097063370E0,7.480500340E-1,7.117950439E0,6.685050488E0
3.117853247E0,2.959500253E-1,7.137000561E0,6.349950314E0
3.138641714E0,-1.990500093E-1,7.342950344E0,6.346950531E0
3.159430179E0,-4.290000200E-1,7.447950363E0,6.417000294E0
3.180214757E0,-4.140000343E-1,7.680000305E0,6.354000092E0
3.200999338E0,-7.905000448E-2,7.723950386E0,6.342000484E0
3.221783036E0,9.000000544E-3,7.848000526E0,6.235050201E0
3.242566729E0,-1.099500060E-1,8.029950142E0,5.932950497E0
3.263350147E0,-3.780000210E-1,8.266950607E0,5.895000458E0
3.284133570E0,-5.749500394E-1,8.338950157E0,6.469050407E0
3.304916776E0,-7.300500274E-1,8.334000587E0,7.408050537E0
3.325699969E0,-9.889500737E-1,8.334000587E0,8.227050781E0
3.346484892E0,-1.324050069E0,8.664000511E0,8.473050117E0
3.367269815E0,-1.306950092E0,8.953950882E0,7.978050232E0
3.388050917E0,-9.499500394E-1,9.210000038E0,7.329000473E0
3.408832036E0,-1.750500053E-1,8.751000404E0,6.864000320E0
3.429612311E0,3.820500076E-1,7.993950367E0,6.835950375E0
3.450392580E0,4.830000103E-1,7.204050541E0,7.177950382E0
3.471173393E0,5.520000458E-1,6.679950237E0,7.147050381E0
3.491954200E0,5.209500194E-1,6.574050426E0,6.550950527E0
3.512739272E0,2.500500083E-1,6.672000408E0,5.800950050E0
3.533524349E0,9.495000541E-2,6.648000240E0,5.547000408E0
3.554308809E0,3.750000298E-1,6.643950462E0,5.512050152E0
3.575093272E0,6.720000505E-1,6.421050072E0,5.545050144E0
3.595879276E0,9.330000281E-1,6.184050083E0,5.623950481E0
3.616665277E0,1.105050087E0,5.904000282E0,5.446950436E0
3.637451279E0,7.270500064E-1,5.977950096E0,5.023050308E0
3.658237282E0,-4.950000439E-3,6.186000347E0,5.101950169E0
3.679022616E0,-2.419500053E-1,6.409050465E0,5.317950249E0
3.699807965E0,-3.109500110E-1,6.634050369E0,5.566950321E0
3.720595860E0,-2.370000184E-1,7.111050129E0,5.622000217E0
3.741383743E0,-1.459500045E-1,7.573050499E0,5.947050095E0
3.762164171E0,6.105000153E-2,7.494000435E0,6.316050529E0
3.782944600E0,-9.795000404E-2,7.707000256E0,6.690000534E0
3.803720795E0,-1.695000008E-2,7.864950180E0,6.939000130E0
3.824496988E0,-1.050000042E-1,8.097000122E0,7.089000225E0
3.845283308E0,-3.900000155E-1,8.407950401E0,7.149000168E0
3.866069609E0,-6.610500216E-1,8.959050179E0,7.341000557E0
3.886855440E0,-3.810000122E-1,9.082950592E0,7.357950211E0
3.907641291E0,1.210500076E-1,8.905950546E0,7.297950268E0
3.928421856E0,1.249050021E0,8.314949989E0,7.816950321E0
3.949202435E0,2.410050154E0,7.144050121E0,9.000000000E0
3.969986499E0,2.685000181E0,5.904000282E0,1.020405006E1
3.990770652E0,2.281050205E0,4.975050449E0,1.029105091E1
4.011552225E0,9.690000415E-1,5.344050407E0,9.759000778E0
4.032333806E0,1.519500017E-1,5.925000191E0,8.566950798E0
4.053114727E0,3.510000110E-1,5.965950489E0,7.111050129E0
4.073895652E0,8.560500145E-1,6.024000168E0,6.180000305E0
4.094679037E0,1.162950039E0,6.196050167E0,5.998050213E0
4.115462420E0,1.158000112E0,6.079050064E0,6.298950195E0
4.136247769E0,1.074000001E0,5.911050320E0,6.201000214E0
4.157033118E0,3.919500113E-1,5.928000450E0,5.883000374E0
4.177815711E0,-3.499500155E-1,6.166950226E0,5.755950451E0
4.198598330E0,-6.850500107E-1,6.373050213E0,5.743950367E0
4.219381273E0,-6.490500569E-1,6.534000397E0,5.670000076E0
4.240164234E0,-2.370000184E-1,7.065000534E0,5.844000340E0
4.260951113E0,-4.995000362E-2,6.739050388E0,5.803950310E0
4.281737998E0,-4.090500176E-1,6.835050106E0,6.565050125E0
4.302510925E0,-5.530500412E-1,6.880950451E0,7.141950130E0
4.323283858E0,-9.859500527E-1,7.158000469E0,7.575000286E0
4.344073273E0,-1.008000016E0,7.558050156E0,8.008950233E0
4.364862686E0,-6.900000572E-1,7.731000423E0,7.860000610E0
4.385652781E0,-5.310000181E-1,8.049000740E0,7.894050598E0
4.406442902E0,-5.629500151E-1,8.332050323E0,7.747950554E0
4.427225860E0,-9.480000734E-1,8.344050407E0,7.981950283E0
4.448008825E0,-1.530000091E0,8.550000191E0,8.428050041E0
4.468785702E0,-1.446000099E0,8.443950653E0,8.595000267E0
4.489562589E0,-6.300000548E-1,7.860000610E0,8.988000870E0
4.510353719E0,4.129500091E-1,6.778050423E0,9.105000496E0
4.531144830E0,5.640000105E-1,6.088050365E0,9.594000816E0
4.551926105E0,4.710000157E-1,5.655000210E0,9.382950783E0
4.572707306E0,1.605000161E-2,5.667000294E0,8.593050003E0
4.593491813E0,-3.570000231E-1,5.595000267E0,7.851000309E0
4.614276310E0,-1.012950063E0,5.575950146E0,6.655950546E0
4.635060426E0,-1.080000043E0,5.848950386E0,6.898050308E0
4.655844545E0,-2.230500132E-1,5.356050491E0,7.312050343E0
4.676628256E0,4.369500279E-1,5.008050442E0,7.105950356E0
4.697411949E0,7.304999977E-2,5.611950397E0,7.336050510E0
4.718196445E0,6.340500116E-1,5.293050289E0,6.840000153E0
4.738980944E0,7.099500299E-1,5.217000484E0,6.450000286E0
4.759767125E0,2.500500083E-1,5.362950325E0,6.433050156E0
4.780553280E0,-1.750500053E-1,5.497050285E0,6.369000435E0
4.801340216E0,-5.700000376E-2,5.671950340E0,6.439950466E0
4.822127141E0,1.469999999E-1,6.067050457E0,6.499950409E0
4.842911753E0,8.505000174E-2,6.426000118E0,6.603000164E0
4.863696372E0,-2.595000155E-2,6.675000191E0,6.627000332E0
4.884481088E0,-2.205000073E-2,7.015050411E0,7.147050381E0
4.905265819E0,2.359500080E-1,7.089000225E0,7.851000309E0
4.926044623E0,7.480500340E-1,7.044000149E0,8.428050041E0
4.946823434E0,6.690000296E-1,7.218000412E0,7.705050468E0
4.967605743E0,-2.869500220E-1,7.453050137E0,7.899000168E0
4.988388050E0,-7.399500608E-1,7.969950199E0,7.365000248E0
5.009170774E0,-1.005000062E-2,7.888950348E0,7.585050583E0
5.029953507E0,3.490500152E-1,7.731000423E0,8.071050644E0
5.050734123E0,6.619500518E-1,7.680000305E0,8.725049973E0
5.071514742E0,1.675050020E0,6.583950520E0,9.754050255E0
5.092297507E0,1.978950143E0,6.306000233E0,1.136100101E1
5.113080276E0,1.945950150E0,5.086950302E0,1.166505051E1
5.133864473E0,1.491000056E0,4.546050072E0,1.147095013E1
5.154648666E0,5.400000215E-1,4.939050198E0,1.012995052E1
5.175434483E0,2.700000107E-1,5.169000149E0,8.104949951E0
5.196220290E0,2.939999998E-1,5.422950268E0,6.496050358E0
5.217005221E0,5.020500422E-1,5.560950279E0,5.902050495E0
5.237790146E0,8.320500255E-1,5.535000324E0,6.238950253E0
5.258575570E0,7.290000319E-1,5.499000072E0,6.874050140E0
5.279360993E0,3.340500295E-1,5.301000118E0,7.041000366E0
5.300146191E0,-2.539499998E-1,5.140050411E0,6.718050480E0
5.320931386E0,-5.119500160E-1,5.242950439E0,6.175050259E0
5.341717559E0,-8.310000300E-1,5.631000042E0,5.772000313E0
5.362503752E0,-1.201950073E0,5.908950329E0,5.727000237E0
5.383289131E0,-1.123050094E0,6.358950138E0,6.040950298E0
5.404074516E0,-9.580500722E-1,6.864000320E0,6.748950481E0
5.424862671E0,-8.239500523E-1,7.281000137E0,7.192050457E0
5.445650824E0,-6.370500326E-1,7.495950222E0,7.623000145E0
5.466438364E0,-8.790000677E-1,7.680000305E0,7.956000328E0
5.487225905E0,-1.519950032E0,7.755000591E0,8.605050087E0
5.508016667E0,-1.956000090E0,7.743000507E0,9.472050667E0
5.528807396E0,-1.899000049E0,7.791000366E0,1.021095085E1
5.549598620E0,-1.944000125E0,8.053950310E0,1.011795044E1
5.570389853E0,-2.221950054E0,8.546999931E0,9.369000435E0
5.591171251E0,-2.016000032E0,8.571000099E0,8.551950455E0
5.611952642E0,-1.863000035E0,8.110950470E0,8.251049995E0
5.632743429E0,-1.587000132E0,7.285050392E0,8.137949944E0
5.653534194E0,-1.413000107E0,6.703950405E0,7.858050346E0
5.674322086E0,-8.520000577E-1,6.366000175E0,7.537050247E0
5.695109973E0,-3.160500228E-1,6.184050083E0,7.477050304E0
5.715887644E0,4.005000368E-2,5.854050159E0,7.369050503E0
5.736665343E0,-2.059500068E-1,5.799000263E0,6.814050198E0
5.757451790E0,-2.869500220E-1,5.631000042E0,6.565050125E0
5.778238247E0,-1.510500014E-1,5.554050446E0,6.814050198E0
5.799024997E0,1.189500093E-1,5.310000420E0,7.209000111E0
5.819811728E0,2.910000086E-1,5.233050346E0,7.008000374E0
5.840597710E0,4.710000157E-1,5.248050213E0,6.697050095E0
5.861383713E0,5.950500369E-1,5.269050121E0,5.965950489E0
5.882168361E0,5.089499950E-1,5.571000099E0,5.185950279E0
5.902953016E0,1.429500133E-1,5.800950050E0,4.792950153E0
5.923735610E0,-3.400500119E-1,6.202950478E0,4.690050125E0
5.944518189E0,-4.120500088E-1,6.579000473E0,5.017950058E0
5.965299716E0,-1.920000017E-1,6.814050198E0,5.944950104E0
5.986081257E0,2.190000117E-1,7.015050411E0,6.784950256E0
6.006866649E0,5.110500455E-1,7.290000439E0,7.281000137E0
6.027652030E0,2.910000086E-1,7.407000542E0,7.198950291E0
6.048435070E0,-2.749500275E-1,7.692000389E0,6.679950237E0
6.069218151E0,-2.130000144E-1,7.822050571E0,6.421050072E0
6.089997267E0,-1.920000017E-1,8.065950394E0,6.607950211E0
6.110776386E0,9.000000358E-2,7.987050533E0,7.027050495E0
6.131563011E0,-4.950000439E-3,7.932000160E0,7.930050373E0
6.152349622E0,4.639500082E-1,7.438950539E0,8.277000427E0
6.173130212E0,1.980000138E-1,7.326000214E0,7.755000591E0
6.193910833E0,9.810000658E-1,7.008000374E0,7.956000328E0
6.214692320E0,2.311950207E0,6.270000458E0,9.115050316E0
6.235473819E0,2.661000013E0,5.571000099E0,9.960000038E0
6.256260775E0,2.383949995E0,4.846050262E0,1.042905045E1
6.277047698E0,1.876050115E0,4.234950066E0,1.044405079E1
6.297827862E0,1.014000058E0,4.144050121E0,9.723000526E0
6.318608021E0,7.840500474E-1,4.348050117E0,8.767950058E0
6.339394834E0,1.021050096E0,4.708950043E0,7.822050571E0
6.360181637E0,1.159950018E0,5.080050468E0,7.294950485E0
6.380965436E0,1.237050056E0,5.326950073E0,7.341000557E0
6.401749247E0,9.739500284E-1,5.341050148E0,7.675950527E0
6.422527407E0,6.220500469E-1,5.547000408E0,7.723950386E0
6.443305564E0,3.700500131E-1,5.575950146E0,7.219050407E0
6.464086848E0,4.110000134E-1,5.836950302E0,7.111050129E0
6.484868117E0,5.950500369E-1,5.944950104E0,7.009950161E0
6.505645802E0,4.609500170E-1,6.210000515E0,6.615000248E0
6.526423497E0,2.100000158E-2,6.274950504E0,6.618000507E0
6.547210402E0,9.705000371E-2,6.511950493E0,6.891000271E0
6.567997281E0,-2.230500132E-1,6.438000202E0,7.036950111E0
6.588777130E0,-3.469500244E-1,6.534000397E0,7.594950199E0
6.609556983E0,-3.040500283E-1,6.517050266E0,8.157000542E0
6.630339758E0,-3.280500174E-1,6.604950428E0,8.899050713E0
6.651122525E0,-4.909500182E-1,6.784950256E0,9.369000435E0
6.671895906E0,-4.500000179E-1,6.888000488E0,9.763950348E0
6.692669295E0,-3.040500283E-1,7.005000114E0,1.006095028E1
6.713447943E0,-7.039500475E-1,7.369050503E0,9.823950768E0
6.734226594E0,-9.070500135E-1,7.501050472E0,9.555000305E0
6.755008860E0,-1.009500027E-1,7.350000381E0,9.823950768E0
6.775791131E0,9.850500226E-1,6.715950489E0,1.081200027E1
6.796571273E0,1.440000057E0,5.667000294E0,1.129095078E1
6.817351430E0,7.960500121E-1,5.149950027E0,1.073100090E1
6.838132324E0,-6.900000572E-2,4.864950180E0,9.778050423E0
6.858913247E0,-4.519500136E-1,4.696950436E0,8.770050049E0
6.879698328E0,-5.170500278E-1,4.600950241E0,7.990050316E0
6.900483405E0,-4.669500291E-1,4.680000305E0,7.542000294E0
6.921272636E0,-2.869500220E-1,4.762050152E0,7.216050148E0
6.942061867E0,1.549500078E-1,4.852950096E0,7.237950325E0
6.962847401E0,7.050000429E-1,4.957950115E0,7.222950459E0
6.983632944E0,1.096050024E0,5.134950161E0,6.757050514E0
7.004415718E0,1.371000051E0,5.212050438E0,6.502950191E0
7.025198487E0,1.129050016E0,5.485050201E0,6.201000214E0
7.045982978E0,7.890000343E-1,5.719950199E0,5.988000393E0
7.066767477E0,6.360000372E-1,5.989950180E0,5.977950096E0
7.087555174E0,5.620500445E-1,6.388050079E0,5.977950096E0
7.108342867E0,4.849500358E-1,6.712950230E0,6.402000427E0
7.129129160E0,5.449500084E-1,6.742050171E0,6.712950230E0
7.149915469E0,3.460500240E-1,6.981000423E0,6.997950554E0
7.170705872E0,4.039500058E-1,6.984000206E0,7.321950436E0
7.191496295E0,5.020500422E-1,7.129950523E0,7.314000130E0
7.212283104E0,4.200000167E-1,7.186950207E0,7.402950287E0
7.233069915E0,2.910000086E-1,7.285050392E0,7.504050255E0
7.253856077E0,3.679500222E-1,7.507950306E0,7.639950275E0
7.274642232E0,4.759500325E-1,7.663950443E0,7.687950134E0
7.295429929E0,5.110500455E-1,8.041950226E0,7.590000153E0
7.316217622E0,1.194000006E0,8.152050018E0,7.165950298E0
7.336993615E0,2.592000008E0,8.032050133E0,7.246950150E0
7.357769622E0,3.555000067E0,7.363950253E0,8.611950874E0
7.378547157E0,3.415950060E0,6.246000290E0,9.637050629E0
7.399324694E0,2.355000019E0,5.550000191E0,9.582000732E0
7.420094633E0,1.117050052E0,5.521050453E0,8.617050171E0
7.440864598E0,3.130500019E-1,5.755050182E0,7.651950359E0
7.461641240E0,1.549500078E-1,6.001950264E0,7.128000259E0
7.482417891E0,6.360000372E-1,6.021000385E0,6.736950397E0
7.503201410E0,1.096050024E0,6.160050392E0,6.565050125E0
7.523984949E0,1.360950112E0,6.129000187E0,6.651000500E0
7.544768948E0,1.198950052E0,6.037950516E0,6.514950275E0
7.565552949E0,7.129500508E-1,5.968950272E0,6.021000385E0
7.586338597E0,2.029500157E-1,5.985000134E0,5.679000378E0
7.607124252E0,-1.750500053E-1,6.073950291E0,5.619000435E0
7.627905334E0,-2.269500047E-1,6.237000465E0,5.851950169E0
7.648686415E0,-2.659500241E-1,6.567000389E0,6.043050289E0
7.669469223E0,-1.840500087E-1,6.775050163E0,6.361050129E0
7.690252030E0,-1.990500093E-1,7.174950123E0,6.598950386E0
7.711032013E0,-4.500000179E-2,7.426950455E0,6.637050152E0
7.731812016E0,-1.905000024E-2,7.711950302E0,6.775950432E0
7.752596609E0,-1.200000048E-1,7.957950592E0,7.188000202E0
7.773381184E0,-2.680500150E-1,8.226000786E0,7.627950191E0
7.794171366E0,-3.105000220E-2,8.380050659E0,8.181000710E0
7.814961559E0,-1.695000008E-2,8.518050194E0,8.562000275E0
7.835740011E0,-2.989500165E-1,8.878050804E0,8.599950790E0
7.856518478E0,-2.779500186E-1,9.198000908E0,8.101950645E0
7.877304917E0,-2.629500031E-1,9.145950317E0,7.732950211E0
7.898091376E0,-2.250000089E-1,8.695950508E0,8.488050461E0
7.918877355E0,1.500000060E-1,7.630050182E0,9.574950218E0
7.939663358E0,3.769500256E-1,6.672000408E0,9.879000664E0
7.960446819E0,2.290500104E-1,6.177000523E0,9.108000755E0
7.981230320E0,1.240500063E-1,6.019050121E0,8.028000832E0
8.002015271E0,-1.650000066E-1,6.016050339E0,6.850050449E0
8.022800194E0,-4.980000257E-1,6.019050121E0,5.911050320E0
8.043586073E0,-7.759500146E-1,6.052050114E0,5.473050117E0
8.064371958E0,-5.530500412E-1,5.881950378E0,5.326950073E0
8.085156268E0,-6.000000238E-2,5.940000057E0,5.350950241E0
8.105940579E0,7.050000429E-1,5.863050461E0,5.679000378E0
8.126724892E0,1.122000098E0,5.743050098E0,6.001950264E0
8.147509199E0,1.153050065E0,5.650050163E0,6.393000126E0
8.168297185E0,8.010000587E-1,5.770050049E0,6.180000305E0
8.189085184E0,4.200000167E-1,6.001950264E0,5.491950035E0
8.209870062E0,2.119500041E-1,6.325050354E0,5.305950165E0
8.230654949E0,7.304999977E-2,6.699000359E0,5.380050182E0
8.251440689E0,4.180500209E-1,7.027050495E0,5.269950390E0
8.272226420E0,5.640000105E-1,7.314000130E0,5.125950336E0
8.293012087E0,7.459500432E-1,7.522050381E0,4.942050457E0
8.313797742E0,7.560000420E-1,7.675950527E0,5.119050026E0
8.334581617E0,6.960000396E-1,7.840950489E0,5.443950176E0
8.355365502E0,5.260500312E-1,7.891050339E0,5.686050415E0
8.376152888E0,3.000000119E-2,7.900950432E0,6.076950073E0
8.396940271E0,-3.210000098E-1,7.885950565E0,6.910050392E0
8.417725320E0,-5.119500160E-1,7.941000462E0,8.143050194E0
8.438510363E0,7.304999977E-2,8.071050644E0,8.212050438E0
8.459299466E0,1.117050052E0,8.140049934E0,8.386950493E0
8.480088541E0,2.178000212E0,7.848000526E0,9.192000389E0
8.500878086E0,2.463000059E0,7.135050297E0,1.085100079E1
8.521667627E0,2.125050068E0,5.985000134E0,1.243605042E1
8.542454443E0,1.246050000E0,5.170950413E0,1.300305080E1
8.563241252E0,5.380499959E-1,4.768950462E0,1.235895061E1
8.584033114E0,6.670500040E-1,4.861950397E0,1.079595089E1
8.604824921E0,1.210950017E0,5.164050102E0,9.052950859E0
8.625608818E0,1.752000093E0,5.470950127E0,7.759950161E0
8.646392709E0,1.843050122E0,5.551950455E0,6.804000378E0
8.667180085E0,1.251000047E0,5.593050480E0,5.860950470E0
8.687967468E0,5.449500084E-1,5.473050117E0,5.056950092E0
8.708753002E0,1.740000099E-1,5.596950054E0,4.537050247E0
8.729538545E0,-1.510500014E-1,5.932950497E0,4.297950268E0
8.750315465E0,-9.105000645E-2,6.214950085E0,4.393050194E0
8.771092392E0,-1.170000061E-1,6.595950127E0,4.720950127E0
8.791877781E0,-6.150000095E-1,6.790050507E0,4.882050037E0
8.812663122E0,-1.204050064E0,7.021950245E0,4.918050289E0
8.833445100E0,-1.486950040E0,7.345050335E0,5.325000286E0
8.854227103E0,-1.767000079E0,7.609050274E0,5.880000114E0
8.875013601E0,-2.188050032E0,7.968000412E0,6.687000275E0
8.895800098E0,-2.530950069E0,8.206950188E0,7.489050388E0
8.916582864E0,-2.682000160E0,8.497050285E0,8.348999977E0
8.937365637E0,-2.691000223E0,8.703000069E0,9.508050919E0
8.958154371E0,-2.301000118E0,8.683950424E0,1.048200035E1
8.978943098E0,-1.827000141E0,8.763000488E0,1.081995010E1
8.999728464E0,-1.393050075E0,8.917950630E0,1.053000069E1
9.020513853E0,-1.326000094E0,9.164999962E0,9.153000832E0
9.041288621E0,-1.246950030E0,9.310950279E0,7.638000488E0
9.062063396E0,-1.258950114E0,8.992950439E0,6.876000404E0
9.082852468E0,-1.573050022E0,8.461050034E0,6.802050114E0
9.103641537E0,-1.639950037E0,7.714050293E0,7.207050323E0
9.124426043E0,-1.414950013E0,7.168050289E0,7.614000320E0
9.145210550E0,-1.183050036E0,6.706050396E0,7.768950462E0
9.165996628E0,-1.233000040E0,6.378000259E0,7.177950382E0
9.186782743E0,-1.137000084E0,6.289050102E0,6.306000233E0
9.207565384E0,-8.670000434E-1,6.334950447E0,5.571000099E0
9.228348041E0,-4.000500143E-1,6.346950531E0,5.799000263E0
9.249136213E0,5.700000376E-2,6.058950424E0,6.438000202E0
9.269924364E0,1.605000161E-2,5.968950272E0,6.412050247E0
9.290708363E0,1.830000132E-1,5.929950237E0,5.713050365E0
9.311492368E0,1.500000060E-1,5.925000191E0,4.992000103E0
9.332279303E0,-1.890000105E-1,6.040050507E0,4.410000324E0
9.353066224E0,-3.420000076E-1,6.258000374E0,4.563000202E0
9.373850665E0,-2.820000052E-1,6.364050388E0,4.831950188E0
9.394635128E0,-3.900000155E-1,6.639000416E0,5.047050476E0
9.415420322E0,-3.180000186E-1,6.790050507E0,5.274000168E0
9.436205517E0,-5.295000225E-2,7.008000374E0,5.610000134E0
9.456988170E0,1.095000096E-2,7.218000412E0,6.499950409E0
9.477770825E0,-3.760500252E-1,7.132050514E0,6.844950199E0
9.498557418E0,-9.390000701E-1,7.246950150E0,6.760950089E0
9.519343993E0,-1.141950011E0,7.384050369E0,6.685050488E0
9.540129971E0,-1.048950076E0,7.692000389E0,6.550950527E0
9.560915974E0,-7.590000629E-1,7.963050365E0,6.663000107E0
9.581688911E0,-4.840500355E-1,8.274000168E0,6.775950432E0
9.602461878E0,1.980000138E-1,8.329050064E0,6.973950386E0
9.623231664E0,9.379500151E-1,8.395950317E0,7.228050232E0
9.644001473E0,1.474050045E0,8.089950562E0,7.920000553E0
9.664780281E0,1.840050101E0,7.240050316E0,8.847000122E0
9.685559084E0,1.684950113E0,6.406950474E0,9.855000496E0
9.706342578E0,1.357050061E0,5.571000099E0,1.048200035E1
9.727126079E0,6.960000396E-1,5.245050430E0,1.007505035E1
9.747911624E0,1.830000132E-1,5.302950382E0,8.788949966E0
9.768697165E0,2.620500028E-1,5.515950203E0,7.405050278E0
9.789484566E0,7.390500307E-1,5.776950359E0,6.049950123E0
9.810271949E0,8.269500136E-1,6.208050251E0,5.101950169E0
9.831061638E0,7.050000429E-1,6.462000370E0,4.702050209E0
9.851851333E0,5.160000324E-1,6.559950352E0,4.695000172E0
9.872636601E0,3.150000274E-1,6.483000278E0,5.182950020E0
9.893421834E0,-7.905000448E-2,6.364050388E0,5.728950500E0
9.914204759E0,-4.020000100E-1,6.322950363E0,5.875050068E0
9.934987684E0,-7.210500240E-1,6.507000446E0,5.674050331E0
9.955763882E0,-8.310000300E-1,6.760950089E0,6.057000160E0
9.976540079E0,-6.319500208E-1,7.090950489E0,6.699000359E0
9.997329471E0,-4.930500090E-1,7.194000244E0,7.566000462E0
1.001811885E1,-2.730000019E-1,7.213950157E0,8.184000015E0
1.003889975E1,-2.269500047E-1,7.185000420E0,8.734050751E0
1.005968068E1,-3.760500252E-1,7.137000561E0,8.899050713E0
1.008046433E1,-8.500500321E-1,7.225950241E0,9.081000328E0
1.010124798E1,-1.306950092E0,7.302000523E0,9.313950539E0
1.012202739E1,-1.611000061E0,7.318950176E0,9.709050179E0
1.014280678E1,-1.777050138E0,7.474950314E0,1.003200054E1
1.016358300E1,-1.774050117E0,7.714050293E0,1.024500084E1
1.018435916E1,-1.671000123E0,7.858050346E0,1.034100056E1
1.020514045E1,-1.357950091E0,7.695000172E0,1.065705013E1
1.022592171E1,-9.580500722E-1,7.294950485E0,1.091505051E1
1.024670296E1,-8.569500446E-1,6.828000546E0,1.071405029E1
1.026748419E1,-8.209500313E-1,6.427950382E0,1.043895054E1
1.028826708E1,-7.950000167E-1,5.997000217E0,1.027395058E1
1.030904996E1,-8.089500666E-1,5.668950081E0,9.622950554E0
1.032983627E1,-6.870000362E-1,5.490000248E0,8.631000519E0
1.035062257E1,-3.040500283E-1,5.346000195E0,7.480050564E0
1.037140409E1,8.805000782E-2,5.170950413E0,6.943050385E0
1.039218564E1,3.060000241E-1,5.016000271E0,6.613050461E0
1.041296769E1,6.259500384E-1,4.861950397E0,6.127050400E0
1.043374973E1,6.720000505E-1,4.836000443E0,5.598000050E0
1.045452876E1,7.170000076E-1,4.779000282E0,5.035050392E0
1.047530780E1,4.780500233E-1,4.969950199E0,5.023050308E0
1.049608612E1,4.920000136E-1,5.242950439E0,5.362950325E0
1.051686443E1,3.460500240E-1,5.800950050E0,5.587950230E0
1.053764399E1,4.830000103E-1,6.238950253E0,5.863050461E0
1.055842356E1,5.620500445E-1,6.682050228E0,6.345000267E0
1.057920126E1,7.560000420E-1,7.111050129E0,6.699000359E0
1.059997895E1,1.006950021E0,7.479000568E0,6.843000412E0
1.062075516E1,9.709500670E-1,7.696950436E0,6.769050121E0
1.064153131E1,8.629500270E-1,7.807050228E0,6.856950283E0
1.066231128E1,9.760500193E-1,8.044050217E0,7.333950520E0
1.068309124E1,7.219500542E-1,8.209950447E0,7.389000416E0
1.070387199E1,3.130500019E-1,8.350950241E0,7.087050438E0
1.072465277E1,3.870000243E-1,8.377050400E0,7.333950520E0
1.074543276E1,9.280500412E-1,8.289000511E0,7.353000164E0
1.076621277E1,1.536000013E0,8.217000008E0,7.075050354E0
1.078698737E1,2.470050097E0,7.852950573E0,7.777050495E0
1.080776199E1,2.791050196E0,7.170000553E0,8.314949989E0
1.082854572E1,2.412000179E0,6.418950081E0,8.631000519E0
1.084932944E1,1.816050053E0,5.832000256E0,8.374950409E0
1.087011285E1,1.123950005E0,5.748000145E0,7.690050602E0
1.089089624E1,9.259500504E-1,5.691000462E0,7.465050220E0
1.091167302E1,1.147950053E0,5.836950302E0,7.231050491E0
1.093244979E1,1.323000073E0,5.953950405E0,6.898050308E0
1.095322574E1,1.242000103E0,6.106950283E0,6.229950428E0
1.097400170E1,1.302000046E0,6.142950058E0,5.784000397E0
1.099478174E1,1.222950101E0,6.202950478E0,5.743950367E0
1.101556178E1,9.330000281E-1,6.226950169E0,5.926050186E0
1.103634310E1,7.200000286E-1,6.262950420E0,5.907000065E0
1.105712444E1,5.110500455E-1,6.486000538E0,5.611950397E0
1.107790863E1,4.350000322E-1,6.828000546E0,5.514000416E0
1.109869282E1,5.470499992E-1,7.057950497E0,5.763000488E0
1.111947820E1,7.129500508E-1,7.213950157E0,6.172050476E0
1.114026358E1,9.619500637E-1,7.494000435E0,6.454950333E0
1.116104344E1,1.135950089E0,7.683000565E0,6.828000546E0
1.118182329E1,8.950500488E-1,7.824000359E0,6.754050255E0
1.120260478E1,7.530000210E-1,8.071050644E0,6.802050114E0
1.122338628E1,6.720000505E-1,8.386950493E0,6.880950451E0
1.124416924E1,5.879999995E-1,8.527950287E0,6.936000347E0
1.126495220E1,2.380500138E-1,8.746050835E0,7.185000420E0
1.128573369E1,-2.149500102E-1,8.812950134E0,7.234950542E0
1.130651519E1,-7.210500240E-1,8.815050125E0,6.772950172E0
1.132729503E1,-1.092000008E0,9.031050682E0,6.481050491E0
1.134807487E1,-3.829500079E-1,8.925000191E0,7.240050316E0
1.136885457E1,8.899500370E-1,8.157000542E0,8.896950722E0
1.138963427E1,1.314000010E0,7.278000355E0,1.039095020E1
1.141041318E1,1.462050080E0,6.214950085E0,1.048695087E1
1.143119210E1,8.560500145E-1,5.820000172E0,9.223050117E0
1.145196936E1,4.060500264E-1,5.647950172E0,8.377050400E0
1.147274663E1,2.959500253E-1,5.557050228E0,7.702050209E0
1.149352444E1,1.909500062E-1,5.617050171E0,7.195050240E0
1.151430224E1,1.879500151E-1,5.614050388E0,6.666000366E0
1.153508179E1,1.980000138E-1,5.686050415E0,6.625050545E0
1.155586133E1,5.689499974E-1,5.748000145E0,6.342000484E0
1.157663382E1,9.379500151E-1,5.832000256E0,5.896950245E0
1.159740633E1,8.869500160E-1,5.839050293E0,5.647950172E0
1.161817956E1,7.410000563E-1,5.808000088E0,5.935050488E0
1.163895279E1,5.160000324E-1,5.904000282E0,6.175050259E0
1.165972742E1,3.769500256E-1,6.256050110E0,5.904000282E0
1.168050204E1,4.080000222E-1,6.550050259E0,5.782050133E0
1.170128205E1,3.319500089E-1,6.799050331E0,5.758050442E0
1.172206205E1,8.805000782E-2,7.027050495E0,6.352050304E0
1.174283615E1,-1.099500060E-1,7.210950375E0,7.171050549E0
1.176361027E1,-1.200000010E-2,7.192050457E0,7.312050343E0
1.178438245E1,1.050000079E-3,7.185000420E0,7.204050541E0
1.180515464E1,-6.495000422E-2,7.393050194E0,6.816000462E0
1.182593013E1,-2.080500126E-1,7.567950249E0,6.850050449E0
1.184670563E1,-3.850500286E-1,7.699950218E0,6.934050560E0
1.186748209E1,-6.540000439E-1,7.972950459E0,6.934050560E0
1.188825856E1,-6.079500318E-1,8.188050270E0,6.760950089E0
1.190903583E1,3.820500076E-1,8.119050026E0,6.577050209E0
1.192981311E1,1.716000080E0,7.860000610E0,6.915000439E0
1.195059170E1,3.301050186E0,6.751050472E0,8.338950157E0
1.197137032E1,3.604950190E0,5.575950146E0,9.835950851E0
1.199214243E1,2.767050028E0,4.644000053E0,1.056105042E1
1.201291455E1,1.239000082E0,4.206000328E0,9.973950386E0
1.203369907E1,-7.050000131E-3,4.539000034E0,9.484050751E0
1.205448356E1,3.820500076E-1,4.800000191E0,9.048000336E0
1.207526109E1,1.237050056E0,5.146950245E0,8.413050652E0
1.209603863E1,1.749000072E0,5.659950256E0,7.729050159E0
1.211682046E1,1.759050131E0,5.868000507E0,7.357950211E0
1.213760230E1,1.141050100E0,5.674050331E0,6.727950096E0
1.215838642E1,5.879999995E-1,5.479950428E0,6.309000492E0
1.217917054E1,1.360500008E-1,5.478000164E0,6.397050381E0
1.219995458E1,-2.419500053E-1,5.557050228E0,6.742050171E0
1.222073862E1,-6.340500116E-1,5.775000095E0,6.804000378E0
1.224152248E1,-7.060500383E-1,6.115050316E0,6.484050274E0
1.226230632E1,-3.420000076E-1,6.483000278E0,6.322950363E0
1.228308997E1,2.650500238E-1,6.985950470E0,6.244050503E0
1.230387362E1,9.210000634E-1,7.369050503E0,6.481050491E0
1.232465412E1,1.740000129E0,7.695000172E0,7.513050556E0
1.234543463E1,2.410050154E0,7.755000591E0,8.455950737E0
1.236621310E1,2.113049984E0,7.825950146E0,8.731950760E0
1.238699156E1,1.567050099E0,7.846050262E0,8.787000656E0
1.240777359E1,7.840500474E-1,7.965000153E0,9.156000137E0
1.242855555E1,-6.000000238E-2,7.996050358E0,9.964950562E0
1.244933497E1,-8.449500203E-1,8.158950806E0,1.031700039E1
1.247011440E1,-1.336050034E0,8.305050850E0,1.040805054E1
1.249089496E1,-9.670500755E-1,8.116050720E0,1.042200089E1
1.251167554E1,-4.429500103E-1,7.302000523E0,1.091295052E1
1.253245878E1,-7.039500475E-1,6.483000278E0,1.117395020E1
1.255324201E1,-1.053000093E0,5.821950436E0,1.040100002E1
1.257402667E1,-1.033950090E0,5.475000381E0,9.523950577E0
1.259481133E1,-7.009500265E-1,5.308050156E0,8.976000786E0
1.261558763E1,-5.119500160E-1,5.056050301E0,8.064000130E0
1.263636394E1,-5.839500427E-1,4.912950039E0,6.637050152E0
1.265714178E1,-8.310000300E-1,5.023050308E0,5.787000179E0
1.267791958E1,-8.140500188E-1,5.035050392E0,6.028950214E0
1.269869727E1,-6.109500527E-1,4.975050449E0,6.520050526E0
1.271947497E1,-6.439500451E-1,4.989000320E0,6.522000313E0
1.274025454E1,-8.830500245E-1,5.185950279E0,6.211050510E0
1.276103411E1,-1.018050075E0,5.401050091E0,6.001950264E0
1.278181760E1,-1.027050018E0,5.527950287E0,6.354000092E0
1.280260109E1,-6.919500232E-1,5.554050446E0,6.915000439E0
1.282338325E1,-4.759500325E-1,5.695950508E0,6.891000271E0
1.284416545E1,-5.700000525E-1,5.917950153E0,6.496050358E0
1.286495096E1,-8.670000434E-1,6.325050354E0,5.784000397E0
1.288573646E1,-9.619500637E-1,6.784950256E0,5.320050240E0
1.290651155E1,-8.479500413E-1,7.414950371E0,5.703000069E0
1.292728668E1,-5.200500488E-1,7.579950333E0,6.306000233E0
1.294807158E1,-7.969500422E-1,7.731000423E0,6.766050339E0
1.296885649E1,-8.239500523E-1,7.708950520E0,7.044000149E0
1.298964109E1,-9.499500394E-1,7.807050228E0,7.101000309E0
1.301042571E1,-1.216050029E0,7.870050430E0,7.219050407E0
1.303121368E1,-1.093950033E0,7.915050507E0,6.487950325E0
1.305200168E1,-5.989500284E-1,8.089950562E0,5.563950062E0
1.307278475E1,1.095000096E-2,8.281050682E0,5.356050491E0
1.309356783E1,1.309050083E0,7.743000507E0,6.903000355E0
1.311435365E1,2.470050097E0,6.648000240E0,9.321000099E0
1.313513946E1,3.126000166E0,5.623950481E0,1.107795048E1
1.315592119E1,3.375000238E0,4.744950294E0,1.189905071E1
1.317670292E1,3.121050119E0,4.318950176E0,1.027905083E1
1.319749185E1,2.605950117E0,4.843050003E0,8.452050209E0
1.321828077E1,2.728950024E0,5.176050186E0,7.674000263E0
1.323906410E1,3.034950256E0,5.511000156E0,7.141950130E0
1.325984745E1,2.872050047E0,5.740950108E0,6.261000156E0
1.328062636E1,2.319000006E0,5.820000172E0,5.263050079E0
1.330140528E1,1.416000009E0,5.932950497E0,4.915050030E0
1.332218870E1,1.030950069E0,5.784000397E0,4.735949993E0
1.334297209E1,9.850500226E-1,5.901000500E0,4.690050125E0
1.336375427E1,8.370000124E-1,6.193950176E0,4.828950405E0
1.338453647E1,5.659500360E-1,6.579000473E0,5.197950363E0
1.340532364E1,1.710000038E-1,6.829950333E0,5.500050068E0
1.342611084E1,-1.005000062E-2,7.230000496E0,5.478000164E0
1.344689194E1,3.250500262E-1,7.837950230E0,6.190950394E0
1.346767306E1,7.840500474E-1,7.804950237E0,7.374000549E0
1.348845674E1,9.520500302E-1,7.908000469E0,8.545050621E0
1.350924039E1,9.660000205E-1,7.968000412E0,9.529050827E0
1.353002365E1,8.250000477E-1,8.053950310E0,1.009200001E1
1.355080693E1,3.610500097E-1,8.308050156E0,1.001505089E1
1.357159198E1,-1.699500084E-1,8.647950172E0,9.964950562E0
1.359237702E1,-7.800000310E-1,8.763000488E0,1.033605003E1
1.361315997E1,-1.477050066E0,8.791049957E0,1.083600044E1
1.363394290E1,-1.707000136E0,8.703000069E0,1.091295052E1
1.365473104E1,-1.570950031E0,8.226000786E0,1.098195076E1
1.367551919E1,-1.195050001E0,7.242000580E0,1.112100029E1
1.369630369E1,-9.270000458E-1,6.426000118E0,1.077705097E1
1.371708820E1,-8.950500488E-1,5.815050125E0,9.964950562E0
1.373787572E1,-9.840000272E-1,5.482050419E0,9.445050240E0
1.375866325E1,-4.410000145E-1,5.097000122E0,9.649050713E0
1.377945305E1,7.304999977E-2,4.702050209E0,8.539950371E0
1.380024285E1,-1.990500093E-1,4.884000301E0,6.855000496E0
1.382103379E1,-2.899500132E-1,5.001000404E0,5.674050331E0
1.384182476E1,-3.400500119E-1,5.074950218E0,5.421000481E0
1.386260179E1,1.189500093E-1,4.849950314E0,5.689050198E0
1.388337883E1,6.019500494E-1,4.530000210E0,5.818050385E0
1.390416517E1,6.190500259E-1,4.372050285E0,6.133950233E0
1.392495151E1,3.580500185E-1,4.048050404E0,6.787950516E0
1.394574009E1,3.000000119E-2,3.976050138E0,6.838050365E0
1.396652867E1,-1.290000081E-1,4.270950317E0,6.589050293E0
1.398731839E1,-1.360500008E-1,4.762050152E0,6.337950230E0
1.400810812E1,2.505000122E-2,5.439000130E0,6.466950417E0
1.402888596E1,5.470499992E-1,5.968950272E0,6.727950096E0
1.404966381E1,6.100500226E-1,6.310950279E0,6.759000301E0
1.407044437E1,4.759500325E-1,6.648000240E0,7.033950329E0
1.409122494E1,4.800000191E-1,6.772950172E0,7.369050503E0
1.411201374E1,7.890000343E-1,7.149000168E0,7.666050434E0
1.413280254E1,1.170000076E0,7.075050354E0,7.654050350E0
1.415359048E1,6.739500165E-1,7.218000412E0,7.471950531E0
1.417437844E1,9.495000541E-2,7.498050213E0,7.386000156E0
1.419516781E1,-4.095000029E-2,7.462950230E0,7.627950191E0
1.421595720E1,-9.600000083E-2,7.318950176E0,7.824000359E0
1.423673015E1,4.180500209E-1,7.165950298E0,7.918050289E0
1.425750312E1,1.455000043E0,6.700950146E0,8.635950089E0
1.427829555E1,2.194950104E0,5.988000393E0,9.820950508E0
1.429908796E1,2.106000185E0,5.013000011E0,1.079100037E1
1.431987892E1,1.657950044E0,4.491000175E0,1.057095051E1
1.434066988E1,8.680500388E-1,4.600950241E0,9.511950493E0
1.436145830E1,1.429500133E-1,5.085000038E0,8.386950493E0
1.438224672E1,1.909500062E-1,5.266950130E0,7.530000210E0
1.440303180E1,6.259500384E-1,5.403000355E0,6.718050480E0
1.442381688E1,7.680000067E-1,5.559000492E0,6.697050095E0
1.444460136E1,5.899500251E-1,5.587950230E0,7.326000214E0
1.446538586E1,5.779500008E-1,5.221050262E0,7.711950302E0
1.448617448E1,3.990000188E-1,5.383950233E0,7.516050339E0
1.450696310E1,1.210500076E-1,5.652000427E0,6.988950253E0
1.452774965E1,-3.105000220E-2,5.989950180E0,6.739950180E0
1.454853623E1,3.079500198E-1,6.105000496E0,6.855000496E0
1.456931966E1,3.270000219E-1,6.367950439E0,7.048950195E0
1.459010308E1,1.669500023E-1,6.634050369E0,7.495950222E0
1.461089458E1,2.430000156E-1,6.780000210E0,7.855950356E0
1.463168608E1,3.940500319E-1,7.000050545E0,7.975050449E0
1.465247208E1,3.199500144E-1,7.069950104E0,8.128050804E0
1.467325808E1,4.905000329E-2,7.087050438E0,8.418000221E0
1.469404580E1,-3.795000166E-2,7.326000214E0,8.827950478E0
1.471483353E1,1.240500063E-1,7.398000240E0,9.145950317E0
1.473561152E1,2.820000052E-1,7.465050220E0,9.180000305E0
1.475638953E1,3.319500089E-1,7.680000305E0,8.899050713E0
1.477718156E1,-4.800000042E-2,7.879050255E0,8.546999931E0
1.479797356E1,-5.719500184E-1,7.752000332E0,8.136000633E0
1.481876247E1,-9.120000601E-1,7.506000519E0,8.148000717E0
1.483955140E1,-8.190000653E-1,7.024050236E0,8.550000191E0
1.486034581E1,-3.259500265E-1,6.289050102E0,8.586000443E0
1.488114023E1,-1.890000105E-1,5.940000057E0,8.509050369E0
1.490192790E1,-1.800000072E-1,5.427000046E0,8.119050026E0
1.492271560E1,-6.390000582E-1,5.266950130E0,7.453050137E0
1.494349131E1,-1.140000105E0,5.401050091E0,7.065000534E0
1.496426700E1,-1.171050072E0,5.419950485E0,6.826050282E0
1.498505691E1,-5.530500412E-1,5.296050072E0,6.679950237E0
1.500584679E1,2.740500271E-1,5.286000252E0,6.589050293E0
1.502663013E1,6.960000396E-1,5.224050045E0,6.436050415E0
1.504741348E1,6.840000153E-1,5.230950356E0,6.250950336E0
1.506818784E1,4.780500233E-1,5.233050346E0,6.289950371E0
1.508896219E1,2.239500135E-1,5.238000393E0,6.262950420E0
1.510974097E1,1.279500127E-1,5.398950100E0,6.202950478E0
1.513051973E1,4.905000329E-2,5.439000130E0,6.190950394E0
1.515130723E1,-1.270500124E-1,5.611950397E0,6.148050308E0
1.517209473E1,-2.939999998E-1,5.679000378E0,5.868000507E0
1.519288215E1,-1.920000017E-1,5.908950329E0,5.677050114E0
1.521366958E1,-2.179500163E-1,6.411000252E0,6.049950123E0
1.523446205E1,-8.595000207E-2,6.355950356E0,6.780000210E0
1.525525451E1,1.305000018E-2,6.598050117E0,7.374000549E0
1.527604529E1,3.649500310E-1,6.835050106E0,7.638000488E0
1.529683606E1,4.540500343E-1,7.204050541E0,7.816950321E0
1.531762312E1,3.370500207E-1,7.321050167E0,8.149950027E0
1.533841020E1,6.450000405E-1,7.108050346E0,8.950050354E0
1.535919738E1,1.426050067E0,7.020000458E0,9.766050339E0
1.537998457E1,2.644950151E0,6.220050335E0,1.091100025E1
1.540076662E1,3.351000071E0,4.936950207E0,1.212195015E1
1.542154867E1,3.286050081E0,4.077000141E0,1.320900059E1
1.544233725E1,3.424950123E0,3.162000179E0,1.300095081E1
1.546312582E1,2.488950014E0,3.225000143E0,1.144200039E1
1.548391611E1,1.648950100E0,4.032000065E0,9.826050758E0
1.550470642E1,1.833000064E0,4.410000324E0,8.497050285E0
1.552549187E1,2.343000174E0,4.639950275E0,7.372050285E0
1.554627730E1,1.897950053E0,5.104050159E0,6.772950172E0
1.556706294E1,1.416000009E0,5.164050102E0,6.703950405E0
1.558784859E1,9.880500436E-1,4.783050060E0,6.490950108E0
1.560863397E1,2.839500010E-1,4.623000145E0,6.463950157E0
1.562941936E1,-4.519500136E-1,4.573050022E0,6.517050266E0
1.565020569E1,-9.049500227E-1,4.668000221E0,6.819000244E0
1.567099204E1,-1.111050010E0,4.804950237E0,7.330950260E0
1.569177384E1,-1.171050072E0,5.190000057E0,7.525050163E0
1.571255566E1,-8.929500580E-1,5.439000130E0,7.987050533E0
1.573334166E1,-6.370500326E-1,5.632950306E0,8.491950035E0
1.575412766E1,-7.570500374E-1,5.724000454E0,8.671950340E0
1.577491227E1,-1.147050023E0,5.980050087E0,8.679000854E0
1.579569689E1,-1.233000040E0,6.100050449E0,9.144000053E0
1.581648323E1,-1.374000072E0,6.378000259E0,9.667950630E0
1.583726954E1,-1.020000100E0,6.285000324E0,1.000995064E1
1.585804750E1,-8.740500212E-1,6.286950111E0,1.027095032E1
1.587882550E1,-1.055999994E0,6.292050362E0,1.025205040E1
1.589960706E1,-1.116000056E0,6.651000500E0,9.903000832E0
1.592038859E1,-1.465050101E0,6.961950302E0,9.661050797E0
1.594116182E1,-1.329000115E0,6.619950294E0,1.039605045E1
1.596193506E1,-5.719500184E-1,5.430000305E0,1.131495094E1
1.598271211E1,-6.000000238E-2,4.738050461E0,1.171800041E1
1.600348918E1,6.795000285E-2,4.393050194E0,1.168605042E1
1.602426645E1,2.910000086E-1,3.933000088E0,1.095900059E1
1.604504368E1,3.030000031E-1,3.730050087E0,9.715950012E0
1.606583002E1,-6.195000187E-2,3.646050215E0,8.551950455E0
1.608661636E1,-3.760500252E-1,3.823050261E0,7.522950172E0
1.610740094E1,-3.880500197E-1,4.165950298E0,7.120050430E0
1.612818552E1,-2.110500038E-1,4.394999981E0,6.994050503E0
1.614895999E1,3.340500295E-1,4.462950230E0,6.874050140E0
1.616973445E1,7.840500474E-1,4.623000145E0,6.445050240E0
1.619052297E1,8.779500127E-1,4.872000217E0,6.057000160E0
1.621131146E1,7.390500307E-1,4.917000294E0,6.043050289E0
1.623210131E1,6.379500031E-1,5.142000198E0,6.033000469E0
1.625289116E1,5.160000324E-1,5.382000446E0,5.938050270E0
1.627367839E1,3.319500089E-1,5.734050274E0,5.677050114E0
1.629446562E1,2.430000156E-1,6.174000263E0,5.944950104E0
1.631525436E1,6.360000372E-1,6.376050472E0,6.517050266E0
1.633604309E1,9.040500522E-1,6.514050484E0,7.144050121E0
1.635682875E1,8.470500112E-1,6.583950520E0,7.413000584E0
1.637761445E1,7.840500474E-1,6.670050144E0,7.318950176E0
1.639838974E1,5.020500422E-1,6.976950169E0,7.447950363E0
1.641916502E1,4.249500334E-1,6.924000263E0,7.788000584E0
1.643995395E1,1.690500081E-1,7.093950272E0,7.930050373E0
1.646074286E1,-2.850000262E-1,7.398000240E0,7.935000420E0
1.648152988E1,4.005000368E-2,7.651950359E0,7.803000450E0
1.650231693E1,1.203000069E0,7.707000256E0,7.858050346E0
1.652309800E1,2.535000086E0,7.204050541E0,8.614950180E0
1.654387907E1,3.198000193E0,6.319950104E0,9.910050392E0
1.656466754E1,3.367950201E0,4.860000134E0,1.031895065E1
1.658545600E1,2.520000219E0,4.285050392E0,9.532050133E0
1.660624152E1,1.120050073E0,4.702050209E0,8.449049950E0
1.662702706E1,4.900500178E-1,5.265000343E0,7.575000286E0
1.664780859E1,8.389500380E-1,5.572950363E0,7.273950577E0
1.666859013E1,1.570050120E0,5.791050434E0,7.336050510E0
1.668938228E1,1.978950143E0,6.024000168E0,7.657050133E0
1.671017443E1,2.086950064E0,5.833950043E0,7.669050217E0
1.673096347E1,1.653000116E0,5.599950314E0,7.246950150E0
1.675175255E1,1.138950109E0,5.583000183E0,6.831000328E0
1.677254038E1,9.520500302E-1,5.575950146E0,6.474000454E0
1.679332823E1,7.150500417E-1,5.715000153E0,6.430950165E0
1.681411515E1,6.840000153E-1,5.923050404E0,6.201000214E0
1.683490208E1,8.419500589E-1,6.354000092E0,6.208050251E0
1.685568964E1,1.002000093E0,6.589050293E0,6.285000324E0
1.687647718E1,9.739500284E-1,6.880950451E0,6.490950108E0
1.689726521E1,8.850000501E-1,7.012050152E0,6.646050453E0
1.691805325E1,1.021050096E0,7.102950573E0,6.886050224E0
1.693884183E1,1.004999995E0,7.192050457E0,7.123050213E0
1.695963041E1,5.140500069E-1,7.336050510E0,7.623000145E0
1.698042060E1,8.505000174E-2,7.431000233E0,8.401050568E0
1.700121080E1,-1.319999993E-1,7.554000378E0,9.004950523E0
1.702199260E1,-4.095000029E-2,7.654050350E0,9.148050308E0
1.704277441E1,4.050000105E-3,7.798050404E0,9.117000580E0
1.706355337E1,-1.150500029E-1,8.116050720E0,9.321000099E0
1.708433234E1,5.895000324E-2,8.064000130E0,9.820950508E0
1.710510385E1,4.200000167E-1,7.410000324E0,1.064505005E1
1.712587535E1,8.200500607E-1,6.141000271E0,1.133700085E1
1.714666385E1,1.057050109E0,5.380050182E0,1.097505093E1
1.716745234E1,7.680000067E-1,4.804950237E0,1.013505077E1
1.718823983E1,-4.995000362E-2,4.690050125E0,9.262950897E0
1.720902734E1,-5.910000205E-1,4.390950203E0,8.230950356E0
1.722980214E1,-1.237950087E0,4.410000324E0,7.233000278E0
1.725057695E1,-1.788000107E0,4.648950100E0,6.622050285E0
1.727136281E1,-1.717050076E0,4.747050285E0,6.460050106E0
1.729214865E1,-1.152000070E0,4.696950436E0,6.550950527E0
1.731292418E1,-4.189500213E-1,4.813950062E0,6.952950478E0
1.733369969E1,-9.105000645E-2,4.639950275E0,6.943050385E0
1.735448590E1,-2.869500220E-1,4.699950218E0,7.258950233E0
1.737527209E1,-6.630000472E-1,4.882050037E0,7.924950600E0
1.739605670E1,-7.950000167E-1,5.134950161E0,8.370000839E0
1.741684132E1,-5.359500051E-1,5.394000053E0,8.164050102E0
1.743762115E1,3.220500052E-1,5.848950386E0,7.446000576E0
1.745840100E1,1.087950110E0,6.454950333E0,6.637050152E0
1.747918081E1,1.234050035E0,6.864000320E0,6.079050064E0
1.749996061E1,1.069050074E0,7.135050297E0,5.854050159E0
1.752072813E1,8.350500464E-1,7.369050503E0,5.971050262E0
1.754149568E1,8.800500631E-1,7.378950119E0,6.478950500E0
1.756228090E1,8.110500574E-1,7.398000240E0,6.607950211E0
1.758306612E1,2.740500271E-1,7.441050529E0,6.823950291E0
1.760384842E1,-1.200000010E-2,7.339950562E0,6.961950302E0
1.762463073E1,1.095000096E-2,7.342950344E0,7.270950317E0
1.764540844E1,2.500500083E-1,7.230000496E0,7.743000507E0
1.766618613E1,6.649500132E-1,7.090950489E0,8.277000427E0
1.768697475E1,1.134000063E0,7.330950260E0,8.515950203E0
1.770776336E1,1.822950125E0,7.221000195E0,9.031050682E0
1.772855217E1,2.749950171E0,6.517050266E0,9.646050453E0
1.774934098E1,3.424950123E0,5.667000294E0,1.032600021E1
1.777013079E1,3.564000130E0,4.776000023E0,1.017300034E1
1.779092060E1,2.812050104E0,4.609050274E0,9.177000046E0
1.781171044E1,1.942950130E0,4.714050293E0,7.840950489E0
1.783250029E1,1.099950075E0,5.044050217E0,6.964950562E0
1.785328892E1,9.690000415E-1,5.298000336E0,6.475950241E0
1.787407758E1,1.215000033E0,5.656950474E0,6.129000187E0
1.789486448E1,1.510050058E0,5.988000393E0,5.884950161E0
1.791565141E1,1.642050028E0,6.169950485E0,5.722050190E0
1.793643783E1,1.725000024E0,6.196050167E0,5.322000027E0
1.795722425E1,1.395000100E0,6.040050507E0,5.164050102E0
1.797801443E1,9.499500394E-1,5.959050179E0,5.551950455E0
1.799880462E1,6.649500132E-1,5.965950489E0,6.180000305E0
1.801959442E1,4.609500170E-1,6.249000072E0,6.618000507E0
1.804038423E1,3.460500240E-1,6.591000080E0,7.041000366E0
1.806117195E1,3.390000165E-1,6.739050388E0,7.504050255E0
1.808195968E1,2.620500028E-1,6.895050526E0,7.900950432E0
1.810274519E1,2.820000052E-1,6.957000256E0,8.236050606E0
1.812353073E1,1.879500151E-1,6.945000172E0,8.587950706E0
1.814431487E1,-3.160500228E-1,7.066950321E0,8.928000450E0
1.816509899E1,-7.249500155E-1,7.096050262E0,9.097949982E0
1.818588368E1,-1.207050085E0,7.330950260E0,9.514950752E0
1.820666833E1,-1.231050014E0,7.278000355E0,9.934050560E0
1.822745218E1,-9.030000567E-1,7.302000523E0,1.006800079E1
1.824823603E1,-6.319500208E-1,7.366950512E0,9.879000664E0
1.826902250E1,-6.850500107E-1,7.450950146E0,9.249000549E0
1.828980896E1,-1.065000057E0,7.597050190E0,8.466000557E0
1.831059507E1,-1.237950087E0,7.695000172E0,8.026050568E0
1.833138119E1,-9.580500722E-1,7.348050117E0,8.286000252E0
1.835216410E1,-7.489500642E-1,6.559950352E0,8.689050674E0
1.837294703E1,-7.060500383E-1,5.832000256E0,8.595000267E0
1.839373201E1,-7.830000520E-1,5.599950314E0,7.939050198E0
1.841451697E1,-8.209500313E-1,5.533050060E0,7.044000149E0
1.843530233E1,-8.640000224E-1,5.467950344E0,6.538950443E0
1.845608768E1,-9.000000358E-1,5.466000080E0,6.072000504E0
1.847686275E1,-1.243050098E0,5.715000153E0,6.168000221E0
1.849763783E1,-1.290000081E0,5.740950108E0,6.523950100E0
1.851842477E1,-1.177950025E0,5.758050442E0,6.759000301E0
1.853921169E1,-9.190500379E-1,5.746050358E0,7.213950157E0
1.855999215E1,-5.959500074E-1,5.700000286E0,7.738050461E0
1.858077262E1,-5.295000225E-2,5.380050182E0,7.906050205E0
1.860155062E1,3.060000241E-1,5.217000484E0,7.549050331E0
1.862232862E1,2.239500135E-1,5.254950047E0,6.891000271E0
1.864309754E1,4.905000329E-2,5.635950089E0,6.055050373E0
1.866386647E1,4.009500146E-1,5.935050488E0,5.890050411E0
1.868464591E1,6.790500283E-1,6.009000301E0,5.806050301E0
1.870542533E1,4.279500246E-1,6.256050110E0,5.689050198E0
1.872620194E1,3.199500144E-1,6.463950157E0,5.755950451E0
1.874697857E1,3.060000241E-1,6.675000191E0,6.109950066E0
1.876775912E1,4.080000222E-1,6.682050228E0,6.667950153E0
1.878853970E1,4.039500058E-1,6.933000565E0,7.546950340E0
1.880932866E1,4.440000355E-1,7.101000309E0,8.341950417E0
1.883011762E1,1.620000005E-1,7.396050453E0,8.959050179E0
1.885090419E1,-5.505000427E-2,7.458000183E0,1.014195061E1
1.887169077E1,5.400000140E-2,6.933000565E0,1.073295021E1
1.889248153E1,-1.680000126E-1,6.784950256E0,1.046100044E1
1.891327230E1,-5.700000376E-2,6.706050396E0,9.951000214E0
1.893405818E1,5.160000324E-1,5.965950489E0,1.031400013E1
1.895484406E1,6.910500526E-1,5.023050308E0,1.142100048E1
1.897563068E1,6.529500484E-1,3.991050243E0,1.210995102E1
1.899641730E1,3.150000274E-1,3.306000233E0,1.146600056E1
1.901720450E1,-2.230500132E-1,3.105000257E0,1.008195019E1
1.903799173E1,-4.500000179E-1,3.307950258E0,8.631000519E0
1.905877800E1,-2.659500241E-1,3.924000263E0,7.195050240E0
1.907956427E1,-1.630500108E-1,4.426949978E0,5.863050461E0
1.910035414E1,-2.080500126E-1,4.858050346E0,5.193000317E0
1.912114402E1,-1.150500029E-1,5.104050159E0,5.242950439E0
1.914193296E1,5.329500437E-1,5.137950420E0,5.976000309E0
1.916272189E1,1.078950047E0,4.969950199E0,6.366000175E0
1.918350204E1,1.026000023E0,4.837950230E0,6.342000484E0
1.920428220E1,4.710000157E-1,4.893000126E0,5.998050213E0
1.922507174E1,-9.600000083E-2,5.085000038E0,5.890050411E0
1.924586128E1,-3.379500210E-1,5.439000130E0,6.249000072E0
1.926665047E1,-7.905000448E-2,5.650050163E0,6.625050545E0
1.928743966E1,-1.150500029E-1,6.007050514E0,7.362000465E0
1.930823118E1,-2.779500186E-1,5.821950436E0,8.245950699E0
1.932902272E1,-7.450500131E-1,5.844000340E0,8.785050392E0
1.934980815E1,-1.060950041E0,5.857950211E0,9.192000389E0
1.937059358E1,-1.285950065E0,5.844000340E0,9.739950180E0
1.939137800E1,-1.314000010E0,5.988000393E0,1.030995083E1
1.941216243E1,-1.137000084E0,6.016050339E0,1.093695068E1
1.943295030E1,-4.879500270E-1,5.941950321E0,1.135395050E1
1.945373818E1,-3.349500299E-1,6.258000374E0,1.121700096E1
1.947452675E1,-4.069500268E-1,6.715950489E0,1.096095085E1
1.949531533E1,-2.149500102E-1,6.808950424E0,1.107600021E1
1.951609829E1,3.630000055E-1,6.093000412E0,1.130295086E1
1.953688126E1,3.889500201E-1,5.533050060E0,1.141305065E1
1.955766662E1,6.670500040E-1,4.909950256E0,1.092705059E1
1.957845201E1,2.839500010E-1,4.434000015E0,1.023795033E1
1.959923952E1,-2.659500241E-1,3.754050255E0,9.259050369E0
1.962002702E1,-9.960000515E-1,3.768000126E0,8.607000351E0
1.964081473E1,-1.341000080E0,3.771000147E0,7.915050507E0
1.966160246E1,-1.168050051E0,3.550050259E0,7.465050220E0
1.968239555E1,-7.369500399E-1,3.535950184E0,7.587000370E0
1.970318862E1,-3.810000122E-1,3.601050138E0,7.819950581E0
1.972398200E1,2.220000178E-1,3.772950172E0,8.611950874E0
1.974477539E1,1.165050030E0,3.766050100E0,8.083050728E0
1.976556132E1,1.672950029E0,4.057950020E0,7.621050358E0
1.978634729E1,1.633950114E0,4.735050201E0,7.027050495E0
1.980713192E1,1.642050028E0,5.086950302E0,6.663000107E0
1.982791658E1,1.539000034E0,5.262000084E0,6.531000137E0
1.984870853E1,1.476000071E0,5.206950188E0,6.354000092E0
1.986950048E1,1.279950023E0,5.265000343E0,6.502950191E0
1.989028788E1,1.215000033E0,5.442000389E0,6.820950508E0
1.991107527E1,1.098000050E0,5.803050041E0,7.209000111E0
1.993186497E1,1.029000044E0,6.012000084E0,7.711950302E0
1.995265466E1,7.390500307E-1,6.289050102E0,7.990050316E0
1.997343914E1,2.890500128E-1,6.541050434E0,7.990050316E0
1.999422365E1,1.605000161E-2,6.730050087E0,8.088000298E0
2.001501105E1,1.800000109E-2,6.679950237E0,8.365950584E0
2.003579843E1,9.000000358E-2,6.615000248E0,8.607000351E0
2.005658165E1,3.610500097E-1,6.337050438E0,9.164999962E0
2.007736484E1,7.249500155E-1,6.031050205E0,9.565050125E0
2.009815529E1,9.400500655E-1,5.923050404E0,1.001295090E1
2.011894575E1,1.126950026E0,5.431950092E0,1.061100006E1
2.013973349E1,1.201050043E0,4.759050369E0,1.067595005E1
2.016052122E1,1.134000063E0,4.146000385E0,1.049205017E1
2.018131352E1,9.540000558E-1,3.838050127E0,1.000995064E1
2.020210583E1,7.249500155E-1,3.811050177E0,9.358950615E0
2.022289906E1,2.980500162E-1,3.883050203E0,8.341950417E0
2.024369226E1,-1.319999993E-1,4.186950207E0,7.221000195E0
2.026448087E1,-1.319999993E-1,4.633050442E0,6.393000126E0
2.028526949E1,6.649500132E-1,5.269050121E0,5.008950233E0
2.030605828E1,6.840000153E-1,5.463000298E0,6.115050316E0
2.032684709E1,6.910500526E-1,5.326950073E0,7.506000519E0
2.034763772E1,1.087950110E0,5.398950100E0,7.528050423E0
2.036842833E1,1.179000020E0,5.494050026E0,7.258950233E0
2.038921585E1,8.110500574E-1,5.683950424E0,6.883050442E0
2.041000335E1,8.149500489E-1,6.045000076E0,6.850050449E0
2.043078894E1,1.041000009E0,6.213000298E0,6.630000114E0
2.045157452E1,7.129500508E-1,6.601050377E0,6.784950256E0
2.047235927E1,3.340500295E-1,6.817950249E0,7.161000252E0
2.049314404E1,-2.400000021E-2,6.880950451E0,7.510950565E0
2.051392462E1,8.805000782E-2,6.969000340E0,8.116050720E0
2.053470524E1,5.640000105E-1,7.009950161E0,8.731950760E0
2.055548796E1,7.270500064E-1,6.807000160E0,8.923050880E0
2.057627069E1,3.220500052E-1,7.027050495E0,8.928000450E0
2.059705608E1,-1.870500147E-1,7.077000141E0,8.824950218E0
2.061784151E1,-6.460500360E-1,7.111050129E0,8.791950226E0
2.063784153E1,-1.132050037E0,7.039050102E0,8.815950394E0
2.065901928E1,-1.261950016E0,6.586050510E0,8.947050095E0
2.068019508E1,-1.306950092E0,6.261000156E0,9.034049988E0
2.070097595E1,-1.860000134E0,6.201000214E0,9.201000214E0
2.072175755E1,-1.840950131E0,5.608950138E0,9.766050339E0
2.074254465E1,-1.638000131E0,5.178000450E0,1.065195084E1
2.076333163E1,-1.333950043E0,4.932000160E0,1.128900051E1
2.078412101E1,-1.006049991E0,4.752000332E0,1.114305019E1
2.080491040E1,-6.900000572E-1,4.783050060E0,1.067400074E1
2.082569857E1,-1.770000011E-1,4.621050358E0,1.009395027E1
2.084648672E1,5.230500102E-1,4.405050278E0,9.579000473E0
2.086727229E1,9.709500670E-1,4.101000309E0,8.956950188E0
2.088805783E1,1.138950109E0,4.093950272E0,7.786050320E0
2.090883496E1,1.179000020E0,4.300050259E0,6.426000118E0
2.092961208E1,1.186950088E0,4.699950218E0,5.290950298E0
2.095039162E1,1.146000028E0,5.152050018E0,4.738050461E0
2.097117115E1,1.174950004E0,5.560950279E0,4.671000004E0
2.099195852E1,1.339950085E0,5.809950352E0,5.149950027E0
2.101274586E1,1.347000122E0,6.148050308E0,5.752950191E0
2.103353555E1,1.261050105E0,6.490050316E0,6.322950363E0
2.105432524E1,1.072050095E0,6.739050388E0,6.651000500E0
2.107510646E1,8.040000200E-1,7.044000149E0,6.970050335E0
2.109588770E1,7.990500331E-1,7.170000553E0,7.420050144E0
2.111667052E1,8.899500370E-1,7.161000252E0,7.606950283E0
2.113745333E1,6.310500503E-1,7.324050426E0,7.966050148E0
2.115823735E1,6.169500351E-1,7.300050259E0,8.269950867E0
2.117902135E1,8.869500160E-1,7.162950516E0,8.478000641E0
2.119981134E1,1.323000073E0,6.865950108E0,7.957950592E0
2.122060133E1,1.704000115E0,6.727950096E0,7.000950336E0
2.124139007E1,2.001000166E0,7.089000225E0,6.136050224E0
2.126217880E1,2.380950212E0,7.158000469E0,6.132000446E0
2.128296203E1,2.899050236E0,5.752950191E0,7.887000561E0
2.130374526E1,2.785950184E0,4.033950329E0,1.008900070E1
2.132453190E1,1.801950097E0,3.699000120E0,1.085595036E1
2.134531855E1,1.087950110E0,4.099050045E0,1.052295017E1
2.136610762E1,9.280500412E-1,4.999050140E0,9.498000145E0
2.138689670E1,1.273050070E0,5.824950218E0,8.322000504E0
2.140768467E1,1.585950017E0,6.184050083E0,7.108950138E0
2.142847268E1,1.261050105E0,6.664950371E0,5.722050190E0
2.144925802E1,6.480000019E-1,7.024050236E0,4.684950352E0
2.147004337E1,4.590000212E-1,6.912000179E0,4.173000336E0
2.149082783E1,3.220500052E-1,6.655950546E0,4.741050243E0
2.151161233E1,4.200000167E-1,6.285000324E0,5.703000069E0
2.153239676E1,2.980500162E-1,5.989950180E0,6.967050552E0
2.155318118E1,6.000000052E-3,5.707950115E0,7.657050133E0
2.157395644E1,-3.400500119E-1,5.638050079E0,7.812000275E0
2.159473167E1,-5.340000391E-1,5.944950104E0,7.744950294E0
2.161552139E1,-4.260000288E-1,6.298950195E0,7.462950230E0
2.163631108E1,9.495000541E-2,6.531000137E0,7.777050495E0
2.165708063E1,3.769500256E-1,6.699000359E0,7.978050232E0
2.167785022E1,3.750000298E-1,7.048050404E0,7.768950462E0
2.169864033E1,3.390000165E-1,7.438950539E0,7.827000141E0
2.171943044E1,2.599500120E-1,7.659000397E0,8.071050644E0
2.174021849E1,2.550000250E-1,7.743000507E0,8.653050423E0
2.176100653E1,4.900500178E-1,7.573050499E0,9.385050774E0
2.178178540E1,1.830000132E-1,7.525050163E0,9.265950203E0
2.180256430E1,-7.470000386E-1,7.767000198E0,8.860950470E0
2.182335344E1,-8.830500245E-1,7.879050255E0,8.959050179E0
2.184414255E1,-2.230500132E-1,7.666050434E0,1.011105061E1
2.186492963E1,6.139500141E-1,6.634050369E0,1.143000031E1
2.188571671E1,8.710500598E-1,5.563950062E0,1.186095047E1
2.190650457E1,7.170000076E-1,4.855050087E0,1.086795044E1
2.192729242E1,2.410500050E-1,4.381050110E0,9.259050369E0
2.194808344E1,-4.519500136E-1,4.228050232E0,7.935000420E0
2.196887448E1,-6.510000229E-1,4.302000046E0,6.964950562E0
2.198965849E1,-7.660500407E-1,4.561050415E0,6.682050228E0
2.201044249E1,-4.960500300E-1,4.549050331E0,6.976950169E0
2.203122807E1,-4.950000439E-3,4.609050274E0,7.276050568E0
2.205201364E1,5.430000424E-1,4.855050087E0,7.233000278E0
2.207280178E1,8.749500513E-1,5.005950451E0,6.565050125E0
2.209358989E1,8.850000501E-1,5.170950413E0,6.079050064E0
2.211437711E1,9.210000634E-1,5.212050438E0,6.012000084E0
2.213516434E1,8.130000234E-1,5.346000195E0,6.649050236E0
2.215594863E1,1.024049997E0,5.284050465E0,7.152000427E0
2.217673298E1,1.519050121E0,5.341050148E0,7.615950584E0
2.219752436E1,1.572000027E0,5.359950066E0,7.492050171E0
2.221831574E1,1.041000009E0,5.590050220E0,7.048950195E0
2.223910207E1,7.360500097E-1,5.971050262E0,6.828000546E0
2.225988838E1,8.299500346E-1,6.438000202E0,7.096950531E0
2.228067424E1,1.186950088E0,6.691950321E0,7.273950577E0
2.230146009E1,1.423950076E0,7.005000114E0,7.420050144E0
2.232224636E1,1.558050036E0,7.089000225E0,7.534950256E0
2.234303267E1,1.900050044E0,7.102950573E0,7.719000340E0
2.236381894E1,1.962000132E0,7.089000225E0,7.963050365E0
2.238460525E1,1.891050100E0,7.003050327E0,8.562000275E0
2.240539165E1,2.009999990E0,6.736950397E0,8.779950142E0
2.242617808E1,2.116050005E0,6.949950218E0,8.770050049E0
2.244696136E1,2.764050245E0,6.715950489E0,8.887050629E0
2.246774464E1,3.456000090E0,5.944950104E0,8.940000534E0
2.248853062E1,3.298050165E0,5.154000282E0,9.168000221E0
2.250931662E1,2.796000242E0,4.405050278E0,9.060000420E0
2.253010058E1,1.600950122E0,4.321050167E0,8.599950790E0
2.255088454E1,6.550500393E-1,4.410000324E0,8.559000015E0
2.257166884E1,2.620500028E-1,4.600950241E0,8.152050018E0
2.259245315E1,2.740500271E-1,4.972050190E0,7.453050137E0
2.261323942E1,7.249500155E-1,5.449050426E0,6.898050308E0
2.263402573E1,1.347000122E0,5.650050163E0,6.637050152E0
2.265480927E1,1.606050134E0,5.764950275E0,6.772950172E0
2.267559281E1,1.711050034E0,5.575950146E0,7.180050373E0
2.269637810E1,1.819050074E0,5.490000248E0,7.671000481E0
2.271716337E1,1.881000042E0,5.542050362E0,7.867050171E0
2.273794829E1,1.834950089E0,5.640000343E0,7.080000401E0
2.275873321E1,1.393050075E0,5.964000225E0,6.013950348E0
2.277951427E1,1.096050024E0,6.282000065E0,5.350950241E0
2.280029531E1,1.042950034E0,6.660000324E0,5.538000107E0
2.282108269E1,1.366050124E0,6.780000210E0,6.250950336E0
2.284187007E1,1.780050039E0,6.655950546E0,6.748950481E0
2.286265534E1,1.600950122E0,6.850050449E0,7.135050297E0
2.288344061E1,1.572000027E0,6.888000488E0,7.863000393E0
2.290422770E1,1.237050056E0,7.032000542E0,8.479949951E0
2.292501478E1,1.066950083E0,7.312050343E0,9.079050064E0
2.294579988E1,1.381050110E0,7.396050453E0,9.814050674E0
2.296658496E1,1.432950020E0,7.363950253E0,1.074795055E1
2.298736356E1,1.206000090E0,7.414950371E0,1.135605049E1
2.300814218E1,1.053000093E0,7.573050499E0,1.113300037E1
2.302892491E1,7.819500566E-1,7.683000565E0,1.012800026E1
2.304970768E1,9.259500504E-1,7.530000210E0,9.436050415E0
2.307049293E1,1.371000051E0,6.751050472E0,9.121950150E0
2.309127816E1,1.302000046E0,6.004050255E0,8.947050095E0
2.311206092E1,8.610000610E-1,5.154000282E0,8.599950790E0
2.313284369E1,-2.595000155E-2,4.812000275E0,7.894050598E0
2.315362600E1,-6.180000305E-1,4.702050209E0,7.237950325E0
2.317440831E1,-7.300500274E-1,4.762050152E0,6.658050537E0
2.319519494E1,-5.100000501E-1,4.708950043E0,6.181950092E0
2.321598156E1,-1.390500069E-1,4.555950165E0,6.141000271E0
2.323676969E1,2.430000156E-1,4.479000092E0,6.630000114E0
2.325755781E1,5.350500345E-1,4.429050446E0,7.020000458E0
2.327834815E1,6.690000296E-1,4.363950253E0,7.164000511E0
2.329913850E1,7.699500322E-1,4.357050419E0,7.108950138E0
2.331992310E1,8.539500237E-1,4.711950302E0,7.245000362E0
2.334070772E1,1.378050089E0,4.960950375E0,7.744950294E0
2.336149352E1,1.974000096E0,5.059050083E0,7.936950207E0
2.338227937E1,2.053050041E0,5.463000298E0,7.432050228E0
2.340306534E1,1.972050071E0,5.851050377E0,6.595950127E0
2.342385130E1,1.885950089E0,6.297000408E0,5.964000225E0
2.344463222E1,1.785000086E0,6.655950546E0,5.836950302E0
2.346541315E1,1.800000072E0,6.916950226E0,6.124050140E0
2.348619056E1,1.905000091E0,7.185000420E0,6.487950325E0
2.350696798E1,1.989000082E0,7.483950138E0,6.844950199E0
2.352775213E1,2.071950197E0,7.525050163E0,7.053000450E0
2.354853628E1,2.143949986E0,7.333050251E0,7.573050499E0
2.356931338E1,2.094000101E0,7.240050316E0,8.329950333E0
2.359009046E1,2.520000219E0,7.008000374E0,8.962050438E0
2.361087372E1,2.857950211E0,6.892950535E0,9.025950432E0
2.363165695E1,2.985000134E0,6.771000385E0,9.057000160E0
2.365244244E1,3.069000244E0,6.226950169E0,9.678000450E0
2.367322794E1,3.198000193E0,5.382000446E0,1.090095043E1
2.369400904E1,3.094950199E0,4.731000423E0,1.165800095E1
2.371479016E1,2.599050045E0,4.245000362E0,1.153095055E1
2.373557366E1,1.771050096E0,4.261050224E0,1.074300098E1
2.375635716E1,1.314000010E0,4.435950279E0,9.517050743E0
2.377714347E1,1.291950107E0,4.588950157E0,8.112000465E0
2.379792978E1,1.476000071E0,4.999050140E0,6.526950359E0
2.381869548E1,1.809000134E0,5.272050381E0,5.317950249E0
2.383946122E1,1.816050053E0,5.559000492E0,4.851000309E0
2.386024414E1,1.630050063E0,5.365050316E0,5.160000324E0
2.388102702E1,1.309050083E0,5.158950329E0,5.662050247E0
2.390180640E1,6.889500618E-1,5.200050354E0,6.076950073E0
2.392258579E1,3.130500019E-1,5.250000477E0,6.402000427E0
2.394335738E1,3.289500177E-1,5.322000027E0,6.799950123E0
2.396412896E1,5.160000324E-1,5.557050228E0,7.009950161E0
2.398491742E1,8.350500464E-1,5.770050049E0,7.033950329E0
2.400570583E1,1.138950109E0,6.049950123E0,7.326000214E0
2.402647658E1,1.548000097E0,6.145950317E0,7.783950329E0
2.404724737E1,1.933950067E0,6.160050392E0,8.002050400E0
2.406803403E1,2.158950090E0,6.250950336E0,8.185950279E0
2.408882068E1,2.335950136E0,6.361050129E0,8.334000587E0
2.410959976E1,2.440950155E0,6.427950382E0,8.749050140E0
2.413037884E1,2.365050077E0,6.574050426E0,9.262950897E0
2.415116403E1,2.389050007E0,6.505050182E0,9.712950706E0
2.417194922E1,2.223000050E0,6.571950436E0,9.784950256E0
2.419272910E1,1.852050066E0,6.772950172E0,9.508050919E0
2.421350899E1,1.663050056E0,7.039050102E0,8.992950439E0
2.423429636E1,1.234050035E0,7.252050400E0,8.776950836E0
2.425508370E1,1.063950062E0,7.162950516E0,8.512050629E0
2.427587139E1,9.040500522E-1,6.895050526E0,8.434950829E0
2.429665908E1,7.510500550E-1,6.435000420E0,9.115050316E0
2.431744539E1,5.070000291E-1,5.820000172E0,9.658050537E0
2.433823170E1,2.260500044E-1,5.473050117E0,9.463950157E0
2.435902081E1,-2.059500068E-1,5.502000332E0,8.455950737E0
2.437980993E1,-5.269500017E-1,5.748000145E0,7.623000145E0
2.440059530E1,-4.050000310E-1,5.856000423E0,7.513050556E0
2.442138069E1,-1.290000081E-1,5.854050159E0,7.911000252E0
2.444216789E1,1.789500117E-1,5.599950314E0,8.413050652E0
2.446295508E1,2.700000107E-1,5.290950298E0,8.635950089E0
2.448374044E1,5.160000324E-1,5.011050224E0,8.334000587E0
2.450452582E1,5.520000458E-1,5.128050327E0,7.614000320E0
2.452531449E1,5.400000215E-1,5.317050457E0,6.712950230E0
2.454610314E1,3.319500089E-1,5.617050171E0,6.117000103E0
2.456689259E1,2.149500102E-1,5.695950508E0,6.088950157E0
2.458768210E1,2.380500138E-1,5.664000034E0,6.253950119E0
2.460846768E1,1.210500076E-1,5.800950050E0,5.952000141E0
2.462925326E1,2.805000171E-2,6.121950150E0,5.269950390E0
2.465004385E1,1.450500041E-1,6.522000313E0,4.824000359E0
2.467083443E1,1.590000093E-1,7.029000282E0,4.795950413E0
2.469162185E1,1.810500026E-1,7.209000111E0,5.356050491E0
2.471240927E1,2.239500135E-1,7.276050568E0,5.956950188E0
2.473319696E1,1.429500133E-1,7.381050587E0,6.247050285E0
2.475398466E1,-1.219500080E-1,7.563000202E0,6.517050266E0
2.477476850E1,3.705000132E-2,7.567950249E0,7.128000259E0
2.479555235E1,5.620500445E-1,7.755000591E0,8.072999954E0
2.481633801E1,1.069050074E0,7.525050163E0,9.354000092E0
2.483712366E1,1.663050056E0,7.177950382E0,1.058295059E1
2.485790983E1,2.125050068E0,6.985950470E0,1.082400036E1
2.487869602E1,2.278050184E0,6.892950535E0,1.045095062E1
2.489947647E1,2.560950041E0,6.337050438E0,1.038105011E1
2.492025693E1,2.851050138E0,5.302950382E0,1.074300098E1
2.494104213E1,2.524950027E0,4.642050266E0,1.057095051E1
2.496182732E1,2.175000191E0,4.137000084E0,9.888000488E0
2.498261584E1,1.822950125E0,4.132050037E0,8.574000359E0
2.500340434E1,1.696950078E0,4.491000175E0,6.799950123E0
2.502418277E1,1.630050063E0,5.236050129E0,5.131050110E0
2.504496120E1,1.479000092E0,6.136050224E0,4.089000225E0
2.506574139E1,1.062000036E0,6.796950340E0,4.015050411E0
2.508652158E1,8.710500598E-1,6.799050331E0,4.980000019E0
2.510730790E1,1.102950096E0,6.486000538E0,6.271050453E0
2.512809420E1,1.066950083E0,6.388050079E0,7.321950436E0
2.514887664E1,6.960000396E-1,6.246000290E0,8.116050720E0
2.516965907E1,2.910000086E-1,6.270000458E0,8.016000748E0
2.519043940E1,1.120500043E-1,6.409050465E0,7.978050232E0
2.521121975E1,2.479500175E-1,6.522000313E0,8.100000381E0
2.523200805E1,4.729500115E-1,6.760950089E0,7.887000561E0
2.525279635E1,8.830500245E-1,6.880950451E0,7.165950298E0
2.527358200E1,1.231950045E0,7.027050495E0,6.601050377E0
2.529436766E1,1.507050037E0,7.135050297E0,6.394950390E0
2.531515382E1,1.543050051E0,7.213950157E0,6.634050369E0
2.533593997E1,1.357050061E0,7.257000446E0,6.792000294E0
2.535672365E1,1.195950031E0,7.411950588E0,6.979050159E0
2.537750734E1,1.302000046E0,7.398000240E0,7.273950577E0
2.539829460E1,1.075950027E0,7.393050194E0,7.438950539E0
2.541908187E1,6.220500469E-1,7.510050297E0,7.936950207E0
2.543986540E1,4.800000191E-1,7.591950417E0,8.131050110E0
2.546064895E1,6.000000238E-1,7.731000423E0,8.278950691E0
2.548143188E1,8.059500456E-1,7.510050297E0,8.509050369E0
2.550221480E1,1.021050096E0,6.703950405E0,8.883000374E0
2.552299706E1,9.660000205E-1,5.844000340E0,9.333000183E0
2.554377933E1,6.739500165E-1,5.224050045E0,9.168000221E0
2.556456567E1,-1.480500102E-1,5.358000278E0,8.109000206E0
2.558535201E1,-6.370500326E-1,5.559000492E0,7.494000435E0
2.560613889E1,-7.230000496E-1,5.728950500E0,7.053000450E0
2.562692577E1,-2.970000207E-1,5.878050327E0,6.784950256E0
2.564770640E1,6.979500055E-1,5.818050385E0,7.111050129E0
2.566848702E1,8.779500127E-1,5.526000500E0,7.348050117E0
2.568927908E1,6.570000052E-1,5.182950020E0,7.413000584E0
2.571007111E1,3.150000274E-1,5.077950478E0,6.862050533E0
2.573085722E1,-2.595000155E-2,5.074950218E0,6.337950230E0
2.575164334E1,-2.269500047E-1,5.265000343E0,5.896950245E0
2.577242472E1,-2.779500186E-1,5.335950375E0,5.944950104E0
2.579320611E1,1.000500023E-1,5.455950260E0,5.740950108E0
2.581399088E1,5.569500327E-1,5.596950054E0,5.557050228E0
2.583477565E1,6.649500132E-1,5.824950218E0,5.478000164E0
2.585555275E1,5.929500461E-1,5.992050171E0,5.728950500E0
2.587632987E1,5.809500217E-1,6.225000381E0,6.772950172E0
2.589712076E1,8.200500607E-1,6.246000290E0,7.357950211E0
2.591791164E1,5.140500069E-1,6.346950531E0,7.695000172E0
2.593870214E1,2.580000162E-1,6.498000145E0,7.906050205E0
2.595949265E1,4.060500264E-1,6.462000370E0,8.152050018E0
2.598027817E1,-2.205000073E-2,7.102950573E0,8.731950760E0
2.600106368E1,9.949500561E-1,6.933000565E0,8.952000618E0
2.602185035E1,1.740000099E-1,7.170000553E0,9.766050339E0
2.604263700E1,6.049500108E-1,6.538050175E0,1.083195019E1
2.606342512E1,4.969500303E-1,6.604950428E0,1.085100079E1
2.608421324E1,8.059500456E-1,6.768000126E0,1.029105091E1
2.610499527E1,1.665000081E0,6.105000496E0,1.062105083E1
2.612577732E1,2.668950081E0,5.188050270E0,1.210095024E1
2.614655928E1,1.974000096E0,4.609050274E0,1.270905018E1
2.616734124E1,1.372950077E0,3.559950113E0,1.238295078E1
2.618812629E1,5.400000215E-1,3.109950066E0,1.102605057E1
2.620891136E1,-6.900000572E-2,3.036000252E0,9.274950027E0
2.622969427E1,-9.105000645E-2,3.442950249E0,8.071050644E0
2.625047720E1,3.649500310E-1,3.829950094E0,7.318950176E0
2.627126225E1,6.240000129E-1,4.209000111E0,6.654000282E0
2.629204733E1,4.350000322E-1,4.539000034E0,6.262950420E0
2.631283106E1,2.820000052E-1,4.429050446E0,6.202950478E0
2.633361479E1,3.100500107E-1,4.288050175E0,6.709050179E0
2.635439828E1,2.290500104E-1,4.198950291E0,7.354950428E0
2.637518178E1,4.050000105E-3,4.150950432E0,7.450950146E0
2.639597196E1,-2.389500141E-1,4.225049973E0,7.056000233E0
2.641676211E1,-3.930000067E-1,4.555950165E0,6.390000343E0
2.643754737E1,-6.900000572E-1,5.004000187E0,6.235050201E0
2.645833265E1,-9.649500251E-1,5.401050091E0,6.448050499E0
2.647910583E1,-9.979500771E-1,5.644950390E0,6.816000462E0
2.649987903E1,-7.330500484E-1,5.755050182E0,7.209000111E0
2.652066199E1,-5.550000072E-1,5.740950108E0,7.602000237E0
2.654144495E1,-5.509500504E-1,5.763000488E0,7.894050598E0
2.656223320E1,-6.060000062E-1,5.845950127E0,8.290950775E0
2.658302147E1,-8.280000687E-1,6.109950066E0,8.782050133E0
2.660380581E1,-9.169500470E-1,6.354000092E0,9.112950325E0
2.662459016E1,-7.039500475E-1,6.535950184E0,9.670050621E0
2.664537216E1,-6.060000062E-1,6.811050415E0,1.053495026E1
2.666615417E1,-5.430000424E-1,6.913950443E0,1.142805099E1
2.668693782E1,-5.910000205E-1,7.075050354E0,1.203405094E1
2.670772147E1,-7.830000520E-1,6.874050140E0,1.223505020E1
2.672850490E1,-9.529500604E-1,6.411000252E0,1.143495083E1
2.674928832E1,-9.150000215E-1,5.583000183E0,1.042695045E1
2.677007293E1,-1.458000064E0,4.909950256E0,1.112100029E1
2.679085750E1,-1.015050054E0,4.060050011E0,1.201005077E1
2.681164202E1,-1.245000005E0,3.487950087E0,1.095405006E1
2.683242652E1,-1.788000107E0,3.138000250E0,9.418950081E0
2.685320942E1,-1.963050127E0,3.280050039E0,8.381999969E0
2.687399230E1,-1.531950116E0,3.427950144E0,8.410950661E0
2.689477588E1,-1.104000092E0,3.397050142E0,8.610000610E0
2.691555943E1,-8.070000410E-1,3.373050213E0,8.707950592E0
2.693634640E1,-7.159500122E-1,3.307950258E0,8.670000076E0
2.695713336E1,-6.780000329E-1,3.280050039E0,8.406000137E0
2.697791057E1,-4.980000257E-1,3.285000086E0,8.002050400E0
2.699868781E1,6.000000052E-3,3.226950169E0,7.486950397E0
2.701947069E1,3.409500122E-1,3.258000135E0,7.329000473E0
2.704025357E1,4.759500325E-1,3.181950092E0,7.234950542E0
2.706103501E1,2.239500135E-1,3.201000214E0,6.943050385E0
2.708181644E1,-7.200000435E-2,3.193950176E0,6.457050323E0
2.710259810E1,-1.920000017E-1,3.454950094E0,6.097950459E0
2.712337975E1,-1.720500141E-1,4.090950012E0,5.856000423E0
2.714416252E1,-4.800000042E-2,4.738050461E0,5.883000374E0
2.716494529E1,6.120000482E-1,5.389050484E0,6.045000076E0
2.718572309E1,8.590500355E-1,6.067050457E0,6.394950390E0
2.720650094E1,7.920000553E-1,6.502050400E0,7.104000568E0
2.722727988E1,1.054949999E0,6.568950176E0,7.432050228E0
2.724805880E1,1.644000053E0,6.577050209E0,7.537050247E0
2.726883790E1,1.993050098E0,6.577050209E0,7.987050533E0
2.728961697E1,1.153050065E0,6.184050083E0,9.781050682E0
2.731039838E1,-4.690500200E-1,5.434950352E0,1.164795017E1
2.733117980E1,-1.492050052E0,4.675950050E0,1.283100033E1
2.735196070E1,-2.119050026E0,3.811050177E0,1.380495071E1
2.737274158E1,-2.551950216E0,2.514000177E0,1.468200111E1
2.739352004E1,-3.409050226E0,1.585050106E0,1.529505062E1
2.741429850E1,-4.125000000E0,9.190500379E-1,1.501695061E1
2.743508099E1,-4.519950390E0,7.939500213E-1,1.320405102E1
2.745586349E1,-4.269000053E0,1.222950101E0,1.108800030E1
2.747663897E1,-3.247050047E0,1.441050053E0,9.318000793E0
2.749741448E1,-2.229000092E0,1.836000085E0,8.206950188E0
2.751819323E1,-1.405050039E0,2.338950157E0,7.539000511E0
2.753897200E1,-1.036949992E0,2.827050209E0,6.643950462E0
2.755974741E1,-1.156050086E0,3.070950031E0,6.244050503E0
2.758052280E1,-1.450950027E0,3.232050180E0,6.526950359E0
2.760130085E1,-1.353000045E0,3.331950188E0,7.482000351E0
2.762207889E1,-9.649500251E-1,3.768000126E0,7.930050373E0
2.764286166E1,-7.900500298E-1,4.069950104E0,6.771000385E0
2.766364443E1,-9.910500646E-1,4.612950325E0,5.152050018E0
2.768442226E1,-1.045950055E0,5.166000366E0,4.222949982E0
2.770520012E1,-6.700500250E-1,5.692950249E0,4.065000057E0
2.772598105E1,5.700000376E-2,5.860950470E0,4.554000378E0
2.774676198E1,3.220500052E-1,6.325050354E0,6.249000072E0
2.776753879E1,9.195000678E-2,6.415950298E0,8.119050026E0
2.778831557E1,-8.020500541E-1,6.289050102E0,8.773050308E0
2.780909834E1,-1.566000104E0,6.213000298E0,8.773050308E0
2.782988111E1,-1.843950033E0,6.349050522E0,8.470950127E0
2.785066401E1,-1.984950066E0,6.592950344E0,8.221950531E0
2.787144694E1,-1.834050059E0,6.868950367E0,8.416049957E0
2.789223189E1,-1.795950055E0,6.874050140E0,8.763000488E0
2.791301682E1,-2.089950085E0,6.682050228E0,9.330000877E0
2.793379757E1,-2.610000134E0,6.553050518E0,1.035495090E1
2.795457830E1,-2.635950089E0,6.346950531E0,1.102305031E1
2.797536619E1,-2.872950077E0,6.127050400E0,1.100895023E1
2.799615407E1,-2.964000225E0,5.787000179E0,1.095600033E1
2.801693742E1,-2.658000231E0,5.391000271E0,1.114005089E1
2.803772077E1,-2.278950214E0,4.984050274E0,1.094895077E1
2.805850001E1,-2.248050213E0,4.624950409E0,1.030005074E1
2.807927924E1,-2.253000021E0,4.324050426E0,9.808950424E0
2.810005984E1,-2.209950209E0,4.126950264E0,8.822999954E0
2.812084046E1,-2.241000175E0,4.101000309E0,7.798050404E0
2.814161626E1,-2.239050150E0,4.256999969E0,7.498950481E0
2.816239211E1,-1.807950139E0,4.242000103E0,7.843950272E0
2.818318163E1,-1.369050026E0,4.221000195E0,8.506950378E0
2.820397116E1,-9.769500494E-1,4.170000076E0,8.578950882E0
2.822475610E1,-9.409500360E-1,4.216050148E0,8.152050018E0
2.824554107E1,-1.153950095E0,4.491000175E0,7.377000332E0
2.826632999E1,-9.600000381E-1,4.780950069E0,6.694050312E0
2.828711892E1,-5.719500184E-1,5.062950134E0,6.615000248E0
2.830790090E1,-1.770000011E-1,5.446950436E0,7.065000534E0
2.832868290E1,2.500500083E-1,5.542050362E0,7.033950329E0
2.834945824E1,-6.495000422E-2,5.659950256E0,6.342000484E0
2.837023359E1,-3.540000021E-1,5.985000134E0,5.887050152E0
2.839101687E1,-4.260000288E-1,6.379950523E0,5.940000057E0
2.841180013E1,-4.860000312E-1,6.643950462E0,6.013950348E0
2.843258305E1,-5.100000501E-1,6.747000217E0,6.418950081E0
2.845336598E1,-5.910000205E-1,6.723000526E0,6.931050301E0
2.847414780E1,-1.039050102E0,6.660000324E0,7.027050495E0
2.849492964E1,-1.480050087E0,6.607950211E0,6.783000469E0
2.851571747E1,-1.755000114E0,6.748950481E0,6.910050392E0
2.853650527E1,-1.812000036E0,6.876000404E0,7.393050194E0
2.855728958E1,-1.546950102E0,7.009950161E0,8.326950073E0
2.857807389E1,-1.084950089E0,7.192050457E0,8.461050034E0
2.859885500E1,-7.129500508E-1,7.330950260E0,7.843950272E0
2.861963612E1,-4.305000231E-2,7.314000130E0,7.651950359E0
2.864042054E1,6.570000052E-1,6.610050201E0,8.694000244E0
2.866120496E1,9.930000305E-1,5.578050137E0,1.051605034E1
2.868198527E1,7.339500189E-1,4.882050037E0,1.160295010E1
2.870276558E1,3.340500295E-1,4.351950169E0,1.091295052E1
2.872355536E1,-1.770000011E-1,4.612950325E0,9.535950661E0
2.874434509E1,-7.395000011E-2,5.095050335E0,8.248050690E0
2.876512711E1,5.040000081E-1,5.578050137E0,7.140000343E0
2.878590911E1,9.540000558E-1,6.024000168E0,6.828000546E0
2.880669618E1,1.012050033E0,6.178950310E0,6.952950478E0
2.882748325E1,8.970000148E-1,5.803050041E0,7.176000118E0
2.884827091E1,7.099500299E-1,5.353050232E0,7.920000553E0
2.886905856E1,3.679500222E-1,4.968000412E0,8.313000679E0
2.888984133E1,-1.960500032E-1,4.714050293E0,7.864950180E0
2.891062411E1,-6.030000448E-1,4.897950172E0,7.336050510E0
2.893140629E1,-7.399500608E-1,5.146950245E0,6.970050335E0
2.895218848E1,-8.860500455E-1,5.511000156E0,6.472050190E0
2.897297262E1,-6.799500585E-1,5.848950386E0,6.451950073E0
2.899375677E1,-3.780000210E-1,6.222000122E0,6.763950348E0
2.901454338E1,-2.205000073E-2,6.364050388E0,7.222950459E0
2.903533000E1,3.750000298E-1,6.331950188E0,7.470000267E0
2.905611907E1,4.900500178E-1,6.438000202E0,7.477050304E0
2.907690815E1,5.779500008E-1,6.619950294E0,7.696950436E0
2.909768869E1,5.520000458E-1,6.835050106E0,7.891050339E0
2.911846928E1,1.999500096E-1,7.033950329E0,7.993950367E0
2.913925467E1,1.999500096E-1,7.173000336E0,8.337000847E0
2.916004005E1,3.529500067E-1,7.213950157E0,8.811000824E0
2.918082372E1,3.010500073E-1,7.441050529E0,9.285000801E0
2.920160742E1,2.260500044E-1,7.690050602E0,9.196050644E0
2.922239682E1,3.010500073E-1,7.903050423E0,8.904000282E0
2.924318624E1,4.300500154E-1,7.692000389E0,9.235050201E0
2.926397479E1,4.590000212E-1,6.802050114E0,9.751950264E0
2.928476337E1,2.460000068E-1,5.703000069E0,1.016100025E1
2.930554704E1,-4.570500255E-1,5.169000149E0,1.003695011E1
2.932633074E1,-8.070000410E-1,4.708950043E0,9.328050613E0
2.934711966E1,-1.060950041E0,4.690050125E0,8.229000092E0
2.936790858E1,-9.169500470E-1,4.893000126E0,6.891000271E0
2.938869631E1,-6.510000229E-1,5.224050045E0,6.262950420E0
2.940948404E1,-3.259500265E-1,5.359950066E0,5.950050354E0
2.943026419E1,-2.440500110E-1,5.305050373E0,5.830050468E0
2.945104435E1,-1.270500124E-1,5.206950188E0,6.304050446E0
2.947183092E1,4.560000300E-1,5.085000038E0,7.360050201E0
2.949261749E1,7.510500550E-1,5.011050224E0,7.282950401E0
2.951338700E1,3.679500222E-1,5.011050224E0,6.724950314E0
2.953415655E1,-4.500000179E-2,5.169000149E0,6.463950157E0
2.955494748E1,-2.899500132E-1,5.371950150E0,6.907050133E0
2.957573839E1,1.789500117E-1,5.494050026E0,7.518000126E0
2.959651010E1,6.670500040E-1,5.623950481E0,7.650000572E0
2.961728185E1,1.249050021E0,5.722050190E0,7.539000511E0
2.963806402E1,1.504950047E0,5.866050243E0,7.558950424E0
2.965884616E1,1.456950068E0,5.890050411E0,7.465050220E0
2.967962521E1,1.222950101E0,5.854050159E0,7.420050144E0
2.970040425E1,9.180000424E-1,5.913000107E0,7.708950520E0
2.972117393E1,7.800000310E-1,5.977950096E0,8.218950272E0
2.974194363E1,1.030950069E0,6.148050308E0,8.506950378E0
2.976271445E1,1.393050075E0,6.280050278E0,8.808000565E0
2.978348526E1,1.930950046E0,6.297000408E0,9.025950432E0
2.980427080E1,2.707050085E0,6.298950195E0,8.923050880E0
2.982505629E1,3.325050116E0,6.201000214E0,8.657999992E0
2.984583496E1,3.490050077E0,5.716950417E0,9.961950302E0
2.986661362E1,3.571050167E0,4.594050407E0,1.204800034E1
2.988740175E1,3.364950180E0,3.921000242E0,1.316805077E1
2.990818986E1,2.709000111E0,3.487950087E0,1.295295048E1
2.992896174E1,2.098950148E0,3.355950117E0,1.193805027E1
2.994973363E1,2.230950117E0,3.544950247E0,1.009905052E1
2.997051917E1,2.191950083E0,3.897000074E0,7.519950390E0
2.999130470E1,1.359000087E0,4.153950214E0,6.213000298E0
3.001208639E1,6.769500375E-1,3.510000229E0,6.400050163E0
3.003286808E1,-3.299999982E-2,3.511950254E0,6.442950249E0
3.005365255E1,-1.950000064E-3,2.851050138E0,7.372050285E0
3.007443701E1,-1.827000141E0,4.513050079E0,7.738050461E0
3.009522484E1,-8.520000577E-1,2.497050047E0,7.597050190E0
3.011601264E1,-1.839000106E0,2.884950161E0,8.320050240E0
3.013680192E1,-1.936950088E0,2.905950069E0,8.088000298E0
3.015759120E1,-1.671000123E0,2.269050121E0,8.437050819E0
3.017837719E1,-1.896000147E0,2.770050049E0,8.145000458E0
3.019916320E1,-1.804950118E0,4.303950310E0,1.015605068E1
3.021995253E1,-8.760000467E-1,4.470000267E0,9.559950829E0
3.024074188E1,-6.010500193E-1,4.542000294E0,9.577050209E0
3.026153081E1,-6.799500585E-1,4.696950436E0,9.466950417E0
3.028231973E1,-9.190500379E-1,5.032050133E0,9.582000732E0
3.030308663E1,-1.108950019E0,5.302950382E0,9.285000801E0
3.032385356E1,-1.267050028E0,5.535000324E0,9.473999977E0
3.034463469E1,-1.063050032E0,5.746050358E0,9.970050812E0
3.036541579E1,-8.160000443E-1,6.028050423E0,1.017600060E1
3.038620558E1,-6.220500469E-1,6.294000149E0,1.011795044E1
3.040699539E1,-3.280500174E-1,6.349050522E0,1.070205021E1
3.042778075E1,2.100000083E-1,5.704950333E0,1.171800041E1
3.044856614E1,5.500500202E-1,4.599000454E0,1.191900063E1
3.046934293E1,2.700000107E-1,4.438950062E0,1.119105053E1
3.049011974E1,1.789500117E-1,3.931050301E0,9.862050056E0
3.051091009E1,-1.200000048E-1,3.718050241E0,9.121950150E0
3.053170039E1,1.519500017E-1,3.727050066E0,8.602950096E0
3.055248695E1,3.220500052E-1,3.811050177E0,7.879050255E0
3.057327353E1,1.830000132E-1,4.101000309E0,7.092000484E0
3.059404035E1,2.220000178E-1,4.126950264E0,6.562950134E0
3.061480716E1,6.979500055E-1,4.156050205E0,6.643950462E0
3.063558131E1,1.054949999E0,4.153950214E0,7.176000118E0
3.065635546E1,1.399950027E0,4.125000000E0,7.450950146E0
3.067714173E1,1.729950070E0,4.245000362E0,7.180050373E0
3.069792800E1,1.974000096E0,4.588950157E0,6.490950108E0
3.071870650E1,1.936050057E0,4.804950237E0,6.177000523E0
3.073948500E1,1.986000061E0,4.828950405E0,6.201000214E0
3.076026435E1,1.644000053E0,4.792950153E0,6.439950466E0
3.078104369E1,1.378050089E0,4.708950043E0,6.747000217E0
3.080182478E1,1.462050080E0,4.776000023E0,7.024950504E0
3.082260586E1,1.546050072E0,5.059050083E0,7.195050240E0
3.084339590E1,1.765950084E0,5.212050438E0,7.234950542E0
3.086418594E1,1.462050080E0,5.691000462E0,7.402950287E0
3.088496697E1,1.114950061E0,6.031050205E0,7.446000576E0
3.090574801E1,1.243950009E0,6.213000298E0,7.767000198E0
3.092652984E1,1.713000059E0,6.133950233E0,8.622000694E0
3.094731169E1,2.355000019E0,5.941950321E0,9.550950050E0
3.096809282E1,2.695050240E0,5.739000320E0,1.018995094E1
3.098887394E1,2.415000200E0,5.719950199E0,1.005600071E1
3.100965054E1,2.383949995E0,5.497050285E0,1.005300045E1
3.103042716E1,2.908050060E0,5.035050392E0,1.068795013E1
3.105121668E1,3.825000286E0,4.264050007E0,1.194495010E1
3.107200618E1,4.285050392E0,3.591000080E0,1.269195080E1
3.109279432E1,3.811050177E0,3.316050053E0,1.144005013E1
3.111358252E1,2.383949995E0,3.574050188E0,9.131999969E0
3.113435172E1,1.381050110E0,3.940950155E0,6.961950302E0
3.115512092E1,1.195950031E0,4.278000355E0,6.337950230E0
3.117589988E1,1.597950101E0,4.372050285E0,6.948000431E0
3.119667883E1,1.962000132E0,4.518000126E0,7.696950436E0
3.121744419E1,1.869000077E0,4.222949982E0,8.053950310E0
3.123820954E1,1.191000104E0,4.168050289E0,7.780950546E0
3.125899428E1,9.589500427E-1,4.105950356E0,7.459950447E0
3.127977904E1,8.320500255E-1,4.192049980E0,7.390950203E0
3.130056585E1,8.749500513E-1,4.327950001E0,7.597050190E0
3.132135266E1,1.093050003E0,4.495950222E0,7.671000481E0
3.134213202E1,1.144050002E0,4.732950211E0,7.276050568E0
3.136291141E1,1.242000103E0,5.029950142E0,6.922050476E0
3.138368218E1,1.155000091E0,5.365050316E0,7.020000458E0
3.140445295E1,1.057050109E0,5.631000042E0,7.312050343E0
3.142523725E1,1.117050052E0,5.920950413E0,7.708950520E0
3.144602155E1,1.384950042E0,6.055050373E0,8.515950203E0
3.146680072E1,1.366050124E0,6.133950233E0,9.294000626E0
3.148757992E1,9.330000281E-1,5.899050236E0,1.007505035E1
3.150835734E1,8.059500456E-1,5.710050106E0,1.071405029E1
3.152913476E1,8.680500388E-1,5.830050468E0,1.118805027E1
3.154992506E1,6.139500141E-1,6.154950142E0,1.096305084E1
3.157071536E1,3.340500295E-1,6.390000343E0,1.029795074E1
3.159149660E1,5.860500336E-1,6.346950531E0,1.019505024E1
3.161227784E1,1.026000023E0,5.710050106E0,1.079295063E1
3.163304736E1,1.182000041E0,4.716000080E0,1.125495052E1
3.165381690E1,1.006950021E0,4.060050011E0,1.137495041E1
3.167460485E1,4.519500136E-1,3.640950203E0,1.081695080E1
3.169539281E1,-1.009500027E-1,3.622050285E0,9.591000557E0
3.171617067E1,-2.269500047E-1,3.795000076E0,8.554950714E0
3.173694852E1,2.790000141E-1,3.921000242E0,8.185950279E0
3.175773595E1,1.144050002E0,3.925950289E0,8.204999924E0
3.177852337E1,1.906950116E0,3.952950239E0,7.779000282E0
3.179929688E1,2.001000166E0,4.093950272E0,6.831000328E0
3.182007043E1,1.986000061E0,4.258950233E0,5.976000309E0
3.184085676E1,1.699050069E0,4.530000210E0,5.763000488E0
3.186164303E1,1.735050082E0,4.788000107E0,5.884950161E0
3.188243102E1,1.801950097E0,4.941000462E0,6.316050529E0
3.190321902E1,1.816050053E0,4.992000103E0,6.900000095E0
3.192400540E1,1.711050034E0,5.086950302E0,6.985950470E0
3.194479174E1,1.515000105E0,5.269050121E0,6.733050346E0
3.196556708E1,1.354050040E0,5.521050453E0,6.510000229E0
3.198634244E1,1.311000109E0,5.722050190E0,6.478950500E0
3.200713404E1,1.471950054E0,5.935050488E0,6.826050282E0
3.202792561E1,1.572000027E0,6.172050476E0,7.398000240E0
3.204871615E1,1.387950063E0,6.390000343E0,7.708950520E0
3.206950673E1,1.321050048E0,6.469050407E0,7.935000420E0
3.209028632E1,1.360950112E0,6.610050201E0,7.896000385E0
3.211106590E1,1.342050076E0,6.759000301E0,7.783950329E0
3.213183631E1,2.110949993E0,6.700950146E0,7.972950459E0
3.215260674E1,3.088050127E0,6.558000088E0,8.533050537E0
3.217339643E1,3.693000078E0,5.652000427E0,9.639000893E0
3.219418612E1,3.480000257E0,4.678050041E0,1.110495090E1
3.221496952E1,2.650050163E0,4.087049961E0,1.134405041E1
3.223575291E1,2.022000074E0,3.748950243E0,1.060905075E1
3.225653430E1,1.452000022E0,3.895050287E0,1.059495068E1
3.227731568E1,1.246050000E0,3.925950289E0,1.028595066E1
3.229810141E1,1.402050018E0,3.949950218E0,8.989950180E0
3.231888714E1,1.882950068E0,4.153950214E0,7.630050182E0
3.233967017E1,2.233050108E0,4.177950382E0,7.033950329E0
3.236045325E1,2.142000198E0,3.997950077E0,7.201950550E0
3.238123920E1,1.879050136E0,3.799050093E0,7.326000214E0
3.240202516E1,1.515000105E0,3.808950186E0,7.132050514E0
3.242281027E1,1.086000085E0,3.937950134E0,6.927000523E0
3.244359539E1,7.560000420E-1,4.134000301E0,6.769050121E0
3.246437570E1,3.769500256E-1,4.525050163E0,6.936000347E0
3.248515600E1,6.649500132E-1,4.755000114E0,7.056000233E0
3.250593550E1,7.050000429E-1,5.068050385E0,7.528050423E0
3.252671500E1,8.509500623E-1,5.176050186E0,7.792950153E0
3.254750428E1,1.218000054E0,5.193000317E0,8.193000793E0
3.256829355E1,1.618050098E0,5.382000446E0,8.811000824E0
3.258908645E1,1.776000142E0,5.332050323E0,9.277950287E0
3.260987933E1,1.411950111E0,5.470950127E0,9.598950386E0
3.263066692E1,9.850500226E-1,5.704950333E0,9.871950150E0
3.265145450E1,7.960500121E-1,5.935050488E0,1.018305016E1
3.267224217E1,2.340000123E-1,6.193950176E0,1.072605038E1
3.269302982E1,-3.730500042E-1,6.490050316E0,1.062795067E1
3.271380554E1,-1.440000087E-1,6.622050285E0,1.031700039E1
3.273458128E1,8.250000477E-1,6.052050114E0,1.093200016E1
3.275537237E1,1.278000116E0,4.993950367E0,1.225095081E1
3.277616344E1,6.310500503E-1,4.290000439E0,1.190895081E1
3.279695124E1,-1.410000026E-1,4.221000195E0,9.811950684E0
3.281773905E1,-5.200500488E-1,4.522050381E0,8.032950401E0
3.283851460E1,-9.220500588E-1,4.752000332E0,7.753050327E0
3.285929019E1,-1.255050063E0,4.780950069E0,7.951050282E0
3.288007866E1,-1.645050049E0,4.743000031E0,7.956000328E0
3.290086711E1,-2.005950212E0,4.666050434E0,7.602000237E0
3.292163252E1,-2.053950071E0,4.345050335E0,5.776950359E0
3.294239792E1,-1.518000126E0,4.033950329E0,7.539000511E0
3.296318157E1,-7.230000496E-1,4.197000027E0,8.035050392E0
3.298396521E1,-3.160500228E-1,4.090950012E0,8.212050438E0
3.300474847E1,-1.440000087E-1,3.943050146E0,7.872000217E0
3.302553175E1,3.289500177E-1,4.065000057E0,7.135050297E0
3.304631222E1,8.250000477E-1,4.213950157E0,6.996000290E0
3.306709268E1,6.000000238E-1,4.233000278E0,7.507950306E0
3.308785974E1,-2.820000052E-1,4.762050152E0,7.258950233E0
3.310862682E1,-8.595000207E-2,4.678050041E0,7.333950520E0
3.312940098E1,-2.539499998E-1,5.080050468E0,8.004000664E0
3.315017512E1,-4.360500276E-1,5.190000057E0,8.518950462E0
3.317095938E1,-4.140000343E-1,5.133000374E0,9.072000504E0
3.319174365E1,-4.450500309E-1,5.241000175E0,9.294000626E0
3.321253092E1,-7.159500122E-1,5.182950020E0,9.213000298E0
3.323331819E1,-1.087050080E0,5.350950241E0,9.582000732E0
3.325410431E1,-7.450500131E-1,5.221050262E0,1.011600018E1
3.327489047E1,-1.050000042E-1,5.193000317E0,1.041495037E1
3.329567672E1,1.159500033E-1,5.166000366E0,1.049595070E1
3.331646303E1,7.320000529E-1,5.181000233E0,1.010400009E1
3.333725134E1,1.570050120E0,4.945950031E0,9.622950554E0
3.335803965E1,1.357050061E0,4.394999981E0,9.670050621E0
3.337882733E1,5.950500369E-1,3.739050150E0,9.613050461E0
3.339961502E1,-3.709500134E-1,3.790050268E0,8.698050499E0
3.342040314E1,-7.210500240E-1,4.012050152E0,8.362950325E0
3.344119125E1,-7.039500475E-1,4.264050007E0,8.397000313E0
3.346197647E1,-4.639500082E-1,4.489050388E0,8.145000458E0
3.348276170E1,-1.290000081E-1,4.654050350E0,7.788000584E0
3.350355746E1,5.700000376E-2,4.732950211E0,7.519950390E0
3.352435319E1,3.390000165E-1,4.771050453E0,6.892950535E0
3.354513024E1,3.820500076E-1,4.800000191E0,6.523950100E0
3.356590733E1,2.119500041E-1,4.852950096E0,6.723000526E0
3.358669381E1,-2.205000073E-2,4.948950291E0,6.880950451E0
3.360748026E1,-1.120500043E-1,5.032050133E0,6.958050251E0
3.362826682E1,-2.659500241E-1,5.206950188E0,7.087050438E0
3.364905340E1,-4.519500136E-1,5.515950203E0,7.092000484E0
3.366983386E1,-4.140000343E-1,5.839050293E0,6.898050308E0
3.369061432E1,-3.180000186E-1,6.177000523E0,7.029000282E0
3.371140360E1,-1.960500032E-1,6.367950439E0,7.765050411E0
3.373219286E1,-8.595000207E-2,6.462000370E0,8.277000427E0
3.375298288E1,-3.520500064E-1,6.558000088E0,8.655000687E0
3.377377288E1,-7.249500155E-1,6.778050423E0,8.890050888E0
3.379455807E1,-1.060950041E0,7.039050102E0,9.298950195E0
3.381534326E1,-1.246950030E0,7.302000523E0,9.811950684E0
3.383612371E1,-1.329000115E0,7.582050323E0,1.018800068E1
3.385690417E1,-1.156050086E0,7.783050537E0,1.057095051E1
3.387769146E1,-1.087050080E0,7.539000511E0,1.096095085E1
3.389847869E1,-1.269000053E0,6.931050301E0,1.129605007E1
3.391926578E1,-1.726050138E0,6.346950531E0,1.079805088E1
3.394005290E1,-2.037000179E0,5.884950161E0,1.010895061E1
3.396083995E1,-2.458950043E0,5.557050228E0,9.457050323E0
3.398162699E1,-2.515950203E0,5.377050400E0,8.928000450E0
3.400241781E1,-2.428050041E0,5.218950272E0,8.653050423E0
3.402320862E1,-2.265000105E0,5.032050133E0,8.072999954E0
3.404398918E1,-2.180999994E0,5.029950142E0,7.377000332E0
3.406476976E1,-2.157000065E0,5.020050049E0,6.919050217E0
3.408555394E1,-2.004000187E0,4.897950172E0,7.812000275E0
3.410633809E1,-1.635000110E0,4.633050442E0,8.722050667E0
3.412712795E1,-1.183050036E0,4.426949978E0,8.690999985E0
3.414791779E1,-6.030000448E-1,4.378950119E0,7.911000252E0
3.416869460E1,1.909500062E-1,4.522050381E0,6.754050255E0
3.418947141E1,9.619500637E-1,4.728000164E0,5.482950211E0
3.421026034E1,1.335000038E0,4.791000366E0,5.128050327E0
3.423104925E1,1.021050096E0,4.941000462E0,5.314950466E0
3.425183107E1,7.270500064E-1,5.133000374E0,5.547000408E0
3.427261288E1,4.279500246E-1,5.323950291E0,5.590950489E0
3.429339523E1,-8.400000632E-2,5.503950119E0,6.247050285E0
3.431417758E1,-1.840500087E-1,5.652000427E0,6.514950275E0
3.433496404E1,-1.939500123E-1,5.863050461E0,7.081950188E0
3.435575050E1,-1.360500008E-1,6.031050205E0,7.599000454E0
3.437653506E1,-2.710500062E-1,6.298950195E0,7.864950180E0
3.439731964E1,-1.459500045E-1,6.451950073E0,8.229000092E0
3.441809553E1,3.299999982E-2,6.591000080E0,8.373000145E0
3.443887142E1,3.390000165E-1,6.874050140E0,8.775000572E0
3.445966063E1,1.108050108E0,7.053000450E0,8.964000702E0
3.448044982E1,1.950000048E0,7.089000225E0,9.337950706E0
3.450123153E1,2.152050018E0,6.064050198E0,1.115700054E1
3.452201323E1,1.861950040E0,4.807050228E0,1.332900047E1
3.454280153E1,1.452000022E0,3.763050079E0,1.381695080E1
3.456358984E1,7.720500231E-1,3.631950140E0,1.175595093E1
3.458436921E1,7.129500508E-1,4.054950237E0,9.748950005E0
3.460514860E1,1.366050124E0,4.405050278E0,8.442000389E0
3.462591474E1,1.981950045E0,4.762050152E0,7.306950569E0
3.464668090E1,1.977000117E0,5.166000366E0,6.180000305E0
3.466745741E1,1.426050067E0,5.238000393E0,5.350950241E0
3.468823390E1,8.200500607E-1,5.095050335E0,5.349000454E0
3.470902205E1,6.019500494E-1,4.849950314E0,6.109950066E0
3.472981020E1,4.540500343E-1,4.702050209E0,6.948000431E0
3.475059833E1,1.710000038E-1,4.726050377E0,7.482000351E0
3.477138648E1,-4.305000231E-2,4.896000385E0,7.321950436E0
3.479216675E1,-3.105000220E-2,5.233050346E0,6.780000210E0
3.481294702E1,-4.995000362E-2,5.545050144E0,6.706050396E0
3.483373750E1,8.505000174E-2,5.800950050E0,7.237950325E0
3.485452796E1,1.399500072E-1,5.949000359E0,7.783950329E0
3.487530875E1,5.700000376E-2,6.112050056E0,8.037000656E0
3.489608957E1,1.309500039E-1,6.328050137E0,8.425050735E0
3.491687661E1,2.505000122E-2,6.558000088E0,8.752950668E0
3.493766364E1,-1.395000052E-2,6.871050358E0,8.835000038E0
3.495845429E1,6.105000153E-2,7.123050213E0,9.205950737E0
3.497924495E1,-9.300000221E-2,7.197000504E0,9.919050217E0
3.500003250E1,-2.779500186E-1,7.174950123E0,1.048695087E1
3.502082004E1,-3.040500283E-1,7.357050419E0,1.076205063E1
3.504160866E1,-1.650000066E-1,7.566000462E0,9.985950470E0
3.506239727E1,-1.939500123E-1,7.692000389E0,9.136050224E0
3.508318419E1,-1.150500029E-1,7.228050232E0,8.739000320E0
3.510397112E1,-1.960500032E-1,6.394950390E0,9.214950562E0
3.512475876E1,-5.200500488E-1,5.503950119E0,9.615000725E0
3.514554641E1,-8.449500203E-1,4.872000217E0,9.643950462E0
3.516633147E1,-7.710000277E-1,4.612950325E0,8.998050690E0
3.518711655E1,-3.060000241E-1,4.564949989E0,8.358000755E0
3.520790244E1,1.050000079E-3,4.732950211E0,7.116000175E0
3.522868828E1,1.330500096E-1,4.989000320E0,5.770050049E0
3.524947581E1,3.370500207E-1,5.121000290E0,5.025000095E0
3.527026335E1,6.360000372E-1,5.125950336E0,5.119050026E0
3.529104832E1,7.960500121E-1,5.059050083E0,6.019050121E0
3.531183328E1,1.155000091E0,4.987050056E0,6.948000431E0
3.533262156E1,1.279950023E0,5.041950226E0,7.129950523E0
3.535340983E1,1.191000104E0,5.062950134E0,6.960000515E0
3.537419866E1,1.213050008E0,5.128050327E0,6.736950397E0
3.539498747E1,1.189050078E0,5.308050156E0,6.618000507E0
3.541576311E1,1.041000009E0,5.551950455E0,6.748950481E0
3.543653877E1,7.840500474E-1,5.770050049E0,7.053000450E0
3.545731666E1,8.269500136E-1,5.911050320E0,7.171050549E0
3.547809454E1,7.800000310E-1,6.318000317E0,7.357950211E0
3.549888085E1,8.680500388E-1,6.411000252E0,7.855950356E0
3.551966715E1,1.147950053E0,6.589050293E0,8.004000664E0
3.554044729E1,1.416000009E0,6.817950249E0,8.325000763E0
3.556122741E1,1.231950045E0,6.919050217E0,8.266950607E0
3.558201373E1,1.045050025E0,7.075050354E0,8.104949951E0
3.560280008E1,1.303950071E0,6.933000565E0,8.884950638E0
3.562358579E1,1.383000016E0,6.919050217E0,9.637050629E0
3.564437148E1,1.536000013E0,6.808950424E0,9.811950684E0
3.566516068E1,2.152050018E0,6.613050461E0,9.772950172E0
3.568594987E1,2.833950043E0,6.367950439E0,9.924000740E0
3.570673344E1,3.118950129E0,5.643000126E0,9.850050926E0
3.572751698E1,2.664000034E0,4.965000153E0,9.886050224E0
3.574830502E1,2.077050209E0,4.330950260E0,9.682050705E0
3.576909306E1,1.447950125E0,4.060050011E0,9.345000267E0
3.578987751E1,8.989500403E-1,4.126950264E0,8.430000305E0
3.581066197E1,6.859500408E-1,4.318950176E0,7.125000477E0
3.583144659E1,7.819500566E-1,4.740000248E0,6.127050400E0
3.585223121E1,1.021050096E0,5.065950394E0,5.763000488E0
3.587301919E1,1.122000098E0,5.173950195E0,6.028950214E0
3.589380719E1,1.297050118E0,5.008050442E0,6.622050285E0
3.591459211E1,1.287000060E0,4.861950397E0,7.101000309E0
3.593537700E1,1.159950018E0,4.828950405E0,7.075050354E0
3.595616329E1,9.420000315E-1,4.885950089E0,7.063050270E0
3.597694964E1,7.630500197E-1,5.128050327E0,6.900000095E0
3.599773960E1,6.840000153E-1,5.439000130E0,6.790050507E0
3.601852956E1,7.920000553E-1,5.820000172E0,6.880950451E0
3.603931186E1,7.870500088E-1,6.181950092E0,6.840000153E0
3.606009417E1,9.379500151E-1,6.402000427E0,6.928950310E0
3.608087864E1,1.311000109E0,6.481050491E0,7.645050526E0
3.610166310E1,1.488000035E0,6.442950249E0,8.671950340E0
3.612244696E1,1.171950102E0,6.355950356E0,9.330000877E0
3.614323085E1,8.010000587E-1,6.423000336E0,9.565050125E0
3.616401417E1,4.560000300E-1,6.643950462E0,9.442950249E0
3.618479752E1,3.700500131E-1,6.883050442E0,9.496050835E0
3.620557997E1,3.510000110E-1,7.182000160E0,9.694050789E0
3.622636243E1,2.190000117E-1,7.491000175E0,9.591000557E0
3.624714847E1,9.000000358E-2,7.672950268E0,9.582000732E0
3.626793451E1,-1.219500080E-1,7.603950500E0,1.024695015E1
3.628872137E1,6.000000052E-3,6.756000519E0,1.155495071E1
3.630950826E1,2.670000196E-1,5.671950340E0,1.254105091E1
3.633029921E1,4.110000134E-1,4.728000164E0,1.205700016E1
3.635109017E1,2.700000107E-1,4.009950161E0,1.170300102E1
3.637187905E1,-4.305000231E-2,3.796950102E0,9.955050468E0
3.639266794E1,-3.499500155E-1,4.228050232E0,7.573050499E0
3.641345532E1,-4.290000200E-1,4.609050274E0,5.992950439E0
3.643424270E1,-3.109500110E-1,4.776000023E0,5.574000359E0
3.645502930E1,-1.939500123E-1,4.783050060E0,5.947050095E0
3.647581592E1,1.740000099E-1,4.627950191E0,6.630000114E0
3.649659899E1,6.049500108E-1,4.570050240E0,6.634050369E0
3.651738207E1,7.990500331E-1,4.696950436E0,5.835000515E0
3.653816838E1,1.084050059E0,4.783050060E0,5.341950417E0
3.655895468E1,1.468950033E0,4.884000301E0,5.635950089E0
3.657974022E1,1.464000106E0,4.912950039E0,6.214950085E0
3.660052576E1,1.036050081E0,4.951050282E0,6.766050339E0
3.662130837E1,8.230500221E-1,5.077950478E0,7.084950447E0
3.664209099E1,7.819500566E-1,5.125950336E0,7.300050259E0
3.666287974E1,9.300000668E-1,5.269050121E0,7.434000492E0
3.668366851E1,1.243950009E0,5.538000107E0,7.647000313E0
3.670445544E1,1.663050056E0,5.794050217E0,7.627950191E0
3.672524236E1,1.852050066E0,6.190950394E0,7.546950340E0
3.674600774E1,1.564950109E0,6.558000088E0,7.501050472E0
3.676677314E1,1.282050014E0,6.744000435E0,7.639950275E0
3.678756392E1,1.303950071E0,6.706050396E0,8.338950157E0
3.680835467E1,1.375950098E0,6.694050312E0,9.241950035E0
3.682914142E1,1.764000058E0,6.688950539E0,9.771000862E0
3.684992819E1,2.203950167E0,6.799050331E0,9.912000656E0
3.687071313E1,2.772000074E0,6.816000462E0,9.820950508E0
3.689149805E1,3.294000149E0,6.301050186E0,9.844950676E0
3.691228604E1,3.649950266E0,5.518050194E0,1.038105011E1
3.693307404E1,3.571050167E0,4.714050293E0,1.135395050E1
3.695386085E1,2.917950153E0,4.069950104E0,1.156395054E1
3.697464766E1,2.347950220E0,3.889950275E0,1.059705067E1
3.699543412E1,1.933950067E0,4.044000149E0,8.409000397E0
3.701622059E1,1.372950077E0,4.510050297E0,6.598950386E0
3.703700901E1,1.371000051E0,4.884000301E0,5.722050190E0
3.705779743E1,1.696950078E0,5.098950386E0,5.830050468E0
3.707858441E1,1.914000034E0,4.900950432E0,6.661050320E0
3.709937138E1,1.696950078E0,4.525050163E0,7.657050133E0
3.712015322E1,1.419000030E0,4.441050053E0,7.662000179E0
3.714093507E1,1.033050060E0,4.666050434E0,6.697050095E0
3.716172491E1,7.800000310E-1,4.987050056E0,6.049950123E0
3.718251471E1,8.590500355E-1,5.347950459E0,6.262950420E0
3.720329645E1,8.920500278E-1,5.664000034E0,6.748950481E0
3.722407819E1,8.320500255E-1,6.049950123E0,6.792000294E0
3.724486185E1,5.209500194E-1,6.262950420E0,6.493050098E0
3.726564550E1,4.519500136E-1,6.616950512E0,6.778050423E0
3.728642477E1,5.209500194E-1,6.892950535E0,7.183050156E0
3.730720404E1,6.810000539E-1,7.132050514E0,7.951050282E0
3.732799388E1,4.399500191E-1,7.339950562E0,8.593050003E0
3.734878372E1,-2.110500038E-1,7.573050499E0,8.479949951E0
3.736956844E1,-2.149500102E-1,7.714050293E0,8.773050308E0
3.739035317E1,-6.900000572E-2,7.747050285E0,9.553050041E0
3.741113800E1,-5.239500403E-1,7.822050571E0,1.005600071E1
3.743192281E1,-7.159500122E-1,7.723950386E0,1.010400009E1
3.745270712E1,-5.820000172E-1,7.266000271E0,1.028805065E1
3.747349143E1,-4.519500136E-1,6.696000099E0,1.014195061E1
3.749427481E1,2.700000107E-1,6.121950150E0,1.026405048E1
3.751505820E1,7.440000176E-1,5.787000179E0,1.058295059E1
3.753584369E1,1.165050030E0,5.281050205E0,1.025205040E1
3.755662919E1,1.440000057E0,5.025000095E0,9.043050766E0
3.757741261E1,1.311000109E0,5.040000439E0,7.273950577E0
3.759819603E1,1.239000082E0,5.161950111E0,6.244050503E0
3.761898107E1,1.207950115E0,5.269050121E0,6.378000259E0
3.763976611E1,1.536000013E0,5.182950020E0,6.832950115E0
3.766055245E1,1.660950065E0,5.200050354E0,6.888000488E0
3.768133880E1,1.551000118E0,5.182950020E0,6.486000538E0
3.770212476E1,1.246050000E0,5.131050110E0,6.352050304E0
3.772291072E1,1.195950031E0,5.173950195E0,6.244050503E0
3.774369749E1,1.207950115E0,5.344050407E0,6.289950371E0
3.776448426E1,1.390050054E0,5.406000137E0,6.067050457E0
3.778527107E1,1.303950071E0,5.515950203E0,6.250950336E0
3.780605788E1,1.191000104E0,5.607000351E0,6.442950249E0
3.782684543E1,1.081050038E0,5.727000237E0,6.582000256E0
3.784763297E1,1.239000082E0,5.887050152E0,6.666000366E0
3.786841560E1,1.273050070E0,6.093000412E0,6.919050217E0
3.788919822E1,1.299000025E0,6.342000484E0,6.927000523E0
3.790997977E1,9.850500226E-1,6.619950294E0,6.907050133E0
3.793076127E1,1.004999995E0,6.832950115E0,7.459950447E0
3.795154468E1,1.122000098E0,6.957000256E0,8.044950485E0
3.797232807E1,1.266000032E0,7.089000225E0,8.181000710E0
3.799311330E1,1.387950063E0,7.357050419E0,8.041950226E0
3.801389853E1,1.735050082E0,7.519950390E0,8.133000374E0
3.803468670E1,2.061000109E0,7.276050568E0,8.602950096E0
3.805547485E1,2.257050037E0,6.694050312E0,1.001295090E1
3.807626303E1,2.584950209E0,5.791050434E0,1.136295033E1
3.809705122E1,2.434050083E0,5.158950329E0,1.171305084E1
3.811782934E1,1.990950108E0,4.855050087E0,1.032195091E1
3.813860746E1,1.933950067E0,4.740000248E0,8.892000198E0
3.815939027E1,1.792050123E0,4.900950432E0,8.302950859E0
3.818017307E1,1.594050050E0,4.993950367E0,7.863000393E0
3.820095119E1,1.567050099E0,5.101950169E0,6.900000095E0
3.822172931E1,1.404000044E0,5.277000427E0,6.433050156E0
3.824251292E1,1.345050097E0,5.326950073E0,6.703950405E0
3.826329649E1,1.431000113E0,5.224050045E0,7.077000141E0
3.828408183E1,1.251000047E0,5.197950363E0,7.252050400E0
3.830486718E1,1.122000098E0,5.131050110E0,7.228050232E0
3.832565233E1,8.440500498E-1,5.302950382E0,6.679950237E0
3.834643745E1,7.440000176E-1,5.593050480E0,5.919000149E0
3.836722063E1,8.440500498E-1,5.880000114E0,5.482950211E0
3.838800382E1,9.259500504E-1,6.178950310E0,5.811000347E0
3.840878673E1,1.153050065E0,6.342000484E0,6.259050369E0
3.842956965E1,1.476000071E0,6.445050240E0,6.361050129E0
3.845035491E1,1.720950127E0,6.466950417E0,6.751950264E0
3.847114018E1,1.723050117E0,6.577050209E0,7.530000210E0
3.849192522E1,1.438050032E0,6.772950172E0,8.305950165E0
3.851271026E1,1.063950062E0,7.149000168E0,8.674050331E0
3.853349537E1,1.053000093E0,7.515000343E0,8.626049995E0
3.855428048E1,1.239000082E0,7.687950134E0,8.863950729E0
3.857506339E1,1.237050056E0,7.912950516E0,8.988000870E0
3.859584631E1,1.266000032E0,8.061000824E0,8.727000237E0
3.861662827E1,1.564950109E0,8.035050392E0,8.338950157E0
3.863741024E1,1.891050100E0,7.666050434E0,8.836950302E0
3.865819797E1,1.801950097E0,6.775050163E0,1.037895012E1
3.867898570E1,1.633950114E0,5.935050488E0,1.125105095E1
3.869977139E1,1.084050059E0,5.617050171E0,1.007295036E1
3.872055709E1,9.019500613E-1,5.736000061E0,8.409000397E0
3.874134198E1,6.739500165E-1,5.868000507E0,7.621050358E0
3.876212687E1,5.620500445E-1,5.941950321E0,7.306950569E0
3.878291322E1,4.110000134E-1,5.953950405E0,7.152000427E0
3.880369957E1,2.700000107E-1,5.893950462E0,6.958050251E0
3.882448954E1,6.409500241E-1,5.806050301E0,7.216050148E0
3.884527954E1,1.063950062E0,5.607000351E0,7.927050591E0
3.886606858E1,1.219950080E0,5.403000355E0,8.059050560E0
3.888685762E1,1.138950109E0,5.233050346E0,7.518000126E0
3.890763268E1,1.147950053E0,5.122950077E0,6.733050346E0
3.892840776E1,1.299000025E0,5.230950356E0,6.490950108E0
3.894919039E1,1.452000022E0,5.362950325E0,6.175050259E0
3.896997300E1,1.330050111E0,5.643000126E0,6.180000305E0
3.899075531E1,1.231950045E0,5.901000500E0,6.442950249E0
3.901153762E1,1.375950098E0,6.100050449E0,6.691950321E0
3.903231903E1,1.359000087E0,6.358950138E0,6.712950230E0
3.905310042E1,1.467000127E0,6.684000492E0,6.634050369E0
3.907388705E1,1.744050026E0,6.916950226E0,6.583950520E0
3.909467366E1,1.912050128E0,7.141950130E0,6.757050514E0
3.911546058E1,1.885950089E0,7.321050167E0,6.976950169E0
3.913624751E1,1.495050073E0,7.479000568E0,6.939000130E0
3.915703568E1,1.074000001E0,7.453050137E0,7.635000229E0
3.917782384E1,8.869500160E-1,7.606050491E0,8.515950203E0
3.919860928E1,9.690000415E-1,7.579950333E0,8.569050789E0
3.921939471E1,1.594050050E0,7.494000435E0,8.236050606E0
3.924018299E1,2.335950136E0,7.192050457E0,8.434950829E0
3.926097126E1,2.944050074E0,6.517050266E0,9.085950851E0
3.928175327E1,3.045000076E0,5.890050411E0,9.390000343E0
3.930253532E1,2.824050188E0,5.419950485E0,8.698050499E0
3.932332528E1,2.175000191E0,5.326950073E0,7.836000443E0
3.934411524E1,1.618050098E0,5.370000362E0,7.108950138E0
3.936489849E1,1.210950017E0,5.563950062E0,6.436050415E0
3.938568176E1,1.017000079E0,5.916000366E0,6.079050064E0
3.940646882E1,1.120050073E0,6.229050159E0,5.623950481E0
3.942725586E1,1.585950017E0,6.388050079E0,5.509050369E0
3.944803868E1,1.960050106E0,6.226950169E0,6.144000053E0
3.946882149E1,1.797000051E0,5.988000393E0,6.772950172E0
3.948960378E1,1.093050003E0,5.908950329E0,6.511950493E0
3.951038609E1,4.159500301E-1,5.988000393E0,6.163050175E0
3.953117021E1,5.895000324E-2,6.178950310E0,6.091050148E0
3.955195433E1,-1.360500008E-1,6.519000530E0,6.028950214E0
3.957274076E1,-1.099500060E-1,6.859050274E0,5.919000149E0
3.959352722E1,3.960000277E-1,7.206000328E0,5.938050270E0
3.961431165E1,8.419500589E-1,7.491000175E0,6.334950447E0
3.963509612E1,1.273050070E0,7.555950165E0,7.084950447E0
3.965588134E1,1.591050029E0,7.551000595E0,7.968000412E0
3.967666657E1,1.768050075E0,7.354950428E0,8.892000198E0
3.969745306E1,1.084050059E0,7.501050472E0,9.330000877E0
3.971823956E1,5.760000348E-1,7.513050556E0,9.429000854E0
3.973902306E1,5.760000348E-1,7.678050518E0,9.382950783E0
3.975980656E1,7.579500079E-1,7.951050282E0,9.028950691E0
3.978059531E1,9.619500637E-1,8.164050102E0,8.518950462E0
3.980138408E1,1.345050097E0,8.284049988E0,8.014050484E0
3.982217166E1,1.764000058E0,8.169000626E0,8.097000122E0
3.984295924E1,1.917000055E0,7.489050388E0,8.634000778E0
3.986374527E1,1.479000092E0,6.646050453E0,8.743950844E0
3.988453127E1,9.300000668E-1,6.241050243E0,7.846050262E0
3.990531896E1,8.389500380E-1,6.190950394E0,6.733050346E0
3.992610665E1,8.610000610E-1,6.316050529E0,6.217950344E0
3.994689246E1,7.170000076E-1,6.415950298E0,5.983050346E0
3.996767827E1,5.449500084E-1,6.442950249E0,5.914050102E0
3.998845979E1,4.009500146E-1,6.361050129E0,5.751000404E0
4.000924134E1,4.800000191E-1,6.421050072E0,5.716950417E0
4.003002674E1,7.200000286E-1,6.270000458E0,6.630000114E0
4.005081216E1,1.072050095E0,6.165000439E0,7.554000378E0
4.007159631E1,1.435950041E0,6.028050423E0,8.005949974E0
4.009238047E1,1.357050061E0,6.004050255E0,7.578000546E0
4.011316860E1,1.194000006E0,6.040050507E0,6.654000282E0
4.013395676E1,1.072050095E0,6.189000130E0,6.466950417E0
4.015474518E1,8.779500127E-1,6.397050381E0,6.193950176E0
4.017553360E1,7.150500417E-1,6.610050201E0,5.965950489E0
4.019631652E1,6.360000372E-1,6.691950321E0,6.294000149E0
4.021709944E1,7.510500550E-1,6.754050255E0,6.712950230E0
4.023788410E1,9.949500561E-1,6.897000313E0,6.819000244E0
4.025866875E1,1.231950045E0,7.089000225E0,6.819000244E0
4.027945150E1,1.456950068E0,7.282950401E0,7.398000240E0
4.030023423E1,1.354050040E0,7.423950195E0,7.819950581E0
4.032101698E1,1.045050025E0,7.467000484E0,7.741050243E0
4.034179976E1,9.709500670E-1,7.576950550E0,7.756950378E0
4.036258762E1,1.017000079E0,7.675950527E0,7.930050373E0
4.038337546E1,1.093050003E0,7.779000282E0,7.843950272E0
4.040416024E1,1.500000119E0,7.980000496E0,7.518000126E0
4.042494506E1,2.535000086E0,7.803000450E0,7.762050152E0
4.044572870E1,3.319950104E0,7.162950516E0,8.950050354E0
4.046651236E1,3.250050068E0,6.354000092E0,1.036200047E1
4.048729854E1,2.551050186E0,5.632950306E0,1.052295017E1
4.050808469E1,1.864050031E0,5.629050255E0,8.832000732E0
4.052886654E1,1.962000132E0,5.752950191E0,6.759000301E0
4.054964843E1,2.263950109E0,5.947050095E0,5.485050201E0
4.057043255E1,2.329050064E0,6.091050148E0,4.815000057E0
4.059121666E1,2.269050121E0,6.210000515E0,4.906050205E0
4.061199702E1,2.049000025E0,6.277050495E0,5.406000137E0
4.063277737E1,1.948050141E0,6.262950420E0,5.598000050E0
4.065356579E1,1.785000086E0,6.270000458E0,5.598000050E0
4.067435421E1,1.672950029E0,6.358950138E0,5.622000217E0
4.069513833E1,1.681950092E0,6.418950081E0,5.892000198E0
4.071592248E1,1.455000043E0,6.577050209E0,5.976000309E0
4.073670499E1,1.069050074E0,6.736950397E0,5.992950439E0
4.075748749E1,1.036050081E0,6.904950142E0,5.938050270E0
4.077827057E1,1.342050076E0,7.084050179E0,5.974050522E0
4.079905365E1,1.636950135E0,7.216050148E0,5.944950104E0
4.081983748E1,1.579050064E0,7.369050503E0,6.430950165E0
4.084062133E1,1.455000043E0,7.372050285E0,6.754050255E0
4.086140649E1,7.699500322E-1,7.660950184E0,7.231050491E0
4.088219169E1,3.390000165E-1,7.714050293E0,7.851000309E0
4.090297955E1,2.700000107E-1,7.768950462E0,8.454000473E0
4.092376744E1,4.249500334E-1,7.891050339E0,8.799000740E0
4.094455092E1,8.505000174E-2,8.212050438E0,8.715000153E0
4.096533442E1,-3.810000122E-1,8.688000679E0,7.240050316E0
4.098611570E1,-1.840500087E-1,8.803050041E0,6.555000305E0
4.100689697E1,5.140500069E-1,8.313000679E0,8.181000710E0
4.102767634E1,1.429500133E-1,7.651950359E0,9.994050026E0
4.104845572E1,-5.890500546E-1,7.276050568E0,1.011600018E1
4.106924136E1,-8.239500523E-1,6.988050461E0,1.023105049E1
4.109002701E1,-4.260000288E-1,6.643950462E0,1.025505066E1
4.111081209E1,4.200000316E-2,6.193950176E0,1.032600021E1
4.113159717E1,5.040000081E-1,5.736000061E0,9.666000366E0
4.115238021E1,7.390500307E-1,5.332050323E0,8.200050354E0
4.117316329E1,4.920000136E-1,4.953000069E0,7.330950260E0
4.119394996E1,1.590000093E-1,4.549050331E0,7.245000362E0
4.121473662E1,-4.500000179E-1,4.326000214E0,7.209000111E0
4.123552155E1,-7.210500240E-1,3.337050200E0,6.646050453E0
4.125630648E1,-1.675950050E0,4.361999989E0,7.879050255E0
4.127709019E1,-2.002050161E0,4.410000324E0,7.393050194E0
4.129787388E1,-2.373000145E0,5.101950169E0,8.005949974E0
4.131866202E1,-2.077950001E0,4.387950420E0,8.092950821E0
4.133945014E1,-1.686000109E0,4.470000267E0,7.882050514E0
4.136023834E1,-2.299500108E-1,3.838050127E0,8.197950363E0
4.138102653E1,1.159500033E-1,5.983050346E0,9.289950371E0
4.140181378E1,1.528950095E0,5.205000401E0,8.646000862E0
4.142260101E1,-2.299500108E-1,6.964950562E0,9.819000244E0
4.144338855E1,-1.549050093E0,8.064000130E0,1.005795002E1
4.146417610E1,4.780500233E-1,5.092050076E0,8.542950630E0
4.148495825E1,-1.819500029E-1,5.272050381E0,9.352050781E0
4.150574040E1,-5.149500370E-1,5.538000107E0,9.709050179E0
4.152652883E1,-4.740000367E-1,5.650050163E0,8.503950119E0
4.154731725E1,-6.490500569E-1,5.518050194E0,8.598000526E0
4.156809466E1,-5.770500302E-1,5.241000175E0,1.064205074E1
4.158887210E1,-2.629500031E-1,5.250000477E0,1.129605007E1
4.160965497E1,1.330500096E-1,5.487000465E0,1.014405060E1
4.163043785E1,2.616000175E0,2.968050241E0,7.506000519E0
4.165121159E1,-2.350500077E-1,4.507950306E0,8.593050003E0
4.167198533E1,-4.330500066E-1,4.969950199E0,1.088700008E1
4.169277332E1,6.840000153E-1,4.870050430E0,1.009905052E1
4.171356128E1,9.139500260E-1,5.025000095E0,9.543000221E0
4.173434512E1,9.210000634E-1,4.162950039E0,8.344050407E0
4.175512897E1,9.540000558E-1,3.955050230E0,8.155050278E0
4.177591454E1,1.620000005E-1,4.201950073E0,7.441050529E0
4.179670008E1,-7.540500164E-1,4.113000393E0,7.882050514E0
4.181748775E1,-1.051050067E0,4.531949997E0,8.947050095E0
4.183827544E1,-1.117950082E0,5.008050442E0,9.469050407E0
4.185906159E1,-1.150500029E-1,4.398000240E0,1.038405037E1
4.187984775E1,7.249500155E-1,3.976050138E0,1.076205063E1
4.190062900E1,6.190500259E-1,4.072050095E0,1.056795025E1
4.192141027E1,9.930000305E-1,4.206000328E0,9.900000572E0
4.194219531E1,1.516950130E0,4.394999981E0,9.034049988E0
4.196298035E1,1.699050069E0,4.426949978E0,8.317950249E0
4.198376977E1,1.894950032E0,4.330950260E0,7.711950302E0
4.200455920E1,2.251950026E0,4.144050121E0,7.555950165E0
4.202534145E1,1.759050131E0,4.338000298E0,7.951050282E0
4.204612372E1,1.713000059E0,4.513050079E0,8.872950554E0
4.206691189E1,1.914000034E0,4.489050388E0,8.830050468E0
4.208770004E1,1.861950040E0,4.096050262E0,8.362950325E0
4.210848484E1,1.720950127E0,3.876000166E0,7.870050430E0
4.212926962E1,1.893000126E0,3.985950232E0,7.549050331E0
4.215005656E1,1.672950029E0,4.369050026E0,8.160000801E0
4.217084348E1,1.323000073E0,5.004000187E0,8.920950890E0
4.219163288E1,1.693950057E0,5.260050297E0,8.546999931E0
4.221242226E1,2.152050018E0,5.341050148E0,7.762050152E0
4.223321056E1,2.044049978E0,5.590050220E0,7.705050468E0
4.225399886E1,1.737000108E0,6.205950260E0,8.125950813E0
4.227478453E1,1.696950078E0,6.531000137E0,7.836000443E0
4.229557022E1,1.195950031E0,6.913950443E0,8.191050529E0
4.231635441E1,6.529500484E-1,7.309050560E0,8.698050499E0
4.233713861E1,3.010500073E-1,7.261050224E0,8.575950623E0
4.235792290E1,8.490000367E-1,6.535950184E0,8.550000191E0
4.237870720E1,8.179500103E-1,6.093000412E0,8.476050377E0
4.239949039E1,7.129500508E-1,6.309000492E0,9.151050568E0
4.242027359E1,2.839500010E-1,6.246000290E0,9.910050392E0
4.244106255E1,-6.660000086E-1,6.261000156E0,1.065705013E1
4.246185151E1,3.705000132E-2,4.750050068E0,1.082400036E1
4.248263840E1,6.930000186E-1,3.519000053E0,9.663000107E0
4.250342528E1,2.719500065E-1,3.459000111E0,8.665050507E0
4.252421172E1,-5.550000072E-1,3.754050255E0,8.125950813E0
4.254499818E1,-6.540000439E-1,3.538050175E0,7.480050564E0
4.256579130E1,-9.120000601E-1,3.856950283E0,7.021950245E0
4.258658441E1,-1.116000056E0,3.814050198E0,6.958050251E0
4.260737316E1,-2.111999989E0,4.234950066E0,7.321950436E0
4.262816189E1,-1.695000052E0,3.634050131E0,8.101950645E0
4.264894293E1,-9.720000625E-1,3.273000240E0,8.416049957E0
4.266972402E1,-8.160000443E-1,3.672000170E0,8.397000313E0
4.269051060E1,-1.234950066E0,4.008000374E0,8.381999969E0
4.271129721E1,-5.410500169E-1,3.483000278E0,7.848000526E0
4.273208394E1,-2.073000193E0,4.506000042E0,8.131050110E0
4.275287072E1,-2.559000015E0,4.621050358E0,7.815000534E0
4.277365641E1,-2.527950048E0,4.992000103E0,7.705050468E0
4.279444210E1,-2.149950027E0,5.092050076E0,7.896000385E0
4.281522860E1,-2.674050093E0,5.668950081E0,7.966050148E0
4.283601510E1,-3.076950073E0,6.057000160E0,8.029950142E0
4.285679602E1,-3.139050245E0,6.069000244E0,8.137949944E0
4.287757695E1,-3.475950241E0,6.435000420E0,8.148000717E0
4.289836031E1,-3.591000080E0,6.784950256E0,8.944950104E0
4.291914365E1,-2.752950191E0,6.435000420E0,9.994050026E0
4.293992815E1,-2.445000172E0,6.246000290E0,1.051095009E1
4.296071265E1,-2.571000099E0,6.201000214E0,1.026405048E1
4.298149757E1,-2.599950075E0,6.177000523E0,9.931050301E0
4.300228250E1,-2.421000004E0,6.109950066E0,9.622950554E0
4.302306813E1,-2.557050228E0,5.712000370E0,9.175050735E0
4.304385378E1,-3.012000084E0,5.419950485E0,9.052950859E0
4.306463938E1,-2.659950018E0,4.987050056E0,8.670000076E0
4.308542496E1,-2.116950035E0,4.885950089E0,8.184000015E0
4.310620971E1,-2.191050053E0,5.125950336E0,7.888950348E0
4.312699449E1,-1.819950104E0,5.028000355E0,8.109000206E0
4.314777692E1,-1.459950089E0,4.882050037E0,8.204999924E0
4.316855935E1,-1.222950101E0,4.963050365E0,7.981950283E0
4.318934414E1,-1.269000053E0,4.575000286E0,7.729050159E0
4.321012895E1,-1.650000095E0,4.338000298E0,7.507950306E0
4.323091140E1,-1.729050040E0,4.324050426E0,7.312050343E0
4.325169383E1,-1.750050068E0,4.479000092E0,7.377000332E0
4.327248398E1,-2.077950001E0,4.699950218E0,7.513050556E0
4.329327414E1,-2.095050097E0,4.771050453E0,7.402950287E0
4.331405644E1,-1.798050046E0,4.666050434E0,7.056000233E0
4.333483876E1,-1.891050100E0,4.984050274E0,6.711000443E0
4.335562229E1,-1.960950136E0,5.250000477E0,6.625050545E0
4.337640583E1,-1.924950123E0,5.620950222E0,6.690000534E0
4.339718050E1,-1.993950129E0,5.803050041E0,6.979050159E0
4.341795516E1,-2.515950203E0,6.127050400E0,7.168050289E0
4.343874147E1,-2.773050070E0,5.997000217E0,7.558950424E0
4.345952777E1,-4.000950336E0,6.651000500E0,4.933950424E0
4.348031126E1,-3.333000183E0,6.343950272E0,6.679950237E0
4.350109477E1,-2.646000147E0,6.871050358E0,9.598950386E0
4.352188138E1,-3.555000067E0,7.129950523E0,9.823950768E0
4.354266800E1,-4.312050343E0,6.732000351E0,9.076950073E0
