"Time (s)","Acceleration x (m/s^2)","Acceleration y (m/s^2)","Acceleration z (m/s^2)"
3.156554300E-2,6.921239495E-1,2.228316069E0,7.179664135E0
5.163479200E-2,3.855435550E-1,2.197209358E0,9.629017830E0
7.190812500E-2,-6.415755749E-1,2.003390789E0,1.141735363E1
9.221494800E-2,-1.393221021E0,1.754238129E0,1.080449200E1
1.124550520E-1,-1.639980793E0,1.909771562E0,8.970393181E0
1.327614060E-1,-1.996511340E0,2.601895571E0,7.708777428E0
1.530061980E-1,-2.260020971E0,2.932105064E0,7.967202187E0
1.732731250E-1,-2.415554523E0,3.006581545E0,9.015856743E0
1.935830730E-1,-2.401197433E0,3.099901676E0,1.021795082E1
2.138510420E-1,-2.209771633E0,3.073580742E0,1.076381397E1
2.341256250E-1,-1.642373681E0,3.114258766E0,9.892228127E0
2.543655730E-1,-1.161117196E0,3.281756163E0,8.702396393E0
2.746757290E-1,-1.084546804E0,3.324826956E0,8.168498039E0
2.949494790E-1,-1.153938770E0,3.056830883E0,8.831609726E0
3.151856770E-1,-1.005284667E0,2.460718870E0,9.334401131E0
3.354929690E-1,-7.660023570E-1,2.161317110E0,9.102297783E0
3.557657290E-1,-9.071788788E-1,2.316850424E0,8.685647011E0
3.760036460E-1,-1.053440213E0,2.666501760E0,8.371888161E0
3.962806250E-1,-9.502496719E-1,2.814856768E0,8.805288315E0
4.165820840E-1,-5.123631358E-1,2.585145712E0,9.336793900E0
4.368570840E-1,-3.613162339E-1,2.554039001E0,9.253045082E0
4.570994270E-1,-8.186444640E-1,2.977867842E0,9.073583603E0
4.773860420E-1,-8.449655175E-1,2.961117983E0,9.439684868E0
4.976414060E-1,-5.673980713E-1,2.877070189E0,9.925727844E0
5.179602090E-1,-4.570291340E-1,3.183650494E0,1.026819992E1
5.382187500E-1,-4.785645306E-1,3.406183004E0,1.088106155E1
5.584755210E-1,-6.631109715E-1,3.154936552E0,1.170239830E1
5.787712500E-1,-7.947162390E-1,2.812463999E0,1.234397411E1
5.990143750E-1,-5.243272781E-1,2.654537678E0,1.214028454E1
6.193156250E-1,2.587239444E-1,2.618645191E0,1.108684444E1
6.396289060E-1,9.194421172E-1,2.414956331E0,9.964012146E0
6.598271360E-1,7.112665176E-1,2.158924341E0,9.885049820E0
6.800976560E-1,1.654038578E-1,1.737488389E0,1.042851925E1
7.003718750E-1,3.783650696E-1,1.127019525E0,1.069920731E1
7.206447920E-1,1.348056436E0,6.314060688E-1,1.076859951E1
7.409503130E-1,2.116750717E0,4.974080026E-1,1.083559799E1
7.612242190E-1,2.169392824E0,5.596213937E-1,1.080449200E1
7.814977610E-1,1.609173179E0,5.524429083E-1,1.058405304E1
8.017730730E-1,1.154237866E0,1.836491376E-1,1.007408237E1
8.220419790E-1,8.141579032E-1,1.788634956E-1,9.437292099E0
8.422953650E-1,9.266205430E-1,6.529414654E-1,8.977571487E0
8.625901560E-1,1.369591832E0,1.016949654E0,8.458029747E0
8.828634900E-1,1.352842093E0,1.359123230E0,8.402995110E0
9.031093750E-1,9.481559992E-1,1.471885085E0,8.707182884E0
9.233764060E-1,5.341976285E-1,1.284945726E0,8.628219604E0
9.436827090E-1,1.845464408E-1,1.488634825E0,8.173283577E0
9.639586980E-1,4.429712892E-1,1.888236165E0,7.725526810E0
9.841955730E-1,9.457631707E-1,2.132603168E0,7.488338470E0
1.004483594E0,7.974081635E-1,2.371885538E0,7.313662529E0
1.024777656E0,1.630110443E-1,2.520539522E0,7.383054256E0
1.045050365E0,-2.608176768E-1,2.499004126E0,7.605885983E0
1.065319323E0,-2.751746178E-1,2.566003084E0,8.041678429E0
1.085587552E0,8.883354068E-2,2.767000198E0,8.235497475E0
1.105870052E0,5.533402562E-1,3.085544825E0,8.084749222E0
1.126105990E0,9.314061999E-1,3.322434187E0,7.900203228E0
1.146378698E0,5.267201066E-1,3.312862873E0,8.582756042E0
1.166650573E0,-4.785645306E-1,3.212364435E0,1.007168961E1
1.186961719E0,-9.693922997E-1,2.807678223E0,1.108205891E1
1.207198125E0,-4.809573591E-1,2.702394009E0,1.117807102E1
1.227502761E0,4.860421121E-1,2.824428082E0,1.134796143E1
1.247745521E0,5.940182209E-1,2.700001240E0,1.157288647E1
1.268019115E0,-4.091726840E-1,2.278565407E0,1.140538883E1
1.288290834E0,-1.259222865E0,1.847558141E0,1.118524933E1
1.308600052E0,-1.455434322E0,1.773380637E0,1.130728340E1
1.328836406E0,-1.240080357E0,1.859522343E0,1.181486130E1
1.349110417E0,-7.444669604E-1,1.457528114E0,1.194646645E1
1.369419167E0,-4.402793646E-1,8.997012973E-1,1.183639622E1
1.389689115E0,-6.678966284E-1,9.188438654E-1,1.128096199E1
1.409929011E0,-8.665009141E-1,1.198804140E0,1.074467087E1
1.430237031E0,-4.953143001E-1,1.141376376E0,1.016530895E1
1.450510156E0,1.226321608E-2,1.270588875E0,9.617053032E0
1.470785469E0,1.941177398E-1,1.586740494E0,9.248259544E0
1.491019531E0,6.801598072E-1,1.455135226E0,8.867501259E0
1.511323698E0,4.357928336E-1,1.299302697E0,9.046963692E0
1.531565886E0,-3.780659735E-1,1.246660590E0,9.207581520E0
1.551877552E0,-5.482555032E-1,1.332802176E0,8.721539497E0
1.572113959E0,-2.153540403E-1,1.680060625E0,7.759026527E0
1.592418125E0,2.108674943E-1,2.103889227E0,7.148557663E0
1.612658125E0,4.573282301E-1,2.278565407E0,6.981060028E0
1.632966823E0,3.185445070E-1,2.405385017E0,7.174878597E0
1.653206615E0,-2.967100143E-1,2.467897415E0,7.670492172E0
1.673478177E0,-7.516453862E-1,2.335993052E0,8.350353241E0
1.693784740E0,-4.043870270E-1,1.924427629E0,9.415757179E0
1.714055052E0,2.395813614E-1,1.672882080E0,1.082602692E1
1.734330365E0,2.802593410E-1,1.744666815E0,1.221954727E1
1.754601875E0,-4.570291340E-1,2.288136721E0,1.242293739E1
1.774842084E0,-7.468597889E-1,2.549253464E0,1.152503014E1
1.795116511E0,-5.530411601E-1,2.280958176E0,1.037348461E1
1.815420104E0,-1.698904037E-1,2.304886341E0,9.351150513E0
1.835699896E0,3.209373355E-1,2.331207514E0,8.776574135E0
1.855935521E0,2.036890239E-1,2.053640127E0,9.248259544E0
1.876243854E0,-1.890329868E-1,1.924427629E0,1.006690407E1
1.896483750E0,-2.632104978E-2,1.878664851E0,1.010309505E1
1.916792031E0,4.214358926E-1,1.766202211E0,9.655338287E0
1.937059115E0,1.147059321E0,1.471885085E0,9.633803368E0
1.957338125E0,1.704886079E0,1.115055323E0,1.028255749E1
1.977576563E0,1.309771299E0,9.427721500E-1,1.078774166E1
1.997883594E0,5.485545993E-1,1.129412293E0,1.060558796E1
2.018151511E0,3.185445070E-1,1.438385487E0,1.010548782E1
2.038551511E0,7.184450030E-1,1.488634825E0,9.540184021E0
2.058695781E0,8.404789567E-1,1.342373490E0,8.896215439E0
2.078958906E0,4.525425732E-1,1.421635747E0,8.371888161E0
2.099213334E0,1.199402362E-1,1.308874011E0,8.249854088E0
2.119522188E0,-1.148554832E-1,1.287338614E0,8.130212784E0
2.139760313E0,-1.172483116E-1,1.347159147E0,7.797311783E0
2.160063438E0,-5.554339290E-1,1.596311808E0,7.629814148E0
2.180337136E0,-6.726822853E-1,1.835594058E0,7.648956776E0
2.200575365E0,-4.115654826E-1,1.993819475E0,7.804490089E0
2.220881719E0,-3.924229145E-1,2.091925144E0,8.079963684E0
2.241166459E0,-5.482555032E-1,2.087139606E0,7.723134041E0
2.261432552E0,-7.612167001E-1,2.156531334E0,7.088737011E0
2.281705625E0,-8.186444640E-1,2.419741869E0,7.155735970E0
2.301941511E0,-1.029212832E0,2.592324257E0,8.438887596E0
2.322251615E0,-6.870391965E-1,2.333600283E0,1.004058266E1
2.342487344E0,-4.474578202E-1,2.008176327E0,1.127378368E1
2.362793334E0,-1.366899967E0,1.761416554E0,1.164467144E1
2.383036042E0,-2.183450699E0,1.471885085E0,1.162313557E1
2.403317396E0,-1.728515267E0,8.563314080E-1,1.148674488E1
2.423616667E0,-1.352542996E0,1.668993831E-1,1.153220844E1
2.443855573E0,-1.242473125E0,-2.545365095E-1,1.142213917E1
2.464125938E0,-1.915155411E0,-2.330010980E-1,1.132164001E1
2.484427865E0,-2.286342144E0,-8.434699476E-2,1.222433281E1
2.504690469E0,-1.644766450E0,-4.244269133E-1,1.272712421E1
2.524983229E0,-8.880363107E-1,-1.365404367E0,1.380688572E1
2.545217448E0,-8.473583460E-1,-1.930409670E0,1.281565857E1
2.565512865E0,-1.417149186E0,-1.616650820E0,1.090499020E1
2.585767448E0,-1.386042476E0,-1.439581871E0,1.007408237E1
2.606069427E0,-9.693922997E-1,-8.315058947E-1,8.936893463E0
2.626311250E0,-6.152545214E-1,1.615155302E-2,9.135796547E0
2.646582240E0,-4.833501875E-1,3.768695518E-2,1.039980507E1
2.666891719E0,-3.876372576E-1,-1.058823988E-1,1.089541912E1
2.687163906E0,-5.937191248E-1,-8.985049129E-1,8.826823235E0
2.707404584E0,-4.307080805E-1,-2.248954296E0,6.406184196E0
2.727674375E0,3.065803945E-1,-3.093919754E0,5.812465191E0
2.747979167E0,1.252343535E0,-3.079562664E0,7.103094101E0
2.768252604E0,1.068096161E0,-1.930409670E0,8.017750740E0
2.788498594E0,1.151545867E-1,-1.042074203E0,7.485945702E0
2.808805156E0,-3.254238665E-1,-1.094716311E0,6.573981285E0
2.829042396E0,-1.124626622E-1,-8.099704385E-1,6.870691299E0
2.849313594E0,-1.603191197E-1,2.913261652E-1,8.065607071E0
2.869590938E0,-6.699903309E-2,5.667998791E-1,9.181260109E0
2.889859740E0,1.534397453E-1,2.602194548E-1,9.154939651E0
2.910165469E0,1.486541033E-1,1.136590727E-2,9.803693771E0
2.930435052E0,-4.354937077E-1,2.793620527E-1,1.102941704E1
2.950679792E0,4.815555736E-2,7.151548862E-1,1.131685448E1
2.970981875E0,9.481559992E-1,-3.170489892E-2,1.152503014E1
2.991229479E0,5.365904570E-1,-4.052843451E-1,1.211635685E1
3.011535834E0,-7.468597889E-1,-2.425723970E-1,1.160877895E1
3.031771459E0,-1.074975610E0,1.549352705E-1,1.105095196E1
3.052078959E0,-2.775674164E-1,3.320041299E-1,1.178375435E1
3.072353229E0,1.264307618E0,1.597209126E-1,1.295922852E1
3.092621511E0,2.121536493E0,-4.363910258E-1,1.289940739E1
3.112863490E0,1.508375525E0,-8.171489239E-1,1.227936745E1
3.133171927E0,6.203392744E-1,-8.171489239E-1,1.134796143E1
3.153446771E0,7.351947427E-1,-8.841479421E-1,1.062024403E1
3.173681771E0,1.314556956E0,-5.273182988E-1,1.004058266E1
3.193959063E0,1.905883193E0,-1.707877219E-1,9.198010445E0
3.214257136E0,2.257927179E0,1.980060786E-1,8.209176064E0
3.234501146E0,2.171785593E0,5.667998791E-1,7.735098362E0
3.254801459E0,1.956132531E0,5.404788256E-1,7.804490089E0
3.275083281E0,1.546660781E0,2.817548811E-1,7.988737583E0
3.295321823E0,9.122636318E-1,3.056831062E-1,7.689634800E0
3.315593073E0,4.884349108E-1,6.433702111E-1,6.995417118E0
3.335865938E0,4.022932947E-1,1.083948612E0,6.664908409E0
3.356138906E0,5.389832854E-1,1.404886007E0,6.691229343E0
3.376448386E0,8.859425783E-1,1.505384564E0,6.853941441E0
3.396688177E0,9.361918569E-1,1.677667737E0,7.277770042E0
3.416993802E0,4.621138871E-1,1.955534339E0,7.840382576E0
3.437237344E0,5.054837838E-2,2.213959217E0,8.312067986E0
3.457540834E0,7.926224917E-2,2.566003084E0,8.515457153E0
3.477811615E0,2.802593410E-1,2.740679264E0,9.190832138E0
3.498052084E0,4.908277392E-1,2.776571512E0,1.008604622E1
3.518364375E0,1.510469317E-1,2.721536636E0,1.096002483E1
3.538635052E0,-1.435693540E-2,2.585145712E0,1.168325520E1
3.558890417E0,-1.938186288E-1,2.187638044E0,1.254257774E1
3.579180938E0,-4.761717021E-1,1.904985905E0,1.298794174E1
3.599418386E0,-3.230310678E-1,1.761416554E0,1.243729401E1
3.619722604E0,-9.092725813E-2,1.749452472E0,1.127617645E1
3.639971979E0,-3.278166950E-1,1.780559182E0,1.068245792E1
3.660242031E0,-1.012463093E0,1.847558141E0,1.076142120E1
3.680512656E0,-1.402792215E0,1.658525229E0,1.169521999E1
3.700810990E0,-1.110867858E0,1.402493119E0,1.251625729E1
3.721086406E0,-4.259224236E-1,1.217946768E0,1.215464211E1
3.741358646E0,1.462612897E-1,1.308874011E0,1.070399284E1
3.761599896E0,4.094717801E-1,1.323230863E0,9.509077072E0
3.781873646E0,3.711866140E-1,1.150947690E0,9.171689034E0
3.802183386E0,1.151545867E-1,1.138983607E0,9.351150513E0
3.822454740E0,9.601201117E-2,1.100698471E0,9.320044518E0
3.842695052E0,3.807578981E-1,1.074377418E0,8.508278847E0
3.863000521E0,7.782655358E-1,1.172483087E0,7.473981380E0
3.883240209E0,1.108774185E0,1.268195987E0,7.012166977E0
3.903530052E0,6.203392744E-1,1.474277854E0,6.925725937E0
3.923821094E0,-4.474578202E-1,1.526919961E0,7.275377274E0
3.944087396E0,-5.985047817E-1,1.313659668E0,7.907381535E0
3.964366302E0,-2.440679073E-1,1.479063511E0,8.190033913E0
3.984638438E0,3.185445070E-1,1.715952992E0,8.173283577E0
4.004879375E0,8.572286963E-1,2.151745796E0,8.108677864E0
4.025187031E0,1.106381416E0,2.589931488E0,8.611469269E0
4.045424115E0,7.615157962E-1,2.544467688E0,9.128618240E0
4.065731511E0,3.855435550E-1,2.582752943E0,9.229117393E0
4.086003854E0,3.807578981E-1,3.068794966E0,9.434899330E0
4.106273959E0,8.476574421E-1,3.734298944E0,9.703194618E0
4.126547344E0,1.290628672E0,4.048057556E0,1.003340435E1
4.146820261E0,1.003190875E0,3.971188307E0,1.096002483E1
4.167061771E0,3.831507266E-1,3.355933666E0,1.195364475E1
4.187339115E0,6.227321029E-1,2.414956331E0,1.183400345E1
4.207639740E0,1.245165110E0,1.967498422E0,1.111077309E1
4.227916615E0,1.496411443E0,1.986641049E0,1.070877838E1
4.248157188E0,1.429412484E0,2.067996979E0,1.114457130E1
4.268462031E0,7.998009920E-1,2.096710920E0,1.165693474E1
4.288736094E0,4.286143482E-1,1.718345761E0,1.108923721E1
4.308971094E0,7.615157962E-1,1.416850090E0,1.103180981E1
4.329279323E0,1.290628672E0,1.093519926E0,1.132164001E1
4.349551146E0,1.496411443E0,1.450349569E0,1.105334473E1
4.369824740E0,1.561017632E0,2.273779631E0,9.990333557E0
4.390098334E0,6.562315822E-1,2.300100803E0,8.467600822E0
4.410372552E0,2.392822644E-3,2.577967405E0,7.359126091E0
4.430610834E0,-2.967100143E-1,2.609073877E0,7.450053215E0
4.450918750E0,-7.178468257E-2,2.326421738E0,8.118248940E0
4.471155781E0,2.276172489E-1,1.938784599E0,8.551649094E0
4.491439115E0,2.108674943E-1,1.993819475E0,8.316853523E0
4.511736667E0,2.422732860E-2,2.283350945E0,7.373483181E0
4.532008959E0,-2.297109663E-1,2.455933332E0,6.389434814E0
4.552284115E0,-4.474578202E-1,2.633002281E0,6.047261238E0
4.572523438E0,-3.493520916E-1,2.843570709E0,6.190830231E0
4.592822240E0,-1.076770201E-1,2.997010469E0,6.645765781E0
4.613105156E0,-2.033899277E-1,3.262613773E0,7.457231998E0
4.633377552E0,-4.833501875E-1,3.578765392E0,8.237890244E0
4.653651979E0,-2.057827413E-1,3.676871061E0,8.546863556E0
4.673888438E0,-1.507478207E-1,3.578765392E0,9.003892899E0
4.694192084E0,-6.200401783E-1,3.643371582E0,9.485149384E0
4.714463594E0,-1.390828133E0,3.863511324E0,1.028973579E1
4.734704948E0,-1.460219979E0,4.048057556E0,1.143649578E1
4.754981979E0,-1.137188911E0,3.856332779E0,1.243729401E1
4.775255052E0,-1.371685624E0,3.707977772E0,1.266461182E1
4.795526719E0,-1.766800404E0,3.645764351E0,1.219801140E1
4.815801042E0,-1.680658817E0,3.372683525E0,1.167607689E1
4.836105209E0,-2.164308071E0,3.497409344E0,1.192493057E1
4.856347448E0,-2.312663078E0,3.420539856E0,1.261914825E1
4.876654896E0,-1.433898926E0,2.364706993E0,1.283719444E1
4.896889584E0,-7.612167001E-1,1.610668778E0,1.193450165E1
4.917199375E0,-5.650052428E-1,1.799701691E0,1.011984539E1
4.937439740E0,-1.017248750E0,2.477468729E0,8.956035614E0
4.957733906E0,-9.430712461E-1,2.613859653E0,8.606683731E0
4.978020209E0,-4.666004181E-1,2.321636200E0,8.498707771E0
4.998274948E0,-3.661018610E-1,2.123031855E0,8.099106789E0
5.018566250E0,-6.822535396E-1,2.096710920E0,7.406982422E0
5.038966250E0,-9.095717072E-1,2.146960020E0,7.055237770E0
5.059079427E0,-6.128616929E-1,2.225923300E0,6.526124477E0
5.079382761E0,-5.865406394E-1,2.642573595E0,6.408577442E0
5.099658281E0,-7.468597889E-1,3.008974552E0,7.110272408E0
5.119924115E0,-4.929214716E-1,2.997010469E0,7.438089371E0
5.140204323E0,-3.349951804E-1,2.912962437E0,7.251449108E0
5.160474896E0,-3.708875179E-1,3.018545866E0,7.076773167E0
5.180720573E0,-4.474578202E-1,3.267399311E0,7.277770042E0
5.201023542E0,-6.726822853E-1,3.585943937E0,7.924131393E0
5.221296667E0,-5.721837282E-1,3.650550127E0,8.778966904E0
5.241541198E0,-4.809573591E-1,3.375076294E0,9.511469841E0
5.261806771E0,-9.263214469E-1,3.238685369E0,1.001186943E1
5.282077917E0,-1.259222865E0,3.267399311E0,1.030648518E1
5.302352448E0,-1.055832982E0,3.343969584E0,1.036630630E1
5.322658906E0,-9.526425004E-1,3.547658682E0,1.030648518E1
5.342896354E0,-8.952147961E-1,3.511766434E0,1.025862885E1
5.363206667E0,-1.914258115E-2,2.910569668E0,1.017488003E1
5.383480052E0,5.868397355E-1,2.178066730E0,1.048116112E1
5.403723959E0,7.280163169E-1,1.845165372E0,1.120439243E1
5.423989844E0,7.184450030E-1,1.794916034E0,1.272712421E1
5.444262500E0,4.597210586E-1,1.596311808E0,1.390020561E1
5.464536042E0,8.979067206E-1,7.917252183E-1,1.325862980E1
5.484807031E0,1.400698543E0,5.500500798E-1,1.147238827E1
5.505108334E0,1.352842093E0,1.222732425E0,9.770194054E0
5.525384896E0,9.553344250E-1,1.943570137E0,9.198010445E0
5.545662865E0,6.945167780E-1,2.022533417E0,9.300901413E0
5.565935365E0,8.428717852E-1,1.648953915E0,9.499505997E0
5.586211302E0,8.069794178E-1,1.620239973E0,9.049356461E0
5.606484219E0,6.155536175E-1,1.763809443E0,8.431708336E0
5.626719271E0,4.286143482E-1,1.737488389E0,7.565207958E0
5.647028177E0,2.994019389E-1,1.790130496E0,6.822834492E0
5.667267188E0,1.151545867E-1,1.926820397E0,6.336792469E0
5.687575834E0,8.644071966E-2,2.084746838E0,6.207580090E0
5.707811927E0,1.701895148E-1,2.285743713E0,6.454041004E0
5.728119011E0,-1.603191197E-1,2.743072033E0,6.954440117E0
5.748393021E0,-4.833501875E-1,3.102294445E0,7.493124008E0
5.768666615E0,-4.546362907E-2,3.052045345E0,7.418946743E0
5.788950365E0,5.413761139E-1,3.008974552E0,7.177271366E0
5.809350365E0,5.027918816E-1,3.355933666E0,7.596314430E0
5.829591823E0,-1.076770201E-1,3.741477251E0,8.822037697E0
5.849756667E0,-6.583253145E-1,3.875475407E0,1.014616585E1
5.869998542E0,-7.899305820E-1,3.794119358E0,1.084756279E1
5.890309063E0,-6.631109715E-1,3.640978813E0,1.149392319E1
5.910579844E0,-1.170688510E0,3.396611691E0,1.227936745E1
5.930850209E0,-2.068295956E0,3.288934708E0,1.260718441E1
5.951123594E0,-2.415554523E0,3.119044304E0,1.198953724E1
5.971395521E0,-2.085345030E0,3.040081263E0,1.115414238E1
5.991671250E0,-1.347757339E0,3.253042459E0,1.171675491E1
6.011940677E0,-9.981061220E-1,2.898605585E0,1.316022587E1
6.032180573E0,-1.208973646E0,2.082353830E0,1.356012630E1
6.052485990E0,-1.625623941E0,1.351944804E0,1.233918858E1
6.072761875E0,-1.888834357E0,1.481456280E0,1.035434151E1
6.092998906E0,-1.419542074E0,1.613061547E0,8.975178719E0
6.113273281E0,-7.061817646E-1,1.677667737E0,8.604290962E0
6.133544167E0,-6.032904387E-1,1.989033818E0,8.671290398E0
6.153855990E0,-6.128616929E-1,2.144567251E0,8.917751312E0
6.174123646E0,-3.086741269E-1,1.708774447E0,8.728717804E0
6.194402084E0,-2.991028428E-1,1.471885085E0,8.151748657E0
6.214666823E0,-5.817549825E-1,1.536491275E0,7.656135082E0
6.234913438E0,-7.468597889E-1,1.713560104E0,7.162914753E0
6.255182136E0,-6.990033388E-1,2.082353830E0,7.095915318E0
6.275493698E0,-4.761717021E-1,2.199602127E0,7.177271366E0
6.295764063E0,-3.469592929E-1,2.252244234E0,7.124629498E0
6.316040521E0,-4.857429862E-1,2.455933332E0,6.932904720E0
6.336276198E0,-4.019941986E-1,2.496611357E0,6.755835533E0
6.356555781E0,-2.536391914E-1,2.582752943E0,7.081558704E0
6.376859427E0,-3.804588020E-1,2.867498875E0,7.955237865E0
6.397136146E0,-3.349951804E-1,3.037688255E0,9.231510162E0
6.417405417E0,-3.565305769E-1,2.776571512E0,1.022991467E1
6.437672136E0,-9.957132936E-1,2.951247692E0,1.052183914E1
6.457950990E0,-1.304686546E0,3.303291559E0,1.037587738E1
6.478226042E0,-8.952147961E-1,3.502195120E0,1.036869907E1
6.498492084E0,-7.420741320E-1,3.547658682E0,1.108205891E1
6.518757865E0,-5.721837282E-1,3.389433384E0,1.184118176E1
6.539007604E0,-3.589234054E-1,3.176471949E0,1.165932751E1
6.559315781E0,-4.522434771E-1,3.035295486E0,1.080449200E1
6.579551094E0,-5.291129351E-1,3.269792080E0,1.013420200E1
6.599825625E0,2.662015148E-2,3.174079180E0,1.061545849E1
6.620132865E0,8.021938205E-1,2.333600283E0,1.199671555E1
6.640431302E0,1.513161182E0,1.727917075E0,1.317458248E1
6.660674531E0,1.743171334E0,1.122233868E0,1.283240891E1
6.680949948E0,1.242772222E0,9.044869542E-1,1.151306629E1
6.701224636E0,6.275177598E-1,1.158126116E0,9.865906715E0
6.721465781E0,6.107679605E-1,1.354337573E0,8.479565620E0
6.741739636E0,7.495517135E-1,1.488634825E0,8.007880211E0
6.762042240E0,3.903291821E-1,1.725524187E0,8.297710419E0
6.782317500E0,1.438684613E-1,1.739881158E0,8.817252159E0
6.802568281E0,2.898306549E-1,1.404886007E0,8.589934349E0
6.822863854E0,2.898306549E-1,1.335195065E0,7.473981380E0
6.843105521E0,-2.847459018E-1,1.751845241E0,6.676872253E0
6.863375052E0,-6.391827464E-1,2.173281193E0,6.562016964E0
6.883684948E0,-8.282157183E-1,2.431705952E0,6.770192623E0
6.903942500E0,-8.186444640E-1,2.604288340E0,7.000202656E0
6.924192604E0,-5.171487927E-1,2.795714140E0,7.071987152E0
6.944504115E0,-4.354937077E-1,3.219542980E0,7.057630539E0
6.964742917E0,-4.833501875E-1,3.617050648E0,7.292127132E0
6.985049115E0,-3.182454109E-1,3.696013689E0,7.670492172E0
7.005285729E0,-2.105683982E-1,3.739084482E0,8.091927528E0
7.025593854E0,-4.761717021E-1,3.930510283E0,8.484351158E0
7.045834792E0,-8.090731502E-1,4.186841488E0,8.767003059E0
7.066105625E0,-9.933205247E-1,4.428516388E0,9.396614075E0
7.086414792E0,-6.439684033E-1,4.378267288E0,1.065852928E1
7.106681094E0,-3.852444589E-1,4.052843571E0,1.182682514E1
7.126956094E0,-8.497511148E-1,3.755834341E0,1.171196938E1
7.147232656E0,-1.635195136E0,3.796512127E0,1.062502956E1
7.167469219E0,-1.666301847E0,3.942474365E0,1.016052341E1
7.187780209E0,-9.789635539E-1,3.911367655E0,1.148195934E1
7.208014688E0,-4.283152521E-1,3.473181963E0,1.329212952E1
7.228321563E0,-4.570291340E-1,2.673680305E0,1.356730461E1
7.248596927E0,-1.063011408E0,1.804487348E0,1.214985561E1
7.268870625E0,-1.659123421E0,1.625025630E0,1.007408237E1
7.289107917E0,-1.740479350E0,2.053640127E0,8.505886078E0
7.309412813E0,-1.273579836E0,2.374278307E0,8.120641708E0
7.329653750E0,-8.593224287E-1,2.355135679E0,8.498707771E0
7.349927240E0,-6.463612318E-1,2.278565407E0,8.580363274E0
7.370231511E0,-6.343970895E-1,2.137388945E0,8.127820015E0
7.390506667E0,-6.152545214E-1,2.005783558E0,7.493124008E0
7.410780469E0,-6.296114326E-1,2.036890268E0,7.138986588E0
7.431055729E0,-7.636095285E-1,2.072782516E0,7.323233604E0
7.451303750E0,-6.702894568E-1,2.134995937E0,7.634599686E0
7.471594271E0,-7.133602500E-1,2.431705952E0,7.914559841E0
7.491869219E0,-6.487540603E-1,2.592324257E0,7.904988766E0
7.512141302E0,-5.219344497E-1,2.671287298E0,7.498209000E0
7.532418334E0,-3.493520916E-1,2.874677420E0,7.229913712E0
7.552657813E0,-4.977070987E-1,3.212364435E0,7.464410305E0
7.572933646E0,-7.037889361E-1,3.442075491E0,8.402995110E0
7.593203854E0,-6.176473498E-1,3.461217880E0,9.379864693E0
7.613493021E0,-6.511468887E-1,3.540480137E0,9.932906151E0
7.633780104E0,-9.454640746E-1,3.748655796E0,9.877870560E0
7.654058334E0,-1.225723386E0,4.021736622E0,9.619445801E0
7.674332344E0,-1.118046403E0,4.088735580E0,1.011505985E1
7.694571198E0,1.414756328E-1,3.633800268E0,1.116849995E1
7.714877031E0,1.276271820E0,3.049652576E0,1.156810093E1
7.735113073E0,1.948953986E0,2.487040043E0,1.151785183E1
7.755386719E0,2.279462576E0,2.132603168E0,1.172871971E1
7.775662448E0,1.858026743E0,2.161317110E0,1.198714447E1
7.795932344E0,1.135095239E0,1.984248161E0,1.260239887E1
7.816230313E0,1.068096161E0,1.431207061E0,1.287547970E1
7.836516146E0,1.302592874E0,1.009771109E0,1.201346493E1
7.856751094E0,1.508375525E0,1.031306505E0,1.054576778E1
7.877031875E0,1.704886079E0,1.351944804E0,9.401400566E0
7.897336250E0,1.671386600E0,1.735095501E0,8.491529465E0
7.917592656E0,1.388734460E0,1.912164450E0,7.943274021E0
7.937881927E0,1.111167073E0,1.840379715E0,7.730312824E0
7.958161511E0,7.423732281E-1,1.759023786E0,7.976773262E0
7.978390677E0,4.334000051E-1,1.778166294E0,8.146963120E0
7.998672136E0,9.601201117E-2,1.763809443E0,7.914559841E0
8.018970261E0,-2.943171859E-1,1.996212244E0,7.385447025E0
8.039245625E0,-4.019941986E-1,2.364706993E0,6.935297489E0
8.059519167E0,-1.603191197E-1,2.508575439E0,6.813263416E0
8.079783698E0,-1.124626622E-1,2.738286495E0,7.423732281E0
8.100031042E0,-9.571290761E-2,2.862713099E0,7.835597038E0
8.120311771E0,-1.866401732E-1,2.944069147E0,7.507780075E0
8.140609896E0,-6.200401783E-1,3.384647608E0,7.428517818E0
8.160882969E0,-7.683951855E-1,3.743870020E0,8.312067986E0
8.181151042E0,-2.703889608E-1,3.595515013E0,9.547362328E0
8.201430886E0,-7.896314561E-2,3.492623806E0,1.041176987E1
8.221701511E0,-2.919243574E-1,3.719941854E0,1.079013443E1
8.241969531E0,-3.972085714E-1,3.815654755E0,1.105813122E1
8.262217604E0,-2.799602449E-1,3.602693558E0,1.164945698E1
8.282519792E0,-5.264209956E-2,3.224328518E0,1.175743294E1
8.302770104E0,-6.798607111E-1,3.183650494E0,1.081884861E1
8.323065313E0,-1.639980793E0,3.468396425E0,1.011984539E1
8.343340990E0,-1.814656854E0,3.442075491E0,1.079970551E1
8.363607031E0,-5.961119533E-1,2.889034271E0,1.215464211E1
8.383886719E0,4.501497746E-1,2.285743713E0,1.301904869E1
8.404122604E0,1.175474152E-1,1.912164450E0,1.268854046E1
8.424433438E0,-5.745765567E-1,1.763809443E0,1.087627602E1
8.444698281E0,-6.296114326E-1,1.747059584E0,8.960822105E0
8.464946198E0,-4.905286431E-1,1.833201289E0,7.993523121E0
8.485251511E0,-1.986042857E-1,2.012962103E0,8.027321815E0
8.505490313E0,-9.571290761E-2,2.065604210E0,8.551649094E0
8.525794479E0,-3.062812984E-1,1.919641972E0,9.066405296E0
8.546037604E0,-5.072783828E-1,1.680060625E0,8.829216003E0
8.566342344E0,-6.439684033E-1,1.644168258E0,8.173283577E0
8.586615365E0,-6.822535396E-1,1.761416554E0,7.646564007E0
8.606889063E0,-3.445664644E-1,1.919641972E0,7.543672562E0
8.627164375E0,2.901297435E-2,2.120639086E0,7.639385223E0
8.647399271E0,7.208377868E-2,2.335993052E0,7.804490089E0
8.667674531E0,-2.464607358E-1,2.546860695E0,7.715955734E0
8.687979792E0,-4.666004181E-1,2.558824778E0,7.589136124E0
8.708255365E0,-2.895315289E-1,2.487040043E0,7.569993496E0
8.728524219E0,-1.651047617E-1,2.668894529E0,8.094321251E0
8.748803177E0,-1.435693540E-2,2.802892685E0,8.924929619E0
8.769073490E0,-1.914258115E-2,2.985046148E0,9.485149384E0
8.789349115E0,-2.344966233E-1,3.116651535E0,9.578767776E0
8.809618959E0,-3.254238665E-1,3.054438114E0,9.633803368E0
8.829892604E0,-2.464607358E-1,2.970689297E0,9.906584740E0
8.850162292E0,-3.469592929E-1,3.037688255E0,1.066331482E1
8.870438125E0,-1.028913707E-1,2.731107950E0,1.141017437E1
8.890711979E0,-1.172483116E-1,2.407777786E0,1.152981567E1
8.910983490E0,-2.584248483E-1,2.544467688E0,1.121635628E1
8.931251979E0,2.662015148E-2,2.711965322E0,1.056730270E1
8.951528959E0,1.390828192E-1,2.929712296E0,1.010309505E1
8.971799323E0,5.557330847E-1,2.700001240E0,1.058644581E1
8.992077292E0,1.178166032E0,2.063211441E0,1.194407368E1
9.012347813E0,9.649057388E-1,1.816451430E0,1.299512100E1
9.032586615E0,9.218349457E-1,1.363908887E0,1.238704491E1
9.052891094E0,1.254736423E0,8.443672657E-1,1.072552872E1
9.073135000E0,1.242772222E0,9.738788009E-1,9.071190834E0
9.093405365E0,1.324128270E0,1.390229940E0,8.276175499E0
9.113713021E0,1.290628672E0,1.560419440E0,8.237890244E0
9.133985521E0,1.005583763E0,1.433599830E0,8.431708336E0
9.154259063E0,6.418746710E-1,1.282552958E0,8.350353241E0
9.174534584E0,2.204387933E-1,1.182054400E0,7.948059559E0
9.194773906E0,-2.153540403E-2,1.071984529E0,7.473981380E0
9.215087240E0,-9.571290761E-2,1.158126116E0,6.981060028E0
9.235352084E0,-6.939185411E-2,1.548455358E0,6.657730103E0
9.255589427E0,-6.699903309E-2,1.845165372E0,6.892226696E0
9.275863646E0,-7.178467698E-3,1.866700768E0,7.445267677E0
9.296169688E0,-6.939185411E-2,1.931606054E0,7.785347462E0
9.316409479E0,-1.722832322E-1,2.130210400E0,7.636992455E0
9.336715156E0,-5.147559643E-1,2.592324257E0,7.629814148E0
9.356971042E0,-4.594219327E-1,3.023331404E0,8.101499557E0
9.377263073E0,-3.684946895E-1,3.274577856E0,8.740681648E0
9.397540886E0,-5.048855543E-1,3.564408541E0,9.449256897E0
9.417809479E0,-5.338985324E-1,3.631407499E0,9.880263329E0
9.438094271E0,-9.454640746E-1,3.746263027E0,1.034477043E1
9.458356198E0,-1.522433400E0,3.849154234E0,1.120199966E1
9.478596146E0,-1.220937729E0,3.624228954E0,1.182443237E1
9.498901563E0,-3.852444589E-1,3.322434187E0,1.181725407E1
9.519175729E0,8.644071966E-2,3.154936552E0,1.114457130E1
9.539446042E0,-1.076770201E-1,3.075973511E0,1.123789120E1
9.559686198E0,-6.415755749E-1,2.506182671E0,1.326102352E1
9.579994740E0,-7.157530785E-1,1.354337573E0,1.530090427E1
9.600269427E0,-8.617152572E-1,3.176472187E-1,1.553061581E1
9.620506250E0,-1.235294700E0,1.046859920E-1,1.326341629E1
9.640805209E0,-1.165902853E0,4.615156651E-1,1.077099228E1
9.661084427E0,-7.205387354E-1,7.701897621E-1,9.849157333E0
9.681326615E0,-7.636095285E-1,1.304088354E0,9.971191406E0
9.701627448E0,-7.396813035E-1,1.431207061E0,1.059601688E1
9.721906406E0,-3.397808075E-1,1.117448211E0,1.047398281E1
9.742176615E0,-1.938186288E-1,1.083948612E0,9.310472488E0
9.762417136E0,-2.464607358E-1,1.189232826E0,8.115856171E0
9.782723386E0,-1.124626622E-1,1.196411371E0,7.450053215E0
9.803000834E0,8.644071966E-2,1.347159147E0,7.174878597E0
9.823269792E0,2.874378264E-1,1.620239973E0,7.433303356E0
9.843507031E0,4.525425732E-1,1.696810365E0,7.608278751E0
9.863781354E0,2.635096014E-1,1.840379715E0,7.205985546E0
9.884088906E0,6.969095767E-2,2.017747641E0,6.645765781E0
9.904327084E0,5.772684515E-2,2.115853310E0,6.293721676E0
9.924600729E0,6.969095767E-2,2.312064886E0,6.437291145E0
9.944873177E0,-2.392822644E-3,2.297708035E0,7.249056339E0
9.965148698E0,-3.517449200E-1,2.225923300E0,8.383852005E0
9.985447448E0,-7.468597889E-1,2.228316069E0,9.322437286E0
1.000569047E1,-7.899305820E-1,2.424527645E0,9.506684303E0
1.002596833E1,-4.642075896E-1,2.695215702E0,8.987142563E0
1.004627438E1,-3.852444589E-1,2.924926519E0,9.114261627E0
1.006654380E1,-4.067798331E-2,2.633002281E0,1.028973579E1
1.008681854E1,2.706880569E-1,1.866700768E0,1.117567825E1
1.010709099E1,-2.703889608E-1,1.706381679E0,1.171914768E1
1.012736693E1,-7.157530785E-1,1.979462504E0,1.130249786E1
1.014763531E1,-5.000999570E-1,2.304886341E0,1.008843899E1
1.016790849E1,2.467598319E-1,2.460718870E0,9.530612946E0
1.018818354E1,1.022333503E0,2.166102648E0,1.022273636E1
1.020845719E1,8.739784956E-1,1.816451430E0,1.175025463E1
1.022869609E1,3.400799036E-1,1.246660590E0,1.281326580E1
1.024897328E1,3.329014480E-1,7.701897621E-1,1.188664532E1
1.026927714E1,6.059823632E-1,7.199404836E-1,1.009830952E1
1.028951302E1,9.960124493E-1,1.079162955E0,8.731110573E0
1.030978562E1,1.462911963E0,1.579562068E0,8.465208054E0
1.033009615E1,1.628315806E0,1.680060625E0,8.901000977E0
1.035037141E1,1.252343535E0,1.445564032E0,9.473184586E0
1.037064214E1,6.083751321E-1,1.239482164E0,9.439684868E0
1.039091682E1,2.204387933E-1,1.115055323E0,9.066405296E0
1.041118922E1,1.462612897E-1,9.116654396E-1,8.711968422E0
1.043146162E1,2.228316069E-1,8.467600942E-1,8.225926399E0
1.045170167E1,2.084746659E-1,1.033699393E0,7.737491131E0
1.047200453E1,2.662015148E-2,1.416850090E0,7.663313389E0
1.049224349E1,-2.009970993E-1,1.790130496E0,8.084749222E0
1.051254672E1,-2.440679073E-1,2.060818434E0,8.465208054E0
1.053282469E1,-9.332008660E-2,2.237887383E0,8.149355888E0
1.055309891E1,-2.656033039E-1,2.398206472E0,7.347161770E0
1.057336870E1,-8.688937426E-1,2.762214661E0,7.019345284E0
1.059364641E1,-1.275972724E0,2.922533751E0,7.893024445E0
1.061388323E1,-1.342971683E0,2.896212816E0,9.413364410E0
1.063419016E1,-1.240080357E0,3.080759048E0,1.006929684E1
1.065443198E1,-1.055832982E0,3.363112211E0,1.005972576E1
1.067473875E1,-1.005284667E0,3.473181963E0,1.041894817E1
1.069500792E1,-1.158724308E0,3.116651535E0,1.123310566E1
1.071528339E1,-1.376471281E0,2.585145712E0,1.190818119E1
1.073552234E1,-1.821835399E0,2.379063845E0,1.206371403E1
1.075582745E1,-2.082952023E0,2.343171597E0,1.179811096E1
1.077606693E1,-2.046760559E0,2.154138565E0,1.172154045E1
1.079637552E1,-1.654337764E0,1.708774447E0,1.197278690E1
1.081664563E1,-1.130010486E0,1.292124271E0,1.252582836E1
1.083688922E1,-8.090731502E-1,1.028913736E0,1.278933811E1
1.085719552E1,-3.014956415E-1,7.893323898E-1,1.139342499E1
1.087745417E1,-2.871387079E-2,9.068797827E-1,9.794121742E0
1.089773719E1,2.204387933E-1,1.038485050E0,9.042177200E0
1.091801333E1,4.956133962E-1,9.020941257E-1,9.540184021E0
1.093825167E1,1.845464408E-1,5.931209326E-1,1.044766140E1
1.095855891E1,2.183450572E-2,3.463610709E-1,1.071356392E1
1.097883287E1,4.381856322E-1,8.554340899E-2,9.810872078E0
1.099910323E1,5.099703074E-1,9.990034252E-2,7.596314430E0
1.101937906E1,7.734799385E-1,3.290131316E-2,7.385447025E0
1.103966453E1,6.993024349E-1,1.190429255E-1,8.075178146E0
1.105988745E1,5.054837838E-2,4.854438901E-1,8.288139343E0
1.108019885E1,-4.139583111E-1,5.691927075E-1,8.367102623E0
1.110043891E1,-3.613162339E-1,3.705884218E-1,8.168498039E0
1.112074229E1,-3.661018610E-1,5.069792867E-1,8.091927528E0
1.114101052E1,-3.661018610E-1,5.620142221E-1,9.011071205E0
1.116128406E1,5.389832854E-1,-8.745766878E-1,1.136949635E1
1.118156375E1,2.611167729E-1,-1.446760416E0,1.061785126E1
1.120183141E1,-1.007677436E0,1.812563092E-1,7.351947784E0
1.122207287E1,-1.189831018E0,1.117448211E0,7.742276669E0
1.124234870E1,-7.492526174E-1,8.925228715E-1,8.908179283E0
1.126265510E1,-3.708875179E-1,4.782654345E-1,9.384650230E0
1.128292323E1,-2.584248483E-1,1.645065546E-1,1.064895821E1
1.130317229E1,1.845464408E-1,-4.366901144E-2,1.173350525E1
1.132346969E1,6.753742099E-1,-7.597211599E-1,1.297119236E1
1.134371130E1,4.214358926E-1,-1.355833173E0,1.194168091E1
1.136401896E1,6.538388133E-1,-1.935195327E0,1.112512970E1
1.138425641E1,5.533402413E-2,-2.904288471E-1,1.116132164E1
1.140456219E1,2.898306549E-1,4.016951025E-1,1.123789120E1
1.142484062E1,1.661815286E0,-4.459623098E-1,1.221715450E1
1.144511281E1,1.517946839E0,-3.646063507E-1,1.287547970E1
1.146538693E1,9.649057388E-1,9.511470050E-2,1.185075283E1
1.148565667E1,9.720842242E-1,8.793623000E-2,1.066570759E1
1.150592912E1,8.883354068E-1,3.104687333E-1,9.877870560E0
1.152620495E1,5.892325640E-1,8.276175261E-1,9.339186668E0
1.154647641E1,5.195416212E-1,1.060020447E0,9.131011009E0
1.156674880E1,5.413761139E-1,1.534098387E0,8.814859390E0
1.158702162E1,8.021938205E-1,1.086341500E0,8.144570351E0
1.160729245E1,8.309076428E-1,8.587242365E-1,7.160521984E0
1.162753823E1,1.079761237E-1,1.316052437E0,6.427719593E0
1.164784104E1,-7.612167001E-1,1.648953915E0,6.461518288E0
1.166807750E1,-5.096712112E-1,1.861915112E0,7.019345284E0
1.168838234E1,-2.392822690E-2,1.708774447E0,6.981060028E0
1.170866188E1,-3.445664644E-1,1.799701691E0,6.846762657E0
1.172893495E1,-1.189831018E0,2.247458696E0,6.827620506E0
1.174920870E1,-1.311864972E0,2.446362019E0,7.627421379E0
1.176948016E1,-5.793621540E-1,2.532503605E0,8.029714584E0
1.178972255E1,-3.038884699E-1,2.472683191E0,7.876275063E0
1.181001969E1,-8.090731502E-1,2.671287298E0,9.116654396E0
1.183029885E1,-1.264008522E0,2.714358091E0,9.655338287E0
1.185053526E1,-1.031605721E0,2.575574398E0,1.000229740E1
1.187080932E1,-7.301099896E-1,2.589931488E0,1.032323551E1
1.189111906E1,-5.554339290E-1,2.316850424E0,1.105334473E1
1.191135719E1,-2.536391914E-1,1.720738530E0,1.173829079E1
1.193166005E1,1.007976532E-1,1.354337573E0,1.263589859E1
1.195193412E1,-5.096712112E-1,1.244267821E0,1.303101349E1
1.197221005E1,-1.328614831E0,1.241874933E0,1.312194061E1
1.199248427E1,-1.532004714E0,1.385444283E0,1.295683575E1
1.201275047E1,-1.134796143E0,1.301695466E0,1.277019501E1
1.203299156E1,-6.176473498E-1,1.246660590E0,1.213310623E1
1.205329807E1,-2.895315289E-1,1.153340459E0,1.099591732E1
1.207357458E1,-3.684946895E-1,1.093519926E0,9.880263329E0
1.209384766E1,-5.602195859E-1,1.146162033E0,9.107083321E0
1.211411604E1,-8.306085467E-1,1.119840980E0,9.075976372E0
1.213439578E1,-7.660023570E-1,1.122233868E0,9.513862610E0
1.215466672E1,4.815555736E-2,1.229910851E0,9.925727844E0
1.217490297E1,7.686942816E-1,1.294517040E0,9.952048302E0
1.219520953E1,9.553344250E-1,1.253839016E0,9.463613510E0
1.221548156E1,7.280163169E-1,1.201196909E0,8.556434631E0
1.223576063E1,1.965105534E-1,1.205982566E0,7.670492172E0
1.225599719E1,-3.349951655E-2,1.347159147E0,7.000202656E0
1.227627302E1,5.294119939E-2,1.529312730E0,6.770192623E0
1.229657557E1,1.151545867E-1,1.818844318E0,6.925725937E0
1.231684859E1,1.486541033E-1,2.096710920E0,7.141379356E0
1.233712203E1,1.701895148E-1,2.276172638E0,7.368697166E0
1.235736776E1,5.054837838E-2,2.453540564E0,7.546065331E0
1.237766297E1,-3.230310678E-1,2.465504646E0,7.897810459E0
1.239792651E1,-2.368894368E-1,2.446362019E0,8.347960472E0
1.241821167E1,1.749751568E-1,2.484647274E0,8.987142563E0
1.243861167E1,3.041875660E-1,2.755036116E0,9.636196136E0
1.245872932E1,-3.589234129E-2,2.924926519E0,9.798908234E0
1.247901156E1,-3.517449200E-1,2.961117983E0,9.576375008E0
1.249930630E1,-7.417750359E-2,2.680858612E0,9.660123825E0
1.251958151E1,1.917249113E-1,2.223530531E0,1.015573788E1
1.253981812E1,4.334000051E-1,1.962712765E0,1.077577782E1
1.256012714E1,1.003190875E0,1.761416554E0,1.112752247E1
1.258039599E1,1.269093275E0,1.878664851E0,1.085234833E1
1.260067359E1,1.585245013E0,1.893021822E0,1.085952663E1
1.262094578E1,1.747956991E0,1.409671664E0,1.175504017E1
1.264120583E1,1.331306696E0,1.002592683E0,1.277258778E1
1.266146219E1,1.319342613E0,4.902295470E-1,1.294965744E1
1.268176562E1,1.474876046E0,3.296113312E-1,1.228654575E1
1.270203594E1,1.561017632E0,5.548357368E-1,1.114217854E1
1.272231219E1,2.102393866E0,8.300103545E-1,9.940084457E0
1.274254849E1,2.839682341E0,1.091127157E0,9.262616158E0
1.276282286E1,2.971287489E0,1.194018483E0,9.071190834E0
1.278313182E1,1.994417667E0,1.294517040E0,8.637790680E0
1.280338615E1,9.290133715E-1,1.158126116E0,7.895417213E0
1.282367651E1,9.601201117E-2,1.055234790E0,7.323233604E0
1.284391849E1,-1.890329868E-1,1.122233868E0,7.127022266E0
1.286421922E1,-2.392822644E-3,1.299302697E0,7.395018578E0
1.288445818E1,3.520440459E-1,1.699203134E0,7.787740231E0
1.290475047E1,3.185445070E-1,2.099103689E0,7.969594955E0
1.292503771E1,1.558325738E-1,2.309672117E0,7.782954693E0
1.294531495E1,2.084746659E-1,2.426920414E0,7.459624767E0
1.296558740E1,2.228316069E-1,2.575574398E0,7.359126091E0
1.298586245E1,3.089732230E-1,2.889034271E0,7.502994537E0
1.300612932E1,4.740779996E-1,3.119044304E0,8.106285095E0
1.302640333E1,7.256234884E-1,3.004188776E0,8.929715157E0
1.304664948E1,6.251249313E-1,2.862713099E0,9.590732574E0
1.306691625E1,1.606182158E-1,3.013760090E0,1.008604622E1
1.308722703E1,-2.679961324E-1,3.176471949E0,1.085713387E1
1.310749500E1,6.251249462E-2,3.018545866E0,1.174307632E1
1.312773693E1,6.370890141E-1,2.774178743E0,1.205175018E1
1.314804552E1,5.772684813E-1,2.903391123E0,1.214507008E1
1.316828568E1,5.195416212E-1,2.922533751E0,1.177896881E1
1.318858589E1,6.634100676E-1,2.735893488E0,1.109402275E1
1.320886162E1,1.087238789E0,2.439183474E0,1.161356449E1
1.322913198E1,1.460519075E0,1.893021822E0,1.325862980E1
1.324941068E1,1.070489049E0,1.354337573E0,1.418973732E1
1.326968125E1,2.132603228E-1,1.052842021E0,1.335673618E1
1.328995438E1,-6.939185411E-2,1.000199914E0,1.113978577E1
1.331022188E1,2.659024298E-1,1.115055323E0,9.602696419E0
1.333050255E1,5.437689424E-1,1.294517040E0,9.039784431E0
1.335077229E1,1.558325738E-1,1.584347725E0,9.054141998E0
1.337104912E1,-2.488535494E-1,1.505384564E0,9.231510162E0
1.339128641E1,-3.206382394E-1,1.289731383E0,9.092725754E0
1.341159583E1,-2.536391914E-1,1.325623751E0,8.666504860E0
1.343183089E1,2.922234535E-1,1.440778375E0,8.154141426E0
1.345210339E1,1.031904817E0,1.581954837E0,7.902595997E0
1.347237875E1,9.625129104E-1,1.912164450E0,7.483552933E0
1.349265177E1,4.692923427E-1,2.292922258E0,6.925725937E0
1.351295979E1,1.558325738E-1,2.575574398E0,6.518946171E0
1.353323167E1,6.969095767E-2,2.826820850E0,6.789335251E0
1.355350208E1,4.740779996E-1,2.934497833E0,7.828418255E0
1.357374438E1,8.213363886E-1,2.973082066E0,8.893822670E0
1.359401490E1,9.146564603E-1,3.013760090E0,9.138189316E0
1.361428828E1,6.681957245E-1,2.927319288E0,9.255437851E0
1.363459948E1,4.525425732E-1,2.676073074E0,9.444471359E0
1.365483708E1,3.592225015E-1,2.499004126E0,9.363115311E0
1.367514234E1,-5.742774159E-2,2.731107950E0,9.324830055E0
1.369538375E1,-1.435693540E-2,2.881855726E0,9.265008926E0
1.371568500E1,3.807578981E-1,2.874677420E0,9.578767776E0
1.373592724E1,7.782655358E-1,2.503789902E0,1.068006516E1
1.375623510E1,3.735794425E-1,2.154138565E0,1.150588799E1
1.377650745E1,-2.488535494E-1,2.297708035E0,1.137189007E1
1.379677865E1,9.840483218E-2,2.439183474E0,1.049312592E1
1.381705318E1,6.849454641E-1,2.857927561E0,9.676874161E0
1.383733083E1,1.352842093E0,2.953640461E0,9.296115875E0
1.385756891E1,2.315355062E0,2.075175524E0,9.990333557E0
1.387785651E1,2.490031004E0,1.263410330E0,1.153220844E1
1.389811120E1,1.642672777E0,9.355936646E-1,1.235354519E1
1.391841693E1,5.772684813E-1,1.016949654E0,1.192971611E1
1.393865828E1,3.424727321E-1,1.368694544E0,1.054098225E1
1.395894531E1,1.022333503E0,1.689631939E0,8.836395264E0
1.397924016E1,1.510768414E0,1.933998942E0,7.668099403E0
1.399951260E1,1.460519075E0,2.142174482E0,7.459624767E0
1.401977984E1,9.242277741E-1,2.175673962E0,7.756633759E0
1.404013193E1,7.926224917E-2,2.039283037E0,8.032107353E0
1.406029391E1,-6.846463680E-1,1.926820397E0,7.888238907E0
1.408060422E1,-1.091725349E0,1.945963025E0,7.392625332E0
1.410087870E1,-1.005284667E0,2.146960020E0,7.021738052E0
1.412114865E1,-6.511468887E-1,2.470290184E0,7.141379356E0
1.414142068E1,-3.373879790E-1,2.728715181E0,7.656135082E0
1.416169146E1,-3.302095234E-1,2.867498875E0,7.823632717E0
1.418193406E1,-5.171487927E-1,3.075973511E0,7.706384659E0
1.420223714E1,-3.732803464E-1,3.327219963E0,7.852346420E0
1.422247849E1,1.031904742E-1,3.483052492E0,8.544470787E0
1.424278339E1,3.424727321E-1,3.542873144E0,9.477970123E0
1.426305807E1,4.764707983E-1,3.499802113E0,1.000947666E1
1.428332792E1,5.054837838E-2,3.648157120E0,9.999904633E0
1.430360115E1,-7.947162390E-1,3.774976730E0,1.011745262E1
1.432388068E1,-6.942176819E-1,3.624228954E0,1.071356392E1
1.434415521E1,2.395813614E-1,3.329612732E0,1.151545906E1
1.436442500E1,5.075774789E-1,3.162115097E0,1.208046436E1
1.438466797E1,1.199402362E-1,3.183650494E0,1.207328606E1
1.440497219E1,-9.095717072E-1,3.066402197E0,1.120678520E1
1.442520995E1,-2.178664923E0,2.951247692E0,1.096241760E1
1.444551432E1,-2.252842426E0,2.405385017E0,1.167129135E1
1.446577406E1,-1.113260746E0,2.120639086E0,1.210439205E1
1.448605964E1,-2.392822690E-2,2.491825581E0,1.187228870E1
1.450629948E1,1.278664589E0,2.683251381E0,1.110120201E1
1.452660828E1,2.336890459E0,2.609073877E0,9.865906715E0
1.454688292E1,2.238784790E0,2.683251381E0,9.114261627E0
1.456715219E1,1.501197100E0,2.556432009E0,9.674481392E0
1.458742943E1,1.388734460E0,2.053640127E0,1.039023399E1
1.460769719E1,1.798206210E0,1.797308922E0,1.041655540E1
1.462797037E1,2.169392824E0,1.665703654E0,9.231510162E0
1.464824776E1,1.925025821E0,1.833201289E0,7.490731239E0
1.466852359E1,1.321735382E0,2.101496458E0,6.341578007E0
1.468879240E1,7.734799385E-1,2.091925144E0,5.970690727E0
1.470906906E1,2.467598319E-1,2.149353027E0,6.430112839E0
1.472933953E1,-1.938186288E-1,2.292922258E0,7.024130821E0
1.474961594E1,-5.434698462E-1,2.470290184E0,7.143772125E0
1.476988516E1,-8.976075649E-1,2.731107950E0,7.016952515E0
1.479012333E1,-1.086939692E0,2.951247692E0,7.466803074E0
1.481043052E1,-7.803592682E-1,2.783750057E0,8.276175499E0
1.483067010E1,-1.914258152E-1,2.580360174E0,8.798110008E0
1.485097578E1,-1.579262912E-1,2.776571512E0,8.575576782E0
1.487121792E1,-5.072783828E-1,3.133401155E0,8.106285095E0
1.489152635E1,-3.182454109E-1,3.339184046E0,7.802097321E0
1.491179974E1,3.855435550E-1,3.396611691E0,8.194819450E0
1.493206797E1,1.144666553E0,3.013760090E0,9.291330338E0
1.495234359E1,1.601994753E0,2.499004126E0,1.031605625E1
1.497261885E1,1.671386600E0,2.379063845E0,1.166411304E1
1.499285380E1,1.731207132E0,2.814856768E0,1.251865005E1
1.501316073E1,2.470888376E0,2.924926519E0,1.257847023E1
1.503340036E1,3.244368315E0,2.929712296E0,1.192253780E1
1.505371026E1,3.332902908E0,2.905783892E0,1.108923721E1
1.507398047E1,2.837289333E0,2.671287298E0,1.155613708E1
1.509425531E1,2.344068766E0,2.008176327E0,1.246122169E1
1.511449417E1,1.824527264E0,1.639382601E0,1.241815090E1
1.513479667E1,1.443769336E0,1.756630898E0,1.125942707E1
1.515507344E1,1.192523003E0,1.945963025E0,9.518648148E0
1.517534875E1,1.077667475E0,2.190030813E0,8.221140862E0
1.519558823E1,1.606780410E0,2.106282234E0,7.881060600E0
1.521589083E1,2.044667006E0,2.000998020E0,7.940881252E0
1.523616771E1,1.714457393E0,1.943570137E0,8.022536278E0
1.525643786E1,4.788636267E-1,1.857129455E0,7.936095238E0
1.527668401E1,-5.243272781E-1,1.826022744E0,7.514958382E0
1.529694974E1,-4.235295951E-1,1.708774447E0,6.779763699E0
1.531722953E1,-7.178468257E-2,1.842772484E0,6.432505608E0
1.533749469E1,1.917249113E-1,2.235494614E0,7.043273449E0
1.535778859E1,4.334000051E-1,2.460718870E0,7.792526245E0
1.537807688E1,2.491526604E-1,2.589931488E0,8.010272980E0
1.539832542E1,-2.225325108E-1,2.927319288E0,7.751848221E0
1.541862531E1,-5.338985324E-1,3.104687452E0,7.761419296E0
1.543902531E1,-3.996013701E-1,3.095116138E0,8.597112656E0
1.545913458E1,-1.938186288E-1,3.145365477E0,9.516255379E0
1.547944224E1,-4.546363056E-1,3.523730516E0,1.001904774E1
1.549971479E1,-5.554339290E-1,3.839582920E0,1.009083176E1
1.551995266E1,-1.842473447E-1,3.691227913E0,1.029930687E1
1.554026255E1,-5.578267574E-1,3.332005501E0,1.105095196E1
1.556050406E1,-9.909276962E-1,3.080759048E0,1.167846966E1
1.558080490E1,-7.157530785E-1,2.853141785E0,1.160638618E1
1.560104740E1,-5.386841893E-1,2.970689297E0,1.084756279E1
1.562131943E1,-3.158525825E-1,2.872284412E0,1.056730270E1
1.564163099E1,-3.948157430E-1,2.702394009E0,1.115892887E1
1.566190026E1,-1.053440213E0,2.494218588E0,1.203500080E1
1.568217073E1,-1.498505235E0,2.089532375E0,1.194168091E1
1.570244734E1,-1.491326690E0,1.852343798E0,1.100309563E1
1.572271964E1,-6.535396576E-1,1.847558141E0,1.034477043E1
1.574295964E1,2.467598319E-1,1.782951951E0,1.034477043E1
1.576326667E1,4.836492836E-1,1.799701691E0,1.030887794E1
1.578366667E1,3.687937856E-1,1.672882080E0,1.017248726E1
1.580378219E1,2.108674943E-1,1.505384564E0,9.700801849E0
1.582408714E1,4.046861231E-1,1.558026671E0,9.018249512E0
1.584432328E1,5.724828243E-1,1.699203134E0,8.154141426E0
1.586462823E1,2.419741899E-1,1.837986946E0,7.473981380E0
1.588490172E1,-3.110669553E-1,1.960319996E0,7.076773167E0
1.590517693E1,-7.037889361E-1,2.032104731E0,7.007380962E0
1.592545193E1,-6.128616929E-1,1.926820397E0,6.964011192E0
1.594568995E1,-3.828516304E-1,1.876272082E0,6.533303261E0
1.596599391E1,-6.822535396E-1,2.264208317E0,5.879464149E0
1.598623370E1,-1.010070205E0,2.704786777E0,5.680860043E0
1.600650599E1,-1.120439172E0,2.920140982E0,6.727121830E0
1.602678089E1,-7.468597889E-1,2.987439156E0,8.312067986E0
1.604708557E1,-6.176473498E-1,3.049652576E0,9.901799202E0
1.606733042E1,-1.244866014E0,3.217149973E0,1.083081245E1
1.608763505E1,-1.762014747E0,3.389433384E0,1.081167030E1
1.610790250E1,-1.438684583E0,3.470789194E0,1.018923664E1
1.612817688E1,-8.521439433E-1,3.334398270E0,1.021795082E1
1.614845469E1,-4.091726840E-1,2.924926519E0,1.101266670E1
1.616872672E1,-6.439684033E-1,2.609073877E0,1.184118176E1
1.618896453E1,-1.491326690E0,2.642573595E0,1.184357452E1
1.620927453E1,-1.515254974E0,2.606681108E0,1.086191940E1
1.622954432E1,-5.530411601E-1,2.506182671E0,1.006690407E1
1.624978188E1,3.113660514E-1,2.278565407E0,1.004297543E1
1.627009427E1,6.011967063E-1,2.096710920E0,1.118046379E1
1.629036287E1,1.003190875E0,1.761416554E0,1.275344563E1
1.631063776E1,1.283450246E0,1.464706540E0,1.287069416E1
1.633087458E1,1.192523003E0,1.435992718E0,1.186750317E1
1.635117984E1,1.202094316E0,1.363908887E0,1.029452133E1
1.637142021E1,1.654636860E0,1.467099428E0,9.186046600E0
1.639173151E1,1.865205288E0,1.682453394E0,8.850751877E0
1.641200406E1,1.474876046E0,1.756630898E0,8.984749794E0
1.643227474E1,7.686942816E-1,1.689631939E0,9.329615593E0
1.645255162E1,3.305086195E-1,1.620239973E0,9.300901413E0
1.647282260E1,2.730808854E-1,1.646561027E0,8.656932831E0
1.649306000E1,3.065803945E-1,1.763809443E0,7.773383617E0
1.651336667E1,4.094717801E-1,1.914856315E0,6.988238335E0
1.653364281E1,4.262215197E-1,2.249851465E0,6.636194706E0
1.655390969E1,6.466603279E-1,2.458326101E0,6.940083027E0
1.657415135E1,8.309076428E-1,2.491825581E0,7.148557663E0
1.659445708E1,5.509474277E-1,2.733500719E0,6.796513557E0
1.661473021E1,2.563311160E-1,3.016152859E0,6.535696030E0
1.663500328E1,2.252244353E-1,3.111865759E0,6.741478920E0
1.665524281E1,1.438684613E-1,3.068794966E0,7.505387306E0
1.667551958E1,-1.124626622E-1,3.047259569E0,8.743074417E0
1.669582521E1,-2.608176768E-1,3.116651535E0,9.669695854E0
1.671609177E1,-4.929214716E-1,3.248256683E0,9.803693771E0
1.673633646E1,-7.229315639E-1,3.396611691E0,9.444471359E0
1.675663870E1,-7.516453862E-1,3.442075491E0,9.758230209E0
1.677688417E1,-5.673980713E-1,3.406183004E0,1.100788116E1
1.679719568E1,-3.613162339E-1,3.291327477E0,1.234397411E1
1.681746135E1,-3.828516304E-1,3.205185890E0,1.255932808E1
1.683773260E1,-6.224330068E-1,3.133401155E0,1.241815090E1
1.685797521E1,-2.823530734E-1,2.644966364E0,1.295683575E1
1.687824901E1,-7.178467698E-3,1.919641972E0,1.360798264E1
1.689851906E1,-1.363908947E-1,1.409671664E0,1.331605816E1
1.691882182E1,-4.426721931E-1,1.256231904E0,1.169521999E1
1.693910167E1,-2.225325108E-1,1.366301775E0,9.964012146E0
1.695933979E1,2.371885478E-1,1.347159147E0,9.494720459E0
1.697964880E1,2.874378264E-1,1.378265858E0,9.935298920E0
1.699991714E1,2.228316069E-1,1.246660590E0,9.849157333E0
1.702019125E1,2.682952285E-1,1.277767301E0,9.085547447E0
1.704044583E1,3.568296731E-1,1.390229940E0,8.331210136E0
1.706070823E1,1.797607988E-1,1.457528114E0,7.852346420E0
1.708101276E1,-2.416750938E-1,1.548455358E0,7.773383617E0
1.710128599E1,-4.905286431E-1,1.636989832E0,7.713562965E0
1.712155745E1,-3.302095234E-1,1.706381679E0,7.598707199E0
1.714180604E1,-1.435693651E-1,1.904985905E0,7.541279793E0
1.716206870E1,1.226321608E-2,2.099103689E0,7.627421379E0
1.718234412E1,-1.028913707E-1,2.228316069E0,7.514958382E0
1.720265234E1,-4.474578202E-1,2.321636200E0,7.028916359E0
1.722292578E1,-4.235295951E-1,2.386242390E0,7.244270325E0
1.724316656E1,1.226321608E-2,2.510968208E0,8.707182884E0
1.726347229E1,3.831507266E-1,2.510968208E0,1.015573788E1
1.728373917E1,2.180459648E-1,2.561217546E0,1.049791145E1
1.730402078E1,-6.080760360E-1,2.755036116E0,9.995119095E0
1.732428635E1,-1.197009563E0,2.951247692E0,9.703194618E0
1.734453078E1,-8.928219676E-1,2.951247692E0,9.937691689E0
1.736483724E1,2.300100774E-1,2.826820850E0,1.074227810E1
1.738507844E1,1.142273664E0,2.568396091E0,1.210199928E1
1.740538151E1,4.429712892E-1,2.424527645E0,1.218126202E1
1.742562130E1,-4.522434771E-1,2.707179785E0,1.059840965E1
1.744589255E1,-2.632104978E-2,2.723929405E0,9.396614075E0
1.746617031E1,5.461617708E-1,2.635395050E0,1.001904774E1
1.748643745E1,2.635096014E-1,2.271386862E0,1.200150108E1
1.750674599E1,-7.178468257E-2,1.464706540E0,1.374706554E1
1.752702089E1,-8.614161611E-2,7.414759398E-1,1.352184105E1
1.754729406E1,2.183450572E-2,5.979065299E-1,1.185553932E1
1.756753062E1,4.692923427E-1,9.020941257E-1,9.865906715E0
1.758780427E1,1.331306696E0,1.179661512E0,8.498707771E0
1.760811255E1,1.939382792E0,1.426421404E0,7.904988766E0
1.762834969E1,1.793420553E0,1.479063511E0,7.727920055E0
1.764865917E1,7.208378315E-1,1.548455358E0,7.692027569E0
1.766889438E1,-5.482555032E-1,1.447956800E0,7.806882858E0
1.768920406E1,-1.156331539E0,1.182054400E0,8.130212784E0
1.770944286E1,-1.386042476E0,1.222732425E0,8.127820015E0
1.772975000E1,-9.574281573E-1,1.500598907E0,7.821239948E0
1.774998870E1,-1.698904037E-1,1.919641972E0,7.821239948E0
1.777029833E1,-2.129612118E-1,2.398206472E0,7.723134041E0
1.779055052E1,-7.181459069E-1,2.661715984E0,7.363911629E0
1.781083833E1,-1.002891779E0,2.745464802E0,6.949654102E0
1.783111745E1,-8.330013752E-1,2.917748213E0,6.696014881E0
1.785138875E1,-6.008976102E-1,3.145365477E0,6.892226696E0
1.787163104E1,2.422732860E-2,3.291327477E0,7.567600727E0
1.789193490E1,5.700899959E-1,3.367897987E0,8.664112091E0
1.791217323E1,3.927220106E-1,3.413361549E0,9.770194054E0
1.793248052E1,-3.373879790E-1,3.439682484E0,1.060319519E1
1.795272016E1,-9.981061220E-1,3.355933666E0,1.093848991E1
1.797302266E1,-1.232901812E0,3.317648649E0,1.087866879E1
1.799330099E1,-9.143573642E-1,3.303291559E0,1.064417267E1
1.801357266E1,-4.905286431E-1,3.432504177E0,1.046441174E1
1.803384870E1,-5.024927258E-1,3.643371582E0,1.054337502E1
1.805408318E1,-7.995018363E-1,3.676871061E0,1.072552872E1
1.807436000E1,-7.277171612E-1,3.470789194E0,1.105573750E1
1.809466062E1,-4.689932466E-1,3.059223652E0,1.233918858E1
1.811493672E1,-4.522434771E-1,2.628216505E0,1.378056431E1
1.813521005E1,-5.434698462E-1,2.046461582E0,1.373749352E1
1.815548292E1,-4.426721931E-1,1.749452472E0,1.200628662E1
1.817572219E1,-5.024927482E-2,1.840379715E0,1.016530895E1
1.819599724E1,5.003990531E-1,1.941177368E0,9.157332420E0
1.821630078E1,7.256234884E-1,1.945963025E0,9.159725189E0
1.823654417E1,3.927220106E-1,1.828415632E0,9.691230774E0
1.825681401E1,-5.503492057E-2,1.586740494E0,9.753444672E0
1.827713005E1,-8.135596663E-2,1.479063511E0,9.078369141E0
1.829739719E1,2.084746659E-1,1.450349569E0,7.950452328E0
1.831766510E1,5.676971674E-1,1.632204175E0,7.112665176E0
1.833793912E1,4.597210586E-1,2.027318954E0,7.067201614E0
1.835818490E1,-2.105683982E-1,2.292922258E0,7.699205875E0
1.837845412E1,-6.128616929E-1,2.328814745E0,8.218747139E0
1.839875641E1,-3.493520916E-1,2.446362019E0,8.072785378E0
1.841899922E1,2.970091105E-1,2.762214661E0,7.464410305E0
1.843937510E1,6.131607890E-1,3.011367321E0,7.081558704E0
1.845958026E1,2.611167729E-1,3.145365477E0,7.558029652E0
1.847985177E1,-2.799602449E-1,3.013760090E0,8.441280365E0
1.850012656E1,-7.277171612E-1,3.011367321E0,8.929715157E0
1.852036385E1,-7.253243923E-1,3.255435228E0,8.922536850E0
1.854067135E1,-4.187439680E-1,3.497409344E0,8.903393745E0
1.856094625E1,-3.397808075E-1,3.554837227E0,9.336793900E0
1.858121604E1,-3.684946895E-1,3.308077335E0,1.025623608E1
1.860148651E1,-2.703889608E-1,2.812463999E0,1.148913765E1
1.862176406E1,-2.871387079E-2,2.534896374E0,1.226740360E1
1.864203844E1,4.525425732E-1,2.525325298E0,1.145803165E1
1.866227677E1,5.294120312E-1,2.939283609E0,1.041894817E1
1.868258526E1,1.271187067E-1,3.214757204E0,1.037348461E1
1.870286432E1,-3.828516230E-2,2.786142826E0,1.118764210E1
1.872309281E1,1.725823283E-1,2.240280151E0,1.189861012E1
1.874336573E1,7.734799385E-1,1.936391711E0,1.202064323E1
1.876363958E1,1.374377489E0,1.909771562E0,1.127617645E1
1.878391318E1,1.726421595E0,1.890628934E0,9.700801849E0
1.880418604E1,1.460519075E0,2.070389748E0,8.510671616E0
1.882449656E1,1.072881818E0,2.249851465E0,8.134998322E0
1.884473292E1,7.040880919E-1,2.302493572E0,8.343173981E0
1.886504125E1,1.989033818E-1,2.285743713E0,8.319246292E0
1.888527813E1,-2.201396823E-1,2.254637241E0,8.154141426E0
1.890558203E1,-3.541377485E-1,2.249851465E0,7.895417213E0
1.892585828E1,-8.374879509E-2,2.213959217E0,7.416553974E0
1.894613240E1,2.228316069E-1,2.350350142E0,7.330412388E0
1.896640589E1,-2.392822644E-3,2.769393206E0,7.713562965E0
1.898667880E1,-6.678966284E-1,3.157329559E0,7.967202187E0
1.900691630E1,-1.144367456E0,3.399004459E0,8.180462837E0
1.902722333E1,-1.419542074E0,3.672085524E0,8.060821533E0
1.904746380E1,-1.453041553E0,3.920938969E0,7.433303356E0
1.906776833E1,-1.268794179E0,4.014558315E0,7.095915318E0
1.908800875E1,-1.082154036E0,4.014558315E0,7.387839794E0
1.910831578E1,-1.084546804E0,3.894618034E0,8.233104706E0
1.912855578E1,-1.546361685E0,3.968795538E0,9.178867340E0
1.914885948E1,-1.872084618E0,3.968795538E0,9.739087105E0
1.916910339E1,-1.769193292E0,4.033700943E0,1.024905777E1
1.918937484E1,-8.449655175E-1,3.863511324E0,1.075184917E1
1.920968203E1,-1.172483116E-1,3.602693558E0,1.172632694E1
1.922995552E1,-6.846463680E-1,3.231507063E0,1.274148178E1
1.925023016E1,-2.142772675E0,2.934497833E0,1.271994591E1
1.927046458E1,-3.385245800E0,2.910569668E0,1.187707424E1
1.929077328E1,-3.301496983E0,3.097508907E0,1.165693474E1
1.931104589E1,-2.530410051E0,3.004188776E0,1.205414295E1
1.933132188E1,-1.778764486E0,2.585145712E0,1.164227867E1
1.935159297E1,-1.649552107E0,2.362314224E0,1.010070229E1
1.937183313E1,-1.773978829E0,2.546860695E0,8.723932266E0
1.939213964E1,-1.592124343E0,2.577967405E0,8.139784813E0
1.941237656E1,-1.409970760E0,2.570788860E0,7.936095238E0
1.943267760E1,-1.204187989E0,2.747857809E0,8.111070633E0
1.945292188E1,-7.277171612E-1,2.666501760E0,8.520243645E0
1.947323037E1,-6.343970895E-1,2.618645191E0,8.115856171E0
1.949350365E1,-1.082154036E0,2.841177702E0,7.174878597E0
1.951377760E1,-1.443470240E0,3.090330362E0,6.466304302E0
1.953401990E1,-1.041476011E0,3.008974552E0,6.310471535E0
1.955432406E1,-3.086741269E-1,2.889034271E0,6.856334209E0
1.957456188E1,-1.722832322E-1,3.016152859E0,7.531708241E0
1.959486896E1,-7.061817646E-1,3.176471949E0,7.512565613E0
1.961514276E1,-1.077368379E0,3.332005501E0,7.098308563E0
1.963541734E1,-9.957132936E-1,3.399004459E0,7.270591736E0
1.965565198E1,-5.745765567E-1,3.442075491E0,7.830811024E0
1.967596234E1,-3.493520916E-1,3.528516054E0,8.381459236E0
1.969619984E1,-2.727817893E-1,3.533301830E0,8.944071770E0
1.971649662E1,-4.737788737E-1,3.540480137E0,9.593125343E0
1.973674604E1,-9.454640746E-1,3.652942896E0,9.901799202E0
1.975705901E1,-8.856434822E-1,3.686442375E0,1.028734303E1
1.977729625E1,-6.939185411E-2,3.509373426E0,1.098395348E1
1.979758922E1,8.117650747E-1,3.346362352E0,1.148913765E1
1.981787099E1,7.256234884E-1,3.446861029E0,1.130010509E1
1.983812036E1,-3.804588020E-1,3.985545158E0,1.097916794E1
1.985838240E1,-6.822535396E-1,4.138985157E0,1.066810036E1
1.987867484E1,-1.387837082E-1,3.717549086E0,1.048594666E1
1.989896563E1,3.472583890E-1,3.444468260E0,1.051705360E1
1.991923365E1,1.019940615E0,3.071187973E0,1.044766140E1
1.993951167E1,1.465304732E0,2.743072033E0,1.012223816E1
1.995977984E1,1.345663667E0,2.599502802E0,9.655338287E0
1.998002688E1,1.094417214E0,2.355135679E0,9.322437286E0
2.000032766E1,7.878368497E-1,2.376671076E0,9.468399048E0
2.002056766E1,6.059823632E-1,2.522932291E0,9.576375008E0
2.004088005E1,8.931210637E-1,2.616252422E0,9.027820587E0
2.006111250E1,1.360020518E0,2.752643347E0,8.331210136E0
2.008142240E1,1.685743570E0,2.767000198E0,8.163712502E0
2.010166276E1,1.197308660E0,2.673680305E0,8.393424034E0
2.012193146E1,1.845464408E-1,2.575574398E0,8.414958954E0
2.014223813E1,-4.618147612E-1,2.508575439E0,7.864310741E0
2.016250844E1,-7.899305820E-1,2.759821892E0,7.232306480E0
2.018275484E1,-6.631109715E-1,3.059223652E0,6.844369888E0
2.020304688E1,-4.211367965E-1,3.358326674E0,6.748657227E0
2.022333573E1,-4.713860750E-1,3.602693558E0,6.746264458E0
2.024357193E1,-7.444669604E-1,3.731905937E0,6.911369324E0
2.026384401E1,-9.646066427E-1,3.791726589E0,7.002595425E0
2.028414818E1,-9.167501926E-1,4.038486481E0,6.949654102E0
2.030439620E1,-2.153540403E-1,4.284946918E0,7.373483181E0
2.032469823E1,9.050851464E-1,4.335196495E0,8.056035995E0
2.034493662E1,8.931210637E-1,4.526921272E0,8.573184013E0
2.036523943E1,1.749751568E-1,4.677669048E0,9.461220741E0
2.038551958E1,-3.062812984E-1,4.581956387E0,1.020837975E1
2.040579287E1,-3.613162339E-1,4.534099579E0,1.075424194E1
2.042602854E1,2.084746659E-1,4.275375843E0,1.163510036E1
2.044630245E1,4.932205677E-1,3.961616993E0,1.228654575E1
2.046657516E1,1.465603895E-2,3.973581076E0,1.166172028E1
2.048688380E1,-6.391827464E-1,3.983152390E0,1.037587738E1
2.050715766E1,-1.264008522E0,4.287340164E0,1.008365345E1
2.052739287E1,-9.957132936E-1,4.184448719E0,1.128335476E1
2.054766635E1,-3.828516230E-2,3.487838030E0,1.213549900E1
2.056797776E1,2.132603228E-1,3.128615618E0,1.132881927E1
2.058821688E1,3.619144112E-2,3.075973511E0,9.506684303E0
2.060852318E1,4.525425732E-1,3.092723370E0,8.391031265E0
2.062879630E1,1.233201027E0,2.817249537E0,8.575576782E0
2.064906906E1,1.369591832E0,2.716751099E0,9.372686386E0
2.066930776E1,1.211665511E0,2.515753984E0,9.880263329E0
2.068961177E1,9.505487680E-1,2.268994093E0,9.399007797E0
2.070985260E1,7.304090858E-1,2.149353027E0,8.314460754E0
2.073015396E1,5.772684813E-1,2.101496458E0,7.546065331E0
2.075040214E1,2.898306549E-1,2.115853310E0,7.615457058E0
2.077070151E1,-2.321037948E-1,2.273779631E0,7.916952610E0
2.079098042E1,-6.870391965E-1,2.439183474E0,7.804490089E0
2.081125057E1,-6.415755749E-1,2.668894529E0,7.339983463E0
2.083152474E1,-5.530411601E-1,3.006581545E0,6.839584351E0
2.085176464E1,-1.579262912E-1,3.147758245E0,6.672086716E0
2.087203589E1,2.392822644E-3,3.157329559E0,6.993024349E0
2.089234281E1,-4.307080805E-1,3.219542980E0,7.885846138E0
2.091258078E1,-6.822535396E-1,3.279363394E0,9.085547447E0
2.093288531E1,-7.420741320E-1,3.430111170E0,9.734301567E0
2.095315984E1,-9.119645357E-1,3.837190151E0,9.918548584E0
2.097343479E1,-8.545367718E-1,4.040879250E0,1.014138031E1
2.099371078E1,-5.072783828E-1,3.904189348E0,1.012702370E1
2.101397766E1,-1.411765367E-1,3.619443417E0,1.030648518E1
2.103425745E1,2.108674943E-1,3.226721287E0,1.069442177E1
2.105452823E1,3.448655605E-1,3.023331404E0,1.101266670E1
2.107476719E1,5.485545993E-1,2.941676378E0,1.093609715E1
2.109507177E1,1.621137381E0,2.951247692E0,1.076620674E1
2.111531365E1,2.229213476E0,2.965903759E0,1.008843899E1
2.113558484E1,1.661815286E0,2.692822695E0,9.724730492E0
2.115585802E1,1.075274706E0,2.240280151E0,1.167129135E1
2.117616401E1,9.002995491E-1,1.452742457E0,1.436471272E1
2.119640552E1,5.988038778E-1,1.103091240E0,1.478136253E1
2.121670635E1,5.461617708E-1,1.172483087E0,1.320329666E1
2.123697167E1,1.206879973E0,1.457528114E0,1.097677517E1
2.125725781E1,2.135893345E0,1.744666815E0,9.403793335E0
2.127750984E1,2.432603359E0,1.878664851E0,8.510671616E0
2.129780500E1,2.145464659E0,1.799701691E0,8.012665749E0
2.131808568E1,1.561017632E0,1.687239051E0,7.454838753E0
2.133835292E1,7.734799385E-1,1.699203134E0,6.880262375E0
2.135859396E1,4.815555736E-2,1.833201289E0,6.619444847E0
2.137889375E1,-2.799602449E-1,1.950748682E0,6.379863262E0
2.139916526E1,-3.302095234E-1,2.084746838E0,6.042475224E0
2.141944271E1,-2.751746178E-1,2.285743713E0,5.364708424E0
2.143977859E1,-1.770688742E-1,2.532503605E0,4.835595608E0
2.145998771E1,-2.727817893E-1,2.891427040E0,5.788537025E0
2.148026297E1,-2.512463629E-1,3.056830883E0,8.237890244E0
2.150049885E1,9.840483218E-2,3.114258766E0,9.832406998E0
2.152080495E1,1.941177398E-1,3.483052492E0,9.533005714E0
2.154108078E1,3.376871049E-1,3.937688828E0,8.953642845E0
2.156135594E1,5.605186820E-1,3.930510283E0,9.554540634E0
2.158162604E1,3.257229924E-1,3.940081596E0,1.072552872E1
2.160189943E1,-1.507478207E-1,4.112663746E0,1.134317589E1
2.162214073E1,-3.302095234E-1,4.186841488E0,1.120917797E1
2.164241771E1,-5.024927482E-2,4.067200184E0,1.144128132E1
2.166268401E1,-3.110669367E-2,3.949652910E0,1.155852985E1
2.168298990E1,-7.468597889E-1,4.091128349E0,1.056969547E1
2.170323781E1,-1.204187989E0,4.284946918E0,9.652945518E0
2.172354130E1,-5.434698462E-1,4.100699902E0,1.061037350E1
2.174381281E1,1.000798106E0,3.360719442E0,1.280848026E1
2.176408620E1,1.441376567E0,2.786142826E0,1.350509071E1
2.178435912E1,9.768698215E-1,2.266601324E0,1.195125198E1
2.180460495E1,3.448655605E-1,1.967498422E0,9.743872643E0
2.182489958E1,-2.344966233E-1,1.979462504E0,8.970393181E0
2.184514234E1,-5.243272781E-1,2.139781713E0,9.475577354E0
2.186541594E1,-5.195416212E-1,2.237887383E0,1.017248726E1
2.188572000E1,-3.373879790E-1,2.182852507E0,1.016291618E1
2.190599760E1,-3.828516230E-2,2.003390789E0,9.150154114E0
2.192627104E1,-2.177468538E-1,1.861915112E0,8.254639626E0
2.194654292E1,-6.750751138E-1,1.770987868E0,7.821239948E0
2.196681276E1,-6.846463680E-1,1.708774447E0,7.854739666E0
2.198708448E1,-2.943171859E-1,1.842772484E0,8.194819450E0
2.200735964E1,2.874378264E-1,2.000998020E0,8.187641144E0
2.202763682E1,5.485545993E-1,2.139781713E0,7.392625332E0
2.204787245E1,2.252244353E-1,2.443969250E0,6.166902065E0
2.206814688E1,-1.028913707E-1,2.711965322E0,5.944369793E0
2.208845177E1,-2.799602449E-1,2.900998354E0,6.889833927E0
2.210869047E1,-4.546362907E-2,3.020938635E0,8.290532112E0
2.212896396E1,3.379862010E-2,3.145365477E0,9.772586823E0
2.214927286E1,-4.666004181E-1,3.269792080E0,1.026580715E1
2.216951052E1,-7.779664397E-1,3.458825111E0,9.698409081E0
2.218978323E1,-2.775674164E-1,3.844368696E0,9.056833267E0
2.221005677E1,4.621138871E-1,4.007379532E0,9.276973724E0
2.223036292E1,7.567301393E-1,3.712763548E0,1.028016472E1
2.225060505E1,7.256234884E-1,3.087937593E0,1.121396351E1
2.227087776E1,8.452646136E-1,2.831606388E0,1.083081245E1
2.229114792E1,1.606780410E0,3.107080221E0,1.010788059E1
2.231145234E1,2.710469961E0,3.253042459E0,1.018923664E1
2.233172755E1,2.736790895E0,3.087937593E0,1.094566822E1
2.235200703E1,1.752742529E0,2.563610315E0,1.253539944E1
2.237227406E1,1.218844056E0,1.866700768E0,1.299751377E1
2.239251495E1,9.888339639E-1,1.653739572E0,1.164467144E1
2.241278964E1,1.221236825E0,1.871486425E0,9.983155251E0
2.243309620E1,1.429412484E0,2.271386862E0,8.800502777E0
2.245333573E1,1.211665511E0,2.621038198E0,8.431708336E0
2.247360932E1,1.168594718E0,2.453540564E0,8.154141426E0
2.249391542E1,1.123131156E0,2.170888424E0,7.438089371E0
2.251415396E1,5.844469070E-1,2.280958176E0,7.019345284E0
2.253445979E1,-3.661018610E-1,2.843570709E0,7.926524162E0
2.255473599E1,-1.244267747E-1,2.774178743E0,8.369495392E0
2.257497323E1,6.586244106E-1,2.697608471E0,8.264211655E0
2.259527828E1,6.634100676E-1,3.001796007E0,7.220342159E0
2.261555417E1,1.654038578E-1,3.413361549E0,6.459125519E0
2.263582833E1,-1.938186288E-1,3.607479334E0,6.631408691E0
2.265609745E1,-1.794617027E-1,3.626621723E0,7.050451756E0
2.267636932E1,-1.746760458E-1,3.911367655E0,7.019345284E0
2.269664620E1,-4.785645381E-2,4.292125702E0,7.158128738E0
2.271691292E1,2.204387933E-1,4.438087940E0,8.075178146E0
2.273715859E1,-8.135596663E-2,4.488337040E0,9.253045082E0
2.275745568E1,-5.793621540E-1,4.526921272E0,9.978369713E0
2.277770182E1,-7.205387354E-1,4.550849438E0,9.901799202E0
2.279800484E1,-5.072783828E-1,4.519742966E0,9.940084457E0
2.281828219E1,-3.278166950E-1,4.464408875E0,1.078534889E1
2.283868219E1,7.926224917E-2,4.313661098E0,1.161595726E1
2.285883000E1,3.209373355E-1,4.210769653E0,1.148913765E1
2.287909995E1,1.414756328E-1,4.028914928E0,1.100309563E1
2.289934000E1,-2.895315289E-1,3.920938969E0,1.170957661E1
2.291964703E1,-4.402793646E-1,3.444468260E0,1.338066387E1
2.293989344E1,-4.905286431E-1,2.867498875E0,1.391934872E1
2.296019120E1,-6.104688644E-1,2.520539522E0,1.258325577E1
2.298047135E1,-5.434698462E-1,2.561217546E0,1.034237766E1
2.300073865E1,-2.440679073E-1,2.759821892E0,8.958429337E0
2.302098120E1,-3.326023519E-1,2.968296528E0,8.539685249E0
2.304125859E1,-3.302095234E-1,2.862713099E0,8.630612373E0
2.306152479E1,-1.316052526E-1,2.570788860E0,8.465208054E0
2.308179760E1,-7.417750359E-2,2.451147795E0,8.257032394E0
2.310210865E1,-2.392822690E-2,2.259422779E0,7.993523121E0
2.312238203E1,7.208377868E-2,2.032104731E0,7.522137165E0
2.314262078E1,8.883354068E-2,2.067996979E0,7.014559746E0
2.316292568E1,1.079761237E-1,2.154138565E0,6.949654102E0
2.318316714E1,2.060818523E-1,2.237887383E0,6.976274490E0
2.320348141E1,1.127617657E-1,2.465504646E0,6.777370930E0
2.322371078E1,-9.092725813E-2,2.697608471E0,6.305685997E0
2.324402083E1,-1.674975902E-1,2.939283609E0,6.008975983E0
2.326425578E1,-1.579262912E-1,3.291327477E0,6.801299095E0
2.328452859E1,-1.100698411E-1,3.332005501E0,8.091927528E0
2.330481214E1,-1.244267747E-1,3.339184046E0,9.415757179E0
2.332511010E1,-3.014956415E-1,3.523730516E0,1.039980507E1
2.334535188E1,-2.440679073E-1,3.545265913E0,1.078295612E1
2.336562167E1,-1.938186288E-1,3.710370541E0,1.068006516E1
2.338592760E1,-1.435693651E-1,3.722334623E0,1.072552872E1
2.340620271E1,-3.349951655E-2,3.559622765E0,1.125464153E1
2.342644323E1,2.228316069E-1,3.410968781E0,1.199671555E1
2.344675104E1,6.323033571E-1,3.190829039E0,1.194168091E1
2.346698609E1,1.015154958E0,3.023331404E0,1.099113178E1
2.348728979E1,1.089631557E0,2.896212816E0,1.034237766E1
2.350756839E1,1.163809061E0,2.549253464E0,1.058883858E1
2.352784042E1,1.455733418E0,2.072782516E0,1.154895878E1
2.354808422E1,1.324128270E0,1.802094579E0,1.212832069E1
2.356838479E1,1.135095239E0,1.663310885E0,1.118285656E1
2.358862781E1,1.498804331E0,1.613061547E0,9.241081238E0
2.360892682E1,2.322533369E0,1.854736686E0,7.363911629E0
2.362917297E1,2.248355865E0,2.259422779E0,6.844369888E0
2.364948104E1,1.599601984E0,2.362314224E0,7.979166031E0
2.366971776E1,1.211665511E0,2.151745796E0,9.109476089E0
2.369001958E1,7.998009920E-1,2.132603168E0,9.229117393E0
2.371026370E1,2.898306549E-1,2.288136721E0,8.393424034E0
2.373056807E1,-2.392822644E-3,2.398206472E0,7.318448067E0
2.375080964E1,-2.416750938E-1,2.546860695E0,7.079165936E0
2.377110995E1,-4.067798331E-2,2.621038198E0,7.148557663E0
2.379136068E1,1.797607988E-1,2.731107950E0,7.284948349E0
2.381166370E1,2.682952285E-1,2.939283609E0,7.313662529E0
2.383190781E1,2.300100774E-1,3.152543783E0,6.942475796E0
2.385220792E1,1.319043487E-1,3.446861029E0,6.988238335E0
2.387245068E1,1.199402362E-1,3.545265913E0,7.976773262E0
2.389275432E1,2.994019389E-1,3.636193037E0,9.372686386E0
2.391303219E1,6.155536175E-1,3.734298944E0,1.028016472E1
2.393326760E1,4.142574072E-1,3.825226068E0,1.026341438E1
2.395354287E1,9.122636169E-2,3.983152390E0,9.727123260E0
2.397381479E1,1.414756328E-1,4.069592953E0,9.696016312E0
2.399408635E1,4.022932947E-1,3.985545158E0,1.035194874E1
2.401435979E1,6.681957245E-1,3.861118555E0,1.158245754E1
2.403463177E1,5.051847100E-1,3.559622765E0,1.187228870E1
2.405490578E1,-5.315057039E-1,3.444468260E0,1.052662468E1
2.407520953E1,-1.240080357E0,3.408575773E0,9.492327690E0
2.409548984E1,-1.273579836E0,3.504587889E0,9.985548019E0
2.411572745E1,-7.683951855E-1,3.320041418E0,1.143171024E1
2.413602865E1,1.079761237E-1,2.824428082E0,1.198235893E1
2.415630479E1,6.634100676E-1,2.340778828E0,1.114457130E1
2.417657792E1,3.951148391E-1,1.965105653E0,9.837192535E0
2.419685354E1,-3.565305769E-1,1.713560104E0,9.260223389E0
2.421712672E1,-9.837492108E-1,1.672882080E0,9.353543282E0
2.423738375E1,-9.023932219E-1,2.051247120E0,9.303294182E0
2.425766599E1,2.252244353E-1,2.352742910E0,8.920144081E0
2.427793484E1,1.360020518E0,2.532503605E0,8.953642845E0
2.429819005E1,1.496411443E0,2.642573595E0,8.489136696E0
2.431847750E1,8.739784956E-1,2.446362019E0,7.586743355E0
2.433876469E1,5.533402413E-2,2.359921217E0,6.918547630E0
2.435901047E1,-2.225325108E-1,2.386242390E0,6.993024349E0
2.437927797E1,4.097708687E-2,2.434397936E0,7.718348503E0
2.439958589E1,2.515454888E-1,2.417349100E0,7.952845097E0
2.441985427E1,2.012962103E-1,2.479861498E0,7.541279793E0
2.444014005E1,-4.953143001E-1,2.606681108E0,7.119843960E0
2.446040307E1,-8.641080856E-1,2.635395050E0,7.282555580E0
2.448067854E1,-7.899305820E-1,2.647359133E0,8.671290398E0
2.450091406E1,-3.900300860E-1,2.666501760E0,9.672088623E0
2.452122458E1,-1.124626622E-1,2.814856768E0,9.849157333E0
2.454149656E1,-2.775674164E-1,3.085544825E0,1.023948669E1
2.456176563E1,-5.530411601E-1,3.188436270E0,1.079013443E1
2.458200698E1,-3.493520916E-1,2.929712296E0,1.117089272E1
2.460231380E1,4.453641176E-1,2.386242390E0,1.146520996E1
2.462258828E1,1.211665511E0,1.893021822E0,1.192971611E1
2.464286057E1,1.455733418E0,1.739881158E0,1.203978634E1
2.466313458E1,1.348056436E0,1.780559182E0,1.120439243E1
2.468337240E1,1.410269856E0,1.823629975E0,1.047876835E1
2.470368703E1,1.604387641E0,1.754238129E0,1.042134094E1
2.472391625E1,1.941775560E0,1.177268744E0,1.097438240E1
2.474422302E1,1.496411443E0,8.539385796E-1,1.216182041E1
2.476446604E1,7.663014531E-1,7.175477147E-1,1.286112213E1
2.478477469E1,7.591229677E-1,6.074778438E-1,1.212353516E1
2.480500865E1,1.273878932E0,1.045663476E0,1.058883858E1
2.482532109E1,1.898704767E0,1.500598907E0,9.059226990E0
2.484555568E1,2.250748873E0,1.809273005E0,7.924131393E0
2.486583427E1,2.269891262E0,1.962712765E0,7.550850868E0
2.488610188E1,1.872383714E0,1.922034740E0,7.538887024E0
2.490641104E1,1.003190875E0,1.804487348E0,7.668099403E0
2.492668448E1,1.749751568E-1,1.751845241E0,7.727920055E0
2.494692312E1,-9.571290761E-2,1.715952992E0,7.603493214E0
2.496719688E1,-8.614161611E-2,1.878664851E0,7.213163853E0
2.498746917E1,1.944168471E-2,2.242672920E0,6.633801460E0
2.500774250E1,8.404789865E-2,2.556432009E0,6.717550278E0
2.502801349E1,6.729813665E-2,2.774178743E0,7.143772125E0
2.504828714E1,-7.178468257E-2,2.994617462E0,7.402196884E0
2.506859521E1,-1.363908947E-1,3.138186932E0,7.435696602E0
2.508886547E1,-2.560320199E-1,3.451646566E0,7.847560883E0
2.510913781E1,-5.530411601E-1,3.806083441E0,8.644968987E0
2.512938068E1,-3.182454109E-1,3.715156317E0,9.865906715E0
2.514968245E1,4.097708687E-2,3.425325632E0,1.136471081E1
2.516995630E1,-9.092725813E-2,3.154936552E0,1.256411362E1
2.519023047E1,-2.249253243E-1,2.980260611E0,1.310279751E1
2.521047271E1,-1.196411345E-2,2.989831924E0,1.296401405E1
2.523078078E1,2.276172489E-1,3.066402197E0,1.158724403E1
2.525101682E1,1.031904742E-1,3.255435228E0,1.032562828E1
2.527129287E1,-1.339980662E-1,3.372683525E0,1.050987530E1
2.529160062E1,-5.506483316E-1,3.212364435E0,1.181964684E1
2.531183615E1,-5.171487927E-1,2.261815548E0,1.340219975E1
2.533211016E1,-3.541377485E-1,1.284945726E0,1.325862980E1
2.535238516E1,-7.588238716E-1,1.194018483E0,1.139103222E1
2.537265875E1,-7.348956466E-1,1.589133382E0,9.430113792E0
2.539296500E1,-1.507478207E-1,1.692024708E0,8.407780647E0
2.541320417E1,-2.727817893E-1,1.859522343E0,8.633005142E0
2.543350880E1,-4.307080805E-1,2.008176327E0,9.274580956E0
2.545378359E1,-1.004985496E-1,2.044068813E0,8.874680519E0
2.547405938E1,2.491526604E-1,2.149353027E0,7.627421379E0
2.549429323E1,5.557330847E-1,2.168495417E0,6.827620506E0
2.551459948E1,5.413761139E-1,2.106282234E0,6.696014881E0
2.553487365E1,-5.503492057E-2,2.120639086E0,6.925725937E0
2.555514724E1,-6.056832075E-1,2.125424623E0,6.935297489E0
2.557542344E1,-7.995018363E-1,2.278565407E0,6.573981285E0
2.559569443E1,-8.665009141E-1,2.676073074E0,6.231508255E0
2.561593177E1,-1.149153113E0,3.274577856E0,6.047261238E0
2.563620625E1,-1.342971683E0,3.724727631E0,6.425326824E0
2.565651573E1,-1.450648785E0,3.765405416E0,7.332805157E0
2.567675182E1,-1.852941990E0,3.748655796E0,8.807681084E0
2.569706203E1,-1.881655931E0,3.705585003E0,1.056730270E1
2.571733839E1,-1.762014747E0,3.593122244E0,1.136949635E1
2.573757422E1,-1.840977907E0,3.614657640E0,1.128335476E1
2.575788287E1,-1.297508121E0,3.399004459E0,1.096002483E1
2.577828286E1,-4.067798555E-1,2.795714140E0,1.092652512E1
2.579841318E1,1.079761237E-1,2.426920414E0,1.156092262E1
2.581866464E1,3.903291821E-1,2.364706993E0,1.226022530E1
2.583898182E1,8.763712645E-1,2.312064886E0,1.139342499E1
2.585924594E1,1.465304732E0,2.173281193E0,9.944869995E0
2.587948104E1,1.673779488E0,2.118246317E0,9.406186104E0
2.589975807E1,1.343270779E0,1.459920883E0,1.082841969E1
2.592006438E1,4.070789516E-1,5.955137610E-1,1.383799267E1
2.594030198E1,2.922234535E-1,1.980060786E-1,1.553061581E1
2.596061010E1,1.190130115E0,1.597209126E-1,1.412034512E1
2.598084781E1,1.901097536E0,6.960122585E-1,1.096720314E1
2.600115797E1,2.121536493E0,1.194018483E0,8.228319168E0
2.602142594E1,1.836491346E0,1.641775489E0,6.796513557E0
2.604170328E1,1.163809061E0,1.809273005E0,6.624230385E0
2.606197458E1,3.041875660E-1,1.680060625E0,7.292127132E0
2.608224750E1,-1.986042857E-1,1.426421404E0,7.615457058E0
2.610249323E1,-3.972085714E-1,1.344766378E0,7.778169155E0
2.612279406E1,-2.273181528E-1,1.526919961E0,7.948059559E0
2.614306802E1,-4.067798331E-2,1.782951951E0,7.663313389E0
2.616333974E1,2.252244353E-1,1.926820397E0,6.681658268E0
2.618357844E1,3.568296731E-1,2.324028969E0,5.850750446E0
2.620385495E1,6.083751321E-1,2.532503605E0,5.300102234E0
2.622412635E1,5.772684813E-1,2.774178743E0,5.266602516E0
2.624439818E1,4.764707983E-1,2.989831924E0,5.862714767E0
2.626466974E1,-1.028913707E-1,3.209971666E0,7.782954693E0
2.628497464E1,-8.593224287E-1,3.126222849E0,1.029452133E1
2.630521635E1,-1.000499010E0,3.068794966E0,1.168564892E1
2.632551938E1,-8.569296002E-1,3.420539856E0,1.178853989E1
2.634579646E1,-3.804588020E-1,3.669692516E0,1.145085239E1
2.636604755E1,5.099703074E-1,3.327219963E0,1.149631596E1
2.638631479E1,8.476574421E-1,2.934497833E0,1.178136158E1
2.640661714E1,6.251249462E-2,2.788535595E0,1.210199928E1
2.642689089E1,-1.058225870E0,2.688037157E0,1.212832069E1
2.644713240E1,-1.620838284E0,2.621038198E0,1.219801140E1
2.646743453E1,-1.366899967E0,2.711965322E0,1.222433281E1
2.648767281E1,5.294119939E-2,2.371885538E0,1.247318649E1
2.650795021E1,9.050851464E-1,1.967498422E0,1.222194004E1
2.652825333E1,3.903291821E-1,1.845165372E0,1.112991524E1
2.654852859E1,-2.679961324E-1,1.804487348E0,9.736694336E0
2.656876662E1,-5.000999570E-1,1.849951029E0,8.881858826E0
2.658903839E1,-6.607181430E-1,2.082353830E0,9.078369141E0
2.660934635E1,-4.977070987E-1,2.374278307E0,9.861121178E0
2.662958922E1,5.318048596E-1,2.439183474E0,1.010309505E1
2.664985833E1,1.618744493E0,2.381456852E0,9.308079720E0
2.667013474E1,1.407876968E0,2.221137524E0,8.383852005E0
2.669044042E1,-6.798607111E-1,2.044068813E0,8.223533630E0
2.671071505E1,-2.159522533E0,1.797308922E0,8.347960472E0
2.673098755E1,-2.221735716E0,1.658525229E0,8.247461319E0
2.675122781E1,-1.663909078E0,1.926820397E0,7.814061642E0
2.677152464E1,-9.789635539E-1,2.192423820E0,7.160521984E0
2.679176958E1,-5.817549825E-1,2.283350945E0,6.226722717E0
2.681207510E1,-6.391827464E-1,2.496611357E0,5.477469921E0
2.683231979E1,-9.095717072E-1,2.745464802E0,5.352744102E0
2.685262172E1,-1.082154036E0,2.881855726E0,6.401398659E0
2.687286234E1,-8.353942037E-1,2.843570709E0,8.510671616E0
2.689317151E1,-6.942176819E-1,2.666501760E0,1.005972576E1
2.691344385E1,-1.165902853E0,2.783750057E0,1.089541912E1
2.693368286E1,-1.074975610E0,2.735893488E0,1.074706364E1
2.695395662E1,-1.794617027E-1,2.738286495E0,1.056969547E1
2.697425922E1,7.208378315E-1,2.838784933E0,1.132403278E1
2.699450255E1,9.122636318E-1,2.702394009E0,1.235115242E1
2.701477312E1,5.772684813E-1,2.446362019E0,1.189861012E1
2.703508318E1,4.645066857E-1,2.518146753E0,1.066331482E1
2.705535797E1,6.753742099E-1,2.407777786E0,9.830014229E0
2.707559234E1,1.168594718E0,1.986641049E0,1.024187946E1
2.709586828E1,1.731207132E0,1.620239973E0,1.182443237E1
2.711617260E1,2.126322031E0,1.012163997E0,1.314826107E1
2.713644453E1,1.994417667E0,5.380859971E-1,1.311476135E1
2.715669037E1,1.522732496E0,8.204390407E-1,1.182443237E1
2.717699412E1,1.443769336E0,1.320838094E0,1.031605625E1
2.719724026E1,1.431805253E0,1.526919961E0,9.198010445E0
2.721753807E1,1.041476011E0,1.605883121E0,8.297710419E0
2.723780922E1,8.117650747E-1,1.543669701E0,7.775776386E0
2.725804995E1,8.261220455E-1,1.529312730E0,7.272984505E0
2.727836563E1,6.897311211E-1,1.744666815E0,6.710371971E0
2.729859693E1,4.190430641E-1,1.969891191E0,6.138188362E0
2.731889005E1,7.208377868E-2,2.199602127E0,5.661717415E0
2.733914906E1,-3.134597540E-1,2.374278307E0,5.798108578E0
2.735945094E1,-4.163511395E-1,2.542074919E0,6.408577442E0
2.737972203E1,-3.661018610E-1,2.757428885E0,7.165307522E0
2.739999734E1,-3.014956415E-1,2.965903759E0,8.027321815E0
2.742027354E1,-2.871387303E-1,3.006581545E0,8.489136696E0
2.744054771E1,-3.565305769E-1,3.035295486E0,8.307282448E0
2.746078229E1,-4.307080805E-1,3.257827997E0,8.158926964E0
2.748105760E1,-6.726822853E-1,3.375076294E0,8.642576218E0
2.750135953E1,-8.497511148E-1,3.490231037E0,1.006451130E1
2.752160245E1,-9.071788788E-1,3.614657640E0,1.175504017E1
2.754190787E1,-9.454640746E-1,3.607479334E0,1.254018497E1
2.756217943E1,-1.072582722E0,3.434896946E0,1.253539944E1
2.758242271E1,-1.074975610E0,3.066402197E0,1.177418327E1
2.760273594E1,-1.299900889E0,3.071187973E0,1.087866879E1
2.762296505E1,-9.837492108E-1,2.939283609E0,1.046441174E1
2.764324318E1,-1.244267747E-1,2.434397936E0,1.081645584E1
2.766354464E1,4.336991161E-2,2.321636200E0,1.199671555E1
2.768382052E1,-2.991028428E-1,2.115853310E0,1.259043407E1
2.770406870E1,-6.894320250E-1,1.876272082E0,1.203739357E1
2.772433229E1,-9.526425004E-1,2.015354872E0,1.085474110E1
2.774463818E1,-2.727817893E-1,1.960319996E0,9.705587387E0
2.776491292E1,-7.178467698E-3,2.146960020E0,9.427721024E0
2.778518729E1,-5.291129351E-1,2.678465843E0,1.013180923E1
2.780542396E1,-5.745765567E-1,2.477468729E0,1.068006516E1
2.782573266E1,-2.847459018E-1,2.024926186E0,1.040937710E1
2.784597375E1,-3.038884699E-1,1.941177368E0,9.652945518E0
2.786627812E1,-3.349951804E-1,1.948355794E0,8.865108490E0
2.788655365E1,-5.096712112E-1,1.924427629E0,8.388637543E0
2.790682719E1,-4.115654826E-1,1.945963025E0,8.668897629E0
2.792709891E1,-8.853443712E-2,2.106282234E0,9.209974289E0
2.794733474E1,-9.092725813E-2,2.201995134E0,8.609076500E0
2.796761000E1,-1.292124242E-1,2.484647274E0,6.877869606E0
2.798788526E1,1.295115203E-1,2.872284412E0,5.642574787E0
2.800818786E1,1.845464408E-1,3.138186932E0,6.023332596E0
2.802842755E1,3.951148391E-1,3.212364435E0,7.536494255E0
2.804870193E1,7.543373108E-1,3.075973511E0,8.905786514E0
2.806900958E1,5.243272781E-1,3.140579700E0,9.789336205E0
2.808924609E1,-4.737788737E-1,3.142972469E0,1.007168961E1
2.810955062E1,-1.063011408E0,3.064009428E0,9.669695854E0
2.812982734E1,-8.401798606E-1,3.348755360E0,9.099904060E0
2.815006667E1,-9.023932219E-1,4.052843571E0,8.726325035E0
2.817033792E1,-6.463612318E-1,4.593920231E0,8.786145210E0
2.819064792E1,1.135095239E0,4.225126743E0,9.489934921E0
2.821088714E1,2.662613392E0,3.834797382E0,1.068006516E1
2.823119198E1,2.897109985E0,3.035295486E0,1.197039413E1
2.825143505E1,2.257927179E0,1.969891191E0,1.270798206E1
2.827170641E1,1.515554070E0,1.328016520E0,1.266939735E1
2.829197844E1,9.768698215E-1,8.706883192E-1,1.189382362E1
2.831224932E1,1.029511929E0,1.009771109E0,1.126899815E1
2.833252266E1,1.788634896E0,1.402493119E0,1.053141022E1
2.835279646E1,2.312962294E0,1.727917075E0,9.614660263E0
2.837310448E1,1.779063582E0,2.048854351E0,8.398209572E0
2.839338057E1,8.476574421E-1,2.058425665E0,7.625028610E0
2.841361547E1,5.676971674E-1,1.680060625E0,7.052844524E0
2.843392323E1,2.874378264E-1,1.632204175E0,7.048058987E0
2.845416745E1,-2.392822690E-2,1.830808401E0,7.342376232E0
2.847447208E1,-1.722832322E-1,2.099103689E0,7.572386265E0
2.849474448E1,-1.603191197E-1,2.419741869E0,7.562815189E0
2.851501432E1,1.704886183E-2,2.618645191E0,7.634599686E0
2.853525620E1,1.438684613E-1,2.652144909E0,7.888238907E0
2.855556250E1,2.730808854E-1,2.690429926E0,7.950452328E0
2.857580432E1,3.951148391E-1,3.042474031E0,8.247461319E0
2.859607276E1,6.753742099E-1,3.363112211E0,8.199604988E0
2.861638208E1,7.016952634E-1,3.684049606E0,7.785347462E0
2.863661974E1,4.668995142E-1,3.971188307E0,7.522137165E0
2.865689599E1,1.677966863E-1,4.177269936E0,7.818847179E0
2.867720641E1,-2.273181528E-1,4.277768612E0,8.422137260E0
2.869743792E1,-1.674975902E-1,4.469194412E0,9.458827972E0
2.871772891E1,3.496512175E-1,4.577170849E0,1.049312592E1
2.873798682E1,1.125523925E0,4.332803726E0,1.069681454E1
2.875828787E1,1.283450246E0,4.067200184E0,1.054816055E1
2.877853224E1,7.758727670E-1,3.710370541E0,1.083320522E1
2.879883286E1,4.357928336E-1,3.138186932E0,1.061545849E1
2.881911297E1,-2.871387079E-2,3.085544825E0,1.107248783E1
2.883937927E1,-1.244866014E0,4.155734539E0,1.165184975E1
2.885965703E1,-9.071788788E-1,3.834797382E0,1.126421261E1
2.887993016E1,-1.986042857E-1,2.946461916E0,1.052901745E1
2.890020542E1,-7.013961077E-1,2.915355206E0,9.485149384E0
2.892047135E1,-1.180259824E0,3.004188776E0,8.714361191E0
2.894071734E1,-6.894320250E-1,2.802892685E0,9.006285667E0
2.896102219E1,-3.732803464E-1,2.649751902E0,1.005494022E1
2.898126474E1,-7.061817646E-1,2.537289381E0,1.091216850E1
2.900156599E1,-1.120439172E0,2.359921217E0,1.062024403E1
2.902180948E1,-1.271187067E0,2.118246317E0,9.375079155E0
2.904211865E1,-8.712865710E-1,2.034497499E0,8.479565620E0
2.906238901E1,-1.124626622E-1,2.056032896E0,8.089534760E0
2.908266365E1,3.783650696E-1,2.273779631E0,7.845168114E0
2.910294177E1,2.539383173E-1,2.587538481E0,7.893024445E0
2.912320328E1,2.874378264E-1,2.357528448E0,8.007880211E0
2.914347984E1,2.898306549E-1,2.278565407E0,7.622635841E0
2.916375599E1,7.926224917E-2,2.644966364E0,7.615457058E0
2.918399984E1,1.941177398E-1,2.936890602E0,7.723134041E0
2.920430214E1,5.629115105E-1,3.035295486E0,8.197212219E0
2.922454052E1,9.266205430E-1,3.107080221E0,8.592327118E0
2.924481250E1,1.206879973E0,3.018545866E0,8.841180801E0
2.926511995E1,8.404789567E-1,3.035295486E0,8.872286797E0
2.928539328E1,3.568296731E-1,3.190829039E0,8.695218086E0
2.930563208E1,5.219344497E-1,3.169293642E0,9.107083321E0
2.932593807E1,1.175773263E0,2.767000198E0,9.935298920E0
2.934617682E1,1.671386600E0,2.175673962E0,1.070638561E1
2.936648688E1,1.532303810E0,2.024926186E0,1.131206894E1
2.938672662E1,1.316949725E0,2.204387903E0,1.121396351E1
2.940699552E1,1.972882271E0,2.312064886E0,1.065135098E1
2.942730542E1,2.916252613E0,2.242672920E0,1.044048309E1
2.944757505E1,3.328117132E0,2.146960020E0,1.165454197E1
2.946781964E1,2.899502754E0,1.581954837E0,1.354816151E1
2.948812479E1,1.738385677E0,1.196411371E0,1.411316681E1
2.950839766E1,9.529415965E-1,1.229910851E0,1.287308693E1
2.952867135E1,1.558624864E0,1.339980721E0,1.105813122E1
2.954891162E1,2.985644341E0,1.462313771E0,9.724730492E0
2.956921427E1,3.414258718E0,1.802094579E0,8.953642845E0
2.958945651E1,2.995215654E0,1.766202211E0,8.534600258E0
2.960976318E1,2.082952023E0,1.625025630E0,8.235497475E0
2.963000224E1,1.024726272E0,1.469492197E0,7.663313389E0
2.965027474E1,2.994019389E-1,1.510170221E0,6.717550278E0
2.967058089E1,1.271187067E-1,1.761416554E0,6.176473618E0
2.969083484E1,5.557330847E-1,2.056032896E0,6.157330990E0
2.971112885E1,9.385846853E-1,2.324028969E0,6.298507214E0
2.973139412E1,1.036690354E0,2.637787819E0,6.377470493E0
2.975174745E1,1.266700506E0,2.810070992E0,5.989833355E0
2.977191479E1,1.252343535E0,2.860320330E0,5.554040432E0
2.979222177E1,8.356932998E-1,3.066402197E0,5.661717415E0
2.981249016E1,5.243272781E-1,3.202793121E0,6.655336857E0
2.983273068E1,4.908277392E-1,3.066402197E0,7.971987724E0
2.985300432E1,2.850449979E-1,3.176471949E0,8.970393181E0
2.987331120E1,-1.579262912E-1,3.406183004E0,9.470791817E0
2.989358193E1,-6.918248534E-1,3.557229996E0,1.022273636E1
2.991385990E1,-5.841478109E-1,3.480659723E0,1.186032486E1
2.993412563E1,4.597210586E-1,2.932105064E0,1.288744354E1
2.995440521E1,6.107679605E-1,2.750250578E0,1.264546967E1
2.997467563E1,-5.985047817E-1,2.936890602E0,1.187228870E1
2.999494776E1,-1.498505235E0,3.133401155E0,1.171196938E1
3.001522292E1,-5.482555032E-1,3.020938635E0,1.261675549E1
3.003546318E1,7.758727670E-1,2.374278307E0,1.377338600E1
3.005577042E1,7.830511928E-1,1.799701691E0,1.467577934E1
3.007604307E1,1.438684613E-1,1.715952992E0,1.421605873E1
3.009628219E1,2.922234535E-1,1.713560104E0,1.232722378E1
3.011658609E1,5.820540786E-1,1.854736686E0,1.055773163E1
3.013685901E1,7.519445419E-1,2.142174482E0,9.786943436E0
3.015710630E1,1.077667475E0,2.089532375E0,9.662516594E0
3.017740635E1,1.209272742E0,1.962712765E0,9.387042999E0
3.019767599E1,1.000798106E0,1.826022744E0,8.668897629E0
3.021795448E1,7.830511928E-1,1.653739572E0,7.730312824E0
3.023835448E1,6.131607890E-1,1.605883121E0,6.865905285E0
3.025849349E1,7.663014531E-1,1.749452472E0,6.559624195E0
3.027875953E1,1.077667475E0,1.984248161E0,6.562016964E0
3.029904839E1,7.375875711E-1,2.216351986E0,6.930511475E0
3.031931849E1,4.046861231E-1,2.245065928E0,7.294519901E0
3.033955870E1,6.538388133E-1,2.149353027E0,7.170093060E0
3.035983255E1,9.888339639E-1,2.398206472E0,7.150950432E0
3.038010609E1,1.135095239E0,2.707179785E0,8.005487442E0
3.040037708E1,1.127916813E0,2.661715984E0,8.975178719E0
3.042068375E1,6.897311211E-1,2.767000198E0,9.410971642E0
3.044095719E1,2.635096014E-1,2.810070992E0,9.348757744E0
3.046122974E1,-2.392822690E-2,2.951247692E0,9.645767212E0
3.048150271E1,6.729813665E-2,3.200400352E0,1.024187946E1
3.050177880E1,6.993024349E-1,2.973082066E0,1.058166027E1
3.052204708E1,4.405784607E-1,2.690429926E0,1.069920731E1
3.054229068E1,-1.603191197E-1,2.487040043E0,1.066331482E1
3.056259693E1,-5.742774159E-2,2.577967405E0,1.028734303E1
3.058286677E1,1.460519075E0,2.790928602E0,1.010070229E1
3.060315162E1,2.971287489E0,2.611466885E0,1.087388325E1
3.062338078E1,2.277069807E0,1.742274046E0,1.300708485E1
3.064369141E1,5.365904570E-1,7.677969933E-1,1.434556961E1
3.066392948E1,-4.378865361E-1,5.763711333E-1,1.397438335E1
3.068423719E1,-1.196411345E-2,8.180462122E-1,1.247318649E1
3.070450474E1,1.266700506E0,1.342373490E0,1.017727280E1
3.072478339E1,2.475674152E0,1.790130496E0,8.127820015E0
3.074505229E1,2.861217737E0,2.012962103E0,6.830013275E0
3.076532828E1,2.461317301E0,2.063211441E0,5.951548100E0
3.078556807E1,1.553839207E0,1.847558141E0,5.805286884E0
3.080587526E1,6.777670383E-1,1.505384564E0,6.310471535E0
3.082611401E1,-4.067798331E-2,1.316052437E0,7.002595425E0
3.084638495E1,-3.996013701E-1,1.294517040E0,7.414160728E0
3.086669495E1,-3.373879790E-1,1.524527073E0,7.167700291E0
3.088709495E1,-2.392822644E-3,1.953141451E0,7.028916359E0
3.090723745E1,1.414756328E-1,2.273779631E0,7.457231998E0
3.092747724E1,9.601201117E-2,2.295315027E0,7.483552933E0
3.094778573E1,-1.124626622E-1,2.630609512E0,7.177271366E0
3.096802505E1,-1.244267747E-1,2.994617462E0,7.440482140E0
3.098833266E1,1.438684613E-1,3.109472990E0,8.314460754E0
3.100860745E1,1.582254022E-1,3.324826956E0,9.525827408E0
3.102884427E1,-2.105683982E-1,3.470789194E0,1.042612648E1
3.104912245E1,-4.905286431E-1,3.693620920E0,1.084038353E1
3.106938969E1,-5.982056633E-2,3.739084482E0,1.138624668E1
3.108969536E1,4.908277392E-1,3.552444220E0,1.200867939E1
3.110997016E1,6.490531564E-2,3.590729475E0,1.220518970E1
3.113025026E1,-6.966105103E-1,3.652942896E0,1.229851055E1
3.115051917E1,-6.224330068E-1,3.343969584E0,1.244686508E1
3.117075776E1,-2.033899277E-1,3.200400352E0,1.284915829E1
3.119103177E1,-1.076770201E-1,2.965903759E0,1.314586830E1
3.121130219E1,-1.914258152E-1,2.601895571E0,1.246122169E1
3.123157490E1,9.870393202E-3,2.539682150E0,1.141735363E1
3.125188401E1,4.405784607E-1,2.393420935E0,1.085234833E1
3.127214443E1,4.932205677E-1,2.331207514E0,1.086909771E1
3.129242662E1,4.884349108E-1,2.127817631E0,1.097438240E1
3.131269719E1,5.294120312E-1,1.904985905E0,1.053380394E1
3.133297563E1,6.107679605E-1,1.885843396E0,9.456435204E0
3.135324375E1,8.213363886E-1,1.986641049E0,8.123034477E0
3.137351844E1,9.816554785E-1,1.989033818E0,7.131807804E0
3.139379578E1,1.211665511E0,1.984248161E0,6.779763699E0
3.141406964E1,1.525125384E0,2.060818434E0,7.311269760E0
3.143430854E1,1.450947881E0,2.132603168E0,8.182855606E0
3.145457802E1,8.261220455E-1,2.266601324E0,8.225926399E0
3.147488927E1,2.419741899E-1,2.362314224E0,7.826025486E0
3.149515823E1,-5.503492057E-2,2.453540564E0,7.613064289E0
3.151543083E1,1.677966863E-1,2.611466885E0,7.699205875E0
3.153570547E1,3.616153300E-1,2.862713099E0,8.082356453E0
3.155598177E1,1.127617657E-1,2.994617462E0,8.302495956E0
3.157621792E1,-3.589234054E-1,3.078366280E0,8.032107353E0
3.159652568E1,-4.689932466E-1,3.257827997E0,7.663313389E0
3.161679536E1,-5.267201066E-1,3.367897987E0,7.900203228E0
3.163707755E1,-2.344966233E-1,3.164507866E0,9.178867340E0
3.165730854E1,4.621138871E-1,2.802892685E0,1.089781189E1
3.167760323E1,5.123631358E-1,2.580360174E0,1.142692471E1
3.169785599E1,1.869392693E-1,2.750250578E0,1.068485069E1
3.171814250E1,3.089732230E-1,2.831606388E0,9.983155251E0
3.173843865E1,1.024726272E0,2.520539522E0,1.005254745E1
3.175868328E1,1.915454507E0,2.154138565E0,1.176700401E1
3.177898391E1,2.119143486E0,1.687239051E0,1.395524120E1
3.179925865E1,1.671386600E0,1.445564032E0,1.413948822E1
3.181949484E1,1.374377489E0,1.491027594E0,1.151785183E1
3.183978594E1,1.590030670E0,1.737488389E0,8.465208054E0
3.186004000E1,2.300997972E0,2.094317913E0,7.115057945E0
3.188034724E1,2.676970243E0,2.163709879E0,7.026523590E0
3.190058714E1,2.367997169E0,2.149353027E0,7.476374149E0
3.192089583E1,1.716850281E0,1.931606054E0,7.830811024E0
3.194113344E1,7.351947427E-1,1.720738530E0,7.684848785E0
3.196143901E1,-1.866401732E-1,1.725524187E0,7.122236729E0
3.198171526E1,-4.019941986E-1,1.770987868E0,6.377470493E0
3.200198990E1,1.944168471E-2,1.926820397E0,6.001797199E0
3.202222693E1,3.137588799E-1,2.314457655E0,6.157330990E0
3.204253109E1,2.922234535E-1,2.630609512E0,6.566802502E0
3.206277651E1,1.223330572E-1,2.735893488E0,6.868298531E0
3.208307599E1,-2.392822653E-1,2.778964281E0,6.966403961E0
3.210333255E1,-3.876372576E-1,2.977867842E0,6.940083027E0
3.212362797E1,-1.411765367E-1,3.291327477E0,7.402196884E0
3.214386380E1,1.465603895E-2,3.422932863E0,8.273782730E0
3.216417281E1,-6.221338734E-2,3.399004459E0,9.475577354E0
3.218441620E1,-2.943171859E-1,3.341576815E0,1.074706364E1
3.220471052E1,-7.947162390E-1,3.521337509E0,1.213789177E1
3.222495682E1,-1.063011408E0,3.533301830E0,1.383081436E1
3.224526146E1,-7.348956466E-1,3.308077335E0,1.503739452E1
3.226550370E1,-3.062812984E-1,3.288934708E0,1.485075474E1
3.228581375E1,-1.842473447E-1,3.415754318E0,1.321795273E1
3.230604750E1,-2.560320199E-1,3.583550930E0,1.220040417E1
3.232635891E1,6.729813665E-2,3.410968781E0,1.272951698E1
3.234659906E1,3.592225015E-1,2.719143867E0,1.347637749E1
3.236689896E1,-2.967100143E-1,2.245065928E0,1.286112213E1
3.238717750E1,-9.311071038E-1,2.216351986E0,1.133360481E1
3.240744750E1,-2.488535494E-1,2.216351986E0,1.006929684E1
3.242769391E1,9.577272534E-1,2.089532375E0,9.573683739E0
3.244799932E1,1.127916813E0,2.142174482E0,9.430113792E0
3.246823719E1,9.601200819E-1,1.876272082E0,8.702396393E0
3.248853750E1,9.026923180E-1,2.087139606E0,7.383054256E0
3.250881599E1,1.101595759E0,1.972284079E0,6.573981285E0
3.252909141E1,6.658028960E-1,1.811665893E0,6.530910492E0
3.254936286E1,4.764707983E-1,1.308874011E0,6.492625237E0
3.256963162E1,1.558325738E-1,1.115055323E0,6.506981850E0
3.258990781E1,-3.302095234E-1,1.443171144E0,6.765407085E0
3.261018083E1,-2.129612118E-1,1.648953915E0,6.880262375E0
3.263042193E1,8.165507019E-2,2.003390789E0,6.511767864E0
3.265072740E1,1.534397453E-1,2.455933332E0,6.372684956E0
3.267100104E1,1.055833027E-1,2.625823736E0,7.316055298E0
3.269127057E1,-9.092725813E-2,2.582752943E0,8.819644928E0
3.271151505E1,-8.614161611E-2,2.558824778E0,1.034237766E1
3.273181521E1,1.390828192E-1,2.671287298E0,1.108923721E1
3.275209312E1,3.448655605E-1,2.855534792E0,1.096481037E1
3.277236120E1,5.653043389E-1,2.798106909E0,1.025862885E1
3.279263589E1,8.189435601E-1,2.649751902E0,1.024666500E1
3.281287583E1,9.505487680E-1,2.237887383E0,1.143649578E1
3.283315208E1,4.381856322E-1,1.876272082E0,1.266221905E1
3.285345729E1,3.879363835E-1,1.909771562E0,1.242054367E1
3.287372995E1,1.470090389E0,1.866700768E0,1.135274696E1
3.289400120E1,2.418246269E0,1.646561027E0,1.135992527E1
3.291424130E1,2.317747831E0,1.210768223E0,1.245643616E1
3.293451677E1,2.104786634E0,8.587242365E-1,1.347398472E1
3.295482589E1,1.996810555E0,4.232304990E-1,1.288505077E1
3.297509677E1,1.762313843E0,4.088735580E-1,1.133121204E1
3.299536781E1,1.398305774E0,8.515457511E-1,1.015573788E1
3.301560833E1,1.228415370E0,9.619147182E-1,9.698409081E0
3.303591734E1,1.348056436E0,8.853443861E-1,9.415757179E0
3.305619156E1,1.379163146E0,1.031306505E0,8.781359673E0
3.307643151E1,1.391127229E0,1.179661512E0,7.861917973E0
3.309673812E1,1.328913927E0,1.289731383E0,6.734300137E0
3.311701724E1,1.111167073E0,1.560419440E0,5.771787167E0
3.313727620E1,9.170492887E-1,1.596311808E0,5.144568920E0
3.315756250E1,6.753742099E-1,1.689631939E0,4.898108006E0
3.317779391E1,3.448655605E-1,2.156531334E0,5.556433201E0
3.319808938E1,2.901297435E-2,2.484647274E0,6.648158550E0
3.321837406E1,6.011966988E-2,2.551646233E0,7.064808846E0
3.323877406E1,2.300100774E-1,2.810070992E0,7.244270325E0
3.325888682E1,3.496512175E-1,2.893819809E0,7.610671520E0
3.327916036E1,1.941177398E-1,2.973082066E0,8.240283012E0
3.329946828E1,-4.331009090E-1,3.339184046E0,9.111868858E0
3.331970422E1,-5.096712112E-1,3.686442375E0,9.964012146E0
3.334001552E1,1.704886183E-2,3.992723703E0,1.072792149E1
3.336028833E1,9.529415965E-1,3.844368696E0,1.141256714E1
3.338056250E1,1.307378531E0,3.456432343E0,1.159442234E1
3.340083083E1,5.318048596E-1,2.800499916E0,1.143888855E1
3.342110880E1,-5.482555032E-1,2.499004126E0,1.175264740E1
3.344138849E1,-9.382855892E-1,2.441576481E0,1.289222908E1
3.346161979E1,-7.612167001E-1,2.371885538E0,1.369412422E1
3.348189182E1,-4.953143001E-1,2.113460541E0,1.352901936E1
3.350220135E1,-9.810572863E-2,1.668096542E0,1.229133129E1
3.352246958E1,-1.818545163E-1,1.428814173E0,1.095523930E1
3.354274417E1,5.294119939E-2,1.170090318E0,1.013659477E1
3.356302016E1,3.161516786E-1,1.083948612E0,9.851550102E0
3.358329021E1,5.365904570E-1,1.189232826E0,9.784550667E0
3.360356109E1,9.050851464E-1,1.385444283E0,9.303294182E0
3.362383563E1,9.696913958E-1,1.670489311E0,8.587541580E0
3.364407740E1,1.034297585E0,1.754238129E0,7.876275063E0
3.366437948E1,1.295414329E0,1.646561027E0,7.694420338E0
3.368462333E1,7.734799385E-1,1.653739572E0,8.307282448E0
3.370490760E1,3.858426586E-2,1.464706540E0,8.582756042E0
3.372520141E1,-3.732803464E-1,1.296909928E0,7.723134041E0
3.374543896E1,-6.439684033E-1,1.720738530E0,6.633801460E0
3.376574896E1,9.361918271E-2,2.058425665E0,6.504589081E0
3.378598662E1,9.002995491E-1,2.118246317E0,7.028916359E0
3.380625969E1,9.146564603E-1,2.252244234E0,8.089534760E0
3.382656562E1,4.357928336E-1,2.216351986E0,8.752646446E0
3.384684229E1,-2.153540403E-2,2.089532375E0,9.138189316E0
3.386707812E1,-7.133602500E-1,2.228316069E0,9.552147865E0
3.388738495E1,-4.881358147E-1,2.225923300E0,9.923335075E0
3.390765854E1,3.855435550E-1,2.352742910E0,1.062263680E1
3.392793146E1,8.763712645E-1,2.431705952E0,1.146281719E1
3.394817172E1,1.429412484E0,1.799701691E0,1.164467144E1
3.396844510E1,1.944168448E0,1.201196909E0,1.133599758E1
3.398875344E1,2.633899450E0,1.275374413E0,1.068485069E1
3.400898964E1,3.289832115E0,1.483849168E0,1.026580715E1
3.402929813E1,3.148655415E0,1.840379715E0,1.139342499E1
3.404953974E1,2.272284269E0,1.462313771E0,1.356969738E1
3.406984469E1,1.345663667E0,9.260223508E-1,1.515942860E1
3.409011807E1,1.309771299E0,7.630113363E-1,1.454895973E1
3.411035557E1,2.090429783E0,8.300103545E-1,1.186271763E1
3.413066484E1,2.971287489E0,1.170090318E0,9.020642281E0
3.415094068E1,3.545864105E0,1.493420482E0,6.993024349E0
3.417120849E1,3.483650684E0,1.773380637E0,5.975476265E0
3.419144833E1,2.791825771E0,2.020140409E0,5.781358719E0
3.421176005E1,1.819741607E0,1.917249203E0,6.298507214E0
3.423203182E1,1.249950767E0,1.419242978E0,7.258627415E0
3.425230073E1,1.036690354E0,1.064806104E0,8.144570351E0
3.427254255E1,3.017947674E-1,1.131805062E0,8.697610855E0
3.429285177E1,-3.708875179E-1,1.318445325E0,8.257032394E0
3.431312474E1,-5.650052428E-1,1.558026671E0,7.203592777E0
3.433339708E1,-9.810572863E-2,1.737488389E0,6.377470493E0
3.435363365E1,2.778665423E-1,2.077568293E0,6.597909451E0
3.437391182E1,2.922234535E-1,2.395813704E0,7.665706635E0
3.439417912E1,1.510469317E-1,2.484647274E0,8.594719887E0
3.441445745E1,3.379862010E-2,2.515753984E0,9.241081238E0
3.443472953E1,2.228316069E-1,2.340778828E0,9.818050385E0
3.445500396E1,7.208377868E-2,2.508575439E0,1.063699436E1
3.447530573E1,1.438684613E-1,2.510968208E0,1.115174961E1
3.449554453E1,4.932205677E-1,2.431705952E0,1.114217854E1
3.451585120E1,8.883354068E-1,2.235494614E0,1.169761276E1
3.453612891E1,5.772684813E-1,1.998605132E0,1.240379429E1
3.455636620E1,-1.435693540E-2,1.945963025E0,1.215942764E1
3.457664182E1,1.342971772E-1,2.039283037E0,1.148674488E1
3.459695568E1,5.437689424E-1,2.051247120E0,1.135992527E1
3.461721854E1,7.567301393E-1,1.948355794E0,1.175982571E1
3.463747521E1,6.466603279E-1,1.770987868E0,1.206610775E1
3.465776552E1,4.549354017E-1,1.586740494E0,1.177657604E1
3.467804870E1,4.980062246E-1,1.634596944E0,1.076620674E1
3.469831469E1,7.112665176E-1,1.854736686E0,9.705587387E0
3.471855615E1,8.596215248E-1,2.077568293E0,9.568898201E0
3.473882651E1,8.739784956E-1,2.087139606E0,9.999904633E0
3.475913260E1,7.423732281E-1,1.883450508E0,9.904191971E0
3.477940568E1,4.932205677E-1,1.761416554E0,9.145368576E0
3.479967880E1,3.687937856E-1,1.804487348E0,8.137392044E0
3.481991896E1,4.429712892E-1,1.885843396E0,7.651349545E0
3.484021219E1,5.485545993E-1,1.962712765E0,7.854739666E0
3.486046125E1,6.969096065E-1,2.161317110E0,8.058428764E0
3.488076802E1,6.801598072E-1,2.402992249E0,8.077570915E0
3.490101344E1,5.389832854E-1,2.431705952E0,7.471588612E0
3.492131182E1,2.204387933E-1,2.460718870E0,6.705586433E0
3.494157677E1,7.447660714E-2,2.530110836E0,6.993024349E0
3.496185589E1,3.352942765E-1,2.661715984E0,8.111070633E0
3.498210292E1,5.533402562E-1,2.652144909E0,9.226723671E0
3.500237313E1,2.392822644E-3,2.673680305E0,9.779765129E0
3.502264641E1,-5.458626747E-1,2.716751099E0,9.920941353E0
3.504295563E1,-5.578267574E-1,2.855534792E0,9.755837440E0
3.506319766E1,-1.722832322E-1,2.958725214E0,9.882657051E0
3.508349995E1,-1.555334777E-1,2.932105064E0,1.056730270E1
3.510377438E1,-6.272186637E-1,2.783750057E0,1.151067352E1
3.512405010E1,-7.061817646E-1,2.537289381E0,1.171436214E1
3.514432203E1,-2.584248483E-1,2.268994093E0,1.108923721E1
3.516459307E1,3.305086195E-1,2.170888424E0,1.104138088E1
3.518486849E1,8.524430394E-1,1.888236165E0,1.214267731E1
3.520513453E1,7.591229677E-1,1.330409408E0,1.313151169E1
3.522538323E1,3.089732230E-1,8.563314080E-1,1.248515034E1
3.524568875E1,5.267201066E-1,4.734797776E-1,1.090259743E1
3.526592938E1,1.314556956E0,4.328017831E-1,9.475577354E0
3.528622854E1,2.059023857E0,8.443672657E-1,8.865108490E0
3.530646990E1,1.858026743E0,1.335195065E0,8.881858826E0
3.532677719E1,1.257129192E0,1.502991676E0,8.740681648E0
3.534701990E1,6.299105883E-1,1.555633783E0,8.288139343E0
3.536732740E1,2.730808854E-1,1.555633783E0,7.766204834E0
3.538756505E1,1.677966863E-1,1.713560104E0,7.387839794E0
3.540787240E1,2.994019389E-1,1.802094579E0,6.961618423E0
3.542811031E1,2.467598319E-1,1.929213285E0,6.478268147E0
3.544841755E1,9.840483218E-2,2.170888424E0,6.343971252E0
3.546866245E1,6.251249462E-2,2.371885538E0,6.822834492E0
3.548892922E1,-3.110669367E-2,2.506182671E0,7.244270325E0
3.550920380E1,-1.651047617E-1,2.640180588E0,6.808477879E0
3.552951266E1,-5.171487927E-1,3.049652576E0,6.595516682E0
3.554978281E1,-1.316052526E-1,3.257827997E0,7.383054256E0
3.557005297E1,4.645066857E-1,3.432504177E0,8.716753960E0
3.559032615E1,4.668995142E-1,3.662514210E0,9.918548584E0
3.561059781E1,-3.062812984E-1,3.841975927E0,1.090499020E1
3.563087260E1,-7.301099896E-1,3.865904093E0,1.181725407E1
3.565114391E1,1.223330572E-1,3.485445261E0,1.220040417E1
3.567139036E1,5.964110494E-1,3.413361549E0,1.182203960E1
3.569169542E1,3.858426586E-2,3.593122244E0,1.111316586E1
3.571193573E1,-7.731808424E-1,3.640978813E0,1.030409241E1
3.573223792E1,-9.000003934E-1,3.801297903E0,1.039023399E1
3.575247958E1,-5.219344497E-1,3.849154234E0,1.135753250E1
3.577279073E1,-4.450650215E-1,3.719941854E0,1.224108219E1
3.579302714E1,-7.468597889E-1,3.391826153E0,1.175264740E1
3.581333036E1,-7.995018363E-1,3.207578659E0,1.014616585E1
3.583357734E1,-7.037889361E-1,3.035295486E0,8.671290398E0
3.585387969E1,-4.785645306E-1,2.695215702E0,8.551649094E0
3.587411812E1,-2.895315289E-1,2.383849621E0,9.727123260E0
3.589442448E1,-3.326023519E-1,2.115853310E0,1.055773163E1
3.591470177E1,-1.004985496E-1,1.885843396E0,1.012702370E1
3.593494073E1,3.017947674E-1,1.720738530E0,8.443673134E0
3.595524870E1,2.682952285E-1,1.804487348E0,6.727121830E0
3.597551505E1,4.576273263E-2,1.797308922E0,6.119045734E0
3.599579484E1,-7.468597889E-1,1.806880236E0,6.791728020E0
3.601606365E1,-1.213759303E0,1.778166294E0,7.706384659E0
3.603630375E1,-7.468597889E-1,1.902593136E0,8.051250458E0
3.605661141E1,-3.804588020E-1,2.441576481E0,7.440482140E0
3.607685516E1,-3.014956415E-1,2.805285454E0,7.038487911E0
3.609712203E1,-6.128616929E-1,2.929712296E0,7.510172844E0
3.611742620E1,-7.229315639E-1,2.850749016E0,8.484351158E0
3.613770198E1,-4.594219327E-1,2.872284412E0,9.279366493E0
3.615796688E1,-2.775674164E-1,3.061616659E0,9.583553314E0
3.617824880E1,-6.631109715E-1,3.265006542E0,1.000708294E1
3.619851912E1,-8.306085467E-1,3.142972469E0,1.044766140E1
3.621879786E1,-6.056832075E-1,2.826820850E0,1.088824081E1
3.623912526E1,-1.531406492E-1,2.271386862E0,1.169761276E1
3.625931037E1,-8.614161611E-2,1.847558141E0,1.251865005E1
3.627961823E1,-4.139583111E-1,1.897807479E0,1.258325577E1
3.629989010E1,-2.344966233E-1,2.154138565E0,1.188185978E1
3.632013078E1,3.687937856E-1,2.197209358E0,1.090977573E1
3.634040396E1,7.902296782E-1,2.012962103E0,1.050508976E1
3.636070781E1,1.348056436E0,1.378265858E0,1.157288647E1
3.638098302E1,1.702493310E0,1.004985452E0,1.269841099E1
3.640125234E1,1.791027784E0,9.427721500E-1,1.200628662E1
3.642149188E1,1.917847395E0,9.858429432E-1,9.913763046E0
3.644179177E1,2.037488461E0,1.335195065E0,8.386244774E0
3.646207339E1,2.042274237E0,1.581954837E0,7.725526810E0
3.648231162E1,1.668993831E0,1.713560104E0,7.361518860E0
3.650259682E1,7.663014531E-1,1.768594980E0,7.481160164E0
3.652285724E1,-1.722832322E-1,1.636989832E0,7.847560883E0
3.654313307E1,-8.712865710E-1,1.414457321E0,8.048856735E0
3.656344203E1,-1.309472203E0,1.409671664E0,8.012665749E0
3.658368089E1,-1.046261668E0,1.404886007E0,7.387839794E0
3.660398198E1,-7.731808424E-1,1.878664851E0,6.851548672E0
3.662422396E1,-3.445664644E-1,2.288136721E0,6.841977119E0
3.664453510E1,-2.703889608E-1,2.556432009E0,7.093522549E0
3.666480766E1,-6.320042610E-1,2.850749016E0,7.189235687E0
3.668504412E1,-6.296114326E-1,2.980260611E0,7.351947784E0
3.670534995E1,-1.914258115E-2,3.080759048E0,7.948059559E0
3.672558938E1,2.659024298E-1,3.128615618E0,8.721539497E0
3.674586412E1,4.576273263E-2,3.190829039E0,9.617053032E0
3.676616802E1,-3.469592929E-1,3.298506021E0,1.015813065E1
3.678644464E1,-6.272186637E-1,3.375076294E0,1.050508976E1
3.680668380E1,-6.296114326E-1,3.286541939E0,1.129292679E1
3.682698932E1,-2.823530734E-1,3.099901676E0,1.224347496E1
3.684723401E1,-1.124626622E-1,2.934497833E0,1.233440208E1
3.686753401E1,-5.626124144E-1,3.131008387E0,1.201585770E1
3.688781151E1,-7.899305820E-1,3.183650494E0,1.136949635E1
3.690808031E1,-4.713860750E-1,3.126222849E0,1.093131161E1
3.692835510E1,-6.221338734E-2,2.917748213E0,1.174546909E1
3.694862771E1,-2.344966233E-1,2.575574398E0,1.301904869E1
3.696890214E1,-7.516453862E-1,2.300100803E0,1.309322643E1
3.698917104E1,-3.876372576E-1,2.099103689E0,1.158963680E1
3.700941469E1,4.022932947E-1,2.225923300E0,1.012702370E1
3.702968917E1,7.112665176E-1,2.347957134E0,9.547362328E0
3.704996177E1,2.467598319E-1,2.453540564E0,9.681659698E0
3.707023286E1,-1.507478207E-1,2.343171597E0,9.825228691E0
3.709050677E1,-3.732803464E-1,2.252244234E0,9.245866776E0
3.711081260E1,-1.818545163E-1,2.118246317E0,8.302495956E0
3.713107307E1,1.390828192E-1,1.969891191E0,7.311269760E0
3.715132568E1,8.404789865E-2,2.079961061E0,6.760621071E0
3.717163135E1,-2.105683982E-1,2.108675003E0,6.949654102E0
3.719190688E1,-6.128616929E-1,2.127817631E0,7.471588612E0
3.721218156E1,-4.881358147E-1,2.127817631E0,7.418946743E0
3.723245458E1,-3.589234129E-2,2.302493572E0,6.964011192E0
3.725272354E1,1.582254022E-1,2.592324257E0,6.640980244E0
3.727300219E1,2.012962103E-1,2.604288340E0,6.873084068E0
3.729324047E1,9.361918271E-2,2.458326101E0,7.689634800E0
3.731350958E1,-3.206382394E-1,2.546860695E0,9.188439369E0
3.733382219E1,-4.522434771E-1,2.563610315E0,1.084277630E1
3.735405771E1,-9.332008660E-2,2.616252422E0,1.106770229E1
3.737433151E1,1.941177398E-1,2.932105064E0,9.767801285E0
3.739463870E1,3.616153300E-1,3.085544825E0,9.286544800E0
3.741491141E1,6.466603279E-1,2.700001240E0,1.002622604E1
3.743518667E1,6.777670383E-1,2.010569334E0,1.102223873E1
3.745542651E1,4.190430641E-1,1.861915112E0,1.124985600E1
3.747569646E1,4.453641176E-1,2.067996979E0,1.058166027E1
3.749600677E1,6.227321029E-1,2.285743713E0,1.034237766E1
3.751627620E1,1.249950767E0,2.051247120E0,1.212832069E1
3.753655130E1,1.625923038E0,1.751845241E0,1.428574944E1
3.755682172E1,1.910668850E0,1.495813251E0,1.433599854E1
3.757706203E1,2.214856386E0,1.313659668E0,1.228176022E1
3.759733880E1,2.523530483E0,1.435992718E0,9.437292099E0
3.761761031E1,2.688934565E0,1.694417477E0,7.103094101E0
3.763792495E1,2.583351135E0,1.885843396E0,6.353542328E0
3.765815646E1,1.795813441E0,2.015354872E0,7.055237770E0
3.767844125E1,8.572286963E-1,1.869093537E0,8.039285660E0
3.769870583E1,2.467598319E-1,1.488634825E0,8.268997192E0
3.771897833E1,-2.201396823E-1,1.292124271E0,7.675277710E0
3.773924594E1,-6.367899179E-1,1.378265858E0,6.791728020E0
3.775952010E1,-5.913262963E-1,1.617847204E0,6.609873295E0
3.777979287E1,5.533402413E-2,1.957927108E0,6.985845566E0
3.780010333E1,3.496512175E-1,2.333600283E0,7.399804115E0
3.782033990E1,1.079761237E-1,2.556432009E0,7.488338470E0
3.784065052E1,-1.220339537E-1,2.587538481E0,7.146164894E0
3.786092328E1,-2.536391914E-1,2.743072033E0,7.215556622E0
3.788119307E1,-4.354937077E-1,2.924926519E0,8.053643227E0
3.790143651E1,-4.067798331E-2,3.066402197E0,9.226723671E0
3.792173458E1,4.070789516E-1,3.274577856E0,1.026341438E1
3.794201469E1,2.778665423E-1,3.571586847E0,1.077577782E1
3.796228271E1,-1.292124242E-1,3.655335665E0,1.069202900E1
3.798252609E1,-2.871387303E-1,3.573979616E0,1.107248783E1
3.800283964E1,-2.392822644E-3,3.329612732E0,1.186032486E1
3.802310302E1,2.563311160E-1,3.212364435E0,1.200389385E1
3.804337490E1,1.677966863E-1,3.334398270E0,1.163270760E1
3.806361964E1,-3.541377485E-1,3.468396425E0,1.150349522E1
3.808392193E1,-9.358927608E-1,3.389433384E0,1.194168091E1
3.810418287E1,-1.285543919E0,3.047259569E0,1.247797203E1
3.812447094E1,-1.280758262E0,2.740679264E0,1.277976704E1
3.814474656E1,-8.688937426E-1,2.448754787E0,1.222911835E1
3.816501427E1,-6.224330068E-1,2.249851465E0,1.088345432E1
3.818525599E1,-1.148554832E-1,2.077568293E0,1.019641590E1
3.820552859E1,1.582254022E-1,2.120639086E0,1.035434151E1
3.822583677E1,3.161516786E-1,2.158924341E0,1.010788059E1
3.824610734E1,4.573282301E-1,2.173281193E0,9.286544800E0
3.826638135E1,1.486541033E-1,2.190030813E0,8.235497475E0
3.828665625E1,-2.201396823E-1,2.134995937E0,7.483552933E0
3.830692755E1,-4.067798555E-1,1.991426587E0,7.016952515E0
3.832720531E1,-3.349951804E-1,2.027318954E0,6.727121830E0
3.834747812E1,5.629115105E-1,2.180459738E0,6.526124477E0
3.836775062E1,8.452646136E-1,2.357528448E0,6.425326824E0
3.838802354E1,-3.828516230E-2,2.410170555E0,6.511767864E0
3.840829688E1,-1.187438250E0,2.192423820E0,6.583552361E0
3.842853354E1,-1.850549221E0,2.257030010E0,6.889833927E0
3.844883755E1,-9.861420393E-1,2.577967405E0,8.139784813E0
3.846908401E1,8.189435601E-1,2.566003084E0,1.003101158E1
3.848938849E1,1.271486163E0,2.575574398E0,1.136231804E1
3.850963167E1,3.209373355E-1,2.637787819E0,1.146999550E1
3.852993474E1,-3.637090325E-1,2.451147795E0,1.080449200E1
3.855017198E1,-7.657032460E-2,2.307279348E0,1.061785126E1
3.857047839E1,5.027918816E-1,2.268994093E0,1.110838032E1
3.859071865E1,7.663014531E-1,2.120639086E0,1.158006477E1
3.861102562E1,6.729813814E-1,1.897807479E0,1.181007481E1
3.863130109E1,3.520440459E-1,1.900200248E0,1.168804169E1
3.865157260E1,6.801598072E-1,1.620239973E0,1.206610775E1
3.867181203E1,1.316949725E0,1.277767301E0,1.343091393E1
3.869208557E1,1.659422517E0,1.067198873E0,1.394806194E1
3.871239406E1,1.855633974E0,8.036893010E-1,1.236072350E1
3.873263005E1,1.635494232E0,9.714859724E-1,9.458827972E0
3.875294214E1,1.939382792E0,1.608275890E0,7.351947784E0
3.877320703E1,2.997608662E0,2.060818434E0,6.758228302E0
3.879348484E1,3.514757395E0,2.570788860E0,7.328019142E0
3.881375849E1,1.905883193E0,2.635395050E0,8.007880211E0
3.883400224E1,-4.402793646E-1,2.247458696E0,8.333602905E0
3.885429927E1,-1.855334878E0,1.687239051E0,8.551649094E0
3.887457938E1,-2.135594130E0,1.778166294E0,8.688039780E0
3.889481583E1,-1.041476011E0,2.362314224E0,8.458029747E0
3.891511964E1,2.036890239E-1,2.716751099E0,7.854739666E0
3.893539578E1,3.640081584E-1,3.004188776E0,7.117451191E0
3.895566854E1,9.122636169E-2,3.133401155E0,6.025725842E0
3.897594365E1,-1.770688742E-1,3.396611691E0,5.601896763E0
3.899621682E1,-6.320042610E-1,3.595515013E0,6.456732750E0
3.901648667E1,-7.229315639E-1,3.626621723E0,7.550850868E0
3.903676594E1,-4.067798555E-1,3.729513168E0,8.123034477E0
3.905700302E1,-3.158525825E-1,3.920938969E0,8.453244209E0
3.907728448E1,-7.133602500E-1,4.177269936E0,9.265008926E0
3.909758516E1,-8.784649968E-1,4.045664787E0,1.070638561E1
3.911784255E1,-4.737788737E-1,3.731905937E0,1.192493057E1
3.913812464E1,6.945167780E-1,3.509373426E0,1.130489063E1
3.915837599E1,1.077667475E0,3.585943937E0,9.719944954E0
3.917864182E1,6.155536175E-1,3.978366852E0,8.728717804E0
3.919893203E1,-4.546362907E-2,4.069592953E0,8.276175499E0
3.921922255E1,-8.593224287E-1,4.062414646E0,8.819644928E0
3.923952865E1,-1.213759303E0,3.492623806E0,1.023230743E1
3.925976490E1,-1.359721422E0,2.767000198E0,1.134556866E1
3.928004063E1,-9.693922997E-1,2.175673962E0,1.218844032E1
3.930028031E1,-1.890329868E-1,1.852343798E0,1.229133129E1
3.932055453E1,1.175474152E-1,2.137388945E0,1.115174961E1
3.934082484E1,5.700899959E-1,2.328814745E0,9.667302132E0
3.936109885E1,9.337990284E-1,2.371885538E0,8.755039215E0
3.938137276E1,9.290133715E-1,2.568396091E0,8.295317650E0
3.940164396E1,8.596215248E-1,2.642573595E0,8.132605553E0
3.942194958E1,6.323033571E-1,2.635395050E0,8.020143509E0
3.944221057E1,3.687937856E-1,2.668894529E0,8.204390526E0
3.946250073E1,3.951148391E-1,2.585145712E0,8.944071770E0
3.948273557E1,2.826521695E-1,2.798106909E0,9.262616158E0
3.950302865E1,9.870393202E-3,3.176471949E0,8.745467186E0
3.952331964E1,-4.785645287E-3,3.162115097E0,7.919345856E0
3.954359193E1,-1.268195957E-1,3.174079180E0,7.639385223E0
3.956386266E1,1.944168471E-2,3.183650494E0,8.056035995E0
3.958410328E1,-2.727817893E-1,3.020938635E0,9.157332420E0
3.960440401E1,-1.290329576E0,2.869891644E0,1.050748253E1
3.962468599E1,-1.628016710E0,2.747857809E0,1.121157074E1
3.964493208E1,-1.108475089E0,2.633002281E0,1.037348461E1
3.966519927E1,-4.713860750E-1,2.702394009E0,8.855537415E0
3.968550188E1,3.137588799E-1,2.539682150E0,8.520243645E0
3.970577693E1,7.447660565E-1,2.166102648E0,9.530612946E0
3.972601479E1,4.453641176E-1,1.960319996E0,1.055055332E1
3.974632505E1,4.576273263E-2,2.048854351E0,1.065135098E1
3.976656156E1,4.860421121E-1,2.288136721E0,1.094566822E1
3.978687099E1,1.592423439E0,1.993819475E0,1.137906837E1
3.980714500E1,2.147857428E0,1.519741535E0,1.135992527E1
3.982738167E1,2.274677038E0,1.263410330E0,1.102702427E1
3.984768948E1,1.934597135E0,1.148554921E0,1.061785126E1
3.986792615E1,1.621137381E0,1.299302697E0,1.080209827E1
3.988823484E1,2.126322031E0,1.392622828E0,1.099591732E1
3.990850615E1,2.542673111E0,1.821237087E0,1.122353458E1
3.992878073E1,2.444567442E0,1.996212244E0,1.116371441E1
3.994905771E1,1.848455548E0,1.965105653E0,1.017009449E1
3.996932974E1,1.103988528E0,1.823629975E0,8.419744492E0
3.998960036E1,3.640081584E-1,1.864308000E0,6.899405003E0
4.000987234E1,-2.344966233E-1,2.017747641E0,6.334399700E0
4.003014495E1,-1.435693540E-2,1.996212244E0,6.844369888E0
4.005042036E1,7.806583643E-1,2.173281193E0,7.735098362E0
4.007066245E1,1.003190875E0,2.410170555E0,8.005487442E0
4.009096281E1,7.178467698E-3,2.843570709E0,7.184450150E0
4.011123734E1,-1.094118118E0,3.293720484E0,6.492625237E0
4.013151422E1,-1.273579836E0,3.389433384E0,7.019345284E0
4.015175089E1,-5.793621540E-1,3.296113253E0,8.180462837E0
4.017205537E1,1.486541033E-1,3.370290756E0,9.408578873E0
4.019233104E1,-1.674975827E-2,3.312862873E0,1.049551868E1
4.021257198E1,-6.726822853E-1,3.001796007E0,1.040698433E1
4.023287563E1,-9.334999323E-1,2.853141785E0,9.578767776E0
4.025315349E1,-2.967100143E-1,2.711965322E0,9.858728409E0
4.027339354E1,1.226321608E-2,2.652144909E0,1.111555862E1
4.029366219E1,-1.579262912E-1,2.575574398E0,1.127378368E1
4.031393786E1,-4.211367965E-1,2.628216505E0,1.029930687E1
4.033420797E1,9.601201117E-2,2.733500719E0,9.818050385E0
4.035451917E1,1.151844978E0,2.680858612E0,1.076859951E1
4.037475432E1,6.825526357E-1,2.702394009E0,1.286590862E1
4.039505922E1,-1.144367456E0,2.704786777E0,1.417538071E1
4.041533604E1,-1.589731574E0,2.180459738E0,1.370369530E1
4.043560417E1,-1.043868899E0,2.096710920E0,1.145085239E1
4.045588323E1,-7.253243923E-1,2.510968208E0,8.869894028E0
4.047615635E1,-4.283152521E-1,2.532503605E0,7.095915318E0
4.049639495E1,-4.713860750E-1,2.656930447E0,6.425326824E0
4.051670078E1,-5.195416212E-1,2.566003084E0,7.689634800E0
4.053694641E1,-2.775674164E-1,2.393420935E0,9.300901413E0
4.055725250E1,-4.785645287E-3,2.431705952E0,9.834799767E0
4.057748562E1,1.558325738E-1,2.472683191E0,9.322437286E0
4.059777693E1,3.017947674E-1,2.546860695E0,8.178069115E0
4.061803469E1,3.927220106E-1,2.666501760E0,6.976274490E0
4.063831964E1,3.089732230E-1,2.829213619E0,6.267400742E0
4.065861443E1,2.850449979E-1,3.020938635E0,6.090332031E0
4.067887464E1,1.151545867E-1,3.274577856E0,6.643373013E0
4.069916146E1,-5.742774159E-2,3.363112211E0,7.593921661E0
4.071943391E1,-1.339980662E-1,3.241078377E0,8.044071198E0
4.073970833E1,-3.086741269E-1,3.209971666E0,8.000701904E0
4.075998266E1,-5.985047817E-1,3.372683525E0,8.302495956E0
4.078025292E1,-6.200401783E-1,3.600300789E0,8.709575653E0
4.080052938E1,-5.841478109E-1,3.885046721E0,9.169296265E0
4.082076365E1,-4.594219327E-1,3.751048565E0,9.861121178E0
4.084106370E1,-8.853443712E-2,3.150151014E0,1.069202900E1
4.086134776E1,-9.571290761E-2,2.723929405E0,1.124507046E1
4.088164208E1,-3.038884699E-1,2.630609512E0,1.154895878E1
4.090200219E1,2.347957194E-1,2.510968208E0,1.146281719E1
4.092218026E1,1.458126307E0,2.383849621E0,1.111077309E1
4.094240740E1,2.070987940E0,2.566003084E0,1.124267673E1
4.096271052E1,1.592423439E0,2.379063845E0,1.201346493E1
4.098295286E1,1.130309582E0,1.725524187E0,1.294008541E1
4.100323568E1,1.132702470E0,1.210768223E0,1.277258778E1
4.102349688E1,1.668993831E0,1.122233868E0,1.124267673E1
4.104380516E1,2.533101797E0,1.170090318E0,9.377471924E0
4.106404625E1,3.488436222E0,1.225125194E0,8.654540062E0
4.108434901E1,3.529114246E0,1.277767301E0,8.845966339E0
4.110460182E1,2.885145903E0,1.270588875E0,8.939286232E0
4.112486094E1,1.915454507E0,1.311266780E0,8.472386360E0
4.114517214E1,8.476574421E-1,1.383051515E0,7.735098362E0
4.116543984E1,8.404789865E-2,1.424028635E0,7.158128738E0
4.118571802E1,6.490531564E-2,1.543669701E0,6.841977119E0
4.120598578E1,3.592225015E-1,1.914856315E0,6.636194706E0
4.122623307E1,4.645066857E-1,2.412563324E0,6.597909451E0
4.124653260E1,2.491526604E-1,2.738286495E0,6.861119747E0
4.126677297E1,-7.178467698E-3,2.948854923E0,7.174878597E0
4.128707865E1,-3.852444589E-1,3.102294445E0,7.201199532E0
4.130732531E1,-7.013961077E-1,3.353540897E0,7.387839794E0
4.132762547E1,-5.841478109E-1,3.576372623E0,7.847560883E0
4.134790344E1,-3.158525825E-1,3.648157120E0,8.400602341E0
4.136817255E1,-3.541377485E-1,3.758227110E0,9.116654396E0
4.138841526E1,-8.330013752E-1,3.964009762E0,9.765408516E0
4.140872073E1,-1.314257860E0,4.052843571E0,1.030169964E1
4.142899385E1,-1.060618639E0,3.813261986E0,1.100070286E1
4.144926958E1,-2.679961324E-1,3.504587889E0,1.187228870E1
4.146950682E1,1.917249113E-1,3.224328518E0,1.204457188E1
4.148981297E1,-7.417750359E-2,3.116651535E0,1.133599758E1
4.151008849E1,-5.721837282E-1,3.035295486E0,1.057448101E1
4.153035891E1,-5.410770178E-1,2.879462957E0,1.083320522E1
4.155059833E1,-4.618147612E-1,2.503789902E0,1.241815090E1
4.157090604E1,-4.737788737E-1,2.027318954E0,1.385474205E1
4.159117292E1,-5.362913609E-1,1.715952992E0,1.361994648E1
4.161145542E1,-2.656033039E-1,1.601097465E0,1.194646645E1
4.163172823E1,2.300100774E-1,1.792523265E0,1.060319519E1
4.165196500E1,7.615157962E-1,1.871486425E0,1.036151981E1
4.167223734E1,1.309771299E0,1.725524187E0,1.047876835E1
4.169253870E1,1.551446438E0,1.574776411E0,1.008126068E1
4.171281922E1,1.412662625E0,1.431207061E0,9.015856743E0
4.173309104E1,9.672985673E-1,1.349551916E0,7.907381535E0
4.175336719E1,4.046861231E-1,1.354337573E0,7.399804115E0
4.177363990E1,7.686942816E-2,1.428814173E0,7.320840836E0
4.179391271E1,-1.435693651E-1,1.538884044E0,7.225128174E0
4.181418484E1,-5.048855543E-1,1.706381679E0,7.038487911E0
4.183442510E1,-8.258228898E-1,1.790130496E0,6.911369324E0
4.185473036E1,-7.301099896E-1,1.763809443E0,7.129415035E0
4.187500276E1,-3.517449200E-1,1.620239973E0,7.162914753E0
4.189527042E1,-4.259224236E-1,1.871486425E0,6.897012234E0
4.191551552E1,-5.602195859E-1,2.381456852E0,7.282555580E0
4.193582432E1,-7.657032460E-2,2.566003084E0,8.288139343E0
4.195609854E1,2.515454888E-1,2.707179785E0,9.492327690E0
4.197636823E1,8.883354068E-2,2.762214661E0,1.037348461E1
4.199664313E1,4.815555736E-2,2.738286495E0,1.091216850E1
4.201691135E1,8.261220455E-1,2.479861498E0,1.111795139E1
4.203715906E1,1.757528186E0,2.245065928E0,1.123071289E1
4.205742995E1,2.193320990E0,2.149353027E0,1.171436214E1
4.207773583E1,2.047059774E0,2.056032896E0,1.219083309E1
4.209797484E1,1.587637782E0,2.067996979E0,1.197278690E1
4.211825844E1,1.285843015E0,2.087139606E0,1.134556866E1
4.213855750E1,1.721635938E0,1.608275890E0,1.122114182E1
4.215882068E1,1.757528186E0,1.287338614E0,1.204217911E1
4.217907708E1,1.214058399E0,1.232303619E0,1.321795273E1
4.219934037E1,1.360020518E0,9.116654396E-1,1.303340626E1
4.221964698E1,2.286641121E0,9.834501147E-1,1.144606686E1
4.223991818E1,3.273082256E0,1.368694544E0,9.719944954E0
4.226015901E1,3.742374659E0,1.596311808E0,8.441280365E0
4.228046776E1,3.378366470E0,1.622632861E0,7.399804115E0
4.230074026E1,2.109572172E0,1.598704576E0,6.772585392E0
4.232097885E1,5.413761139E-1,1.524527073E0,6.858726978E0
4.234125177E1,-2.536391914E-1,1.416850090E0,7.064808846E0
4.236155974E1,4.785645287E-3,1.339980721E0,7.131807804E0
4.238179651E1,3.951148391E-1,1.641775489E0,7.028916359E0
4.240206880E1,4.884349108E-1,2.053640127E0,6.707979202E0
