"Time (s)","Acceleration x (m/s^2)","Acceleration y (m/s^2)","Acceleration z (m/s^2)"
3.178423000E-3,-4.386000156E0,3.081000090E0,1.444950104E0
2.323850700E-2,-4.048050404E0,3.388050079E0,1.216050029E0
4.329910600E-2,-3.747000217E0,3.489000082E0,1.294950008E0
6.335942500E-2,-3.682050228E0,3.619950056E0,1.303950071E0
8.341997600E-2,-3.592950106E0,3.651000261E0,1.371000051E0
1.034803920E-1,-3.490050077E0,3.649050236E0,1.567950130E0
1.235409430E-1,-3.385050058E0,3.769050121E0,1.825950146E0
1.436013340E-1,-3.121950150E0,3.817050219E0,1.993950129E0
1.636618800E-1,-2.920950174E0,3.835950136E0,2.104050159E0
1.837222720E-1,-2.779050112E0,3.802050114E0,2.157000065E0
2.037828170E-1,-2.656950235E0,3.622950077E0,1.929000139E0
2.238432140E-1,-2.698050022E0,3.436050177E0,1.762050033E0
2.439037550E-1,-2.763000250E0,3.273000240E0,1.690050125E0
2.639641550E-1,-2.719950199E0,3.144000053E0,1.678050041E0
2.840246830E-1,-2.632950068E0,3.117000103E0,1.606050134E0
3.040849980E-1,-2.740950108E0,3.169950247E0,1.435950041E0
3.241453700E-1,-2.995050192E0,3.196050167E0,1.369050026E0
3.442058900E-1,-3.226950169E0,3.177000046E0,1.507950068E0
3.642662760E-1,-3.198000193E0,3.160950184E0,1.833000064E0
3.843267980E-1,-3.115050077E0,3.136950254E0,2.206950188E0
4.043871850E-1,-3.214950085E0,3.120000124E0,2.386050224E0
4.244474920E-1,-3.505050182E0,3.253950119E0,2.371950150E0
4.445081000E-1,-3.652950287E0,3.378000259E0,2.395950079E0
4.645686480E-1,-3.547950268E0,3.426000118E0,2.473050117E0
4.846290300E-1,-3.402000189E0,3.532050133E0,2.611050129E0
5.046895610E-1,-3.000000238E0,3.661050081E0,2.827050209E0
5.247499430E-1,-2.796000242E0,3.691950083E0,2.917950153E0
5.448102370E-1,-2.968950033E0,3.757050276E0,2.956050158E0
5.648707640E-1,-3.469050169E0,3.715950251E0,2.788950205E0
5.849311170E-1,-4.029000282E0,3.622950077E0,2.832000017E0
6.049917260E-1,-3.832950115E0,3.342000246E0,3.214950085E0
6.250522550E-1,-3.463950157E0,3.001950026E0,3.853950262E0
6.451126370E-1,-3.234000206E0,2.323050022E0,4.201050282E0
6.651731880E-1,-2.881950140E0,1.654950023E0,4.120050430E0
6.852335750E-1,-1.917000055E0,1.705050111E0,4.006950378E0
7.052938820E-1,-1.135050058E0,1.767000079E0,3.663000107E0
7.253545100E-1,-1.264050007E0,1.662000060E0,3.391950130E0
7.454148200E-1,-1.929000139E0,1.597050071E0,2.920050144E0
7.654753560E-1,-2.392050028E0,1.614000082E0,2.803050041E0
7.855357520E-1,-2.413050175E0,1.695000052E0,3.028050184E0
8.055962790E-1,-2.028000116E0,2.038050175E0,3.435000181E0
8.256566660E-1,-1.558050036E0,1.992000103E0,3.442050219E0
8.457172070E-1,-1.230000019E0,1.698000073E0,3.349050045E0
8.657776130E-1,-1.093950033E0,1.602000117E0,3.193050146E0
8.858381580E-1,-1.165950060E0,1.731000066E0,2.700000048E0
9.058985730E-1,-1.453050017E0,1.911000133E0,2.467950106E0
9.259591190E-1,-1.692000031E0,2.053950071E0,2.461050034E0
9.460194440E-1,-1.897950053E0,2.236050129E0,2.632950068E0
9.660800520E-1,-1.948950052E0,2.341950178E0,2.833950043E0
9.861403620E-1,-1.792950034E0,2.281949997E0,2.827050209E0
1.006200746E0,-1.744950056E0,2.269950151E0,2.760000229E0
1.026261283E0,-1.903050065E0,2.404050112E0,2.728950024E0
1.046321655E0,-1.975050092E0,2.503950119E0,2.737950087E0
1.066381962E0,-1.941000104E0,2.482950211E0,2.815050125E0
1.086442499E0,-1.932000041E0,2.503950119E0,2.961000204E0
1.106502872E0,-1.972950101E0,2.638950109E0,2.959050179E0
1.126563437E0,-1.896000147E0,2.655000210E0,3.157050133E0
1.146623824E0,-1.846050143E0,2.638950109E0,3.124050140E0
1.166684355E0,-1.980000138E0,2.703000069E0,3.196050167E0
1.186744737E0,-2.178000212E0,2.908950090E0,3.343950272E0
1.206805268E0,-2.218950033E0,3.060000181E0,3.567000151E0
1.226865641E0,-1.795050144E0,2.892000198E0,3.706050158E0
1.246926182E0,-1.135050058E0,2.502000093E0,3.673950195E0
1.266986592E0,-7.230000496E-1,2.275050163E0,3.651000261E0
1.287047139E0,-4.789500237E-1,2.071050167E0,3.648000240E0
1.307107530E0,-3.400500119E-1,1.771950126E0,3.648000240E0
1.327167828E0,-3.660000265E-1,1.579950094E0,3.532950163E0
1.347228442E0,-5.530500412E-1,1.621050119E0,3.391950130E0
1.367288966E0,-7.300500274E-1,1.669050097E0,3.214950085E0
1.387349261E0,-7.399500608E-1,1.662000060E0,2.941950083E0
1.407409661E0,-7.420500517E-1,1.750050068E0,2.746050119E0
1.427470197E0,-8.190000653E-1,1.798050046E0,2.599050045E0
1.447530570E0,-1.096050024E0,1.864950061E0,2.511000156E0
1.467591197E0,-1.398000121E0,1.959000111E0,2.494050026E0
1.487651507E0,-1.573050022E0,2.047049999E0,2.590050220E0
1.507712043E0,-1.606050134E0,2.137950182E0,2.746050119E0
1.527772430E0,-1.623000026E0,2.245950222E0,2.839050055E0
1.547832981E0,-1.678050041E0,2.323050022E0,2.841000080E0
1.567893367E0,-1.759050131E0,2.421000004E0,2.773950100E0
1.587953880E0,-1.800000072E0,2.514000177E0,2.683050156E0
1.608014266E0,-1.834050059E0,2.515950203E0,2.616000175E0
1.628074803E0,-1.933950067E0,2.536050081E0,2.674050093E0
1.648135200E0,-1.917000055E0,2.512050152E0,2.761950016E0
1.668195736E0,-1.824000120E0,2.514000177E0,2.839050055E0
1.688256151E0,-1.690050125E0,2.488050222E0,2.892000198E0
1.708316678E0,-1.668000102E0,2.473050117E0,2.880000114E0
1.728377049E0,-1.731000066E0,2.512050152E0,3.033000231E0
1.748437571E0,-1.672950029E0,2.410950184E0,3.373050213E0
1.768497972E0,-1.744950056E0,2.229000092E0,3.508950233E0
1.788558504E0,-2.344050169E0,2.269950151E0,3.421050072E0
1.808618886E0,-3.073950052E0,2.583000183E0,3.126000166E0
1.828679194E0,-3.093000174E0,2.551950216E0,3.210000038E0
1.848739730E0,-2.140050173E0,2.095050097E0,3.772950172E0
1.868800116E0,-1.210950017E0,1.831950068E0,4.528950214E0
1.888860716E0,-9.100500345E-1,1.510950089E0,5.010000229E0
1.908921006E0,-1.345050097E0,1.341000080E0,4.918950081E0
1.928981547E0,-1.980000138E0,1.389000058E0,4.417050362E0
1.949042158E0,-2.427000046E0,1.492050052E0,3.639000177E0
1.969102544E0,-2.581050158E0,1.618950129E0,2.938950062E0
1.989163080E0,-2.686050177E0,1.698000073E0,2.563950062E0
2.009223390E0,-2.812950134E0,1.779000044E0,2.506050110E0
2.029283789E0,-2.788950205E0,1.783950090E0,2.631000042E0
2.049344341E0,-2.430000067E0,1.606950045E0,3.001950026E0
2.069404742E0,-2.116050005E0,1.509000063E0,3.523950100E0
2.089465265E0,-1.951050043E0,1.458000064E0,3.900000095E0
2.109525641E0,-1.924950123E0,1.486950040E0,3.829950094E0
2.129586197E0,-2.056050062E0,1.633050084E0,3.658050060E0
2.149646583E0,-2.140050173E0,1.887000084E0,3.294000149E0
2.169707120E0,-2.217000008E0,2.215050220E0,2.947050095E0
2.189767493E0,-2.356050014E0,2.437050104E0,2.575950146E0
2.209828058E0,-2.470950127E0,2.575950146E0,2.431950092E0
2.229888459E0,-2.629050016E0,2.698050022E0,2.386050224E0
2.249948985E0,-2.736000061E0,2.694000244E0,2.463000059E0
2.270009387E0,-2.728950024E0,2.575950146E0,2.640000105E0
2.290070000E0,-2.659950018E0,2.440050125E0,2.935050249E0
2.310130305E0,-2.607000113E0,2.430000067E0,3.210000038E0
2.330190918E0,-2.410950184E0,2.392050028E0,3.556950092E0
2.350251452E0,-2.113950014E0,2.227050066E0,3.721950293E0
2.370311814E0,-2.040000200E0,2.167050123E0,3.676950216E0
2.390372135E0,-2.205000162E0,2.313000202E0,3.655050278E0
2.410432672E0,-2.241000175E0,2.386950016E0,3.663000107E0
2.430493287E0,-2.017950058E0,2.397000074E0,3.832950115E0
2.450553660E0,-1.599000096E0,2.263050079E0,4.018949986E0
2.470614201E0,-1.345050097E0,1.996950150E0,3.889950275E0
2.490674515E0,-1.458000064E0,1.864950061E0,3.751050234E0
2.510735129E0,-1.702050090E0,1.960950136E0,3.751050234E0
2.530795501E0,-1.711950064E0,2.095050097E0,3.616950274E0
2.550855809E0,-1.228050113E0,2.041949987E0,3.283950090E0
2.570916427E0,-1.029000044E0,1.936950088E0,3.022950172E0
2.590976913E0,-1.246950030E0,1.884000063E0,2.995050192E0
2.611037300E0,-1.539000034E0,1.843950033E0,3.160050154E0
2.631097845E0,-1.663950086E0,1.690050125E0,3.256050110E0
2.651158141E0,-1.630050063E0,1.567950130E0,3.105000257E0
2.671218754E0,-1.525050044E0,1.543950081E0,2.869950056E0
2.691279156E0,-1.354950070E0,1.590000033E0,2.758050203E0
2.711339707E0,-1.201950073E0,1.606950045E0,2.950950146E0
2.731400093E0,-1.156050086E0,1.609050035E0,3.178950071E0
2.751460630E0,-1.180050015E0,1.638000131E0,3.265050173E0
2.771521021E0,-1.192050099E0,1.746000051E0,3.030000210E0
2.791581630E0,-1.216050029E0,1.947000146E0,2.695050240E0
2.811641935E0,-1.384050012E0,2.239050150E0,2.353049994E0
2.831702486E0,-1.551000118E0,2.385000229E0,2.098950148E0
2.851762873E0,-1.648950100E0,2.410950184E0,1.912050128E0
2.871823438E0,-1.858050108E0,2.437050104E0,1.942950130E0
2.891883820E0,-2.032050133E0,2.515950203E0,2.152050018E0
2.911944393E0,-1.981950045E0,2.542950153E0,2.530050039E0
2.932005014E0,-1.732950091E0,2.569050074E0,2.889000177E0
2.952065395E0,-1.551000118E0,2.572050095E0,3.160050154E0
2.972125717E0,-1.482000113E0,2.466000080E0,3.363000154E0
2.992186331E0,-1.599000096E0,2.428050041E0,3.516000271E0
3.012246869E0,-1.834050059E0,2.470950127E0,3.607050180E0
3.032307228E0,-1.981950045E0,2.545050144E0,3.694050074E0
3.052367764E0,-1.855050087E0,2.466000080E0,3.967050076E0
3.072428165E0,-1.366950035E0,2.065950155E0,4.462050438E0
3.092488711E0,-1.017000079E0,1.702050090E0,4.939050198E0
3.112549097E0,-1.000050068E0,1.357950091E0,5.278950214E0
3.132609634E0,-1.182000041E0,1.008000016E0,5.179950237E0
3.152670015E0,-1.719000101E0,1.012950063E0,4.615050316E0
3.172730629E0,-2.262000084E0,1.173000097E0,3.928050280E0
3.192790911E0,-2.578050137E0,1.366950035E0,3.351000071E0
3.212851452E0,-2.629050016E0,1.489050031E0,3.028050184E0
3.232912072E0,-2.572950125E0,1.519950032E0,3.007050037E0
3.252972440E0,-2.530050039E0,1.497000098E0,3.208050251E0
3.273032962E0,-2.406000137E0,1.393950105E0,3.475950241E0
3.293093319E0,-2.314950228E0,1.339050055E0,3.580950260E0
3.313153871E0,-2.313000202E0,1.389000058E0,3.507000208E0
3.333214241E0,-2.382000208E0,1.477050066E0,3.307950258E0
3.353274773E0,-2.514000177E0,1.549050093E0,3.141000032E0
3.373335160E0,-2.451000214E0,1.615950108E0,3.088050127E0
3.393395667E0,-2.242950201E0,1.719000101E0,3.166950226E0
3.413456269E0,-2.017950058E0,1.798050046E0,3.306000233E0
3.433516655E0,-1.870050073E0,1.888950109E0,3.391950130E0
3.453577177E0,-1.767000079E0,1.990050077E0,3.375000238E0
3.473637478E0,-1.639950037E0,2.053950071E0,3.315000057E0
3.493698091E0,-1.597050071E0,2.176050186E0,3.282000065E0
3.513758473E0,-1.623000026E0,2.278950214E0,3.267000198E0
3.533819018E0,-1.611000061E0,2.353950024E0,3.279000044E0
3.553879405E0,-1.471950054E0,2.254950047E0,3.187950134E0
3.573939961E0,-1.477050066E0,2.109000206E0,3.004050255E0
3.594000591E0,-1.791000128E0,2.133000135E0,2.913000107E0
3.614060996E0,-2.074949980E0,2.281949997E0,2.947050095E0
3.634121519E0,-1.948950052E0,2.311050177E0,3.196050167E0
3.654181921E0,-1.453050017E0,2.076000214E0,3.745950222E0
3.674242452E0,-1.053000093E0,1.798050046E0,4.084050179E0
3.694302839E0,-9.840000272E-1,1.591950059E0,4.189050198E0
3.714363390E0,-8.689500690E-1,1.446000099E0,3.871050119E0
3.734423777E0,-6.820500493E-1,1.225950003E0,3.508950233E0
3.754484298E0,-6.030000448E-1,1.123050094E0,3.399000168E0
3.774544928E0,-5.620500445E-1,1.279050112E0,3.481050253E0
3.794605224E0,-6.030000448E-1,1.330950022E0,3.631050110E0
3.814665608E0,-5.599500537E-1,1.132950068E0,3.471000195E0
3.834726159E0,-6.820500493E-1,9.910500646E-1,2.997000217E0
3.854786545E0,-1.102950096E0,1.032000065E0,2.647050142E0
3.874847092E0,-1.369050026E0,1.113000035E0,2.506050110E0
3.894907474E0,-1.360050082E0,1.147050023E0,2.547000170E0
3.914968010E0,-1.194000006E0,1.257000089E0,2.679000139E0
3.935028397E0,-1.080000043E0,1.390950084E0,2.776950121E0
3.955088918E0,-1.089000106E0,1.462950110E0,2.626050234E0
3.975149530E0,-1.300050020E0,1.578000069E0,2.386050224E0
3.995209925E0,-1.555950046E0,1.707000136E0,2.178000212E0
4.015270242E0,-1.783050060E0,1.852950096E0,2.239950180E0
4.035330856E0,-1.941000104E0,1.983000040E0,2.512950182E0
4.055391380E0,-1.884000063E0,2.071050167E0,2.932050228E0
4.075451795E0,-1.675950050E0,2.020950079E0,3.543000221E0
4.095512336E0,-1.465050101E0,1.855950117E0,4.383000374E0
4.115572651E0,-1.246950030E0,1.426950097E0,5.640000343E0
4.135633264E0,-1.351950049E0,1.273950100E0,6.258000374E0
4.155693641E0,-1.624950051E0,1.333950043E0,6.009000301E0
4.175754178E0,-2.016000032E0,1.546950102E0,5.353050232E0
4.195814564E0,-2.131050110E0,1.678050041E0,4.797000408E0
4.215875101E0,-1.965000153E0,1.552050114E0,4.897950172E0
4.235935410E0,-1.582050085E0,1.063050032E0,5.748000145E0
4.255995769E0,-1.357050061E0,6.730500460E-1,6.198000431E0
4.276056336E0,-1.522050023E0,3.520500064E-1,6.150000095E0
4.296116728E0,-1.836000085E0,2.200500071E-1,5.473050117E0
4.316177270E0,-2.119050026E0,2.899500132E-1,4.804950237E0
4.336237880E0,-2.193000078E0,4.050000310E-1,4.500000000E0
4.356298190E0,-2.077950001E0,4.360500276E-1,4.161000252E0
4.376358585E0,-1.965000153E0,4.240500331E-1,3.748950243E0
4.396419092E0,-1.909950137E0,4.120500088E-1,3.435000181E0
4.416479474E0,-1.867050052E0,4.380000234E-1,3.141000032E0
4.436540019E0,-1.858050108E0,4.840500355E-1,2.805000067E0
4.456600406E0,-1.852950096E0,5.290500522E-1,2.299950123E0
4.476660943E0,-1.861950040E0,5.100000501E-1,1.929000139E0
4.496721320E0,-1.945950150E0,5.460000038E-1,1.900050044E0
4.516781837E0,-2.104050159E0,5.940000415E-1,2.001000166E0
4.536842209E0,-2.217000008E0,7.350000143E-1,2.282999992E0
4.556902746E0,-2.137950182E0,7.810500264E-1,2.674050093E0
4.576963152E0,-1.872000098E0,7.230000496E-1,2.925000191E0
4.597023674E0,-1.645050049E0,7.180500627E-1,3.270000219E0
4.617084036E0,-1.567950130E0,8.190000653E-1,3.595050097E0
4.637144567E0,-1.510050058E0,9.910500646E-1,3.744000196E0
4.657204949E0,-1.522050023E0,1.069950104E0,3.919050217E0
4.677265499E0,-1.633050084E0,1.177950025E0,4.242000103E0
4.697325896E0,-1.743000031E0,1.261950016E0,4.693950176E0
4.717386461E0,-1.798050046E0,1.288050056E0,4.861950397E0
4.737446876E0,-2.040000200E0,1.444050074E0,4.872000217E0
4.757507418E0,-2.434950113E0,1.741050124E0,4.969950199E0
4.777567804E0,-2.358000040E0,1.729050040E0,5.238000393E0
4.797628336E0,-2.068050146E0,1.615950108E0,5.206950188E0
4.817688718E0,-1.707000136E0,1.374000072E0,4.813950062E0
4.837749264E0,-1.020000100E0,8.790000677E-1,4.495950222E0
4.857809651E0,-9.049500227E-1,7.500000596E-1,4.354050159E0
4.877870187E0,-1.141950011E0,8.170500398E-1,4.467000008E0
4.897930574E0,-1.069950104E0,5.389500260E-1,4.654050350E0
4.917991110E0,-9.330000281E-1,3.859500289E-1,4.612950325E0
4.938051516E0,-9.019500613E-1,5.530500412E-1,4.330950260E0
4.958112053E0,-8.449500203E-1,7.879500389E-1,3.667050123E0
4.978172424E0,-8.380500674E-1,9.670500755E-1,2.949000120E0
4.998232947E0,-9.169500470E-1,1.152000070E0,2.329050064E0
5.018293328E0,-1.004999995E0,1.200000048E0,1.929000139E0
5.038353608E0,-1.282950044E0,1.279050112E0,1.714050055E0
5.058414193E0,-1.666050076E0,1.519950032E0,1.630050063E0
5.078474512E0,-1.900950074E0,1.650000095E0,1.624950051E0
5.098535063E0,-1.872000098E0,1.756950140E0,1.627050042E0
5.118595697E0,-1.768950105E0,1.894050121E0,1.843050122E0
5.138656083E0,-1.800000072E0,2.125950098E0,2.206950188E0
5.158716391E0,-1.882050037E0,2.200050116E0,2.784000158E0
5.178776942E0,-1.873950124E0,2.176050186E0,3.423000097E0
5.198837324E0,-1.852950096E0,2.208000183E0,3.921000242E0
5.218897860E0,-1.816950083E0,2.305950165E0,4.182000160E0
5.238958476E0,-1.756950140E0,2.428050041E0,4.287000179E0
5.259018786E0,-1.623000026E0,2.526000023E0,4.306950092E0
5.279079179E0,-1.501050115E0,2.533050060E0,4.432950020E0
5.299139731E0,-1.209000111E0,2.385000229E0,4.483950138E0
5.319200345E0,-8.779500127E-1,2.086050034E0,4.195950031E0
5.339260655E0,-1.168050051E0,1.924950123E0,3.700950146E0
5.359321055E0,-1.690050125E0,1.858050108E0,3.523950100E0
5.379381572E0,-2.011049986E0,1.801050067E0,3.496950150E0
5.399441959E0,-2.194950104E0,1.816950083E0,3.463950157E0
5.419502480E0,-2.353049994E0,1.741050124E0,3.639000177E0
5.439562848E0,-2.526000023E0,1.566000104E0,3.648000240E0
5.459623389E0,-2.949000120E0,1.627950072E0,3.223950148E0
5.479683785E0,-3.280050039E0,1.768950105E0,2.676000118E0
5.499744317E0,-3.261000156E0,1.729050040E0,2.427000046E0
5.519804723E0,-3.165000200E0,1.774050117E0,2.473050117E0
5.539865031E0,-2.983050108E0,1.723950028E0,2.583000183E0
5.559925658E0,-3.019050121E0,1.561050057E0,2.596950054E0
5.579985978E0,-3.100050211E0,1.408050060E0,2.599050045E0
5.600046583E0,-3.076050043E0,1.288050056E0,2.785950184E0
5.620106892E0,-2.607000113E0,1.555950046E0,2.911050081E0
5.640167433E0,-2.213999987E0,1.482000113E0,3.355950117E0
5.660227824E0,-2.041949987E0,1.506000042E0,3.712950230E0
5.680288361E0,-2.182950020E0,1.714050055E0,3.433050156E0
5.700348772E0,-2.221950054E0,1.972950101E0,2.805000067E0
5.720409371E0,-2.005950212E0,2.137950182E0,2.374050140E0
5.740469680E0,-1.953000069E0,2.299050093E0,2.430000067E0
5.760530226E0,-2.140050173E0,2.500050068E0,2.860050201E0
5.780590622E0,-2.254950047E0,2.442000151E0,3.291000128E0
5.800651159E0,-2.202000141E0,2.358000040E0,3.543000221E0
5.820711565E0,-1.888950109E0,2.373000145E0,3.667050123E0
5.840772087E0,-1.386000037E0,2.413950205E0,3.663000107E0
5.860832459E0,-9.330000281E-1,2.311050177E0,3.732000113E0
5.880892976E0,-1.004999995E0,2.337000132E0,3.592950106E0
5.900953353E0,-1.329000115E0,2.442000151E0,3.463950157E0
5.921013894E0,-1.534050107E0,2.691000223E0,3.094950199E0
5.941074281E0,-1.810050130E0,3.001950026E0,2.736000061E0
5.961134817E0,-1.897950053E0,3.096000195E0,2.901000023E0
5.981195213E0,-1.759050131E0,3.001950026E0,3.499950171E0
6.001255749E0,-1.363950014E0,2.884950161E0,3.933000088E0
6.021316040E0,-8.590500355E-1,2.739000082E0,4.122000217E0
6.041376413E0,-4.759500325E-1,2.574000120E0,3.970950127E0
6.061437033E0,-2.370000184E-1,2.374950171E0,3.691050291E0
6.081497338E0,-2.800500095E-1,2.277000189E0,3.339000225E0
6.101557937E0,-6.049500108E-1,2.287050009E0,2.857950211E0
6.121618448E0,-1.129950047E0,2.344050169E0,2.374050140E0
6.141678738E0,-1.573050022E0,2.437050104E0,1.945950150E0
6.161739117E0,-1.879050136E0,2.521050215E0,1.690050125E0
6.181799669E0,-2.025000095E0,2.545050144E0,1.762050033E0
6.201860060E0,-2.005950212E0,2.512050152E0,2.074949980E0
6.221920596E0,-2.065950155E0,2.586000204E0,2.548950195E0
6.241980988E0,-2.113950014E0,2.742000103E0,3.016050100E0
6.262041519E0,-2.020050049E0,2.848950148E0,3.232050180E0
6.282101902E0,-1.939050078E0,2.859000206E0,3.141000032E0
6.302162418E0,-1.939050078E0,2.746050119E0,2.877000093E0
6.322222805E0,-2.077950001E0,2.679000139E0,2.683050156E0
6.342283360E0,-2.190000057E0,2.679000139E0,2.740950108E0
6.362343757E0,-2.197950125E0,2.742000103E0,3.058950186E0
6.382404289E0,-2.061000109E0,2.835000038E0,3.130950212E0
6.402464613E0,-1.953000069E0,2.847000122E0,2.889000177E0
6.422525231E0,-1.963050127E0,2.767950058E0,2.686050177E0
6.442585560E0,-2.113950014E0,2.791950226E0,2.824950218E0
6.462645934E0,-2.229000092E0,3.067050219E0,3.094950199E0
6.482706490E0,-2.218950033E0,3.181950092E0,3.129000187E0
6.502766891E0,-2.178000212E0,3.334950209E0,3.078000069E0
6.522827428E0,-1.929000139E0,3.385950089E0,2.614050150E0
6.542887814E0,-1.936950088E0,3.400050163E0,2.137050152E0
6.562948350E0,-2.356050014E0,3.574950218E0,2.038950205E0
6.583008747E0,-2.581050158E0,3.615000248E0,2.101950169E0
6.603069293E0,-2.542050123E0,3.499950171E0,2.257050037E0
6.623129684E0,-2.173950195E0,3.213000059E0,2.559000015E0
6.643190215E0,-1.798050046E0,2.827950239E0,2.668950081E0
6.663250612E0,-1.870050073E0,2.614950180E0,2.686050177E0
6.683311149E0,-2.254950047E0,2.611950159E0,2.575950146E0
6.703371535E0,-2.518050194E0,2.614950180E0,2.362050056E0
6.723431833E0,-2.575950146E0,2.611950159E0,2.194950104E0
6.743492427E0,-2.683950186E0,2.734050035E0,2.295000076E0
6.763552732E0,-2.557050228E0,2.719950199E0,2.530050039E0
6.783613361E0,-2.380050182E0,2.646000147E0,2.614050150E0
6.803673650E0,-2.310000181E0,2.626950026E0,2.539950132E0
6.823734173E0,-2.368050098E0,2.698050022E0,2.209050179E0
6.843794560E0,-2.538000107E0,2.812950134E0,1.885950089E0
6.863855096E0,-2.752950191E0,2.986050129E0,1.747050047E0
6.883915468E0,-2.935050249E0,3.060000181E0,1.696950078E0
6.903976000E0,-2.911050081E0,3.019050121E0,1.843050122E0
6.924036378E0,-2.770050049E0,2.956950188E0,2.238000154E0
6.944096909E0,-2.551950216E0,2.916000128E0,2.712000132E0
6.964157301E0,-2.284050226E0,2.931000233E0,3.229050159E0
6.984217809E0,-2.241000175E0,3.004950047E0,3.475950241E0
7.004278113E0,-2.245050192E0,2.959050179E0,3.508950233E0
7.024338722E0,-2.341050148E0,2.979000092E0,3.246000051E0
7.044399041E0,-2.386950016E0,3.105000257E0,2.865000248E0
7.064459440E0,-2.182950020E0,3.250950098E0,2.542050123E0
7.084519972E0,-1.924950123E0,3.322950125E0,2.310000181E0
7.104580372E0,-1.917000055E0,3.381000042E0,2.224050045E0
7.124640928E0,-2.097000122E0,3.400050163E0,2.194950104E0
7.144701319E0,-2.262000084E0,3.385950089E0,2.190000057E0
7.164761842E0,-2.128050089E0,3.144000053E0,2.302950144E0
7.184822214E0,-1.855050087E0,2.794050217E0,2.443950176E0
7.204882740E0,-1.684950113E0,2.551950216E0,2.494050026E0
7.224943127E0,-1.683000088E0,2.397000074E0,2.590050220E0
7.245003435E0,-1.848000050E0,2.337000132E0,2.710050106E0
7.265064048E0,-1.915050149E0,2.263050079E0,3.049950123E0
7.285124343E0,-1.819050074E0,2.248050213E0,3.447000265E0
7.305184879E0,-1.495950103E0,2.169000149E0,3.712950230E0
7.325245257E0,-1.240050077E0,2.232000113E0,3.655050278E0
7.345305874E0,-1.053000093E0,2.374950171E0,3.370050192E0
7.365366170E0,-9.600000381E-1,2.445000172E0,2.985000134E0
7.385426707E0,-1.041000009E0,2.445000172E0,2.518050194E0
7.405487083E0,-1.242000103E0,2.482950211E0,2.180999994E0
7.425547611E0,-1.408050060E0,2.560050011E0,2.025000095E0
7.445607982E0,-1.458000064E0,2.638950109E0,2.128050089E0
7.465668285E0,-1.441050053E0,2.739000082E0,2.293050051E0
7.485728841E0,-1.446000099E0,2.839950085E0,2.391000032E0
7.505789237E0,-1.518000126E0,2.782050133E0,2.362050056E0
7.525849870E0,-1.795050144E0,2.691000223E0,2.154000044E0
7.545910180E0,-2.125950098E0,2.665050030E0,2.065950155E0
7.565970721E0,-2.359950066E0,2.694000244E0,2.194950104E0
7.586031113E0,-2.425050020E0,2.718000174E0,2.494050026E0
7.606091663E0,-2.518050194E0,2.779950142E0,2.746050119E0
7.626152050E0,-2.623950243E0,2.875950098E0,3.064050198E0
7.646212367E0,-2.551950216E0,2.935050249E0,3.330000162E0
7.666273009E0,-2.305050135E0,2.947050095E0,3.595050097E0
7.686333548E0,-2.116050005E0,2.976000071E0,3.765000105E0
7.706393857E0,-2.035050154E0,2.992950201E0,3.919050217E0
7.726454242E0,-2.110949993E0,2.976000071E0,3.919050217E0
7.746514768E0,-2.293050051E0,2.943000078E0,3.751050234E0
7.766575155E0,-2.344050169E0,2.710050106E0,3.592950106E0
7.786635687E0,-2.097000122E0,2.389950037E0,3.739050150E0
7.806696083E0,-1.755000114E0,2.107050180E0,4.110000134E0
7.826756625E0,-1.513050079E0,1.804950118E0,4.491000175E0
7.846817002E0,-1.446000099E0,1.566000104E0,4.444950104E0
7.866877539E0,-1.474950075E0,1.602000117E0,4.014000416E0
7.886937849E0,-1.720950127E0,1.908000112E0,3.406050205E0
7.906998240E0,-1.945950150E0,2.272050142E0,2.743050098E0
7.927058856E0,-2.254950047E0,2.545050144E0,2.353049994E0
7.947119408E0,-2.422950029E0,2.734050035E0,2.152050018E0
7.967179728E0,-2.499000072E0,2.650950193E0,2.034000158E0
7.987240084E0,-2.722050190E0,2.698050022E0,1.981950045E0
8.007300606E0,-2.869950056E0,2.599950075E0,1.975050092E0
8.027360993E0,-2.815050125E0,2.326950073E0,2.215950012E0
8.047421543E0,-2.779050112E0,2.180999994E0,2.647050142E0
8.067481916E0,-2.779050112E0,2.116950035E0,3.106950045E0
8.087542237E0,-2.611950159E0,2.040000200E0,3.414000273E0
8.107602778E0,-2.407950163E0,1.956000090E0,3.567000151E0
8.127663147E0,-2.277000189E0,1.942050099E0,3.555000067E0
8.147723683E0,-2.164050102E0,1.935000062E0,3.493050098E0
8.167784307E0,-2.085000038E0,1.987050056E0,3.411000252E0
8.187844681E0,-2.040000200E0,2.111999989E0,3.267000198E0
8.207904983E0,-1.969950080E0,2.278950214E0,3.021000147E0
8.227965510E0,-1.884000063E0,2.478000164E0,2.712000132E0
8.248025883E0,-1.800000072E0,2.569050074E0,2.592000008E0
8.268086419E0,-1.846050143E0,2.563950062E0,2.728950024E0
8.288146806E0,-1.855050087E0,2.506950140E0,2.947050095E0
8.308207342E0,-1.800000072E0,2.365950108E0,3.222000122E0
8.328267680E0,-1.776000142E0,2.305950165E0,3.484950066E0
8.348328063E0,-1.738050103E0,2.326950073E0,3.718050241E0
8.368388601E0,-1.780950069E0,2.533050060E0,3.949950218E0
8.388449006E0,-1.683000088E0,2.758050203E0,4.242000103E0
8.408509534E0,-1.285050035E0,2.775000095E0,4.347000122E0
8.428569934E0,-9.619500637E-1,2.634000063E0,4.354050159E0
8.448630480E0,-6.870000362E-1,2.332050085E0,3.931050301E0
8.468690882E0,-8.020500541E-1,2.080950022E0,3.373050213E0
8.488751414E0,-1.041000009E0,1.924950123E0,2.833950043E0
8.508811737E0,-1.309050083E0,1.947000146E0,2.476950169E0
8.528872347E0,-1.441050053E0,2.089950085E0,2.463000059E0
8.548932657E0,-1.324050069E0,2.253000021E0,2.640000105E0
8.568993060E0,-1.080000043E0,2.241000175E0,2.736000061E0
8.589053611E0,-9.859500527E-1,2.059050083E0,2.692950010E0
8.609113988E0,-1.186950088E0,1.860000134E0,2.635050058E0
8.629174529E0,-1.510050058E0,1.827000141E0,2.722050190E0
8.649234902E0,-1.692000031E0,1.825050116E0,2.722050190E0
8.669295428E0,-1.690050125E0,1.906050086E0,2.704950094E0
8.689355724E0,-1.633050084E0,2.017950058E0,2.704950094E0
8.709416091E0,-1.621050119E0,2.145000219E0,2.692950010E0
8.729476630E0,-1.699950099E0,2.239050150E0,2.611050129E0
8.749536998E0,-1.755000114E0,2.229000092E0,2.563950062E0
8.769597544E0,-1.810050130E0,2.196000099E0,2.544000149E0
8.789657916E0,-1.870050073E0,2.193000078E0,2.559000015E0
8.809718447E0,-1.957950115E0,2.245950222E0,2.635050058E0
8.829778844E0,-2.089950085E0,2.326950073E0,2.737950087E0
8.849839394E0,-2.122950077E0,2.353950024E0,2.938950062E0
8.869899718E0,-2.104050159E0,2.365950108E0,3.181050062E0
8.889960096E0,-2.097000122E0,2.397000074E0,3.414000273E0
8.910020619E0,-2.086950064E0,2.394000053E0,3.574050188E0
8.930081026E0,-2.056050062E0,2.421000004E0,3.697950125E0
8.950141572E0,-1.945950150E0,2.398950100E0,3.817950249E0
8.970201958E0,-1.948950052E0,2.430000067E0,3.880050182E0
8.990262519E0,-2.260050058E0,2.557050228E0,3.820950270E0
9.010322920E0,-2.671950102E0,2.787000179E0,3.696000099E0
9.030383256E0,-2.715000153E0,2.755950212E0,3.900000095E0
9.050443875E0,-2.482950211E0,2.370000124E0,4.429050446E0
9.070504389E0,-2.152050018E0,1.822050095E0,4.708950043E0
9.090564670E0,-2.059050083E0,1.212000012E0,4.843050003E0
9.110625040E0,-2.025000095E0,8.449500203E-1,4.921950340E0
9.130685596E0,-2.074949980E0,7.039500475E-1,4.642050266E0
9.150745963E0,-2.178000212E0,7.330500484E-1,3.835050106E0
9.170806266E0,-2.739000082E0,1.032000065E0,3.097050190E0
9.190866783E0,-3.103050232E0,1.350000024E0,2.494050026E0
9.210927384E0,-3.154950142E0,1.555950046E0,2.449050188E0
9.230987694E0,-3.169950247E0,1.920000076E0,2.746050119E0
9.251048064E0,-2.763000250E0,1.896000147E0,3.222000122E0
9.271108677E0,-2.134950161E0,1.585050106E0,3.708000183E0
9.291168987E0,-2.095050097E0,1.543950081E0,3.907050133E0
9.311229523E0,-2.128050089E0,1.627950072E0,3.787050247E0
9.331289910E0,-2.083050013E0,1.687950134E0,3.375000238E0
9.351350209E0,-2.137950182E0,1.864950061E0,2.965950251E0
9.371410812E0,-2.119050026E0,2.038050175E0,2.631000042E0
9.391471165E0,-1.984950066E0,2.068950176E0,2.479950190E0
9.411531702E0,-1.822050095E0,2.040000200E0,2.518050194E0
9.431592088E0,-1.750050068E0,2.088000059E0,2.554050207E0
9.451652611E0,-1.783050060E0,2.180999994E0,2.616000175E0
9.471713006E0,-1.792950034E0,2.302950144E0,2.704950094E0
9.491773524E0,-1.867050052E0,2.490000010E0,2.788950205E0
9.511833897E0,-1.861950040E0,2.587950230E0,2.896050215E0
9.531894447E0,-1.804950118E0,2.683950186E0,3.057000160E0
9.551954762E0,-1.776000142E0,2.875950098E0,3.234000206E0
9.572015375E0,-1.807050109E0,3.007050037E0,3.355950117E0
9.592075656E0,-1.699950099E0,2.968950033E0,3.343950272E0
9.612136026E0,-1.498050094E0,2.788950205E0,3.226950169E0
9.632196553E0,-1.482000113E0,2.626950026E0,3.118950129E0
9.652256944E0,-1.735950112E0,2.662950039E0,3.232050180E0
9.672317475E0,-1.731000066E0,2.655000210E0,3.616950274E0
9.692377862E0,-1.405050039E0,2.490000010E0,4.251000404E0
9.712438156E0,-9.120000601E-1,2.253000021E0,4.471950054E0
9.732498735E0,-6.130500436E-1,1.966050148E0,4.563000202E0
9.752559137E0,-6.319500208E-1,1.707000136E0,4.345050335E0
9.772619673E0,-9.360000491E-1,1.537050128E0,4.077000141E0
9.792680060E0,-1.123050094E0,1.420050025E0,3.772950172E0
9.812740612E0,-1.093950033E0,1.330950022E0,3.385050058E0
9.832801021E0,-1.072050095E0,1.306950092E0,2.935050249E0
9.852861324E0,-1.123050094E0,1.348050117E0,2.688000202E0
9.872921841E0,-1.240050077E0,1.408050060E0,2.449050188E0
9.892982228E0,-1.348050117E0,1.437000036E0,2.190000057E0
9.913042779E0,-1.429050088E0,1.522950053E0,2.113049984E0
9.933103179E0,-1.539000034E0,1.783950090E0,2.251950026E0
9.953163711E0,-1.615950108E0,2.076000214E0,2.427000046E0
9.973224097E0,-1.441050053E0,2.197950125E0,2.476950169E0
9.993284405E0,-1.290000081E0,2.233950138E0,2.590050220E0
1.001334494E1,-1.270950079E0,2.301000118E0,2.664000034E0
1.003340533E1,-1.369050026E0,2.341950178E0,2.587950230E0
1.005346584E1,-1.515000105E0,2.398950100E0,2.547000170E0
1.007352623E1,-1.633050084E0,2.481000185E0,2.596950054E0
1.009358677E1,-1.645050049E0,2.599950075E0,2.686050177E0
1.011364715E1,-1.591950059E0,2.631000042E0,2.824950218E0
1.013370746E1,-1.642050028E0,2.706000090E0,2.928000212E0
1.015376799E1,-1.756950140E0,2.809050083E0,3.078000069E0
1.017382838E1,-1.744950056E0,2.803950071E0,3.247950077E0
1.019388894E1,-1.668000102E0,2.731950045E0,3.379950047E0
1.021394934E1,-1.651950121E0,2.641050100E0,3.433050156E0
1.023400987E1,-1.597050071E0,2.470950127E0,3.367950201E0
1.025407026E1,-1.525050044E0,2.233950138E0,3.460950136E0
1.027413079E1,-1.630050063E0,2.086050034E0,3.580950260E0
1.029419110E1,-1.764000058E0,2.014050007E0,3.837000132E0
1.031425148E1,-1.788000107E0,1.815000057E0,4.194000244E0
1.033431202E1,-1.731000066E0,1.567950130E0,4.459950447E0
1.035437241E1,-1.678050041E0,1.567950130E0,4.435950279E0
1.037443294E1,-1.554000020E0,1.566000104E0,4.222949982E0
1.039449326E1,-1.623000026E0,1.633050084E0,3.967050076E0
1.041455364E1,-1.941000104E0,1.813050032E0,3.706050158E0
1.043461418E1,-2.224050045E0,1.834050059E0,3.526050091E0
1.045467457E1,-2.461050034E0,1.768950105E0,3.421050072E0
1.047473518E1,-2.688000202E0,1.735950112E0,3.298950195E0
1.049479550E1,-2.844000101E0,1.699950099E0,3.223950148E0
1.051485604E1,-2.808000088E0,1.663950086E0,3.124050140E0
1.053491640E1,-2.631000042E0,1.666950107E0,3.102000237E0
1.055497694E1,-2.547000170E0,1.650000095E0,3.274950266E0
1.057503724E1,-2.443950176E0,1.518000126E0,3.471000195E0
1.059509764E1,-2.437050104E0,1.494000077E0,3.411000252E0
1.061515817E1,-2.593050241E0,1.525050044E0,3.295950174E0
1.063521857E1,-2.626050234E0,1.510950089E0,3.088050127E0
1.065527910E1,-2.623950243E0,1.639950037E0,2.956050158E0
1.067533950E1,-2.629050016E0,1.774050117E0,2.839050055E0
1.069540003E1,-2.608950138E0,1.882050037E0,2.845950127E0
1.071546042E1,-2.590050220E0,1.963050127E0,2.856000185E0
1.073552073E1,-2.572950125E0,2.011049986E0,2.892000198E0
1.075558127E1,-2.557050228E0,2.017950058E0,3.010950089E0
1.077564166E1,-2.410950184E0,1.996950150E0,3.145050049E0
1.079570221E1,-2.213999987E0,1.900950074E0,3.190950155E0
1.081576251E1,-2.061000109E0,1.807950139E0,3.169050217E0
1.083582289E1,-1.945950150E0,1.872000098E0,3.214950085E0
1.085588345E1,-1.948950052E0,1.966050148E0,3.445050240E0
1.087594407E1,-2.083050013E0,2.145000219E0,3.484950066E0
1.089600439E1,-2.146950006E0,2.224050045E0,3.403950214E0
1.091606477E1,-2.011049986E0,2.124000072E0,3.342000246E0
1.093612530E1,-2.037000179E0,2.140950203E0,3.327000141E0
1.095618569E1,-2.346000195E0,2.386950016E0,3.598050117E0
1.097624622E1,-2.281050205E0,2.526000023E0,3.970950127E0
1.099630652E1,-2.017950058E0,2.481000185E0,4.146000385E0
1.101636690E1,-1.791000128E0,2.341950178E0,4.242000103E0
1.103642743E1,-1.573050022E0,1.963050127E0,4.141050339E0
1.105648780E1,-1.534050107E0,1.662000060E0,4.018949986E0
1.107654809E1,-1.621050119E0,1.519950032E0,4.150950432E0
1.109660863E1,-1.563000083E0,1.396050096E0,4.278000355E0
1.111666900E1,-1.282950044E0,1.300050020E0,4.192049980E0
1.113672952E1,-8.520000577E-1,1.317000031E0,3.751050234E0
1.115678992E1,-6.199500561E-1,1.381950021E0,3.445050240E0
1.117685042E1,-6.079500318E-1,1.477050066E0,3.226950169E0
1.119691081E1,-7.060500383E-1,1.485000014E0,2.959050179E0
1.121697110E1,-1.027050018E0,1.470000029E0,2.676000118E0
1.123703163E1,-1.278000116E0,1.485000014E0,2.500950098E0
1.125709202E1,-1.720950127E0,1.494000077E0,2.595000029E0
1.127715255E1,-1.804950118E0,1.722000122E0,2.712000132E0
1.129721294E1,-1.795050144E0,1.863000035E0,2.827050209E0
1.131727348E1,-1.672950029E0,1.939050078E0,2.781000137E0
1.133733387E1,-1.720950127E0,2.076000214E0,2.752950191E0
1.135739418E1,-1.804950118E0,2.155050039E0,2.800950050E0
1.137745474E1,-1.804950118E0,2.173950195E0,2.884050131E0
1.139751514E1,-1.860000134E0,2.232000113E0,2.977950096E0
1.141757545E1,-1.977000117E0,2.313000202E0,3.021000147E0
1.143763606E1,-2.005950212E0,2.409000158E0,2.949000120E0
1.145769640E1,-1.977000117E0,2.572050095E0,2.925000191E0
1.147775693E1,-1.951050043E0,2.691000223E0,2.985000134E0
1.149781735E1,-1.908000112E0,2.718000174E0,3.130950212E0
1.151787788E1,-1.884000063E0,2.701050043E0,3.283950090E0
1.153793829E1,-1.945950150E0,2.622000217E0,3.478050232E0
1.155799858E1,-2.085000038E0,2.581050158E0,3.760950089E0
1.157805912E1,-2.221950054E0,2.646000147E0,4.108050346E0
1.159811950E1,-2.190000057E0,2.617050171E0,4.077000141E0
1.161818005E1,-2.310000181E0,2.791950226E0,3.813000202E0
1.163824036E1,-2.403000116E0,2.938050032E0,3.781950235E0
1.165830075E1,-2.169000149E0,2.718000174E0,3.994950294E0
1.167836129E1,-1.903050065E0,2.373000145E0,4.359000206E0
1.169842167E1,-1.834050059E0,1.948950052E0,4.402050018E0
1.171848219E1,-1.819050074E0,1.630950093E0,4.102950096E0
1.173854251E1,-1.932000041E0,1.446000099E0,3.732000113E0
1.175860290E1,-2.241000175E0,1.390950084E0,3.318000078E0
1.177866342E1,-2.551950216E0,1.396050096E0,2.997000217E0
1.179872381E1,-2.707950115E0,1.509000063E0,2.857950211E0
1.181878433E1,-2.695950031E0,1.599000096E0,2.920050144E0
1.183884471E1,-2.502000093E0,1.555950046E0,2.916000128E0
1.185890502E1,-2.434950113E0,1.449000120E0,2.916000128E0
1.187896558E1,-2.482950211E0,1.420050025E0,2.974950075E0
1.189902598E1,-2.289000034E0,1.432050109E0,2.980050087E0
1.191908650E1,-2.146950006E0,1.618950129E0,2.896050215E0
1.193914688E1,-2.121000051E0,1.843950033E0,2.755050182E0
1.195920718E1,-2.133000135E0,2.014050007E0,2.500950098E0
1.197926770E1,-2.202000141E0,2.169000149E0,2.293050051E0
1.199932809E1,-2.298000097E0,2.278950214E0,2.262000084E0
1.201938861E1,-2.278950214E0,2.341950178E0,2.418000221E0
1.203944901E1,-2.200050116E0,2.382000208E0,2.620950222E0
1.205950953E1,-2.281050205E0,2.413950205E0,2.688000202E0
1.207956983E1,-2.377050161E0,2.457000017E0,2.746050119E0
1.209963022E1,-2.323950052E0,2.490000010E0,2.851050138E0
1.211969076E1,-2.245050192E0,2.607000113E0,2.992050171E0
1.213975115E1,-2.245050192E0,2.679000139E0,3.186000109E0
1.215981145E1,-2.305050135E0,2.751000166E0,3.370050192E0
1.217987199E1,-2.320050001E0,2.779950142E0,3.424950123E0
1.219993236E1,-2.419950008E0,2.940000057E0,3.540000200E0
1.221999290E1,-2.425050020E0,3.016950130E0,3.667050123E0
1.224005322E1,-2.341050148E0,2.932950258E0,3.799050093E0
1.226011359E1,-2.245050192E0,2.755950212E0,3.913950205E0
1.228017412E1,-2.161950111E0,2.557050228E0,3.958950281E0
1.230023451E1,-2.131050110E0,2.380050182E0,3.933000088E0
1.232029505E1,-2.212050200E0,2.430000067E0,3.799050093E0
1.234035537E1,-2.182950020E0,2.473050117E0,3.772950172E0
1.236041574E1,-1.917000055E0,2.341950178E0,3.697950125E0
1.238047629E1,-1.561050057E0,2.155050039E0,3.646050215E0
1.240053668E1,-1.333050013E0,1.954050064E0,3.460950136E0
1.242059721E1,-1.309050083E0,1.851000071E0,3.289050102E0
1.244065752E1,-1.374000072E0,1.852950096E0,3.162000179E0
1.246071790E1,-1.417050123E0,1.848000050E0,3.112050056E0
1.248077843E1,-1.458000064E0,1.825050116E0,3.100050211E0
1.250083882E1,-1.549050093E0,1.834050059E0,2.956050158E0
1.252089934E1,-1.609050035E0,1.827000141E0,2.760000229E0
1.254095965E1,-1.623000026E0,1.884000063E0,2.547000170E0
1.256102002E1,-1.639950037E0,2.017950058E0,2.499000072E0
1.258108057E1,-1.639950037E0,2.125950098E0,2.587950230E0
1.260114096E1,-1.630050063E0,2.197950125E0,2.667000055E0
1.262120128E1,-1.668000102E0,2.265000105E0,2.652000189E0
1.264126182E1,-1.728000045E0,2.284050226E0,2.635050058E0
1.266132221E1,-1.867050052E0,2.317950010E0,2.506050110E0
1.268138277E1,-2.035050154E0,2.377950191E0,2.449050188E0
1.270144308E1,-2.146950006E0,2.397000074E0,2.463000059E0
1.272150346E1,-2.212050200E0,2.404050112E0,2.614050150E0
1.274156399E1,-2.245050192E0,2.434950113E0,2.869950056E0
1.276162438E1,-2.305050135E0,2.526000023E0,3.088050127E0
1.278168492E1,-2.418000221E0,2.595000029E0,3.196050167E0
1.280174531E1,-2.571000099E0,2.679000139E0,3.279000044E0
1.282180562E1,-2.620950222E0,2.710050106E0,3.430050135E0
1.284186617E1,-2.523000002E0,2.683950186E0,3.472950220E0
1.286192656E1,-2.539950132E0,2.707950115E0,3.399000168E0
1.288198686E1,-2.599950075E0,2.710050106E0,3.322950125E0
1.290204740E1,-2.824950218E0,2.899950027E0,3.330000162E0
1.292210780E1,-3.081000090E0,3.205950260E0,3.318000078E0
1.294216809E1,-2.700000048E0,3.001950026E0,3.244050264E0
1.296222864E1,-2.547000170E0,2.872950077E0,3.142950058E0
1.298228902E1,-2.746050119E0,2.751000166E0,3.367950201E0
1.300234954E1,-2.485050201E0,2.326950073E0,3.708000183E0
1.302240992E1,-2.238000154E0,2.038050175E0,3.985950232E0
1.304247046E1,-2.242950201E0,1.891950130E0,3.940050125E0
1.306253077E1,-2.515950203E0,1.839000106E0,3.648000240E0
1.308259117E1,-2.851050138E0,1.908000112E0,3.244050264E0
1.310265170E1,-3.007050037E0,1.975050092E0,2.892000198E0
1.312271200E1,-2.992050171E0,2.014050007E0,2.712000132E0
1.314277238E1,-2.842050076E0,1.983000040E0,2.676000118E0
1.316283291E1,-2.641050100E0,1.939050078E0,2.719050169E0
1.318289330E1,-2.550000191E0,1.906050086E0,2.824950218E0
1.320295363E1,-2.578050137E0,1.879950047E0,2.785950184E0
1.322301416E1,-2.667000055E0,1.870050073E0,2.566050053E0
1.324307454E1,-2.844000101E0,1.918050051E0,2.382000208E0
1.326313508E1,-2.997000217E0,2.056950092E0,2.274000168E0
1.328319546E1,-3.049950123E0,2.244000196E0,2.200050116E0
1.330325579E1,-3.037950039E0,2.374950171E0,2.248050213E0
1.332331632E1,-2.892000198E0,2.449050188E0,2.367000103E0
1.334337665E1,-2.736000061E0,2.392050028E0,2.518050194E0
1.336343725E1,-2.626050234E0,2.325000048E0,2.692950010E0
1.338349756E1,-2.478000164E0,2.272050142E0,2.805000067E0
1.340355793E1,-2.274000168E0,2.289000034E0,2.872050047E0
1.342361848E1,-2.107050180E0,2.325000048E0,3.088050127E0
1.344367880E1,-2.025000095E0,2.392050028E0,3.457050085E0
1.346373918E1,-2.068050146E0,2.442000151E0,3.799050093E0
1.348379973E1,-2.083050013E0,2.434950113E0,4.074000359E0
1.350386009E1,-1.968000054E0,2.382000208E0,4.171950340E0
1.352392063E1,-1.860000134E0,2.368050098E0,4.126950264E0
1.354398094E1,-1.987050056E0,2.473050117E0,3.940050125E0
1.356404131E1,-2.107050180E0,2.646000147E0,3.883050203E0
1.358410183E1,-1.743000031E0,2.454000235E0,3.892050266E0
1.360416214E1,-1.453050017E0,2.232000113E0,3.765000105E0
1.362422252E1,-1.408050060E0,2.017950058E0,3.520950079E0
1.364428306E1,-1.417050123E0,1.801050067E0,3.331950188E0
1.366434345E1,-1.467000127E0,1.722000122E0,3.241050243E0
1.368440375E1,-1.542000055E0,1.804950118E0,3.258000135E0
1.370446430E1,-1.501050115E0,1.908000112E0,3.378000259E0
1.372452469E1,-1.345050097E0,1.978050113E0,3.378000259E0
1.374458521E1,-1.173000097E0,2.028000116E0,3.298950195E0
1.376464553E1,-1.068000078E0,2.056950092E0,3.210000038E0
1.378470593E1,-1.039050102E0,2.032950163E0,3.105000257E0
1.380476624E1,-1.120050073E0,2.011049986E0,2.947050095E0
1.382482679E1,-1.306950092E0,2.059050083E0,2.650050163E0
1.384488718E1,-1.411950111E0,2.128950119E0,2.523000002E0
1.386494772E1,-1.503000021E0,2.254950047E0,2.559000015E0
1.388500811E1,-1.603950024E0,2.346000195E0,2.604000092E0
1.390506866E1,-1.680000067E0,2.430000067E0,2.638050079E0
1.392512898E1,-1.732950091E0,2.466000080E0,2.688000202E0
1.394518935E1,-1.732950091E0,2.506950140E0,2.740950108E0
1.396524989E1,-1.762050033E0,2.590950012E0,2.734050035E0
1.398531022E1,-1.837950110E0,2.737050056E0,2.686050177E0
1.400537061E1,-1.843050122E0,2.880000114E0,2.640000105E0
1.402543092E1,-1.867050052E0,3.040950060E0,2.619000196E0
1.404549155E1,-2.077950001E0,3.141000032E0,2.781000137E0
1.406555186E1,-2.109000206E0,3.199050188E0,2.959050179E0
1.408561239E1,-1.909950137E0,3.019050121E0,3.222000122E0
1.410567271E1,-1.812000036E0,2.863950253E0,3.544950247E0
1.412573309E1,-1.680000067E0,2.842050076E0,3.703050137E0
1.414579364E1,-1.635000110E0,2.785050154E0,3.787050247E0
1.416585403E1,-1.692000031E0,2.710050106E0,3.676950216E0
1.418591435E1,-1.953000069E0,2.751000166E0,3.502050161E0
1.420597489E1,-2.023050070E0,2.689050198E0,3.424950123E0
1.422603527E1,-1.855050087E0,2.514000177E0,3.274950266E0
1.424609580E1,-1.719000101E0,2.275050163E0,3.235950232E0
1.426615611E1,-1.615950108E0,2.101950169E0,3.138000250E0
1.428621649E1,-1.726050138E0,2.008949995E0,3.097050190E0
1.430627680E1,-1.884000063E0,1.924950123E0,3.085950136E0
1.432633733E1,-2.059050083E0,1.951050043E0,2.928000212E0
1.434639771E1,-2.320050001E0,2.131050110E0,2.719050169E0
1.436645822E1,-2.497050047E0,2.281949997E0,2.767050028E0
1.438651853E1,-2.652000189E0,2.422950029E0,2.944050074E0
1.440657891E1,-2.821950197E0,2.563950062E0,3.046950102E0
1.442663944E1,-2.623950243E0,2.248050213E0,2.941950083E0
1.444669982E1,-2.037000179E0,1.801050067E0,2.904000044E0
1.446676011E1,-1.623000026E0,1.681050062E0,2.997000217E0
1.448682065E1,-1.507950068E0,1.786050081E0,3.064050198E0
1.450688102E1,-1.522050023E0,1.827000141E0,3.186000109E0
1.452694132E1,-1.690050125E0,1.900950074E0,3.277050257E0
1.454700186E1,-1.909950137E0,2.071050167E0,3.208050251E0
1.456706225E1,-2.074949980E0,2.161950111E0,3.057000160E0
1.458712256E1,-2.200050116E0,2.145000219E0,3.007050037E0
1.460718308E1,-2.241000175E0,2.100000143E0,2.937000036E0
1.462724345E1,-2.278950214E0,2.143050194E0,2.929950237E0
1.464730399E1,-2.301000118E0,2.212050200E0,2.968050241E0
1.466736429E1,-2.278950214E0,2.269950151E0,2.872050047E0
1.468742470E1,-2.274000168E0,2.244000196E0,2.671050072E0
1.470748524E1,-2.149950027E0,2.035050154E0,2.596950054E0
1.472754561E1,-2.109000206E0,1.923000097E0,2.575950146E0
1.474760592E1,-2.298000097E0,1.899000049E0,2.856000185E0
1.476766645E1,-2.451000214E0,1.803000093E0,3.186000109E0
1.478772676E1,-2.308050156E0,1.659000039E0,3.373050213E0
1.480778714E1,-2.314950228E0,1.768950105E0,3.463950157E0
1.482784769E1,-2.298000097E0,1.840950131E0,3.552000284E0
1.484790808E1,-2.089950085E0,1.722000122E0,3.691050291E0
1.486796840E1,-1.837950110E0,1.630950093E0,3.937950134E0
1.488802893E1,-1.402950048E0,1.537050128E0,4.251000404E0
1.490808932E1,-9.379500151E-1,1.333950043E0,4.702050209E0
1.492814964E1,-7.249500155E-1,1.255050063E0,4.918950081E0
1.494821019E1,-6.840000153E-1,1.270950079E0,5.058000088E0
1.496827056E1,-6.409500241E-1,1.362000108E0,4.864050388E0
1.498833109E1,-6.370500326E-1,1.494000077E0,4.393050194E0
1.500839140E1,-7.660500407E-1,1.588050127E0,3.868050098E0
1.502845178E1,-1.135050058E0,1.585050106E0,3.414000273E0
1.504851235E1,-1.573050022E0,1.555950046E0,3.088050127E0
1.506857265E1,-1.884000063E0,1.458000064E0,2.974950075E0
1.508863306E1,-2.044049978E0,1.312050104E0,3.085950136E0
1.510869360E1,-2.146950006E0,1.237950087E0,3.366000175E0
1.512875392E1,-2.098950148E0,1.164000034E0,3.571950197E0
1.514881430E1,-2.016000032E0,1.153950095E0,3.493050098E0
1.516887484E1,-1.957950115E0,1.192050099E0,3.318000078E0
1.518893513E1,-1.933950067E0,1.303050041E0,3.186000109E0
1.520899551E1,-1.951050043E0,1.519950032E0,2.892000198E0
1.522905604E1,-1.927050114E0,1.702050090E0,2.671050072E0
1.524911634E1,-1.834050059E0,1.848000050E0,2.572950125E0
1.526917673E1,-1.906050086E0,2.035050154E0,2.587950230E0
1.528923727E1,-1.984950066E0,2.119050026E0,2.764950037E0
1.530929765E1,-1.896000147E0,2.152950048E0,3.073950052E0
1.532935795E1,-1.989000082E0,2.125950098E0,3.382050276E0
1.534941849E1,-2.260050058E0,2.260050058E0,3.469050169E0
1.536947887E1,-2.467950106E0,2.277000189E0,3.390000105E0
1.538953940E1,-2.688000202E0,2.281949997E0,3.331950188E0
1.540959970E1,-2.901000023E0,2.305950165E0,3.349050045E0
1.542966009E1,-3.274950266E0,2.377950191E0,3.282000065E0
1.544972039E1,-3.591000080E0,2.488050222E0,3.193050146E0
1.546978098E1,-3.346950054E0,2.440050125E0,3.217050076E0
1.548984130E1,-2.844000101E0,2.074050188E0,3.619050264E0
1.550990184E1,-2.470950127E0,1.552050114E0,4.275000095E0
1.552996215E1,-2.332050085E0,1.069950104E0,5.247000217E0
1.555002255E1,-1.924950123E0,4.189500213E-1,5.937000275E0
1.557008311E1,-1.648950100E0,1.750500053E-1,5.935050488E0
1.559014349E1,-1.840950131E0,4.099500179E-1,5.319000244E0
1.561020381E1,-2.250000000E0,6.270000339E-1,4.361999989E0
1.563026439E1,-2.449050188E0,7.300500274E-1,3.532950163E0
1.565032469E1,-2.626050234E0,9.580500722E-1,2.962950230E0
1.567038506E1,-2.724000216E0,1.269000053E0,2.772000074E0
1.569044559E1,-2.550000191E0,1.506000042E0,2.701950073E0
1.571050598E1,-2.056050062E0,1.522950053E0,2.764950037E0
1.573056627E1,-1.672950029E0,1.477050066E0,2.917950153E0
1.575062682E1,-1.678050041E0,1.489050031E0,3.246000051E0
1.577068721E1,-1.819050074E0,1.444050074E0,3.442050219E0
1.579074754E1,-1.984950066E0,1.378950119E0,3.543000221E0
1.581080806E1,-2.205000162E0,1.492050052E0,3.373050213E0
1.583086844E1,-2.298000097E0,1.687950134E0,3.030000210E0
1.585092875E1,-2.281050205E0,1.813050032E0,2.829000235E0
1.587098926E1,-2.305050135E0,1.930050135E0,2.773950100E0
1.589104965E1,-2.344050169E0,2.044950008E0,2.851050138E0
1.591111017E1,-2.394000053E0,2.169000149E0,2.884050131E0
1.593117051E1,-2.382000208E0,2.244000196E0,2.889000177E0
1.595123085E1,-2.382000208E0,2.254950047E0,2.791050196E0
1.597129137E1,-2.371950150E0,2.278950214E0,2.659050226E0
1.599135169E1,-2.253000021E0,2.311050177E0,2.676000118E0
1.601141207E1,-1.953000069E0,2.337000132E0,2.868000031E0
1.603147261E1,-1.690050125E0,2.380050182E0,3.289050102E0
1.605153294E1,-1.576950073E0,2.326950073E0,3.808950186E0
1.607159330E1,-1.768950105E0,2.269950151E0,4.218000412E0
1.609165382E1,-2.023050070E0,2.337000132E0,4.351950169E0
1.611171413E1,-1.723950028E0,2.265000105E0,4.516950130E0
1.613177450E1,-1.338000059E0,2.107050180E0,4.684950352E0
1.615183504E1,-1.159050107E0,1.915950060E0,4.900050163E0
1.617189536E1,-9.600000381E-1,1.687950134E0,4.917000294E0
1.619195576E1,-9.240000248E-1,1.465050101E0,4.792950153E0
1.621201628E1,-9.600000381E-1,1.372050047E0,4.419000149E0
1.623207660E1,-1.009950042E0,1.384050012E0,3.837000132E0
1.625213695E1,-1.055999994E0,1.458000064E0,3.337050200E0
1.627219751E1,-1.161000013E0,1.554000020E0,2.949000120E0
1.629225784E1,-1.305000067E0,1.675950050E0,2.614050150E0
1.631231823E1,-1.483950019E0,1.780950069E0,2.314950228E0
1.633237876E1,-1.663950086E0,1.825050116E0,2.098950148E0
1.635243915E1,-1.861950040E0,1.891950130E0,2.061000109E0
1.637249944E1,-2.001000166E0,1.980000138E0,2.213999987E0
1.639255999E1,-1.968000054E0,2.095050097E0,2.377050161E0
1.641262031E1,-1.894050121E0,2.208000183E0,2.443950176E0
1.643268069E1,-1.837950110E0,2.329950094E0,2.358000040E0
1.645274122E1,-1.834050059E0,2.500050068E0,2.266950130E0
1.647280153E1,-1.948950052E0,2.674050093E0,2.290950060E0
1.649286214E1,-2.073000193E0,2.836950064E0,2.343000174E0
1.651292246E1,-2.116050005E0,2.940000057E0,2.431950092E0
1.653298285E1,-2.110949993E0,2.986050129E0,2.595000029E0
1.655304316E1,-2.092050076E0,2.974050045E0,2.911050081E0
1.657310369E1,-2.023050070E0,3.000000238E0,3.129000187E0
1.659316406E1,-1.993950129E0,3.037950039E0,3.187950134E0
1.661322437E1,-2.041949987E0,3.088950157E0,3.118950129E0
1.663328490E1,-2.122950077E0,3.168000221E0,3.052050114E0
1.665334523E1,-2.071050167E0,3.153000116E0,3.042000055E0
1.667340562E1,-2.028000116E0,3.084000111E0,3.057000160E0
1.669346614E1,-2.289000034E0,3.189000130E0,3.004050255E0
1.671352651E1,-2.418000221E0,3.225000143E0,2.937000036E0
1.673358706E1,-2.044049978E0,3.012000084E0,3.007050037E0
1.675364738E1,-1.630050063E0,2.746050119E0,3.253050089E0
1.677370770E1,-1.431000113E0,2.385000229E0,3.622050285E0
1.679376807E1,-1.506000042E0,2.050050020E0,3.799050093E0
1.681382861E1,-1.855050087E0,1.995000124E0,3.748950243E0
1.683388892E1,-2.242950201E0,2.224050045E0,3.378000259E0
1.685394930E1,-2.347950220E0,2.446950197E0,2.896050215E0
1.687400983E1,-2.262000084E0,2.482950211E0,2.548950195E0
1.689407014E1,-2.310000181E0,2.421000004E0,2.455950022E0
1.691413054E1,-2.193000078E0,2.272050142E0,2.595000029E0
1.693419109E1,-1.977000117E0,2.104950190E0,2.985000134E0
1.695425138E1,-1.716000080E0,1.963050127E0,3.363000154E0
1.697431177E1,-1.603950024E0,1.944000125E0,3.445050240E0
1.699437229E1,-1.575000048E0,2.068950176E0,3.222000122E0
1.701443262E1,-1.561050057E0,2.232000113E0,2.815050125E0
1.703449302E1,-1.633050084E0,2.397000074E0,2.497050047E0
1.705455354E1,-1.719000101E0,2.512050152E0,2.319000006E0
1.707461393E1,-1.768950105E0,2.566950083E0,2.182950020E0
1.709467424E1,-1.798050046E0,2.605050087E0,2.020050049E0
1.711473478E1,-1.870050073E0,2.626950026E0,1.884000063E0
1.713479509E1,-1.939050078E0,2.631000042E0,1.777950048E0
1.715485547E1,-1.960950136E0,2.569050074E0,1.824000120E0
1.717491601E1,-1.969950080E0,2.542950153E0,2.005950212E0
1.719497633E1,-1.939050078E0,2.542950153E0,2.439000130E0
1.721503671E1,-1.819050074E0,2.464050055E0,2.889000177E0
1.723509726E1,-1.735950112E0,2.413950205E0,3.100050211E0
1.725515755E1,-1.707000136E0,2.398950100E0,3.142950058E0
1.727521796E1,-1.651950121E0,2.428050041E0,3.214950085E0
1.729527848E1,-1.549050093E0,2.476050138E0,3.330000162E0
1.731533878E1,-1.518000126E0,2.560050011E0,3.471000195E0
1.733539918E1,-1.597050071E0,2.722050190E0,3.664950132E0
1.735545970E1,-1.489050031E0,2.859000206E0,3.921000242E0
1.737552001E1,-1.120050073E0,2.775000095E0,4.246950150E0
1.739558039E1,-8.880000710E-1,2.634000063E0,4.515000343E0
1.741564070E1,-8.779500127E-1,2.454000235E0,4.669950008E0
1.743570124E1,-8.040000200E-1,2.205000162E0,4.587000370E0
1.745576163E1,-8.400000334E-1,2.026050091E0,4.363950253E0
1.747582216E1,-9.120000601E-1,1.915950060E0,4.084050179E0
1.749588247E1,-9.859500527E-1,1.846050143E0,3.757950068E0
1.751594277E1,-1.009950042E0,1.801050067E0,3.399000168E0
1.753600338E1,-1.096050024E0,1.783950090E0,2.997000217E0
1.755606368E1,-1.221000075E0,1.738050103E0,2.674050093E0
1.757612408E1,-1.366950035E0,1.702050090E0,2.425050020E0
1.759618461E1,-1.450950027E0,1.699950099E0,2.322000027E0
1.761624494E1,-1.446000099E0,1.726050138E0,2.302950144E0
1.763630525E1,-1.434000015E0,1.747950077E0,2.323950052E0
1.765636562E1,-1.422000051E0,1.765050054E0,2.282999992E0
1.767642594E1,-1.408050060E0,1.839000106E0,2.200050116E0
1.769648648E1,-1.453050017E0,1.966050148E0,2.307000160E0
1.771654685E1,-1.459950089E0,2.095050097E0,2.437050104E0
1.773660739E1,-1.474950075E0,2.220000029E0,2.536950111E0
1.775666769E1,-1.549050093E0,2.335050106E0,2.547000170E0
1.777672807E1,-1.554000020E0,2.446950197E0,2.571000099E0
1.779678861E1,-1.531950116E0,2.562000036E0,2.620950222E0
1.781684892E1,-1.363950014E0,2.595000029E0,2.920050144E0
1.783690931E1,-1.017000079E0,2.581050158E0,3.358050108E0
1.785696961E1,-7.800000310E-1,2.737050056E0,3.660000086E0
1.787703015E1,-8.830500245E-1,2.923050165E0,3.823050261E0
1.789709052E1,-1.101000071E0,2.979000092E0,3.655050278E0
1.791715082E1,-1.314000010E0,3.169950247E0,3.217050076E0
1.793721136E1,-1.375950098E0,3.370950222E0,2.956050158E0
1.795727175E1,-1.297050118E0,3.376050234E0,2.887050152E0
1.797733206E1,-1.489050031E0,3.397950172E0,2.737950087E0
1.799739260E1,-1.848000050E0,3.426000118E0,2.674050093E0
1.801745290E1,-2.044049978E0,3.442950249E0,2.788950205E0
1.803751328E1,-1.755000114E0,3.117000103E0,3.109050035E0
1.805757381E1,-1.326000094E0,2.494950056E0,3.805950165E0
1.807763421E1,-1.065000057E0,1.828950047E0,4.620000362E0
1.809769452E1,-1.654050112E0,1.783950090E0,4.702050209E0
1.811775506E1,-2.017950058E0,1.623000026E0,4.194000244E0
1.813781537E1,-2.310000181E0,1.528050065E0,3.481050253E0
1.815787575E1,-2.688000202E0,1.804950118E0,2.953950167E0
1.817793606E1,-2.851050138E0,2.140950203E0,2.686050177E0
1.819799661E1,-2.734050035E0,2.277000189E0,2.692950010E0
1.821805700E1,-2.449050188E0,2.136000156E0,2.920050144E0
1.823811731E1,-2.218950033E0,1.936950088E0,3.246000051E0
1.825817790E1,-2.097000122E0,1.888950109E0,3.484950066E0
1.827823820E1,-1.980000138E0,1.887000084E0,3.531000137E0
1.829829874E1,-1.920000076E0,1.948950052E0,3.337050200E0
1.831835906E1,-1.908000112E0,2.062050104E0,3.073950052E0
1.833841946E1,-1.984950066E0,2.212050200E0,2.772000074E0
1.835847979E1,-2.052000046E0,2.350950003E0,2.532000065E0
1.837854034E1,-2.025000095E0,2.386950016E0,2.331000090E0
1.839860067E1,-2.025000095E0,2.425050020E0,2.206950188E0
1.841866128E1,-2.080049992E0,2.458950043E0,2.164050102E0
1.843872160E1,-2.134950161E0,2.464050055E0,2.302950144E0
1.845878197E1,-2.161950111E0,2.514000177E0,2.494050026E0
1.847884226E1,-2.097000122E0,2.569050074E0,2.689950228E0
1.849890280E1,-1.992000103E0,2.641050100E0,2.821950197E0
1.851896308E1,-1.872000098E0,2.722050190E0,2.937000036E0
1.853902348E1,-1.695000052E0,2.779950142E0,2.901000023E0
1.855908379E1,-1.530000091E0,2.773050070E0,2.779050112E0
1.857914433E1,-1.495950103E0,2.751000166E0,2.767050028E0
1.859920467E1,-1.695000052E0,2.916000128E0,2.917950153E0
1.861926503E1,-1.714050055E0,3.079050064E0,3.211950064E0
1.863932556E1,-1.285050035E0,3.061950207E0,3.580950260E0
1.865938586E1,-8.760000467E-1,2.955000162E0,3.897000074E0
1.867944624E1,-5.700000525E-1,2.677050114E0,4.066950321E0
1.869950676E1,-5.050500035E-1,2.446950197E0,3.973950148E0
1.871956705E1,-7.180500627E-1,2.311050177E0,3.787050247E0
1.873962742E1,-7.780500650E-1,2.184000015E0,3.436950207E0
1.875968795E1,-6.799500585E-1,2.077950001E0,3.001950026E0
1.877974828E1,-7.540500164E-1,2.047049999E0,2.643000126E0
1.879980869E1,-9.840000272E-1,2.086050034E0,2.254950047E0
1.881986923E1,-1.240050077E0,2.131050110E0,1.939050078E0
1.883992957E1,-1.410000086E0,2.071050167E0,1.801950097E0
1.885998994E1,-1.582050085E0,2.149950027E0,1.656000137E0
1.888005025E1,-1.828950047E0,2.287050009E0,1.594050050E0
1.890011079E1,-1.960950136E0,2.338950157E0,1.588950038E0
1.892017108E1,-2.025000095E0,2.386950016E0,1.729950070E0
1.894023148E1,-2.005950212E0,2.481000185E0,1.989000082E0
1.896029202E1,-1.927050114E0,2.574000120E0,2.334000111E0
1.898035242E1,-1.825950146E0,2.581050158E0,3.007050037E0
1.900041272E1,-1.807050109E0,2.647950172E0,3.313050270E0
1.902047305E1,-1.885950089E0,2.764950037E0,3.373050213E0
1.904053357E1,-1.960950136E0,2.731950045E0,3.244050264E0
1.906059396E1,-2.080049992E0,2.821050167E0,3.186000109E0
1.908065450E1,-2.013000011E0,2.836950064E0,3.244050264E0
1.910071479E1,-1.896000147E0,2.797050238E0,3.390000105E0
1.912077515E1,-1.872000098E0,2.797050238E0,3.555000067E0
1.914083546E1,-1.795050144E0,2.737050056E0,3.571950197E0
1.916089598E1,-1.836000085E0,2.749050140E0,3.507000208E0
1.918095628E1,-2.116050005E0,2.907000065E0,3.471000195E0
1.920101666E1,-2.197950125E0,2.979000092E0,3.619050264E0
1.922107697E1,-1.879050136E0,2.785050154E0,3.787050247E0
1.924113751E1,-1.546050072E0,2.362950087E0,3.739050150E0
1.926119781E1,-1.363950014E0,1.839000106E0,3.421050072E0
1.928125842E1,-1.044000030E0,1.362000108E0,3.174000263E0
1.930131872E1,-8.260500431E-1,1.090050101E0,3.222000122E0
1.932137911E1,-1.020000100E0,1.288050056E0,3.423000097E0
1.934143942E1,-1.357050061E0,1.530000091E0,3.460950136E0
1.936149997E1,-1.836000085E0,1.686000109E0,3.166950226E0
1.938156037E1,-2.229000092E0,1.888950109E0,2.728950024E0
1.940162068E1,-2.419950008E0,2.002050161E0,2.616000175E0
1.942168123E1,-2.386950016E0,1.960950136E0,2.758050203E0
1.944174153E1,-2.487000227E0,1.947000146E0,2.860050201E0
1.946180192E1,-2.329050064E0,1.810050130E0,3.229050159E0
1.948186245E1,-2.308050156E0,1.729050040E0,3.580950260E0
1.950192276E1,-2.326950073E0,1.896000147E0,3.721950293E0
1.952198313E1,-2.089950085E0,2.113950014E0,3.528000116E0
1.954204343E1,-1.987050056E0,2.332050085E0,3.295950174E0
1.956210394E1,-2.011049986E0,2.586000204E0,3.114000082E0
1.958216426E1,-1.936950088E0,2.812950134E0,2.947050095E0
1.960222465E1,-1.897950053E0,2.895000219E0,2.853000164E0
1.962228519E1,-1.980000138E0,2.908950090E0,2.821950197E0
1.964234556E1,-2.083050013E0,2.875950098E0,2.833950043E0
1.966240586E1,-2.097000122E0,2.803950071E0,2.892000198E0
1.968246639E1,-2.056050062E0,2.722050190E0,3.082950115E0
1.970252668E1,-1.987050056E0,2.602950096E0,3.244050264E0
1.972258707E1,-2.011049986E0,2.389950037E0,3.595050097E0
1.974264738E1,-2.166000128E0,2.265000105E0,3.931050301E0
1.976270792E1,-2.217000008E0,2.131050110E0,4.050000191E0
1.978276831E1,-2.229000092E0,2.038050175E0,3.955050230E0
1.980282862E1,-2.272050142E0,2.128950119E0,3.736950159E0
1.982288916E1,-2.121000051E0,2.254950047E0,3.571950197E0
1.984294948E1,-1.788000107E0,2.217000008E0,3.423000097E0
1.986300988E1,-1.515000105E0,2.016000032E0,3.483000278E0
1.988307021E1,-1.309050083E0,1.738050103E0,3.720000267E0
1.990313075E1,-1.125000000E0,1.362000108E0,4.137000084E0
1.992319114E1,-9.529500604E-1,1.117950082E0,4.491000175E0
1.994325144E1,-8.640000224E-1,1.084950089E0,4.783050060E0
1.996331198E1,-8.620500565E-1,1.141950011E0,4.656000137E0
1.998337230E1,-9.570000172E-1,1.357950091E0,4.078950405E0
2.000343268E1,-9.670500755E-1,1.509000063E0,3.502050161E0
2.002349323E1,-9.930000305E-1,1.614000082E0,3.009000063E0
2.004355354E1,-1.077000022E0,1.717050076E0,2.779050112E0
2.006361393E1,-1.165950060E0,1.722000122E0,2.178000212E0
2.008367425E1,-1.486950040E0,1.851000071E0,2.038950205E0
2.010373480E1,-1.660950065E0,1.855950117E0,1.927050114E0
2.012379510E1,-1.648950100E0,1.900950074E0,1.951050043E0
2.014385549E1,-1.597050071E0,2.133000135E0,2.097000122E0
2.016391580E1,-1.507950068E0,2.301000118E0,2.389050007E0
2.018397633E1,-1.351950049E0,2.358000040E0,2.722050190E0
2.020403673E1,-1.423950076E0,2.449050188E0,2.857950211E0
2.022409726E1,-1.783050060E0,2.599950075E0,2.784000158E0
2.024415734E1,-2.065950155E0,2.593050241E0,2.604000092E0
2.026421789E1,-2.254950047E0,2.581050158E0,2.482050180E0
2.028427828E1,-2.430000067E0,2.610000134E0,2.575950146E0
2.030433860E1,-2.497050047E0,2.548050165E0,2.740950108E0
2.032439914E1,-2.527950048E0,2.509050131E0,2.752950191E0
2.034445953E1,-2.767050028E0,2.442000151E0,2.797950029E0
2.036451982E1,-3.055050135E0,2.346000195E0,3.126000166E0
2.038458036E1,-3.301050186E0,2.263050079E0,3.505050182E0
2.040464067E1,-3.555000067E0,2.179050207E0,3.772950172E0
2.042470104E1,-3.969000101E0,2.260050058E0,3.816000223E0
2.044476158E1,-4.077000141E0,2.227050066E0,4.161000252E0
2.046482191E1,-3.771000147E0,1.839000106E0,4.618050098E0
2.048488228E1,-3.486000061E0,1.450950027E0,5.010000229E0
2.050494259E1,-3.328050137E0,1.078050017E0,5.281050205E0
2.052500312E1,-3.124050140E0,6.709500551E-1,5.251950264E0
2.054506342E1,-2.983050108E0,3.780000210E-1,5.056050301E0
2.056512381E1,-2.836950064E0,2.110500038E-1,4.579950333E0
2.058518433E1,-2.869950056E0,2.610000074E-1,3.829950094E0
2.060524465E1,-3.166950226E0,4.549500346E-1,3.217050076E0
2.062530502E1,-3.469050169E0,7.300500274E-1,2.635050058E0
2.064536532E1,-3.603000164E0,9.840000272E-1,2.212050200E0
2.066542586E1,-3.720000267E0,1.189950109E0,2.166000128E0
2.068548617E1,-3.756000280E0,1.252050042E0,2.290950060E0
2.070554656E1,-3.615000248E0,1.156949997E0,2.523000002E0
2.072560689E1,-3.447000265E0,1.044000030E0,2.959050179E0
2.074566742E1,-3.385050058E0,1.057950020E0,3.331950188E0
2.076572781E1,-3.270000219E0,1.120950103E0,3.622050285E0
2.078578811E1,-3.081000090E0,1.260000110E0,3.538050175E0
2.080584865E1,-2.866050243E0,1.441050053E0,3.442050219E0
2.082590904E1,-2.791050196E0,1.663950086E0,3.303000212E0
2.084596936E1,-2.719950199E0,1.834050059E0,3.367950201E0
2.086602988E1,-2.617050171E0,1.987050056E0,3.463950157E0
2.088609019E1,-2.533050060E0,2.095050097E0,3.540000200E0
2.090615057E1,-2.487000227E0,2.149950027E0,3.612000227E0
2.092621089E1,-2.422950029E0,2.197950125E0,3.639000177E0
2.094627142E1,-2.368050098E0,2.244000196E0,3.646050215E0
2.096633174E1,-2.422950029E0,2.320050001E0,3.720000267E0
2.098639212E1,-2.418000221E0,2.299050093E0,3.835050106E0
2.100645266E1,-2.317050219E0,2.167050123E0,3.847050190E0
2.102651293E1,-2.322000027E0,2.111999989E0,3.694050074E0
2.104657323E1,-2.398950100E0,2.140950203E0,3.478050232E0
2.106663383E1,-2.566050053E0,2.244000196E0,3.234000206E0
2.108669414E1,-2.799000025E0,2.442000151E0,3.076050043E0
2.110675445E1,-2.796000242E0,2.590950012E0,3.109050035E0
2.112681483E1,-2.518050194E0,2.548050165E0,3.445050240E0
2.114687516E1,-2.313000202E0,2.326950073E0,3.865950108E0
2.116693569E1,-2.226000071E0,2.047049999E0,4.090950012E0
2.118699608E1,-2.125950098E0,1.705050111E0,4.117050171E0
2.120705641E1,-1.987050056E0,1.437000036E0,3.961950302E0
2.122711694E1,-1.867050052E0,1.209000111E0,3.754050255E0
2.124717732E1,-1.929000139E0,1.141950011E0,3.552000284E0
2.126723762E1,-2.037000179E0,1.237950087E0,3.325050116E0
2.128729794E1,-2.059050083E0,1.354950070E0,3.040050030E0
2.130735848E1,-2.028000116E0,1.434000015E0,2.716950178E0
2.132741886E1,-2.056050062E0,1.504050016E0,2.395950079E0
2.134747921E1,-2.155050039E0,1.594950080E0,2.271000147E0
2.136753973E1,-2.190000057E0,1.651950121E0,2.371950150E0
2.138760004E1,-2.176050186E0,1.686000109E0,2.680950165E0
2.140766044E1,-2.176050186E0,1.675950050E0,2.968050241E0
2.142772097E1,-2.137950182E0,1.698000073E0,3.064050198E0
2.144778128E1,-2.140050173E0,1.855950117E0,3.094950199E0
2.146784164E1,-2.040000200E0,2.029950142E0,3.093000174E0
2.148790218E1,-1.903050065E0,2.152950048E0,3.049950123E0
2.150796249E1,-1.848000050E0,2.220000029E0,3.064050198E0
2.152802279E1,-1.825950146E0,2.266950130E0,3.007050037E0
2.154808318E1,-1.843050122E0,2.299050093E0,2.901000023E0
2.156814350E1,-1.834050059E0,2.325000048E0,2.863050222E0
2.158820405E1,-1.860000134E0,2.386950016E0,2.968050241E0
2.160826442E1,-1.980000138E0,2.518950224E0,3.169050217E0
2.162832473E1,-2.056050062E0,2.634000063E0,3.175950050E0
2.164838526E1,-2.037000179E0,2.710050106E0,3.214950085E0
2.166844564E1,-1.945950150E0,2.836950064E0,3.354000092E0
2.168850596E1,-1.933950067E0,2.902050257E0,3.628950119E0
2.170856650E1,-2.041949987E0,2.883000135E0,3.946950197E0
2.172862678E1,-2.193000078E0,2.847000122E0,4.138950348E0
2.174868716E1,-2.146950006E0,2.677050114E0,4.311000347E0
2.176874749E1,-1.894050121E0,2.394000053E0,4.534049988E0
2.178880804E1,-1.735950112E0,2.109000206E0,4.735050201E0
2.180886833E1,-1.684950113E0,1.735950112E0,4.672950268E0
2.182892871E1,-1.666050076E0,1.366950035E0,4.234950066E0
2.184898926E1,-1.860000134E0,1.207050085E0,3.694050074E0
2.186904957E1,-2.170950174E0,1.188000083E0,3.157050133E0
2.188910995E1,-2.454000235E0,1.279050112E0,2.635050058E0
2.190917049E1,-2.647950172E0,1.438950062E0,2.254950047E0
2.192923080E1,-2.734050035E0,1.666950107E0,2.180999994E0
2.194929120E1,-2.688000202E0,1.851000071E0,2.338950157E0
2.196935152E1,-2.335950136E0,1.875000119E0,2.542050123E0
2.198941207E1,-1.980000138E0,1.789050102E0,2.833950043E0
2.200947237E1,-1.786050081E0,1.743000031E0,3.133050203E0
2.202953276E1,-1.764000058E0,1.789050102E0,3.310950041E0
2.204959308E1,-1.767000079E0,1.839000106E0,3.307950258E0
2.206965362E1,-1.807050109E0,2.004000187E0,3.046950102E0
2.208971399E1,-1.791000128E0,2.245950222E0,2.860050201E0
2.210977430E1,-1.696950078E0,2.481000185E0,2.824950218E0
2.212983486E1,-1.549050093E0,2.619000196E0,2.812950134E0
2.214989526E1,-1.479000092E0,2.686050177E0,2.944050074E0
2.216995555E1,-1.507950068E0,2.647950172E0,3.070950031E0
2.219001608E1,-1.546050072E0,2.602950096E0,3.153000116E0
2.221007639E1,-1.539000034E0,2.598000050E0,3.174000263E0
2.223013678E1,-1.498050094E0,2.622000217E0,3.166950226E0
2.225019709E1,-1.539000034E0,2.619000196E0,3.208050251E0
2.227025759E1,-1.663950086E0,2.563950062E0,3.247950077E0
2.229031789E1,-1.788000107E0,2.533050060E0,3.184050083E0
2.231037826E1,-1.861950040E0,2.548050165E0,3.106950045E0
2.233043882E1,-1.822050095E0,2.563950062E0,3.109050035E0
2.235049915E1,-1.740000129E0,2.634000063E0,3.162000179E0
2.237055954E1,-1.882050037E0,2.836950064E0,3.289050102E0
2.239061985E1,-1.909950137E0,2.944950104E0,3.502050161E0
2.241068040E1,-1.735950112E0,2.827950239E0,3.696000099E0
2.243074068E1,-1.708950043E0,2.739000082E0,3.864000082E0
2.245080105E1,-1.696950078E0,2.389950037E0,3.919050217E0
2.247086157E1,-1.551000118E0,1.918050051E0,3.835050106E0
2.249092187E1,-1.651950121E0,1.630950093E0,3.744000196E0
2.251098224E1,-1.798050046E0,1.449000120E0,3.490050077E0
2.253104255E1,-1.731000066E0,1.393950105E0,3.109050035E0
2.255110308E1,-1.612950087E0,1.437000036E0,2.796000242E0
2.257116348E1,-1.555950046E0,1.480050087E0,2.623050213E0
2.259122380E1,-1.429050088E0,1.546950102E0,2.559000015E0
2.261128413E1,-1.369050026E0,1.635000110E0,2.535000086E0
2.263134467E1,-1.410000086E0,1.690050125E0,2.556000233E0
2.265140504E1,-1.465050101E0,1.750050068E0,2.587950230E0
2.267146533E1,-1.579950094E0,1.837050080E0,2.698050022E0
2.269152586E1,-1.639950037E0,1.912950039E0,2.875050068E0
2.271158615E1,-1.573050022E0,2.026050091E0,2.986950159E0
2.273164652E1,-1.563000083E0,2.172000170E0,2.953950167E0
2.275170707E1,-1.645050049E0,2.314950228E0,2.764950037E0
2.277176738E1,-1.771050096E0,2.458950043E0,2.578050137E0
2.279182776E1,-1.900950074E0,2.539950132E0,2.523000002E0
2.281188831E1,-1.980000138E0,2.554950237E0,2.596950054E0
2.283194862E1,-2.077950001E0,2.548050165E0,2.779050112E0
2.285200901E1,-2.149950027E0,2.557050228E0,3.061950207E0
2.287206931E1,-2.202000141E0,2.635950089E0,3.331950188E0
2.289212983E1,-2.059050083E0,2.653050184E0,3.399000168E0
2.291219020E1,-2.020050049E0,2.634000063E0,3.306000233E0
2.293225050E1,-2.389050007E0,2.868000031E0,3.193050146E0
2.295231082E1,-2.629050016E0,2.947050095E0,3.076050043E0
2.297237139E1,-2.599950075E0,2.794050217E0,3.117000103E0
2.299243170E1,-2.265000105E0,2.356050014E0,3.555000067E0
2.301249206E1,-1.804950118E0,1.899000049E0,4.207950115E0
2.303255238E1,-1.537050128E0,1.638000131E0,4.915050030E0
2.305261294E1,-1.390950084E0,1.339050055E0,5.437050343E0
2.307267333E1,-1.360050082E0,9.910500646E-1,5.266950130E0
2.309273363E1,-1.621050119E0,8.089500666E-1,4.431000233E0
2.311279417E1,-2.266950130E0,9.030000567E-1,3.643050194E0
2.313285456E1,-2.530050039E0,1.055999994E0,3.199950218E0
2.315291486E1,-2.470950127E0,1.219050050E0,3.238950253E0
2.317297517E1,-2.158950090E0,1.192050099E0,3.550050259E0
2.319303572E1,-1.993950129E0,1.099050045E0,3.775050163E0
2.321309610E1,-2.101950169E0,1.116000056E0,3.660000086E0
2.323315644E1,-1.999050140E0,1.087050080E0,3.427950144E0
2.325321697E1,-2.013000011E0,1.140000105E0,3.303000212E0
2.327327725E1,-2.209950209E0,1.257000089E0,3.234000206E0
2.329333762E1,-2.491950035E0,1.386000037E0,3.138000250E0
2.331339793E1,-2.671950102E0,1.564050078E0,2.995050192E0
2.333345848E1,-2.602050066E0,1.698000073E0,2.977950096E0
2.335351887E1,-2.329050064E0,1.843950033E0,3.205050230E0
2.337357917E1,-1.977000117E0,1.932000041E0,3.574050188E0
2.339363969E1,-1.812000036E0,2.035050154E0,3.931050301E0
2.341369999E1,-1.879050136E0,2.172000170E0,4.110000134E0
2.343376036E1,-1.660950065E0,2.148000002E0,4.038000107E0
2.345382068E1,-1.470000029E0,2.076000214E0,3.981000185E0
2.347388123E1,-1.470000029E0,1.966050148E0,4.042950153E0
2.349394153E1,-1.599000096E0,1.935000062E0,3.955050230E0
2.351400192E1,-1.647000074E0,1.960950136E0,3.703050137E0
2.353406246E1,-1.527000070E0,1.983000040E0,3.490050077E0
2.355412274E1,-1.465050101E0,1.956000090E0,3.447000265E0
2.357418312E1,-1.609050035E0,2.016000032E0,3.361050129E0
2.359424344E1,-1.549050093E0,1.792950034E0,3.447000265E0
2.361430397E1,-1.534050107E0,1.506000042E0,3.648000240E0
2.363436428E1,-1.519950032E0,1.317000031E0,3.607050180E0
2.365442466E1,-1.726050138E0,1.386000037E0,3.367950201E0
2.367448498E1,-1.803000093E0,1.341000080E0,3.166950226E0
2.369454552E1,-1.768950105E0,1.386000037E0,2.998950243E0
2.371460591E1,-1.780950069E0,1.513050079E0,2.856000185E0
2.373466623E1,-1.945950150E0,1.645050049E0,2.841000080E0
2.375472679E1,-2.086950064E0,1.816950083E0,2.868000031E0
2.377478717E1,-1.909950137E0,1.834050059E0,2.961000204E0
2.379484746E1,-1.680000067E0,1.738050103E0,3.181050062E0
2.381490792E1,-1.708950043E0,1.686000109E0,3.355950117E0
2.383496823E1,-1.885950089E0,1.747950077E0,3.226950169E0
2.385502861E1,-1.909950137E0,1.768950105E0,2.998950243E0
2.387508894E1,-1.999050140E0,1.875000119E0,2.833950043E0
2.389514946E1,-2.415000200E0,1.963050127E0,2.713950157E0
2.391520976E1,-2.671950102E0,1.942050099E0,2.725950241E0
2.393527015E1,-2.583000183E0,1.995000124E0,3.094950199E0
2.395533069E1,-2.458950043E0,2.200050116E0,3.660000086E0
2.397539100E1,-2.323950052E0,2.380050182E0,3.900000095E0
2.399545128E1,-2.056050062E0,2.410950184E0,3.813000202E0
2.401551166E1,-1.792950034E0,2.514000177E0,3.528000116E0
2.403557218E1,-1.414950013E0,2.578950167E0,3.472950220E0
2.405563249E1,-1.039050102E0,2.488050222E0,3.528000116E0
2.407569280E1,-1.281000018E0,2.538000107E0,3.286950111E0
2.409575342E1,-1.932000041E0,2.785050154E0,3.138000250E0
2.411581372E1,-2.250000000E0,3.024000168E0,2.884050131E0
2.413587419E1,-2.107050180E0,3.004950047E0,2.796000242E0
2.415593449E1,-1.663950086E0,2.677050114E0,3.415950060E0
2.417599503E1,-1.282950044E0,2.212050200E0,4.219950199E0
2.419605536E1,-1.293000102E0,1.719000101E0,4.792950153E0
2.421611574E1,-1.300050020E0,1.108950019E0,4.857000351E0
2.423617628E1,-1.507950068E0,9.700500369E-1,4.471950054E0
2.425623660E1,-1.977000117E0,1.141950011E0,3.982950211E0
2.427629692E1,-2.101950169E0,1.236000061E0,3.411000252E0
2.429635732E1,-2.020050049E0,1.276050091E0,2.860050201E0
2.431641787E1,-2.035050154E0,1.339050055E0,2.503950119E0
2.433647827E1,-2.044049978E0,1.324050069E0,2.406000137E0
2.435653858E1,-2.064000130E0,1.270950079E0,2.527950048E0
2.437659889E1,-2.338950157E0,1.378950119E0,2.676000118E0
2.439665944E1,-2.650050163E0,1.542000055E0,2.853000164E0
2.441671982E1,-2.812950134E0,1.768950105E0,3.145050049E0
2.443678013E1,-2.643000126E0,1.935000062E0,3.454050064E0
2.445684066E1,-2.434950113E0,2.032950163E0,3.748950243E0
2.447690097E1,-2.407950163E0,2.160000086E0,3.909000158E0
2.449696130E1,-2.485050201E0,2.229000092E0,3.780000210E0
2.451702166E1,-2.509050131E0,2.314950228E0,3.475950241E0
2.453708221E1,-2.382000208E0,2.350950003E0,3.214950085E0
2.455714261E1,-2.278950214E0,2.373000145E0,3.073950052E0
2.457720290E1,-2.257050037E0,2.341950178E0,3.016050100E0
2.459726320E1,-2.305050135E0,2.224050045E0,2.941950083E0
2.461732372E1,-2.383949995E0,2.116950035E0,2.877000093E0
2.463738410E1,-2.449050188E0,2.008949995E0,2.901000023E0
2.465744439E1,-2.539950132E0,1.927050114E0,2.901000023E0
2.467750495E1,-2.650050163E0,1.762050033E0,2.662050009E0
2.469756527E1,-2.764950037E0,1.755000114E0,2.611050129E0
2.471762563E1,-2.545050144E0,1.674000025E0,2.875050068E0
2.473768593E1,-2.362950087E0,1.768950105E0,3.142950058E0
2.475774648E1,-2.674050093E0,2.100000143E0,3.022950172E0
2.477780680E1,-2.490000010E0,2.149950027E0,2.527950048E0
2.479786720E1,-2.137950182E0,2.148000002E0,2.233050108E0
2.481792769E1,-2.107050180E0,2.245950222E0,2.746050119E0
2.483798802E1,-1.879050136E0,1.932000041E0,3.508950233E0
2.485804841E1,-1.474950075E0,1.140000105E0,4.303950310E0
2.487810893E1,-1.816950083E0,1.099050045E0,4.419000149E0
2.489816924E1,-1.915050149E0,1.080000043E0,4.141050339E0
2.491822955E1,-2.029950142E0,1.317000031E0,3.844050169E0
2.493828993E1,-2.028000116E0,1.540050030E0,3.721950293E0
2.495835022E1,-1.924950123E0,1.659000039E0,3.619050264E0
2.497841077E1,-1.963050127E0,1.698000073E0,3.580950260E0
2.499847114E1,-1.944000125E0,1.657050133E0,3.526050091E0
2.501853145E1,-1.965000153E0,1.669050097E0,3.643050194E0
2.503859199E1,-1.932000041E0,1.755000114E0,3.907050133E0
2.505865230E1,-1.804950118E0,1.816950083E0,3.967050076E0
2.507871267E1,-1.612950087E0,1.896000147E0,3.840000153E0
2.509877298E1,-1.561050057E0,2.038050175E0,3.787050247E0
2.511883350E1,-1.582050085E0,2.107050180E0,3.742050171E0
2.513889381E1,-1.591950059E0,2.083050013E0,3.519000053E0
2.515895420E1,-1.728000045E0,2.071050167E0,3.354000092E0
2.517901474E1,-1.900950074E0,2.149950027E0,3.411000252E0
2.519907505E1,-1.750050068E0,2.088000059E0,3.745950222E0
2.521913543E1,-1.348050117E0,1.948950052E0,4.249050140E0
2.523919574E1,-1.159050107E0,1.777050138E0,4.495950222E0
2.525925628E1,-1.113000035E0,1.683000088E0,4.182000160E0
2.527931661E1,-1.318950057E0,1.683000088E0,3.670050144E0
2.529937699E1,-1.594050050E0,1.698000073E0,3.375000238E0
2.531943753E1,-1.840950131E0,1.816950083E0,3.483000278E0
2.533949784E1,-1.897950053E0,1.789050102E0,3.813000202E0
2.535955816E1,-1.989000082E0,1.647000074E0,3.865950108E0
2.537961852E1,-2.166000128E0,1.555950046E0,3.556950092E0
2.539967884E1,-2.406000137E0,1.618950129E0,3.169050217E0
2.541973937E1,-2.530050039E0,1.714050055E0,3.007050037E0
2.543979976E1,-2.494050026E0,1.828950047E0,3.016050100E0
2.545986031E1,-2.406000137E0,1.810050130E0,3.124050140E0
2.547992067E1,-2.370000124E0,1.840950131E0,3.133050203E0
2.549998097E1,-2.494050026E0,1.942050099E0,2.986950159E0
2.552004150E1,-2.664000034E0,2.011049986E0,2.722050190E0
2.554010190E1,-2.788950205E0,2.128950119E0,2.523000002E0
2.556016222E1,-2.815050125E0,2.266950130E0,2.548950195E0
2.558022275E1,-2.758050203E0,2.392050028E0,2.736000061E0
2.560028306E1,-2.644950151E0,2.433000088E0,2.868000031E0
2.562034345E1,-2.503950119E0,2.361000061E0,2.985000134E0
2.564040378E1,-2.451000214E0,2.301000118E0,2.980050087E0
2.566046431E1,-2.401050091E0,2.257950068E0,2.956050158E0
2.568052470E1,-2.248050213E0,2.233950138E0,2.929950237E0
2.570058503E1,-2.107050180E0,2.215050220E0,2.986950159E0
2.572064534E1,-1.987050056E0,2.179050207E0,3.208050251E0
2.574070588E1,-1.960950136E0,2.097000122E0,3.520950079E0
2.576076627E1,-1.807050109E0,2.016000032E0,3.772950172E0
2.578082659E1,-1.630050063E0,1.947000146E0,3.751050234E0
2.580088713E1,-1.852950096E0,2.107050180E0,3.327000141E0
2.582094745E1,-2.017950058E0,2.101950169E0,2.872050047E0
2.584100782E1,-1.849950075E0,1.831950068E0,2.689950228E0
2.586106835E1,-1.683000088E0,1.621050119E0,2.827050209E0
2.588112866E1,-1.621050119E0,1.462950110E0,3.274950266E0
2.590118904E1,-1.788000107E0,1.429050088E0,3.775050163E0
2.592124936E1,-1.908000112E0,1.489050031E0,3.993000269E0
2.594130965E1,-1.657050133E0,1.462950110E0,3.864000082E0
2.596136995E1,-1.450950027E0,1.635000110E0,3.676950216E0
2.598143050E1,-1.330950022E0,1.924950123E0,3.628950119E0
2.600149088E1,-1.182000041E0,2.059050083E0,3.375000238E0
2.602155120E1,-1.386000037E0,2.173950195E0,2.977950096E0
2.604161172E1,-2.001000166E0,2.574000120E0,2.512950182E0
2.606167203E1,-2.688000202E0,3.028950214E0,2.415000200E0
2.608173240E1,-3.241050243E0,3.397950172E0,2.680950165E0
2.610179269E1,-3.615000248E0,3.469050169E0,3.756000280E0
2.612185325E1,-3.340050220E0,3.108000040E0,4.587000370E0
2.614191363E1,-2.632950068E0,2.703000069E0,4.930950165E0
2.616197417E1,-2.040000200E0,2.481000185E0,4.954950333E0
2.618203448E1,-1.450950027E0,2.140950203E0,4.768950462E0
2.620209477E1,-8.760000467E-1,1.882050037E0,4.338000298E0
2.622215516E1,-7.510500550E-1,1.846050143E0,3.543000221E0
2.624221569E1,-9.330000281E-1,1.903950095E0,2.881950140E0
2.626227599E1,-8.659500480E-1,1.947000146E0,2.511000156E0
2.628233637E1,-8.260500431E-1,1.990050077E0,2.310000181E0
2.630239667E1,-1.111050010E0,1.666950107E0,2.158950090E0
2.632245719E1,-1.711950064E0,1.506000042E0,2.118000031E0
2.634251758E1,-2.238000154E0,1.492050052E0,2.046000004E0
2.636257789E1,-2.572950125E0,1.810050130E0,2.430000067E0
2.638263820E1,-2.547000170E0,2.044950008E0,3.190950155E0
2.640269874E1,-2.212050200E0,1.996950150E0,3.736950159E0
2.642275914E1,-1.960950136E0,1.971000075E0,3.837000132E0
2.644281943E1,-1.992000103E0,1.896000147E0,3.342000246E0
2.646287997E1,-1.774050117E0,1.731000066E0,3.021000147E0
2.648294031E1,-1.648950100E0,1.707000136E0,3.088050127E0
2.650300070E1,-1.825950146E0,1.702050090E0,3.114000082E0
2.652306124E1,-2.155050039E0,1.743000031E0,2.815050125E0
2.654312155E1,-2.329050064E0,1.882050037E0,2.647050142E0
2.656318192E1,-1.992000103E0,2.017950058E0,2.791050196E0
2.658324224E1,-1.678050041E0,1.972950101E0,3.214950085E0
2.660330277E1,-1.855050087E0,1.932000041E0,3.391950130E0
2.662336308E1,-2.293050051E0,1.972950101E0,2.989950180E0
2.664342348E1,-2.356050014E0,2.089950085E0,2.712000132E0
2.666348402E1,-2.403000116E0,2.284050226E0,3.021000147E0
2.668354432E1,-2.415000200E0,2.176050186E0,3.247950077E0
2.670360470E1,-2.788950205E0,2.052000046E0,2.925000191E0
2.672366502E1,-3.310950041E0,1.995000124E0,2.479950190E0
2.674372554E1,-3.487950087E0,2.149950027E0,2.347950220E0
2.676378584E1,-3.391950130E0,2.248050213E0,3.028050184E0
2.678384624E1,-3.097950220E0,2.080950022E0,3.732000113E0
2.680390654E1,-2.811000109E0,1.779000044E0,4.000050068E0
2.682396713E1,-2.707950115E0,1.626000047E0,3.982950211E0
2.684402745E1,-2.503950119E0,1.602000117E0,4.165050030E0
2.686408776E1,-2.040000200E0,1.828950047E0,4.534049988E0
2.688414831E1,-1.117950082E0,1.791000128E0,4.828050137E0
2.690420870E1,-6.130500436E-1,1.651950121E0,4.450050354E0
2.692426901E1,-7.849500179E-1,1.717050076E0,3.640950203E0
2.694432954E1,-1.206000090E0,1.935000062E0,3.117000103E0
2.696438985E1,-1.273050070E0,1.995000124E0,2.821950197E0
2.698445023E1,-1.477050066E0,2.244000196E0,2.853000164E0
2.700451079E1,-1.459950089E0,2.236050129E0,3.307950258E0
2.702457110E1,-1.194000006E0,1.992000103E0,3.772950172E0
2.704463139E1,-1.252050042E0,1.992000103E0,3.804000139E0
2.706469200E1,-1.254000068E0,2.035050154E0,3.523950100E0
2.708475233E1,-1.228050113E0,2.074050188E0,3.162000179E0
2.710481262E1,-1.348050117E0,2.128950119E0,2.901000023E0
2.712487302E1,-1.435950041E0,2.136000156E0,2.748000145E0
2.714493334E1,-1.431000113E0,2.080950022E0,2.793000221E0
2.716499387E1,-1.398000121E0,1.956000090E0,2.953950167E0
2.718505415E1,-1.507950068E0,1.851000071E0,3.022950172E0
2.720511454E1,-1.639950037E0,1.792950034E0,2.856000185E0
2.722517508E1,-1.840950131E0,1.876950145E0,2.760000229E0
2.724523546E1,-2.047049999E0,1.944000125E0,2.827050209E0
2.726529578E1,-2.350950003E0,2.149950027E0,2.863050222E0
2.728535609E1,-2.380050182E0,2.208000183E0,2.904000044E0
2.730541662E1,-2.338950157E0,2.113950014E0,2.725950241E0
2.732547700E1,-2.833950043E0,2.311050177E0,2.287950039E0
2.734553730E1,-3.154950142E0,2.578950167E0,2.446050167E0
2.736559785E1,-2.575950146E0,2.257950068E0,3.757950068E0
2.738565816E1,-1.530000091E0,1.398000121E0,4.855050087E0
2.740571852E1,-1.297050118E0,8.359500170E-1,5.425050259E0
2.742577906E1,-1.965000153E0,8.310000300E-1,5.568000317E0
2.744583937E1,-2.322000027E0,7.159500122E-1,5.130000114E0
2.746589967E1,-2.277000189E0,8.380500674E-1,4.591050148E0
2.748596004E1,-1.908000112E0,1.321950078E0,4.266000271E0
2.750602060E1,-1.695000052E0,1.615950108E0,4.085999966E0
2.752608091E1,-1.465050101E0,1.492050052E0,3.736950159E0
2.754614121E1,-1.566000104E0,1.342950106E0,3.334950209E0
2.756620160E1,-1.791000128E0,1.324050069E0,3.085950136E0
2.758626214E1,-2.028000116E0,1.281000018E0,3.021000147E0
2.760632244E1,-2.335950136E0,1.309950113E0,3.004050255E0
2.762638283E1,-2.602050066E0,1.414950013E0,3.016050100E0
2.764644337E1,-2.671950102E0,1.405950069E0,3.064050198E0
2.766650369E1,-2.631000042E0,1.425000072E0,3.102000237E0
2.768656407E1,-2.538000107E0,1.522950053E0,3.117000103E0
2.770662439E1,-2.380050182E0,1.638000131E0,3.226950169E0
2.772668494E1,-2.241000175E0,1.738050103E0,3.421050072E0
2.774674525E1,-2.166000128E0,1.840950131E0,3.595050097E0
2.776680561E1,-2.047049999E0,1.855950117E0,3.745950222E0
2.778686592E1,-1.981950045E0,1.903950095E0,3.781950235E0
2.780692647E1,-1.948950052E0,1.900950074E0,3.664950132E0
2.782698677E1,-1.908000112E0,1.762050033E0,3.595050097E0
2.784704716E1,-1.764000058E0,1.621050119E0,3.673950195E0
2.786710745E1,-1.645050049E0,1.537050128E0,3.925950289E0
2.788716799E1,-1.747050047E0,1.639950037E0,3.945000172E0
2.790722837E1,-1.654050112E0,1.678050041E0,3.757950068E0
2.792728870E1,-1.257000089E0,1.630950093E0,3.483000278E0
2.794734923E1,-1.004999995E0,1.542000055E0,3.424950123E0
2.796740961E1,-9.600000381E-1,1.485000014E0,3.754050255E0
2.798746991E1,-1.096050024E0,1.429050088E0,3.724950075E0
2.800753021E1,-1.417050123E0,1.336050034E0,3.358050108E0
2.802759074E1,-1.864950061E0,1.425000072E0,3.102000237E0
2.804765112E1,-1.960950136E0,1.446000099E0,3.250950098E0
2.806771143E1,-1.561050057E0,1.330950022E0,3.547950268E0
2.808777196E1,-1.242000103E0,1.168950081E0,3.922950268E0
2.810783227E1,-1.278000116E0,1.093950033E0,4.030950069E0
2.812789256E1,-1.363950014E0,1.152000070E0,3.732000113E0
2.814795294E1,-1.465050101E0,1.282950044E0,3.306000233E0
2.816801348E1,-1.470000029E0,1.461000085E0,3.271950245E0
2.818807382E1,-1.351950049E0,1.543950081E0,3.481050253E0
2.820813420E1,-1.459950089E0,1.504050016E0,3.540000200E0
2.822819473E1,-1.768950105E0,1.468050122E0,3.346050262E0
2.824825480E1,-1.894050121E0,1.531950116E0,3.169050217E0
2.826831534E1,-1.894050121E0,1.645050049E0,3.229050159E0
2.828837571E1,-1.989000082E0,1.839000106E0,3.519000053E0
2.830843626E1,-1.953000069E0,1.918050051E0,3.873000145E0
2.832849658E1,-1.948950052E0,2.038050175E0,3.988050222E0
2.834855696E1,-1.941000104E0,2.143050194E0,3.904050112E0
2.836861728E1,-1.692000031E0,2.109000206E0,3.847050190E0
2.838867780E1,-1.096050024E0,1.734000087E0,3.982950211E0
2.840873813E1,-1.051050067E0,1.405950069E0,4.216050148E0
2.842879851E1,-1.587000132E0,1.183050036E0,4.189050198E0
2.844885883E1,-2.254950047E0,1.240050077E0,3.604950190E0
2.846891938E1,-2.374950171E0,1.461000085E0,3.081000090E0
2.848897969E1,-1.704000115E0,1.597050071E0,2.949000120E0
2.850904006E1,-1.396050096E0,1.666950107E0,3.283950090E0
2.852910036E1,-1.153950095E0,1.438950062E0,3.493050098E0
2.854916068E1,-1.254000068E0,1.024950027E0,3.282000065E0
2.856922123E1,-1.788000107E0,9.120000601E-1,2.856000185E0
2.858928162E1,-2.317050219E0,1.072950006E0,2.488950014E0
2.860934194E1,-2.458950043E0,1.342950106E0,2.643000126E0
2.862940247E1,-2.380050182E0,1.480050087E0,3.166950226E0
2.864946286E1,-2.382000208E0,1.555950046E0,3.469050169E0
2.866952318E1,-2.419950008E0,1.597050071E0,3.550050259E0
2.868958350E1,-2.461050034E0,1.681050062E0,3.555000067E0
2.870964406E1,-2.659950018E0,1.827000141E0,3.568950176E0
2.872970436E1,-2.643000126E0,1.840950131E0,3.655050278E0
2.874976475E1,-2.503950119E0,1.599000096E0,3.892050266E0
2.876982529E1,-2.572950125E0,1.437000036E0,4.098000050E0
2.878988557E1,-2.470950127E0,1.318950057E0,4.182000160E0
2.880994595E1,-2.037000179E0,1.446000099E0,4.231950283E0
2.883000628E1,-1.939050078E0,1.860000134E0,4.579950333E0
2.885006682E1,-1.527000070E0,2.064000130E0,4.951050282E0
2.887012712E1,-8.419500589E-1,1.864950061E0,5.161050320E0
2.889018748E1,-9.600000381E-1,1.669050097E0,4.693950176E0
2.891024778E1,-1.408050060E0,1.554000020E0,3.724950075E0
2.893030809E1,-1.293000102E0,1.365000010E0,3.013950109E0
2.895036862E1,-1.132050037E0,1.228050113E0,3.259950161E0
2.897042901E1,-9.100500345E-1,1.099050045E0,3.616950274E0
2.899048932E1,-9.190500379E-1,1.008000016E0,3.439950228E0
2.901054984E1,-1.257000089E0,1.183050036E0,2.889000177E0
2.903061013E1,-1.623000026E0,1.317000031E0,2.458050013E0
2.905067054E1,-2.213999987E0,1.360050082E0,2.422049999E0
2.907073108E1,-2.602050066E0,1.276050091E0,2.671050072E0
2.909079140E1,-2.680950165E0,1.240050077E0,3.025950193E0
2.911085173E1,-2.608950138E0,1.345950007E0,3.403950214E0
2.913091212E1,-2.593050241E0,1.530000091E0,3.483000278E0
2.915097241E1,-2.863050222E0,1.816950083E0,3.057000160E0
2.917103294E1,-2.968950033E0,2.023050070E0,2.590050220E0
2.919109326E1,-2.925000191E0,2.020950079E0,2.683050156E0
2.921115365E1,-2.878050089E0,1.884000063E0,3.169050217E0
2.923121397E1,-2.383949995E0,1.585050106E0,3.583950281E0
2.925127451E1,-1.786050081E0,1.317000031E0,3.748950243E0
2.927133489E1,-1.326000094E0,1.144950032E0,3.673950195E0
2.929139520E1,-8.449500203E-1,9.100500345E-1,3.355950117E0
2.931145548E1,-6.870000362E-1,8.760000467E-1,2.997000217E0
2.933151604E1,-8.760000467E-1,1.030050039E0,2.791050196E0
2.935157634E1,-1.446000099E0,1.252050042E0,2.892000198E0
2.937163671E1,-1.885950089E0,1.546950102E0,3.238950253E0
2.939169723E1,-1.894050121E0,1.900950074E0,3.478050232E0
2.941175754E1,-2.085000038E0,2.374950171E0,3.792000294E0
2.943181792E1,-2.217000008E0,2.800950050E0,3.967050076E0
2.945187822E1,-2.185950041E0,2.880000114E0,3.937950134E0
2.947193876E1,-2.166000128E0,2.718000174E0,3.652950287E0
2.949199908E1,-2.137950182E0,2.397000074E0,3.172050238E0
2.951205946E1,-1.843050122E0,2.002050161E0,3.049950123E0
2.953211976E1,-1.795050144E0,1.894050121E0,3.325050116E0
2.955218031E1,-1.848000050E0,1.876950145E0,3.792000294E0
2.957224062E1,-1.921950102E0,1.729050040E0,3.916050196E0
2.959230101E1,-1.884000063E0,1.594950080E0,4.231950283E0
2.961236132E1,-7.849500179E-1,1.185000062E0,5.017950058E0
2.963242186E1,5.950500369E-1,6.319500208E-1,5.983050346E0
2.965248216E1,1.042950034E0,1.510500014E-1,6.223950386E0
2.967254254E1,1.530000120E-1,2.400000095E-1,5.485050201E0
2.969260284E1,-8.520000577E-1,7.620000243E-1,4.266000271E0
2.971266315E1,-1.009950042E0,1.189950109E0,3.406050205E0
2.973272377E1,-1.197000027E0,1.647000074E0,3.390000105E0
2.975278407E1,-1.426950097E0,1.911000133E0,3.697950125E0
2.977284438E1,-1.422000051E0,1.888950109E0,4.093050003E0
2.979290493E1,-1.321050048E0,1.825050116E0,4.171950340E0
2.981296524E1,-1.149000049E0,1.707000136E0,3.981000185E0
2.983302562E1,-1.032000065E0,1.675950050E0,3.780000210E0
2.985308594E1,-1.198950052E0,1.765050054E0,3.756000280E0
2.987314648E1,-1.326000094E0,1.731000066E0,3.676950216E0
2.989320679E1,-1.350000024E0,1.602000117E0,3.411000252E0
2.991326716E1,-1.515000105E0,1.470000029E0,3.007050037E0
2.993332746E1,-1.804950118E0,1.453050017E0,2.724000216E0
2.995338800E1,-1.870050073E0,1.470000029E0,2.596950054E0
2.997344830E1,-1.822050095E0,1.528050065E0,2.659050226E0
2.999350869E1,-1.684950113E0,1.546950102E0,2.875050068E0
3.001356902E1,-1.587000132E0,1.546950102E0,2.935050249E0
3.003362955E1,-1.615950108E0,1.573050022E0,2.761950016E0
3.005368988E1,-1.410000086E0,1.542000055E0,2.640000105E0
3.007375026E1,-1.141950011E0,1.618950129E0,2.724000216E0
3.009381079E1,-9.570000172E-1,1.666950107E0,2.784000158E0
3.011387116E1,-1.044000030E0,1.597050071E0,2.451000214E0
3.013393146E1,-1.783050060E0,1.690050125E0,2.037000179E0
3.015399177E1,-2.193000078E0,1.840950131E0,2.062950134E0
3.017405229E1,-2.109000206E0,2.086050034E0,2.731050014E0
3.019411258E1,-1.372050047E0,1.983000040E0,3.375000238E0
3.021417293E1,-1.060050011E0,2.077950001E0,3.732000113E0
3.023423326E1,-1.120050073E0,2.323050022E0,3.732000113E0
3.025429382E1,-8.740500212E-1,2.358000040E0,3.291000128E0
3.027435419E1,-8.089500666E-1,2.313000202E0,2.947050095E0
3.029441451E1,-1.218000054E0,2.406000137E0,2.944050074E0
3.031447481E1,-1.399950027E0,2.317950010E0,3.138000250E0
3.033453535E1,-1.234950066E0,2.232000113E0,3.469050169E0
3.035459573E1,-6.510000229E-1,2.109000206E0,3.643050194E0
3.037465603E1,-4.260000288E-1,2.059050083E0,3.655050278E0
3.039471657E1,-5.860500336E-1,2.109000206E0,3.354000092E0
3.041477689E1,-8.449500203E-1,2.088000059E0,2.743050098E0
3.043483726E1,-1.045950055E0,2.116950035E0,2.329050064E0
3.045489759E1,-9.769500494E-1,2.109000206E0,2.282999992E0
3.047495812E1,-9.289500713E-1,2.131050110E0,2.500950098E0
3.049501851E1,-1.150950074E0,1.987050056E0,2.781000137E0
3.051507881E1,-1.531950116E0,1.984950066E0,2.614050150E0
3.053513936E1,-1.780950069E0,2.248050213E0,2.475000143E0
3.055519967E1,-1.716000080E0,2.385000229E0,2.749950171E0
3.057526005E1,-1.692000031E0,2.506950140E0,3.256050110E0
3.059532036E1,-1.767000079E0,2.502000093E0,3.733950138E0
3.061538069E1,-1.888950109E0,2.494950056E0,3.912000179E0
3.063544122E1,-1.927050114E0,2.575950146E0,3.895050287E0
3.065550161E1,-1.678050041E0,2.545050144E0,3.982950211E0
3.067556193E1,-1.600950122E0,2.560050011E0,4.189050198E0
3.069562248E1,-1.888950109E0,2.539950132E0,4.072050095E0
3.071568279E1,-2.680950165E0,2.710050106E0,3.712950230E0
3.073574319E1,-3.117000103E0,2.880000114E0,3.720000267E0
3.075580351E1,-2.904000044E0,2.868000031E0,4.465050220E0
3.077586403E1,-1.611000061E0,2.137950182E0,5.065950394E0
3.079592432E1,-1.429050088E0,2.002050161E0,5.145000458E0
3.081598471E1,-1.465050101E0,1.603950024E0,4.703999996E0
3.083604504E1,-1.204050064E0,1.006049991E0,3.880050182E0
3.085610559E1,-1.302000046E0,8.310000300E-1,3.238950253E0
3.087616590E1,-1.470000029E0,8.599500656E-1,2.821950197E0
3.089622628E1,-1.702050090E0,9.750000238E-1,2.947050095E0
3.091628657E1,-1.786050081E0,1.216050029E0,3.165000200E0
3.093634710E1,-1.707000136E0,1.224000096E0,3.343950272E0
3.095640741E1,-1.599000096E0,1.072950006E0,3.466050148E0
3.097646779E1,-1.728000045E0,9.820500612E-1,3.576000214E0
3.099652832E1,-1.834050059E0,9.360000491E-1,3.535950184E0
3.101658863E1,-1.993950129E0,1.072950006E0,3.205050230E0
3.103664894E1,-2.245050192E0,1.261950016E0,2.761950016E0
3.105670931E1,-2.296050072E0,1.501050115E0,2.317050219E0
3.107676987E1,-2.371950150E0,1.698000073E0,2.094000101E0
3.109683020E1,-2.374950171E0,1.698000073E0,2.197050095E0
3.111689060E1,-2.206950188E0,1.711950064E0,2.584950209E0
3.113695114E1,-1.921950102E0,1.699950099E0,3.258000135E0
3.115701145E1,-1.542000055E0,1.594950080E0,3.789000273E0
3.117707177E1,-1.345050097E0,1.594950080E0,3.931050301E0
3.119713216E1,-1.362000108E0,1.687950134E0,3.784950256E0
3.121719248E1,-1.360050082E0,1.920000076E0,3.579000235E0
3.123725304E1,-1.192050099E0,2.172000170E0,3.592950106E0
3.125731340E1,-7.060500383E-1,2.065950155E0,3.964050293E0
3.127737373E1,-6.750000119E-1,1.911000133E0,4.057950020E0
3.129743404E1,-9.450000525E-1,1.894050121E0,3.720000267E0
3.131749456E1,-7.920000553E-1,1.959000111E0,3.691050291E0
3.133755494E1,-5.890500546E-1,2.077950001E0,3.912000179E0
3.135761524E1,-7.750500441E-1,2.104950190E0,4.030950069E0
3.137767554E1,-1.089000106E0,2.059050083E0,4.077000141E0
3.139773606E1,-1.102950096E0,1.792950034E0,4.228050232E0
3.141779643E1,-1.264050007E0,1.588050127E0,4.386000156E0
3.143785674E1,-1.182000041E0,1.437000036E0,4.219950199E0
3.145791703E1,-1.144050002E0,1.486950040E0,3.885000229E0
3.147797756E1,-9.790500402E-1,1.528050065E0,3.619050264E0
3.149803793E1,-9.450000525E-1,1.542000055E0,3.337050200E0
3.151809822E1,-1.405050039E0,1.647000074E0,2.971050024E0
3.153815874E1,-2.052000046E0,1.923000097E0,2.655000210E0
3.155821903E1,-2.301000118E0,2.044950008E0,2.571000099E0
3.157827942E1,-2.041949987E0,2.104950190E0,2.935050249E0
3.159833972E1,-1.840950131E0,2.205000162E0,3.054000139E0
3.161840004E1,-1.774050117E0,2.209950209E0,2.796000242E0
3.163846058E1,-1.792950034E0,2.089950085E0,2.476950169E0
3.165852097E1,-1.909950137E0,2.191050053E0,2.149049997E0
3.167858128E1,-1.852950096E0,2.308050156E0,2.086950064E0
3.169864181E1,-1.879050136E0,2.323050022E0,2.275950193E0
3.171870212E1,-2.011049986E0,2.253000021E0,2.523000002E0
3.173876250E1,-2.157000065E0,2.040000200E0,2.509050131E0
3.175882280E1,-2.317050219E0,1.774050117E0,2.403000116E0
3.177888333E1,-2.454000235E0,1.791000128E0,2.518050194E0
3.179894372E1,-2.286000013E0,1.888950109E0,2.974950075E0
3.181900402E1,-2.128050089E0,1.939050078E0,3.330000162E0
3.183906433E1,-2.382000208E0,2.184000015E0,3.648000240E0
3.185912488E1,-2.346000195E0,2.289000034E0,4.000050068E0
3.187918527E1,-1.968000054E0,2.289000034E0,4.431000233E0
3.189924558E1,-1.606050134E0,2.326950073E0,4.383000374E0
3.191930613E1,-1.647000074E0,2.430000067E0,3.574050188E0
3.193936643E1,-2.407950163E0,2.715000153E0,2.578050137E0
3.195942680E1,-2.652000189E0,2.638950109E0,1.753950119E0
3.197948733E1,-2.341050148E0,2.245950222E0,2.185050011E0
3.199954764E1,-1.987050056E0,1.959000111E0,2.224050045E0
3.201960803E1,-1.828950047E0,1.816950083E0,2.262000084E0
3.203966834E1,-2.035050154E0,1.687950134E0,2.800950050E0
3.205972889E1,-1.582050085E0,1.468050122E0,3.667050123E0
3.207978921E1,-1.350000024E0,1.372050047E0,4.492950439E0
3.209984962E1,-9.859500527E-1,1.309950113E0,4.678050041E0
3.211990992E1,-8.689500690E-1,1.273950100E0,4.369050026E0
3.213997045E1,-8.899500370E-1,1.149000049E0,3.949950218E0
3.216003086E1,-8.740500212E-1,1.173000097E0,3.811050177E0
3.218009117E1,-9.889500737E-1,1.468050122E0,3.889950275E0
3.220015170E1,-5.670000315E-1,1.602000117E0,4.048050404E0
3.222021209E1,-1.960500032E-1,1.635000110E0,3.973950148E0
3.224027262E1,-2.080500126E-1,1.686000109E0,3.808950186E0
3.226033293E1,-3.540000021E-1,1.681050062E0,3.544950247E0
3.228039325E1,-6.220500469E-1,1.662000060E0,3.436950207E0
3.230045363E1,-6.940500140E-1,1.663950086E0,3.439950228E0
3.232051417E1,-7.350000143E-1,1.741050124E0,3.373050213E0
3.234057457E1,-9.840000272E-1,1.767000079E0,3.175950050E0
3.236063488E1,-1.386000037E0,1.783950090E0,2.899050236E0
3.238069542E1,-1.791000128E0,1.735950112E0,2.844000101E0
3.240075573E1,-2.140050173E0,1.573050022E0,3.052050114E0
3.242081610E1,-2.449050188E0,1.393950105E0,3.319950104E0
3.244087641E1,-2.722050190E0,1.267050028E0,3.754050255E0
3.246093696E1,-2.845950127E0,1.177950025E0,4.078950405E0
3.248099735E1,-2.815050125E0,1.128000021E0,4.423950195E0
3.250105765E1,-2.535000086E0,1.116000056E0,4.776000023E0
3.252111819E1,-1.972950101E0,1.096950054E0,5.182950020E0
3.254117856E1,-1.630050063E0,1.054050088E0,5.166000366E0
3.256123885E1,-1.849950075E0,1.015050054E0,4.648950100E0
3.258129939E1,-2.455950022E0,1.207050085E0,3.598050117E0
3.260135968E1,-2.812950134E0,1.354950070E0,2.683050156E0
3.262142005E1,-2.976000071E0,1.396050096E0,2.422049999E0
3.264148059E1,-3.016050100E0,1.318950057E0,3.016050100E0
3.266154089E1,-2.503950119E0,8.839500546E-1,4.085999966E0
3.268160128E1,-1.996050119E0,4.050000310E-1,5.188050270E0
3.270166159E1,-1.759050131E0,2.320500165E-1,5.394000053E0
3.272172213E1,-1.683000088E0,3.040500283E-1,4.819050312E0
3.274178251E1,-2.005950212E0,5.560500026E-1,3.949950218E0
3.276184281E1,-2.169000149E0,8.599500656E-1,3.064050198E0
3.278190335E1,-2.137950182E0,1.123050094E0,2.544000149E0
3.280196366E1,-2.119050026E0,1.372050047E0,2.389050007E0
3.282202427E1,-2.020050049E0,1.518000126E0,2.475000143E0
3.284208460E1,-1.996050119E0,1.446000099E0,2.785950184E0
3.286214491E1,-1.992000103E0,1.303050041E0,3.169050217E0
3.288220532E1,-1.860000134E0,1.342950106E0,3.505050182E0
3.290226586E1,-1.663950086E0,1.506000042E0,3.672000170E0
3.292232619E1,-1.537050128E0,1.719000101E0,3.672000170E0
3.294238658E1,-1.555950046E0,1.923000097E0,3.447000265E0
3.296244712E1,-1.672950029E0,1.999050140E0,3.136050224E0
3.298250750E1,-1.807050109E0,2.017950058E0,2.953950167E0
3.300256780E1,-1.779000044E0,1.968000054E0,3.169050217E0
3.302262809E1,-1.683000088E0,1.942050099E0,3.676950216E0
3.304268870E1,-1.551000118E0,1.944000125E0,4.162950039E0
3.306274924E1,-1.543950081E0,2.101950169E0,4.423950195E0
3.308280956E1,-1.486950040E0,2.196000099E0,4.345050335E0
3.310286994E1,-1.348050117E0,2.290950060E0,4.186950207E0
3.312293025E1,-1.113000035E0,2.353950024E0,4.000050068E0
3.314299079E1,-1.087050080E0,2.289000034E0,3.844050169E0
3.316305110E1,-1.692000031E0,2.337000132E0,3.709950209E0
3.318311147E1,-2.241000175E0,2.406000137E0,3.559950113E0
3.320317201E1,-2.073000193E0,2.121000051E0,3.439950228E0
3.322323240E1,-1.423950076E0,1.570950031E0,3.933000088E0
3.324329270E1,-8.779500127E-1,1.249950051E0,4.740000248E0
3.326335324E1,-1.150950074E0,1.075049996E0,5.266950130E0
3.328341355E1,-1.522050023E0,8.020500541E-1,4.720950127E0
3.330347394E1,-2.137950182E0,8.809500337E-1,3.865950108E0
3.332353448E1,-2.353049994E0,1.011000037E0,3.064050198E0
3.334359486E1,-2.494050026E0,1.183050036E0,2.724000216E0
3.336365516E1,-2.410950184E0,1.282950044E0,2.797950029E0
3.338371571E1,-2.085000038E0,1.201950073E0,2.995050192E0
3.340377610E1,-1.828950047E0,1.044000030E0,3.295950174E0
3.342383641E1,-1.953000069E0,9.960000515E-1,3.496950150E0
3.344389672E1,-1.953000069E0,9.100500345E-1,3.447000265E0
3.346395725E1,-1.953000069E0,9.720000625E-1,3.109050035E0
3.348401763E1,-2.113950014E0,1.120950103E0,2.917950153E0
3.350407818E1,-2.121000051E0,1.233000040E0,2.869950056E0
3.352413846E1,-2.056050062E0,1.306950092E0,3.046950102E0
3.354419884E1,-2.068050146E0,1.393950105E0,3.150000095E0
3.356425938E1,-1.987050056E0,1.477050066E0,3.133050203E0
3.358431969E1,-1.879050136E0,1.564050078E0,3.093000174E0
3.360438008E1,-1.888950109E0,1.630950093E0,3.141000032E0
3.362444062E1,-1.852950096E0,1.683000088E0,3.210000038E0
3.364450091E1,-1.755000114E0,1.686000109E0,3.403950214E0
3.366456129E1,-1.680000067E0,1.642950058E0,3.712950230E0
3.368462161E1,-1.599000096E0,1.623000026E0,3.913950205E0
3.370468214E1,-1.459950089E0,1.654950023E0,3.823050261E0
3.372474254E1,-1.639950037E0,1.864950061E0,3.547950268E0
3.374480277E1,-1.843050122E0,2.077950001E0,3.394050121E0
3.376486314E1,-1.225950003E0,1.891950130E0,3.652950287E0
3.378492343E1,-5.170500278E-1,1.477050066E0,4.275000095E0
3.380498397E1,-3.900000155E-1,1.099050045E0,4.888050079E0
3.382504427E1,-6.919500232E-1,9.340500236E-1,4.953000069E0
3.384510466E1,-1.233000040E0,1.063050032E0,4.516950130E0
3.386516521E1,-1.216050029E0,1.269000053E0,3.724950075E0
3.388522559E1,-1.008000016E0,1.437000036E0,3.277050257E0
3.390528590E1,-1.057950020E0,1.561050057E0,3.172050238E0
3.392534620E1,-1.261050105E0,1.549050093E0,3.220050097E0
3.394540674E1,-1.575000048E0,1.408050060E0,3.142950058E0
3.396546714E1,-1.936950088E0,1.438950062E0,2.836950064E0
3.398552769E1,-2.166000128E0,1.554000020E0,2.523000002E0
3.400558800E1,-2.398950100E0,1.654950023E0,2.455950022E0
3.402564831E1,-2.688000202E0,1.743000031E0,2.583000183E0
3.404570891E1,-2.868000031E0,1.774050117E0,2.749950171E0
3.406576921E1,-2.848950148E0,1.804950118E0,2.917950153E0
3.408582960E1,-2.659950018E0,1.852950096E0,3.220050097E0
3.410588995E1,-2.485050201E0,1.896000147E0,3.496950150E0
3.412595025E1,-2.442000151E0,1.915950060E0,3.691050291E0
3.414601080E1,-2.485050201E0,1.927050114E0,3.840000153E0
3.416607118E1,-2.358000040E0,1.827000141E0,4.144050121E0
3.418613146E1,-1.702050090E0,1.546950102E0,4.813950062E0
3.420619201E1,-1.008000016E0,1.288050056E0,5.451000214E0
3.422625231E1,-7.729500532E-1,1.309950113E0,5.434050083E0
3.424631269E1,-1.182000041E0,1.606950045E0,4.702050209E0
3.426637324E1,-1.750050068E0,1.822050095E0,3.931050301E0
3.428643362E1,-1.828950047E0,1.792950034E0,3.651000261E0
3.430649393E1,-1.756950140E0,1.698000073E0,3.757950068E0
3.432655444E1,-1.776000142E0,1.498950124E0,3.889950275E0
3.434661475E1,-2.104050159E0,1.554000020E0,3.841950178E0
3.436667504E1,-2.109000206E0,1.666950107E0,3.583950281E0
3.438673567E1,-1.864950061E0,1.795950055E0,3.241050243E0
3.440679598E1,-1.771050096E0,1.947000146E0,3.037950039E0
3.442685629E1,-1.711950064E0,2.004000187E0,2.974950075E0
3.444691666E1,-1.600950122E0,1.972950101E0,3.136050224E0
3.446697696E1,-1.587000132E0,1.959000111E0,3.286950111E0
3.448703750E1,-1.680000067E0,1.944000125E0,3.366000175E0
3.450709790E1,-1.846050143E0,1.944000125E0,3.337050200E0
3.452715822E1,-1.953000069E0,1.908000112E0,3.184050083E0
3.454721877E1,-2.028000116E0,1.876950145E0,3.016050100E0
3.456727908E1,-2.044049978E0,1.927050114E0,2.925000191E0
3.458733945E1,-2.004000187E0,2.028000116E0,2.868000031E0
3.460739999E1,-1.944000125E0,2.097000122E0,2.844000101E0
3.462746032E1,-1.894050121E0,2.104950190E0,2.904000044E0
3.464752072E1,-1.924950123E0,2.133000135E0,3.018000126E0
3.466758101E1,-1.941000104E0,2.164950132E0,2.892000198E0
3.468764155E1,-2.032050133E0,2.244000196E0,2.860050201E0
3.470770195E1,-2.170950174E0,2.265000105E0,2.863050222E0
3.472776224E1,-2.212050200E0,2.196000099E0,2.941950083E0
3.474782253E1,-2.314950228E0,2.205000162E0,3.016050100E0
3.476788308E1,-2.350950003E0,2.244000196E0,2.901000023E0
3.478794348E1,-2.202000141E0,2.239050150E0,2.791050196E0
3.480800377E1,-1.804950118E0,2.148000002E0,3.114000082E0
3.482806432E1,-1.351950049E0,2.023050070E0,3.709950209E0
3.484812461E1,-1.000050068E0,1.777050138E0,3.967050076E0
3.486818501E1,-8.980500698E-1,1.566000104E0,3.817950249E0
3.488824532E1,-1.233000040E0,1.615950108E0,3.528000116E0
3.490830586E1,-1.336050034E0,1.828950047E0,3.184050083E0
3.492836624E1,-1.218000054E0,2.116950035E0,2.962950230E0
3.494842653E1,-1.281000018E0,2.272050142E0,2.785950184E0
3.496848707E1,-1.477050066E0,2.257950068E0,2.503950119E0
3.498854739E1,-1.726050138E0,2.265000105E0,2.391000032E0
3.500860777E1,-1.762050033E0,2.284050226E0,2.611050129E0
3.502866828E1,-1.506000042E0,2.232000113E0,3.007050037E0
3.504872859E1,-1.384050012E0,2.263050079E0,3.256050110E0
3.506878897E1,-1.306950092E0,2.382000208E0,3.078000069E0
3.508884926E1,-1.273050070E0,2.485050201E0,2.731050014E0
3.510890955E1,-1.342950106E0,2.614950180E0,2.467950106E0
3.512897010E1,-1.494000077E0,2.763000250E0,2.302950144E0
3.514903048E1,-1.707000136E0,2.860950232E0,2.166000128E0
3.516909079E1,-1.872000098E0,2.923050165E0,2.037000179E0
3.518915130E1,-1.927050114E0,2.980950117E0,2.110949993E0
3.520921163E1,-1.897950053E0,3.016950130E0,2.482050180E0
3.522927194E1,-1.953000069E0,3.064950228E0,2.938950062E0
3.524933257E1,-1.953000069E0,3.016950130E0,3.402000189E0
3.526939288E1,-1.690050125E0,2.815950155E0,3.768000126E0
3.528945326E1,-1.684950113E0,2.560050011E0,3.877950191E0
3.530951357E1,-2.422950029E0,2.550000191E0,3.390000105E0
3.532957414E1,-3.196050167E0,2.848950148E0,2.821950197E0
3.534963445E1,-3.036000252E0,2.938050032E0,2.542050123E0
3.536969484E1,-2.230950117E0,2.449050188E0,3.603000164E0
3.538975538E1,-1.348050117E0,1.666950107E0,4.503000259E0
3.540981571E1,-1.684950113E0,1.446000099E0,4.893000126E0
3.542987602E1,-2.338950157E0,1.504050016E0,4.516950130E0
3.544993640E1,-2.779050112E0,1.609050035E0,4.085999966E0
3.546999694E1,-2.575950146E0,1.768950105E0,3.676950216E0
3.549005725E1,-2.314950228E0,1.975050092E0,3.574050188E0
3.551011766E1,-2.125950098E0,1.920000076E0,3.727050066E0
3.553017796E1,-1.917000055E0,1.729050040E0,3.745950222E0
3.555023850E1,-1.891050100E0,1.615950108E0,3.586050272E0
3.557029887E1,-1.975050092E0,1.678050041E0,3.040050030E0
3.559035918E1,-2.250000000E0,1.930050135E0,2.580000162E0
3.561041972E1,-2.442000151E0,2.179050207E0,2.271000147E0
3.563048005E1,-2.446950197E0,2.301000118E0,2.034000158E0
3.565054042E1,-2.478000164E0,2.365950108E0,1.987050056E0
3.567060074E1,-2.439000130E0,2.338950157E0,2.154000044E0
3.569066128E1,-2.290950060E0,2.350950003E0,2.307000160E0
3.571072159E1,-2.302950144E0,2.380050182E0,2.479950190E0
3.573078199E1,-2.290950060E0,2.401950121E0,2.595000029E0
3.575084253E1,-2.217000008E0,2.401950121E0,2.698050022E0
3.577090285E1,-2.185950041E0,2.392050028E0,2.893950224E0
3.579096316E1,-2.158950090E0,2.446950197E0,3.126000166E0
3.581102356E1,-2.152050018E0,2.449050188E0,3.409050226E0
3.583108408E1,-2.035050154E0,2.332050085E0,3.567000151E0
3.585114439E1,-2.025000095E0,2.179050207E0,3.547950268E0
3.587120477E1,-2.335950136E0,2.155050039E0,3.571950197E0
3.589126508E1,-2.443950176E0,2.197950125E0,3.495000124E0
3.591132563E1,-2.241000175E0,2.065950155E0,3.544950247E0
3.593138593E1,-1.764000058E0,1.789050102E0,3.859050274E0
3.595144629E1,-1.108050108E0,1.420050025E0,4.801950455E0
3.597150660E1,-9.790500402E-1,1.293000102E0,5.688000202E0
3.599156715E1,-9.889500737E-1,1.216050029E0,5.632950306E0
3.601162744E1,-8.329500556E-1,1.177950025E0,4.563000202E0
3.603168780E1,-9.649500251E-1,1.398000121E0,3.469050169E0
3.605174833E1,-1.126950026E0,1.614000082E0,2.554050207E0
3.607180864E1,-1.221000075E0,1.741050124E0,2.094000101E0
3.609186903E1,-1.474950075E0,1.798050046E0,1.933950067E0
3.611192934E1,-1.624950051E0,1.746000051E0,1.957950115E0
3.613198987E1,-1.680000067E0,1.570950031E0,2.319000006E0
3.615205018E1,-1.671000123E0,1.492050052E0,2.779050112E0
3.617211056E1,-1.639950037E0,1.450950027E0,3.034950256E0
3.619217087E1,-1.692000031E0,1.497000098E0,3.130950212E0
3.621223118E1,-1.815000057E0,1.609050035E0,3.078000069E0
3.623229178E1,-1.759050131E0,1.726050138E0,2.916000128E0
3.625235209E1,-1.683000088E0,1.827000141E0,2.875050068E0
3.627241240E1,-1.597050071E0,1.887000084E0,3.045000076E0
3.629247293E1,-1.518000126E0,1.971000075E0,3.244050264E0
3.631253331E1,-1.467000127E0,1.980000138E0,3.411000252E0
3.633259363E1,-1.479000092E0,1.899000049E0,3.598050117E0
3.635265395E1,-1.585050106E0,1.876950145E0,3.696000099E0
3.637271448E1,-1.684950113E0,1.855950117E0,3.852000237E0
3.639277479E1,-1.708950043E0,1.779000044E0,4.219950199E0
3.641283516E1,-1.639950037E0,1.675950050E0,4.729950428E0
3.643289569E1,-1.623000026E0,1.530000091E0,4.915050030E0
3.645295600E1,-1.840950131E0,1.534950018E0,4.339950085E0
3.647301638E1,-2.092050076E0,1.792950034E0,3.514050245E0
3.649307669E1,-2.059050083E0,2.068950176E0,3.318000078E0
3.651313721E1,-1.837950110E0,2.140950203E0,3.727050066E0
3.653319752E1,-1.336050034E0,1.768950105E0,4.390050411E0
3.655325790E1,-9.790500402E-1,1.063050032E0,5.515950203E0
3.657331819E1,-1.329000115E0,8.910000324E-1,5.439000130E0
3.659337872E1,-1.707000136E0,9.910500646E-1,4.867050171E0
3.661343903E1,-1.542000055E0,8.260500431E-1,4.240050316E0
3.663349941E1,-1.318950057E0,9.150000215E-1,3.732000113E0
3.665355994E1,-1.362000108E0,1.123050094E0,3.439950228E0
3.667362027E1,-1.398000121E0,1.036949992E0,3.354000092E0
3.669368066E1,-1.435950041E0,8.239500523E-1,3.330000162E0
3.671374121E1,-1.549050093E0,7.140000463E-1,3.121050119E0
3.673380153E1,-1.636950135E0,7.260000110E-1,2.998950243E0
3.675386184E1,-1.738050103E0,8.959500194E-1,2.812950134E0
3.677392223E1,-1.884000063E0,1.113000035E0,2.599050045E0
3.679398256E1,-2.004000187E0,1.303050041E0,2.467950106E0
3.681404309E1,-2.128050089E0,1.510950089E0,2.389050007E0
3.683410349E1,-2.065950155E0,1.678050041E0,2.575950146E0
3.685416380E1,-1.924950123E0,1.686000109E0,2.841000080E0
3.687422411E1,-1.876950145E0,1.666950107E0,3.061950207E0
3.689428467E1,-1.960950136E0,1.582950115E0,3.069000244E0
3.691434508E1,-2.032050133E0,1.555950046E0,3.028050184E0
3.693440539E1,-1.894050121E0,1.576050043E0,3.235950232E0
3.695446570E1,-1.470000029E0,1.522950053E0,3.751050234E0
3.697452625E1,-9.810000658E-1,1.329000115E0,4.090950012E0
3.699458661E1,-9.070500135E-1,1.273950100E0,4.105050087E0
3.701464690E1,-1.096050024E0,1.465050101E0,3.813000202E0
3.703470744E1,-1.141950011E0,1.573050022E0,3.463950157E0
3.705476773E1,-1.039050102E0,1.410000086E0,3.387000084E0
3.707482812E1,-1.090950012E0,1.125000000E0,3.852000237E0
3.709488865E1,-1.027050018E0,8.520000577E-1,4.263000011E0
3.711494894E1,-1.003050089E0,7.380000353E-1,4.069950104E0
3.713500922E1,-9.859500527E-1,7.020000219E-1,3.375000238E0
3.715506954E1,-1.053000093E0,8.310000300E-1,2.983050108E0
3.717512985E1,-1.429050088E0,1.195050001E0,3.093000174E0
3.719519039E1,-1.462950110E0,1.152000070E0,3.366000175E0
3.721525075E1,-1.186950088E0,1.036949992E0,3.448950052E0
3.723531105E1,-1.141950011E0,1.248000026E0,3.496950150E0
3.725537158E1,-1.065000057E0,1.597050071E0,3.619050264E0
3.727543188E1,-8.929500580E-1,1.837050080E0,3.543000221E0
3.729549226E1,-8.659500480E-1,2.005950212E0,3.547950268E0
3.731555258E1,-9.070500135E-1,1.966050148E0,3.574050188E0
3.733561313E1,-1.004999995E0,1.762050033E0,3.643050194E0
3.735567343E1,-1.197000027E0,1.702050090E0,3.736950159E0
3.737573380E1,-1.372050047E0,1.666950107E0,3.949950218E0
3.739579411E1,-1.555950046E0,1.614000082E0,4.207950115E0
3.741585465E1,-1.795050144E0,1.570950031E0,4.294950008E0
3.743591498E1,-2.013000011E0,1.599000096E0,4.456950188E0
3.745597546E1,-2.016000032E0,1.734000087E0,4.552950382E0
3.747603598E1,-2.053950071E0,1.912950039E0,4.788000107E0
3.749609629E1,-2.104050159E0,1.956000090E0,5.073000431E0
3.751615660E1,-2.289000034E0,1.978050113E0,5.134950161E0
3.753621701E1,-2.403000116E0,1.777050138E0,4.753950119E0
3.755627754E1,-2.329050064E0,1.567950130E0,4.399950027E0
3.757633786E1,-2.041949987E0,1.330950022E0,4.234950066E0
3.759639819E1,-1.756950140E0,1.057950020E0,4.279950142E0
3.761645857E1,-1.984950066E0,8.980500698E-1,4.246950150E0
3.763651911E1,-2.503950119E0,7.810500264E-1,4.081950188E0
3.765657941E1,-2.656950235E0,5.719500184E-1,3.732000113E0
3.767663971E1,-2.535000086E0,5.269500017E-1,3.532950163E0
3.769670011E1,-2.394000053E0,7.399500608E-1,3.579000235E0
3.771676041E1,-2.250000000E0,9.769500494E-1,3.640950203E0
3.773682094E1,-2.064000130E0,1.101000071E0,3.564000130E0
3.775688132E1,-2.064000130E0,1.164000034E0,3.286950111E0
3.777694163E1,-2.260050058E0,1.183050036E0,2.953950167E0
3.779700218E1,-2.491950035E0,1.321950078E0,2.767050028E0
3.781706249E1,-2.595000029E0,1.482000113E0,2.812950134E0
3.783712280E1,-2.587950230E0,1.558950067E0,2.953950167E0
3.785718316E1,-2.497050047E0,1.654950023E0,3.042000055E0
3.787724371E1,-2.521050215E0,1.750050068E0,3.018000126E0
3.789730399E1,-2.583000183E0,1.843950033E0,2.917950153E0
3.791736436E1,-2.587950230E0,1.908000112E0,2.947050095E0
3.793742468E1,-2.439000130E0,1.983000040E0,3.154950142E0
3.795748498E1,-2.320050001E0,2.088000059E0,3.406050205E0
3.797754554E1,-2.146950006E0,2.111999989E0,3.445050240E0
3.799760592E1,-2.044049978E0,2.113950014E0,3.318000078E0
3.801766623E1,-2.061000109E0,2.116950035E0,3.217050076E0
3.803772652E1,-1.933950067E0,2.040000200E0,3.283950090E0
3.805778707E1,-1.861950040E0,2.017950058E0,3.411000252E0
3.807784736E1,-2.047049999E0,2.180999994E0,3.409050226E0
3.809790775E1,-1.788000107E0,2.059050083E0,3.423000097E0
3.811796805E1,-1.375950098E0,1.872000098E0,3.543000221E0
3.813802858E1,-1.306950092E0,1.774050117E0,3.808950186E0
3.815808897E1,-1.443000078E0,1.639950037E0,3.970950127E0
3.817814927E1,-1.684950113E0,1.558950067E0,3.943050146E0
3.819820958E1,-1.836000085E0,1.522950053E0,3.805950165E0
3.821827013E1,-1.660950065E0,1.504050016E0,3.631050110E0
3.823833051E1,-1.489050031E0,1.638000131E0,3.427950144E0
3.825839080E1,-1.489050031E0,1.726050138E0,3.148050070E0
3.827845134E1,-1.651950121E0,1.756950140E0,2.848050117E0
3.829851164E1,-1.897950053E0,1.807950139E0,2.698050022E0
3.831857195E1,-2.064000130E0,1.831950068E0,2.698050022E0
3.833863233E1,-2.137950182E0,1.900950074E0,2.748000145E0
3.835869266E1,-2.071050167E0,1.956000090E0,2.710050106E0
3.837875320E1,-1.929000139E0,1.978050113E0,2.628000021E0
3.839881361E1,-1.908000112E0,2.041949987E0,2.587950230E0
3.841887391E1,-1.999050140E0,2.119050026E0,2.599050045E0
3.843893443E1,-2.164050102E0,2.184000015E0,2.701950073E0
3.845899474E1,-2.262000084E0,2.236050129E0,2.800950050E0
3.847905503E1,-2.229000092E0,2.212050200E0,2.839050055E0
3.849911544E1,-2.377050161E0,2.269950151E0,2.865000248E0
3.851917574E1,-2.506050110E0,2.338950157E0,3.030000210E0
3.853923627E1,-2.395950079E0,2.401950121E0,3.241050243E0
3.855929665E1,-2.359950066E0,2.416050196E0,3.487950087E0
3.857935700E1,-2.392050028E0,2.409000158E0,3.636000156E0
3.859941731E1,-2.538000107E0,2.346000195E0,3.598050117E0
3.861947786E1,-2.836950064E0,2.365950108E0,3.469050169E0
3.863953824E1,-3.043050051E0,2.287050009E0,3.490050077E0
3.865959854E1,-3.217950106E0,2.104950190E0,3.526050091E0
3.867965885E1,-3.550050259E0,2.111999989E0,3.634050131E0
3.869971938E1,-3.331950188E0,2.028000116E0,4.009950161E0
3.871977975E1,-2.751000166E0,1.714050055E0,4.420950413E0
3.873984006E1,-2.599950075E0,1.422000051E0,4.507950306E0
3.875990038E1,-2.887050152E0,1.402950048E0,4.098000050E0
3.877996093E1,-3.031050205E0,1.357950091E0,3.718050241E0
3.880002125E1,-2.593050241E0,1.293000102E0,3.576000214E0
3.882008162E1,-2.005950212E0,1.294950008E0,3.667050123E0
3.884014194E1,-1.663950086E0,1.233000040E0,3.817950249E0
3.886020247E1,-1.575000048E0,1.099050045E0,3.804000139E0
3.888026287E1,-1.579950094E0,1.066050053E0,3.685950279E0
3.890032315E1,-1.645050049E0,1.149000049E0,3.385050058E0
3.892038348E1,-1.929000139E0,1.378950119E0,3.052050114E0
3.894044402E1,-2.143050194E0,1.585050106E0,2.827050209E0
3.896050440E1,-2.301000118E0,1.768950105E0,2.848050117E0
3.898056464E1,-2.392050028E0,1.864950061E0,2.710050106E0
3.900062503E1,-2.731950045E0,2.131050110E0,2.656950235E0
3.902068532E1,-3.055050135E0,2.335050106E0,2.443950176E0
3.904074587E1,-3.298950195E0,2.358000040E0,2.310000181E0
3.906080618E1,-3.414000273E0,2.401950121E0,2.494050026E0
3.908086659E1,-3.493050098E0,2.410950184E0,2.884050131E0
3.910092715E1,-3.427950144E0,2.368050098E0,3.226950169E0
3.912098745E1,-3.403950214E0,2.332050085E0,3.363000154E0
3.914104783E1,-3.411000252E0,2.341950178E0,3.402000189E0
3.916110814E1,-3.340050220E0,2.296050072E0,3.262950182E0
3.918116845E1,-3.130950212E0,2.143050194E0,3.306000233E0
3.920122898E1,-2.956950188E0,1.947000146E0,3.402000189E0
3.922128930E1,-2.932950258E0,1.780950069E0,3.496950150E0
3.924134966E1,-3.021000147E0,1.807950139E0,3.519000053E0
3.926140997E1,-2.965950251E0,1.959000111E0,3.484950066E0
3.928147051E1,-2.479950190E0,2.020950079E0,3.466050148E0
3.930153082E1,-1.917000055E0,1.963050127E0,3.366000175E0
3.932159120E1,-1.558050036E0,1.683000088E0,3.421050072E0
3.934165152E1,-1.483950019E0,1.329000115E0,3.751050234E0
3.936171206E1,-1.579950094E0,1.063050032E0,3.940050125E0
3.938177236E1,-1.522050023E0,8.929500580E-1,3.993000269E0
3.940183272E1,-1.278000116E0,6.990000606E-1,3.976050138E0
3.942189302E1,-9.019500613E-1,5.010000467E-1,3.988050222E0
3.944195356E1,-6.460500360E-1,4.380000234E-1,3.828000069E0
3.946201387E1,-8.640000224E-1,6.130500436E-1,3.556950092E0
3.948207426E1,-1.242000103E0,7.140000463E-1,3.379950047E0
3.950213460E1,-1.189950109E0,3.430500031E-1,3.138000250E0
3.952219514E1,-8.520000577E-1,-1.399500072E-1,3.061950207E0
3.954225544E1,-1.575000048E0,-7.530000210E-1,3.796950102E0
3.956231582E1,-2.086950064E0,-8.920500278E-1,4.273050308E0
3.958237613E1,-2.620950222E0,-1.110000014E0,4.126950264E0
3.960243644E1,-3.181950092E0,-1.933050036E0,4.144050121E0
3.962249707E1,-3.442950249E0,-1.858950138E0,4.468950272E0
3.964255738E1,-3.864000082E0,-1.159950018E0,4.323000431E0
3.966261767E1,-3.430950165E0,-4.300500154E-1,4.852050304E0
3.968267798E1,-3.684000254E0,-1.500000060E-1,4.819050312E0
3.970273853E1,-3.361050129E0,-8.149500489E-1,3.157050133E0
3.972279883E1,-3.850050211E0,-5.470499992E-1,3.481050253E0
3.974285921E1,-4.531949997E0,-3.360000253E-1,4.177050114E0
3.976291951E1,-4.099050045E0,-7.080000043E-1,4.692000389E0
3.978298005E1,-3.505050182E0,-7.750500441E-1,4.749000072E0
3.980304043E1,-3.481050253E0,-6.070500016E-1,4.085999966E0
3.982310073E1,-3.775050163E0,-4.129500091E-1,3.861000299E0
3.984316124E1,-4.108050346E0,-9.495000541E-2,3.937950134E0
3.986322155E1,-4.129950047E0,5.805000290E-2,3.865950108E0
3.988328186E1,-3.921000242E0,2.230500132E-1,3.907050133E0
3.990334225E1,-3.696000099E0,2.680500150E-1,4.660950184E0
3.992340255E1,-3.688950062E0,2.899500132E-1,5.812950134E0
3.994346309E1,-3.652950287E0,6.229500175E-1,6.310950279E0
3.996352340E1,-3.447000265E0,5.530500412E-1,5.416950226E0
3.998358380E1,-2.217000008E0,-1.260000020E-1,4.809000015E0
4.000364410E1,-1.549050093E0,-6.840000153E-1,4.273050308E0
4.002370441E1,-1.345050097E0,-7.510500550E-1,3.631050110E0
4.004376494E1,-1.254000068E0,-7.099500299E-1,3.403950214E0
4.006382533E1,-1.459950089E0,-6.049500108E-1,4.258950233E0
4.008388566E1,-2.371950150E0,3.070500195E-1,4.192049980E0
4.010394621E1,-2.419950008E0,5.479500294E-1,4.462050438E0
4.012400652E1,-2.071050167E0,3.469500244E-1,4.477050304E0
4.014406690E1,-1.999050140E0,4.890000224E-1,3.840000153E0
4.016412723E1,-2.170950174E0,7.519500256E-1,3.430050135E0
4.018418776E1,-2.499000072E0,1.197000027E0,2.371950150E0
4.020424807E1,-2.413050175E0,1.330950022E0,1.635000110E0
4.022430837E1,-2.437050104E0,1.477050066E0,1.684950113E0
4.024436876E1,-2.617050171E0,1.714050055E0,1.848000050E0
4.026442905E1,-2.698050022E0,1.848000050E0,2.008050203E0
4.028448936E1,-2.715000153E0,1.954050064E0,2.215950012E0
4.030454997E1,-2.764950037E0,2.140950203E0,2.413050175E0
4.032461028E1,-2.667000055E0,2.191050053E0,2.587950230E0
4.034467059E1,-2.434950113E0,2.208000183E0,2.797950029E0
4.036473112E1,-2.254950047E0,2.305950165E0,3.045000076E0
4.038479143E1,-2.041949987E0,2.370000124E0,3.229050159E0
4.040485181E1,-1.803000093E0,2.428050041E0,3.232050180E0
4.042491211E1,-1.732950091E0,2.481000185E0,3.145050049E0
4.044497241E1,-1.719000101E0,2.488050222E0,3.093000174E0
4.046503295E1,-1.671000123E0,2.578950167E0,3.133050203E0
4.048509325E1,-1.534050107E0,2.550000191E0,3.294000149E0
4.050515365E1,-1.518000126E0,2.551950216E0,3.361050129E0
4.052521418E1,-1.651950121E0,2.659950018E0,3.307950258E0
4.054527448E1,-1.582050085E0,2.590950012E0,3.198000193E0
4.056533480E1,-1.459950089E0,2.514000177E0,3.007050037E0
4.058539519E1,-1.270950079E0,2.269950151E0,2.998950243E0
4.060545574E1,-1.177950025E0,2.002050161E0,3.181050062E0
4.062551605E1,-1.273050070E0,1.840950131E0,3.528000116E0
4.064557636E1,-1.270950079E0,1.738050103E0,3.756000280E0
4.066563674E1,-1.165950060E0,1.681050062E0,3.813000202E0
4.068569706E1,-1.003050089E0,1.662000060E0,3.655050278E0
4.070575761E1,-1.044000030E0,1.722000122E0,3.495000124E0
4.072581790E1,-1.125000000E0,1.662000060E0,3.322950125E0
4.074587829E1,-1.252050042E0,1.669050097E0,3.073950052E0
4.076593860E1,-1.467000127E0,1.734000087E0,2.869950056E0
4.078599890E1,-1.627950072E0,1.852950096E0,2.631000042E0
4.080605942E1,-1.683000088E0,1.978050113E0,2.512950182E0
4.082611972E1,-1.731000066E0,1.960950136E0,2.604000092E0
4.084618010E1,-1.759050131E0,1.837050080E0,2.904000044E0
4.086624044E1,-1.660950065E0,1.804950118E0,2.959050179E0
4.088630072E1,-1.542000055E0,1.918050051E0,2.995050192E0
4.090636125E1,-1.554000020E0,2.011049986E0,3.088050127E0
4.092642162E1,-1.695000052E0,2.016000032E0,3.166950226E0
4.094648193E1,-1.873950124E0,2.044950008E0,3.294000149E0
4.096654248E1,-1.795050144E0,2.023050070E0,3.295950174E0
4.098660281E1,-1.558050036E0,1.908000112E0,3.217050076E0
4.100666318E1,-1.479000092E0,1.927050114E0,3.322950125E0
4.102672348E1,-1.807050109E0,2.188050032E0,3.483000278E0
4.104678379E1,-2.073000193E0,2.353950024E0,3.490050077E0
4.106684434E1,-2.161950111E0,2.320050001E0,3.382050276E0
4.108690473E1,-2.193000078E0,2.064000130E0,3.030000210E0
4.110696504E1,-2.296050072E0,1.783950090E0,3.105000257E0
4.112702536E1,-2.860950232E0,2.032950163E0,3.466050148E0
4.114708591E1,-3.546000242E0,2.665050030E0,3.406050205E0
4.116714630E1,-3.567000151E0,2.956950188E0,2.944050074E0
4.118720659E1,-3.256050110E0,2.878050089E0,2.736000061E0
4.120726714E1,-2.949000120E0,2.629050016E0,2.884050131E0
4.122732745E1,-3.094950199E0,2.349000216E0,3.157050133E0
4.124738784E1,-3.301050186E0,2.095050097E0,3.457050085E0
4.126744816E1,-3.355950117E0,2.032950163E0,3.564000130E0
4.128750845E1,-3.220050097E0,1.936950088E0,3.226950169E0
4.130756898E1,-3.286950111E0,2.005950212E0,2.857950211E0
4.132762929E1,-3.526050091E0,2.215050220E0,2.559000015E0
4.134768967E1,-3.675000191E0,2.203050137E0,2.662050009E0
4.136774998E1,-3.646050215E0,2.172000170E0,2.953950167E0
4.138781049E1,-3.100050211E0,2.109000206E0,3.028050184E0
4.140787080E1,-2.878050089E0,2.173950195E0,2.989950180E0
4.142793109E1,-3.040050030E0,2.092950106E0,3.049950123E0
4.144799148E1,-3.162000179E0,1.864950061E0,3.244050264E0
4.146805201E1,-3.238950253E0,1.920000076E0,3.330000162E0
4.148811231E1,-3.081000090E0,2.128950119E0,3.064050198E0
4.150817263E1,-2.983050108E0,2.418000221E0,2.592000008E0
4.152823301E1,-3.121950150E0,2.641050100E0,2.377050161E0
4.154829333E1,-3.186000109E0,2.457000017E0,2.587950230E0
4.156835386E1,-3.391950130E0,2.290950060E0,2.971050024E0
4.158841415E1,-3.379950047E0,2.284050226E0,3.157050133E0
4.160847453E1,-3.301050186E0,2.466000080E0,3.114000082E0
4.162853508E1,-3.361050129E0,2.635950089E0,2.929950237E0
4.164859538E1,-3.442950249E0,2.557050228E0,2.829000235E0
4.166865569E1,-3.466950178E0,2.527950048E0,2.887050152E0
4.168871607E1,-3.382950068E0,2.562000036E0,3.076050043E0
4.170877640E1,-3.364050150E0,2.578950167E0,3.202950239E0
4.172883693E1,-3.457050085E0,2.623950243E0,3.217050076E0
4.174889724E1,-3.442950249E0,2.578950167E0,3.198000193E0
4.176895762E1,-3.355950117E0,2.650950193E0,3.117000103E0
4.178901793E1,-3.289050102E0,2.689050198E0,3.040050030E0
4.180907847E1,-3.214950085E0,2.611950159E0,3.157050133E0
4.182913876E1,-3.265050173E0,2.512050152E0,3.262950182E0
4.184919907E1,-3.286950111E0,2.401950121E0,3.291000128E0
4.186925945E1,-3.301050186E0,2.370000124E0,3.256050110E0
4.188931974E1,-3.337050200E0,2.385000229E0,3.232050180E0
4.190938030E1,-3.285000086E0,2.374950171E0,3.196050167E0
4.192944060E1,-3.394950151E0,2.515950203E0,3.093000174E0
4.194950099E1,-4.066950321E0,2.751000166E0,1.513050079E0
4.196956132E1,-3.541050196E0,2.449050188E0,3.007050037E0
4.198962186E1,-3.265050173E0,2.377950191E0,3.129000187E0
