"Time (s)","Acceleration x (m/s^2)","Acceleration y (m/s^2)","Acceleration z (m/s^2)"
4.923161800E-2,-2.840280533E0,5.603990555E0,9.282955170E0
6.924625300E-2,-2.744567633E0,5.814558983E0,7.636095047E0
8.887604500E-2,-3.218346357E0,5.599205017E0,6.318846226E0
1.086981280E-1,-3.845864296E0,5.057828903E0,6.424130440E0
1.285202110E-1,-3.759722471E0,4.895116806E0,7.171289444E0
1.483038570E-1,-2.935993433E0,4.995615482E0,7.722237110E0
1.683568780E-1,-2.184048891E0,4.852046013E0,8.042875290E0
1.881168780E-1,-2.203191519E0,4.880760193E0,8.656036377E0
2.080013570E-1,-2.485544443E0,5.143970490E0,9.158528328E0
2.276311490E-1,-2.150549412E0,5.158327579E0,9.321240425E0
2.474147950E-1,-1.527817249E0,4.942973614E0,8.584251404E0
2.672752110E-1,-1.494317770E0,5.019543648E0,7.664809227E0
2.870972430E-1,-1.436890006E0,5.105685234E0,7.276573658E0
3.071118780E-1,-9.152546525E-1,4.919044971E0,7.209574699E0
3.267416180E-1,-2.255235314E-1,4.655834675E0,7.353144169E0
3.465252630E-1,8.554340899E-2,4.152743816E0,7.080362320E0
3.663472950E-1,-4.983053207E-1,3.946960926E0,7.267002583E0
3.862077630E-1,-1.345962763E0,3.631108284E0,7.951947689E0
4.062224510E-1,-1.939980984E0,3.247658491E0,8.492725372E0
4.258522430E-1,-2.389831543E0,3.664607763E0,8.986245155E0
4.458668260E-1,-2.289333105E0,3.707678795E0,9.469595909E0
4.654966180E-1,-1.681556106E0,3.046661377E0,1.018804073E1
4.853187010E-1,-9.822536707E-1,2.434098721E0,1.039860916E1
5.053332840E-1,-5.276173949E-1,1.792224169E0,1.011625576E1
5.249630240E-1,-2.542374134E-1,1.658226132E0,9.948758125E0
5.447466700E-1,-2.931207791E-2,2.002792597E0,1.104048347E1
5.646070860E-1,9.475577474E-1,1.035493970E0,1.218963718E1
5.843907320E-1,2.441277266E0,2.985046208E-1,1.202213955E1
6.044437530E-1,8.135597110E-1,2.065006018E0,1.047996521E1
6.240734930E-1,-2.303689957E0,3.669393539E0,9.230313301E0
6.440880760E-1,-9.966106415E-1,3.822534084E0,1.113141060E1
6.637179200E-1,3.678964674E-1,3.089732170E0,1.328136253E1
6.837324510E-1,-3.355933726E-1,2.697309256E0,1.252941799E1
7.035547430E-1,-5.228317380E-1,1.667797327E0,1.033639526E1
7.231845860E-1,-3.930211067E-1,1.950150490E0,1.041296577E1
7.429681280E-1,2.673979402E-1,2.769093990E0,9.723833084E0
7.628284400E-1,-5.898307562E-1,3.142374277E0,1.125583744E1
7.826505240E-1,-2.733799815E-1,1.959721804E0,1.137069321E1
8.026651070E-1,2.099701911E-1,8.297112584E-1,1.182592773E1
8.222948990E-1,5.264210105E-1,2.065006018E0,1.280758286E1
8.423094300E-1,2.288136721E0,2.088934183E0,1.239063358E1
8.619392220E-1,1.910070658E0,1.701296926E0,1.044646549E1
8.817612530E-1,5.114658475E-1,1.873580098E0,8.076375008E0
9.017757840E-1,3.104687333E-1,2.376671076E0,6.549155712E0
9.214056280E-1,1.450050473E0,3.041875839E0,5.481358528E0
9.411892220E-1,2.556132793E0,3.521038532E0,4.925625324E0
9.610496380E-1,2.436491728E0,3.387040377E0,5.102694511E0
9.808717220E-1,1.215553880E0,2.773879766E0,4.997410297E0
1.000886305E0,5.264210105E-1,2.529811859E0,5.050052166E0
1.020516097E0,1.220339537E0,3.118446112E0,5.916851997E0
1.040530628E0,1.905285001E0,3.544966698E0,6.089135647E0
1.060160472E0,1.497906923E0,3.980460405E0,5.993422508E0
1.079982451E0,5.264210105E-1,4.612763882E0,5.581857204E0
1.099804534E0,6.173482537E-1,5.306682587E0,5.274977684E0
1.119626618E0,8.518448472E-1,5.632704735E0,6.122634888E0
1.139641149E0,-8.865407705E-1,5.733202934E0,6.994220734E0
1.159270993E0,-1.825125456E0,6.499504566E0,7.467999458E0
1.179093024E0,-1.298106313E0,5.723631859E0,8.349156380E0
1.198915159E0,-1.441675663E0,5.651846886E0,8.957531929E0
1.218737190E0,-1.758126378E0,6.096911907E0,8.900103569E0
1.238751826E0,-1.489532113E0,6.360122681E0,8.842676163E0
1.258381565E0,-1.197607756E0,6.614359856E0,9.000602722E0
1.278203649E0,-1.135394335E0,6.355337143E0,9.115457535E0
1.298025732E0,-2.059622049E0,6.542575359E0,9.652048111E0
1.317809378E0,-1.963909149E0,6.710072994E0,1.038425159E1
1.337862347E0,-1.068395257E0,6.297909260E0,1.148076344E1
1.357492138E0,-6.281159520E-1,5.857629776E0,1.255813122E1
1.377314222E0,-4.408775866E-1,5.421537876E0,1.271127224E1
1.397136305E0,-8.434699774E-1,5.378467083E0,1.164347458E1
1.416958440E0,-7.860422134E-1,5.460421085E0,1.016889763E1
1.436973024E0,-1.776670814E-1,5.105685234E0,9.306883812E0
1.456602763E0,1.573280841E-1,4.646263599E0,8.727820396E0
1.476424847E0,2.865405083E-1,4.267599106E0,7.865806103E0
1.496246930E0,4.971089065E-1,4.052245140E0,7.343572617E0
1.516069013E0,5.407779217E-1,3.951746702E0,6.965506554E0
1.536083649E0,-1.202393398E-1,4.090530396E0,7.228717327E0
1.555713440E0,-6.759724021E-1,4.023531437E0,8.162516594E0
1.575535524E0,-3.116651475E-1,3.808177233E0,8.866603851E0
1.595357555E0,-2.350948304E-1,3.903890133E0,9.043673515E0
1.615179638E0,-2.685943544E-1,4.061816216E0,8.535796165E0
1.635194274E0,-1.537388563E-1,4.526622295E0,7.798807144E0
1.654824013E0,-1.106680483E-1,5.120042324E0,7.286144733E0
1.674646097E0,1.429711580E-1,5.373681545E0,7.003791809E0
1.694468180E0,2.530409992E-1,5.344967365E0,7.147361279E0
1.714290263E0,5.599204898E-1,5.273182869E0,7.290930748E0
1.734304847E0,1.780858278E0,5.230112076E0,7.329215527E0
1.753934638E0,2.973082066E0,5.177470207E0,7.736593723E0
1.773679899E0,3.422932863E0,5.282754421E0,8.679964066E0
1.793578649E0,3.643670797E0,5.081757069E0,9.139386177E0
1.813400732E0,3.906881094E0,4.421338081E0,8.809176445E0
1.833415420E0,3.677170277E0,4.085744858E0,8.234300613E0
1.853045159E0,2.662015200E0,4.114458561E0,7.439285755E0
1.873059743E0,1.344766378E0,4.133601189E0,7.257431030E0
1.892689534E0,7.417750359E-1,3.516252756E0,8.478368759E0
1.912511565E0,9.762716293E-1,2.635095835E0,1.049910736E1
1.932333649E0,1.464407444E0,2.352742910E0,1.172542953E1
1.952155732E0,1.790429592E0,2.931805849E0,1.161954689E1
1.972170315E0,2.077568293E0,3.841676712E0,1.045603657E1
1.991800055E0,2.532204628E0,4.372883320E0,9.211171150E0
2.011622138E0,3.087937593E0,4.674977303E0,8.598608017E0
2.031444170E0,3.327219963E0,4.761118889E0,8.320442200E0
2.051266253E0,3.135794163E0,4.607978344E0,7.554739475E0
2.071280836E0,2.666800737E0,4.488337040E0,6.597012043E0
2.090910628E0,2.225923300E0,4.502694130E0,6.060421467E0
2.110732711E0,1.752144337E0,4.823332310E0,5.955137253E0
2.130554743E0,1.028913736E0,5.416752338E0,6.294918060E0
2.150376826E0,7.178468108E-1,5.972485542E0,7.472784996E0
2.170391461E0,1.330409408E0,6.474977970E0,9.067601204E0
2.190021201E0,1.651645780E0,6.441478729E0,1.076291656E1
2.209843284E0,7.944171429E-1,6.364908218E0,1.144726372E1
2.229665368E0,4.187439568E-3,6.412764549E0,1.071506023E1
2.249487451E0,-3.409772366E-2,6.072983742E0,9.728618622E0
2.269502034E0,-9.152546525E-2,5.766702652E0,9.565308571E0
2.289131826E0,-3.978067636E-1,5.584847927E0,9.436096191E0
2.308953909E0,-5.659025311E-1,5.273182869E0,8.459226608E0
2.328775940E0,-1.489532113E0,5.416752338E0,7.683951855E0
2.348559586E0,-2.691925526E0,5.742774487E0,7.549953461E0
2.368612607E0,-3.093919754E0,5.690132141E0,8.301300049E0
2.388242347E0,-2.739781857E0,5.431109428E0,9.924830437E0
2.408064430E0,-1.887338877E0,5.215754986E0,1.194556904E1
2.427886513E0,-9.678967595E-1,4.694119930E0,1.311386490E1
2.447708545E0,-1.968096644E-1,4.531407833E0,1.267777252E1
2.467723180E0,5.312066078E-1,4.612763882E0,1.126062298E1
2.487352972E0,1.004985452E0,4.574478626E0,9.589237213E0
2.507175107E0,6.412764788E-1,4.171886444E0,7.956733704E0
2.526997190E0,9.032905847E-2,4.224528313E0,6.898507595E0
2.546819222E0,3.774677813E-1,4.421338081E0,6.318846226E0
2.566833857E0,6.843472719E-1,4.593621254E0,5.921638012E0
2.586463597E0,6.317051649E-1,4.459623337E0,5.734997749E0
2.606478180E0,5.312066078E-1,4.459623337E0,5.605785370E0
2.626107972E0,7.657032609E-1,4.880760193E0,5.457430363E0
2.645929951E0,1.531406522E0,5.359324455E0,5.255835056E0
2.665752034E0,1.608574986E0,5.737988472E0,4.944767952E0
2.685574118E0,1.517049551E0,5.704489231E0,5.140979290E0
2.705588649E0,1.536192179E0,5.575276852E0,5.639284611E0
2.725218493E0,2.063211441E0,5.498706341E0,6.668796539E0
2.745040524E0,2.206780672E0,5.642275810E0,7.674380302E0
2.764862555E0,2.134995937E0,5.637490273E0,8.038089752E0
2.784646201E0,1.924427629E0,5.594419479E0,8.066802979E0
2.804699222E0,1.378265858E0,5.546562672E0,7.774878979E0
2.824329013E0,1.335195065E0,5.014758110E0,7.664809227E0
2.844343597E0,1.733001828E0,4.033102512E0,7.865806103E0
2.863973388E0,1.795215130E0,3.602394581E0,7.870592117E0
2.883795420E0,1.646860242E0,3.357728481E0,8.272585869E0
2.903810003E0,2.101496458E0,3.812962770E0,9.695118904E0
2.923570003E0,3.274577856E0,4.234099865E0,1.057089233E1
2.943261253E0,4.213162422E0,3.597608805E0,1.009232807E1
2.963083388E0,4.232305050E0,3.333800077E0,9.096315384E0
2.982905524E0,3.073580742E0,3.554538012E0,7.947162151E0
3.002920315E0,1.704287887E0,3.784249067E0,7.219145775E0
3.022550159E0,8.279166222E-1,4.047459602E0,7.496713161E0
3.042564690E0,5.886343718E-1,4.171886444E0,8.790034294E0
3.062324690E0,1.115055323E0,4.052245140E0,9.632905960E0
3.082015993E0,1.776072621E0,3.856033802E0,9.598808289E0
3.102030836E0,1.857428551E0,4.023531437E0,9.091529846E0
3.121660576E0,1.570289850E0,4.392025948E0,8.377870560E0
3.141482711E0,1.057627559E0,4.832903385E0,7.578667641E0
3.161304847E0,3.343969584E-1,5.373681545E0,7.118647575E0
3.181126878E0,-1.776670814E-1,5.972485542E0,7.789236069E0
3.201141618E0,1.716850251E-1,6.585646152E0,9.091529846E0
3.220771461E0,1.239482164E0,6.576074600E0,1.008275604E1
3.240785993E0,2.134995937E0,6.312266350E0,1.054696369E1
3.260415784E0,2.072782516E0,6.159125328E0,1.079641533E1
3.280237815E0,1.196411371E0,6.015556335E0,1.060917759E1
3.300252399E0,5.934200287E-1,5.824130535E0,1.033160973E1
3.319882190E0,-3.643072546E-1,6.015556335E0,1.014496994E1
3.339704222E0,-1.030110121E0,6.278766632E0,1.037946606E1
3.359526305E0,-1.183250785E0,6.082555294E0,1.067677498E1
3.379348336E0,-1.274178028E0,5.881557941E0,1.126540947E1
3.399362920E0,-6.664010882E-1,5.335396290E0,1.201256752E1
3.418992711E0,2.099701911E-1,4.938187599E0,1.215613747E1
3.439007243E0,1.191625714E0,4.890331268E0,1.127498055E1
3.458637086E0,1.651645780E0,4.976472855E0,1.015454102E1
3.478459065E0,1.565504193E0,4.818546772E0,9.388239861E0
3.498281149E0,1.344766378E0,4.382454872E0,8.564510345E0
3.518103180E0,1.249053478E0,4.052245140E0,7.549953461E0
3.538117763E0,1.306481123E0,4.023531437E0,6.731009960E0
3.557747607E0,1.210768223E0,4.258028030E0,6.089135647E0
3.577569586E0,1.043270707E0,4.387240410E0,5.567500114E0
3.597391722E0,7.704889178E-1,4.224528313E0,5.126622677E0
3.617213753E0,9.762716293E-1,4.550550461E0,5.011766911E0
3.637228388E0,1.038485050E0,5.009972572E0,4.676771641E0
3.656858128E0,1.445264935E0,5.086542606E0,4.485345840E0
3.676680211E0,2.010569334E0,5.321039200E0,5.241477966E0
3.696502295E0,2.364706993E0,5.450251579E0,6.299703598E0
3.716324326E0,2.776870728E0,5.311468124E0,7.420143127E0
3.736338961E0,3.245863914E0,5.244469166E0,8.516654015E0
3.755968753E0,3.648456335E0,5.258825779E0,9.584450722E0
3.775790836E0,3.949951887E0,4.909473896E0,9.786046028E0
3.795612868E0,4.141377926E0,4.334598064E0,8.876175880E0
3.815434951E0,3.653241873E0,4.454837322E0,7.491927624E0
3.835449586E0,2.556132793E0,5.201398373E0,6.668796539E0
3.855079326E0,1.081555843E0,5.848058701E0,7.391428947E0
3.874901409E0,2.195414752E-1,5.560919762E0,9.077172279E0
3.894723493E0,1.000199914E0,4.291527271E0,1.072941685E1
3.914545524E0,1.838286042E0,3.454039574E0,1.122712421E1
3.934560159E0,1.608574986E0,3.607180119E0,1.047996521E1
3.954320159E0,6.412764788E-1,4.392025948E0,9.369096756E0
3.974011409E0,9.511470050E-2,5.158327579E0,8.085946083E0
3.993833597E0,2.769692242E-1,5.527420521E0,7.051648140E0
4.013655784E0,7.513462901E-1,5.541777134E0,6.635297298E0
4.033670524E0,7.992027402E-1,5.484349728E0,6.314060688E0
4.053300368E0,5.066801906E-1,5.757131100E0,6.060421467E0
4.073122399E0,3.583251834E-1,6.173482418E0,5.787639618E0
4.092944534E0,7.597211748E-2,6.355337143E0,5.394618511E0
4.112766565E0,-8.386843204E-1,6.590431690E0,5.184050083E0
4.132781253E0,-2.212762833E0,7.059424877E0,5.428118229E0
4.152541253E0,-2.327618122E0,7.250850677E0,6.783652306E0
4.172155368E0,-1.159322619E0,7.112067223E0,8.579465866E0
4.192054378E0,-1.920240223E-1,7.193423271E0,9.738189697E0
4.211876618E0,7.322037220E-1,7.269993305E0,9.905687332E0
4.231891565E0,1.675574064E0,7.313064098E0,1.025982571E1
4.251521305E0,1.618146300E0,7.442276478E0,1.097348499E1
4.271535993E0,1.440479279E0,7.351349354E0,1.118405342E1
4.291165836E0,8.039883971E-1,7.456633568E0,1.034118080E1
4.310987920E0,1.316052437E0,6.925426960E0,9.282955170E0
4.330810003E0,2.096710920E0,6.489335060E0,8.770891190E0
4.350632086E0,1.330409408E0,7.049853802E0,8.598608017E0
4.370646774E0,6.412764788E-1,7.179066181E0,8.516654015E0
4.390276513E0,5.407779217E-1,6.619145870E0,8.531010628E0
4.410098597E0,4.109672904E-1,5.757131100E0,8.502297401E0
4.429920680E0,3.296113312E-1,5.009972572E0,8.373085022E0
4.449742763E0,6.556333899E-1,4.938187599E0,8.219944000E0
4.469757399E0,1.057627559E0,5.532206059E0,8.449654579E0
4.489387138E0,9.236295223E-1,5.728417397E0,8.909674644E0
4.509209274E0,6.173482537E-1,5.057828903E0,9.134600639E0
4.529031357E0,7.513462901E-1,4.085744858E0,8.880961418E0
4.548853388E0,1.119840980E0,3.583251953E0,8.052446365E0
4.568868024E0,1.014556766E0,3.975674868E0,7.032505512E0
4.588497815E0,4.157529473E-1,4.852046013E0,6.098706722E0
4.608319847E0,-1.441675574E-1,5.469992638E0,5.064409256E0
4.628141930E0,-2.829512656E-1,5.637490273E0,4.240679741E0
4.647964013E0,5.682953820E-2,5.737988472E0,4.058825493E0
4.667978649E0,5.455635786E-1,5.881557941E0,4.355535507E0
4.687608388E0,1.249053478E0,5.790630817E0,4.805984497E0
4.707622972E0,2.087139606E0,5.450251579E0,5.222335339E0
4.727252763E0,2.757728100E0,5.153541565E0,6.452844620E0
4.747036409E0,2.930011272E0,5.053043365E0,8.478368759E0
4.767089326E0,2.738585472E0,5.043471813E0,9.628120422E0
4.786719065E0,2.891726255E0,5.153541565E0,9.230313301E0
4.806541149E0,3.001796007E0,5.426323414E0,8.420941353E0
4.826363232E0,2.388635159E0,6.039484501E0,7.822735310E0
4.846185263E0,1.378265858E0,6.619145870E0,7.717451096E0
4.866199847E0,4.875376225E-1,6.748358250E0,8.416155815E0
4.885829638E0,8.709874153E-1,5.714060307E0,9.436096191E0
4.905613284E0,1.771286964E0,4.569693089E0,9.943972588E0
4.925473753E0,2.034497499E0,4.325026989E0,9.685547829E0
4.945295784E0,2.302493572E0,4.162314892E0,8.919246674E0
4.965310420E0,1.733001828E0,4.445266247E0,8.239086151E0
4.984940211E0,8.279166222E-1,5.076971531E0,7.722237110E0
5.004954847E0,6.556333899E-1,5.335396290E0,7.391428947E0
5.024584586E0,8.279166222E-1,5.287539959E0,7.310073376E0
5.044368232E0,1.282552958E0,5.115256786E0,7.458428383E0
5.064228649E0,1.656431437E0,4.966901779E0,7.434499741E0
5.084050680E0,1.756929994E0,4.966901779E0,7.281359196E0
5.104065368E0,1.670788407E0,4.971687317E0,6.922435760E0
5.123695159E0,1.406979680E0,4.947759151E0,6.007779598E0
5.143517190E0,6.412764788E-1,5.143970490E0,5.040481091E0
5.163300836E0,-7.716853172E-2,5.575276852E0,4.939982414E0
5.183161253E0,-5.982056609E-4,6.029912949E0,5.691926956E0
5.203175888E0,7.369893789E-1,5.977271080E0,6.223133564E0
5.222805680E0,8.087740541E-1,5.814558983E0,7.660023689E0
5.242589326E0,4.779663086E-1,5.747560024E0,1.071984577E1
5.262449743E0,1.067198873E0,5.239683151E0,1.306600761E1
5.282233388E0,1.689931035E0,4.780261517E0,1.320000648E1
5.302286461E0,1.823929071E0,4.521836758E0,1.248156071E1
5.321916253E0,1.666002750E0,4.435695171E0,1.176371479E1
5.341738336E0,1.000199914E0,4.229313850E0,1.100219822E1
5.361560420E0,4.013960063E-1,3.836891174E0,1.143769264E1
5.381382503E0,5.886343718E-1,3.352942705E0,1.234756279E1
5.401397086E0,1.009771109E0,2.773879766E0,1.223270798E1
5.421026878E0,4.540380836E-1,2.965305567E0,1.111705399E1
5.441041461E0,3.439682424E-1,3.482753277E0,9.757332802E0
5.460671305E0,3.918247223E-1,3.683750391E0,9.440881729E0
5.480493284E0,7.704889178E-1,3.147160053E0,9.709476471E0
5.500507868E0,1.043270707E0,2.654238462E0,9.388239861E0
5.520137607E0,6.173482537E-1,2.687737942E0,8.224729538E0
5.539959690E0,5.359922647E-1,2.778665304E0,7.353144169E0
5.559781722E0,2.961117923E-1,2.893520832E0,7.066005230E0
5.579603805E0,5.204389244E-2,3.056232691E0,7.142575741E0
5.599618440E0,-2.111666054E-1,3.290729284E0,7.319644451E0
5.619248180E0,-2.111666054E-1,3.309871912E0,7.736593723E0
5.639262711E0,5.886343718E-1,3.242872953E0,7.851449490E0
5.658892555E0,1.685145378E0,3.722035646E0,7.578667641E0
5.678714586E0,2.302493572E0,4.119244099E0,7.080362320E0
5.698729065E0,1.531406522E0,4.305884361E0,7.013363361E0
5.718358909E0,6.161518395E-2,4.579264164E0,7.444071293E0
5.738142451E0,-7.238288224E-2,4.440480709E0,7.588238716E0
5.758002972E0,1.565504193E0,3.640679598E0,8.085946083E0
5.777825003E0,3.068794966E0,3.425325632E0,9.397810936E0
5.797839586E0,3.245863914E0,3.889533281E0,1.090170002E1
5.817469326E0,3.662813187E0,3.923032761E0,1.134197903E1
5.837483909E0,3.734597921E0,3.803391695E0,1.067677498E1
5.857113701E0,3.064009428E0,3.927818298E0,9.896116257E0
5.876935732E0,2.379063845E0,3.793820381E0,9.886545181E0
5.896719326E0,1.914856315E0,3.554538012E0,1.036989498E1
5.916579795E0,1.502692580E0,3.190230846E0,1.082991505E1
5.936594430E0,1.445264935E0,2.639881611E0,1.089212894E1
5.956224170E0,1.234696507E0,2.491526604E0,1.021675491E1
5.976046253E0,1.287338614E0,2.850450039E0,8.986245155E0
5.995868336E0,1.148554921E0,3.578466177E0,7.477570534E0
6.015690420E0,9.044869542E-1,4.210171223E0,6.850651264E0
6.035705055E0,8.135597110E-1,4.377668858E0,7.655237675E0
6.055334795E0,1.368694544E0,4.066602230E0,8.430512428E0
6.075156878E0,2.067996979E0,3.731606960E0,8.742177963E0
6.094978961E0,2.326421738E0,3.803391695E0,8.665607452E0
6.114800993E0,2.225923300E0,3.956532240E0,8.253443718E0
6.134815628E0,2.029711723E0,3.942175388E0,7.683951855E0
6.154445420E0,1.613360643E0,3.946960926E0,7.066005230E0
6.174267503E0,9.523434043E-1,4.224528313E0,6.855436802E0
6.194089586E0,5.407779217E-1,4.593621254E0,6.922435760E0
6.213911618E0,5.359922647E-1,4.808975220E0,7.085147858E0
6.233926253E0,5.647061467E-1,4.842474937E0,7.621738434E0
6.253556045E0,4.588237405E-1,4.837689400E0,8.263014793E0
6.273378128E0,3.822534084E-1,4.880760193E0,8.272585869E0
6.293200211E0,1.333998591E-1,5.057828903E0,7.956733704E0
6.312983805E0,-4.360919297E-1,5.301896572E0,8.334799767E0
6.333036826E0,-4.600201547E-1,5.053043365E0,9.163313866E0
6.352666618E0,8.973085321E-3,4.320241451E0,1.009232807E1
6.372488649E0,1.381855011E-1,4.061816216E0,1.023589706E1
6.392310732E0,-5.802594870E-2,4.315455437E0,9.996614456E0
6.412132815E0,-5.324030519E-1,4.555335999E0,9.982257843E0
6.432147451E0,-8.817551732E-1,4.435695171E0,1.007797050E1
6.451777243E0,-7.046862841E-1,3.975674868E0,1.009711361E1
6.471599378E0,-2.925225794E-1,3.712464333E0,9.675976753E0
6.491421409E0,-1.393819153E-1,3.884747505E0,9.546165466E0
6.511243493E0,-2.973082066E-1,4.090530396E0,9.714262009E0
6.531258128E0,-1.872383654E-1,3.860819340E0,9.249456406E0
6.550887920E0,1.381855011E-1,3.607180119E0,8.325227737E0
6.570710003E0,3.152543902E-1,3.870390654E0,7.578667641E0
6.590532034E0,1.333998591E-1,4.229313850E0,6.989434719E0
6.610354118E0,-4.360919297E-1,4.162314892E0,6.922435760E0
6.630368753E0,-6.759724021E-1,3.927818298E0,7.750950813E0
6.649998545E0,-4.265206456E-1,3.736392498E0,8.641678810E0
6.670013076E0,-4.121637046E-1,3.894318819E0,8.813961983E0
6.689642868E0,-7.668996453E-1,4.426123619E0,8.622536659E0
6.709464899E0,-8.913264275E-1,4.909473896E0,8.646464348E0
6.729286982E0,-3.547359705E-1,5.000401020E0,9.282955170E0
6.749109065E0,5.162515044E-1,5.024329185E0,1.022632599E1
6.769123597E0,1.316052437E0,5.091328144E0,1.069113159E1
6.788753440E0,1.589432478E0,5.019543648E0,1.093519974E1
6.808767972E0,1.785643935E0,5.033900738E0,1.143769264E1
6.828397815E0,2.245065928E0,4.914259434E0,1.224227905E1
6.848219847E0,2.848655462E0,4.430909157E0,1.242413330E1
6.868234326E0,2.863012314E0,3.688536167E0,1.128455162E1
6.887864170E0,1.814357758E0,3.631108284E0,1.005882835E1
6.907647763E0,8.709874153E-1,4.243670940E0,1.004447079E1
6.927508232E0,1.177268744E0,4.377668858E0,1.053739262E1
6.947330315E0,2.192423820E0,3.798605919E0,1.059003448E1
6.967344847E0,2.791227579E0,3.266801119E0,1.043210888E1
6.986974638E0,4.007379532E0,2.414956331E0,9.570094109E0
7.006796722E0,5.156532764E0,2.313859463E0,7.889734268E0
7.026618805E0,5.113461971E0,3.482753277E0,6.251847267E0
7.046440888E0,4.265804768E0,4.502694130E0,4.872983456E0
7.066455524E0,3.265006542E0,4.852046013E0,4.130609989E0
7.086085263E0,2.681157827E0,4.890331268E0,4.101896286E0
7.105907347E0,2.446063042E0,4.947759151E0,4.408775806E0
7.125729430E0,2.024926186E0,5.177470207E0,5.121836662E0
7.145551513E0,1.483550072E0,5.091328144E0,6.203990936E0
7.165566149E0,1.100698471E0,4.646263599E0,7.051648140E0
7.185326149E0,9.236295223E-1,4.296313286E0,7.348358154E0
7.205017451E0,3.343969584E-1,4.454837322E0,7.381857872E0
7.224839586E0,-4.552344978E-1,4.813760757E0,7.621738434E0
7.244623388E0,-6.185446382E-1,4.837689400E0,7.491927624E0
7.264676565E0,-3.212364316E-1,4.875974178E0,7.453642368E0
7.284306305E0,1.375873014E-2,5.306682587E0,7.616952896E0
7.304128388E0,1.094716340E-1,5.982056618E0,7.588238716E0
7.323950524E0,-1.872383654E-1,6.523432732E0,8.124231339E0
7.343772659E0,2.530409992E-1,6.547360897E0,9.125029564E0
7.363787347E0,1.004985452E0,6.676573277E0,9.819545746E0
7.383417190E0,1.138983607E0,7.049853802E0,9.771689415E0
7.403239274E0,6.843472719E-1,7.011568546E0,1.028375340E1
7.423061357E0,4.725824669E-2,6.326622963E0,1.176850033E1
7.442883440E0,1.573280841E-1,5.273182869E0,1.275015545E1
7.462898024E0,8.279166222E-1,4.469194412E0,1.252463150E1
7.482527868E0,1.421336651E0,4.392025948E0,1.110269737E1
7.502542451E0,1.440479279E0,5.024329185E0,9.464810371E0
7.522172243E0,1.004985452E0,5.301896572E0,8.526225090E0
7.541994326E0,7.274180651E-1,4.828117847E0,8.138587952E0
7.561777920E0,1.258624673E0,4.224528313E0,7.865806103E0
7.581638388E0,1.469193101E0,4.018745422E0,7.300501823E0
7.601653024E0,1.459621787E0,4.277170658E0,6.525227547E0
7.621282815E0,1.320838094E0,4.569693089E0,5.442475319E0
7.641297399E0,9.092726111E-1,4.598406792E0,4.374678135E0
7.660927190E0,5.066801906E-1,4.756333351E0,3.963112593E0
7.680749222E0,3.870390654E-1,5.344967365E0,4.245465755E0
7.700763805E0,7.992027402E-1,5.800201893E0,4.557130814E0
7.720393545E0,1.493121386E0,5.848058701E0,4.748556614E0
7.740215576E0,1.521835208E0,5.809773445E0,5.217549801E0
7.760037659E0,1.172483087E0,5.881557941E0,6.371488571E0
7.779859743E0,1.320838094E0,5.790630817E0,7.999804497E0
7.799874326E0,2.254637241E0,5.800201893E0,1.017846966E1
7.819504170E0,3.437289715E0,5.790630817E0,1.128933716E1
7.839518701E0,4.050450325E0,5.143970490E0,1.089212894E1
7.859148545E0,3.585644722E0,4.674977303E0,9.948758125E0
7.878970576E0,2.417349100E0,5.163113117E0,8.766105652E0
7.898985055E0,1.445264935E0,5.938985825E0,7.923233986E0
7.918614951E0,7.704889178E-1,6.474977970E0,7.621738434E0
7.938436982E0,3.439682424E-1,6.336194515E0,7.899305820E0
7.958220628E0,3.248256743E-1,5.781059742E0,8.694320679E0
7.978081045E0,8.614161611E-1,4.952544689E0,9.531808853E0
7.998095680E0,1.594218135E0,4.047459602E0,9.934401512E0
8.017725420E0,1.718644857E0,3.616751432E0,9.886545181E0
8.037740003E0,1.268195987E0,3.731606960E0,9.445667267E0
8.057369795E0,8.374879360E-1,4.128815651E0,8.646464348E0
8.077191826E0,7.992027402E-1,4.450051785E0,7.573882103E0
8.097206409E0,1.067198873E0,4.713262558E0,6.836294174E0
8.116966409E0,1.205982566E0,5.115256786E0,6.898507595E0
8.136619118E0,1.268195987E0,5.177470207E0,7.133004189E0
8.156479690E0,1.344766378E0,4.962115765E0,7.491927624E0
8.176301930E0,1.411765337E0,4.928616524E0,7.698308468E0
8.196316670E0,1.507478237E0,5.072185993E0,7.094718933E0
8.215946461E0,1.172483087E0,5.364109993E0,6.664011002E0
8.235961097E0,2.099701911E-1,5.862415314E0,7.094718933E0
8.255721097E0,-5.706881881E-1,6.245266914E0,7.602595806E0
8.275412399E0,-7.860422134E-1,6.230910301E0,7.899305820E0
8.295311618E0,-5.706881881E-1,6.049055576E0,8.105088234E0
8.315056930E0,-4.360919297E-1,6.015556335E0,8.349156380E0
8.335071670E0,-4.887340367E-1,6.068198204E0,9.034101486E0
8.354831670E0,-6.711867452E-1,5.891129494E0,9.939187050E0
8.374522868E0,-6.424728632E-1,5.848058701E0,1.008275604E1
8.394345107E0,-6.089733839E-1,6.053841114E0,9.886545181E0
8.414128961E0,-9.631111026E-1,6.412764549E0,9.479166985E0
8.434182190E0,-1.465603828E0,6.600003242E0,9.632905960E0
8.453811930E0,-1.786840320E0,6.403193474E0,1.112662506E1
8.473634065E0,-1.298106313E0,5.623133183E0,1.242413330E1
8.493456201E0,-1.776670814E-1,4.622334957E0,1.280758286E1
8.513278336E0,5.359922647E-1,4.124029636E0,1.157169056E1
8.533293076E0,2.291127741E-1,4.435695171E0,1.031725311E1
8.552922868E0,-1.044467092E0,5.115256786E0,1.022632599E1
8.572744899E0,-1.590628862E0,5.076971531E0,9.766903877E0
8.592566982E0,-7.956135273E-1,4.493122578E0,8.947959900E0
8.612389118E0,9.032905847E-2,4.224528313E0,8.258229256E0
8.632403753E0,6.173482537E-1,4.066602230E0,7.477570534E0
8.652033545E0,1.110269666E0,3.985246181E0,6.419344902E0
8.671855680E0,1.325623751E0,3.985246181E0,5.428118229E0
8.691677711E0,9.523434043E-1,4.100101471E0,4.786841869E0
8.711499795E0,4.923232496E-1,4.372883320E0,4.283750534E0
8.731514378E0,3.056831062E-1,4.646263599E0,3.872185230E0
8.751144170E0,1.429711580E-1,5.029115200E0,3.752544165E0
8.770966305E0,-1.202393398E-1,5.670989513E0,4.034897327E0
8.790788388E0,-4.121637046E-1,6.039484501E0,4.480560303E0
8.810610472E0,-5.371887088E-1,5.996413708E0,5.437689304E0
8.830625107E0,-3.738785386E-1,5.871986866E0,6.438487530E0
8.850254899E0,8.075776696E-2,5.967699528E0,7.817949772E0
8.870076982E0,7.800601721E-1,6.360122681E0,9.302098274E0
8.889899065E0,2.082353830E0,6.552146435E0,9.958329201E0
8.909682659E0,3.566502094E0,6.312266350E0,9.948758125E0
8.929735680E0,4.036093712E0,6.039484501E0,9.742975235E0
8.949365472E0,3.686741590E0,5.962913990E0,8.933603287E0
8.969187607E0,3.279363394E0,6.245266914E0,7.837092400E0
8.989009638E0,2.628515720E0,6.547360897E0,7.037291527E0
9.008831722E0,1.497906923E0,6.772286415E0,6.908079147E0
9.028846357E0,4.187439568E-3,6.489335060E0,7.147361279E0
9.048476149E0,-5.030909777E-1,5.541777134E0,7.501499176E0
9.068490784E0,-3.020938635E-1,4.674977303E0,7.990232944E0
9.088120576E0,-5.324030519E-1,4.560121536E0,8.646464348E0
9.107942607E0,-9.104689956E-1,5.067399979E0,9.215956688E0
9.127726253E0,-4.504488707E-1,5.551348686E0,9.517452240E0
9.147586722E0,6.269195080E-1,5.608776093E0,9.474381447E0
9.167601305E0,1.618146300E0,5.532206059E0,9.503094673E0
9.187231097E0,2.154138565E0,5.163113117E0,9.058030128E0
9.207053180E0,2.063211441E0,4.655834675E0,8.028517723E0
9.226875263E0,1.335195065E0,4.569693089E0,7.520641804E0
9.246697347E0,5.790630579E-1,4.828117847E0,7.348358154E0
9.266711982E0,1.333998591E-1,5.076971531E0,7.066005230E0
9.286341774E0,-1.920240223E-1,5.536991596E0,6.750152588E0
9.306163857E0,-3.738785386E-1,6.211767673E0,6.673582554E0
9.325985940E0,-2.877369225E-1,6.872784615E0,6.649653912E0
9.345807972E0,2.338984162E-1,7.212565422E0,6.687939167E0
9.365822607E0,9.523434043E-1,7.293921471E0,7.051648140E0
9.385452399E0,1.517049551E0,7.016354084E0,7.837092400E0
9.405274482E0,1.962712765E0,6.633502483E0,8.636893272E0
9.425096565E0,2.206780672E0,6.576074600E0,8.928817749E0
9.444918649E0,1.440479279E0,6.786643028E0,9.110671997E0
9.464933232E0,-1.250249892E-1,6.896713257E0,1.043210888E1
9.484563024E0,-7.334001660E-1,6.494120598E0,1.245763302E1
9.504346670E0,1.429711580E-1,6.187839508E0,1.309472179E1
9.524207138E0,2.130210400E0,6.111268997E0,1.119841003E1
9.544029222E0,2.992224693E0,6.738786697E0,8.919246674E0
9.564043857E0,2.326421738E0,7.365706444E0,7.913662910E0
9.583673649E0,2.230708838E0,6.662216663E0,7.559525013E0
9.603457295E0,2.915654421E0,5.325825214E0,6.745367050E0
9.623317763E0,2.757728100E0,4.923830986E0,6.390631199E0
9.643139847E0,1.809572101E0,5.277968407E0,6.855436802E0
9.663154482E0,1.311266780E0,5.426323414E0,7.314858913E0
9.682784222E0,1.517049551E0,5.105685234E0,7.861020565E0
9.702606357E0,1.871785522E0,4.358526230E0,7.257431030E0
9.722428388E0,1.565504193E0,4.627120972E0,6.084349632E0
9.742250524E0,1.790429592E0,5.196612358E0,4.920839787E0
9.762265107E0,2.000998020E0,5.316253662E0,4.868197441E0
9.781894951E0,1.599003673E0,5.273182869E0,5.476572990E0
9.801716982E0,9.188438654E-1,4.962115765E0,5.586642742E0
9.821539065E0,8.853443861E-1,4.665405750E0,5.768496990E0
9.841361149E0,8.757730722E-1,5.134399414E0,6.275775433E0
9.861375784E0,3.439682424E-1,5.493920803E0,7.496713161E0
9.881135784E0,6.269195080E-1,5.086542606E0,8.636893272E0
9.901020159E0,1.699502230E0,4.631906509E0,8.670392990E0
9.920650003E0,1.478764415E0,4.780261517E0,8.081160545E0
9.940471982E0,3.870390654E-1,5.551348686E0,7.784450054E0
9.960178961E0,-2.829512656E-1,5.584847927E0,6.936792850E0
9.980115940E0,7.322037220E-1,5.435894966E0,6.740581512E0
1.000013058E1,2.422134638E0,6.111268997E0,7.664809227E0
1.001976037E1,4.060021877E0,6.211767673E0,8.344370842E0
1.003958245E1,5.429314613E0,6.216553211E0,8.593822479E0
1.005940453E1,5.635097504E0,6.786643028E0,8.660821915E0
1.007922656E1,4.778466702E0,7.150352478E0,8.842676163E0
1.009924120E1,3.260220766E0,7.131209850E0,8.842676163E0
1.011900120E1,2.278565407E0,6.518647194E0,8.775676727E0
1.013869250E1,2.594418049E0,5.618347645E0,8.857032776E0
1.015851469E1,3.394218922E0,5.148756027E0,8.852247238E0
1.017833688E1,3.854238987E0,4.899902344E0,8.339585304E0
1.019835162E1,3.868596077E0,5.124827862E0,8.071588516E0
1.021798146E1,3.422932863E0,5.455037594E0,7.472784996E0
1.023799610E1,3.116651535E0,5.517848969E0,6.366703033E0
1.025762584E1,2.934797049E0,5.627918720E0,5.442475319E0
1.027744792E1,2.594418049E0,5.843272686E0,5.073980331E0
1.029746250E1,2.446063042E0,5.886343479E0,4.963910580E0
1.031709230E1,2.685943365E0,5.690132141E0,4.796412945E0
1.033691433E1,2.863012314E0,5.618347645E0,4.829912663E0
1.035673646E1,2.767299414E0,5.709274769E0,4.834698200E0
1.037655849E1,2.551347256E0,6.025127411E0,5.150550842E0
1.039657308E1,2.077568293E0,6.264409542E0,5.634499073E0
1.041620287E1,1.852642894E0,6.484549522E0,5.782854080E0
1.043621745E1,1.776072621E0,6.939784050E0,6.778866768E0
1.045584719E1,1.565504193E0,7.092924595E0,8.057231903E0
1.047563084E1,1.938784599E0,7.006783009E0,8.497511864E0
1.049568375E1,2.614158630E0,7.159923553E0,8.804390907E0
1.051531355E1,3.126222849E0,7.562515736E0,9.426525116E0
1.053513558E1,3.504288673E0,7.940581799E0,9.762118340E0
1.055495766E1,3.585644722E0,7.537989616E0,9.029315948E0
1.057477969E1,3.178864956E0,7.399205685E0,8.196015358E0
1.059479427E1,2.345564365E0,7.423133850E0,8.157731056E0
1.061442407E1,1.579861164E0,7.097710133E0,8.957531929E0
1.063443865E1,1.402194023E0,6.417550564E0,1.001097202E1
1.065406839E1,1.613360643E0,5.546562672E0,1.047517967E1
1.067389042E1,1.666002750E0,4.981258392E0,9.786046028E0
1.069367407E1,1.344766378E0,5.153541565E0,8.833105087E0
1.071353448E1,6.747759581E-1,5.785845280E0,8.109873772E0
1.073354912E1,8.554340899E-2,5.991627693E0,6.501298904E0
1.075317891E1,-3.786641955E-1,6.058627129E0,4.892126083E0
1.077300094E1,-1.298106313E-1,5.977271080E0,4.437489510E0
1.079282302E1,4.205385745E-1,5.517848969E0,5.510072231E0
1.081264506E1,1.028913736E0,5.014758110E0,7.099504948E0
1.083265969E1,1.210768223E0,4.469194412E0,8.018946648E0
1.085228948E1,9.379864931E-1,4.205385685E0,8.598608017E0
1.087211151E1,7.848458290E-1,4.459623337E0,8.473583221E0
1.089193360E1,7.369893789E-1,4.866403103E0,7.578667641E0
1.091175568E1,5.216353536E-1,5.134399414E0,6.649653912E0
1.093177026E1,3.678964674E-1,5.143970490E0,6.175277233E0
1.095140006E1,1.716850251E-1,5.187041283E0,6.041278839E0
1.097122209E1,2.333002165E-2,5.263611794E0,6.184848309E0
1.099104417E1,2.195414752E-1,5.364109993E0,6.845865726E0
1.101086620E1,7.369893789E-1,5.450251579E0,7.841877937E0
1.103088084E1,1.526620865E0,5.575276852E0,8.809176445E0
1.105051058E1,2.024926186E0,5.522634506E0,9.723833084E0
1.107033266E1,2.268994093E0,5.258825779E0,1.017368412E1
1.109015469E1,2.633301258E0,5.076971531E0,9.522237778E0
1.110997677E1,3.178864956E0,5.508277893E0,8.651249886E0
1.112999141E1,3.863810301E0,6.662216663E0,8.933603287E0
1.114962115E1,3.978665829E0,7.035496712E0,1.040818024E1
1.116944323E1,3.753740549E0,6.350551128E0,1.161954689E1
1.118926526E1,3.930809498E0,5.455037594E0,1.161476135E1
1.120908735E1,4.366302967E0,5.053043365E0,1.070548820E1
1.122910198E1,4.476373196E0,5.029115200E0,9.623334885E0
1.124873177E1,4.284946918E0,4.952544689E0,8.459226608E0
1.126855381E1,3.916452408E0,4.938187599E0,6.855436802E0
1.128837589E1,2.997010469E0,5.148756027E0,6.017350674E0
1.130819792E1,2.355135679E0,5.234897614E0,6.366703033E0
1.132821256E1,2.316850424E0,5.143970490E0,7.080362320E0
1.134784230E1,2.599203587E0,4.919044971E0,7.353144169E0
1.136766438E1,2.796013355E0,4.708476543E0,7.113861561E0
1.138748646E1,2.618944407E0,4.708476543E0,6.735795975E0
1.140730849E1,2.115853310E0,4.842474937E0,6.328417778E0
1.142732313E1,1.570289850E0,5.024329185E0,5.744568825E0
1.144708313E1,1.258624673E0,5.378467083E0,5.754140377E0
1.146696750E1,1.095912814E0,5.584847927E0,6.203990936E0
1.148659730E1,8.039883971E-1,5.699703693E0,6.597012043E0
1.150638089E1,3.583251834E-1,5.943771362E0,7.003791809E0
1.152624125E1,8.554340899E-2,6.130411625E0,6.941578388E0
1.154606334E1,3.774677813E-1,6.436692715E0,6.199205399E0
1.156607787E1,1.052842021E0,6.628716946E0,5.758925915E0
1.158583787E1,1.325623751E0,6.853642464E0,5.964708805E0
1.160552912E1,1.138983607E0,7.384849072E0,6.774080753E0
1.162531287E1,1.550549030E0,7.739584923E0,7.267002583E0
1.164517339E1,1.895713687E0,7.921439171E0,7.573882103E0
1.166518818E1,1.430907965E0,8.663812637E0,7.693522930E0
1.168494818E1,6.077769399E-1,9.429515839E0,8.243872643E0
1.170460078E1,-1.106680483E-1,9.099306107E0,8.890532494E0
1.172446146E1,1.860419661E-1,7.686942577E0,9.680762291E0
1.174428365E1,4.636093974E-1,6.724429607E0,1.036032391E1
1.176429860E1,4.731806815E-1,6.647859573E0,1.052782154E1
1.178392828E1,3.152543902E-1,6.796214581E0,9.742975235E0
1.180375047E1,1.429711580E-1,6.513861656E0,8.938388824E0
1.182357256E1,-1.489532143E-1,5.881557941E0,8.358727455E0
1.184339469E1,-2.494517565E-1,5.282754421E0,7.875377655E0
1.186340943E1,-8.195417374E-2,5.000401020E0,7.367500782E0
1.188303922E1,3.918247223E-1,4.837689400E0,6.774080753E0
1.190286130E1,6.843472719E-1,4.928616524E0,5.912066460E0
1.192268334E1,4.061816335E-1,5.340181828E0,5.270191669E0
1.194250542E1,-1.441675574E-1,5.675775528E0,5.174479008E0
1.196252006E1,-2.638086975E-1,5.804987907E0,5.337191105E0
1.198214985E1,1.190429255E-1,5.838487148E0,5.998208046E0
1.200197188E1,2.243271172E-1,5.938985825E0,6.702296257E0
1.202175552E1,-6.281159073E-2,6.096911907E0,7.276573658E0
1.204161594E1,2.811566554E-2,6.087340832E0,7.650452137E0
1.206163058E1,2.913261652E-1,6.159125328E0,8.310871124E0
1.208126037E1,6.364908218E-1,6.139982700E0,9.125029564E0
1.210108245E1,1.263410330E0,6.020341873E0,9.742975235E0
1.212090453E1,1.929213285E0,5.948556900E0,9.829116821E0
1.214072662E1,2.398206472E0,5.852844238E0,9.354740143E0
1.216074120E1,2.580060959E0,5.603990555E0,8.957531929E0
1.218037094E1,2.158924341E0,5.637490273E0,8.444869041E0
1.220038558E1,1.435693622E0,5.929414749E0,7.908876896E0
1.222001532E1,6.125625968E-1,5.977271080E0,8.148159027E0
1.223979896E1,9.032905847E-2,5.455037594E0,8.885746956E0
1.225962089E1,5.694918036E-1,4.636692047E0,9.671191216E0
1.227948136E1,1.100698471E0,4.200600147E0,9.555737495E0
1.229949594E1,1.110269666E0,4.291527271E0,8.234300613E0
1.231912573E1,6.891329288E-1,4.636692047E0,6.707081795E0
1.233894782E1,4.247260094E-2,4.909473896E0,6.017350674E0
1.235876990E1,-2.111666054E-1,4.761118889E0,5.926423550E0
1.237859193E1,3.726821244E-1,4.689334393E0,6.491727829E0
1.239856797E1,7.800601721E-1,4.895116806E0,6.754938126E0
1.241823630E1,1.153340459E0,5.163113117E0,6.501298904E0
1.243805834E1,1.411765337E0,5.306682587E0,5.754140377E0
1.245788042E1,1.311266780E0,5.421537876E0,5.246263504E0
1.247770245E1,5.359922647E-1,5.532206059E0,5.030909538E0
1.249771709E1,-1.010967568E-1,5.589633465E0,5.394618511E0
1.251734683E1,-2.303091735E-1,5.857629776E0,5.624927998E0
1.253716891E1,-3.260220885E-1,6.407979012E0,5.787639618E0
1.255699099E1,-8.243274093E-1,6.968497753E0,6.218348026E0
1.257677459E1,-1.566700578E0,7.049853802E0,7.305287361E0
1.259682761E1,-2.576471806E0,7.226922512E0,9.029315948E0
1.261645740E1,-2.854637384E0,7.591229916E0,1.097348499E1
1.263647193E1,-1.882553220E0,7.605587006E0,1.224227905E1
1.265623193E1,-1.020538807E0,7.260422230E0,1.253898907E1
1.267592318E1,-8.578268886E-1,6.887141705E0,1.170150089E1
1.269593792E1,-1.331605792E0,6.896713257E0,1.079162979E1
1.271556771E1,-2.289333105E0,7.423133850E0,1.033160973E1
1.273535136E1,-2.298904419E0,7.250850677E0,1.040339470E1
1.275521183E1,-1.532602906E0,6.801000118E0,1.069591713E1
1.277503391E1,-3.020938635E-1,6.417550564E0,1.045125103E1
1.279504860E1,6.125625968E-1,6.355337143E0,9.177671432E0
1.281480860E1,5.790630579E-1,6.695715904E0,7.559525013E0
1.283469308E1,3.200400174E-1,6.484549522E0,6.506084919E0
1.285432282E1,1.238285750E-1,5.972485542E0,6.390631199E0
1.287414485E1,-6.759724021E-2,5.120042324E0,6.237490654E0
1.289415938E1,-3.978067636E-1,4.219742775E0,5.701498032E0
1.291391938E1,-1.384247899E0,3.568894863E0,5.442475319E0
1.293380375E1,-1.681556106E0,3.396611691E0,5.782854080E0
1.295343360E1,-1.245464206E0,3.822534084E0,6.553941250E0
1.297325552E1,-1.092323542E0,4.095315933E0,7.094718933E0
1.299327006E1,-1.226321578E0,4.181457520E0,7.089933395E0
1.301289980E1,-9.343972206E-1,4.526622295E0,6.793223381E0
1.303291422E1,-5.324030295E-2,5.143970490E0,6.597012043E0
1.305254407E1,9.762716293E-1,5.905486107E0,6.515655994E0
1.307236604E1,1.392622828E0,6.446264267E0,6.759724140E0
1.309218802E1,1.642074585E0,6.705287457E0,6.860222340E0
1.311201006E1,1.780858278E0,6.824928284E0,6.884150982E0
1.313202464E1,1.637288928E0,6.753143787E0,7.329215527E0
1.315165443E1,1.225125194E0,6.149554253E0,8.277371407E0
1.317147646E1,2.530409992E-1,5.096114159E0,9.996614456E0
1.319129849E1,-1.489532143E-1,4.267599106E0,1.181635666E1
1.321112058E1,1.048056364E0,3.698107481E0,1.254377460E1
1.323113511E1,2.853441000E0,3.755535126E0,1.243848991E1
1.325076490E1,3.835096598E0,4.013959885E0,1.179242802E1
1.327058693E1,3.863810301E0,4.607978344E0,1.127976608E1
1.329040901E1,3.777668715E0,5.038686275E0,1.059482002E1
1.331023104E1,4.021736622E0,5.086542606E0,9.402596474E0
1.333024568E1,3.040081263E0,5.029115200E0,8.066802979E0
1.334987542E1,1.862214208E0,4.837689400E0,7.228717327E0
1.336969750E1,1.637288928E0,4.904688358E0,6.826723099E0
1.338948110E1,1.876571178E0,5.134399414E0,6.831508636E0
1.340934151E1,2.020140409E0,5.081757069E0,7.300501823E0
1.342935615E1,1.411765337E0,4.703691006E0,7.741379261E0
1.344898589E1,1.134197950E0,4.195814610E0,7.549953461E0
1.346880797E1,1.148554921E0,3.985246181E0,6.807580471E0
1.348863006E1,5.886343718E-1,3.812962770E0,6.136991978E0
1.350845209E1,-2.925225794E-1,3.774677753E0,6.635297298E0
1.352846667E1,-8.099704385E-1,3.985246181E0,7.463213921E0
1.354809646E1,-6.185446382E-1,4.171886444E0,7.424928665E0
1.356791849E1,-4.839483798E-1,4.545764923E0,7.636095047E0
1.358774058E1,-8.147560954E-1,4.813760757E0,8.665607452E0
1.360756261E1,-1.240678549E0,4.214957237E0,9.450452805E0
1.362757724E1,-1.503889084E0,4.037888050E0,9.714262009E0
1.364720698E1,-2.083550215E0,4.396811485E0,9.297312737E0
1.366702901E1,-2.351546526E0,4.670191765E0,8.971888542E0
1.368685110E1,-1.987837434E0,5.009972572E0,8.339585304E0
1.370667313E1,-7.381857634E-1,4.660620213E0,7.947162151E0
1.372668776E1,4.396811724E-1,5.062614441E0,8.191229820E0
1.374631750E1,1.311266780E0,5.513063431E0,7.928019524E0
1.376633203E1,1.599003673E0,5.354538918E0,8.052446365E0
1.378596183E1,-7.238288224E-2,5.038686275E0,9.321240425E0
1.380578380E1,-1.202393413E0,3.549752474E0,1.109312534E1
1.382560589E1,-8.482556343E-1,2.112862349E0,1.212742329E1
1.384542792E1,-3.260220885E-1,1.648654819E0,1.252463150E1
1.386544250E1,-1.495514158E-2,1.916650891E0,1.256770229E1
1.388507230E1,-1.393819153E-1,2.740380049E0,1.182592773E1
1.390485589E1,7.118647546E-2,3.319443226E0,1.052782154E1
1.392471625E1,3.296113312E-1,3.549752474E0,9.306883812E0
1.394453834E1,5.694918036E-1,3.564109325E0,8.420941353E0
1.396455292E1,7.034898400E-1,3.745963812E0,8.109873772E0
1.398418271E1,5.647061467E-1,3.990031719E0,7.918448448E0
1.400400480E1,6.747759581E-1,4.205385685E0,7.042077065E0
1.402382688E1,5.982056856E-1,4.497908592E0,5.964708805E0
1.404364891E1,-7.238288224E-2,4.962115765E0,5.389832973E0
1.406366354E1,-2.494517565E-1,5.306682587E0,5.217549801E0
1.408329328E1,-4.845465720E-2,5.024329185E0,5.408975601E0
1.410311532E1,3.918247223E-1,4.507479668E0,5.993422508E0
1.412293740E1,5.599204898E-1,4.372883320E0,7.042077065E0
1.414275943E1,2.003988922E-1,4.473979950E0,8.627322197E0
1.416277406E1,5.162515044E-1,4.205385685E0,9.656833649E0
1.418240381E1,1.138983607E0,3.975674868E0,1.021675491E1
1.420222589E1,1.024128079E0,3.918246984E0,1.100219822E1
1.422200948E1,1.067198873E0,3.664607763E0,1.187378407E1
1.424186990E1,1.526620865E0,3.387040377E0,1.174457169E1
1.426188453E1,1.263410330E0,3.535395384E0,1.106919765E1
1.428151427E1,9.236295223E-1,3.860819340E0,1.061396313E1
1.430133641E1,6.125625968E-1,4.023531437E0,1.105005455E1
1.432115839E1,2.482553422E-1,3.851248026E0,1.185464191E1
1.434098047E1,5.934200287E-1,3.218944550E0,1.174935722E1
1.436099506E1,4.540380836E-1,3.108874798E0,1.062831974E1
1.438062485E1,1.716850251E-1,3.463610888E0,9.220742226E0
1.440044693E1,1.621137410E-1,3.846462488E0,8.033304214E0
1.442026896E1,3.104687333E-1,4.128815651E0,7.453642368E0
1.444009099E1,3.439682424E-1,4.205385685E0,7.496713161E0
1.446010563E1,5.599204898E-1,3.932604074E0,8.152944565E0
1.447973537E1,9.619147182E-1,3.635894060E0,8.564510345E0
1.449944224E1,1.354337573E0,3.669393539E0,8.349156380E0
1.451937927E1,1.402194023E0,3.860819340E0,7.736593723E0
1.453920136E1,9.523434043E-1,4.028316975E0,6.802794933E0
1.455917750E1,2.051845491E-1,4.176671982E0,6.136991978E0
1.457884578E1,-3.738785386E-1,4.426123619E0,5.897709846E0
1.459886037E1,-6.137589812E-1,4.880760193E0,6.203990936E0
1.461849011E1,-4.504488707E-1,5.301896572E0,6.774080753E0
1.463850464E1,-2.207378894E-1,5.431109428E0,7.496713161E0
1.465813448E1,4.725824669E-2,5.445466042E0,8.636893272E0
1.467795646E1,2.195414752E-1,5.143970490E0,8.991030693E0
1.469797094E1,4.253242314E-1,5.072185993E0,9.053244591E0
1.471760078E1,-2.931207791E-2,5.460421085E0,9.498309135E0
1.473738433E1,-4.839483798E-1,5.546562672E0,1.050867844E1
1.475724480E1,-2.207378894E-1,5.234897614E0,1.063310528E1
1.477706683E1,-1.872383654E-1,5.043471813E0,9.719047546E0
1.479708141E1,-7.381857634E-1,5.230112076E0,8.991030693E0
1.481671115E1,-1.255035520E0,5.776273727E0,9.072386742E0
1.483672573E1,-1.551745534E0,6.101697922E0,9.709476471E0
1.485635547E1,-8.147560954E-1,5.694917679E0,1.063789082E1
1.487617745E1,-1.250249892E-1,5.344967365E0,1.121755219E1
1.489619203E1,8.554340899E-2,5.383252621E0,1.121276665E1
1.491582183E1,2.578266263E-1,5.388038158E0,1.067198944E1
1.493560542E1,4.396811724E-1,5.244469166E0,9.628120422E0
1.495546584E1,4.540380836E-1,5.081757069E0,8.478368759E0
1.497528782E1,4.013960063E-1,4.947759151E0,7.621738434E0
1.499530245E1,1.375873014E-2,4.871188641E0,6.879364967E0
1.501493219E1,-3.308077157E-1,4.660620213E0,6.304489613E0
1.503494677E1,-2.015953064E-1,4.584050179E0,6.280561447E0
1.505470677E1,-1.010967568E-1,4.694119930E0,6.433701992E0
1.507439797E1,-9.631111473E-2,4.904688358E0,6.606583118E0
1.509441271E1,-1.154536903E-1,5.139184952E0,6.692724705E0
1.511404250E1,-4.935196638E-1,5.120042324E0,6.577869415E0
1.513386453E1,-9.296116233E-1,5.000401020E0,6.299703598E0
1.515368667E1,-9.726824164E-1,4.938187599E0,6.146563053E0
1.517350870E1,-4.073780477E-1,4.899902344E0,6.328417778E0
1.519352334E1,2.338984162E-1,4.895116806E0,7.276573658E0
1.521315318E1,8.422735929E-1,4.971687317E0,8.406583786E0
1.523316771E1,1.728216171E0,5.120042324E0,9.354740143E0
1.525279750E1,2.340778828E0,5.129613400E0,9.900901794E0
1.527261948E1,2.796013355E0,5.019543648E0,9.972686768E0
1.529263407E1,3.188436270E0,4.899902344E0,9.373882294E0
1.531239407E1,2.772084951E0,5.465207100E0,8.497511864E0
1.533227844E1,1.929213285E0,6.307480335E0,8.210372925E0
1.535203844E1,1.416550994E0,6.139982700E0,8.608179092E0
1.537172964E1,1.397408366E0,5.115256786E0,9.192028046E0
1.539155177E1,1.100698471E0,4.310669899E0,9.550951958E0
1.541137386E1,2.913261652E-1,4.162314892E0,9.407382011E0
1.543138854E1,-1.106680483E-1,4.488337040E0,8.746963501E0
1.545101834E1,-2.494517565E-1,4.828117847E0,8.162516594E0
1.547084042E1,-1.633101404E-1,5.086542606E0,7.822735310E0
1.549066245E1,4.157529473E-1,5.301896572E0,7.731808186E0
1.551044604E1,9.858429432E-1,5.383252621E0,7.736593723E0
1.553049906E1,1.119840980E0,5.277968407E0,7.616952896E0
1.555012891E1,6.747759581E-1,4.986044407E0,7.209574699E0
1.556995094E1,1.477568001E-1,4.804189682E0,6.597012043E0
1.558977302E1,-3.643072546E-1,5.000401020E0,5.902495384E0
1.560959506E1,-8.051848412E-1,5.325825214E0,5.524429321E0
1.562960969E1,-8.291130662E-1,5.556134224E0,5.341976643E0
1.564923943E1,-6.424728632E-1,5.613562107E0,5.467001438E0
1.566906151E1,-6.376872063E-1,5.364109993E0,6.017350674E0
1.568888355E1,-6.329016089E-1,4.895116806E0,7.176074982E0
1.570870563E1,-8.913264275E-1,5.167898655E0,8.540582657E0
1.572872016E1,-6.568298340E-1,5.718846321E0,9.493523598E0
1.574834995E1,4.725824669E-2,5.584847927E0,1.064267731E1
1.576817203E1,-1.154536903E-1,5.124827862E0,1.187856960E1
1.578799407E1,-1.197607756E0,4.866403103E0,1.243370438E1
1.580781610E1,-2.279761791E0,5.465207100E0,1.240499115E1
1.582783073E1,-2.298904419E0,5.455037594E0,1.227577877E1
1.584746047E1,-2.102692842E0,5.167898655E0,1.232842064E1
1.586728250E1,-1.144965649E0,4.871188641E0,1.234756279E1
1.588710459E1,-4.169493318E-1,4.995615482E0,1.209392357E1
1.590692662E1,8.973085321E-3,5.096114159E0,1.163868904E1
1.592694125E1,4.779663086E-1,4.832903385E0,1.067677498E1
1.594670125E1,4.731806815E-1,4.512265205E0,9.340383530E0
1.596635380E1,-1.250249892E-1,4.277170658E0,7.664809227E0
1.598621438E1,-9.631111026E-1,3.946960926E0,5.859424591E0
1.600603662E1,-1.188036442E0,3.616751432E0,4.796412945E0
1.602605141E1,-6.520441771E-1,3.559323788E0,5.121836662E0
1.604568115E1,-1.298106313E-1,3.755535126E0,6.530013084E0
1.606569578E1,1.525424421E-1,4.052245140E0,7.794021606E0
1.608545578E1,1.956132501E-1,4.210171223E0,8.497511864E0
1.610510839E1,2.578266263E-1,4.253242016E0,8.425726891E0
1.612504599E1,1.764706671E-1,4.426123619E0,7.736593723E0
1.614479136E1,1.429711580E-1,4.737190723E0,7.018148899E0
1.616480615E1,1.956132501E-1,4.942973614E0,6.831508636E0
1.618443594E1,5.694918036E-1,5.057828903E0,7.300501823E0
1.620425797E1,9.332008362E-1,5.177470207E0,7.621738434E0
1.622408006E1,1.191625714E0,4.981258392E0,8.004590034E0
1.624386370E1,1.287338614E0,4.866403103E0,8.842676163E0
1.626391677E1,1.756929994E0,4.550550461E0,1.028853893E1
1.628354656E1,1.924427629E0,4.291527271E0,1.139940739E1
1.630336865E1,1.579861164E0,4.104887009E0,1.099741268E1
1.632315224E1,7.369893789E-1,4.315455437E0,9.440881729E0
1.634301266E1,-2.255235314E-1,4.976472855E0,8.675178528E0
1.636302730E1,-3.212364316E-1,4.986044407E0,9.541379929E0
1.638265714E1,7.274180651E-1,4.574478626E0,1.080598736E1
1.640247917E1,2.044068813E0,4.631906509E0,1.114098263E1
1.642230120E1,2.695514679E0,4.765904427E0,1.033160973E1
1.644212323E1,2.498705149E0,4.555335999E0,9.445667267E0
1.646213787E1,1.507478237E0,3.980460405E0,8.665607452E0
1.648176761E1,2.626122832E-1,3.789034605E0,7.841877937E0
1.650158969E1,-4.887340367E-1,3.798605919E0,6.927221775E0
1.652141177E1,-7.668996453E-1,3.970889091E0,6.026922226E0
1.654123380E1,-3.834498227E-1,4.291527271E0,5.514857769E0
1.656124834E1,-8.195417374E-2,4.512265205E0,5.725426197E0
1.658087818E1,-1.495514158E-2,4.440480709E0,6.342774391E0
1.660070021E1,-5.802594870E-2,4.521836758E0,6.855436802E0
1.662052224E1,-7.238288522E-1,4.995615482E0,6.644868374E0
1.664030584E1,-1.168893814E0,5.191826820E0,6.304489613E0
1.666035886E1,-2.303091735E-1,4.904688358E0,7.247859955E0
1.667998860E1,3.918247223E-1,4.603192329E0,9.192028046E0
1.669981063E1,9.511470050E-2,4.703691006E0,1.085862923E1
1.671963266E1,-2.931207791E-2,4.617549419E0,1.140419292E1
1.673945474E1,-3.643072546E-1,4.348955154E0,1.085862923E1
1.675946933E1,-1.705484390E0,4.483551502E0,9.939187050E0
1.677909906E1,-2.318047047E0,4.794618607E0,9.263813019E0
1.679892120E1,-1.796411633E0,4.914259434E0,8.799605370E0
1.681874323E1,-1.614557028E0,5.053043365E0,8.622536659E0
1.683856526E1,-1.916052699E0,5.005186558E0,9.273384094E0
1.685857985E1,-1.791625977E0,4.445266247E0,1.092562866E1
1.687820959E1,-1.441675663E0,3.477967739E0,1.279801178E1
1.689822412E1,-1.097109199E0,2.697309256E0,1.301336575E1
1.691785391E1,-1.369890928E0,2.242074728E0,1.168654537E1
1.693767589E1,-2.093121529E0,2.213361025E0,1.033160973E1
1.695745948E1,-1.427318692E0,2.692523718E0,9.196813583E0
1.697728146E1,-1.250249892E-1,3.473181963E0,8.038089752E0
1.699733448E1,8.422735929E-1,4.205385685E0,7.037291527E0
1.701696422E1,1.138983607E0,4.440480709E0,6.165705681E0
1.703678625E1,6.652047038E-1,4.377668858E0,5.974279881E0
1.705660828E1,4.187439568E-3,4.200600147E0,6.328417778E0
1.707643037E1,-2.446661144E-1,4.061816216E0,6.951149940E0
1.709644495E1,1.094716340E-1,4.104887009E0,7.496713161E0
1.711620495E1,5.934200287E-1,4.281956196E0,7.741379261E0
1.713589620E1,3.296113312E-1,4.186243057E0,7.951947689E0
1.715571834E1,-2.207378894E-1,3.841676712E0,8.014161110E0
1.717554047E1,-4.935196638E-1,3.497110367E0,8.009375572E0
1.719555521E1,-9.535398483E-1,2.974876642E0,8.943174362E0
1.721518500E1,-1.542174220E0,2.534597397E0,1.096869946E1
1.723500709E1,-1.044467092E0,2.749951363E0,1.161476135E1
1.725482917E1,6.843472719E-1,2.155933142E0,1.175414276E1
1.727465120E1,1.330409408E0,2.419741869E0,1.172542953E1
1.729466589E1,1.459621787E0,3.295515060E0,1.129890823E1
1.731429568E1,2.187638044E0,3.406183004E0,1.072941685E1
1.733411771E1,2.278565407E0,3.961317778E0,9.642477036E0
1.735393974E1,1.804786444E0,4.152743816E0,8.502297401E0
1.737376177E1,1.406979680E0,3.702893019E0,7.865806103E0
1.739377641E1,1.028913736E0,2.874378204E0,7.985447407E0
1.741340615E1,2.626122832E-1,2.031506538E0,8.809176445E0
1.743322823E1,-8.291130662E-1,2.232503414E0,9.105886459E0
1.745305026E1,-1.345962763E0,3.228515863E0,9.014959335E0
1.747287235E1,-5.994020700E-1,4.013959885E0,8.550153732E0
1.749288688E1,4.731806815E-1,4.224528313E0,8.229515076E0
1.751251667E1,1.158126116E0,4.147958279E0,8.454441071E0
1.753233875E1,1.339980721E0,3.832105398E0,8.842676163E0
1.755216078E1,1.033699393E0,3.477967739E0,8.718249321E0
1.757194438E1,7.274180651E-1,3.372085333E0,8.224729538E0
1.759199735E1,6.604190469E-1,3.352942705E0,7.669594765E0
1.761162714E1,2.530409992E-1,3.559323788E0,6.874579430E0
1.763144917E1,-8.099704385E-1,4.229313850E0,5.797211170E0
1.765127120E1,-2.030908108E0,5.254040241E0,4.954339504E0
1.767109323E1,-2.337189436E0,6.063412666E0,4.743771076E0
1.769110787E1,-1.978266120E0,6.571289062E0,5.524429321E0
1.771073761E1,-2.050050735E0,6.537789822E0,7.999804497E0
1.773075219E1,-2.778067112E0,6.580860615E0,1.034118080E1
1.775051219E1,-3.069991350E0,6.858428001E0,1.219442272E1
1.777020344E1,-2.447259426E0,7.222136974E0,1.407159138E1
1.779002552E1,-1.412961721E0,7.236494064E0,1.453101349E1
1.780984766E1,-6.711867452E-1,7.016354084E0,1.316650677E1
1.782986235E1,-1.719841242E0,6.968497753E0,1.166261768E1
1.784949214E1,-2.040479422E0,6.676573277E0,1.070548820E1
1.786931417E1,-4.073780477E-1,5.800201893E0,9.910472870E0
1.788913625E1,3.104687333E-1,5.206183910E0,8.785248756E0
1.790895834E1,8.075776696E-2,4.785047054E0,7.707880020E0
1.792897292E1,-5.371887088E-1,4.406383038E0,7.118647575E0
1.794860271E1,-8.961120844E-1,4.061816216E0,6.860222340E0
1.796861730E1,-7.286145091E-1,3.851248026E0,6.573083878E0
1.798824703E1,-1.345962733E-1,3.817748547E0,6.218348026E0
1.800806901E1,4.301098585E-1,3.894318819E0,5.940780640E0
1.802808360E1,5.551348329E-1,4.262813568E0,5.715855122E0
1.804771334E1,3.343969584E-1,4.550550461E0,5.715855122E0
1.806753537E1,1.764706671E-1,4.521836758E0,5.706283569E0
1.808735740E1,1.142572835E-1,4.746761799E0,5.620141983E0
1.810717943E1,6.640082598E-2,5.359324455E0,5.615356445E0
1.812719396E1,3.822534084E-1,5.804987907E0,5.548357487E0
1.814682375E1,6.269195080E-1,5.848058701E0,5.825924873E0
1.816683828E1,5.018945336E-1,5.392824173E0,6.774080753E0
1.818659828E1,6.221339107E-1,4.751547337E0,8.243872643E0
1.820628948E1,1.205982566E0,4.147958279E0,9.752547264E0
1.822630417E1,1.052842021E0,3.458825111E0,1.107398319E1
1.824606417E1,4.875376225E-1,2.754737139E0,1.117926693E1
1.826575537E1,6.640082598E-2,2.864806890E0,9.728618622E0
1.828557761E1,-4.743770957E-1,4.023531437E0,7.861020565E0
1.830539980E1,-8.865407705E-1,5.541777134E0,7.396214962E0
1.832541459E1,-9.104689956E-1,6.197410583E0,8.066802979E0
1.834504433E1,-7.238288522E-1,5.129613400E0,9.507881165E0
1.836505896E1,-1.082752228E0,4.013959885E0,1.075334454E1
1.838468880E1,-1.374676585E0,3.951746702E0,1.134676456E1
1.840451084E1,-7.142575383E-1,4.392025948E0,1.117448139E1
1.842452537E1,2.530409992E-1,4.986044407E0,1.015454102E1
1.844415511E1,3.583251834E-1,5.584847927E0,9.062815666E0
1.846397714E1,3.768695518E-2,5.857629776E0,8.272585869E0
1.848379917E1,-5.324030295E-2,5.972485542E0,7.894520283E0
1.850362120E1,4.187439568E-3,6.063412666E0,7.880163193E0
1.852363578E1,-4.366901144E-2,5.962913990E0,7.913662910E0
1.854326558E1,-4.845465720E-2,5.742774487E0,7.602595806E0
1.856328011E1,-4.025924206E-1,5.833701611E0,6.573083878E0
1.858304011E1,-1.954337835E0,6.705287457E0,5.596213818E0
1.860273131E1,-2.806781054E0,7.394420147E0,5.873781204E0
1.862255339E1,-1.662413478E0,6.887141705E0,7.204789162E0
1.864237552E1,-2.255235314E-1,5.421537876E0,8.387441635E0
1.866239026E1,-1.776670814E-1,4.104887009E0,9.120243073E0
1.868202006E1,-1.183250785E0,4.023531437E0,9.814760208E0
1.870180365E1,-8.386843204E-1,4.305884361E0,1.016411209E1
1.872166407E1,-2.781656384E-1,4.732405186E0,1.004447079E1
1.874167870E1,4.923232496E-1,4.435695171E0,9.781260490E0
1.876150099E1,5.886343718E-1,4.440480709E0,9.498309135E0
1.878113073E1,-1.495514158E-2,5.498706341E0,9.589237213E0
1.880095276E1,4.492524564E-1,5.958128452E0,1.091127110E1
1.882077480E1,1.637288928E0,5.517848969E0,1.267298698E1
1.884059683E1,1.747358680E0,5.000401020E0,1.325743389E1
1.886061136E1,1.100698471E0,4.593621254E0,1.228534985E1
1.888024115E1,4.683950245E-1,4.138386726E0,9.967901230E0
1.890006318E1,-2.111666054E-1,3.626322746E0,7.353144169E0
1.891988521E1,-9.726824164E-1,3.309871912E0,5.500501156E0
1.893970724E1,-1.149751306E0,3.180659533E0,4.968696117E0
1.895972183E1,-7.908278704E-1,3.118446112E0,5.102694511E0
1.897935156E1,-3.738785386E-1,3.238087177E0,5.413761139E0
1.899917360E1,-2.446661144E-1,3.707678795E0,5.495715618E0
1.901895719E1,-5.994020700E-1,4.631906509E0,5.356333256E0
1.903881761E1,-7.573283911E-1,5.747560024E0,5.687141418E0
1.905883224E1,3.768695518E-2,6.149554253E0,6.309275150E0
1.907846198E1,6.029912829E-1,6.135197163E0,7.171289444E0
1.909828406E1,2.769692242E-1,6.254838467E0,7.660023689E0
1.911810610E1,7.597211748E-2,6.278766632E0,7.880163193E0
1.913792813E1,2.338984162E-1,6.173482418E0,8.449654579E0
1.915794271E1,7.130611539E-1,5.828916073E0,9.479166985E0
1.917757245E1,1.076770186E0,5.340181828E0,1.060439205E1
1.919739453E1,9.571290612E-1,5.038686275E0,1.110269737E1
1.921721656E1,9.714859724E-1,4.909473896E0,1.096869946E1
1.923703860E1,1.627717614E0,4.909473896E0,1.042732334E1
1.925705318E1,2.144567251E0,4.823332310E0,9.747760773E0
1.927668292E1,1.728216171E0,4.914259434E0,8.967103004E0
1.929669745E1,8.805587292E-1,5.220541000E0,8.492725372E0
1.931632724E1,-1.968096644E-1,5.388038158E0,9.014959335E0
1.933614922E1,-5.754738450E-1,4.871188641E0,1.021196842E1
1.935600969E1,-1.872383654E-1,3.942175388E0,1.123190975E1
1.937579334E1,7.597211748E-2,3.573680639E0,1.105484104E1
1.939580787E1,1.046859920E-1,3.674179077E0,9.675976753E0
1.941543761E1,-3.547359705E-1,3.990031719E0,7.636095047E0
1.943525959E1,-7.956135273E-1,4.377668858E0,6.707081795E0
1.945508167E1,-1.049252748E0,4.267599106E0,6.764509678E0
1.947490375E1,-1.264606714E0,3.961317778E0,7.147361279E0
1.949491828E1,-1.025324464E0,4.023531437E0,7.884948730E0
1.951454802E1,-4.217349887E-1,4.219742775E0,8.349156380E0
1.953437006E1,-2.925225794E-1,4.440480709E0,7.660023689E0
1.955419209E1,-6.185446382E-1,4.818546772E0,6.597012043E0
1.957401412E1,-9.631111026E-1,4.990829945E0,5.581857204E0
1.959402870E1,-1.523031592E0,5.258825779E0,4.930410862E0
1.961365844E1,-2.203191519E0,5.804987907E0,5.131408215E0
1.963348047E1,-1.695913076E0,6.398407936E0,6.237490654E0
1.965330256E1,-1.082752228E0,6.829713821E0,7.434499741E0
1.967308615E1,-1.719841242E0,7.064210415E0,8.545368195E0
1.969313912E1,-2.495115757E0,7.317849636E0,9.853045464E0
1.971289912E1,-2.121835470E0,7.293921471E0,1.097348499E1
1.973259026E1,-9.966106415E-1,7.030711174E0,1.194078350E1
1.975237401E1,-1.633101404E-1,6.978068829E0,1.283629704E1
1.977223453E1,3.056831062E-1,6.542575359E0,1.355892944E1
1.979224933E1,-5.324030295E-2,6.384050846E0,1.396630764E1
1.981187907E1,-2.590230405E-1,6.120840549E0,1.375992680E1
1.983170115E1,1.375873014E-2,5.239683151E0,1.266341591E1
1.985152323E1,-9.631111473E-2,4.339384079E0,1.081077290E1
1.987130688E1,-6.807580590E-1,3.846462488E0,9.383454323E0
1.989135990E1,-1.350748420E0,3.645465374E0,8.511868477E0
1.991098969E1,-1.508674622E0,3.511467218E0,8.023732185E0
1.993100422E1,-7.956135273E-1,3.132802963E0,7.655237675E0
1.995063396E1,-9.152546525E-2,3.128017426E0,7.190432072E0
1.997064849E1,4.157529473E-1,3.487539053E0,6.371488571E0
1.999047078E1,5.838487148E-1,3.870390654E0,5.346762180E0
2.001010058E1,2.817548811E-1,4.353740692E0,4.447061062E0
2.002992250E1,1.573280841E-1,4.952544689E0,4.135395527E0
2.004974448E1,1.621137410E-1,5.445466042E0,4.269393921E0
2.006952808E1,3.008974493E-1,5.685346603E0,4.839483738E0
2.008958099E1,4.779663086E-1,5.953342915E0,5.408975601E0
2.010921073E1,2.769692242E-1,6.288337708E0,5.912066460E0
2.012922521E1,2.291127741E-1,6.312266350E0,6.419344902E0
2.014885500E1,6.795616150E-1,6.049055576E0,7.185646534E0
2.016886953E1,1.205982566E0,5.838487148E0,8.167302132E0
2.018862953E1,1.421336651E0,5.651846886E0,9.029315948E0
2.020832068E1,1.910070658E0,5.301896572E0,9.407382011E0
2.022833537E1,2.556132793E0,4.832903385E0,9.172885895E0
2.024796516E1,2.187638044E0,4.502694130E0,8.928817749E0
2.026778719E1,8.231309652E-1,4.914259434E0,9.215956688E0
2.028760927E1,-3.738785386E-1,5.244469166E0,9.862616539E0
2.030743130E1,-9.152546525E-1,4.641477585E0,1.075334454E1
2.032744594E1,-5.371887088E-1,3.803391695E0,1.138504982E1
2.034707568E1,-5.982056609E-4,3.444468260E0,1.116491032E1
2.036709026E1,2.195414752E-1,3.899104595E0,9.977472305E0
2.038672000E1,4.779663086E-1,4.536193371E0,8.353941917E0
2.040654203E1,6.317051649E-1,4.895116806E0,6.783652306E0
2.042655657E1,3.918247223E-1,5.196612358E0,5.845067501E0
2.044631656E1,2.769692242E-1,5.465207100E0,5.687141418E0
2.046600776E1,4.253242314E-1,5.618347645E0,5.935994625E0
2.048582985E1,9.571290612E-1,5.666203976E0,6.333203316E0
2.050561355E1,1.550549030E0,5.809773445E0,6.127420425E0
2.052566662E1,1.488335729E0,6.183053493E0,5.663212776E0
2.054529641E1,6.269195080E-1,6.638288021E0,5.490929604E0
2.056531104E1,-4.217349887E-1,7.035496712E0,5.577071190E0
2.058494078E1,-7.764709592E-1,7.313064098E0,5.988636971E0
2.060476287E1,-8.817551732E-1,7.375277519E0,6.874579430E0
2.062477735E1,-1.149751306E0,7.236494064E0,7.760521889E0
2.064440714E1,-1.240678549E0,7.040282249E0,8.593822479E0
2.066422912E1,-1.192822099E0,7.083353043E0,9.292527199E0
2.068405120E1,-8.243274093E-1,7.284350395E0,9.781260490E0
2.070387328E1,-1.728814393E-1,7.246065140E0,9.479166985E0
2.072388776E1,-4.366901144E-2,7.485347271E0,9.048459053E0
2.074351756E1,-6.376872063E-1,8.285148621E0,9.129815102E0
2.076353203E1,-1.427318692E0,8.864809990E0,1.053739262E1
2.078316177E1,-1.849053741E0,8.328219414E0,1.272622681E1
2.080298380E1,-1.245464206E0,6.614359856E0,1.432523060E1
2.082299828E1,-1.092323542E0,5.599205017E0,1.387059498E1
2.084262813E1,-2.452044964E0,7.059424877E0,1.155254745E1
2.086241167E1,-1.341177106E0,8.132007599E0,8.833105087E0
2.088223360E1,2.010569334E0,7.183851719E0,6.553941250E0
2.090209401E1,3.006581545E0,5.953342915E0,5.207978249E0
2.092210860E1,2.096710920E0,4.670191765E0,4.667200565E0
2.094173834E1,1.560718536E0,3.195016384E0,4.872983456E0
2.096175292E1,1.000199914E0,2.501097918E0,4.782055855E0
2.098138266E1,2.386840582E-1,2.903092146E0,4.255036831E0
2.100120464E1,-4.456632137E-1,3.688536167E0,3.690330744E0
2.102098823E1,-1.245464206E0,4.584050179E0,3.316452265E0
2.104084865E1,-1.360319614E0,5.373681545E0,3.287738323E0
2.106086328E1,-4.313062727E-1,5.761917114E0,3.422334671E0
2.108049302E1,2.578266263E-1,5.891129494E0,3.527618885E0
2.110031506E1,4.396811724E-1,5.804987907E0,3.752544165E0
2.112013709E1,6.652047038E-1,5.613562107E0,4.374678135E0
2.113995907E1,1.272981644E0,5.675775528E0,5.644070625E0
2.115997370E1,1.225125194E0,6.163911343E0,7.051648140E0
2.117960344E1,8.997012973E-1,6.667002201E0,8.818747520E0
2.119942547E1,5.066801906E-1,6.973283291E0,1.065763187E1
2.121920906E1,1.716850251E-1,6.958926678E0,1.183071327E1
2.123906948E1,-1.202393398E-1,6.513861656E0,1.125105190E1
2.125908406E1,-1.202393413E0,7.126423836E0,9.469595909E0
2.127871381E1,-1.829911113E0,7.811369419E0,8.363512993E0
2.129853589E1,-1.609771490E0,7.849654675E0,9.038887978E0
2.131835787E1,-8.243274093E-1,7.537989616E0,1.055653572E1
2.133817995E1,2.673979402E-1,6.968497753E0,1.152861977E1
2.135819448E1,1.091127157E0,6.801000118E0,1.084905815E1
2.137782427E1,1.550549030E0,7.121638298E0,9.091529846E0
2.139760787E1,1.560718536E0,7.188637257E0,7.559525013E0
2.141746828E1,9.379864931E-1,6.623931408E0,7.176074982E0
2.143729032E1,2.769692242E-1,5.848058701E0,7.975875854E0
2.145730485E1,2.291127741E-1,4.756333351E0,8.842676163E0
2.147693464E1,-3.403790295E-1,4.133601189E0,8.632107735E0
2.149675667E1,-1.748555183E0,3.836891174E0,8.152944565E0
2.151654026E1,-2.337189436E0,3.387040377E0,7.798807144E0
2.153640063E1,-2.341975212E0,3.602394581E0,7.621738434E0
2.155641526E1,-2.121835470E0,4.267599106E0,7.247859955E0
2.157604500E1,-1.959123492E0,4.952544689E0,6.457630157E0
2.159586703E1,-1.987837434E0,5.714060307E0,5.648856163E0
2.161568906E1,-2.193620205E0,6.326622963E0,5.337191105E0
2.163547271E1,-3.108276606E0,6.561717987E0,6.065207005E0
2.165552563E1,-3.505485058E0,6.283552170E0,7.209574699E0
2.167515542E1,-3.227917671E0,6.053841114E0,7.880163193E0
2.169497745E1,-2.734996319E0,6.547360897E0,8.564510345E0
2.171479948E1,-1.868196249E0,6.743572235E0,9.144171715E0
2.173458308E1,-1.523031592E0,6.719644070E0,8.636893272E0
2.175463604E1,-1.834696770E0,6.451049805E0,7.123433113E0
2.177426584E1,-1.743769526E0,6.533003807E0,7.037291527E0
2.179428037E1,-7.046862841E-1,6.321837425E0,8.675178528E0
2.181391011E1,-1.010967568E-1,5.680561066E0,1.027418232E1
2.183373209E1,-3.164508045E-1,5.287539959E0,1.143290615E1
2.185355417E1,-2.350948304E-1,5.105685234E0,1.137069321E1
2.187337620E1,3.296113312E-1,5.316253662E0,9.953543663E0
2.189339073E1,9.236295223E-1,5.809773445E0,8.876175880E0
2.191302042E1,1.694716692E0,5.761917114E0,8.742177963E0
2.193284245E1,2.072782516E0,5.124827862E0,8.263014793E0
2.195266453E1,1.373480201E0,4.329812527E0,7.343572617E0
2.197248651E1,5.455635786E-1,3.501895905E0,6.352345943E0
2.199250110E1,7.034898400E-1,2.955734253E0,5.600999832E0
2.201213084E1,8.470591903E-1,3.089732170E0,5.040481091E0
2.203195287E1,-3.068794906E-1,4.219742775E0,5.203192711E0
2.205177490E1,-1.527817249E0,5.249254704E0,5.811567783E0
2.207159693E1,-1.326820135E0,5.029115200E0,5.543571949E0
2.209161151E1,-1.111466169E0,4.818546772E0,6.055635929E0
2.211124125E1,2.865405083E-1,4.986044407E0,6.582654953E0
2.213106328E1,8.470591903E-1,4.942973614E0,6.807580471E0
2.215088526E1,2.144567251E0,5.230112076E0,8.507082939E0
2.217070735E1,3.389433384E0,5.392824173E0,9.326025963E0
2.219072188E1,2.618944407E0,5.771488190E0,9.977472305E0
2.221048188E1,1.268195987E0,5.938985825E0,1.046560764E1
2.223017308E1,1.124626637E0,6.001199245E0,1.004447079E1
2.224999516E1,1.311266780E0,7.179066181E0,8.995817184E0
2.226981735E1,1.632503271E0,7.552944660E0,7.405786037E0
2.228983203E1,1.780858278E0,6.839285374E0,7.588238716E0
2.230946183E1,1.627717614E0,6.772286415E0,9.642477036E0
2.232928386E1,3.116651535E0,6.369693756E0,1.184028435E1
2.234910594E1,4.083950043E0,5.575276852E0,1.193599796E1
2.236892797E1,2.963510752E0,5.076971531E0,1.022632599E1
2.238894256E1,1.009771109E0,4.875974178E0,8.143373489E0
2.240857235E1,-5.659025311E-1,4.296313286E0,6.611369133E0
2.242839438E1,-1.436890006E0,3.846462488E0,6.534798622E0
2.244821641E1,-1.039681435E0,3.616751432E0,7.252645493E0
2.246803844E1,2.338984162E-1,3.803391695E0,7.703094482E0
2.248805302E1,1.704287887E0,4.584050179E0,8.723034859E0
2.250768276E1,2.729014158E0,4.128815651E0,8.919246674E0
2.252750485E1,2.417349100E0,3.540181160E0,7.597810268E0
2.254732683E1,8.554340899E-2,3.870390654E0,5.519643784E0
2.256714886E1,-2.212762833E0,4.718048096E0,3.963112593E0
2.258716339E1,-2.816352367E0,5.718846321E0,3.886542082E0
2.260679318E1,-1.451246977E0,5.972485542E0,5.462215900E0
2.262680771E1,-3.308077157E-1,5.895915031E0,7.252645493E0
2.264643745E1,1.477568001E-1,5.876772404E0,7.942376614E0
2.266618261E1,-3.738785386E-1,6.139982700E0,8.373085022E0
2.268608131E1,-8.243274093E-1,6.403193474E0,8.833105087E0
2.270590334E1,-3.499503136E-1,6.350551128E0,8.885746956E0
2.272591797E1,2.333002165E-2,6.537789822E0,9.086744308E0
2.274554766E1,-8.195417374E-2,7.231708050E0,9.316454887E0
2.276536974E1,-8.673982322E-2,7.576872826E0,1.041296577E1
2.278519172E1,-4.983053207E-1,6.781857491E0,1.201256752E1
2.280497537E1,-1.154536963E0,5.761917114E0,1.240499115E1
2.282502828E1,-1.403390527E0,5.306682587E0,1.159083271E1
2.284465802E1,-1.350748420E0,5.416752338E0,1.032682419E1
2.286467256E1,-1.326820135E0,5.685346603E0,9.431310654E0
2.288430235E1,-7.238288522E-1,5.383252621E0,9.282955170E0
2.290408589E1,-3.888336942E-2,4.966901779E0,8.732605934E0
2.292413875E1,1.573280841E-1,4.871188641E0,7.420143127E0
2.294376849E1,1.477568001E-1,5.177470207E0,5.892923832E0
2.296359047E1,-8.195417374E-2,5.330610752E0,5.639284611E0
2.298341256E1,3.008974493E-1,5.268397331E0,6.256632805E0
2.300323459E1,8.518448472E-1,5.364109993E0,6.783652306E0
2.302324912E1,1.028913736E0,5.608776093E0,7.247859955E0
2.304287880E1,1.162911773E0,6.039484501E0,6.821937561E0
2.306289334E1,1.162911773E0,6.144768715E0,5.931209087E0
2.308252313E1,2.003988922E-1,6.135197163E0,5.691926956E0
2.310234506E1,-6.568298340E-1,6.082555294E0,5.758925915E0
2.312235953E1,-7.094719410E-1,5.919843197E0,6.251847267E0
2.314198933E1,-5.383851007E-3,5.824130535E0,7.491927624E0
2.316181130E1,3.822534084E-1,5.924628735E0,9.206384659E0
2.318163328E1,9.858429432E-1,5.709274769E0,1.104526901E1
2.320145532E1,1.287338614E0,5.594419479E0,1.198385429E1
2.322146985E1,1.450050473E0,5.613562107E0,1.160040379E1
2.324109959E1,1.795215130E0,5.718846321E0,1.038903809E1
2.326111406E1,1.363908887E0,6.326622963E0,8.938388824E0
2.328074386E1,1.153340459E0,6.412764549E0,8.114660263E0
2.330056584E1,9.858429432E-1,6.001199245E0,8.133802414E0
2.332058026E1,1.253839016E0,5.349753380E0,8.809176445E0
2.334021006E1,1.306481123E0,5.000401020E0,9.340383530E0
2.335999360E1,1.038485050E0,4.914259434E0,8.766105652E0
2.337985401E1,6.795616150E-1,4.909473896E0,7.348358154E0
2.339967605E1,1.573280841E-1,4.890331268E0,5.916851997E0
2.341969058E1,-1.680957973E-1,4.895116806E0,5.064409256E0
2.343932026E1,-5.563312769E-1,5.033900738E0,5.083551884E0
2.345933480E1,-5.754738450E-1,4.761118889E0,5.983851433E0
2.347909480E1,1.190429255E-1,4.368097782E0,6.979863644E0
2.349878599E1,4.444667995E-1,4.401597023E0,7.042077065E0
2.351860808E1,3.200400174E-1,4.698905468E0,6.203990936E0
2.353839172E1,1.812563092E-1,5.234897614E0,4.939982414E0
2.355844480E1,4.247260094E-2,5.819344521E0,3.915256023E0
2.357807453E1,-2.446661144E-1,6.278766632E0,3.819543123E0
2.359789662E1,-5.850451589E-1,6.848856449E0,5.016552448E0
2.361771865E1,-1.092323542E0,6.944569588E0,6.467201233E0
2.363754068E1,-1.365105271E0,6.667002201E0,7.491927624E0
2.365755532E1,-1.436890006E0,6.542575359E0,8.334799767E0
2.367718506E1,-1.633699656E0,6.364908218E0,9.867402077E0
2.369696865E1,-1.207179070E0,6.489335060E0,1.138983536E1
2.371682907E1,-7.429714203E-1,6.824928284E0,1.137547874E1
2.373661261E1,-1.446461320E0,7.303493023E0,1.026461124E1
2.375666563E1,-1.111466169E0,8.582456589E0,9.297312737E0
2.377629537E1,-1.106680512E0,8.117650986E0,8.794819832E0
2.379611740E1,-1.829911113E0,7.763513088E0,9.177671432E0
2.381590094E1,-1.456032634E0,6.949355125E0,9.584450722E0
2.383576141E1,-1.782054663E0,6.623931408E0,9.723833084E0
2.385577594E1,-2.021337032E0,6.422336102E0,9.647262573E0
2.387553594E1,-1.556531072E0,5.938985825E0,9.546165466E0
2.389522714E1,-7.094719410E-1,5.335396290E0,8.904889107E0
2.391504933E1,-4.887340367E-1,4.938187599E0,7.612166882E0
2.393487141E1,-6.759724021E-1,4.737190723E0,6.060421467E0
2.395488615E1,-7.046862841E-1,4.574478626E0,4.849055290E0
2.397451589E1,-9.056833982E-1,4.574478626E0,4.274179459E0
2.399433792E1,-9.535398483E-1,4.732405186E0,4.389034748E0
2.401415995E1,-4.265206456E-1,4.928616524E0,5.045266628E0
2.403398198E1,4.540380836E-1,5.201398373E0,6.098706722E0
2.405399662E1,8.566305041E-1,5.675775528E0,7.386643410E0
2.407362641E1,5.694918036E-1,6.106483459E0,8.076375008E0
2.409344839E1,2.913261652E-1,6.474977970E0,8.085946083E0
2.411327042E1,4.971089065E-1,6.710072994E0,7.894520283E0
2.413309245E1,9.619147182E-1,6.705287457E0,8.397012711E0
2.415310698E1,1.957927108E0,6.571289062E0,9.982257843E0
2.417273672E1,2.446063042E0,6.484549522E0,1.151904774E1
2.419255880E1,2.469991207E0,6.331408501E0,1.164826107E1
2.421238078E1,2.297708035E0,6.235695839E0,1.021675491E1
2.423220282E1,1.258624673E0,6.633502483E0,8.535796165E0
2.425221740E1,4.971089065E-1,6.958926678E0,7.731808186E0
2.427184709E1,3.583251834E-1,6.796214581E0,7.894520283E0
2.429186162E1,6.077769399E-1,5.938985825E0,8.296514511E0
2.431149130E1,1.402194023E0,5.134399414E0,8.751749039E0
2.433131328E1,1.445264935E0,5.014758110E0,8.909674644E0
2.435113532E1,1.052842021E0,5.005186558E0,8.315656662E0
2.437095730E1,4.061816335E-1,4.890331268E0,7.545167923E0
2.439097183E1,-2.111666054E-1,4.856831551E0,7.080362320E0
2.441060162E1,-4.073780477E-1,4.899902344E0,6.611369133E0
2.443042354E1,-3.930211067E-1,5.000401020E0,5.979065418E0
2.445024558E1,-6.137589812E-1,5.215754986E0,5.184050083E0
2.447006756E1,-6.089733839E-1,5.383252621E0,4.786841869E0
2.449008214E1,-2.350948304E-1,5.489135265E0,4.925625324E0
2.450971188E1,-6.281159073E-2,5.570491314E0,5.404190063E0
2.452953391E1,-5.324030519E-1,5.632704735E0,5.629713535E0
2.454935589E1,-1.188036442E0,5.819344521E0,5.715855122E0
2.456917792E1,-1.576271892E0,6.173482418E0,6.285346985E0
2.458919250E1,-1.853839397E0,6.479763508E0,7.602595806E0
2.460882219E1,-1.734198213E0,6.441478729E0,9.024530411E0
2.462864422E1,-1.527817249E0,6.369693756E0,9.790832520E0
2.464846625E1,-1.882553220E0,6.590431690E0,1.023111153E1
2.466828823E1,-2.164906263E0,6.595217228E0,1.023589706E1
2.468830282E1,-1.638485312E0,6.216553211E0,9.527023315E0
2.470793256E1,-1.183250785E0,6.628716946E0,8.751749039E0
2.472775453E1,-1.619342685E0,7.222136974E0,8.109873772E0
2.474757657E1,-2.797209740E0,7.451848030E0,8.052446365E0
2.476736011E1,-2.701496840E0,7.255636692E0,8.703892708E0
2.478741308E1,-1.374676585E0,6.494120598E0,9.369096756E0
2.480704282E1,-6.903293133E-1,6.183053493E0,9.833903313E0
2.482686485E1,-5.371887088E-1,6.116054535E0,9.690333366E0
2.484668683E1,-7.046862841E-1,5.910272121E0,9.469595909E0
2.486650886E1,-9.248259664E-1,5.723631859E0,9.206384659E0
2.488652344E1,-9.822536707E-1,5.177470207E0,8.487939835E0
2.490615313E1,-1.015753269E0,4.679762840E0,7.381857872E0
2.492597521E1,-9.056833982E-1,4.607978344E0,6.261418819E0
2.494579724E1,-8.386843204E-1,4.746761799E0,5.370690346E0
2.496561922E1,-6.376872063E-1,4.995615482E0,4.973481655E0
2.498563381E1,-1.489532143E-1,4.962115765E0,5.356333256E0
2.500526355E1,3.487538993E-1,4.828117847E0,6.242276192E0
2.502508552E1,6.508477330E-1,5.249254704E0,6.845865726E0
2.504490756E1,-5.324030295E-2,6.235695839E0,7.200003147E0
2.506472959E1,-1.776670814E-1,6.001199245E0,7.319644451E0
2.508474412E1,1.956132501E-1,5.608776093E0,7.467999458E0
2.510437386E1,4.444667995E-1,5.848058701E0,8.076375008E0
2.512438834E1,1.306481123E0,5.948556900E0,9.666405678E0
2.514401808E1,2.493919373E0,5.469992638E0,1.140897846E1
2.516384006E1,3.178864956E0,5.029115200E0,1.146640587E1
2.518366209E1,2.546561480E0,5.249254704E0,9.249456406E0
2.520348412E1,1.694716692E0,6.254838467E0,6.970292568E0
2.522349865E1,1.272981644E0,7.188637257E0,5.964708805E0
2.524312839E1,6.221339107E-1,7.442276478E0,6.189633846E0
2.526295037E1,6.604190469E-1,6.724429607E0,7.458428383E0
2.528277240E1,2.335993052E0,5.359324455E0,9.086744308E0
2.530259438E1,3.068794966E0,5.115256786E0,9.570094109E0
2.532260896E1,2.182852507E0,5.603990555E0,8.842676163E0
2.534223870E1,8.279166222E-1,5.656632900E0,7.774878979E0
2.536206073E1,1.381855011E-1,5.474778175E0,6.821937561E0
2.538188271E1,5.682953820E-2,5.321039200E0,6.491727829E0
2.540170474E1,1.429711580E-1,5.225326538E0,6.568298340E0
2.542171933E1,1.860419661E-1,5.273182869E0,6.802794933E0
2.544134906E1,8.554340899E-2,5.416752338E0,6.821937561E0
2.546117110E1,-5.802594870E-2,5.426323414E0,6.563512325E0
2.548095469E1,-2.111666054E-1,5.368896008E0,6.549155712E0
2.550081506E1,-3.978067636E-1,5.541777134E0,7.008577347E0
2.552082964E1,-7.046862841E-1,5.962913990E0,6.649653912E0
2.554045938E1,-1.044467092E0,6.197410583E0,5.849853039E0
2.556028141E1,-1.408176184E0,6.254838467E0,5.600999832E0
2.558010349E1,-1.638485312E0,6.571289062E0,6.778866768E0
2.559992547E1,-1.681556106E0,6.820142746E0,8.861818314E0
2.561994000E1,-1.671984792E0,6.939784050E0,1.111705399E1
2.563956974E1,-1.475175142E0,6.815357208E0,1.240020561E1
2.565927662E1,-1.456032634E0,6.638288021E0,1.246241856E1
2.567921360E1,-1.868196249E0,6.643074036E0,1.147119141E1
2.569903568E1,-2.332403898E0,6.992425919E0,1.044646549E1
2.571905032E1,-2.370688915E0,7.121638298E0,1.050389290E1
2.573868011E1,-1.317248821E0,6.628716946E0,1.147119141E1
2.575850214E1,-4.743770957E-1,6.240481377E0,1.183071327E1
2.577832417E1,-5.563312769E-1,6.427121639E0,1.095434189E1
2.579814620E1,-7.812566161E-1,6.523432732E0,9.613762856E0
2.581816078E1,-7.142575383E-1,6.101697922E0,8.545368195E0
2.583779052E1,-4.073780477E-1,5.282754421E0,7.899305820E0
2.585780500E1,-2.446661144E-1,4.584050179E0,7.233502865E0
2.587743480E1,-2.303091735E-1,4.229313850E0,6.371488571E0
2.589725677E1,-1.345962733E-1,4.176671982E0,5.620141983E0
2.591727130E1,-1.920240223E-1,4.224528313E0,4.983053207E0
2.593690105E1,-6.711867452E-1,4.406383038E0,4.456632137E0
2.595691552E1,-1.235892892E0,4.866403103E0,4.183252335E0
2.597654532E1,-1.101894855E0,5.508277893E0,4.307679176E0
2.599636724E1,-6.520441771E-1,6.072983742E0,4.604987144E0
2.601615084E1,-3.834498227E-1,6.595217228E0,5.318048477E0
2.603601125E1,-3.409772366E-2,6.911069870E0,6.165705681E0
2.605602584E1,3.200400174E-1,6.982854843E0,6.515655994E0
2.607565552E1,3.343969584E-1,7.078567505E0,6.726224422E0
2.609547756E1,6.269195080E-1,7.246065140E0,7.491927624E0
2.611529959E1,1.244267821E0,7.145566463E0,8.564510345E0
2.613512162E1,2.029711723E0,6.671787739E0,9.359525681E0
2.615513620E1,2.800798893E0,5.752345562E0,9.483952522E0
2.617476594E1,2.465205431E0,5.263611794E0,8.938388824E0
2.619458797E1,1.129412293E0,5.647061348E0,8.047660828E0
2.621441000E1,1.375873014E-2,5.996413708E0,7.448856831E0
2.623423203E1,-9.439685345E-1,6.101697922E0,7.621738434E0
2.625424667E1,-8.147560954E-1,5.761917114E0,8.487939835E0
2.627387641E1,3.200400174E-1,5.177470207E0,9.421739578E0
2.629369844E1,8.853443861E-1,4.923830986E0,9.464810371E0
2.631352047E1,6.364908218E-1,4.804189682E0,8.971888542E0
2.633334250E1,2.913261652E-1,4.617549419E0,8.057231903E0
2.635335709E1,1.854437590E-2,4.617549419E0,6.999006271E0
2.637298688E1,-3.020938635E-1,4.818546772E0,6.640082836E0
2.639280891E1,-2.015953064E-1,5.072185993E0,6.616154671E0
2.641263094E1,2.769692242E-1,5.220541000E0,6.582654953E0
2.643245297E1,6.556333899E-1,5.225326538E0,6.232704639E0
2.645246756E1,6.939185858E-1,5.230112076E0,5.840281963E0
2.647209735E1,2.147558331E-1,5.397609711E0,5.725426197E0
2.649191938E1,-2.638086975E-1,5.771488190E0,5.768496990E0
2.651174141E1,-4.025924206E-1,6.202196121E0,5.706283569E0
2.653156349E1,-5.174478889E-1,6.595217228E0,6.026922226E0
2.655157808E1,-6.520441771E-1,6.978068829E0,6.587440968E0
2.657120782E1,-8.530412912E-1,7.313064098E0,7.305287361E0
2.659102985E1,-8.961120844E-1,7.749155998E0,8.081160545E0
2.661085193E1,-8.961120844E-1,8.127222061E0,8.780462265E0
2.663067396E1,-9.583254457E-1,8.481359482E0,9.546165466E0
2.665068860E1,-8.051848412E-1,8.548358917E0,1.049910736E1
2.667031834E1,-1.680957973E-1,8.146365166E0,1.098784161E1
2.669014042E1,6.161518395E-2,7.720442295E0,1.044167995E1
2.670996245E1,-9.439685345E-1,7.964509964E0,9.613762856E0
2.672978453E1,-2.083550215E0,8.165507317E0,8.991030693E0
2.674979917E1,-2.432902336E0,7.744370461E0,8.727820396E0
2.676942891E1,-2.394617319E0,7.246065140E0,8.670392990E0
2.678944344E1,-2.274976015E0,6.978068829E0,8.986245155E0
2.680907323E1,-1.825125456E0,6.738786697E0,9.460023880E0
2.682889521E1,-9.535398483E-1,6.336194515E0,9.201599121E0
2.684871730E1,-3.690928817E-1,5.895915031E0,8.363512993E0
2.686853938E1,-4.935196638E-1,5.541777134E0,7.472784996E0
2.688855391E1,-5.706881881E-1,5.096114159E0,6.630511761E0
2.690818370E1,-2.781656384E-1,4.689334393E0,5.778068542E0
2.692800573E1,-5.324030295E-2,4.564907551E0,5.117051125E0
2.694782787E1,-9.152546525E-2,4.708476543E0,4.686343193E0
2.696764990E1,-1.393819153E-1,4.990829945E0,4.470989227E0
2.698766448E1,9.511470050E-2,5.330610752E0,4.614558697E0
2.700729427E1,4.636093974E-1,5.469992638E0,5.418546677E0
2.702711636E1,3.822534084E-1,5.580062389E0,6.525227547E0
2.704693844E1,1.621137410E-1,5.953342915E0,7.018148899E0
2.706676052E1,2.003988922E-1,6.206982136E0,6.769295216E0
2.708677516E1,4.588237405E-1,6.240481377E0,6.659225464E0
2.710640495E1,8.374879360E-1,6.206982136E0,7.353144169E0
2.712622703E1,1.263410330E0,6.015556335E0,8.708678246E0
2.714604907E1,1.843071699E0,5.982056618E0,1.004925728E1
2.716587115E1,2.791227579E0,5.781059742E0,9.958329201E0
2.718588578E1,2.738585472E0,5.670989513E0,8.632107735E0
2.720551558E1,1.483550072E0,6.159125328E0,7.166503906E0
2.722533766E1,4.492524564E-1,6.638288021E0,6.620940208E0
2.724515974E1,-4.456632137E-1,6.580860615E0,7.027719975E0
2.726498183E1,-1.250249892E-1,5.771488190E0,8.052446365E0
2.728499651E1,9.236295223E-1,5.096114159E0,9.326025963E0
2.730462625E1,1.282552958E0,5.206183910E0,9.848259926E0
2.732444839E1,8.662018180E-1,5.613562107E0,9.594022751E0
2.734427047E1,4.875376225E-1,5.886343479E0,9.029315948E0
2.736409256E1,3.966103494E-1,5.771488190E0,8.119445801E0
2.738410719E1,5.599204898E-1,5.513063431E0,7.176074982E0
2.740373698E1,9.140582681E-1,5.560919762E0,6.390631199E0
2.742355912E1,1.100698471E0,5.862415314E0,5.778068542E0
2.744338120E1,1.177268744E0,6.111268997E0,5.467001438E0
2.746320328E1,8.374879360E-1,6.068198204E0,5.361119270E0
2.748321797E1,-1.968096644E-1,6.029912949E0,5.624927998E0
2.750284776E1,-9.008977413E-1,6.187839508E0,5.945566177E0
2.752266985E1,-1.164108157E0,6.547360897E0,6.347560406E0
2.754249198E1,-1.412961721E0,6.968497753E0,6.692724705E0
2.756231407E1,-1.546959877E0,7.313064098E0,7.156932354E0
2.758232870E1,-1.058824062E0,7.360920429E0,7.770093441E0
2.760195855E1,-8.913264275E-1,7.375277519E0,8.464012146E0
2.762197318E1,-1.097109199E0,7.518846989E0,9.469595909E0
2.764160297E1,-9.535398483E-1,7.596015453E0,1.005882835E1
2.766142500E1,-8.626125455E-1,7.399205685E0,1.003489971E1
2.768124714E1,-9.822536707E-1,7.447062492E0,9.771689415E0
2.770106922E1,-1.527817249E0,7.624729156E0,9.527023315E0
2.772108386E1,-1.925624013E0,7.346563816E0,9.570094109E0
2.774071370E1,-1.786840320E0,6.667002201E0,9.848259926E0
2.776053578E1,-1.255035520E0,6.077769279E0,1.010668468E1
2.778035792E1,-8.626125455E-1,6.106483459E0,9.977472305E0
2.780014156E1,-8.865407705E-1,6.317051888E0,9.340383530E0
2.782019464E1,-8.578268886E-1,6.278766632E0,8.487939835E0
2.783982448E1,-5.324030519E-1,6.159125328E0,7.736593723E0
2.785964667E1,-2.829512656E-1,5.824130535E0,7.286144733E0
2.787946870E1,-5.383851007E-3,5.455037594E0,6.975078106E0
2.789929089E1,2.913261652E-1,5.206183910E0,6.659225464E0
2.791930552E1,1.956132501E-1,5.177470207E0,6.275775433E0
2.793893532E1,-2.829512656E-1,5.196612358E0,5.768496990E0
2.795895000E1,-6.807580590E-1,5.325825214E0,5.294120312E0
2.797857985E1,-8.865407705E-1,5.541777134E0,4.753342152E0
2.799840193E1,-7.573283911E-1,5.876772404E0,4.293322086E0
2.801841657E1,-4.217349887E-1,6.163911343E0,4.211966038E0
2.803804641E1,-4.025924206E-1,6.340980053E0,4.624129772E0
2.805786849E1,-5.611169338E-1,6.427121639E0,5.140979290E0
2.807769063E1,-5.611169338E-1,6.518647194E0,6.208776474E0
2.809751276E1,-2.733799815E-1,6.364908218E0,7.420143127E0
2.811752740E1,4.109672904E-1,6.326622963E0,8.420941353E0
2.813715724E1,1.067198873E0,6.350551128E0,9.373882294E0
2.815717188E1,1.540977836E0,6.173482418E0,9.848259926E0
2.817680183E1,1.618146300E0,5.953342915E0,9.369096756E0
2.819662386E1,1.057627559E0,6.159125328E0,8.167302132E0
2.821663849E1,4.301098585E-1,6.633502483E0,7.070790768E0
2.823626839E1,-3.164508045E-1,7.049853802E0,6.989434719E0
2.825605203E1,-1.068395257E0,6.925426960E0,7.822735310E0
2.827591256E1,-1.633101404E-1,5.910272121E0,9.153742790E0
2.829573464E1,9.619147182E-1,5.158327579E0,9.891330719E0
2.831574938E1,8.614161611E-1,5.201398373E0,9.192028046E0
2.833550938E1,-3.164508045E-1,5.632704735E0,7.798807144E0
2.835539391E1,-1.374676585E0,5.781059742E0,6.606583118E0
2.837502380E1,-1.456032634E0,5.675775528E0,6.280561447E0
2.839484589E1,-7.764709592E-1,5.723631859E0,6.903293133E0
2.841486047E1,-1.824527234E-1,5.982056618E0,7.588238716E0
2.843449037E1,1.238285750E-1,5.886343479E0,7.770093441E0
2.845450495E1,1.333998591E-1,5.560919762E0,7.410571575E0
2.847413490E1,-3.930211067E-1,5.584847927E0,6.683153629E0
2.849395693E1,-9.487541914E-1,5.972485542E0,6.007779598E0
2.851374063E1,-1.164108157E0,6.302694798E0,5.768496990E0
2.853360115E1,-1.235892892E0,6.374479294E0,6.199205399E0
2.855361578E1,-1.403390527E0,6.202196121E0,6.802794933E0
2.857324563E1,-1.384247899E0,6.154339790E0,7.405786037E0
2.859306776E1,-1.312463164E0,6.202196121E0,7.837092400E0
2.861288995E1,-1.393819213E0,6.264409542E0,7.937591076E0
2.863271214E1,-1.715055585E0,6.595217228E0,7.736593723E0
2.865272683E1,-1.949552298E0,7.030711174E0,7.794021606E0
2.867235672E1,-1.581057549E0,7.222136974E0,8.129016876E0
2.869217886E1,-9.439685345E-1,7.107281685E0,8.780462265E0
2.871200104E1,-9.296116233E-1,6.882356167E0,9.512666702E0
2.873182318E1,-1.326820135E0,6.997211456E0,9.584450722E0
2.875183792E1,-1.389033556E0,7.174280643E0,9.373882294E0
2.877146776E1,-8.051848412E-1,7.150352478E0,9.766903877E0
2.879128995E1,-4.887340367E-1,6.848856449E0,1.028853893E1
2.881111209E1,-1.068395257E0,6.504290104E0,1.005882835E1
2.883093427E1,-1.609771490E0,6.484549522E0,9.306883812E0
2.885094896E1,-1.710269928E0,6.451049805E0,8.727820396E0
2.887057886E1,-1.676770449E0,6.149554253E0,8.363512993E0
2.889040104E1,-1.595414519E0,5.594419479E0,8.009375572E0
2.891022318E1,-1.643270969E0,5.263611794E0,7.520641804E0
2.893004537E1,-1.446461320E0,5.148756027E0,6.793223381E0
2.895006011E1,-1.125823021E0,5.076971531E0,5.739783287E0
2.896968995E1,-1.073180914E0,5.277968407E0,5.002195835E0
2.898951214E1,-8.913264275E-1,5.450251579E0,4.882554531E0
2.900933433E1,-5.276173949E-1,5.445466042E0,4.911268711E0
2.902915646E1,-5.126622319E-1,5.522634506E0,4.930410862E0
2.904917120E1,-7.238288522E-1,5.627918720E0,4.916054249E0
2.906880110E1,-9.726824164E-1,5.785845280E0,5.313262463E0
2.908862328E1,-1.274178028E0,5.881557941E0,6.304489613E0
2.910840703E1,-1.312463164E0,5.804987907E0,7.477570534E0
2.912826761E1,-8.386843204E-1,5.685346603E0,8.608179092E0
2.914828230E1,-1.393819153E-1,5.795416355E0,9.642477036E0
2.916791219E1,6.269195080E-1,5.867201328E0,1.006839943E1
2.918773443E1,9.092726111E-1,5.938985825E0,9.369096756E0
2.920755656E1,7.561319470E-1,6.297909260E0,8.679964066E0
2.922737875E1,6.125625968E-1,6.623931408E0,8.976674080E0
2.924739349E1,1.071984529E0,6.470192432E0,9.598808289E0
2.926702339E1,1.048056364E0,6.441478729E0,1.049432182E1
2.928703813E1,3.056831062E-1,6.580860615E0,1.091127110E1
2.930666802E1,2.769692242E-1,6.364908218E0,1.033639526E1
2.932649011E1,1.622931957E0,5.344967365E0,9.278169632E0
2.934631235E1,2.326421738E0,4.765904427E0,8.483154297E0
2.936613453E1,1.981855392E0,4.703691006E0,8.344370842E0
2.938614922E1,1.957927108E0,4.574478626E0,7.727022648E0
2.940577912E1,1.957927108E0,4.895116806E0,6.539584160E0
2.942560130E1,1.402194023E0,5.613562107E0,5.380261898E0
2.944542349E1,7.944171429E-1,5.929414749E0,4.772484779E0
2.946524568E1,1.086341500E0,5.546562672E0,4.624129772E0
2.948526042E1,1.618146300E0,4.928616524E0,4.542773724E0
2.950489032E1,1.943570137E0,4.421338081E0,4.624129772E0
2.952471250E1,1.666002750E0,4.756333351E0,4.944767952E0
2.954453469E1,1.320838094E0,5.268397331E0,5.346762180E0
2.956435688E1,1.004985452E0,5.785845280E0,6.055635929E0
2.958437167E1,7.800601721E-1,6.226124287E0,6.989434719E0
2.960400156E1,1.239482164E0,6.374479294E0,7.448856831E0
2.962382375E1,1.454836130E0,6.245266914E0,7.985447407E0
2.964364594E1,1.464407444E0,6.197410583E0,9.125029564E0
2.966346818E1,1.349551916E0,6.068198204E0,1.031246758E1
2.968348292E1,1.890928149E0,5.546562672E0,1.114098263E1
2.970311282E1,1.733001828E0,5.143970490E0,1.180678558E1
2.972293506E1,1.033699393E0,4.430909157E0,1.180678558E1
2.974275724E1,2.434697002E-1,4.296313286E0,1.128455162E1
2.976257943E1,-3.690928817E-1,4.430909157E0,1.085384369E1
2.978259422E1,-5.371887088E-1,4.181457520E0,1.156211948E1
2.980222412E1,-2.781656384E-1,3.899104595E0,1.246720409E1
2.982204630E1,7.417750359E-1,3.827319860E0,1.191685486E1
2.984186854E1,1.450050473E0,4.253242016E0,1.079162979E1
2.986169073E1,1.531406522E0,4.856831551E0,1.032203865E1
2.988170547E1,1.579861164E0,4.377668858E0,1.017846966E1
2.990146547E1,1.277767301E0,3.449253798E0,9.608977318E0
2.992115703E1,1.000199914E0,3.233301640E0,9.110671997E0
2.994097943E1,3.631108403E-1,3.789034605E0,7.918448448E0
2.996080172E1,4.725824669E-2,3.865604877E0,6.630511761E0
2.998081662E1,-6.281159073E-2,3.918246984E0,5.711069584E0
3.000044656E1,-5.419743061E-1,4.607978344E0,5.486144066E0
3.002026880E1,-8.913264275E-1,5.220541000E0,5.667998791E0
3.004009104E1,-9.966106415E-1,5.416752338E0,5.629713535E0
3.005991328E1,-8.147560954E-1,5.498706341E0,5.538786411E0
3.007992813E1,-4.695914388E-1,5.737988472E0,5.677569866E0
3.009955813E1,-4.217349887E-1,5.915057659E0,6.251847267E0
3.011926521E1,-2.446661144E-1,5.848058701E0,7.013363361E0
3.013920235E1,6.795616150E-1,5.637490273E0,7.817949772E0
3.015902464E1,2.044068813E0,5.086542606E0,8.723034859E0
3.017900094E1,2.796013355E0,4.708476543E0,9.311669350E0
3.019866943E1,2.762513638E0,4.923830986E0,9.541379929E0
3.021868417E1,3.044866800E0,5.081757069E0,9.282955170E0
3.023844417E1,3.298506021E0,5.096114159E0,8.823533058E0
3.025813578E1,3.068794966E0,5.053043365E0,9.450452805E0
3.027795813E1,2.221137524E0,4.670191765E0,1.099741268E1
3.029778047E1,1.565504193E0,4.147958279E0,1.178285694E1
3.031779537E1,1.948355794E0,3.597608805E0,1.130848026E1
3.033742537E1,2.527418852E0,3.607180119E0,1.016411209E1
3.035724761E1,2.134995937E0,4.445266247E0,9.120243073E0
3.037706990E1,1.603789330E0,5.263611794E0,8.387441635E0
3.039689214E1,1.086341500E0,5.603990555E0,7.626523972E0
3.041690698E1,9.188438654E-1,5.536991596E0,6.793223381E0
3.043653703E1,1.249053478E0,5.330610752E0,6.558726788E0
3.045635927E1,1.699502230E0,5.158327579E0,6.788437843E0
3.047618151E1,2.192423820E0,5.029115200E0,6.702296257E0
3.049600375E1,2.163709879E0,5.086542606E0,6.242276192E0
3.051601854E1,1.642074585E0,5.110470772E0,5.830710411E0
3.053564849E1,6.221339107E-1,5.215754986E0,5.486144066E0
3.055547084E1,-3.786641955E-1,5.546562672E0,5.495715618E0
3.057529302E1,-6.041877270E-1,5.929414749E0,5.394618511E0
3.059511532E1,-3.643072546E-1,6.350551128E0,5.203192711E0
3.061513011E1,-3.212364316E-1,6.906284332E0,5.715855122E0
3.063476006E1,-1.974078640E-2,6.982854843E0,6.515655994E0
3.065458235E1,3.583251834E-1,6.973283291E0,7.975875854E0
3.067440459E1,5.551348329E-1,7.078567505E0,9.613762856E0
3.069422688E1,8.853443861E-1,6.934998035E0,1.051825047E1
3.071424167E1,9.954141974E-1,6.537789822E0,1.053739262E1
3.073387162E1,2.147558331E-1,6.393621922E0,1.013539886E1
3.075388641E1,-6.137589812E-1,6.451049805E0,9.786046028E0
3.077351636E1,-1.183250785E0,5.776273727E0,9.805189133E0
3.079333860E1,-1.753340840E0,4.722833633E0,9.967901230E0
3.081335334E1,-1.896910191E0,3.908675671E0,1.003489971E1
3.083298334E1,-1.710269928E0,3.602394581E0,9.905687332E0
3.085280552E1,-1.240678549E0,3.669393539E0,9.278169632E0
3.087262782E1,-1.054038405E0,3.712464333E0,8.593822479E0
3.089245006E1,-1.192822099E0,3.635894060E0,8.229515076E0
3.091246485E1,-7.477570772E-1,3.401397467E0,7.865806103E0
3.093209480E1,-4.217349887E-1,3.281157970E0,7.137789726E0
3.095210959E1,-6.616154313E-1,3.607180119E0,6.371488571E0
3.097173964E1,-9.870393276E-1,4.262813568E0,5.840281963E0
3.099156183E1,-1.226321578E0,4.804189682E0,5.711069584E0
3.101157657E1,-1.125823021E0,5.282754421E0,5.873781204E0
3.103120662E1,-8.721838593E-1,5.809773445E0,6.323632240E0
3.105122125E1,-8.099704385E-1,6.187839508E0,6.917650223E0
3.107085130E1,-6.855437160E-1,6.417550564E0,7.290930748E0
3.109067349E1,-5.515456200E-1,6.671787739E0,7.626523972E0
3.111049578E1,-4.121637046E-1,6.777071953E0,7.784450054E0
3.113031808E1,-1.495514158E-2,6.619145870E0,7.990232944E0
3.115033282E1,4.444667995E-1,6.364908218E0,8.550153732E0
3.116996282E1,1.081555843E0,6.053841114E0,9.776474953E0
3.118978506E1,1.268195987E0,5.824130535E0,1.119841003E1
3.120960740E1,1.272981644E0,5.804987907E0,1.182114220E1
3.122942969E1,1.752144337E0,5.871986866E0,1.125583744E1
3.124944448E1,1.862214208E0,5.709274769E0,1.008754253E1
3.126907443E1,9.762716293E-1,5.809773445E0,8.799605370E0
3.128889672E1,-3.403790295E-1,5.651846886E0,8.009375572E0
3.130868058E1,-1.197607756E0,5.096114159E0,7.904091358E0
3.132854125E1,-6.903293133E-1,4.095315933E0,8.042875290E0
3.134855610E1,-2.446661144E-1,3.439682484E0,8.239086151E0
3.136818610E1,-2.398804724E-1,3.626322746E0,7.932805061E0
3.138800844E1,-1.585244983E-1,4.119244099E0,7.214360237E0
3.140783068E1,-2.159522474E-1,4.540979385E0,6.385845661E0
3.142765297E1,-6.376872063E-1,4.895116806E0,6.122634888E0
3.144766782E1,-6.089733839E-1,4.971687317E0,6.337988853E0
3.146729782E1,-8.673982322E-2,4.818546772E0,6.337988853E0
3.148708172E1,-2.063809484E-1,4.861617565E0,5.849853039E0
3.150694235E1,-9.391828775E-1,5.301896572E0,5.418546677E0
3.152676469E1,-1.211964726E0,6.451049805E0,5.270191669E0
3.154677953E1,-1.786840320E0,7.859225750E0,5.514857769E0
3.156640953E1,-2.093121529E0,8.246863365E0,6.189633846E0
3.158623188E1,-1.427318692E0,7.878368378E0,7.573882103E0
3.160605412E1,-1.216750264E0,8.151150703E0,8.608179092E0
3.162587641E1,-2.145763636E0,8.950951576E0,8.895318031E0
3.164589131E1,-3.031706333E0,8.318648338E0,9.058030128E0
3.166552131E1,-3.615555048E0,6.671787739E0,9.239884377E0
3.168534365E1,-3.798007727E0,5.714060307E0,9.929615974E0
3.170516594E1,-2.768495798E0,5.704489231E0,1.111226845E1
3.172498823E1,-2.088335991E0,5.450251579E0,1.205563831E1
3.174500308E1,-1.671984792E0,5.536991596E0,1.348714447E1
3.176463308E1,1.956132501E-1,5.565705299E0,1.460279846E1
3.178445542E1,3.169293642E0,5.057828903E0,1.411466217E1
3.180427771E1,5.046463013E0,4.751547337E0,1.253898907E1
3.182410006E1,4.418945312E0,4.569693089E0,1.089691448E1
3.184411485E1,1.862214208E0,4.334598064E0,9.187242508E0
3.186374490E1,3.104687333E-1,3.755535126E0,7.559525013E0
3.188375969E1,-2.159522474E-1,3.089732170E0,6.366703033E0
3.190338974E1,-6.281159520E-1,2.946162939E0,5.845067501E0
3.192321198E1,-7.046862841E-1,3.218944550E0,5.744568825E0
3.194303427E1,-3.930211067E-1,3.607180119E0,5.725426197E0
3.196285657E1,-1.633101404E-1,4.195814610E0,5.341976643E0
3.198287141E1,-1.154536903E-1,4.785047054E0,4.844269276E0
3.200250141E1,-1.495514158E-2,5.311468124E0,4.365106583E0
3.202232370E1,1.142572835E-1,5.714060307E0,4.106681824E0
3.204214599E1,1.812563092E-1,5.781059742E0,4.173680782E0
3.206196828E1,2.386840582E-1,5.795416355E0,4.566701889E0
3.208198313E1,-5.982056609E-4,5.977271080E0,5.160121918E0
3.210161318E1,-3.882354796E-1,6.240481377E0,5.806782246E0
3.212143552E1,-2.398804724E-1,6.312266350E0,6.936792850E0
3.214125782E1,1.525424421E-1,6.106483459E0,8.373085022E0
3.216108011E1,5.264210105E-1,6.077769279E0,9.757332802E0
3.218109495E1,1.004985452E0,6.259624004E0,1.084427261E1
3.220072495E1,1.833500385E0,6.446264267E0,1.132762241E1
3.222054730E1,2.283350945E0,6.576074600E0,1.088255692E1
3.224036959E1,1.608574986E0,7.131209850E0,1.037468052E1
3.226015344E1,4.923232496E-1,8.347361565E0,1.058524895E1
3.228020672E1,6.939185858E-1,8.788239479E0,1.125105190E1
3.229983672E1,1.733001828E0,8.132007599E0,1.186899853E1
3.231965901E1,2.197209358E0,7.279564857E0,1.156690502E1
3.233944287E1,2.757728100E0,5.982056618E0,1.022632599E1
3.235949615E1,2.589632273E0,5.239683151E0,8.833105087E0
3.237931870E1,1.502692580E0,5.378467083E0,7.593024254E0
3.239907870E1,5.204389244E-2,5.656632900E0,6.807580471E0
3.241877042E1,-4.887340367E-1,5.383252621E0,6.496513367E0
3.243859282E1,-7.238288224E-2,4.837689400E0,6.486343861E0
3.245841516E1,5.934200287E-1,4.396811485E0,6.223133564E0
3.247843016E1,1.048056364E0,4.114458561E0,5.763711452E0
3.249806021E1,7.322037220E-1,4.205385685E0,5.236692429E0
3.251788250E1,-2.015953064E-1,4.765904427E0,4.609772682E0
3.253770485E1,-1.063609719E0,5.670989513E0,4.423132420E0
3.255752719E1,-1.595414519E0,6.489335060E0,4.983053207E0
3.257754203E1,-2.164906263E0,6.446264267E0,6.041278839E0
3.259717209E1,-1.849053741E0,5.910272121E0,7.156932354E0
3.261699438E1,-1.025324464E0,5.546562672E0,8.181658745E0
3.263681672E1,-8.673982322E-2,5.435894966E0,9.115457535E0
3.265663901E1,8.518448472E-1,5.685346603E0,9.838688850E0
3.267665386E1,1.201196909E0,6.499504566E0,1.036510944E1
3.269628391E1,8.949156404E-1,6.915855408E0,1.028853893E1
3.271629870E1,1.812563092E-1,6.777071953E0,9.426525116E0
3.273592875E1,-9.631111473E-2,6.331408501E0,8.751749039E0
3.275575099E1,4.540380836E-1,5.532206059E0,8.545368195E0
3.277553485E1,9.332008362E-1,5.177470207E0,8.947959900E0
3.279539552E1,8.422735929E-1,5.053043365E0,9.647262573E0
3.281541042E1,7.944171429E-1,4.651049137E0,9.632905960E0
3.283504042E1,6.987041831E-1,4.358526230E0,9.053244591E0
3.285486271E1,7.561319470E-1,4.243670940E0,8.344370842E0
3.287468500E1,8.614161611E-1,4.382454872E0,7.640881062E0
3.289450735E1,7.704889178E-1,4.631906509E0,6.965506554E0
3.291452209E1,5.694918036E-1,4.866403103E0,6.414559364E0
3.293415219E1,2.865405083E-1,4.952544689E0,5.845067501E0
3.295416698E1,1.381855011E-1,5.014758110E0,5.725426197E0
3.297379698E1,-5.802594870E-2,5.143970490E0,5.849853039E0
3.299361922E1,-2.733799815E-1,5.277968407E0,5.787639618E0
3.301363407E1,-1.776670814E-1,5.527420521E0,5.730212212E0
3.303339406E1,8.075776696E-2,5.967699528E0,5.983851433E0
3.305308578E1,4.205385745E-1,6.283552170E0,6.558726788E0
3.307290813E1,8.614161611E-1,6.226124287E0,7.051648140E0
3.309269209E1,1.153340459E0,5.967699528E0,7.319644451E0
3.311274542E1,1.680359721E0,5.991627693E0,7.640881062E0
3.313237547E1,2.762513638E0,6.431907177E0,8.593822479E0
3.315239037E1,3.633501291E0,6.614359856E0,9.541379929E0
3.317202037E1,4.026522160E0,5.958128452E0,1.037468052E1
3.319184266E1,4.103092670E0,4.770689964E0,1.104526901E1
3.321185745E1,3.725026608E0,4.334598064E0,1.092562866E1
3.323161745E1,3.035295486E0,4.660620213E0,1.007318497E1
3.325130922E1,1.962712765E0,5.344967365E0,8.938388824E0
3.327113162E1,1.019342422E0,6.001199245E0,7.875377655E0
3.329095401E1,1.618146300E0,5.627918720E0,7.204789162E0
3.331096896E1,2.364706993E0,5.067399979E0,7.003791809E0
3.333072896E1,2.015354872E0,5.182255745E0,7.018148899E0
3.335061391E1,1.311266780E0,5.599205017E0,7.367500782E0
3.337024391E1,1.272981644E0,5.714060307E0,7.602595806E0
3.339006620E1,1.795215130E0,5.465207100E0,7.472784996E0
3.341008105E1,1.953141451E0,5.340181828E0,7.147361279E0
3.342971105E1,1.613360643E0,5.498706341E0,6.664011002E0
3.344953328E1,1.450050473E0,5.656632900E0,5.744568825E0
3.346935563E1,1.608574986E0,5.752345562E0,4.820341110E0
3.348917792E1,1.143769264E0,6.015556335E0,4.264608383E0
3.350919271E1,1.716850251E-1,6.547360897E0,4.039682865E0
3.352882271E1,-5.946164131E-1,7.107281685E0,4.350749969E0
3.354883750E1,-1.034895778E0,7.351349354E0,5.212764263E0
3.356846750E1,-7.860422134E-1,7.207779884E0,6.587440968E0
3.358828974E1,-3.834498227E-1,6.949355125E0,8.373085022E0
3.360807360E1,-1.585244983E-1,6.987640381E0,9.800403595E0
3.362789584E1,-3.451646566E-1,7.327421188E0,1.074855900E1
3.364794906E1,-5.419743061E-1,7.792226791E0,1.123190975E1
3.366757907E1,-3.834498227E-1,8.036294937E0,1.082991505E1
3.368740136E1,-2.303091735E-1,8.452646255E0,1.040339470E1
3.370722365E1,-4.983053207E-1,9.324232101E0,1.021196842E1
3.372704594E1,-3.355933726E-1,9.453444481E0,1.058046341E1
3.374706084E1,8.566305041E-1,8.098507881E0,1.077727318E1
3.376669078E1,1.646860242E0,7.045068264E0,1.050867844E1
3.378651313E1,1.497906923E0,6.810571671E0,9.853045464E0
3.380633542E1,1.004985452E0,6.652645111E0,8.761320114E0
3.382615776E1,9.284151793E-1,6.364908218E0,7.736593723E0
3.384617256E1,9.714859724E-1,5.867201328E0,6.941578388E0
3.386580250E1,9.044869542E-1,5.335396290E0,6.151348591E0
3.388562490E1,1.004985452E0,5.053043365E0,5.476572990E0
3.390544719E1,1.043270707E0,4.995615482E0,4.853840828E0
3.392526943E1,9.475577474E-1,5.086542606E0,4.509274483E0
3.394528422E1,6.077769399E-1,5.287539959E0,4.269393921E0
3.396491427E1,1.477568001E-1,5.551348686E0,4.106681824E0
3.398473656E1,1.668993831E-1,5.675775528E0,4.259822369E0
3.400455886E1,5.264210105E-1,5.661418438E0,4.782055855E0
3.402438115E1,8.709874153E-1,5.728417397E0,5.346762180E0
3.404439594E1,1.201196909E0,5.800201893E0,5.907280922E0
3.406402599E1,6.077769399E-1,5.330610752E0,6.702296257E0
3.408384828E1,-1.159322619E0,5.666203976E0,7.467999458E0
3.410367058E1,-1.125823021E0,6.734001160E0,7.712665558E0
3.412349287E1,1.306481123E0,7.016354084E0,7.851449490E0
3.414350766E1,2.743371248E0,7.265207767E0,8.962317467E0
3.416313771E1,2.906083107E0,7.174280643E0,9.450452805E0
3.418296000E1,2.302493572E0,7.159923553E0,9.163313866E0
3.420278230E1,1.435693622E0,7.548159122E0,9.393025398E0
3.422260453E1,6.556333899E-1,7.691728592E0,9.436096191E0
3.424261938E1,4.827519655E-1,7.451848030E0,8.981459618E0
3.426224938E1,7.561319470E-1,7.231708050E0,7.755736351E0
3.428226417E1,5.264210105E-1,7.336992264E0,6.127420425E0
3.430189412E1,-3.547359705E-1,7.672585964E0,5.749354839E0
3.432171636E1,-5.126622319E-1,7.064210415E0,6.630511761E0
3.434173115E1,-9.152546525E-2,5.819344521E0,7.535596848E0
3.436136115E1,-1.585244983E-1,5.076971531E0,7.750950813E0
3.438137589E1,-8.482556343E-1,4.856831551E0,7.444071293E0
3.440100594E1,-1.853839397E0,5.057828903E0,7.295716286E0
3.442082808E1,-2.332403898E0,5.522634506E0,7.267002583E0
3.444061193E1,-1.221535921E0,5.599205017E0,6.860222340E0
3.446047261E1,1.190429255E-1,5.411966801E0,6.357131481E0
3.448048740E1,9.990034252E-2,5.465207100E0,5.806782246E0
3.450011735E1,-5.324030519E-1,5.991627693E0,5.303691387E0
3.451993964E1,-1.168893814E0,6.791429043E0,5.246263504E0
3.453976188E1,-1.250249863E0,7.356134892E0,5.586642742E0
3.455958417E1,-4.743770957E-1,7.475776196E0,6.640082836E0
3.457959901E1,2.386840582E-1,7.246065140E0,7.923233986E0
3.459922901E1,1.333998591E-1,7.025925636E0,8.904889107E0
3.461901282E1,-4.935196638E-1,7.073781967E0,9.192028046E0
3.463887349E1,-1.188036442E0,7.193423271E0,8.550153732E0
3.465869578E1,-1.767697692E0,7.336992264E0,7.875377655E0
3.467871058E1,-1.882553220E0,7.394420147E0,7.961519241E0
3.469834058E1,-7.525427341E-1,6.944569588E0,8.440083504E0
3.471812443E1,9.284151793E-1,6.743572235E0,8.435297966E0
3.473798511E1,1.646860242E0,7.250850677E0,8.081160545E0
3.475780740E1,1.517049551E0,7.940581799E0,7.607381344E0
3.477782224E1,1.201196909E0,8.433503151E0,7.569096088E0
3.479745219E1,1.651645780E0,8.136793137E0,8.267800331E0
3.481727448E1,1.862214208E0,7.174280643E0,8.751749039E0
3.483709677E1,1.483550072E0,6.063412666E0,8.589036942E0
3.485691906E1,7.800601721E-1,4.919044971E0,7.913662910E0
3.487693386E1,-5.126622319E-1,4.162314892E0,7.152146816E0
3.489656386E1,-1.863410592E0,3.554538012E0,6.659225464E0
3.491638615E1,-2.562114954E0,3.041875839E0,6.017350674E0
3.493620844E1,-2.538186550E0,2.922234535E0,5.672784328E0
3.495603068E1,-1.939980984E0,3.290729284E0,5.806782246E0
3.497604547E1,-1.374676585E0,3.865604877E0,6.170491219E0
3.499567552E1,-4.121637046E-1,4.502694130E0,6.424130440E0
3.501549776E1,6.317051649E-1,5.618347645E0,6.539584160E0
3.503532006E1,1.752144337E0,6.499504566E0,6.573083878E0
3.505514230E1,2.652443886E0,6.714858532E0,6.644868374E0
3.507515709E1,3.312862873E0,6.891927242E0,7.142575741E0
3.509478709E1,3.580859184E0,7.370491982E0,8.028517723E0
3.511453256E1,4.361517429E0,7.926225185E0,8.928817749E0
3.513443151E1,6.162116528E0,7.849654675E0,8.904889107E0
3.515425380E1,6.415755749E0,7.494918823E0,7.942376614E0
3.517426860E1,5.027320385E0,7.523632526E0,6.836294174E0
3.519389865E1,3.561716557E0,7.528418064E0,6.668796539E0
3.521391344E1,2.422134638E0,7.097710133E0,7.975875854E0
3.523354339E1,2.695514679E0,6.221338749E0,9.464810371E0
3.525336558E1,3.183650494E0,5.340181828E0,9.924830437E0
3.527318792E1,2.283350945E0,5.067399979E0,9.464810371E0
3.529301016E1,1.162911773E0,5.053043365E0,8.559724808E0
3.531302495E1,1.225125194E0,5.273182869E0,7.621738434E0
3.533265495E1,1.685145378E0,5.733202934E0,6.754938126E0
3.535266969E1,1.948355794E0,5.924628735E0,6.103492260E0
3.537229969E1,1.905285001E0,5.838487148E0,5.734997749E0
3.539212188E1,1.502692580E0,5.848058701E0,5.706283569E0
3.541213662E1,1.249053478E0,5.977271080E0,5.821139336E0
3.543176667E1,1.459621787E0,6.144768715E0,5.868995667E0
3.545158880E1,2.192423820E0,6.321837425E0,6.098706722E0
3.547137266E1,2.307279348E0,6.388836384E0,6.471987247E0
3.549123328E1,1.344766378E0,6.518647194E0,6.807580471E0
3.551124813E1,6.939185858E-1,6.786643028E0,7.176074982E0
3.553087808E1,8.662018180E-1,6.930212498E0,7.813164234E0
3.555066188E1,1.268195987E0,6.920641422E0,8.766105652E0
3.557052256E1,1.311266780E0,6.810571671E0,9.786046028E0
3.559030636E1,8.183453679E-1,6.901498795E0,1.013539886E1
3.561035959E1,5.018945336E-1,7.035496712E0,9.886545181E0
3.562998959E1,3.343969584E-1,7.083353043E0,9.690333366E0
3.564981183E1,2.530409992E-1,7.016354084E0,9.738189697E0
3.566963412E1,4.061816335E-1,6.958926678E0,1.044646549E1
3.568945636E1,4.827519655E-1,6.614359856E0,1.125105190E1
3.570947115E1,5.551348329E-1,5.637490273E0,1.090170002E1
3.572910115E1,3.822534084E-1,4.890331268E0,9.460023880E0
3.574911589E1,-8.626125455E-1,4.799404144E0,8.377870560E0
3.576874589E1,-2.303689957E0,4.861617565E0,7.942376614E0
3.578856813E1,-1.619342685E0,4.497908592E0,7.817949772E0
3.580858287E1,-1.872383654E-1,4.344169617E0,7.540382385E0
3.582821282E1,5.647061467E-1,4.828117847E0,6.970292568E0
3.584799667E1,9.475577474E-1,5.273182869E0,6.266204357E0
3.586785724E1,9.092726111E-1,5.460421085E0,5.687141418E0
3.588767948E1,5.264210105E-1,5.699703693E0,5.284548759E0
3.590769427E1,5.264210105E-1,5.766702652E0,5.193621635E0
3.592732427E1,8.614161611E-1,5.943771362E0,5.145765305E0
3.594733901E1,8.279166222E-1,6.374479294E0,5.050052166E0
3.596696896E1,4.827519655E-1,6.619145870E0,5.011766911E0
3.598679120E1,1.046859920E-1,6.724429607E0,5.442475319E0
3.600665188E1,-9.152546525E-2,6.767500877E0,6.036493301E0
3.602643573E1,1.956132501E-1,6.604788780E0,6.501298904E0
3.604645047E1,1.086341500E0,6.350551128E0,7.190432072E0
3.606608047E1,1.785643935E0,6.049055576E0,8.401798248E0
3.608590266E1,1.780858278E0,6.044270039E0,9.752547264E0
3.610572495E1,1.521835208E0,6.853642464E0,1.083948612E1
3.612554719E1,2.111067772E0,6.839285374E0,1.085862923E1
3.614556193E1,2.968296528E0,5.556134224E0,9.589237213E0
3.616519193E1,2.029711723E0,5.388038158E0,8.133802414E0
3.618501417E1,5.742774606E-1,6.163911343E0,7.113861561E0
3.620483641E1,8.554340899E-2,6.801000118E0,7.099504948E0
3.622465865E1,7.513462901E-1,6.628716946E0,8.157731056E0
3.624467344E1,1.823929071E0,5.948556900E0,9.445667267E0
3.626430339E1,2.235494614E0,5.809773445E0,9.829116821E0
3.628412563E1,2.642872572E0,5.967699528E0,9.139386177E0
3.630394787E1,2.863012314E0,5.924628735E0,8.114660263E0
3.632377016E1,2.173281193E0,5.560919762E0,7.094718933E0
3.634378495E1,1.450050473E0,5.268397331E0,6.074778557E0
3.636341490E1,1.091127157E0,5.187041283E0,5.246263504E0
3.638342964E1,9.188438654E-1,5.508277893E0,4.801198483E0
3.640305959E1,5.790630579E-1,5.733202934E0,4.466203690E0
3.642288177E1,1.381855011E-1,5.709274769E0,3.977469444E0
3.644289646E1,-3.308077157E-1,5.560919762E0,3.613760471E0
3.646252651E1,-9.200403094E-1,5.843272686E0,3.451048374E0
3.648234870E1,-1.283749342E0,6.652645111E0,4.068396568E0
3.650217094E1,-1.302891970E0,7.360920429E0,5.868995667E0
3.652199318E1,-1.030110121E0,7.883154392E0,8.397012711E0
3.654200797E1,-4.408775866E-1,7.816154957E0,1.055653572E1
3.656163792E1,-3.738785386E-1,7.600800991E0,1.143769264E1
3.658146011E1,-7.286145091E-1,7.600800991E0,1.124148083E1
3.660128235E1,-1.130608678E0,7.447062492E0,1.107876873E1
3.662110459E1,-9.439685345E-1,6.681358814E0,1.071506023E1
3.664111938E1,-3.116651475E-1,6.509075642E0,9.924830437E0
3.666074933E1,-6.855437160E-1,7.499704361E0,8.871390343E0
3.668057156E1,-1.063609719E0,7.849654675E0,8.081160545E0
3.670039381E1,-2.590230405E-1,7.494918823E0,8.320442200E0
3.672021604E1,4.253242314E-1,7.140780926E0,9.177671432E0
3.674023084E1,5.312066078E-1,7.049853802E0,9.507881165E0
3.675986078E1,7.657032609E-1,7.226922512E0,9.254241943E0
3.677987552E1,1.115055323E0,7.461419106E0,8.507082939E0
3.679950547E1,1.335195065E0,7.394420147E0,7.636095047E0
3.681932766E1,1.478764415E0,6.973283291E0,7.123433113E0
3.683914990E1,1.507478237E0,6.403193474E0,6.702296257E0
3.685897214E1,1.397408366E0,6.025127411E0,6.428916454E0
3.687898693E1,1.536192179E0,5.929414749E0,6.433701992E0
3.689861683E1,1.210768223E0,5.857629776E0,6.093921185E0
3.691843906E1,2.530409992E-1,5.938985825E0,5.423332691E0
3.693826131E1,-3.403790295E-1,5.943771362E0,4.853840828E0
3.695808354E1,-3.786641955E-1,5.479563713E0,4.595416069E0
3.697809834E1,-1.106680483E-1,5.541777134E0,4.849055290E0
3.699772828E1,4.971089065E-1,6.412764549E0,5.864210129E0
3.701755047E1,1.594218135E0,6.786643028E0,6.481558323E0
3.703737271E1,2.551347256E0,6.944569588E0,6.640082836E0
3.705719495E1,2.685943365E0,7.389634609E0,6.960721016E0
3.707720974E1,2.815155745E0,7.351349354E0,7.865806103E0
3.709683969E1,3.427718401E0,6.455835342E0,8.684749603E0
3.711666193E1,3.317648649E0,6.034698486E0,8.895318031E0
3.713648417E1,2.388635159E0,6.681358814E0,8.497511864E0
3.715649891E1,1.776072621E0,7.121638298E0,8.306085587E0
3.717632136E1,1.584646821E0,6.934998035E0,8.526225090E0
3.719595130E1,1.996212244E0,6.259624004E0,8.809176445E0
3.721577349E1,2.005783558E0,5.833701611E0,8.636893272E0
3.723559568E1,1.210768223E0,5.924628735E0,7.750950813E0
3.725541792E1,4.588237405E-1,6.369693756E0,6.654439926E0
3.727543266E1,5.162515044E-1,6.695715904E0,6.060421467E0
3.729506256E1,1.359123230E0,6.767500877E0,6.208776474E0
3.731484636E1,2.283350945E0,6.820142746E0,6.750152588E0
3.733470698E1,2.681157827E0,6.547360897E0,6.908079147E0
3.735472172E1,2.676372051E0,6.187839508E0,6.347560406E0
3.737454412E1,2.211566210E0,6.226124287E0,5.217549801E0
3.739417412E1,1.344766378E0,6.455835342E0,4.001397610E0
3.741395792E1,5.407779217E-1,6.867999077E0,3.393620729E0
3.743381844E1,6.640082598E-2,7.121638298E0,3.354737282E0
3.745356380E1,-3.690928817E-1,7.284350395E0,3.843471289E0
3.747365526E1,-7.908278704E-1,7.494918823E0,4.738985062E0
3.749328526E1,-6.759724021E-1,7.418348312E0,5.495715618E0
3.751310745E1,2.195414752E-1,7.289135933E0,5.801996708E0
3.753292969E1,8.757730722E-1,7.643871784E0,6.371488571E0
3.755275193E1,2.721835673E-1,7.931010723E0,8.062017441E0
3.757276667E1,-2.398804724E-1,7.811369419E0,9.819545746E0
3.759239662E1,2.865405083E-1,7.567301750E0,1.053739262E1
3.761210375E1,1.196411371E0,7.480561733E0,1.018325520E1
3.763204089E1,1.881356835E0,7.317849636E0,9.436096191E0
3.765186318E1,1.914856315E0,6.915855408E0,9.110671997E0
3.767187802E1,1.172483087E0,6.623931408E0,8.900103569E0
3.769150797E1,1.764706671E-1,6.350551128E0,8.550153732E0
3.771152266E1,-4.695914388E-1,6.135197163E0,8.425726891E0
3.773115261E1,-3.643072546E-1,5.938985825E0,8.330014229E0
3.775097480E1,2.961117923E-1,5.546562672E0,8.028517723E0
3.777079709E1,7.896314859E-1,5.210969448E0,7.243073940E0
3.779061922E1,1.091127157E0,5.206183910E0,6.194419384E0
3.781063401E1,7.800601721E-1,5.407180786E0,5.596213818E0
3.783026391E1,-2.685943544E-1,5.277968407E0,5.835496426E0
3.785008615E1,-7.956135273E-1,4.971687317E0,6.055635929E0
3.786990839E1,-6.664010882E-1,5.005186558E0,5.892923832E0
3.788973058E1,-2.685943544E-1,5.392824173E0,5.600999832E0
3.790974537E1,-1.058823988E-1,5.843272686E0,5.811567783E0
3.792937526E1,-9.152546525E-2,6.168696880E0,6.496513367E0
3.794939000E1,1.190429255E-1,6.259624004E0,7.176074982E0
3.796901990E1,9.044869542E-1,5.771488190E0,7.477570534E0
3.798884209E1,1.565504193E0,5.311468124E0,7.583453178E0
3.800885677E1,1.713859200E0,5.580062389E0,7.770093441E0
3.802848672E1,1.876571178E0,5.986842155E0,8.095517159E0
3.804830891E1,2.216351986E0,6.154339790E0,8.962317467E0
3.806813110E1,3.059223652E0,6.144768715E0,9.714262009E0
3.808795328E1,4.189234257E0,6.072983742E0,9.853045464E0
3.810796802E1,4.375874519E0,6.345765591E0,9.239884377E0
3.812759797E1,3.815953970E0,6.930212498E0,8.646464348E0
3.814761266E1,2.863012314E0,7.155138016E0,8.636893272E0
3.816724261E1,2.479562521E0,6.614359856E0,9.024530411E0
3.818706480E1,3.068794966E0,5.297111034E0,9.282955170E0
3.820707943E1,2.560918331E0,4.708476543E0,8.742177963E0
3.822670938E1,8.853443861E-1,5.024329185E0,7.861020565E0
3.824653146E1,-5.850451589E-1,5.311468124E0,7.415357590E0
3.826635370E1,-8.769695163E-1,5.349753380E0,7.444071293E0
3.828617594E1,-3.068794906E-1,5.206183910E0,7.520641804E0
3.830619063E1,2.817548811E-1,5.029115200E0,7.410571575E0
3.832582058E1,5.934200287E-1,4.856831551E0,6.774080753E0
3.834583526E1,3.008974493E-1,5.072185993E0,6.060421467E0
3.836559526E1,-8.673982322E-2,5.714060307E0,6.151348591E0
3.838524823E1,-5.802594870E-2,6.034698486E0,6.471987247E0
3.840530162E1,2.482553422E-1,6.005984783E0,6.223133564E0
3.842493146E1,1.429711580E-1,6.297909260E0,6.160920143E0
3.844471532E1,-4.887340367E-1,6.801000118E0,6.683153629E0
3.846457594E1,-8.147560954E-1,6.805785656E0,7.688737392E0
3.848459078E1,-3.595215976E-1,6.360122681E0,8.589036942E0
3.850441328E1,1.668993831E-1,6.154339790E0,9.608977318E0
3.852404318E1,2.482553422E-1,6.360122681E0,1.009232807E1
3.854405787E1,-1.202393398E-1,6.643074036E0,9.843474388E0
3.856368776E1,-2.494517565E-1,6.786643028E0,9.412167549E0
3.858350990E1,-1.393819153E-1,6.891927242E0,8.938388824E0
3.860333209E1,-7.716853172E-2,6.810571671E0,8.622536659E0
3.862315433E1,-2.255235314E-1,6.647859573E0,8.871390343E0
3.864316901E1,-2.829512656E-1,6.312266350E0,1.014018440E1
3.866279896E1,3.008974493E-1,5.556134224E0,1.144247818E1
3.868262110E1,6.508477330E-1,5.273182869E0,1.151426220E1
3.870244334E1,5.114658475E-1,5.416752338E0,1.025503922E1
3.872222709E1,4.061816335E-1,5.383252621E0,8.699107170E0
3.874228021E1,2.386840582E-1,5.234897614E0,7.525427341E0
3.876191011E1,-7.238288224E-2,4.832903385E0,6.678368092E0
3.878173235E1,-2.350948304E-1,4.363312244E0,6.041278839E0
3.880151610E1,-4.217349887E-1,4.152743816E0,5.385047436E0
3.882137667E1,-6.041877270E-1,4.488337040E0,5.054837704E0
3.884139146E1,-5.659025311E-1,4.971687317E0,4.820341110E0
3.886115146E1,-3.978067636E-1,5.325825214E0,4.667200565E0
3.888080433E1,-3.212364316E-1,5.560919762E0,4.777270317E0
3.890062667E1,-3.355933726E-1,5.570491314E0,5.260620594E0
3.892048740E1,-1.776670814E-1,5.785845280E0,5.739783287E0
3.894050240E1,1.854437590E-2,6.331408501E0,6.203990936E0
3.896013230E1,5.647061467E-1,6.609574318E0,7.066005230E0
3.897995459E1,1.488335729E0,6.340980053E0,8.176873207E0
3.899977683E1,2.048854351E0,6.058627129E0,9.196813583E0
3.901959906E1,1.488335729E0,6.307480335E0,9.608977318E0
3.903961386E1,1.306481123E0,6.197410583E0,9.311669350E0
3.905924380E1,1.919641972E0,5.589633465E0,8.632107735E0
3.907906599E1,1.009771109E0,5.670989513E0,7.894520283E0
3.909888818E1,-4.073780477E-1,6.474977970E0,7.655237675E0
3.911867193E1,-9.678967595E-1,6.987640381E0,8.574680328E0
3.913872511E1,-3.116651475E-1,6.431907177E0,1.003968525E1
3.915835506E1,7.465606928E-1,5.177470207E0,1.125583744E1
3.917813880E1,1.263410330E0,4.301098824E0,1.150947666E1
3.919799943E1,1.201196909E0,4.037888050E0,1.045603657E1
3.921782162E1,6.652047038E-1,4.100101471E0,9.000602722E0
3.923783641E1,-2.015953064E-1,4.253242016E0,7.770093441E0
3.925746630E1,-5.324030519E-1,4.167100430E0,7.066005230E0
3.927728849E1,-2.446661144E-1,3.946960926E0,6.865008354E0
3.929711068E1,1.238285750E-1,3.750749588E0,6.845865726E0
3.931693287E1,4.205385745E-1,3.755535126E0,6.769295216E0
3.933694766E1,7.082754970E-1,3.970889091E0,6.433701992E0
3.935657750E1,5.359922647E-1,4.171886444E0,5.912066460E0
3.937659219E1,1.668993831E-1,4.584050179E0,5.754140377E0
3.939622214E1,-1.154536903E-1,4.875974178E0,6.160920143E0
3.941604427E1,-4.217349887E-1,5.062614441E0,7.099504948E0
3.943586646E1,-6.233302951E-1,5.206183910E0,8.473583221E0
3.945568865E1,-8.338986635E-1,5.249254704E0,9.920044899E0
3.947570334E1,-6.855437160E-1,5.435894966E0,1.093519974E1
3.949533318E1,-1.489532143E-1,5.426323414E0,1.154297638E1
3.951515542E1,2.913261652E-1,5.330610752E0,1.180199909E1
3.953517006E1,5.934200287E-1,5.067399979E0,1.137069321E1
3.955479995E1,3.535395563E-1,5.038686275E0,1.043210888E1
3.957481464E1,-4.695914388E-1,5.536991596E0,9.541379929E0
3.959444453E1,-9.535398483E-1,5.627918720E0,9.254241943E0
3.961426667E1,-6.520441771E-1,4.852046013E0,9.886545181E0
3.963408881E1,-5.659025311E-1,3.884747505E0,1.071027374E1
3.965391104E1,-1.006181955E0,3.492324591E0,1.105005455E1
3.967392568E1,-1.379462242E0,3.640679598E0,1.099262714E1
3.969355558E1,-1.566700578E0,3.899104595E0,1.095912743E1
3.971333933E1,-1.317248821E0,3.918246984E0,1.080598736E1
3.973319985E1,-7.190431952E-1,3.836891174E0,1.021675491E1
3.975302209E1,-4.983053207E-1,4.157529354E0,9.105886459E0
3.977303677E1,-7.238288522E-1,4.761118889E0,7.937591076E0
3.979266662E1,-8.291130662E-1,5.048257351E0,6.860222340E0
3.981248886E1,-9.248259664E-1,5.076971531E0,6.156134605E0
3.983231105E1,-8.865407705E-1,5.191826820E0,6.036493301E0
3.985213323E1,-4.695914388E-1,5.220541000E0,6.189633846E0
3.987214792E1,7.118647546E-2,5.206183910E0,6.659225464E0
3.989177782E1,4.827519655E-1,5.330610752E0,6.984649181E0
3.991160000E1,8.470591903E-1,5.608776093E0,7.286144733E0
3.993142219E1,9.523434043E-1,5.934200287E0,7.655237675E0
3.995120589E1,1.024128079E0,5.891129494E0,8.286943436E0
3.997125901E1,1.579861164E0,5.527420521E0,8.947959900E0
3.999088891E1,2.383849621E0,5.292325497E0,1.008754253E1
4.001071104E1,3.044866800E0,5.120042324E0,1.120798111E1
4.003053323E1,3.768097401E0,4.718048096E0,1.113619614E1
4.005035542E1,3.930809498E0,4.512265205E0,9.800403595E0
4.007033162E1,3.040081263E0,5.014758110E0,8.267800331E0
4.009000000E1,1.742573142E0,5.919843197E0,7.674380302E0
4.010982219E1,1.148554921E0,6.010770321E0,8.315656662E0
4.012964438E1,2.178066730E0,4.837689400E0,9.853045464E0
4.014946651E1,2.810370207E0,3.966103554E0,1.117926693E1
4.016948125E1,2.005783558E0,4.100101471E0,1.169192982E1
4.018911115E1,1.138983607E0,4.430909157E0,1.109791183E1
4.020912584E1,7.226324677E-1,4.679762840E0,9.934401512E0
4.022875573E1,3.290131316E-2,5.134399414E0,8.876175880E0
4.024857782E1,-4.935196638E-1,5.474778175E0,7.913662910E0
4.026836156E1,-5.515456200E-1,5.368896008E0,6.984649181E0
4.028822214E1,-4.791627228E-1,5.325825214E0,6.304489613E0
4.030823688E1,-5.324030519E-1,5.426323414E0,5.892923832E0
4.032786672E1,-6.281159520E-1,5.455037594E0,5.725426197E0
4.034768891E1,-8.530412912E-1,5.402395248E0,5.706283569E0
4.036751104E1,-1.470389485E0,5.378467083E0,5.524429321E0
4.038733323E1,-1.963909149E0,5.503491879E0,5.255835056E0
4.040734792E1,-1.973480463E0,5.843272686E0,5.577071190E0
4.042697782E1,-1.614557028E0,6.087340832E0,6.702296257E0
4.044680000E1,-1.001396298E0,5.982056618E0,7.975875854E0
4.046662214E1,-3.068794906E-1,5.761917114E0,8.675178528E0
4.048644433E1,-1.298106313E-1,5.828916073E0,9.038887978E0
4.050645901E1,-4.839483798E-1,6.283552170E0,9.440881729E0
4.052608891E1,-5.946164131E-1,6.528218269E0,9.349954605E0
4.054610354E1,-3.834498227E-1,6.600003242E0,8.924032211E0
4.056573344E1,-4.695914388E-1,7.145566463E0,8.507082939E0
4.058551714E1,-4.504488707E-1,7.097710133E0,8.406583786E0
4.060557016E1,-3.690928817E-1,6.379265308E0,8.540582657E0
4.062520000E1,-4.025924206E-1,5.623133183E0,8.627322197E0
4.064498370E1,-6.137589812E-1,5.344967365E0,8.756534576E0
4.066484427E1,-7.908278704E-1,5.594419479E0,8.656036377E0
4.068466641E1,-3.164508045E-1,5.608776093E0,8.162516594E0
4.070468115E1,3.918247223E-1,5.340181828E0,7.348358154E0
4.072431104E1,6.699903607E-1,5.129613400E0,6.371488571E0
4.074432568E1,4.061816335E-1,5.019543648E0,5.553143024E0
4.076395558E1,1.142572835E-1,5.038686275E0,4.877768993E0
4.078377766E1,-1.202393398E-1,5.120042324E0,4.317250252E0
4.080379230E1,-4.935196638E-1,5.397609711E0,4.154538155E0
4.082342219E1,-9.152546525E-1,5.843272686E0,4.514060020E0
4.084324433E1,-9.822536707E-1,6.154339790E0,5.241477966E0
4.086306646E1,-5.030909777E-1,6.183053493E0,5.974279881E0
4.088285016E1,4.247260094E-2,6.230910301E0,6.539584160E0
4.090290328E1,2.003988922E-1,6.350551128E0,6.994220734E0
4.092253313E1,1.908276081E-1,6.427121639E0,7.477570534E0
4.094254782E1,6.125625968E-1,6.504290104E0,8.038089752E0
4.096217766E1,1.512263894E0,6.700501442E0,8.737391472E0
4.098199980E1,2.091925144E0,6.982854843E0,9.637691498E0
4.100201443E1,1.881356835E0,7.394420147E0,1.052303600E1
4.102164427E1,2.063211441E0,7.749155998E0,1.136112213E1
4.104165891E1,3.126222849E0,8.084151268E0,1.131326580E1
4.106128881E1,3.949951887E0,8.797810555E0,1.053260708E1
4.108111089E1,3.969094515E0,9.113663673E0,9.536594391E0
4.110089459E1,3.633501291E0,8.242077827E0,8.349156380E0
4.112075511E1,3.571287870E0,6.714858532E0,7.626523972E0
4.114076980E1,3.432504177E0,5.580062389E0,7.137789726E0
4.116039964E1,3.135794163E0,5.287539959E0,6.620940208E0
4.118022177E1,2.297708035E0,5.474778175E0,6.573083878E0
4.120004396E1,1.435693622E0,5.460421085E0,6.922435760E0
4.121982766E1,1.378265858E0,4.962115765E0,7.070790768E0
4.123988078E1,1.728216171E0,4.536193371E0,6.979863644E0
4.125951063E1,1.881356835E0,4.627120972E0,6.515655994E0
4.127933282E1,1.599003673E0,5.072185993E0,5.639284611E0
4.129915495E1,6.795616150E-1,5.766702652E0,4.863411903E0
4.131897709E1,1.860419661E-1,6.547360897E0,4.413561344E0
4.133899183E1,7.465606928E-1,7.064210415E0,4.159324169E0
4.135862167E1,1.033699393E0,7.658228874E0,4.226323128E0
4.137844386E1,5.114658475E-1,8.337790489E0,4.676771641E0
4.139826604E1,2.913261652E-1,8.538787842E0,5.265406132E0
4.141804974E1,3.152543902E-1,8.486145973E0,6.069993019E0
4.143810282E1,4.157529473E-1,8.419146538E0,6.467201233E0
4.145773266E1,5.742774606E-1,8.467002869E0,6.510870457E0
4.147755485E1,4.588237405E-1,8.553144455E0,6.764509678E0
4.149737698E1,3.296113312E-1,8.500502586E0,7.123433113E0
4.151719917E1,9.990034252E-2,8.218149185E0,7.185646534E0
4.153721391E1,-7.190431952E-1,8.232506752E0,7.209574699E0
4.155684370E1,-1.049252748E0,7.998009682E0,7.247859955E0
4.157662750E1,-8.865407705E-1,7.313064098E0,7.415357590E0
4.159648797E1,-1.130608678E0,6.949355125E0,7.707880020E0
4.161631016E1,-1.518245935E0,6.743572235E0,7.908876896E0
4.163632485E1,-1.581057549E0,6.657430649E0,8.042875290E0
4.165595474E1,-1.628913999E0,6.777071953E0,8.148159027E0
4.167573844E1,-1.537388563E0,6.576074600E0,8.076375008E0
4.169559896E1,-1.365105271E0,6.288337708E0,7.549953461E0
4.171542120E1,-1.805982947E0,6.465406895E0,6.884150982E0
4.173543589E1,-1.963909149E0,7.131209850E0,6.342774391E0
