"Time (s)","Acceleration x (m/s^2)","Acceleration y (m/s^2)","Acceleration z (m/s^2)"
0.000000000E0,3.253584355E-2,6.397439003E0,7.722958565E0
0.000000000E0,-1.697655171E-1,6.513552666E0,6.088985920E0
0.000000000E0,-8.030046225E-1,6.465670586E0,6.754545689E0
0.000000000E0,-1.186060429E0,6.204714298E0,8.119181633E0
0.000000000E0,-1.085508347E0,6.076629639E0,8.989437103E0
0.000000000E0,-5.228950381E-1,5.773776054E0,7.005926132E0
0.000000000E0,-5.769744515E-3,5.511622906E0,4.180889130E0
0.000000000E0,-1.090296507E0,6.105359077E0,5.836408615E0
1.865850700E-2,-1.330903411E0,6.746977329E0,7.162739754E0
3.854303800E-2,-5.815504789E-1,6.593755245E0,6.199114323E0
5.843527800E-2,-3.158055544E-1,6.408212662E0,5.458140850E0
7.831819500E-2,-7.639566064E-2,6.240625858E0,6.258966923E0
9.822152800E-2,-1.293794870E0,6.610513687E0,7.150769234E0
1.181217360E-1,-1.651712656E0,7.404157639E0,7.973141670E0
1.379748610E-1,-1.554751635E0,7.429295540E0,7.852239609E0
1.578370490E-1,-1.195636868E0,7.552591801E0,8.016235352E0
1.777272050E-1,-4.750131369E-1,7.471192360E0,7.942018509E0
1.976200180E-1,-3.217907548E-1,7.507103920E0,7.616421223E0
2.174926220E-1,-9.023597836E-1,7.622020721E0,7.574523926E0
2.373929340E-1,-1.540387034E0,7.484359741E0,8.303527832E0
2.573914760E-1,-1.481731653E0,7.182703018E0,9.704074860E0
2.772492880E-1,-5.432448983E-1,7.121653557E0,1.180370045E1
2.970735590E-1,4.690043256E-2,7.219811916E0,1.183721733E1
3.169729340E-1,-4.048417509E-2,7.508300781E0,9.908771515E0
3.368040280E-1,-2.655294538E-1,7.416128159E0,8.278389931E0
3.566919450E-1,-4.821953773E-1,6.541085243E0,8.322680473E0
3.766604860E-1,-2.954556942E-1,5.101034641E0,9.215679169E0
3.965323610E-1,4.407296777E-1,3.908773184E0,9.741184235E0
4.164164240E-1,9.734166265E-1,3.741186142E0,8.952327728E0
4.363011630E-1,6.717602015E-1,4.115862846E0,7.931244850E0
4.561074130E-1,-6.921336055E-2,4.277464867E0,8.217340469E0
4.760037150E-1,-1.654319465E-2,4.184094429E0,8.147911072E0
4.959541840E-1,5.903608203E-1,4.090724945E0,7.045428753E0
5.159101740E-1,8.908202648E-1,3.956655264E0,5.848379135E0
5.358323610E-1,1.307393312E0,3.741186142E0,5.510810852E0
5.556739240E-1,1.029677868E0,3.682530642E0,6.920935631E0
5.755187680E-1,3.856654167E-1,4.033266544E0,8.047358513E0
5.953651740E-1,-5.604581535E-2,4.653338432E0,7.456016541E0
6.151829340E-1,-4.331163764E-1,5.153704643E0,6.555835247E0
6.351379340E-1,-6.246442199E-1,5.344035625E0,6.524712086E0
6.550946530E-1,-1.374451816E-1,5.383538246E0,6.604914188E0
6.749812680E-1,4.012270570E-1,5.423040867E0,6.318819523E0
6.948073610E-1,3.976358771E-1,5.773776054E0,6.138064861E0
7.146943400E-1,-3.984019160E-1,6.001215935E0,7.094507694E0
7.346122570E-1,-7.515314817E-1,5.992835999E0,8.144319534E0
7.545093400E-1,-2.667264938E-1,5.868343353E0,9.004998207E0
7.743540280E-1,7.699182630E-1,5.309321404E0,9.494590759E0
7.941575700E-1,1.364851713E0,5.121384144E0,9.447907448E0
8.141351740E-1,7.399920225E-1,5.870737076E0,9.505365372E0
8.340914240E-1,-4.766647518E-2,7.290437698E0,1.027626514E1
8.539270490E-1,-1.443426013E0,7.510694504E0,1.014099789E1
8.737949650E-1,-1.540387034E0,6.690716267E0,1.047617245E1
8.937072050E-1,-4.007959962E-1,5.840811253E0,1.190664577E1
9.135487150E-1,4.383355379E-1,5.318897724E0,1.262846661E1
9.334474130E-1,1.133821249E0,4.893945217E0,1.204670143E1
9.533271010E-1,1.182900190E0,4.759875774E0,1.040315247E1
9.732849130E-1,6.214841604E-1,5.062729359E0,8.692567825E0
9.932506430E-1,4.690043256E-2,5.456558228E0,7.368631363E0
1.012982830E0,-3.809008002E-2,5.300941467E0,7.219000340E0
1.032785434E0,1.689994633E-1,4.485751152E0,7.444046021E0
1.052671320E0,4.335473776E-1,3.860891104E0,7.147177696E0
1.072557622E0,6.365912408E-2,3.743580103E0,6.622869968E0
1.092453924E0,-3.193966746E-1,4.118257046E0,6.177567482E0
1.112339340E0,-5.623976588E-1,4.204444408E0,5.649669170E0
1.132295226E0,-8.856009841E-1,4.208035469E0,5.480885029E0
1.152272205E0,-1.046005726E0,4.635382175E0,5.671215534E0
1.172085851E0,-8.903892636E-1,5.000482082E0,5.814861774E0
1.191679809E0,-2.224356979E-1,4.934644699E0,6.045892239E0
1.211557778E0,4.330927879E-2,5.011255741E0,6.674343109E0
1.231651476E0,-3.912196159E-1,5.389523506E0,7.517066002E0
1.251618976E0,-6.916790009E-1,5.924604893E0,8.593213081E0
1.271581111E0,-5.875357389E-1,6.434547901E0,8.925992966E0
1.291394445E0,-7.204082012E-1,6.763736248E0,9.498183250E0
1.311208924E0,-9.239066243E-1,6.906185150E0,9.443118095E0
1.331139913E0,-1.031641006E0,7.122851372E0,9.288699150E0
1.351043611E0,-1.153740168E0,6.994766712E0,9.409601212E0
1.370884809E0,-6.952701807E-1,7.017510891E0,1.047258091E1
1.390949132E0,-1.067552567E0,6.460882664E0,1.024035263E1
1.410834080E0,-1.067552567E0,6.460882664E0,1.024035263E1
1.430591580E0,-1.364420772E0,6.426167965E0,9.204905510E0
1.450550278E0,-1.848028779E0,6.123314857E0,8.595606804E0
1.470438299E0,-1.652909636E0,5.468528748E0,8.686582565E0
1.490294965E0,-1.000517845E0,4.667702675E0,9.712453842E0
1.510043976E0,-4.510720968E-1,3.842935562E0,1.138353539E1
1.529887465E0,4.330927879E-2,3.287504435E0,1.132847118E1
1.549903247E0,6.238782406E-1,3.506564379E0,9.590354919E0
1.569782986E0,7.232333422E-1,4.017704964E0,7.639164925E0
1.589441268E0,1.259056926E-1,4.251129627E0,6.817988873E0
1.609375747E0,-5.181068778E-1,4.455824852E0,6.142853260E0
1.629461788E0,-7.994135022E-1,4.691643715E0,5.668821335E0
1.649344497E0,-6.725262403E-1,4.729948997E0,5.940552235E0
1.669186580E0,-5.623976588E-1,4.788604736E0,6.479224205E0
1.689032309E0,-2.188445479E-1,4.865215778E0,5.946537018E0
1.708924757E0,2.444135696E-1,4.813742638E0,5.084661484E0
1.728878195E0,5.305083990E-1,4.823319435E0,4.754276276E0
1.748745695E0,7.340067625E-1,5.068714142E0,4.844054699E0
1.768560122E0,6.964436918E-2,5.618159771E0,5.738250732E0
1.788464549E0,-7.371669412E-1,6.265763760E0,7.435666561E0
1.808340851E0,-1.229154348E0,6.413000584E0,8.109605789E0
1.828277830E0,-6.461911201E-1,6.541085243E0,8.241280556E0
1.848300747E0,-1.051248461E-1,6.638046265E0,8.505828857E0
1.868184705E0,5.288567767E-2,6.555449486E0,9.136673927E0
1.887999393E0,1.091469973E-1,6.418985844E0,1.015057373E1
1.907873559E0,-1.218835413E-1,6.488414764E0,1.167800903E1
1.927698820E0,1.833640635E-1,7.168338776E0,1.219633198E1
1.947600330E0,9.119125456E-2,7.288043499E0,1.076944923E1
1.967487309E0,-2.954556942E-1,6.729021549E0,1.008593369E1
1.987125903E0,-3.529140949E-1,5.549928188E0,1.133086491E1
2.007000122E0,3.880594969E-1,4.556377411E0,1.249918461E1
2.027115799E0,9.339140058E-1,3.540081978E0,1.256861401E1
2.047070903E0,1.474980354E0,2.977468729E0,1.184918785E1
2.066931320E0,1.787410259E0,3.222863913E0,1.091429234E1
2.086754549E0,1.169732690E0,3.637042999E0,9.769912720E0
2.106604549E0,1.438614279E-1,3.813009262E0,8.212551117E0
2.126566840E0,-4.151605964E-1,3.635845900E0,7.362646580E0
2.146465590E0,-3.205937147E-1,3.361721516E0,6.906570435E0
2.166517361E0,-1.534613222E-2,3.348553896E0,6.208691120E0
2.186478872E0,-8.118385077E-2,3.501776457E0,5.130149364E0
2.206117257E0,-8.238090575E-2,3.889620543E0,4.407131672E0
2.225979965E0,-3.569597006E-2,4.282252789E0,4.681255817E0
2.245863507E0,1.845611036E-1,4.561165333E0,5.296539307E0
2.265689184E0,4.215768576E-1,4.525253773E0,5.648471832E0
2.285583924E0,3.246158957E-1,4.484554291E0,5.470111370E0
2.305527257E0,2.264578342E-1,4.725161076E0,4.775823116E0
2.325475851E0,2.875073552E-1,5.047167301E0,5.443776608E0
2.345335330E0,3.701037765E-1,5.013650417E0,7.745702744E0
2.365191632E0,5.125526190E-1,5.262636185E0,9.677740097E0
2.385067257E0,5.005821586E-1,5.895874977E0,1.045103359E1
2.404971736E0,-1.458245069E-1,6.597346306E0,1.031696415E1
2.424868507E0,-1.296189070E0,7.188688755E0,1.105913544E1
2.444697101E0,-1.812117338E0,7.238964558E0,1.220949936E1
2.464613872E0,-1.253095150E0,7.309590816E0,1.309052849E1
2.484491580E0,-1.022064686E0,6.187955379E0,1.378481579E1
2.504316632E0,-5.085304976E-1,5.354809284E0,1.359089375E1
2.524158663E0,-1.431455493E0,5.263833046E0,1.260811710E1
2.544110070E0,-2.018009663E0,5.545139790E0,1.245010567E1
2.564054653E0,-1.448214293E0,5.013650417E0,1.252791500E1
2.583884288E0,-5.851415992E-1,3.749565363E0,1.141585636E1
2.603763195E0,1.366791278E-1,2.800305367E0,9.488606453E0
2.623613247E0,4.191827774E-1,2.772773266E0,8.383729935E0
2.643568351E0,1.522407830E-1,3.303066254E0,7.822313309E0
2.663479184E0,-2.008887976E-1,3.808220863E0,6.777289391E0
2.683307309E0,-2.523618937E-1,3.925531626E0,5.632910252E0
2.703209028E0,1.342850327E-1,3.790265322E0,5.181622505E0
2.723164445E0,3.377834558E-1,3.578387499E0,5.456943989E0
2.743119445E0,1.701965183E-1,3.583175659E0,6.347548485E0
2.762971945E0,-9.554843605E-2,3.857300043E0,7.250123978E0
2.782823247E0,-1.518097669E-1,4.276267529E0,7.088521957E0
2.802718768E0,-9.076024592E-2,4.837683678E0,6.159612179E0
2.822614601E0,1.697419584E-2,5.390720844E0,4.890739441E0
2.842446528E0,2.396253794E-1,5.678012371E0,4.925454140E0
2.862363715E0,-7.878975570E-2,5.816870213E0,6.078212738E0
2.882180695E0,-1.172892928E0,6.311251640E0,8.070102692E0
2.902059184E0,-1.838452458E0,6.484823704E0,9.361719131E0
2.922106580E0,-1.166907668E0,6.506370544E0,9.105549812E0
2.941973299E0,-1.925094277E-1,6.466867924E0,8.007856369E0
2.961859028E0,2.456106246E-1,6.353147984E0,7.685850143E0
2.981776163E0,3.014174104E-2,6.458488941E0,7.745702744E0
3.001633820E0,-6.665409803E-1,6.761342049E0,8.337044716E0
3.021597049E0,-8.281427026E-1,7.197068214E0,1.042350197E1
3.041440122E0,-7.575167418E-1,7.393383980E0,1.114173126E1
3.061189549E0,-9.729855657E-1,6.976810932E0,9.948272705E0
3.081075643E0,-7.682901621E-1,6.943293571E0,8.739253044E0
3.101164757E0,-4.462839365E-1,6.383074284E0,8.668626785E0
3.121461945E0,1.144594669E0,4.757481098E0,9.118718147E0
3.141743351E0,1.099106789E0,4.363652229E0,8.959509850E0
3.162024236E0,6.526074409E-1,4.460613251E0,9.459877014E0
3.182305434E0,5.029762387E-1,4.759875774E0,9.323412895E0
3.202586997E0,2.563840747E-1,4.858033657E0,8.746436119E0
3.222868299E0,-2.379973084E-1,4.617426872E0,7.922865391E0
3.243149028E0,-7.646990418E-1,4.490539074E0,6.709057331E0
3.263430018E0,-9.610151649E-1,4.384001732E0,6.291287422E0
3.283710903E0,-7.120288610E-1,3.945881605E0,6.758136749E0
3.303991632E0,-2.846822739E-1,3.759141922E0,7.089718819E0
3.324272518E0,1.163292974E-1,3.990172386E0,6.972408772E0
3.344553768E0,2.216696441E-1,4.321755409E0,6.241011143E0
3.364835434E0,3.329952359E-1,4.726358414E0,5.330056667E0
3.385116945E0,4.598824382E-1,5.197995663E0,5.088252544E0
3.405409705E0,3.461627960E-1,5.315306187E0,5.946537018E0
3.425732518E0,-2.372547984E-2,5.176448822E0,7.190271378E0
3.446045278E0,-3.433376551E-1,5.500849247E0,7.730140686E0
3.466326424E0,-1.554009169E-1,6.123314857E0,7.672682762E0
3.486607830E0,1.522407830E-1,6.656001568E0,7.488336563E0
3.506888559E0,5.767387152E-2,6.877455711E0,7.762461185E0
3.527165330E0,-3.804461956E-1,6.739795208E0,8.250857353E0
3.547443143E0,-2.655294538E-1,6.732612610E0,9.226451874E0
3.567721476E0,4.491090178E-1,6.908579350E0,1.043786621E1
3.587999184E0,7.040805817E-1,6.183166981E0,1.095379543E1
3.608277570E0,9.111700654E-1,5.912634373E0,1.045821571E1
3.628556893E0,5.408272892E-2,5.717514992E0,9.853706360E0
3.648839497E0,-1.121419787E0,5.466134548E0,1.114771748E1
3.669125382E0,-1.916260600E0,4.807757854E0,1.279964542E1
3.689407570E0,-1.658894897E0,4.040448666E0,1.386142826E1
3.709686007E0,-9.981235862E-1,3.280322313E0,1.389494514E1
3.729963247E0,-5.384566784E-1,2.988242149E0,1.256622028E1
3.750243872E0,-1.577949971E-1,3.495791197E0,9.996154785E0
3.770525903E0,-7.878975570E-2,3.834555864E0,7.700214386E0
3.790804132E0,-1.757507473E-1,3.969822645E0,6.438524723E0
3.811082570E0,-2.356032282E-1,4.095512867E0,5.772964954E0
3.831361268E0,-1.494156867E-1,3.919546604E0,5.834014416E0
3.851640226E0,-2.178594470E-3,3.799841642E0,6.196720600E0
3.871919393E0,1.282997876E-1,3.871664762E0,6.013572216E0
3.892199288E0,3.629214764E-1,4.188882828E0,5.683186054E0
3.912479965E0,5.736021399E-1,4.466598034E0,5.977660656E0
3.932760174E0,9.949635863E-1,4.498918533E0,6.616884708E0
3.953040434E0,1.144594669E0,4.667702675E0,6.484012604E0
3.973320851E0,6.095136404E-1,5.212360382E0,6.329593182E0
3.993600955E0,1.414673328E-1,5.520001888E0,7.509883404E0
4.013882309E0,1.654083133E-1,5.383538246E0,9.586764336E0
4.034164184E0,4.131975174E-1,5.092655182E0,1.105075645E1
4.054445018E0,9.267317653E-1,5.065123081E0,1.134523010E1
4.074725799E0,1.038057327E0,5.455361366E0,1.097055340E1
4.095005278E0,8.309677839E-1,6.088600159E0,1.023556519E1
4.115085903E0,7.256274223E-1,6.110146999E0,9.866873741E0
4.134982622E0,1.119456649E0,6.356739044E0,9.587961197E0
4.154887205E0,8.225884438E-1,6.505173683E0,9.274333954E0
4.174772622E0,1.557576656E0,7.095318794E0,9.380871773E0
4.194635174E0,7.304156423E-1,6.518341064E0,1.080296612E1
4.214508403E0,-1.182923764E-1,5.737864494E0,1.220949936E1
4.234398611E0,1.338304579E-2,4.783816814E0,1.303187180E1
4.254309549E0,2.946896553E-1,3.801038742E0,1.313362217E1
4.274207205E0,3.832713366E-1,3.322218895E0,1.237229824E1
4.294139809E0,1.163292974E-1,3.522126198E0,1.117165852E1
4.314095643E0,-8.597205579E-2,4.014113426E0,9.801035881E0
4.333923247E0,-6.203106046E-2,4.155365467E0,9.171387672E0
4.353739184E0,-2.822881341E-1,3.724427462E0,9.048091888E0
4.373621893E0,-4.809982777E-1,3.299474955E0,8.738056183E0
4.393401945E0,-3.864314556E-1,3.173784733E0,7.828298569E0
4.413276215E0,-2.786970139E-1,3.283913374E0,6.397824764E0
4.433255382E0,-1.889182776E-1,3.463470697E0,5.156484604E0
4.453124809E0,-3.809008002E-2,3.835753202E0,4.717167377E0
4.473021580E0,4.929452762E-2,4.272676468E0,4.234756470E0
4.492948195E0,2.527929246E-1,4.435475349E0,3.940282345E0
4.512827778E0,4.287591577E-1,4.537224293E0,5.225913525E0
4.532716840E0,6.095136404E-1,4.628200054E0,6.479224205E0
4.552651111E0,8.537117243E-1,4.595879555E0,6.636037350E0
4.572520799E0,1.150579929E0,4.767057896E0,6.547456264E0
4.592155382E0,1.369639993E0,5.251862526E0,6.686313629E0
4.612031893E0,1.106289148E0,5.749835014E0,7.185482979E0
4.632120434E0,8.453323841E-1,6.143664837E0,7.550583363E0
4.652001424E0,7.112628222E-1,6.375892162E0,7.281247139E0
4.671892413E0,5.209320188E-1,6.742189407E0,6.765318871E0
4.691791997E0,6.202871203E-1,7.068983555E0,6.123700619E0
4.711748507E0,2.970837355E-1,7.037860394E0,6.098562717E0
4.731635018E0,5.185378790E-1,6.958855152E0,7.669091225E0
4.751449913E0,5.065674186E-1,6.390256882E0,9.548459053E0
4.771332778E0,8.879715949E-2,5.856372833E0,1.090830708E1
4.791008924E0,-5.336684585E-1,5.278197765E0,1.159661007E1
4.810886320E0,-8.353249431E-1,4.530042171E0,1.269669914E1
4.830979497E0,-5.647917986E-1,3.787871122E0,1.412477779E1
4.850877674E0,5.527977645E-2,3.131888151E0,1.403739357E1
4.870764393E0,4.957939386E-1,3.086400270E0,1.239384460E1
4.890724028E0,5.005821586E-1,3.452697277E0,1.050370407E1
4.910622101E0,1.989257038E-1,3.987778425E0,8.742843628E0
4.930433195E0,-1.123071462E-1,4.435475349E0,7.400951862E0
4.950307518E0,-4.319192767E-1,4.575529575E0,6.776092529E0
4.970192882E0,-6.773144007E-1,4.393578529E0,6.806018353E0
4.990279393E0,6.485617161E-2,4.264297009E0,5.716703415E0
5.010564236E0,3.844683170E-1,4.508495331E0,4.998474121E0
5.030849288E0,5.412818193E-1,4.940629482E0,4.930242062E0
5.051137882E0,6.418340206E-1,5.356006145E0,5.646077633E0
5.071426059E0,8.608940244E-1,5.707938671E0,6.515135765E0
5.091710382E0,1.090727448E0,6.004806519E0,6.705466747E0
5.111995434E0,1.135018229E0,6.104161739E0,6.950861454E0
5.132280538E0,7.507654428E-1,6.075432777E0,7.865406990E0
5.152564497E0,3.724978566E-1,5.921013355E0,8.453158379E0
5.172839757E0,3.270099759E-1,5.960515976E0,8.501040459E0
5.193113663E0,4.299561977E-1,5.979668617E0,8.984647751E0
5.213397049E0,4.586853981E-1,6.211896420E0,9.633448601E0
5.233680070E0,5.496611595E-1,6.545873165E0,9.724425316E0
5.253969965E0,1.231979251E0,7.180309296E0,9.458680153E0
5.274262101E0,1.379216313E0,7.659129143E0,9.012181282E0
5.294548663E0,9.015936852E-1,7.581320763E0,9.310246468E0
5.314835382E0,2.707486749E-1,7.380216599E0,1.079339027E1
5.335120486E0,-2.547559738E-1,6.663184166E0,1.292054749E1
5.355404965E0,-5.121216178E-1,5.479302406E0,1.374411678E1
5.375679913E0,-3.181996346E-1,4.322952271E0,1.344605064E1
5.395958976E0,2.815220952E-1,3.780689001E0,1.286189079E1
5.416250851E0,7.124598622E-1,3.762733221E0,1.186714268E1
5.436539393E0,9.674313664E-1,4.022492886E0,1.046659565E1
5.456827726E0,7.220362425E-1,4.197262287E0,9.695695877E0
5.477115330E0,-7.400155067E-2,3.943487406E0,9.725622177E0
5.497403351E0,-7.084377408E-1,3.647816420E0,9.489803314E0
5.517695330E0,-7.790636420E-1,3.536490679E0,8.005461693E0
5.537986163E0,-6.653439403E-1,3.639436960E0,5.860349655E0
5.558275486E0,-1.654319465E-2,3.949472666E0,4.037243366E0
5.578565538E0,6.945041418E-1,4.251129627E0,3.386048555E0
5.598856163E0,1.012919188E0,4.478568554E0,3.503359318E0
5.619142570E0,7.148540020E-1,4.744313717E0,5.026006222E0
5.639428611E0,1.785758734E-1,5.132157803E0,6.770107269E0
5.659716268E0,4.211223125E-2,5.335656166E0,7.502701759E0
5.680004705E0,5.293113589E-1,5.225527763E0,7.494321823E0
5.700293924E0,1.304999352E0,5.118990421E0,7.329129219E0
5.720578455E0,1.604261637E0,5.235104084E0,7.969550610E0
5.740860174E0,1.191279531E0,5.700756073E0,9.079215050E0
5.761144913E0,9.530668259E-1,6.204714298E0,8.921204567E0
5.781430122E0,9.339140058E-1,6.719445229E0,7.867801666E0
5.801712934E0,5.700110197E-1,7.272482395E0,7.160345078E0
5.821995643E0,2.503988147E-1,7.604064941E0,6.839536190E0
5.842277049E0,6.861248016E-1,7.961982727E0,7.672682762E0
5.862557986E0,4.108034372E-1,7.985923767E0,9.572400093E0
5.882842674E0,-2.535589933E-1,8.003878593E0,1.074311447E1
5.903126893E0,-1.126208067E0,8.048170090E0,1.037322617E1
5.923411945E0,-1.311750650E0,7.495133400E0,1.027985573E1
5.943713507E0,-9.394682050E-1,6.125708580E0,1.108547020E1
5.964009861E0,-3.768550158E-1,4.782618999E0,1.144578171E1
5.984293507E0,8.161486685E-2,4.057207108E0,1.037202930E1
6.004364184E0,4.443207979E-1,3.890817404E0,8.037782669E0
6.024185382E0,2.695516050E-1,3.824979782E0,6.081803322E0
6.044033663E0,-9.215125442E-1,3.875255823E0,5.643683434E0
6.063918611E0,-1.916260600E0,4.346893311E0,5.908231735E0
6.083795226E0,-1.832467198E0,4.694037914E0,6.075818539E0
6.103705590E0,-1.207607269E0,4.503706932E0,5.434199810E0
6.123598559E0,-8.628570437E-1,4.157759666E0,5.167258263E0
6.143472934E0,-8.688423038E-1,4.169730186E0,5.300130367E0
6.163361840E0,-1.107055187E0,4.479765892E0,5.723886013E0
6.183315851E0,-1.387164831E0,4.978935719E0,6.877841473E0
6.203190382E0,-1.006503105E0,5.140537262E0,6.725816250E0
6.223014236E0,-1.170953363E-1,5.272212505E0,5.728673935E0
6.242917413E0,3.713008165E-1,5.494863510E0,5.519190311E0
6.262783455E0,5.089614987E-1,5.448178768E0,5.939354897E0
6.282659445E0,5.628287196E-1,5.527184010E0,6.494785309E0
6.302546736E0,2.324430943E-1,6.074235916E0,6.911358833E0
6.322434445E0,-6.557675600E-1,6.677548885E0,8.068905830E0
6.342331424E0,-1.051990867E0,6.883440971E0,9.329399109E0
6.362277934E0,-6.617528200E-1,6.858303070E0,9.735198021E0
6.382166163E0,-5.755652189E-1,6.690716267E0,1.001411057E1
6.401981632E0,-3.804461956E-1,6.606922626E0,1.049652195E1
6.421854132E0,3.174335957E-1,6.658395767E0,1.120038700E1
6.441810643E0,7.316126823E-1,6.903790474E0,1.095618916E1
6.461770695E0,3.186306357E-1,6.909776211E0,1.011107159E1
6.481658924E0,-2.619383335E-1,6.620090008E0,9.959047318E0
6.501777570E0,-3.170025945E-1,6.229852200E0,1.091309547E1
6.522094080E0,-7.551226020E-1,4.495327473E0,1.276612663E1
6.542372778E0,-7.443491817E-1,4.032069206E0,1.300793076E1
6.562651268E0,4.211223125E-2,3.578387499E0,1.161336899E1
6.582929965E0,1.337319613E0,3.264760494E0,9.883631706E0
6.603208768E0,2.245880365E0,3.342568636E0,8.575258255E0
6.623491476E0,2.361994028E0,3.470653057E0,7.551780701E0
6.643780903E0,1.819730401E0,3.514944077E0,7.205832958E0
6.664066163E0,1.029677868E0,3.444318056E0,7.969550610E0
6.684344601E0,3.126453757E-1,3.596343279E0,8.796711922E0
6.704623715E0,-1.721595973E-1,3.895605803E0,8.481887817E0
6.724905226E0,-8.597205579E-2,4.176912308E0,6.943678856E0
6.745188715E0,2.240637392E-1,4.423504829E0,5.093040943E0
6.765472205E0,7.974503636E-1,4.623411655E0,4.537610054E0
6.785757101E0,1.033269167E0,4.443854809E0,5.199578762E0
6.806043351E0,7.244303823E-1,4.415125370E0,6.701875210E0
6.826328195E0,-1.625832170E-1,4.636579037E0,8.323877335E0
6.846611528E0,-4.127665162E-1,4.752693176E0,7.859422207E0
6.866894809E0,3.916506767E-1,5.079487801E0,6.986773014E0
6.887178143E0,9.315199256E-1,5.426632404E0,7.165133476E0
6.907463299E0,1.412733674E0,5.596613407E0,7.477562904E0
6.927748403E0,1.486950874E0,6.000018597E0,7.295611382E0
6.948031684E0,9.039878249E-1,6.047900677E0,7.988703728E0
6.968312726E0,6.454251409E-1,6.337586880E0,9.117521286E0
6.988594184E0,6.657749414E-1,6.921746731E0,1.062939358E1
7.008876007E0,1.534378231E-1,7.537030220E0,1.211253834E1
7.029155330E0,-4.391016364E-1,7.288043499E0,1.285351181E1
7.049434965E0,2.563840747E-1,6.671563148E0,1.293132019E1
7.069717726E0,7.328097820E-1,5.634918690E0,1.228611088E1
7.090008872E0,7.160511017E-1,4.662914753E0,1.134523010E1
7.110296997E0,1.199204400E-1,3.897999763E0,1.051208305E1
7.130575955E0,-5.779592991E-1,3.325810194E0,1.036125469E1
7.150854340E0,-1.107055187E0,3.056473970E0,1.121714497E1
7.171134288E0,-1.462578893E0,2.929586649E0,1.146972275E1
7.191414653E0,-1.327312350E0,2.863749027E0,1.028703785E1
7.211693872E0,-7.850488424E-1,2.994227409E0,8.237689972E0
7.231977205E0,-1.589920670E-1,3.316233635E0,6.263754845E0
7.252264184E0,1.199204400E-1,3.627466440E0,4.970942020E0
7.272551007E0,-1.266717315E-1,3.887226105E0,4.805748940E0
7.292834340E0,-5.109245777E-1,4.011719704E0,5.994419098E0
7.313113976E0,-5.731711388E-1,3.742383242E0,7.397361279E0
7.333396945E0,-2.439825684E-1,3.640634060E0,8.107211113E0
7.353679028E0,-2.966527343E-1,3.895605803E0,8.728480339E0
7.373957518E0,-5.169097781E-1,4.283450127E0,8.814666748E0
7.394237570E0,-4.738160372E-1,4.805363178E0,8.037782669E0
7.414521945E0,-5.576094985E-1,5.311715126E0,7.394967079E0
7.434809132E0,-7.898370624E-1,5.448178768E0,6.551046848E0
7.455095538E0,-6.066884995E-1,5.582248211E0,5.646077633E0
7.475378872E0,-5.947180390E-1,5.924604893E0,5.535949230E0
7.495576684E0,-1.163316488E0,6.263369560E0,6.632446766E0
7.515649497E0,-1.741491437E0,6.330404282E0,7.961171150E0
7.535500330E0,-1.394347072E0,6.387862682E0,9.170190811E0
7.555359288E0,-8.030046225E-1,6.371103764E0,9.802232742E0
7.575354965E0,-7.790636420E-1,6.478837967E0,9.452694893E0
7.595206580E0,-9.861530662E-1,6.678745747E0,9.002604485E0
7.615087570E0,-6.114767194E-1,6.933717251E0,9.142659187E0
7.634963663E0,-1.984946877E-1,7.049830914E0,9.038516045E0
7.654791059E0,-2.068740278E-1,6.865485191E0,8.337044716E0
7.674684288E0,2.934926152E-1,7.077363014E0,7.909698009E0
7.694644653E0,4.838234782E-1,6.788874149E0,8.208960533E0
7.714604340E0,-1.654319465E-2,6.138876438E0,8.806287766E0
7.734453351E0,-6.222501993E-1,5.541548729E0,9.775897980E0
7.754305955E0,-7.587137818E-1,5.316503048E0,1.005720520E1
7.774231268E0,-4.750131369E-1,5.147719860E0,9.498183250E0
7.794073872E0,6.964436918E-2,5.023226261E0,8.838607788E0
7.813947413E0,1.282997876E-1,5.012452602E0,8.153896332E0
7.833913715E0,-4.379045367E-1,5.061531544E0,7.488336563E0
7.853798143E0,-1.115434527E0,5.043576241E0,7.088521957E0
7.873589288E0,-1.660091996E0,5.091458321E0,6.601323128E0
7.893488715E0,-1.649318576E0,5.192010403E0,6.105744362E0
7.913429080E0,-1.300977230E0,5.175251484E0,5.999207497E0
7.933297205E0,-8.245514631E-1,5.182433605E0,5.921399117E0
7.953159549E0,-5.288802981E-1,5.226724625E0,5.638895512E0
7.973049132E0,-4.247369766E-1,5.350020885E0,6.019556999E0
7.993020486E0,-6.210530996E-1,5.330868244E0,7.021487713E0
8.012888559E0,-8.257485628E-1,5.168069363E0,7.730140686E0
8.032709184E0,-7.527285218E-1,5.005270481E0,7.453622341E0
8.052584497E0,-3.672786355E-1,4.908309937E0,7.239350319E0
8.072448872E0,8.281190693E-2,5.087867260E0,7.581706524E0
8.092415695E0,7.443256676E-2,5.529578209E0,8.226916313E0
8.112366163E0,-1.961006075E-1,5.977274895E0,8.571665764E0
8.132072518E0,-3.385494947E-1,6.377089024E0,8.503435135E0
8.151872986E0,-7.862459421E-1,6.767327309E0,9.213285446E0
8.171811111E0,-1.261474490E0,6.962446213E0,9.783080101E0
8.191497778E0,-7.694872618E-1,6.875061512E0,1.003924942E1
8.211384705E0,5.819814801E-1,6.968431473E0,1.067607880E1
8.231511163E0,8.968055248E-1,6.658395767E0,9.963834763E0
8.251405174E0,1.129032969E0,6.624878407E0,9.136673927E0
8.271270955E0,1.095515728E0,6.506370544E0,8.862548828E0
8.291230486E0,8.477264643E-1,6.158029079E0,9.208497047E0
8.311145955E0,3.940447569E-1,5.470922470E0,1.016613579E1
8.331006893E0,7.323551178E-2,4.709599018E0,1.129615116E1
8.350852361E0,-4.319192767E-1,4.285843849E0,1.220590782E1
8.370692882E0,-1.117828727E0,4.141000748E0,1.172828579E1
8.390371476E0,-1.239927649E0,4.289435387E0,1.012543583E1
8.410246632E0,-9.227095246E-1,4.249932289E0,8.958312988E0
8.430316215E0,-3.110173345E-1,4.154168129E0,7.835481167E0
8.450286684E0,1.893492937E-1,4.125439167E0,6.509150505E0
8.470201736E0,3.880594969E-1,4.214020729E0,5.362377167E0
8.490090174E0,2.958866954E-1,4.419913292E0,5.435397148E0
8.510014340E0,2.049109489E-1,4.551588535E0,5.975266457E0
8.529880955E0,4.359414577E-1,4.551588535E0,6.074621677E0
8.549803976E0,7.926622033E-1,4.634185314E0,6.469647408E0
8.569708559E0,8.525146842E-1,4.926265240E0,6.788063049E0
8.589788976E0,8.225884438E-1,5.948545933E0,5.992024899E0
8.610075330E0,7.711153030E-1,6.225063801E0,6.254179001E0
8.630365174E0,5.113555789E-1,6.210699081E0,6.579775810E0
8.650656163E0,9.358535707E-2,6.441729546E0,6.826368332E0
8.670942778E0,-4.151605964E-1,6.871470928E0,7.883363247E0
8.691224288E0,-6.126737595E-1,7.350290298E0,8.876914024E0
8.711507205E0,-5.444419384E-1,7.484359741E0,9.519728661E0
8.731790851E0,-1.338540167E-1,7.191082478E0,9.698089600E0
8.752074393E0,6.047254205E-1,6.961249352E0,9.365309715E0
8.772357986E0,1.407945633E0,7.145594597E0,8.763194084E0
8.792641528E0,1.460615754E0,7.232979774E0,7.780416489E0
8.812924913E0,1.518074036E0,7.292832375E0,7.782811165E0
8.833212049E0,1.380413294E0,6.751765728E0,9.197723389E0
8.853498820E0,1.562364936E0,6.075432777E0,1.041512203E1
8.873793090E0,1.744316459E0,5.025619984E0,1.087239552E1
8.894089861E0,2.091460705E0,4.056010246E0,1.095020294E1
8.914375122E0,2.288974047E0,3.708865881E0,1.104357338E1
8.934657361E0,1.502512455E0,3.998551846E0,1.090830708E1
8.954939184E0,4.467149377E-1,4.709599018E0,9.850114822E0
8.975221736E0,-2.786970139E-1,5.425434589E0,8.685385704E0
8.995503820E0,-3.780521154E-1,5.535563469E0,7.424892902E0
9.015784809E0,2.085020989E-1,4.953797817E0,6.516332626E0
9.036066945E0,7.759035230E-1,4.235568047E0,6.178764343E0
9.056352726E0,1.101500869E0,3.803432703E0,6.304454803E0
9.076637986E0,1.077559948E0,3.716048241E0,6.255375862E0
9.096920955E0,9.219434857E-1,4.072769165E0,6.081803322E0
9.117203924E0,6.538044214E-1,4.679673195E0,6.175173759E0
9.137486372E0,7.052775621E-1,5.073502064E0,6.178764343E0
9.157770018E0,1.132624149E0,5.237498283E0,5.553905010E0
9.178044288E0,1.442659974E0,5.578657150E0,4.881163120E0
9.198318038E0,1.245146871E0,5.968895435E0,5.351603508E0
9.218607778E0,6.131048203E-1,6.258581161E0,6.585761547E0
9.238900955E0,3.373289108E-2,6.624878407E0,7.623603344E0
9.259191684E0,-2.930616140E-1,6.730218887E0,8.649475098E0
9.279480955E0,-1.518097669E-1,6.593755245E0,9.650208473E0
9.299767882E0,1.043587998E-1,6.427365303E0,1.034329891E1
9.320060747E0,-2.140563577E-1,6.488414764E0,1.046061039E1
9.340353611E0,-6.904819608E-1,6.982796192E0,9.967426300E0
9.360639340E0,-9.310888648E-1,7.638779163E0,9.632251740E0
9.380925382E0,-1.042414546E0,8.044578552E0,9.671754837E0
9.401211945E0,-1.196833968E0,8.049366951E0,9.194131851E0
9.421495174E0,-9.215125442E-1,7.641173363E0,8.187413216E0
9.441775747E0,-8.401131034E-1,6.887032032E0,7.591282845E0
9.462055382E0,-8.999655843E-1,6.492005825E0,7.877377510E0
9.482340955E0,-1.046005726E0,5.938969135E0,7.900121689E0
9.502631059E0,-1.188454509E0,5.525987148E0,8.586030960E0
9.522914080E0,-1.409908652E0,4.934644699E0,1.003565788E1
9.543196268E0,-1.287809730E0,4.014113426E0,1.036245251E1
9.563484132E0,-8.460983634E-1,3.857300043E0,9.554444313E0
9.583797205E0,-3.050320745E-1,4.525253773E0,7.934835911E0
9.603838038E0,-1.422333866E-1,4.902324200E0,6.049483776E0
9.623599080E0,-2.332091182E-1,5.090260983E0,5.207957745E0
9.643443403E0,-6.330236197E-1,5.055546761E0,5.745432854E0
9.663311424E0,-9.538328052E-1,4.987314701E0,6.847915649E0
9.683270851E0,-5.564123988E-1,4.847259998E0,7.684652805E0
9.703188715E0,8.594848216E-3,4.734737396E0,7.579312325E0
9.723174861E0,4.120004773E-1,4.886762619E0,6.673146248E0
9.743049809E0,8.680763245E-1,5.183631420E0,6.031527519E0
9.762797778E0,1.231979251E0,5.588233471E0,5.546722412E0
9.782685434E0,9.734166265E-1,5.898269176E0,5.528767109E0
9.802527361E0,6.226812005E-1,6.070644855E0,6.194326401E0
9.822424028E0,2.551870346E-1,6.202320099E0,7.442849159E0
9.842311163E0,1.929404438E-1,6.387862682E0,8.228113174E0
9.862185018E0,1.630142182E-1,6.398636341E0,8.726085663E0
9.882078820E0,1.199204400E-1,6.426167965E0,9.256379128E0
9.901965695E0,8.879715949E-2,6.538690567E0,9.507759094E0
9.921852778E0,-1.781448573E-1,6.533902645E0,9.781883240E0
9.941820903E0,-5.205009580E-1,6.615302086E0,1.025352097E1
9.961767934E0,-7.192111611E-1,6.901396751E0,1.031816101E1
9.981632049E0,-2.092681378E-1,7.387398720E0,9.620282173E0
1.000146023E1,1.163292974E-1,7.169535637E0,8.496252060E0
1.002129820E1,7.028835416E-1,6.796056747E0,8.513010979E0
1.004119637E1,9.877812862E-1,6.088600159E0,9.373688698E0
1.006115939E1,1.204447031E0,5.487681866E0,1.014219475E1
1.008131012E1,6.514104009E-1,4.647352695E0,1.008114624E1
1.010159913E1,6.250752807E-1,4.215218067E0,9.414388657E0
1.012188820E1,9.375051856E-1,4.222400188E0,8.880504608E0
1.014217715E1,1.111077309E0,4.406745911E0,8.526178360E0
1.016246611E1,9.147612453E-1,4.519268513E0,8.402881622E0
1.018275429E1,6.609867811E-1,4.506101131E0,7.807949066E0
1.020304335E1,3.605273962E-1,4.391184330E0,7.305188179E0
1.022333200E1,-2.611957490E-2,4.400760651E0,7.044231415E0
1.024361866E1,-2.427855283E-1,4.632987976E0,6.770107269E0
1.026391346E1,-3.265789747E-1,4.802968979E0,6.615687370E0
1.028420773E1,-2.463766485E-1,4.877186298E0,6.887418270E0
1.030449366E1,-2.080710977E-1,5.055546761E0,7.761263847E0
1.032477981E1,-1.446274668E-1,5.116596222E0,7.752884388E0
1.034506934E1,1.630142182E-1,5.151310921E0,7.609238625E0
1.036536116E1,5.975431800E-1,4.945418358E0,7.525444984E0
1.038564773E1,1.210432291E0,4.755087376E0,7.497912884E0
1.040593163E1,1.534832716E0,4.673687935E0,7.466790199E0
1.042622960E1,1.354078293E0,5.061531544E0,7.775628567E0
1.044652705E1,1.020101547E0,5.767791271E0,8.199383736E0
1.046681543E1,8.740615845E-1,6.282522202E0,8.526178360E0
1.048710346E1,8.525146842E-1,6.445321083E0,8.617154121E0
1.050738793E1,6.717602015E-1,6.401030064E0,8.708129883E0
1.052767632E1,5.125526190E-1,6.762539387E0,1.036484623E1
1.054796736E1,4.694588780E-1,7.405354500E0,1.169835949E1
1.056825153E1,-5.769744515E-3,7.390990257E0,1.089274502E1
1.058853236E1,-1.206864864E-1,7.423310280E0,9.611902237E0
1.060881642E1,-8.042016625E-1,6.870273590E0,9.426360130E0
1.062910335E1,-1.073537827E0,5.667238712E0,1.076346397E1
1.064938929E1,-1.092690706E0,4.211627007E0,1.195452785E1
1.066967564E1,-6.378117800E-1,3.252790213E0,1.248721504E1
1.068996887E1,-4.259340763E-1,3.001409769E0,1.190784264E1
1.071026054E1,-4.869835377E-1,3.378480196E0,1.028225040E1
1.073054898E1,-6.066884995E-1,3.937502146E0,8.147911072E0
1.075083637E1,-6.581616402E-1,4.453430653E0,6.205100060E0
1.077112174E1,-8.365219831E-1,4.850851059E0,5.236687183E0
1.079140720E1,-1.018473506E0,5.005270481E0,5.478490829E0
1.081169372E1,-1.069946647E0,4.838880539E0,6.440918446E0
1.083197778E1,-9.035567641E-1,4.545603752E0,7.100492477E0
1.085225825E1,-5.133186579E-1,4.497721672E0,6.710254669E0
1.087253872E1,-1.206864864E-1,4.684461117E0,5.826831818E0
1.089281882E1,1.570289731E-1,4.717978477E0,5.236687183E0
1.091309960E1,5.293113589E-1,4.848457336E0,5.494052410E0
1.093338137E1,6.023313403E-1,4.981329918E0,6.390642643E0
1.095366267E1,2.839162052E-1,4.956191540E0,7.294414520E0
1.097394429E1,-3.090777993E-2,5.239892006E0,7.020290375E0
1.099422601E1,-5.983091593E-1,5.779761791E0,6.760530472E0
1.101450721E1,-1.267459750E0,6.286113262E0,7.157950878E0
1.103478903E1,-1.549963474E0,6.500385284E0,8.542937279E0
1.105507111E1,-1.266262770E0,6.508764744E0,9.767518997E0
1.107522538E1,-8.748275638E-1,6.288507938E0,1.002488422E1
1.109519799E1,-3.792491555E-1,5.801308155E0,9.999746323E0
1.111508507E1,1.881522536E-1,5.504440308E0,9.860889435E0
1.113495330E1,6.035283804E-1,5.704347134E0,9.468255997E0
1.115484762E1,7.292186022E-1,6.551858425E0,8.904445648E0
1.117473601E1,1.953345537E-1,6.869076729E0,8.416049957E0
1.119461497E1,-7.160745561E-2,7.003146172E0,8.979860306E0
1.121451825E1,-1.565979570E-1,6.696701050E0,9.880041122E0
1.123440601E1,-3.457317352E-1,5.664844513E0,1.045342827E1
1.125427872E1,-2.954556942E-1,4.559967995E0,1.077423668E1
1.127417700E1,5.408272892E-2,4.106286526E0,1.069283772E1
1.129406596E1,3.014174104E-2,4.004537106E0,9.817794800E0
1.131394210E1,2.300489843E-1,4.411534309E0,8.681795120E0
1.133384455E1,5.556464195E-1,4.836486816E0,7.928851128E0
1.135374981E1,6.657749414E-1,4.868807316E0,7.602056503E0
1.137361965E1,6.238782406E-1,4.621017933E0,7.281247139E0
1.139338820E1,4.610795379E-1,4.168532848E0,7.379405022E0
1.141327762E1,3.437686563E-1,3.920743704E0,7.412922382E0
1.143326366E1,3.282070160E-1,3.897999763E0,7.214212418E0
1.145315653E1,4.395326376E-1,4.004537106E0,6.615687370E0
1.147304158E1,6.226812005E-1,4.376819611E0,6.385854244E0
1.149292033E1,6.765483618E-1,4.807757854E0,6.723422050E0
1.151282418E1,6.992923021E-1,4.933447838E0,6.640825748E0
1.153272132E1,9.817960262E-1,4.919083118E0,6.412189484E0
1.155260017E1,9.602491260E-1,4.920279980E0,6.770107269E0
1.157248877E1,1.097909808E0,5.037590504E0,7.459607601E0
1.159217325E1,1.023692727E0,5.354809284E0,7.795978546E0
1.161205080E1,9.219434857E-1,5.767791271E0,7.883363247E0
1.163215564E1,9.135642052E-1,6.207108021E0,8.202975273E0
1.165204330E1,9.530668259E-1,6.433350563E0,8.750026703E0
1.167191575E1,9.566579461E-1,6.559040546E0,8.966692924E0
1.169181736E1,7.280215025E-1,6.377089024E0,9.645420074E0
1.171170262E1,6.178929806E-1,6.010792255E0,1.054440403E1
1.173158820E1,5.281142592E-1,6.114935398E0,1.117524910E1
1.175148830E1,1.366791278E-1,6.063462257E0,1.109504604E1
1.177137543E1,4.072122574E-1,6.046703815E0,1.002967262E1
1.179146111E1,-5.001510978E-1,5.977274895E0,9.713650703E0
1.181174783E1,-1.280627370E0,5.018438339E0,1.053722095E1
1.183203476E1,-1.691215277E0,4.301405907E0,1.123510075E1
1.185232184E1,-1.825284839E0,4.215218067E0,1.171631527E1
1.187260872E1,-1.916260600E0,4.386396408E0,1.178574371E1
1.189289903E1,-1.462578893E0,4.218809128E0,1.108307648E1
1.191319293E1,-8.437042832E-1,3.948275805E0,9.554444313E0
1.193348283E1,-3.481258750E-1,3.908773184E0,7.868998528E0
1.195376877E1,-1.147012413E-1,4.101498127E0,6.610899448E0
1.197404403E1,-1.518097669E-1,4.411534309E0,6.020753860E0
1.199431981E1,-4.546632171E-1,4.601865292E0,5.866334915E0
1.201461038E1,-6.952701807E-1,4.707205296E0,5.855561733E0
1.203490444E1,-6.892849207E-1,4.870004177E0,5.580240250E0
1.205519674E1,-6.019002795E-1,5.025619984E0,5.322874546E0
1.207548497E1,-3.648845553E-1,5.059137821E0,5.441382408E0
1.209577132E1,-9.315434098E-2,5.261439323E0,6.193129539E0
1.211606314E1,-2.379973084E-1,5.524790287E0,7.088521957E0
1.213635627E1,-5.372596979E-1,5.791732311E0,7.329129219E0
1.215664346E1,-6.414029002E-1,6.058674335E0,7.481154442E0
1.217691960E1,-7.658960223E-1,6.193940639E0,7.799569607E0
1.219719622E1,-6.090826392E-1,6.444124222E0,8.182625771E0
1.221748554E1,-3.026379943E-1,6.867879391E0,8.202975273E0
1.223777767E1,-1.554009169E-1,6.865485191E0,7.961171150E0
1.225806960E1,-2.971073985E-2,6.544676304E0,7.788795948E0
1.227835846E1,-9.360894561E-3,6.193940639E0,8.426822662E0
1.229864512E1,8.400896192E-2,5.990442276E0,1.025950623E1
1.231893517E1,7.292186022E-1,5.905451775E0,1.065094090E1
1.233922752E1,9.494757056E-1,6.165211678E0,9.276727676E0
1.235951976E1,8.058297634E-1,6.718248367E0,8.400487900E0
1.237979856E1,3.736948967E-1,6.960052013E0,8.547724724E0
1.240008049E1,9.119125456E-2,6.796056747E0,9.060063362E0
1.242037080E1,-4.287827015E-2,6.373498440E0,9.097170830E0
1.244065726E1,-2.068740278E-1,5.688785553E0,8.893672943E0
1.246094840E1,1.857581437E-1,5.141734123E0,9.310246468E0
1.248123804E1,7.352038026E-1,4.746707916E0,9.686119080E0
1.250152278E1,1.162550449E0,4.437869072E0,9.222861290E0
1.252180929E1,1.322955132E0,4.498918533E0,8.353803635E0
1.254209809E1,1.139806509E0,4.781422138E0,7.824707508E0
1.256238632E1,7.447801828E-1,5.065123081E0,7.700214386E0
1.258267455E1,4.778382182E-1,5.146522045E0,7.523051262E0
1.260296127E1,4.012270570E-1,5.032802582E0,7.501503944E0
1.262324793E1,1.079499498E-1,4.874792099E0,7.654726505E0
1.264353283E1,-9.674550593E-2,4.881974697E0,7.479957581E0
1.266382267E1,-1.338540167E-1,4.976541042E0,7.065778732E0
1.268411382E1,3.373289108E-2,5.158492565E0,6.491194725E0
1.270439835E1,2.420194745E-1,5.316503048E0,6.135671139E0
1.272468153E1,2.324430943E-1,5.474514008E0,6.317622662E0
1.274491559E1,-9.554843605E-2,5.615765572E0,6.891008854E0
1.276510741E1,-5.372596979E-1,5.691179752E0,7.546991825E0
1.278529736E1,-7.563197017E-1,5.808490753E0,8.162275314E0
1.280548825E1,-4.474809170E-1,5.904254913E0,8.341833115E0
1.282555366E1,9.119125456E-2,6.026353836E0,8.106014252E0
1.284538616E1,4.120004773E-1,6.172393799E0,7.936033249E0
1.286526351E1,5.053703189E-1,6.482429504E0,8.151501656E0
1.288522918E1,4.060152769E-1,6.630863667E0,8.808682442E0
1.290510502E1,2.934926152E-1,6.804435730E0,9.627464294E0
1.292492101E1,3.880594969E-1,7.133624077E0,9.793853760E0
1.294483299E1,5.257201791E-1,7.147989273E0,9.389250755E0
1.296475434E1,9.243376255E-1,7.418522358E0,8.924796104E0
1.298464283E1,5.041732788E-1,7.308393478E0,8.208960533E0
1.300456767E1,3.066601157E-1,6.948081493E0,8.450763702E0
1.302437111E1,-3.026379943E-1,5.901860714E0,9.959047318E0
1.304424887E1,-7.970193624E-1,4.841274738E0,1.116686916E1
1.306414596E1,-6.689350605E-1,4.034463406E0,1.232920361E1
1.308389148E1,-7.635020018E-1,3.555643559E0,1.287505913E1
1.310384132E1,-8.006104827E-1,3.671757460E0,1.183242893E1
1.312385762E1,-5.911268592E-1,3.909970284E0,9.127097130E0
1.314374601E1,-4.646942019E-2,4.009325504E0,6.789259911E0
1.316357523E1,5.987401605E-1,4.247538567E0,6.102153778E0
1.318345023E1,2.527929246E-1,4.528845310E0,6.329593182E0
1.320338007E1,-5.216979980E-1,4.962176800E0,6.674343109E0
1.322318418E1,-1.079523087E0,5.199192524E0,7.123236656E0
1.324308226E1,-9.969266057E-1,5.175251484E0,7.247730255E0
1.326303757E1,-4.738160372E-1,4.914294720E0,6.918540955E0
1.328287460E1,-1.542038769E-1,4.840077877E0,6.579775810E0
1.330280523E1,-3.936137557E-1,5.090260983E0,6.929314613E0
1.332275184E1,-6.102796793E-1,5.462543488E0,7.094507694E0
1.334255559E1,-6.270383596E-1,5.800111294E0,6.796442032E0
1.336247017E1,-8.700393438E-1,5.935378075E0,7.078946114E0
1.338260642E1,-1.079523087E0,5.859963894E0,7.441651821E0
1.340254783E1,-8.065957427E-1,5.880313873E0,7.508686543E0
1.342225325E1,-3.995989561E-1,6.226261139E0,7.227380276E0
1.344200413E1,-1.889182776E-1,6.699095726E0,6.813200951E0
1.346189950E1,-2.248297781E-1,7.027087212E0,6.859886169E0
1.348184924E1,-2.188445479E-1,7.159959793E0,7.762461185E0
1.350173726E1,-3.995989561E-1,6.958855152E0,9.122308731E0
1.352168267E1,-4.019930959E-1,6.823588848E0,1.024035263E1
1.354158148E1,-1.003366411E-1,7.134821415E0,9.973410606E0
1.356139387E1,-1.278687865E-1,7.347896099E0,8.384926796E0
1.358127096E1,8.760011196E-2,7.503512859E0,7.277656078E0
1.360123194E1,1.294968426E-1,7.234176636E0,7.641559124E0
1.362110382E1,7.323551178E-2,6.523128986E0,8.905643463E0
1.364095991E1,-7.519860566E-2,5.455361366E0,1.016254520E1
1.366084778E1,1.450584829E-1,4.837683678E0,1.090830708E1
1.368070439E1,3.820742369E-1,4.811348915E0,1.024633789E1
1.370067122E1,6.657749414E-1,5.026817799E0,8.823046684E0
1.372051892E1,1.060801268E0,5.330868244E0,7.578115463E0
1.374030200E1,1.269087791E0,5.531972408E0,6.875447750E0
1.376025877E1,1.131427169E0,5.482892990E0,6.679131508E0
1.378012658E1,6.968982816E-1,5.218345165E0,6.576185226E0
1.379991205E1,2.767339051E-1,4.892748356E0,6.467253685E0
1.381981481E1,-3.449892998E-2,4.727555275E0,6.312834263E0
1.383974351E1,-2.523618937E-1,4.638973713E0,5.933369637E0
1.385962606E1,-1.817360073E-1,4.768254757E0,5.415047169E0
1.387951398E1,-1.961006075E-1,4.879580021E0,5.076282024E0
1.389946773E1,-3.193966746E-1,4.972949982E0,4.918271542E0
1.391939101E1,-1.673714072E-1,5.183631420E0,5.166060925E0
1.393924663E1,9.837355465E-2,5.405085087E0,6.342760563E0
1.395915830E1,4.359414577E-1,5.314109325E0,7.471578121E0
1.397904736E1,1.111077309E0,5.219542027E0,7.323143959E0
1.399893575E1,1.407945633E0,5.450572968E0,6.683919430E0
1.401881970E1,1.327743173E0,6.017974377E0,7.123236656E0
1.403867830E1,1.115865469E0,6.730218887E0,8.064117432E0
1.405880314E1,9.111700654E-1,7.247344017E0,8.378941536E0
1.407912346E1,1.127381474E-1,6.792465210E0,1.071917343E1
1.409940340E1,1.438614279E-1,5.798914433E0,1.188270473E1
1.411968340E1,6.849277616E-1,5.572672367E0,1.334669590E1
1.413996429E1,5.173408389E-1,6.144861698E0,1.298039913E1
1.416024382E1,3.413745761E-1,6.727824688E0,1.063537884E1
1.418051976E1,9.791895747E-3,6.629666805E0,9.413191795E0
1.420079705E1,-6.174619794E-1,5.765397072E0,1.033491993E1
1.422107887E1,-9.418624043E-1,4.881974697E0,1.124707222E1
1.424136080E1,-9.598180652E-1,4.205641747E0,1.171870899E1
1.426164075E1,-1.066355586E0,3.804630041E0,1.116806602E1
1.428191981E1,-1.377588391E0,3.601131439E0,9.969820023E0
1.430220106E1,-1.364420772E0,3.371298075E0,8.711721420E0
1.432247965E1,-8.975715041E-1,3.432347536E0,7.664302826E0
1.434275476E1,-3.385494947E-1,3.529308558E0,6.724618912E0
1.436303059E1,5.819814801E-1,3.578387499E0,6.099759579E0
1.438330616E1,8.561058044E-1,3.647816420E0,6.051877499E0
1.440358523E1,2.527929246E-1,3.939896584E0,6.415780544E0
1.442386825E1,-5.336684585E-1,4.546800613E0,7.207029819E0
1.444414793E1,-7.754724622E-1,4.949009418E0,8.108408928E0
1.446442476E1,-4.558603168E-1,4.861624718E0,8.337044716E0
1.448470538E1,-4.527238011E-2,4.550391674E0,7.888151169E0
1.450498174E1,2.192755342E-1,4.627003193E0,6.968817711E0
1.452525538E1,3.066601157E-1,4.937038898E0,6.158414841E0
1.454553314E1,1.282997876E-1,5.500849247E0,5.765782356E0
1.456581226E1,-2.260268182E-1,5.943757057E0,6.333184242E0
1.458608929E1,-4.905747175E-1,5.917422295E0,7.609238625E0
1.460636517E1,-3.409435749E-1,5.804899693E0,8.736859322E0
1.462664179E1,3.078572154E-1,5.795323372E0,8.759603500E0
1.464691872E1,8.106179237E-1,5.916225433E0,8.223324776E0
1.466720106E1,9.255347252E-1,6.137679100E0,8.613562584E0
1.468748299E1,8.166031837E-1,6.373498440E0,9.841735840E0
1.470776570E1,7.974503636E-1,6.819997787E0,1.072156715E1
1.472804830E1,8.477264643E-1,7.247344017E0,1.097414398E1
1.474833070E1,5.568434596E-1,7.005540371E0,1.079339027E1
1.476861361E1,6.059225202E-1,6.231049061E0,1.144697857E1
1.478889247E1,5.065674186E-1,5.162084103E0,1.250876236E1
1.480916760E1,4.910057187E-1,4.321755409E0,1.293850231E1
1.482944682E1,4.215768576E-1,3.690910101E0,1.265958977E1
1.484972624E1,7.735093832E-1,3.374889135E0,1.139311218E1
1.487000525E1,1.144594669E0,3.347357035E0,9.554444313E0
1.489028578E1,1.288240552E0,3.444318056E0,7.835481167E0
1.491056999E1,1.384004593E0,3.652604580E0,6.778486729E0
1.493085859E1,9.482786655E-1,3.953063965E0,7.075354576E0
1.495114609E1,3.162365556E-1,3.815403223E0,7.224986076E0
1.497143098E1,2.707486749E-1,3.342568636E0,6.472042084E0
1.499171124E1,1.175263450E-1,3.124705791E0,5.549116611E0
1.501198911E1,-2.607412338E-1,3.481426477E0,5.427017689E0
1.503226932E1,-6.677380800E-1,3.853708982E0,5.626924992E0
1.505251630E1,-3.277760148E-1,4.085936546E0,5.770571232E0
1.507265817E1,2.300489843E-1,4.380411148E0,6.284104824E0
1.509262453E1,1.067529023E-1,4.836486816E0,6.679131508E0
1.511249895E1,3.492993116E-2,5.120187283E0,7.001137733E0
1.513232479E1,1.929404438E-1,5.136946201E0,7.840269089E0
1.515223078E1,5.245231390E-1,5.207571983E0,8.648278236E0
1.517210255E1,7.112628222E-1,5.346429825E0,8.469917297E0
1.519170140E1,7.088687420E-1,5.600203991E0,8.022220612E0
1.521159499E1,5.987401605E-1,5.901860714E0,8.428020477E0
1.523167484E1,5.077644587E-1,6.167605877E0,9.116324425E0
1.525163395E1,3.042660356E-1,6.413000584E0,9.736394882E0
1.527153104E1,1.390732378E-1,6.663184166E0,9.617888451E0
1.529134713E1,7.802371681E-2,6.987584114E0,9.389250755E0
1.531125624E1,4.167886972E-1,7.369443417E0,9.518531799E0
1.533113942E1,5.927549601E-1,7.586109161E0,9.084003448E0
1.535098692E1,4.826263785E-1,8.025425911E0,9.192934990E0
1.537087374E1,-5.552153587E-1,7.800380707E0,9.982988358E0
1.539056223E1,-1.125010967E0,7.120456696E0,1.162055111E1
1.541043755E1,-1.696003556E0,5.853978634E0,1.387339783E1
1.543053072E1,-1.764235258E0,4.447445869E0,1.493278694E1
1.545042437E1,-1.238730669E0,3.531702757E0,1.421814823E1
1.547032307E1,-8.975715041E-1,3.140267372E0,1.189587212E1
1.549020723E1,-7.850488424E-1,2.996621370E0,9.328202248E0
1.551008942E1,-7.060436010E-1,3.037321329E0,7.575721741E0
1.553012650E1,-7.778665423E-1,3.128296852E0,6.533091545E0
1.555006958E1,-6.904819608E-1,3.389253616E0,5.551510811E0
1.556980479E1,-4.343134165E-1,3.729215622E0,4.319746971E0
1.558945203E1,-1.206864864E-1,4.125439167E0,3.479418278E0
1.560936874E1,5.592375398E-1,4.255917549E0,3.906764984E0
1.562946650E1,8.573029041E-1,4.091921806E0,4.783005238E0
1.564939156E1,9.231405854E-1,4.095512867E0,5.252248764E0
1.566930442E1,6.430310011E-1,4.430686951E0,5.574254513E0
1.568917140E1,2.037138939E-1,4.950206280E0,5.994419098E0
1.570926072E1,7.562961429E-2,5.462543488E0,6.742575169E0
1.572956677E1,3.014174104E-2,6.008398056E0,6.780880451E0
1.574985234E1,-4.618455768E-1,6.282522202E0,8.237689972E0
1.577012525E1,-9.047537446E-1,6.292098522E0,9.853706360E0
1.579039848E1,-7.694872618E-1,6.175984859E0,1.032534409E1
1.581068322E1,-4.678307772E-1,6.314842701E0,9.678936958E0
1.583096656E1,-2.703176737E-1,6.758947849E0,8.727283478E0
1.585124984E1,-1.063218862E-1,7.124048233E0,8.401684761E0
1.587153442E1,-1.577949971E-1,7.152777195E0,8.745239258E0
1.589181890E1,-4.287827015E-2,7.041451931E0,9.571203232E0
1.591211598E1,6.502133012E-1,7.480768681E0,1.035886097E1
1.593241343E1,3.234188557E-1,7.086939812E0,9.641829491E0
1.595269609E1,4.491090178E-1,6.486020565E0,9.432345390E0
1.597297604E1,4.143946171E-1,5.944954395E0,1.022119999E1
1.599325687E1,8.400896192E-2,5.255453587E0,1.136917114E1
1.601353645E1,1.833640635E-1,4.611441135E0,1.158583736E1
1.603381661E1,6.059225202E-1,4.186488628E0,1.099449444E1
1.605410046E1,9.602491260E-1,4.050024986E0,9.789066315E0
1.607438234E1,1.411536694E0,4.160153389E0,8.447173119E0
1.609466322E1,1.671296358E0,4.282252789E0,6.954452515E0
1.611494463E1,1.358866453E0,4.237961769E0,5.847182274E0
1.613522729E1,5.951490402E-1,3.978201866E0,5.648471832E0
1.615550781E1,-4.886351526E-2,3.848920822E0,6.536682606E0
1.617577552E1,-2.858792543E-1,3.945881605E0,7.147177696E0
1.619604328E1,-1.230805814E-1,4.192473888E0,6.768909931E0
1.621632489E1,3.030689955E-1,4.483357430E0,5.908231735E0
1.623665859E1,6.346517205E-1,4.761072636E0,5.428214550E0
1.625699281E1,5.783903599E-1,4.858033657E0,5.650866032E0
1.627727713E1,3.222217858E-1,5.124975681E0,6.241011143E0
1.629755765E1,4.211223125E-2,5.485287189E0,7.094507694E0
1.631783765E1,1.761817634E-1,5.634918690E0,7.647544384E0
1.633811713E1,5.903608203E-1,5.478105068E0,7.467987061E0
1.635839583E1,8.573029041E-1,5.393114567E0,7.052610397E0
1.637870171E1,6.597896814E-1,5.882707596E0,7.456016541E0
1.639900406E1,1.678024232E-1,6.500385284E0,8.860155106E0
1.641927552E1,2.108961940E-1,6.723036766E0,1.045462513E1
1.643955052E1,6.107106805E-1,6.378286362E0,1.114771748E1
1.645982635E1,5.149467587E-1,6.186758041E0,1.057552719E1
1.648010249E1,3.174335957E-1,6.226261139E0,1.017691040E1
1.650038202E1,6.047254205E-1,6.481232643E0,1.064735031E1
1.652066260E1,1.797729135E-1,6.512355804E0,1.067967033E1
1.654094374E1,-6.083402038E-2,6.436941624E0,1.074191666E1
1.656122400E1,-3.912196159E-1,6.141270638E0,1.089513874E1
1.658152749E1,-1.244715929E0,5.642100811E0,1.123629761E1
1.660184786E1,-1.534401774E0,5.272212505E0,1.110581970E1
1.662214223E1,-1.298583150E0,4.716781616E0,1.020563889E1
1.664241906E1,-1.127405047E0,3.993763685E0,9.444314957E0
1.666269343E1,-9.023597836E-1,3.440726995E0,9.237226486E0
1.668296760E1,-5.755652189E-1,3.208499193E0,9.001406670E0
1.670317900E1,-3.809008002E-2,3.291095734E0,8.226916313E0
1.672312781E1,1.678024232E-1,3.366509676E0,7.107675076E0
1.674306307E1,1.977286637E-1,3.439529657E0,6.649205208E0
1.676294552E1,2.671574950E-1,3.589160919E0,6.880235672E0
1.678271520E1,2.480047345E-1,3.820191383E0,6.798836231E0
1.680260083E1,2.415648848E-2,4.251129627E0,6.580973625E0
1.682248729E1,-5.365172029E-2,4.587500095E0,6.261361122E0
1.684236317E1,1.582260132E-1,4.774240017E0,5.689171314E0
1.686223624E1,4.263650775E-1,5.024423122E0,5.775359154E0
1.688213255E1,1.761817634E-1,5.254256725E0,6.817988873E0
1.690223786E1,-3.505199552E-1,5.377552986E0,7.570932865E0
1.692253229E1,-5.839445591E-1,5.584642887E0,8.371759415E0
1.694280958E1,-4.426927567E-1,5.625342369E0,7.855831146E0
1.696308333E1,-5.456389785E-1,5.624145031E0,7.536218643E0
1.698335864E1,-8.389161229E-1,5.627736092E0,7.898924351E0
1.700363791E1,-1.148951888E0,5.803702831E0,8.522586823E0
1.702392588E1,-1.241124749E0,6.062265396E0,9.288699150E0
1.704421005E1,-9.945325255E-1,6.349557400E0,9.559231758E0
1.706448583E1,-1.925094277E-1,6.936110973E0,9.531700134E0
1.708476322E1,1.917434037E-1,7.508300781E0,8.862548828E0
1.710504145E1,-1.793418974E-1,7.367049217E0,8.423232079E0
1.712531822E1,-3.569597006E-2,7.021101475E0,8.918810844E0
1.714559546E1,-1.805389374E-1,6.333995342E0,9.972213745E0
1.716587484E1,-3.373523951E-1,5.408676147E0,1.093344498E1
1.718615499E1,2.774763852E-2,4.601865292E0,1.152837849E1
1.720643536E1,7.160511017E-1,4.343302250E0,1.156189632E1
1.722671744E1,1.192476630E0,4.339711189E0,1.092985439E1
1.724700119E1,1.552788496E0,4.460613251E0,1.049293137E1
1.726728286E1,1.278664231E0,4.448642731E0,9.962637901E0
1.728756708E1,7.771005630E-1,4.316967010E0,9.174979210E0
1.730785489E1,3.253584355E-2,4.058404446E0,8.578848839E0
1.732814176E1,-4.857865572E-1,3.963837385E0,7.900121689E0
1.734842848E1,-9.155272841E-1,4.155365467E0,6.908965111E0
1.736871494E1,-1.028049946E0,4.628200054E0,5.549116611E0
1.738899760E1,-6.904819608E-1,5.049561024E0,4.366432190E0
1.740928682E1,-2.882733941E-1,5.170463085E0,3.989361286E0
1.742957661E1,1.558319181E-1,5.041182041E0,4.848843098E0
1.744986005E1,2.707486749E-1,4.860427856E0,6.341563702E0
1.747014260E1,3.605273962E-1,4.958585739E0,7.336311340E0
1.749042150E1,3.820742369E-1,5.078290939E0,6.831156731E0
1.751070088E1,6.573956609E-1,5.259045124E0,6.685116768E0
1.753098567E1,6.753513813E-1,5.499652386E0,7.546991825E0
1.755127010E1,4.646706581E-1,6.077826500E0,8.570468903E0
1.757155234E1,5.168862641E-2,6.580587864E0,9.698089600E0
1.759183171E1,-1.374451816E-1,6.814012051E0,1.024155045E1
1.761211150E1,-1.913124174E-1,6.997160912E0,1.047018719E1
1.763239453E1,-5.228950381E-1,6.912170410E0,1.046779346E1
1.765267765E1,-1.661743373E-1,6.975613594E0,1.015177250E1
1.767296442E1,2.295944095E-2,7.261708736E0,9.844130516E0
1.769324942E1,-4.367074966E-1,7.374231339E0,9.416783333E0
1.771353426E1,-6.785115004E-1,7.452039719E0,9.122308731E0
1.773381979E1,-1.152543068E0,6.661986828E0,9.131884575E0
1.775410395E1,-9.023597836E-1,5.819264412E0,9.853706360E0
1.777438187E1,-9.969266057E-1,4.941827297E0,1.042829037E1
1.779465760E1,-7.084377408E-1,4.337316990E0,1.053602409E1
1.781493786E1,-5.061363578E-1,3.897999763E0,1.010269260E1
1.783522145E1,-4.414956570E-1,3.714851141E0,9.234831810E0
1.785550718E1,-2.727117538E-1,3.718442202E0,7.934835911E0
1.787578994E1,-2.356032282E-1,3.548461199E0,7.086128235E0
1.789606926E1,-2.008887976E-1,3.336583376E0,7.332720757E0
1.791617739E1,-3.672786355E-1,3.553249359E0,8.036585808E0
1.793609822E1,-8.329308629E-1,4.168532848E0,8.047358513E0
1.795597885E1,-8.401131034E-1,4.553983212E0,7.110069275E0
1.797585354E1,-5.468360782E-1,4.652141094E0,6.071030140E0
1.799581385E1,-1.410363168E-1,4.727555275E0,5.207957745E0
1.801570505E1,3.868624568E-1,4.854442120E0,4.939818382E0
1.803564802E1,5.209320188E-1,4.916689396E0,5.121769905E0
1.805554046E1,3.306011558E-1,5.054349899E0,5.291750908E0
1.807537057E1,1.534378231E-1,5.450572968E0,5.389909267E0
1.809524484E1,1.103440449E-1,5.780958652E0,5.486869812E0
1.811507088E1,2.791280150E-1,5.846796036E0,5.850772858E0
1.813495781E1,3.701037765E-1,5.548731327E0,6.551046848E0
1.815484713E1,2.894469351E-2,5.219542027E0,8.620744705E0
1.817481046E1,-4.199488163E-1,5.236301422E0,1.044624615E1
1.819467770E1,-2.212386280E-1,5.565489769E0,1.089992714E1
1.821448546E1,-2.611957490E-2,5.729485512E0,1.072874928E1
1.823438234E1,1.199204400E-1,5.830037594E0,1.040793991E1
1.825426406E1,6.825336218E-1,6.205911160E0,1.051088619E1
1.827413848E1,1.427098274E0,6.818799973E0,1.062221241E1
1.829404046E1,7.950563431E-1,6.739795208E0,1.006917477E1
1.831400067E1,7.316126823E-1,7.389793396E0,1.041153145E1
1.833396104E1,2.815220952E-1,7.657932281E0,1.076466084E1
1.835382906E1,-2.595441937E-1,7.121653557E0,1.018768311E1
1.837362520E1,-1.410363168E-1,5.943757057E0,9.711256981E0
1.839326057E1,7.172480822E-1,4.898733139E0,9.552049637E0
1.841315317E1,1.630596757E0,4.218809128E0,8.940358162E0
1.843330676E1,2.515216351E0,4.212823868E0,7.892939568E0
1.845318828E1,2.962912798E0,4.510889053E0,6.444509506E0
1.847309619E1,2.651679754E0,4.674885273E0,5.887881756E0
1.849302260E1,1.330137372E0,4.348090649E0,6.565411568E0
1.851281354E1,4.143946171E-1,3.896802664E0,7.561356544E0
1.853274395E1,-5.365172029E-2,3.531702757E0,7.925259590E0
1.855263135E1,-1.206864864E-1,3.463470697E0,7.688243866E0
1.857250374E1,-2.727117538E-1,3.881241083E0,7.470381260E0
1.859266302E1,-8.592659235E-1,5.169266224E0,6.158414841E0
1.861295182E1,-7.000583410E-1,5.333261967E0,7.211818695E0
1.863324020E1,-4.917718172E-1,5.259045124E0,8.836214066E0
1.865352473E1,-3.960078359E-1,5.141734123E0,9.234831810E0
1.867380979E1,-1.123071462E-1,4.892748356E0,8.776362419E0
1.869409713E1,6.071195006E-1,4.779028416E0,8.564483643E0
1.871438421E1,1.196067810E0,5.126172543E0,9.287502289E0
1.873466994E1,9.219434857E-1,5.572672367E0,9.481424332E0
1.875495499E1,6.538044214E-1,6.179576397E0,9.609508514E0
1.877522869E1,5.233260989E-1,6.420183182E0,9.978199005E0
1.879549973E1,4.108034372E-1,6.301675320E0,9.868070602E0
1.881578541E1,6.370457411E-1,6.442926884E0,9.651405334E0
1.883607854E1,6.669720411E-1,6.818799973E0,9.767518997E0
1.885637140E1,4.929452762E-2,6.616499424E0,9.818991661E0
1.887665994E1,-2.248297781E-1,6.347163200E0,1.026668835E1
1.889694333E1,-9.035567641E-1,5.888693333E0,1.131889534E1
1.891722307E1,-1.136981368E0,5.153704643E0,1.214366245E1
1.893750432E1,-9.777738452E-1,4.271479607E0,1.202276039E1
1.895778546E1,-6.330236197E-1,3.778294802E0,1.121594810E1
1.897805614E1,-5.396537185E-1,3.622678518E0,9.760335922E0
1.899832828E1,-5.252891779E-1,3.572402239E0,8.059329033E0
1.901861208E1,-1.661743373E-1,3.796250582E0,6.646811008E0
1.903889890E1,3.210247159E-1,4.029675484E0,5.695156574E0
1.905918317E1,4.730499983E-1,4.071572304E0,5.465322971E0
1.907946380E1,-1.278687865E-1,4.088330746E0,5.851970196E0
1.909975338E1,-1.095084667E0,4.350484848E0,7.060989857E0
1.912004275E1,-1.716353297E0,4.757481098E0,7.570932865E0
1.914032505E1,-1.767826438E0,4.893945217E0,7.538612843E0
1.916061067E1,-1.426667452E0,4.741919518E0,7.447637081E0
1.918088697E1,-6.904819608E-1,4.631791115E0,6.819186211E0
1.920115885E1,-2.763029337E-1,4.790998936E0,6.304454803E0
1.922144078E1,-4.211458564E-1,5.136946201E0,6.321213722E0
1.924172468E1,-9.382712245E-1,5.518804550E0,6.691102028E0
1.926200838E1,-1.387164831E0,5.903057575E0,6.814397812E0
1.928229156E1,-1.342873931E0,6.317236900E0,7.165133476E0
1.930257426E1,-1.134587288E0,6.464473724E0,7.238153458E0
1.932285729E1,-7.419551015E-1,6.542282104E0,6.773697853E0
1.934314057E1,-2.547559738E-1,6.714657307E0,6.832353592E0
1.936342364E1,-2.056769878E-1,7.085741997E0,7.278852940E0
1.938369807E1,-5.264861584E-1,7.258117676E0,8.202975273E0
1.940397307E1,-1.072340846E0,7.301211357E0,9.643026352E0
1.942425718E1,-9.658033252E-1,7.465207100E0,1.045701885E1
1.944454119E1,-2.918645144E-1,7.595685482E0,1.047617245E1
1.946482400E1,-9.195730090E-2,7.242555618E0,9.643026352E0
1.948510562E1,1.486496329E-1,7.019904613E0,8.976268768E0
1.950538874E1,1.462555230E-1,6.966037750E0,8.582440376E0
1.952570322E1,-1.302628815E-1,6.638046265E0,8.582440376E0
1.954601505E1,-5.312744379E-1,5.743850231E0,9.306654930E0
1.956629161E1,-3.181996346E-1,5.071108341E0,1.036604309E1
1.958631031E1,4.981880188E-1,4.726358414E0,1.056954193E1
1.960631979E1,9.746137261E-1,4.647352695E0,9.425163269E0
1.962637650E1,1.253526211E0,4.965768337E0,7.921668530E0
1.964627536E1,1.224797010E0,5.332065105E0,6.668357849E0
1.966617713E1,7.818887830E-1,5.381144047E0,5.966886997E0
1.968603822E1,4.263650775E-1,5.090260983E0,6.145247459E0
1.970591088E1,3.174335957E-1,4.503706932E0,6.592944145E0
1.972581567E1,3.545421362E-1,4.136212349E0,6.944876671E0
1.974570400E1,4.550942779E-1,4.129030228E0,6.788063049E0
1.976557255E1,6.059225202E-1,4.587500095E0,6.106941700E0
1.978567369E1,6.286664605E-1,5.054349899E0,5.637698650E0
1.980597364E1,4.790352583E-1,5.236301422E0,6.973605633E0
1.982625484E1,6.645779610E-1,5.316503048E0,7.744504929E0
1.984654041E1,6.909130216E-1,5.424237728E0,8.278389931E0
1.986682546E1,9.422934055E-1,5.370370865E0,8.556104660E0
1.988710775E1,1.145791650E0,5.528381348E0,8.507025719E0
1.990739062E1,1.264299631E0,6.061068058E0,8.510617256E0
1.992767223E1,1.078756928E0,6.591361046E0,8.766784668E0
1.994795400E1,4.778382182E-1,7.073771477E0,9.882434845E0
1.996824765E1,1.498466730E-1,7.164747715E0,1.071677876E1
1.998854046E1,3.329952359E-1,6.928929329E0,1.059946823E1
2.000882140E1,6.095136404E-1,6.707474709E0,1.088316917E1
2.002910239E1,1.283452272E0,6.675154686E0,1.098372078E1
2.004938296E1,1.556379676E0,6.418985844E0,9.859690666E0
2.006966426E1,1.737134099E0,6.628469467E0,8.623139381E0
2.008994557E1,1.276270032E0,6.764933109E0,7.980324268E0
2.011024078E1,7.615389228E-1,6.654804707E0,8.371759415E0
2.013053604E1,1.338304579E-2,6.077826500E0,9.219269753E0
2.015081588E1,-5.887327790E-1,5.438602924E0,1.028823471E1
2.017109572E1,-1.014882445E0,5.207571983E0,1.063537884E1
2.019138078E1,-1.035232306E0,5.080684662E0,9.617888451E0
2.021166906E1,-4.893776774E-1,4.971753120E0,8.133546829E0
2.023195213E1,-5.843991041E-2,4.957388878E0,6.992758274E0
2.025223249E1,2.551870346E-1,4.995694160E0,6.098562717E0
2.027251333E1,3.317981958E-1,4.706008434E0,5.277386665E0
2.029279713E1,-1.099130362E-1,4.405549049E0,4.604644775E0
2.031308494E1,-6.892849207E-1,4.636579037E0,5.219928265E0
2.033337124E1,-8.137780428E-1,4.970556259E0,6.395430565E0
2.035365546E1,-7.635020018E-1,5.024423122E0,7.193862438E0
2.037394161E1,-5.360625982E-1,4.808954716E0,7.541007042E0
2.039422947E1,-4.845895171E-1,4.655732155E0,7.410528660E0
2.041452161E1,-7.239993811E-1,5.056743622E0,7.232168198E0
2.043480953E1,-6.258413196E-1,5.688785553E0,7.258502960E0
2.045509213E1,-4.450868368E-1,5.803702831E0,7.610435486E0
2.047537796E1,-4.391016364E-1,5.771382332E0,7.782811165E0
2.049566052E1,-4.654366970E-1,6.088600159E0,7.384193420E0
2.051594354E1,-5.839445591E-1,6.453700066E0,7.129221916E0
2.053622604E1,-3.744609356E-1,6.694307327E0,7.116054535E0
2.055650520E1,-4.886351526E-2,6.683533669E0,7.197453499E0
2.057678817E1,-4.646942019E-2,6.751765728E0,7.138798714E0
2.059707911E1,-4.786042571E-1,6.830770493E0,7.089718819E0
2.061736515E1,-9.741826653E-1,7.193476677E0,7.270473480E0
2.063764593E1,-9.430593848E-1,7.819533825E0,8.117984772E0
2.065793192E1,-8.951774240E-1,7.934450150E0,8.961903572E0
2.067821479E1,-5.623976588E-1,7.748907566E0,9.060063362E0
2.069850025E1,-1.769478172E-1,7.450842857E0,8.891279221E0
2.071878911E1,1.354820877E-1,6.916958809E0,9.332989693E0
2.073907093E1,6.214841604E-1,6.233443260E0,9.486211777E0
2.075935286E1,7.196422219E-1,5.405085087E0,9.010983467E0
2.077963911E1,5.831785798E-1,4.885565758E0,8.785938263E0
2.079969609E1,5.652227998E-1,4.856836796E0,9.239620209E0
2.081978848E1,6.897159219E-1,4.913097858E0,9.602326393E0
2.083974786E1,9.135642052E-1,4.881974697E0,9.826173782E0
2.085947161E1,8.189972639E-1,4.865215778E0,9.609508514E0
2.087935598E1,3.353893161E-1,4.986117840E0,9.140265465E0
2.089916932E1,-1.829330772E-1,5.090260983E0,8.490266800E0
2.091895239E1,-4.103724360E-1,5.045970440E0,7.933639050E0
2.093884161E1,-4.007959962E-1,4.775437355E0,7.631982327E0
2.095875177E1,-2.971073985E-2,4.573135853E0,7.416513443E0
2.097864385E1,5.149467587E-1,4.580317974E0,6.924526691E0
2.099853718E1,8.704704046E-1,4.788604736E0,6.847915649E0
2.101841286E1,7.639330029E-1,5.085472584E0,7.220197678E0
2.103829338E1,5.376906991E-1,5.304533005E0,7.221394539E0
2.105817734E1,4.000300169E-1,5.450572968E0,7.069369316E0
2.107806906E1,3.760889769E-1,5.688785553E0,7.239350319E0
2.109791244E1,3.437686563E-1,5.876722813E0,7.617618084E0
2.111780208E1,6.609867811E-1,5.956924915E0,7.766052246E0
2.113773380E1,7.579477429E-1,6.065855980E0,7.795978546E0
2.115768921E1,6.813366413E-1,6.427365303E0,7.660712242E0
2.117758692E1,5.891637802E-1,6.824785709E0,7.444046021E0
2.119740890E1,5.795874000E-1,7.155171394E0,7.366237640E0
2.121728374E1,4.598824382E-1,7.228191376E0,7.429681778E0
2.123716302E1,-8.477500081E-2,6.822391510E0,8.135940552E0
2.125709036E1,-6.701321006E-1,6.424971104E0,1.008593369E1
2.127705202E1,-7.527285218E-1,6.507567883E0,1.209458351E1
2.129689932E1,-1.114237547E0,6.275340080E0,1.172349739E1
2.131678604E1,-7.359698415E-1,6.444124222E0,9.798642159E0
2.133668213E1,-9.263007045E-1,6.513552666E0,8.022220612E0
2.135649010E1,-8.353249431E-1,6.438138485E0,7.896530628E0
2.137636755E1,-6.078855395E-1,5.670830250E0,9.322216034E0
2.139624635E1,-4.570573568E-1,4.585106373E0,1.089873028E1
2.141612130E1,-5.145157576E-1,3.906378984E0,1.208620262E1
2.143600687E1,-7.754724622E-1,3.863285303E0,1.155591011E1
2.145590348E1,-6.210530996E-1,4.430686951E0,9.529306412E0
2.147578994E1,-6.102796793E-1,4.725161076E0,7.353070259E0
2.149566437E1,-8.077927828E-1,4.585106373E0,5.762191772E0
2.151556124E1,-6.402059197E-1,4.388790131E0,5.567072392E0
2.153544802E1,-4.965599775E-1,4.621017933E0,6.298469543E0
2.155532354E1,-4.594514370E-1,5.012452602E0,6.993955612E0
2.157522093E1,-5.252891779E-1,5.062729359E0,7.268079758E0
2.159510770E1,-4.067812562E-1,5.148916721E0,6.468450546E0
2.161505650E1,1.318909377E-1,5.279394627E0,6.342760563E0
2.163495515E1,5.855726600E-1,5.097443104E0,6.869462013E0
2.165484202E1,9.901753068E-1,4.820925236E0,7.298006058E0
2.167473119E1,8.477264643E-1,4.835289478E0,7.120842457E0
2.169455531E1,2.755368352E-1,5.412267208E0,6.652796268E0
2.171442619E1,3.852108121E-2,6.051491737E0,6.433735847E0
2.173437468E1,-3.062291145E-1,6.594952106E0,6.950861454E0
2.175431583E1,-9.059508443E-1,6.630863667E0,8.292754173E0
2.177417619E1,-9.071479440E-1,6.446518421E0,8.808682442E0
2.179401213E1,-4.079783559E-1,6.489611626E0,8.456749916E0
2.181387010E1,2.970837355E-1,6.600937366E0,7.973141670E0
2.183382729E1,4.945968986E-1,6.547070026E0,7.774431705E0
2.185378005E1,5.819814801E-1,7.019904613E0,8.514207840E0
2.187367687E1,1.474525779E-1,7.657932281E0,8.527376175E0
2.189352359E1,-2.858792543E-1,7.926071167E0,8.777559280E0
2.191336812E1,-5.863386989E-1,7.599276543E0,9.848917961E0
2.193326604E1,-2.236327082E-1,7.052225113E0,1.032295036E1
2.195315437E1,-7.639566064E-2,6.229852200E0,9.680133820E0
2.197298656E1,3.784831166E-1,5.573869228E0,9.299471855E0
2.199273244E1,9.554609656E-1,5.132157803E0,8.989437103E0
2.201257176E1,1.288240552E0,4.978935719E0,8.565681458E0
2.203256656E1,1.255920172E0,5.047167301E0,7.859422207E0
2.205249937E1,7.866769433E-1,4.998088360E0,7.830693245E0
2.207245515E1,1.797729135E-1,4.695234776E0,8.185019493E0
2.209236520E1,-2.774999142E-1,4.225991249E0,8.256842613E0
2.211217229E1,-3.744609356E-1,3.988975525E0,7.885756969E0
2.213205062E1,-4.438897967E-1,4.066783905E0,7.092113495E0
2.215195822E1,-3.696727753E-1,4.343302250E0,6.303257942E0
2.217182895E1,-5.769744515E-3,4.525253773E0,5.545525551E0
2.219149786E1,4.072122574E-1,4.868807316E0,4.920666218E0
2.221138786E1,4.598824382E-1,5.086670399E0,5.179228306E0
2.223147312E1,3.988329172E-1,5.102231503E0,6.235025883E0
2.225143369E1,3.641185164E-1,5.311715126E0,7.275261879E0
2.227140244E1,4.419267178E-1,5.587036610E0,7.772037506E0
2.229123906E1,7.124598622E-1,5.624145031E0,7.712184906E0
2.231105880E1,8.980025649E-1,5.717514992E0,7.514671803E0
2.233094989E1,7.854799032E-1,6.102964878E0,7.819919586E0
2.235082578E1,5.532523394E-1,6.428562164E0,8.317892075E0
2.237069817E1,2.803250551E-1,6.405817986E0,8.491463661E0
2.239038614E1,1.977286637E-1,6.330404282E0,8.812273026E0
2.241026104E1,1.342850327E-1,6.156832218E0,9.025347710E0
2.243034515E1,6.454251409E-1,5.791732311E0,9.349747658E0
2.245025546E1,1.589897037E0,5.947348595E0,1.009670734E1
2.247014166E1,1.419916034E0,6.294492722E0,1.032654095E1
2.249000656E1,7.567507029E-1,6.604528904E0,1.029062939E1
2.250992838E1,3.377834558E-1,6.799647808E0,1.026189995E1
2.252983057E1,-1.565979570E-1,6.457291603E0,1.053243351E1
2.254969505E1,-5.707770586E-1,5.819264412E0,1.131889534E1
2.256965083E1,-1.080720186E0,5.129763603E0,1.258896446E1
2.258981968E1,-4.714218974E-1,3.627466440E0,1.367947578E1
2.260981578E1,-4.714218974E-1,3.627466440E0,1.367947578E1
2.262941973E1,-4.287827015E-2,3.186952353E0,1.204909515E1
2.264912916E1,3.689067364E-1,3.368903875E0,9.407207489E0
2.266914416E1,3.629214764E-1,3.724427462E0,6.979590416E0
2.268902624E1,4.570338130E-2,4.033266544E0,5.327662468E0
2.270879713E1,-2.990468740E-1,4.184094429E0,4.520851612E0
2.272867807E1,-5.600036383E-1,4.281055927E0,4.768640518E0
2.274862354E1,-8.173691630E-1,4.296617508E0,6.400218964E0
2.276851723E1,-8.736305237E-1,4.150577545E0,7.641559124E0
2.278816223E1,-7.108318210E-1,3.977005005E0,7.374617100E0
2.280807843E1,-1.410363168E-1,4.000946045E0,6.484012604E0
2.282818499E1,2.503988147E-1,4.191277027E0,5.727477074E0
2.284801859E1,3.820742369E-1,4.538421154E0,5.535949230E0
2.286782739E1,5.647682399E-2,4.917886257E0,6.056665421E0
2.288781213E1,-3.445346951E-1,5.108216763E0,7.278852940E0
2.290780145E1,-4.881806374E-1,5.099837780E0,8.582440376E0
2.292756479E1,-2.942586541E-1,5.091458321E0,9.303064346E0
2.294738265E1,-7.280449569E-2,5.175251484E0,9.586764336E0
2.296727421E1,2.264578342E-1,5.207571983E0,1.020085144E1
2.298698864E1,2.719457150E-1,5.266227245E0,1.073353767E1
2.300695286E1,2.515958548E-1,5.498455048E0,1.069044399E1
2.302703421E1,1.402702779E-1,5.731879711E0,1.070720196E1
2.304689947E1,4.658676982E-1,6.249004841E0,1.116567230E1
2.306676723E1,6.765483618E-1,6.405817986E0,1.070720196E1
2.308664213E1,7.244303823E-1,6.508764744E0,9.963834763E0
2.310659031E1,5.891637802E-1,6.715854168E0,9.583172798E0
2.312644630E1,-2.176474780E-1,6.701489925E0,9.402419090E0
2.314633052E1,-9.107390046E-1,6.305266380E0,9.963834763E0
2.316631807E1,-7.359698415E-1,5.689982891E0,1.090471649E1
2.318641302E1,5.999372602E-1,4.440263271E0,1.052884197E1
2.320631109E1,5.999372602E-1,4.440263271E0,1.052884197E1
2.322597734E1,1.185294271E0,4.060798645E0,9.633448601E0
2.324578916E1,1.417521954E0,3.745974541E0,8.380138397E0
2.326562583E1,7.100658417E-1,3.669363260E0,7.380601883E0
2.328550864E1,-2.571501136E-1,3.810615301E0,6.603716850E0
2.330537452E1,-8.508865833E-1,3.903985023E0,6.355927944E0
2.332526265E1,-1.029247046E0,3.917152405E0,6.721027851E0
2.334516400E1,-6.868907809E-1,3.893211365E0,6.361913204E0
2.336502546E1,-1.577949971E-1,4.131424427E0,5.521584511E0
2.338483916E1,2.288519442E-1,4.465401173E0,5.188805103E0
2.340482937E1,5.592375398E-1,4.737131596E0,5.055932522E0
2.342489104E1,7.100658417E-1,4.903521061E0,5.422229767E0
2.344470083E1,7.435832024E-1,4.969359398E0,6.625264168E0
2.346448786E1,5.759962201E-1,5.225527763E0,7.734929085E0
2.348438635E1,3.018719554E-1,5.510425091E0,8.967889786E0
2.350429828E1,2.176239341E-2,5.972486496E0,9.461073875E0
2.352421161E1,-3.780521154E-1,6.408212662E0,9.197723389E0
2.354433135E1,-5.612006187E-1,6.721839428E0,9.115126610E0
2.356465671E1,-4.498750567E-1,7.005540371E0,9.413191795E0
2.358483176E1,-4.498750567E-1,7.005540371E0,9.413191795E0
2.360498223E1,-1.290658265E-1,7.015116692E0,9.115126610E0
2.362526697E1,-1.984946877E-1,7.077363014E0,8.638701439E0
2.364554786E1,-1.013685346E0,7.089333534E0,8.879307747E0
2.366582833E1,-1.783388019E0,6.743386269E0,1.032893467E1
2.368610911E1,-2.237069607E0,5.237498283E0,1.192460251E1
2.370639046E1,-1.881546140E0,3.850117683E0,1.326529694E1
2.372667182E1,-1.109449267E0,2.789531946E0,1.403859138E1
2.374695380E1,-2.571501136E-1,2.107213974E0,1.329043484E1
2.376723572E1,3.341922760E-1,2.028208733E0,1.111898708E1
2.378751687E1,3.856654167E-1,2.580048561E0,8.173048973E0
2.380779880E1,-8.238090575E-2,3.584372759E0,5.592210770E0
2.382808426E1,-8.736305237E-1,4.634185314E0,4.557960033E0
2.384838328E1,-1.414696932E0,5.456558228E0,4.622600555E0
2.386868213E1,-1.719944596E0,5.535563469E0,5.055932522E0
2.388896770E1,-1.792964578E0,5.139340401E0,6.359519005E0
2.390925312E1,-1.214789629E0,4.940629482E0,7.426090240E0
2.392953578E1,-3.648845553E-1,4.860427856E0,6.975999355E0
2.394981781E1,2.384283394E-1,5.032802582E0,6.062651157E0
2.397010005E1,1.474525779E-1,5.347626686E0,5.577846050E0
2.399037869E1,-3.038350344E-1,5.715120792E0,5.988433838E0
2.401065749E1,-8.449013829E-1,5.858766556E0,7.049019337E0
2.403093760E1,-1.166907668E0,5.707938671E0,8.162275314E0
2.405121671E1,-1.122616768E0,5.470922470E0,9.391645432E0
2.407149541E1,-9.274976850E-1,5.432617188E0,9.696892738E0
2.409177645E1,-4.199488163E-1,5.634918690E0,8.829031944E0
2.411205807E1,-2.631353736E-1,5.853978634E0,7.529036522E0
2.413234234E1,-1.972976178E-1,6.207108021E0,6.628855228E0
2.415262984E1,-1.446274668E-1,6.280128002E0,6.378672123E0
2.417291598E1,1.366791278E-1,6.282522202E0,7.058596134E0
2.419319786E1,6.992923021E-1,6.615302086E0,8.068905830E0
2.421347791E1,1.017707467E0,6.960052013E0,8.079679489E0
2.423375906E1,9.794018865E-1,7.288043499E0,7.318355560E0
2.425403958E1,4.239709973E-1,7.560971260E0,7.308779716E0
2.427432338E1,-1.601891071E-1,7.073771477E0,8.595606804E0
2.429460775E1,-4.510720968E-1,5.952136517E0,1.044983673E1
2.431488874E1,-2.786970139E-1,4.662914753E0,1.194375420E1
2.433517411E1,4.598824382E-1,3.846526384E0,1.246806240E1
2.435546286E1,1.073968768E0,3.633451700E0,1.151760483E1
2.437575098E1,1.290634751E0,3.929122925E0,9.701681137E0
2.439603390E1,1.173323870E0,4.547997475E0,7.928851128E0
2.441631676E1,5.724050999E-1,4.931053638E0,7.333917618E0
2.443660244E1,7.397800684E-3,4.828107357E0,7.683455467E0
2.445688447E1,-3.577022552E-1,4.514480114E0,8.218537331E0
2.447716635E1,-5.216979980E-1,4.036857605E0,9.013378143E0
2.449744718E1,-1.625832170E-1,3.737595081E0,8.712918282E0
2.451772218E1,4.131975174E-1,3.828570604E0,7.667893887E0
2.453800239E1,5.520552993E-1,4.168532848E0,6.704269409E0
2.455816052E1,5.628287196E-1,4.799378395E0,6.189538002E0
2.457807739E1,4.323503375E-1,5.297350883E0,5.946537018E0
2.459789041E1,3.162365556E-1,5.273409843E0,6.701875210E0
2.461786499E1,2.348371893E-1,5.043576241E0,7.877377510E0
2.463782583E1,4.227739573E-1,4.889156818E0,8.773967743E0
2.465766348E1,7.842828631E-1,4.785013676E0,8.965496063E0
2.467762916E1,1.090727448E0,5.164478302E0,8.412459373E0
2.469752281E1,1.412733674E0,5.924604893E0,8.037782669E0
2.471734083E1,1.509694695E0,6.468064785E0,8.279586792E0
2.473722671E1,1.445054054E0,6.448912144E0,8.574060440E0
2.475717395E1,1.364851713E0,6.222669601E0,9.094777107E0
2.477705197E1,1.270284772E0,6.472853184E0,9.319822311E0
2.479693499E1,8.656821847E-1,6.943293571E0,8.994225502E0
2.481685885E1,-3.577022552E-1,6.960052013E0,8.432808876E0
2.483666916E1,-7.335757613E-1,7.052225113E0,8.748829842E0
2.485651135E1,-7.766695619E-1,6.500385284E0,1.043666935E1
2.487641505E1,-3.505199552E-1,5.394311905E0,1.228371620E1
2.489631442E1,6.725026667E-2,4.161350727E0,1.363159370E1
2.491618473E1,3.054630756E-1,3.464667797E0,1.464669228E1
2.493615109E1,1.175263450E-1,3.154631853E0,1.358131790E1
2.495610702E1,2.155080438E-4,3.434741735E0,1.074790192E1
2.497597385E1,-5.899298191E-1,4.048828125E0,8.015038490E0
2.499581302E1,-1.318932891E0,4.318164349E0,6.000404358E0
2.501566494E1,-1.357238531E0,4.354075909E0,5.260628223E0
2.503553406E1,-7.754724622E-1,4.123044968E0,5.711915493E0
2.505536166E1,-5.588065386E-1,3.909970284E0,6.750954628E0
2.507531578E1,-7.766695619E-1,3.982990265E0,7.837874889E0
2.509529609E1,-1.044808626E0,4.222400188E0,7.720564365E0
2.511516281E1,-8.796157837E-1,4.757481098E0,6.776092529E0
2.513504921E1,-6.019002795E-1,5.187222004E0,6.335577965E0
2.515488145E1,-3.361553550E-1,5.154901505E0,6.230237961E0
2.517470541E1,1.458010077E-2,5.024423122E0,6.037513256E0
2.519459025E1,8.760011196E-2,5.221936703E0,6.796442032E0
2.521453239E1,-5.097274780E-1,5.552322388E0,7.880969048E0
2.523449749E1,-1.195636868E0,5.977274895E0,8.460341454E0
2.525438677E1,-1.441032052E0,6.125708580E0,8.918810844E0
2.527426348E1,-1.626574636E0,6.138876438E0,9.285107613E0
2.529415994E1,-1.713959336E0,5.856372833E0,9.164206505E0
2.531403114E1,-1.335691690E0,5.385931969E0,9.063653946E0
2.533390635E1,-6.234471798E-1,5.087867260E0,9.010983467E0
2.535381734E1,2.415648848E-2,5.138143063E0,8.699750900E0
2.537367333E1,3.389804959E-1,5.688785553E0,8.376547813E0
2.539372046E1,2.492017746E-1,6.466867924E0,7.511080742E0
2.541364541E1,2.492017746E-1,6.466867924E0,7.511080742E0
2.543332880E1,2.108961940E-1,6.791268349E0,7.494321823E0
2.545317770E1,3.748919368E-1,6.882244110E0,7.953989029E0
2.547303010E1,1.857581437E-1,6.307660103E0,8.388518333E0
2.549293734E1,-1.601891071E-1,5.377552986E0,8.556104660E0
2.551285322E1,-1.745536774E-1,4.970556259E0,8.773967743E0
2.553267249E1,2.056533843E-2,4.923871040E0,9.479029655E0
2.555251010E1,5.855726600E-1,4.661717415E0,9.858493805E0
2.557234708E1,1.240358591E0,4.571938515E0,9.736394882E0
2.559203593E1,1.404354334E0,4.512086391E0,9.157024384E0
2.561196161E1,1.022495627E0,4.695234776E0,8.544134140E0
2.563211619E1,2.503988147E-1,4.804166317E0,7.950397491E0
2.565205833E1,-1.697655171E-1,4.855638981E0,7.440454483E0
2.567194078E1,-1.494156867E-1,4.898733139E0,6.779683590E0
2.569183916E1,3.971812874E-2,4.853245258E0,6.444509506E0
2.571173630E1,1.689994633E-1,4.744313717E0,6.205100060E0
2.573162109E1,4.586853981E-1,4.830501080E0,6.042301178E0
2.575146932E1,5.580404997E-1,5.126172543E0,6.369095325E0
2.577133932E1,4.167886972E-1,5.336853027E0,6.877841473E0
2.579143525E1,9.889783263E-1,5.218345165E0,7.139995575E0
2.581172229E1,1.307393312E0,5.557110310E0,7.117251396E0
2.583201072E1,1.166141629E0,5.827643871E0,7.465592384E0
2.585229812E1,9.099730253E-1,6.241822720E0,8.562089920E0
2.587258192E1,4.814293385E-1,6.669169426E0,9.892011642E0
2.589286213E1,-9.315434098E-2,6.653607845E0,1.073832607E1
2.591314234E1,-4.546632171E-1,6.524326324E0,1.081852818E1
2.593342682E1,-6.210530996E-1,6.499188423E0,1.095259762E1
2.595370906E1,-2.918645144E-1,6.663184166E0,1.193537521E1
2.597397713E1,-3.349583149E-1,6.471656322E0,1.236990356E1
2.599424817E1,-6.054914594E-1,6.155635357E0,1.120756912E1
2.601453156E1,-6.761173606E-1,6.342374802E0,9.360522270E0
2.603481489E1,-1.169301748E0,6.282522202E0,8.150304794E0
2.605509692E1,-1.615801215E0,5.796520233E0,8.474704742E0
2.607537900E1,-1.764235258E0,4.968162060E0,9.084003448E0
2.609566119E1,-1.679244757E0,4.352878571E0,9.547262192E0
2.611594369E1,-1.901896119E0,3.949472666E0,9.573596954E0
2.613622765E1,-2.355577707E0,3.798644781E0,9.294684410E0
2.615651494E1,-2.442962170E0,3.901591063E0,8.401684761E0
2.617679156E1,-2.205946445E0,4.083542347E0,7.011910915E0
2.619706494E1,-1.613407016E0,3.905181885E0,6.387051582E0
2.621734822E1,-7.419551015E-1,3.586766958E0,6.422962666E0
2.623763499E1,3.806650639E-3,3.546067238E0,6.661175728E0
2.625792015E1,4.527001381E-1,3.864482164E0,6.893403053E0
2.627820140E1,2.934926152E-1,4.246341228E0,6.750954628E0
2.629848354E1,3.389804959E-1,4.609047413E0,6.299666405E0
2.631876588E1,7.028835416E-1,5.032802582E0,6.257770061E0
2.633904833E1,1.102697968E0,5.265030384E0,6.249390602E0
2.635933057E1,1.558773756E0,5.643297672E0,6.213479042E0
2.637961307E1,1.290634751E0,6.173590660E0,6.389445305E0
2.639989588E1,3.533450961E-1,6.389059544E0,7.793584347E0
2.642017687E1,-8.477500081E-2,6.365118504E0,9.858493805E0
2.644045775E1,2.934926152E-1,5.991639137E0,1.084486294E1
2.646073869E1,6.250752807E-1,5.729485512E0,1.050011349E1
2.648101973E1,7.172480822E-1,6.007200718E0,9.699287415E0
2.650130249E1,6.131048203E-1,6.456094265E0,8.844594002E0
2.652158541E1,4.323503375E-1,6.731415749E0,8.301133156E0
2.654186843E1,1.929404438E-1,6.805632591E0,8.168260574E0
2.656215359E1,9.791895747E-3,6.879849911E0,8.516602516E0
2.658242968E1,2.863103151E-1,7.264102936E0,9.010983467E0
2.660270447E1,2.384283394E-1,7.059407234E0,8.463932037E0
2.662298906E1,2.384283394E-1,7.011525154E0,7.815131187E0
2.664327338E1,-1.350510865E-1,6.776903629E0,8.213748932E0
2.666355770E1,-3.840373755E-1,5.868343353E0,9.669361115E0
2.668384161E1,-5.564123988E-1,5.006467819E0,1.095858288E1
2.670412333E1,-5.109245777E-1,4.510889053E0,1.130572701E1
2.672440499E1,-2.810910940E-1,4.473780632E0,1.024394417E1
2.674468775E1,1.917434037E-1,4.848457336E0,8.314301491E0
2.676497083E1,7.064746618E-1,5.366779804E0,6.837141991E0
2.678504515E1,6.526074409E-1,5.553519249E0,6.120109081E0
2.680510275E1,3.533450961E-1,5.306927204E0,6.258966923E0
2.682517525E1,5.647682399E-2,4.805363178E0,7.125630379E0
2.684504598E1,-1.075189412E-1,4.574332714E0,7.661909103E0
2.686492932E1,-2.080710977E-1,4.647352695E0,7.531430721E0
2.688483328E1,-1.654319465E-2,4.713190556E0,6.744968891E0
2.690470786E1,1.031617522E-1,4.764663696E0,5.784935474E0
2.692458932E1,1.175263450E-1,5.093852043E0,5.195987225E0
2.694448833E1,8.640305698E-2,5.473316669E0,5.318086147E0
2.696436208E1,3.306011558E-1,5.634918690E0,5.671215534E0
2.698444166E1,-6.921336055E-2,5.709135532E0,6.043498039E0
2.700435229E1,-5.983091593E-1,5.622948170E0,6.628855228E0
2.702402723E1,-9.059508443E-1,5.885101795E0,7.326735020E0
2.704388864E1,-1.217183828E0,6.326813221E0,8.048556328E0
2.706385505E1,-1.326115251E0,6.918155670E0,9.074426651E0
2.708382171E1,-1.117828727E0,6.870273590E0,1.000214005E1
2.710367130E1,-9.310888648E-1,6.645228386E0,9.878844261E0
2.712348817E1,-6.497823000E-1,7.027087212E0,9.398826599E0
2.714332781E1,-5.635947585E-1,7.059407234E0,9.069639206E0
2.716319854E1,-7.539256215E-1,6.690716267E0,9.355733871E0
2.718310656E1,-4.043871760E-1,6.501582146E0,1.030020618E1
2.720306265E1,-3.612934351E-1,6.375892162E0,1.009072208E1
2.722292588E1,-8.238090575E-2,6.793662071E0,9.268348694E0
2.724275880E1,1.414673328E-1,6.884638309E0,8.667429924E0
2.726268734E1,-7.041041553E-2,6.548267365E0,8.366971016E0
2.728255260E1,-3.744609356E-1,6.318433762E0,9.358127594E0
2.730240234E1,-1.084311247E0,5.357203007E0,1.058989239E1
2.732230598E1,-1.079523087E0,4.513283253E0,1.113813972E1
2.734219031E1,-8.640540838E-1,4.135015488E0,1.086521339E1
2.736206609E1,-5.300773382E-1,3.864482164E0,9.641829491E0
2.738193921E1,-2.846822739E-1,4.152971268E0,7.981521130E0
2.740181916E1,-3.170025945E-1,4.539618015E0,6.625264168E0
2.742172145E1,-3.720668554E-1,4.587500095E0,5.929778576E0
2.744159822E1,-3.277760148E-1,4.623411655E0,6.127291679E0
2.746147286E1,-5.252891779E-1,4.649746895E0,7.101689339E0
2.748136479E1,-6.485852599E-1,4.498918533E0,7.833086967E0
2.750124729E1,-2.296179682E-1,4.773043156E0,7.349479198E0
2.752109354E1,1.223145425E-1,4.641367912E0,6.439721584E0
2.754095770E1,4.191827774E-1,4.919083118E0,6.014769077E0
2.756086958E1,7.639330029E-1,5.299744606E0,6.075818539E0
2.758076468E1,6.849277616E-1,5.924604893E0,6.415780544E0
2.760065275E1,3.689067364E-1,6.142467499E0,6.367898464E0
2.762050546E1,-1.158982813E-1,6.076629639E0,6.621673107E0
2.764038880E1,-1.996917576E-1,5.936575413E0,6.953255653E0
2.766031869E1,-1.817360073E-1,5.985654354E0,7.294414520E0
2.768021015E1,-6.677380800E-1,6.290901661E0,7.551780701E0
2.770009906E1,-1.384770632E0,6.780494690E0,7.408134460E0
2.772005942E1,-2.033571482E0,7.497527122E0,7.015501976E0
2.773993984E1,-2.137714624E0,8.183436394E0,7.028669357E0
2.775976765E1,-1.751067758E0,8.237303734E0,7.435666561E0
2.777965421E1,-1.260277510E0,7.641173363E0,8.507025719E0
2.779952890E1,-1.230805814E-1,7.695040703E0,1.020444202E1
2.781942932E1,1.869552135E-1,7.531044483E0,1.047976303E1
2.783932952E1,4.802322984E-1,7.175521374E0,9.836948395E0
2.785945182E1,7.411890626E-1,6.582981586E0,9.645420074E0
2.787981140E1,8.632881641E-1,5.754623890E0,1.068805027E1
2.790013041E1,1.932253242E0,3.961443186E0,1.270747185E1
2.792040713E1,2.309323788E0,3.719639540E0,1.170554161E1
2.794068452E1,2.737867594E0,3.913561583E0,9.832159042E0
2.796096296E1,2.930592299E0,4.075162888E0,8.128758430E0
2.798124197E1,2.063928604E0,4.237961769E0,7.779219627E0
2.800152114E1,6.382428408E-1,4.577924252E0,7.849845409E0
2.802180098E1,-5.492300987E-1,4.715584755E0,7.740913868E0
2.804208046E1,-1.467367053E0,4.859230518E0,8.256842613E0
2.806236166E1,-1.712762117E0,4.837683678E0,7.709791183E0
2.808264380E1,-1.095084667E0,4.763466835E0,6.278120041E0
2.810292458E1,-6.090826392E-1,4.765860558E0,5.107405663E0
2.812320562E1,-2.523618937E-1,5.005270481E0,4.674073696E0
2.814348697E1,3.054630756E-1,5.347626686E0,4.784202099E0
2.816376979E1,6.131048203E-1,5.449375629E0,5.466520309E0
2.818405260E1,5.209320188E-1,5.297350883E0,6.430145264E0
2.820433395E1,6.418340206E-1,5.197995663E0,7.266882420E0
2.822461635E1,9.422934055E-1,5.306927204E0,7.506292343E0
2.824489942E1,9.494757056E-1,5.719909191E0,7.624800682E0
2.826519104E1,1.187688470E0,6.387862682E0,7.992294312E0
2.828548208E1,1.150579929E0,6.678745747E0,8.344226837E0
2.830576348E1,8.632881641E-1,6.824785709E0,9.004998207E0
2.832604452E1,8.836379647E-1,6.967234612E0,9.657389641E0
2.834632536E1,3.940447569E-1,6.685927868E0,1.038160515E1
2.836660583E1,4.814293385E-1,6.743386269E0,1.119799328E1
2.838688656E1,5.305083990E-1,6.951672554E0,1.042230511E1
2.840716749E1,1.773788035E-1,6.920549870E0,9.318625450E0
2.842744932E1,-5.623976588E-1,6.738598347E0,9.022953987E0
2.844773130E1,-1.190848708E0,6.314842701E0,9.834552765E0
2.846801302E1,-1.466170073E0,5.630130291E0,1.131410599E1
2.848829489E1,-1.601436496E0,4.661717415E0,1.263325500E1
2.850857619E1,-1.046005726E0,3.665772200E0,1.311566639E1
2.852885755E1,-4.187517166E-1,3.147449732E0,1.146613216E1
2.854913979E1,-3.205937147E-1,3.158223152E0,8.593213081E0
2.856942213E1,-1.175287008E0,3.713654280E0,6.188341141E0
2.858970390E1,-1.500884414E0,4.823319435E0,4.927847862E0
2.860998630E1,-1.728323817E0,5.174054623E0,5.605378151E0
2.863026822E1,-1.658894897E0,5.097443104E0,7.640362263E0
2.865054911E1,-1.377588391E0,4.741919518E0,9.256379128E0
2.867082812E1,-9.921383262E-1,4.222400188E0,9.189344406E0
2.869110791E1,-1.961006075E-1,3.961443186E0,7.878574848E0
2.871139067E1,2.276548892E-1,4.081148148E0,6.533091545E0
2.873167390E1,4.455178976E-1,4.419913292E0,5.982448578E0
2.875195421E1,3.329952359E-1,4.753890038E0,5.908231735E0
2.877223380E1,1.438614279E-1,5.242286205E0,6.140459061E0
2.879251588E1,-2.739087939E-1,5.742653370E0,6.619278908E0
2.881279833E1,-5.935209990E-1,6.118526936E0,7.436863422E0
2.883308104E1,-7.706843019E-1,6.209502220E0,7.653529644E0
2.885336463E1,-4.402986765E-1,6.588966846E0,7.772037506E0
2.887343973E1,-3.469288349E-1,6.750568867E0,7.727746487E0
2.889332510E1,1.247086376E-1,6.665578365E0,7.725352764E0
2.891320890E1,-1.003366411E-1,6.829573631E0,7.609238625E0
2.893309635E1,7.323551178E-2,7.418522358E0,7.280050278E0
2.895299635E1,-2.978497744E-1,7.639976025E0,7.710988045E0
2.897286911E1,-3.672786355E-1,7.448448181E0,9.168993950E0
2.899254463E1,3.329952359E-1,7.584912300E0,1.038639259E1
2.901243427E1,4.754440784E-1,7.728557587E0,9.573596954E0
2.903252989E1,4.850205183E-1,7.759681225E0,8.335847855E0
2.905242775E1,5.508581996E-1,7.291634560E0,8.539345741E0
2.907232723E1,7.124598622E-1,6.720642090E0,9.575990677E0
2.909221218E1,3.329952359E-1,6.019171238E0,9.854903221E0
2.911208645E1,-4.646942019E-2,5.286577225E0,9.734001160E0
2.913197380E1,4.275621176E-1,5.182433605E0,9.543669701E0
2.915186218E1,6.322575808E-1,4.859230518E0,9.067245483E0
2.917174765E1,1.173323870E0,4.711993694E0,8.273600578E0
2.919142677E1,1.044042587E0,4.837683678E0,7.313567638E0
2.921131302E1,8.082238436E-1,4.817333698E0,6.588155746E0
2.923140770E1,4.179857373E-1,4.782618999E0,6.214675903E0
2.925130088E1,7.682666183E-2,4.302602768E0,6.531894207E0
2.927120416E1,2.655059099E-2,4.042842865E0,6.859886169E0
2.929115562E1,3.509509563E-1,3.914758444E0,6.607308388E0
2.931102005E1,5.233260989E-1,4.229582787E0,6.084197998E0
2.933083734E1,4.443207979E-1,4.571938515E0,5.826831818E0
2.935072968E1,5.388877392E-1,4.866412640E0,5.862743378E0
2.937063098E1,7.352038026E-1,4.926265240E0,6.223055363E0
2.939073046E1,1.034466147E0,5.514016628E0,7.142389774E0
2.941101562E1,1.182900190E0,5.717514992E0,7.410528660E0
2.943130041E1,1.621020317E0,5.679209232E0,8.091650009E0
2.945158598E1,1.988514423E0,5.794126034E0,8.411262512E0
2.947186942E1,1.904720902E0,6.064659119E0,8.594409943E0
2.949215020E1,1.586305857E0,6.445321083E0,8.582440376E0
2.951243432E1,1.301408052E0,6.963643074E0,8.728480339E0
2.953272062E1,9.985547066E-1,7.334728718E0,8.644685745E0
2.955300598E1,9.279287457E-1,7.838686466E0,9.210890770E0
2.957328296E1,1.303802252E0,8.146327972E0,1.023676205E1
2.959356114E1,1.361260533E0,7.623217583E0,1.049293137E1
2.961386729E1,1.108683228E0,7.313181877E0,1.031217575E1
2.963417213E1,2.132903039E-1,7.285649776E0,1.049053669E1
2.965445697E1,-4.618455768E-1,6.673957348E0,1.150683117E1
2.967474218E1,-3.505199552E-1,5.755820751E0,1.300314331E1
2.969502765E1,2.001227438E-1,4.866412640E0,1.419301033E1
2.971531265E1,5.831785798E-1,4.288238049E0,1.329282951E1
2.973559770E1,5.257201791E-1,4.020098686E0,1.076226711E1
2.975588255E1,8.999420702E-2,4.056010246E0,8.620744705E0
2.977615817E1,-3.636875153E-1,4.099103928E0,7.155557156E0
2.979643432E1,-7.611078620E-1,4.119453907E0,6.595337868E0
2.981671963E1,-7.072407007E-1,4.111074448E0,6.744968891E0
2.983700494E1,-2.451796383E-1,3.791462183E0,7.201045036E0
2.985729041E1,1.218599826E-2,3.383268356E0,7.011910915E0
2.987757885E1,-8.836613595E-2,3.293489695E0,5.924990177E0
2.989786942E1,-5.133186579E-1,3.575993538E0,5.112193584E0
2.991815385E1,-1.194439769E0,4.000946045E0,5.170848846E0
2.993843640E1,-1.102267027E0,4.485751152E0,4.731532097E0
2.995872213E1,-5.396537185E-1,4.897536278E0,4.207224369E0
2.997899833E1,-5.604581535E-2,5.152507782E0,4.507683754E0
2.999929348E1,-1.350510865E-1,5.312911987E0,5.491658688E0
3.001959692E1,-4.690278769E-1,5.740258694E0,6.287695885E0
3.003988046E1,-9.334829450E-1,6.547070026E0,6.974802494E0
3.006016473E1,-1.251898170E0,7.268891335E0,7.552977562E0
3.008044968E1,-1.114237547E0,7.449645042E0,8.645882607E0
3.010073562E1,-8.245514631E-1,7.176718235E0,9.520927429E0
3.012102171E1,-7.036494613E-1,7.012722015E0,9.858493805E0
3.014130656E1,-8.018075228E-1,6.997160912E0,9.617888451E0
3.016159380E1,-9.095420241E-1,6.980401993E0,9.862086296E0
3.018187104E1,-8.042016625E-1,7.200659275E0,1.051567459E1
3.020214536E1,-3.421406150E-1,7.596882820E0,1.010029793E1
3.022243775E1,-5.037422180E-1,7.418522358E0,9.060063362E0
3.024273046E1,-1.458245069E-1,7.167141914E0,9.491000175E0
3.026301312E1,7.682666183E-2,6.464473724E0,1.008234310E1
3.028329505E1,2.108961940E-1,5.855175495E0,9.872859001E0
3.030357932E1,7.922076434E-2,5.111808300E0,9.431147575E0
3.032386489E1,1.462555230E-1,4.798181057E0,9.611902237E0
3.034415552E1,5.329024792E-1,4.854442120E0,9.274333954E0
3.036444723E1,9.841900468E-1,4.887959480E0,8.486676216E0
3.038476432E1,1.690449238E0,5.035196781E0,7.749293327E0
3.040481265E1,1.963376403E0,5.120187283E0,7.244138718E0
3.042465291E1,1.817336440E0,5.092655182E0,7.309976578E0
3.044454260E1,1.539620996E0,4.825713158E0,7.207029819E0
3.046441307E1,1.452236295E0,4.446248531E0,7.150769234E0
3.048431525E1,1.594685197E0,4.228385448E0,7.095704556E0
3.050418760E1,1.732345939E0,4.155365467E0,6.981985092E0
3.052415171E1,1.875991821E0,4.154168129E0,6.695889950E0
3.054412458E1,1.814942360E0,4.340908051E0,6.351140022E0
3.056396421E1,1.382807493E0,4.756284237E0,6.237420082E0
3.058404541E1,5.281142592E-1,5.011255741E0,6.730604649E0
3.060396171E1,-1.015336961E-1,5.134551525E0,7.427287102E0
3.062364567E1,-3.648845553E-1,5.014847279E0,8.219734192E0
3.064377124E1,-2.176474780E-1,5.141734123E0,8.495055199E0
3.066415859E1,2.492017746E-1,6.175984859E0,6.989167213E0
3.068454098E1,6.725026667E-2,6.979205132E0,6.681525707E0
3.070491312E1,-4.151605964E-1,7.546606064E0,7.020290375E0
3.072528072E1,-7.359698415E-1,7.619626045E0,7.649938583E0
3.074564354E1,-9.035567641E-1,7.338319778E0,8.884096146E0
3.076600333E1,-1.044808626E0,7.003146172E0,9.967426300E0
3.078635890E1,-4.726189971E-1,6.857106209E0,1.053961563E1
3.080670968E1,-1.925094277E-1,6.458488941E0,1.035167885E1
3.082705859E1,1.151322424E-1,6.454897404E0,9.965031624E0
3.084740416E1,1.821670234E-1,6.893017769E0,9.615492821E0
3.086774874E1,-1.757507473E-1,6.968431473E0,9.607113838E0
3.088809479E1,-7.132259011E-1,6.689519405E0,1.040554619E1
3.090843713E1,-1.352450252E0,5.779761791E0,1.167561531E1
3.092877588E1,-1.682835937E0,4.928659439E0,1.278168869E1
3.094911192E1,-2.085044384E0,4.374425888E0,1.350470734E1
3.096944812E1,-2.244251966E0,4.070374966E0,1.267874336E1
3.098977880E1,-2.231084347E0,4.058404446E0,1.047617245E1
3.101010515E1,-2.105394125E0,4.257114887E0,8.378941536E0
3.103043078E1,-1.733112097E0,4.543209553E0,6.634840488E0
3.105075234E1,-1.226760149E0,4.682067394E0,5.200775623E0
3.107107400E1,-7.886399627E-1,4.667702675E0,4.500501633E0
3.109139182E1,-7.575167418E-1,4.776634216E0,4.703999996E0
3.111170885E1,-4.474809170E-1,4.913097858E0,5.705930233E0
3.113202479E1,3.150395155E-1,4.934644699E0,6.303257942E0
3.115233869E1,9.925694466E-1,4.970556259E0,6.160809040E0
3.117265421E1,1.600670457E0,5.103428841E0,5.527570248E0
3.119296447E1,2.151313305E0,5.716317654E0,4.751882076E0
3.121326994E1,2.105825424E0,6.481232643E0,4.314959049E0
3.123357848E1,1.685660958E0,6.858303070E0,4.738714695E0
3.125389015E1,1.111077309E0,6.872667789E0,6.586958408E0
3.127419999E1,2.851132751E-1,6.998357773E0,8.386123657E0
3.129450473E1,-4.798012972E-1,7.180309296E0,9.100762367E0
3.131480515E1,-3.888255358E-1,7.328742981E0,9.341368675E0
3.133510437E1,1.412555575E-3,7.187491894E0,8.990633965E0
3.135540312E1,3.852108121E-2,6.883440971E0,8.521389961E0
3.137570411E1,-1.278687865E-1,6.571011066E0,8.601593018E0
3.139600791E1,-1.414909214E-2,6.653607845E0,9.590354919E0
3.141631046E1,5.408272892E-2,6.705080509E0,9.924331665E0
3.143660859E1,-6.952701807E-1,6.428562164E0,8.680598259E0
3.145690749E1,-5.612006187E-1,7.061801434E0,8.884096146E0
3.147720567E1,-5.013481975E-1,7.025890350E0,9.106746674E0
3.149750052E1,-9.674550593E-2,6.216684818E0,9.026544571E0
3.151779249E1,1.031617522E-1,5.351217747E0,8.521389961E0
3.153808661E1,2.863103151E-1,4.793392658E0,8.536952019E0
3.155826645E1,4.179857373E-1,4.615032673E0,8.351409912E0
3.157820552E1,3.545421362E-1,4.787407875E0,7.653529644E0
3.159806140E1,1.737876683E-1,5.060334682E0,6.800033569E0
3.161790494E1,2.295944095E-2,5.330868244E0,6.802427769E0
3.163775640E1,-1.877212673E-1,5.463740826E0,7.295611382E0
3.165771614E1,-1.937064976E-1,5.418252468E0,7.427287102E0
3.167764119E1,-7.998679578E-2,5.461346149E0,7.066975594E0
3.169745645E1,8.879715949E-2,5.457755089E0,6.468450546E0
3.171729802E1,4.742470384E-1,5.456558228E0,5.805285454E0
3.173718630E1,9.542638659E-1,5.487681866E0,5.452155590E0
3.175707187E1,1.410339594E0,5.646889210E0,5.442579746E0
3.177695697E1,1.665311098E0,5.663647652E0,5.958507538E0
3.179685239E1,1.467797995E0,5.780958652E0,6.738984108E0
3.181681265E1,7.627359629E-1,6.059871197E0,7.614027023E0
3.183667484E1,4.850205183E-1,6.105359077E0,8.083270073E0
3.185649312E1,7.340067625E-1,6.077826500E0,8.088058472E0
3.187646619E1,1.057210088E0,5.905451775E0,7.502701759E0
3.189635156E1,9.015936852E-1,5.881510735E0,7.456016541E0
3.191624296E1,4.120004773E-1,6.106556416E0,9.025347710E0
3.193619458E1,6.526074409E-1,6.210699081E0,1.054081345E1
3.195599380E1,9.626432061E-1,6.264566898E0,1.053961563E1
3.197580385E1,9.518697858E-1,6.580587864E0,9.536487579E0
3.199576249E1,8.776527047E-1,7.054619312E0,9.236028671E0
3.201564781E1,4.143946171E-1,6.922943592E0,9.820189476E0
3.203553614E1,1.737876683E-1,6.225063801E0,9.579582214E0
3.205550687E1,8.393471241E-1,6.122117519E0,9.665768623E0
3.207536598E1,1.243949652E0,6.301675320E0,9.909968376E0
3.209521234E1,8.608940244E-1,6.046703815E0,9.007391930E0
3.211513661E1,-3.449892998E-2,5.774973392E0,8.912824631E0
3.213497854E1,-8.700393438E-1,5.012452602E0,1.007516003E1
3.215478520E1,-1.091493607E0,4.314573288E0,1.099090290E1
3.217475442E1,-9.430593848E-1,3.834555864E0,1.140149117E1
3.219468020E1,-5.157127380E-1,3.729215622E0,1.135959435E1
3.221456645E1,-2.178594470E-3,3.925531626E0,9.344960213E0
3.223449354E1,4.838234782E-1,4.264297009E0,7.288429737E0
3.225427333E1,5.819814801E-1,4.443854809E0,6.330790043E0
3.227408729E1,5.676168799E-1,4.610244274E0,6.255375862E0
3.229409083E1,2.695516050E-1,4.844866276E0,6.382263184E0
3.231396963E1,1.450584829E-1,4.945418358E0,6.694693089E0
3.233383640E1,1.701965183E-1,4.879580021E0,6.956847191E0
3.235380130E1,4.036211371E-1,4.911900520E0,6.691102028E0
3.237366005E1,5.544493794E-1,5.138143063E0,6.129685402E0
3.239342171E1,4.347444177E-1,5.272212505E0,6.226646423E0
3.241332223E1,2.535354346E-2,5.359597206E0,7.144783497E0
3.243325458E1,-2.679235935E-1,5.425434589E0,8.321482658E0
3.245315395E1,9.119125456E-2,5.575066090E0,8.135940552E0
3.247301682E1,4.120004773E-1,5.862358093E0,7.464395523E0
3.249290593E1,5.005821586E-1,6.185561180E0,6.870658875E0
3.251282296E1,5.077644587E-1,6.478837967E0,6.934103012E0
3.253272426E1,3.246158957E-1,6.735007286E0,7.421301842E0
3.255264749E1,1.582260132E-1,6.932520390E0,7.657120705E0
3.257251531E1,-2.260268182E-1,6.989978790E0,8.183822632E0
3.259263926E1,-1.051248461E-1,7.091727734E0,8.723691940E0
3.261275260E1,-1.051248461E-1,7.091727734E0,8.723691940E0
3.263285083E1,-1.374451816E-1,7.569350243E0,7.359055519E0
3.265313270E1,1.151322424E-1,7.502315521E0,7.497912884E0
3.267341380E1,1.139351949E-1,6.647622108E0,8.923599243E0
3.269369489E1,1.139351949E-1,5.249468803E0,1.098372078E1
3.271397666E1,7.447801828E-1,3.987778425E0,1.216401196E1
3.273425822E1,1.374428153E0,3.287504435E0,1.234596348E1
3.275453999E1,1.312181592E0,3.395238876E0,1.155112171E1
3.277481161E1,1.315772653E0,4.016507626E0,1.013740730E1
3.279508317E1,1.322955132E0,4.407942772E0,8.388518333E0
3.281536630E1,1.155368090E0,4.484554291E0,7.074157715E0
3.283565005E1,1.022495627E0,4.613835812E0,6.849112511E0
3.285593354E1,7.244303823E-1,4.586303234E0,6.913753033E0
3.287621702E1,6.454251409E-1,4.473780632E0,6.964028835E0
3.289649989E1,7.651301026E-1,4.431883812E0,6.669555187E0
3.291678359E1,9.566579461E-1,4.621017933E0,6.329593182E0
3.293706848E1,9.159582853E-1,4.916689396E0,5.984842777E0
3.295735265E1,1.136215329E0,5.067517281E0,6.175173759E0
3.297762578E1,1.459418654E0,5.109413624E0,6.784471512E0
3.299790015E1,1.683266878E0,5.031605721E0,7.063384056E0
3.301818531E1,1.480965614E0,4.995694160E0,7.414119720E0
3.303846770E1,1.217614651E0,5.205177784E0,7.503898621E0
3.305875067E1,1.020101547E0,5.412267208E0,7.554174423E0
3.307903531E1,1.175717950E0,5.827643871E0,7.999476910E0
3.309931999E1,1.437871695E0,6.336389542E0,8.082073212E0
3.311960583E1,1.880780101E0,6.459685802E0,8.509420395E0
3.313989218E1,2.139342785E0,6.526720047E0,9.261166573E0
3.316017802E1,1.631793737E0,6.869076729E0,1.005720520E1
3.318045416E1,1.275073051E0,7.595685482E0,1.101005650E1
3.320073078E1,1.458010077E-2,7.509497643E0,1.103160286E1
3.322101666E1,-7.587137818E-1,7.323955059E0,1.100047970E1
3.324130208E1,-6.425999999E-1,7.006737232E0,1.121953964E1
3.326158802E1,-5.612006187E-1,6.288507938E0,1.072755241E1
3.328187442E1,-3.517169952E-1,5.740258694E0,9.839342117E0
3.330216083E1,-7.766695619E-1,5.134551525E0,1.005241585E1
3.332244676E1,-1.164513588E0,4.518071651E0,1.034090519E1
3.334273390E1,-1.117828727E0,4.076360226E0,1.057552719E1
3.336302171E1,-1.043611526E0,3.695698500E0,1.020085144E1
3.338330676E1,-6.749203205E-1,3.565219879E0,8.794318199E0
3.340359176E1,-2.439825684E-1,3.660984039E0,7.499110222E0
3.342387859E1,-1.661743373E-1,3.817797422E0,6.653993607E0
3.344416525E1,-5.006057024E-2,3.951866865E0,6.067439079E0
3.346445119E1,5.305083990E-1,4.407942772E0,6.105744362E0
3.348473702E1,8.908202648E-1,4.877186298E0,7.080142975E0
3.350502421E1,6.346517205E-1,4.879580021E0,7.592480183E0
3.352531458E1,3.401775360E-1,5.089064121E0,7.216606617E0
3.354560317E1,-1.542038769E-1,5.527184010E0,6.879038334E0
3.356588755E1,-2.595441937E-1,6.023959637E0,6.215873241E0
3.358613588E1,1.582260132E-1,6.159226418E0,5.140923023E0
3.360636578E1,6.023313403E-1,6.081418037E0,4.921863079E0
3.362647942E1,5.508581996E-1,6.193940639E0,5.796905994E0
3.364636281E1,1.809699535E-1,6.466867924E0,6.408597946E0
3.366620338E1,-3.110173345E-1,6.760145187E0,6.752151489E0
3.368631723E1,-5.635947585E-1,7.003146172E0,7.500307083E0
3.370627848E1,-1.901153475E-1,7.036663055E0,7.621209145E0
3.372601223E1,2.958866954E-1,7.060604095E0,7.415316582E0
3.374581604E1,2.970837355E-1,7.225797176E0,7.659514427E0
3.376565343E1,1.259056926E-1,7.436477661E0,8.437597275E0
3.378556473E1,-9.913960099E-2,7.484359741E0,8.850579262E0
3.380542458E1,5.288567767E-2,7.912903786E0,9.177372932E0
3.382530354E1,3.253584355E-2,8.565295219E0,8.753618240E0
3.384541916E1,-8.597205579E-2,8.798720360E0,8.287965775E0
3.386571890E1,3.042660356E-1,7.363457680E0,1.004762840E1
3.388600182E1,3.150395155E-1,6.271748543E0,1.006438732E1
3.390628421E1,5.388877392E-1,5.421843529E0,1.005600834E1
3.392656671E1,1.053618908E0,4.993300438E0,9.368901253E0
3.394684953E1,1.496527195E0,4.940629482E0,7.985112190E0
3.396714213E1,1.862824321E0,5.092655182E0,6.774895668E0
3.398743515E1,1.874794841E0,5.353612423E0,6.006389618E0
3.400771828E1,1.162550449E0,5.509228230E0,5.984842777E0
3.402800098E1,3.988329172E-1,5.357203007E0,6.494785309E0
3.404828447E1,-1.386422217E-1,5.116596222E0,7.154359818E0
3.406856802E1,-2.308150381E-1,4.904718876E0,6.912556171E0
3.408885093E1,-5.843991041E-2,4.810151577E0,6.269740582E0
3.410913473E1,5.149467587E-1,5.084275723E0,5.373150349E0
3.412941864E1,9.159582853E-1,5.333261967E0,4.676467419E0
3.414970187E1,1.102697968E0,5.373961926E0,4.936227322E0
3.416998525E1,1.070377588E0,5.438602924E0,5.498840332E0
3.419026848E1,7.878739834E-1,5.642100811E0,6.570199966E0
3.421055093E1,4.826263785E-1,5.735470772E0,7.041837692E0
3.423083416E1,5.939520001E-1,5.875525475E0,6.847915649E0
3.425111812E1,5.843756199E-1,6.023959637E0,6.910161972E0
3.427140166E1,3.701037765E-1,6.274142742E0,7.216606617E0
3.429168520E1,2.671574950E-1,6.707474709E0,8.015038490E0
3.431196916E1,3.653155565E-1,7.203052998E0,9.036122322E0
3.433225322E1,6.585927010E-1,7.368246078E0,9.262364388E0
3.435253765E1,7.423861623E-1,7.367049217E0,8.881702423E0
3.437282275E1,8.106179237E-1,7.195871353E0,8.383729935E0
3.439310713E1,9.770078063E-1,7.349093437E0,8.817061424E0
3.441339140E1,1.004539967E0,7.450842857E0,9.039712906E0
3.443367499E1,8.357560039E-1,7.376625061E0,8.694962502E0
3.445395765E1,9.135642052E-1,7.317970276E0,8.574060440E0
3.447424098E1,5.400847793E-1,6.645228386E0,9.561626434E0
3.449452452E1,3.748919368E-1,5.845599174E0,1.107828808E1
3.451480838E1,3.473598361E-1,5.178842545E0,1.186235523E1
3.453509281E1,2.791280150E-1,4.875989437E0,1.185876369E1
3.455537723E1,-2.415884584E-1,4.694037914E0,1.151042271E1
3.457566078E1,-1.002911925E0,4.719175816E0,1.040793991E1
3.459594281E1,-1.113040447E0,4.733540058E0,9.344960213E0
3.461622484E1,-6.090826392E-1,4.585106373E0,8.299936295E0
3.463650536E1,-3.050320745E-1,4.419913292E0,7.136404037E0
3.465678338E1,-7.519860566E-2,4.354075909E0,6.953255653E0
3.467706395E1,2.535354346E-2,4.278661728E0,7.040639877E0
3.469734932E1,-1.554009169E-1,4.320558548E0,7.142389774E0
3.471763994E1,-2.020858377E-1,4.706008434E0,6.424160004E0
3.473792880E1,-5.125761032E-2,5.200389862E0,5.592210770E0
3.475821265E1,1.127381474E-1,5.367976665E0,5.364770889E0
3.477849630E1,3.928476572E-1,5.324882507E0,5.862743378E0
3.479877947E1,5.771933198E-1,5.366779804E0,6.594141006E0
3.481906328E1,8.046327233E-1,5.740258694E0,6.609702587E0
3.483934218E1,7.172480822E-1,5.859963894E0,6.393036366E0
3.485942369E1,3.150395155E-1,5.859963894E0,7.192665577E0
3.487932395E1,-1.295204461E-2,5.968895435E0,8.485479355E0
3.489923260E1,-3.122143745E-1,6.478837967E0,8.978663445E0
3.491913015E1,-4.235399961E-1,7.145594597E0,8.832623482E0
3.493901572E1,-2.607412338E-1,7.247344017E0,8.463932037E0
3.495888775E1,8.161486685E-2,7.036663055E0,8.632716179E0
3.497884036E1,2.264578342E-1,6.804435730E0,9.091185570E0
3.499870202E1,7.555537224E-1,7.100107193E0,1.002608109E1
3.501851265E1,1.011722207E0,7.686661243E0,1.000932312E1
3.503849755E1,5.568434596E-1,7.861430168E0,9.184556007E0
3.505839994E1,3.653155565E-1,7.807563305E0,8.495055199E0
3.507821473E1,4.395326376E-1,7.496330261E0,8.795515060E0
3.509815572E1,5.460700393E-1,6.597346306E0,9.607113838E0
3.511808994E1,3.497539163E-1,5.470922470E0,9.998549461E0
3.513797400E1,6.418340206E-1,4.945418358E0,9.944682121E0
3.515781692E1,1.352881193E0,4.859230518E0,8.977465630E0
3.517768328E1,1.606655717E0,4.925068378E0,7.670288086E0
3.519756640E1,1.920282722E0,5.219542027E0,6.885024071E0
3.521748296E1,1.903523922E0,5.178842545E0,6.506755829E0
3.523743828E1,1.692843318E0,4.996891022E0,6.628855228E0
3.525731479E1,1.091924548E0,4.713190556E0,7.260897636E0
3.527717354E1,5.532523394E-1,4.585106373E0,7.697820663E0
3.529706369E1,1.103440449E-1,4.629397392E0,7.125630379E0
3.531690994E1,-1.099130362E-1,4.767057896E0,6.495983124E0
3.533672687E1,-8.163839579E-3,4.925068378E0,6.173976421E0
3.535660968E1,8.999420702E-2,5.174054623E0,6.266149521E0
3.537656411E1,2.001227438E-1,5.286577225E0,6.213479042E0
3.539652067E1,3.497539163E-1,5.298547745E0,6.322410583E0
3.541640437E1,2.994778454E-1,5.334459305E0,6.542667389E0
3.543627437E1,3.569362164E-1,5.502046108E0,6.619278908E0
3.545608749E1,4.802322984E-1,5.681603909E0,6.430145264E0
3.547591822E1,7.627359629E-1,5.833628654E0,6.310440063E0
3.549586723E1,1.212826490E0,6.051491737E0,7.178300858E0
3.551579843E1,1.314575672E0,6.531508923E0,8.275995255E0
3.553568567E1,1.085939288E0,6.818799973E0,8.852972984E0
3.555558859E1,8.776527047E-1,6.788874149E0,9.039712906E0
3.557545703E1,8.213914037E-1,6.545873165E0,9.447907448E0
3.559531400E1,1.045239568E0,6.324419022E0,9.870465279E0
3.561521859E1,1.631793737E0,6.635651588E0,1.028943157E1
3.563516161E1,1.124244809E0,6.732612610E0,9.684922218E0
3.565502057E1,1.154171109E0,7.068983555E0,8.990633965E0
3.567485328E1,8.896232247E-1,7.242555618E0,8.849382401E0
3.569477926E1,4.419267178E-1,7.001949310E0,9.221664429E0
3.571466510E1,-1.984946877E-1,6.438138485E0,9.959047318E0
3.573453906E1,-1.049596786E0,5.502046108E0,1.143740273E1
3.575443958E1,-1.072340846E0,4.874792099E0,1.269071293E1
3.577432124E1,-6.126737595E-1,4.332529068E0,1.272423077E1
3.579414708E1,-2.918645144E-1,3.887226105E0,1.117644596E1
3.581397859E1,-9.195730090E-2,3.919546604E0,9.008588791E0
3.583383531E1,-9.315434098E-2,4.358863831E0,7.193862438E0
3.585368572E1,-1.949035376E-1,4.468992710E0,5.927384377E0
3.587369624E1,-3.146084547E-1,4.422307491E0,5.447367668E0
3.589360645E1,-6.437970400E-1,4.494130611E0,6.620476246E0
3.591344520E1,-1.132193327E0,4.813742638E0,7.381799698E0
3.593338494E1,-8.832069039E-1,5.084275723E0,6.959240913E0
3.595330916E1,3.806650639E-3,5.025619984E0,5.909428596E0
3.597320880E1,7.759035230E-1,4.852048397E0,5.313298225E0
3.599303213E1,1.240358591E0,4.972949982E0,5.029597759E0
3.601292015E1,1.126638889E0,5.302138805E0,5.653260231E0
3.603285598E1,3.784831166E-1,5.594218731E0,7.382996559E0
3.605275546E1,-2.619383335E-1,5.875525475E0,8.159881592E0
3.607258119E1,-2.942586541E-1,6.090994358E0,7.900121689E0
3.609239406E1,-3.210483491E-2,6.215487480E0,7.213015556E0
3.611229479E1,1.474525779E-1,6.320827484E0,7.005926132E0
3.613219494E1,-1.494156867E-1,6.448912144E0,7.812736988E0
3.615206479E1,-4.558603168E-1,6.664381027E0,8.759603500E0
3.617195499E1,-6.114767194E-1,6.900199890E0,9.147446632E0
3.619206765E1,-9.023597836E-1,6.885835171E0,9.182162285E0
3.621211057E1,-9.023597836E-1,6.885835171E0,9.182162285E0
3.623182432E1,1.259056926E-1,7.256920815E0,9.206103325E0
3.625160427E1,8.237854838E-1,7.623217583E0,8.702144623E0
3.627152052E1,7.471743226E-1,7.648355484E0,7.709791183E0
3.629141828E1,1.051224828E0,7.718981743E0,8.323877335E0
3.631126348E1,4.407296777E-1,7.139609814E0,9.789066315E0
3.633111979E1,-4.646942019E-2,6.463276863E0,1.049652195E1
3.635097484E1,-1.853271574E-1,5.700756073E0,1.024873257E1
3.637088994E1,3.365863562E-1,5.257848263E0,1.000932312E1
3.639104645E1,1.312181592E0,5.144128323E0,7.757673264E0
3.641133202E1,1.741922379E0,5.360794067E0,6.746166229E0
3.643161400E1,1.746710420E0,5.595415592E0,6.308045864E0
3.645189812E1,1.126638889E0,5.466134548E0,6.797638893E0
3.647218171E1,4.263650775E-1,5.156098843E0,7.440454483E0
3.649246343E1,2.252607942E-1,4.903521061E0,7.055005074E0
3.651274598E1,4.790352583E-1,4.873595238E0,6.290090561E0
3.653302848E1,6.837307215E-1,4.926265240E0,5.695156574E0
3.655331093E1,7.196422219E-1,5.017241001E0,5.446170330E0
3.657358541E1,5.460700393E-1,5.300941467E0,5.914216995E0
3.659386041E1,1.821670234E-1,5.542745590E0,6.919737816E0
3.661414395E1,3.988329172E-1,5.577460289E0,7.256109238E0
3.663442749E1,7.076717019E-1,5.436208248E0,6.715043068E0
3.665471109E1,8.225884438E-1,5.284183025E0,6.282907963E0
3.667499567E1,9.315199256E-1,5.294956684E0,6.351140022E0
3.669528083E1,1.137412429E0,5.387129307E0,7.497912884E0
3.671556515E1,1.343304873E0,5.602598190E0,8.902051926E0
3.673584937E1,1.528847456E0,6.064659119E0,9.115126610E0
3.675613348E1,1.366048813E0,6.626075745E0,8.526178360E0
3.677641755E1,9.853871465E-1,7.164747715E0,8.575258255E0
3.679670187E1,2.336401343E-1,7.274876118E0,9.178569794E0
3.681698583E1,3.133878857E-2,7.444857121E0,9.950667381E0
3.683726979E1,3.341922760E-1,7.582517624E0,9.813007355E0
3.685755374E1,6.071195006E-1,7.429295540E0,8.680598259E0
3.687783760E1,1.254723191E0,7.589700222E0,7.596071243E0
3.689812208E1,1.277467251E0,7.285649776E0,6.615687370E0
3.691840739E1,1.521665215E0,6.829573631E0,6.773697853E0
3.693869374E1,9.434904456E-1,5.808490753E0,7.549386024E0
3.695897942E1,-2.631353736E-1,5.166872025E0,9.354537010E0
3.697925458E1,-1.674456716E0,4.931053638E0,1.229448986E1
3.699953093E1,-2.572243452E0,4.644958496E0,1.415470505E1
3.701981666E1,-2.547105312E0,3.827373743E0,1.422892189E1
3.704010744E1,-1.639742136E0,3.343765974E0,1.294209385E1
3.706039786E1,-1.141769648E0,3.310248375E0,1.100167751E1
3.708068348E1,-6.821026206E-1,3.342568636E0,9.214482307E0
3.710096916E1,-2.492253482E-2,3.652604580E0,7.655923367E0
3.712125442E1,4.694588780E-1,3.931516886E0,6.128488541E0
3.714154015E1,7.699182630E-1,4.328937531E0,4.777019978E0
3.716182635E1,9.686284661E-1,5.006467819E0,4.317353249E0
3.718210255E1,7.938592434E-1,5.411070347E0,4.505289555E0
3.720237848E1,8.788497448E-1,5.426632404E0,4.311367512E0
3.722266426E1,1.406748414E0,5.499652386E0,4.115051746E0
3.724295005E1,1.917888522E0,5.450572968E0,4.342491150E0
3.726323588E1,2.170466185E0,5.377552986E0,4.935030460E0
3.728352114E1,2.010061502E0,5.430222988E0,6.298469543E0
3.730380697E1,1.245146871E0,5.377552986E0,8.287965775E0
3.732409328E1,6.214841604E-1,5.407479286E0,9.647813797E0
3.734437880E1,4.120004773E-1,5.772579193E0,9.833355904E0
3.736467552E1,2.683545649E-1,6.099373817E0,9.567610741E0
3.738499822E1,4.120004773E-1,6.333995342E0,9.267151833E0
3.740502791E1,5.843756199E-1,6.726627827E0,9.362915993E0
3.742489968E1,4.694588780E-1,6.973219872E0,9.550852776E0
3.744477119E1,4.742470384E-1,6.831968307E0,1.011825371E1
3.746457895E1,8.788497448E-1,6.748174667E0,1.074071980E1
3.748447900E1,9.722196460E-1,6.597346306E0,1.044983673E1
3.750434499E1,1.095515728E0,6.549464226E0,9.804627419E0
3.752424562E1,1.654537678E0,6.445321083E0,9.216876030E0
3.754418525E1,2.153707504E0,6.154438019E0,9.009785652E0
3.756406744E1,2.336856127E0,5.831234932E0,8.891279221E0
3.758416203E1,1.846065521E0,5.297350883E0,8.473507881E0
3.760446677E1,8.118150234E-1,4.284646988E0,9.121111870E0
3.762474744E1,9.183523655E-1,4.211627007E0,9.368901253E0
3.764502760E1,1.210432291E0,4.206838608E0,8.642292023E0
3.766530781E1,1.300211072E0,4.484554291E0,7.987506390E0
3.768558802E1,1.300211072E0,4.484554291E0,7.987506390E0
3.770588838E1,1.746710420E0,5.098640919E0,7.955185890E0
3.772618864E1,1.575532436E0,5.177645683E0,7.657120705E0
3.774646885E1,9.291258454E-1,5.376355648E0,7.262094498E0
3.776674994E1,3.605273962E-1,5.524790287E0,7.062187195E0
3.778703057E1,1.989257038E-1,5.566686630E0,6.500771046E0
3.780731135E1,1.139351949E-1,5.944954395E0,6.108139038E0
3.782759296E1,-4.391016364E-1,6.373498440E0,6.056665421E0
3.784787364E1,-5.647917986E-1,6.561434746E0,6.486406326E0
3.786815400E1,-4.115694761E-1,6.426167965E0,7.075354576E0
3.788843593E1,-1.039277911E-1,6.282522202E0,6.959240913E0
3.790871911E1,3.952417970E-1,6.373498440E0,6.584564686E0
3.792900114E1,8.345589638E-1,6.302872181E0,6.607308388E0
3.794928354E1,1.282255292E0,6.201122761E0,6.974802494E0
3.796956619E1,1.449842215E0,6.324419022E0,7.867801666E0
3.798984874E1,1.558773756E0,6.675154686E0,8.631519318E0
3.801013192E1,1.811351180E0,7.011525154E0,8.710523605E0
3.803041494E1,1.725163579E0,7.037860394E0,8.702144623E0
3.805069760E1,1.137412429E0,7.073771477E0,8.643488884E0
3.807098374E1,4.933998585E-1,7.301211357E0,8.915220261E0
3.809126775E1,3.401775360E-1,7.475980759E0,9.827370644E0
3.811154895E1,-1.386422217E-1,6.946884632E0,9.394039154E0
3.813183374E1,1.151322424E-1,6.916958809E0,8.311906815E0
3.815211760E1,9.913724065E-1,7.448448181E0,7.562553406E0
3.817240088E1,1.105092049E0,7.157565117E0,7.020290375E0
3.819268614E1,6.645779610E-1,6.454897404E0,7.846254349E0
3.821297145E1,-4.989540577E-1,5.678012371E0,9.164206505E0
3.823328072E1,-1.156134248E0,5.073502064E0,1.020923042E1
3.825358890E1,-1.110646248E0,4.613835812E0,1.016015148E1
3.827387078E1,-4.786042571E-1,4.071572304E0,9.468255997E0
3.829415322E1,4.060152769E-1,3.659786940E0,8.972678185E0
3.831443614E1,7.794946432E-1,3.620284319E0,8.009053230E0
3.833471906E1,4.167886972E-1,4.507297993E0,6.539076328E0
3.835500218E1,-1.774023473E-2,5.824052334E0,5.406668186E0
3.837528437E1,-4.857865572E-1,6.718248367E0,4.998474121E0
3.839557473E1,-8.472954035E-1,6.811618328E0,5.999207497E0
3.841586588E1,-1.050793886E0,6.489611626E0,7.238153458E0
3.843614828E1,-8.197633028E-1,6.071841717E0,7.414119720E0
3.845643119E1,-3.708698153E-1,5.907845497E0,6.574987888E0
3.847671494E1,-1.654319465E-2,5.909042835E0,5.452155590E0
3.849699864E1,1.259056926E-1,6.032339096E0,4.725546360E0
3.851728208E1,2.216696441E-1,6.360330582E0,4.765049458E0
3.853756562E1,-8.477500081E-2,6.426167965E0,5.385120869E0
3.855785031E1,-4.199488163E-1,6.363921642E0,6.806018353E0
3.857812687E1,-4.426927567E-1,6.413000584E0,8.143122673E0
3.859821380E1,-1.314599216E-1,6.626075745E0,8.165866852E0
3.861810150E1,4.407296777E-1,7.162353516E0,7.766052246E0
3.863797921E1,3.521479964E-1,7.550197601E0,7.616421223E0
3.865788088E1,-3.241848946E-1,7.825518608E0,8.034191132E0
3.867778317E1,-7.934282422E-1,7.911706924E0,9.863283157E0
3.869757114E1,-8.281427026E-1,7.875795364E0,1.192101097E1
3.871746057E1,-3.098202944E-1,7.805169106E0,1.157027531E1
3.873750635E1,6.226812005E-1,7.926071167E0,9.428753853E0
3.875737869E1,1.349290133E0,8.161889076E0,7.894136429E0
3.877720968E1,1.795789599E0,8.325885773E0,6.863477230E0
3.879710723E1,1.678478718E0,7.960785866E0,6.144050121E0
3.881698140E1,5.460700393E-1,6.696701050E0,6.935299873E0
3.883687624E1,-1.745536774E-1,5.421843529E0,8.711721420E0
3.885700098E1,1.893492937E-1,4.727555275E0,1.019486523E1
3.887730578E1,1.850853801E0,4.105089188E0,8.600396156E0
3.889758973E1,2.220741987E0,4.466598034E0,6.864674091E0
3.891787921E1,1.951406002E0,5.047167301E0,6.142853260E0
3.893816458E1,1.391186833E0,5.174054623E0,6.804821491E0
3.895844630E1,1.002145767E0,5.013650417E0,7.621209145E0
3.897872869E1,5.436759591E-1,5.201586723E0,7.959973812E0
3.899901124E1,3.449657261E-1,5.320094585E0,7.108871937E0
3.901929270E1,3.988329172E-1,5.443390846E0,5.738250732E0
3.903957510E1,5.616316795E-1,5.697165012E0,4.987700462E0
3.905985828E1,7.543566227E-1,5.790534973E0,5.433002949E0
3.908014098E1,7.136569619E-1,5.761805534E0,6.012374878E0
3.910042437E1,4.419267178E-1,6.003609657E0,6.498376846E0
3.912071078E1,1.378761828E-1,6.029944897E0,6.573791027E0
3.914099640E1,2.480047345E-1,6.071841717E0,5.989631176E0
3.916128046E1,5.065674186E-1,6.220275879E0,5.836408615E0
3.918156479E1,6.705631614E-1,6.192743778E0,6.481617928E0
3.920184718E1,9.973576665E-1,6.560237885E0,7.093310356E0
3.922212734E1,9.327170253E-1,7.308393478E0,7.667893887E0
3.924240828E1,6.490162611E-1,7.704616547E0,8.536952019E0
3.926269182E1,6.286664605E-1,7.795592785E0,8.453158379E0
3.928297390E1,3.006749153E-1,7.772848606E0,8.094043732E0
3.930325604E1,3.461627960E-1,7.971559048E0,9.093580246E0
3.932353749E1,4.802322984E-1,7.765666485E0,1.004523373E1
3.934381932E1,4.239709973E-1,7.151580334E0,1.007156944E1
3.936410202E1,7.292186022E-1,6.939702034E0,1.022718620E1
3.938438749E1,6.047254205E-1,6.669169426E0,1.034449577E1
3.940467432E1,3.485568762E-1,5.916225433E0,1.056235886E1
3.942496135E1,-2.104651779E-1,4.988511562E0,1.093703651E1
3.944525192E1,-5.731711388E-1,4.379213810E0,1.108307648E1
3.946554281E1,-3.756579757E-1,4.271479607E0,9.799839020E0
3.948583145E1,-4.678307772E-1,4.488145351E0,8.378941536E0
3.950611562E1,-8.329308629E-1,4.757481098E0,7.784008026E0
3.952640187E1,-8.556748033E-1,5.001679897E0,7.645150185E0
3.954668807E1,-7.563197017E-1,5.248271465E0,7.347084999E0
3.956696859E1,-7.611078620E-1,5.320094585E0,6.849112511E0
3.958723906E1,-6.928760409E-1,5.123778820E0,6.876644611E0
3.960751489E1,-4.618455768E-1,4.806560040E0,7.250123978E0
3.962780130E1,-2.607412338E-1,4.655732155E0,7.858224869E0
3.964808520E1,-4.766647518E-2,4.471386909E0,8.074891090E0
3.966836932E1,4.108034372E-1,4.518071651E0,7.038246155E0
3.968865359E1,6.609867811E-1,4.757481098E0,5.878305435E0
3.970893807E1,4.347444177E-1,5.215950966E0,5.714309692E0
3.972922187E1,1.570289731E-1,5.616962910E0,5.951325417E0
3.974950520E1,7.084141672E-2,5.836022854E0,6.492391586E0
3.976978937E1,-2.751058340E-1,5.994033337E0,7.131616116E0
3.979006359E1,-4.331163764E-1,6.177181721E0,7.562553406E0
3.981033895E1,-4.007959962E-1,6.439335823E0,7.666697025E0
3.983062588E1,-1.182923764E-1,6.694307327E0,7.521853924E0
3.985089484E1,3.701037765E-1,6.860697269E0,6.906570435E0
3.987096192E1,5.736021399E-1,6.922943592E0,6.421765327E0
3.989085786E1,2.887043953E-1,6.951672554E0,6.704269409E0
3.991074067E1,-3.469288349E-1,7.042648792E0,7.432075500E0
3.993063682E1,-3.565052152E-1,7.333531857E0,8.358591080E0
3.995053822E1,3.317981958E-1,7.809957027E0,8.861351967E0
3.997040286E1,2.899014354E-1,7.612444401E0,8.563286781E0
3.999008057E1,2.611722648E-1,7.613641262E0,9.253985405E0
4.000997067E1,3.852108121E-2,7.300014019E0,1.060665035E1
4.003006234E1,-1.577949971E-1,6.592558384E0,1.138592911E1
4.004995958E1,-1.996917576E-1,5.737864494E0,1.125066280E1
4.006986229E1,1.438614279E-1,5.096246243E0,1.097893333E1
4.008980588E1,1.057210088E0,4.771846294E0,1.044265461E1
4.010969666E1,1.387595654E0,4.753890038E0,9.265954971E0
4.012951083E1,1.314575672E0,5.156098843E0,8.226916313E0
4.014937229E1,1.367245793E0,5.588233471E0,7.397361279E0
4.016926557E1,1.285846472E0,5.803702831E0,7.112462997E0
4.018899437E1,9.913724065E-1,5.372764587E0,7.436863422E0
4.020890572E1,5.987401605E-1,5.039985180E0,7.489533424E0
4.022896328E1,2.910984755E-1,5.144128323E0,6.794047832E0
4.024883942E1,6.725026667E-2,5.226724625E0,6.416977406E0
4.026873619E1,4.211223125E-2,5.206374645E0,6.317622662E0
4.028863385E1,1.151322424E-1,5.348823547E0,6.084197998E0
4.030852296E1,3.449657261E-1,5.560701847E0,5.883093357E0
4.032840218E1,4.957939386E-1,5.631327152E0,6.138064861E0
4.034830374E1,4.491090178E-1,5.657662868E0,6.879038334E0
4.036819859E1,5.317054391E-1,5.794126034E0,6.773697853E0
4.038788718E1,7.028835416E-1,5.978471756E0,5.980054379E0
4.040776453E1,6.573956609E-1,6.311251640E0,5.573057652E0
4.042789411E1,8.405442238E-1,6.691913128E0,6.105744362E0
4.044797234E1,7.459772825E-1,7.030678272E0,7.453622341E0
4.046779171E1,6.322575808E-1,7.222206116E0,8.650671959E0
4.048755713E1,5.975431800E-1,7.284452915E0,9.413191795E0
4.050751499E1,5.077644587E-1,7.261708736E0,9.761532784E0
4.052740499E1,5.712080598E-1,7.412536621E0,9.962637901E0
4.054727400E1,1.020101547E0,7.821927547E0,1.038040829E1
4.056707411E1,6.801396012E-1,7.629202843E0,9.571203232E0
4.058673291E1,5.197349191E-1,7.865021706E0,8.697357178E0
4.060663171E1,2.324430943E-1,7.726163864E0,7.841465950E0
4.062670952E1,4.790352583E-1,6.913367271E0,7.858224869E0
4.064660760E1,6.945041418E-1,5.766594410E0,8.485479355E0
4.066648890E1,5.903608203E-1,4.703614235E0,9.652602196E0
4.068636380E1,5.855726600E-1,4.182897568E0,1.117405224E1
4.070625046E1,3.389804959E-1,3.778294802E0,1.177497005E1
4.072614067E1,-1.055794209E-2,3.561628819E0,1.103639126E1
4.074602796E1,1.043587998E-1,3.889620543E0,9.237226486E0
4.076602895E1,3.736948967E-1,4.491736412E0,7.402149200E0
4.078605525E1,3.126453757E-1,4.999285221E0,6.197917461E0
4.080583671E1,1.342850327E-1,5.095049381E0,5.866334915E0
4.082555270E1,-3.062291145E-1,4.995694160E0,6.536682606E0
4.084542656E1,-7.024524808E-1,5.110611439E0,7.764854908E0
4.086534249E1,-6.222501993E-1,5.063926220E0,8.001871109E0
4.088547682E1,-7.759270072E-2,4.786210537E0,7.235759735E0
4.090579677E1,7.902680635E-1,4.811348915E0,6.679131508E0
4.092608426E1,6.669720411E-1,5.472119808E0,6.021951199E0
4.094637083E1,1.294968426E-1,6.144861698E0,5.557496071E0
4.096665156E1,-3.888255358E-1,6.306463242E0,6.151232719E0
4.098693302E1,-3.002438545E-1,6.287310600E0,6.964028835E0
4.100721270E1,-2.942586541E-1,6.304069042E0,7.433272362E0
4.102749328E1,-3.373523951E-1,6.270551682E0,7.375813961E0
4.104777395E1,6.605321914E-2,6.257384300E0,7.265685558E0
4.106805489E1,3.234188557E-1,6.363921642E0,7.570932865E0
4.108833650E1,1.857581437E-1,6.703883648E0,8.088058472E0
4.110861807E1,-1.577949971E-1,7.088136673E0,8.199383736E0
4.112889989E1,-2.248297781E-1,7.300014019E0,8.322680473E0
4.114918197E1,1.577714831E-2,7.562168121E0,9.265954971E0
4.116946348E1,1.977286637E-1,7.808760166E0,9.406009674E0
4.118974473E1,1.127381474E-1,7.734543324E0,8.331059456E0
4.121002598E1,7.854799032E-1,7.771651745E0,8.120379448E0
4.123030661E1,7.507654428E-1,6.872667789E0,8.335847855E0
4.125058760E1,2.599751949E-1,5.953333855E0,9.009785652E0
4.127087020E1,-2.176474780E-1,5.537957668E0,9.638237000E0
4.129115307E1,-4.048417509E-2,5.499652386E0,9.300668716E0
4.131143588E1,3.078572154E-1,5.438602924E0,7.798372746E0
4.133171916E1,-6.921336055E-2,5.607386112E0,1.148767948E1
4.135200208E1,-1.577949971E-1,6.253793240E0,1.112138176E1
4.137228479E1,2.050761223E0,5.711529732E0,7.063384056E0
4.139256703E1,1.354078293E0,4.902324200E0,5.883093357E0
4.141285229E1,2.073050439E-1,5.324882507E0,5.862743378E0
4.143313833E1,-1.134587288E0,5.505637169E0,6.925723553E0
4.145342447E1,-2.978497744E-1,5.180039883E0,8.311906815E0
4.147371067E1,1.043587998E-1,4.689249516E0,9.024150848E0
4.149399744E1,-1.925094277E-1,5.207571983E0,8.135940552E0
4.151428739E1,-5.851415992E-1,5.542745590E0,7.208227158E0
4.153457031E1,-5.588065386E-1,5.682800770E0,6.659978390E0
4.155485093E1,-1.865241975E-1,5.764199734E0,6.311636925E0
4.157514072E1,-1.175498962E-2,5.676815033E0,6.401415825E0
4.159543213E1,-1.925094277E-1,5.669633389E0,7.161541939E0
4.161572114E1,2.707486749E-1,5.831234932E0,7.653529644E0
4.163600854E1,5.771933198E-1,6.363921642E0,7.503898621E0
4.165629041E1,3.054630756E-1,6.742189407E0,6.813200951E0
4.167657458E1,-2.272238880E-1,7.132427216E0,7.357858658E0
4.169686213E1,-6.246442199E-1,7.053421974E0,7.938426971E0
4.171714807E1,-7.060436010E-1,7.104895115E0,8.477099419E0
4.173743463E1,-6.083402038E-2,7.718981743E0,8.593213081E0
4.175772202E1,1.055558473E-1,7.944026470E0,7.657120705E0
4.177800869E1,-1.661743373E-1,8.242092133E0,7.046625614E0
4.179829385E1,-9.705914855E-1,7.764469147E0,8.268813133E0
4.181857890E1,-1.024458766E0,6.563828468E0,1.064016819E1
4.183886541E1,-4.319192767E-1,5.358400345E0,1.111180496E1
4.185915312E1,1.402702779E-1,4.816136837E0,1.001889896E1
4.187939567E1,7.040805817E-1,4.503706932E0,8.807484627E0
4.189952312E1,2.635663748E-1,4.531239033E0,8.200580597E0
4.191942682E1,4.450632632E-2,5.287774086E0,8.050950050E0
