"Time (s)","Acceleration x (m/s^2)","Acceleration y (m/s^2)","Acceleration z (m/s^2)"
1.378705000E-2,-2.931207791E-2,3.382853031E0,9.924830437E0
3.389684200E-2,1.645065546E-1,3.592225075E0,8.664410591E0
5.400658200E-2,3.762713671E-1,3.475574970E0,8.562715530E0
7.411632100E-2,2.961117923E-1,3.503092289E0,9.269196510E0
9.422606100E-2,3.266202807E-1,3.549154282E0,9.760323524E0
1.143358520E-1,4.067798555E-1,3.568296671E0,9.704092026E0
1.344455920E-1,4.701896608E-1,3.676572084E0,9.230911255E0
1.545553320E-1,4.091726840E-1,3.802195072E0,8.821140289E0
1.746650710E-1,3.678964674E-1,3.716053486E0,8.874979019E0
1.947748110E-1,4.474578202E-1,3.538386583E0,9.240483284E0
2.148846020E-1,6.759724021E-1,3.530011654E0,9.591031075E0
2.349943420E-1,8.524430394E-1,3.547957659E0,9.646664619E0
2.551040820E-1,8.877372146E-1,3.526422262E0,9.531808853E0
2.752138730E-1,8.638089895E-1,3.560520172E0,9.391828537E0
2.953236130E-1,8.847461939E-1,3.602394581E0,9.235098839E0
3.154333520E-1,8.913264275E-1,3.649054527E0,9.028717995E0
3.355430920E-1,8.368897438E-1,3.696312666E0,8.888139725E0
3.556528320E-1,7.926225066E-1,3.684348583E0,8.903693199E0
3.757626230E-1,7.591229677E-1,3.642474174E0,9.077771187E0
3.958723630E-1,6.759724021E-1,3.576671600E0,9.319445610E0
4.159821020E-1,5.539384484E-1,3.516851187E0,9.416953087E0
4.360918420E-1,4.875376225E-1,3.514458179E0,9.342177391E0
4.562016340E-1,4.480560422E-1,3.583850145E0,9.184849739E0
4.763113730E-1,5.365904570E-1,3.577269793E0,9.143573761E0
4.964211130E-1,7.082754970E-1,3.513859987E0,9.296115875E0
5.165308520E-1,7.764709592E-1,3.502494097E0,9.375677109E0
5.366406440E-1,6.209374666E-1,3.541975737E0,9.357132912E0
5.567503840E-1,5.192425251E-1,3.589233875E0,9.263813019E0
5.768601230E-1,5.467599630E-1,3.590430260E0,9.233902931E0
5.969699150E-1,5.742774606E-1,3.576073408E0,9.323035240E0
6.170796540E-1,4.689932466E-1,3.498904943E0,9.393623352E0
6.371893940E-1,3.433700502E-1,3.486940861E0,9.384052277E0
6.572991340E-1,3.068794906E-1,3.495913982E0,9.355338097E0
6.774089250E-1,3.684946895E-1,3.494119167E0,9.353543282E0
6.975186650E-1,4.127618968E-1,3.476771355E0,9.306285858E0
7.176284040E-1,4.013960063E-1,3.514458179E0,9.193822861E0
7.377381960E-1,2.937189937E-1,3.581457376E0,9.031110764E0
7.578479360E-1,2.099701911E-1,3.674777269E0,8.935996056E0
7.779576750E-1,2.895315289E-1,3.658625841E0,8.874979019E0
7.980674670E-1,3.182454109E-1,3.589832067E0,9.014959335E0
8.181772070E-1,3.194418252E-1,3.513261795E0,9.181260109E0
8.382869460E-1,2.099701911E-1,3.492324591E0,9.227920532E0
8.583966860E-1,1.172483116E-1,3.522234917E0,9.176474571E0
8.785064770E-1,1.184447184E-1,3.529413462E0,9.158528328E0
8.986162170E-1,1.597209126E-1,3.558725595E0,9.282955170E0
9.187259570E-1,3.667000830E-1,3.565305710E0,9.352945328E0
9.388357480E-1,4.731806815E-1,3.548556089E0,9.355937004E0
9.589454880E-1,4.552344978E-1,3.538984776E0,9.308079720E0
9.790552270E-1,4.450650215E-1,3.511467218E0,9.322437286E0
9.991650190E-1,5.300102234E-1,3.470789194E0,9.390034676E0
1.019274759E0,5.880361795E-1,3.460021496E0,9.387042999E0
1.039384498E0,5.431707501E-1,3.503690481E0,9.281759262E0
1.059494290E0,5.006981492E-1,3.570091486E0,9.096913338E0
1.079604029E0,4.935196638E-1,3.598805189E0,9.099904060E0
1.099713769E0,4.725824594E-1,3.514458179E0,9.172885895E0
1.119823561E0,3.672982752E-1,3.425923824E0,9.259027481E0
1.139933300E0,2.386840582E-1,3.397209883E0,9.272786140E0
1.160043040E0,1.746760458E-1,3.377469063E0,9.337990761E0
1.180152832E0,2.129612118E-1,3.303291559E0,9.441479683E0
1.200262571E0,1.998006850E-1,3.245265722E0,9.544969559E0
1.220372311E0,1.603191197E-1,3.224926710E0,9.584450722E0
1.240482102E0,1.429711580E-1,3.253042459E0,9.585647583E0
1.260591842E0,1.369891018E-1,3.257229805E0,9.623932838E0
1.280701582E0,9.511470050E-2,3.262015581E0,9.659825325E0
1.300811373E0,5.383851007E-2,3.285345554E0,9.635896683E0
1.320921113E0,7.118647546E-2,3.269193888E0,9.559326172E0
1.341030852E0,7.178468257E-2,3.239881754E0,9.481559753E0
1.361140644E0,1.220339537E-1,3.328416348E0,9.446265221E0
1.381250384E0,2.667997181E-1,3.390629768E0,9.413962364E0
1.401360123E0,3.349951804E-1,3.409772158E0,9.440283775E0
1.421469915E0,3.942175210E-1,3.413959742E0,9.435498238E0
1.441579654E0,4.043870270E-1,3.448655605E0,9.399605751E0
1.461689394E0,4.360919297E-1,3.446861029E0,9.318249702E0
1.481799186E0,3.978067636E-1,3.476771355E0,9.188439369E0
1.501908925E0,3.457628787E-1,3.541975737E0,9.020342827E0
1.522018717E0,3.487538993E-1,3.602394581E0,8.898308754E0
1.542128457E0,3.367897868E-1,3.596412420E0,8.853444099E0
1.562238196E0,2.392822653E-1,3.589233875E0,9.005388260E0
1.582347988E0,2.051845491E-1,3.517449379E0,9.259027481E0
1.602457727E0,2.333002090E-1,3.456432343E0,9.387042999E0
1.622567467E0,2.356930375E-1,3.437289715E0,9.466604233E0
1.642677259E0,1.591227055E-1,3.429512978E0,9.552147865E0
1.662786998E0,1.657029688E-1,3.433700562E0,9.551549911E0
1.682896790E0,2.297109663E-1,3.503690481E0,9.451649666E0
1.703006529E0,2.979064286E-1,3.564707518E0,9.300303459E0
1.723116269E0,3.984049559E-1,3.620340586E0,9.249456406E0
1.743226061E0,5.012963414E-1,3.684946775E0,9.198010445E0
1.763335800E0,5.222335458E-1,3.711866140E0,9.331410408E0
1.783445592E0,5.162515044E-1,3.700500250E0,9.607182503E0
1.803555332E0,6.562315822E-1,3.562912941E0,9.739984512E0
1.823665071E0,6.819544435E-1,3.509074450E0,9.932008743E0
1.843774863E0,6.448656917E-1,3.502494097E0,9.824331284E0
1.863884602E0,6.179464459E-1,3.576073408E0,9.292527199E0
1.883994394E0,5.581258535E-1,3.705883980E0,8.705686569E0
1.904104134E0,4.821537733E-1,3.749552965E0,8.317451477E0
1.924213873E0,3.272185028E-1,3.792025566E0,8.288737297E0
1.944323665E0,2.745763958E-1,3.773481369E0,8.571090698E0
1.964433404E0,2.476571500E-1,3.635894060E0,8.960522652E0
1.984543196E0,1.854437590E-1,3.485744476E0,9.315856934E0
2.004652936E0,7.118647546E-2,3.415156126E0,9.439086914E0
2.024762675E0,-7.956135273E-2,3.459423304E0,9.282955170E0
2.044872467E0,-9.631111473E-2,3.543770313E0,9.017950058E0
2.064982207E0,-6.819544733E-2,3.573082447E0,9.046066284E0
2.085091998E0,1.010967568E-1,3.472583771E0,9.347561836E0
2.105201738E0,1.860419661E-1,3.402593851E0,9.581459999E0
2.125311477E0,1.573280841E-1,3.466601849E0,9.452845573E0
2.145421269E0,6.580262631E-2,3.583850145E0,9.157930374E0
2.165531009E0,6.759724021E-2,3.613760471E0,9.011369705E0
2.185640800E0,5.802594870E-2,3.616153240E0,9.147761345E0
2.205750540E0,4.965107143E-2,3.556332588E0,9.334999084E0
2.225860279E0,8.913264424E-2,3.504886866E0,9.448657990E0
2.245970071E0,6.580262631E-2,3.514458179E0,9.448060036E0
2.266079863E0,6.879365444E-2,3.531806231E0,9.360123634E0
2.286189602E0,7.178468257E-2,3.570689678E0,9.219545364E0
2.306299342E0,1.992024779E-1,3.562314749E0,9.263813019E0
2.326409134E0,3.451646566E-1,3.469592810E0,9.484550476E0
2.346518873E0,3.828516304E-1,3.385245800E0,9.629316330E0
2.366628665E0,3.505485058E-1,3.448057413E0,9.553942680E0
2.386738404E0,3.302095234E-1,3.531208038E0,9.290732384E0
2.406848196E0,4.271188378E-1,3.603590965E0,8.931210518E0
2.426957936E0,4.492524564E-1,3.668795347E0,8.799605370E0
2.447067675E0,4.031906128E-1,3.626920938E0,8.949754715E0
2.467177467E0,3.272185028E-1,3.582653761E0,9.195617676E0
2.487287207E0,3.158525825E-1,3.559323788E0,9.339784622E0
2.507396998E0,3.254238665E-1,3.511467218E0,9.432506561E0
2.527506738E0,3.302095234E-1,3.500101328E0,9.379266739E0
2.547616529E0,2.745763958E-1,3.575475216E0,9.269794464E0
2.567726269E0,2.512463629E-1,3.633501291E0,9.185447693E0
2.587836061E0,2.853440940E-1,3.674179077E0,9.219545364E0
2.607945800E0,3.332005441E-1,3.668197155E0,9.311071396E0
2.628055540E0,3.224328458E-1,3.632304668E0,9.379266739E0
2.648165332E0,2.392822653E-1,3.636492252E0,9.406186104E0
2.668275071E0,1.423729509E-1,3.677170277E0,9.328418732E0
2.688384863E0,1.471585929E-1,3.683152199E0,9.305088997E0
2.708494602E0,2.087737769E-1,3.632902861E0,9.390034676E0
2.728604394E0,2.069791555E-1,3.576073408E0,9.500701904E0
2.748714134E0,1.579262912E-1,3.534797192E0,9.652647018E0
2.768823925E0,1.058823988E-1,3.498904943E0,9.782457352E0
2.788933665E0,1.381855011E-1,3.469592810E0,9.642477036E0
2.809043457E0,1.896311939E-1,3.564707518E0,9.216554642E0
2.829153196E0,2.374876440E-1,3.722035646E0,8.678768158E0
2.849262936E0,2.590230405E-1,3.827918053E0,8.283951759E0
2.869372727E0,1.806581169E-1,3.866203070E0,8.255836487E0
2.889482467E0,1.082752272E-1,3.770490170E0,8.662615776E0
2.909592259E0,2.087737769E-1,3.658625841E0,9.233902931E0
2.929701998E0,1.770688742E-1,3.642474174E0,9.203393936E0
2.949811790E0,-6.400800496E-2,3.765704632E0,8.874381065E0
2.969921529E0,-2.327020019E-1,3.881158352E0,8.683553696E0
2.990031321E0,-4.606183618E-2,3.854837179E0,8.735597610E0
3.010141061E0,6.221338734E-2,3.860221148E0,8.955139160E0
3.030250852E0,1.238285750E-1,3.859024763E0,9.209974289E0
3.050360592E0,2.153540403E-1,3.804588079E0,9.409176826E0
3.070470384E0,2.506481707E-1,3.758526087E0,9.549157143E0
3.090580123E0,3.056831062E-1,3.756731510E0,9.610174179E0
3.110689915E0,3.517449200E-1,3.756731510E0,9.477372169E0
3.130799654E0,2.626122832E-1,3.781257868E0,9.293125153E0
3.150909446E0,2.045863420E-1,3.760320902E0,9.152546883E0
3.171019186E0,2.703889608E-1,3.742972851E0,9.126823425E0
3.191128977E0,3.888336718E-1,3.735794306E0,9.269196510E0
3.211238717E0,4.157529473E-1,3.713660717E0,9.375677109E0
3.231348509E0,3.343969584E-1,3.696911097E0,9.360123634E0
3.251458248E0,2.416750938E-1,3.654438496E0,9.261420250E0
3.271568040E0,2.105683982E-1,3.620938778E0,9.257232666E0
3.291677779E0,2.662015259E-1,3.582653761E0,9.298508644E0
3.311787571E0,2.440679073E-1,3.598206997E0,9.299705505E0
3.331897311E0,1.214357466E-1,3.614956856E0,9.230911255E0
3.352007102E0,-8.973085321E-3,3.622733593E0,9.119047165E0
3.372116842E0,-1.615155302E-2,3.591626883E0,9.091529846E0
3.392226634E0,3.170489892E-2,3.557528973E0,9.120243073E0
3.412336373E0,5.742774159E-2,3.563511133E0,9.277571678E0
3.432446165E0,1.357926875E-1,3.550350666E0,9.406186104E0
3.452555904E0,1.728814393E-1,3.549752474E0,9.519845009E0
3.472665696E0,1.716850251E-1,3.508476257E0,9.646066666E0
3.492775436E0,1.980060786E-1,3.460021496E0,9.717850685E0
3.512885227E0,2.398804724E-1,3.504288673E0,9.565906525E0
3.532994967E0,3.014956415E-1,3.606581926E0,9.276973724E0
3.553104759E0,4.241278172E-1,3.659224033E0,9.041878700E0
3.573214498E0,4.043870270E-1,3.601796389E0,9.105886459E0
3.593324290E0,2.398804724E-1,3.497110367E0,9.279964447E0
3.613434029E0,1.316052526E-1,3.477967739E0,9.330811501E0
3.633543821E0,2.069791555E-1,3.460619688E0,9.218349457E0
3.653653561E0,2.751746178E-1,3.476173162E0,9.144171715E0
3.673763352E0,3.284149170E-1,3.503092289E0,9.214759827E0
3.693873144E0,2.787638307E-1,3.485744476E0,9.343972206E0
3.713982884E0,2.135594189E-1,3.430709362E0,9.377471924E0
3.734092675E0,1.974078715E-1,3.443271875E0,9.340383530E0
3.754202415E0,2.751746178E-1,3.498904943E0,9.270991325E0
3.774312207E0,3.780659735E-1,3.546163082E0,9.167501450E0
3.794421946E0,3.649054468E-1,3.585644722E0,9.114261627E0
3.814531738E0,3.996013701E-1,3.604787350E0,9.071788788E0
3.834641477E0,4.307080805E-1,3.643670797E0,9.077172279E0
3.854751269E0,3.972085714E-1,3.695714474E0,9.096315384E0
3.874861009E0,4.007977843E-1,3.701098442E0,9.027522087E0
3.894970800E0,4.067798555E-1,3.647259951E0,9.208179474E0
3.915080540E0,3.984049559E-1,3.594617844E0,9.447462082E0
3.935190332E0,3.810569942E-1,3.555734396E0,9.301499367E0
3.955300123E0,2.991028428E-1,3.677170277E0,9.074181557E0
3.975409863E0,3.224328458E-1,3.738785267E0,9.108279228E0
3.995519654E0,4.378865361E-1,3.689134359E0,9.224929810E0
4.015629394E0,4.456632137E-1,3.719044685E0,9.297312737E0
4.035739186E0,3.655036688E-1,3.732803345E0,9.258428574E0
4.055848925E0,2.835494876E-1,3.692723513E0,9.216554642E0
4.075958717E0,2.392822653E-1,3.654438496E0,9.272188187E0
4.096068457E0,2.321037948E-1,3.605385542E0,9.334999084E0
4.116178248E0,1.692921966E-1,3.585644722E0,9.339784622E0
4.136288040E0,1.872383654E-1,3.597608805E0,9.266803741E0
4.156397779E0,1.932204217E-1,3.605983734E0,9.118449211E0
4.176507571E0,1.944168359E-1,3.611965895E0,9.043074608E0
4.196617311E0,1.489532143E-1,3.651447296E0,9.078967094E0
4.216727102E0,1.399801224E-1,3.646063566E0,9.165108681E0
4.236836842E0,1.531406492E-1,3.617947817E0,9.315258980E0
4.256946634E0,1.333998591E-1,3.635295868E0,9.301499367E0
4.277056425E0,1.124626622E-1,3.693919897E0,9.110074043E0
4.297166165E0,1.136590764E-1,3.706482172E0,8.979066849E0
4.317275957E0,1.286142170E-1,3.600001574E0,9.169894218E0
4.337385696E0,6.161518395E-2,3.488735437E0,9.553344727E0
4.357495488E0,2.991028363E-3,3.423531055E0,9.713663101E0
4.377605227E0,-3.170489892E-2,3.462414265E0,9.525228500E0
4.397715019E0,9.272187948E-2,3.502494097E0,9.231510162E0
4.417824759E0,2.081755698E-1,3.539582968E0,9.013164520E0
4.437934550E0,2.075773627E-1,3.585046530E0,8.998807907E0
4.458044342E0,1.764706671E-1,3.602394581E0,9.062815666E0
4.478154082E0,9.930214286E-2,3.590430260E0,9.013762474E0
4.498263873E0,-7.776673418E-3,3.547359467E0,8.927022934E0
4.518373613E0,-4.965107143E-2,3.513261795E0,8.840881348E0
4.538483404E0,-7.357929647E-2,3.528815269E0,8.850452423E0
4.558593196E0,-9.032905847E-2,3.534198999E0,8.949156761E0
4.578702936E0,-6.400800496E-2,3.501895905E0,9.033503532E0
4.598812727E0,-1.375873089E-1,3.538984776E0,9.172885895E0
4.618922467E0,-2.261217386E-1,3.569493294E0,9.543174744E0
4.639032259E0,-2.135594189E-1,3.429512978E0,9.680762291E0
4.659142050E0,-2.015953064E-1,3.405584812E0,9.572486877E0
4.679251790E0,-1.818545163E-1,3.614956856E0,9.422337532E0
4.699361582E0,-9.092725813E-2,3.833301783E0,9.251849174E0
4.719471321E0,-1.016949583E-2,3.921238184E0,9.188439369E0
4.739581113E0,3.110669367E-2,3.848855257E0,9.094520569E0
4.759690904E0,-4.905286431E-2,3.842274904E0,9.087940216E0
4.779800644E0,-1.232303679E-1,3.805186272E0,9.350552559E0
4.799910436E0,-7.357929647E-2,3.698705673E0,9.731011391E0
4.820020175E0,6.640082598E-2,3.646063566E0,9.973284721E0
4.840129967E0,1.112662554E-1,3.677170277E0,9.844072342E0
4.860239759E0,1.411765367E-1,3.641875982E0,9.573084831E0
4.880349498E0,9.810572863E-2,3.602394581E0,9.377471924E0
4.900459290E0,2.153540403E-2,3.618546009E0,9.349954605E0
4.920569029E0,5.383851007E-3,3.533600807E0,9.257830620E0
4.940678821E0,-1.531406492E-1,3.505485058E0,9.101698875E0
4.960788613E0,-3.972085714E-1,3.551547050E0,8.955139160E0
4.980898352E0,-4.827519655E-1,3.538386583E0,8.826524734E0
5.001008144E0,-5.060819983E-1,3.489931822E0,9.007781029E0
5.021117884E0,-4.827519655E-1,3.409173965E0,9.382257462E0
5.041227675E0,-4.247260094E-1,3.335594654E0,9.644869804E0
5.061337467E0,-3.702892959E-1,3.371487141E0,9.701101303E0
5.081447207E0,-1.998006850E-1,3.394218922E0,9.784252167E0
5.101556998E0,9.810572863E-2,3.299104214E0,9.952945709E0
5.121666738E0,2.327020019E-1,3.259622574E0,1.017667484E1
5.141776529E0,3.349951804E-1,3.316452265E0,1.023170948E1
5.161886321E0,4.713860750E-1,3.419941664E0,1.004028416E1
5.181996061E0,7.178468108E-1,3.431307554E0,9.790233612E0
5.202105852E0,8.464609981E-1,3.426522017E0,9.631709099E0
5.222215592E0,8.267202377E-1,3.405584812E0,9.487542152E0
5.242325384E0,6.454638839E-1,3.415754318E0,9.216554642E0
5.262435175E0,4.827519655E-1,3.379862070E0,8.931808472E0
5.282544915E0,4.115654826E-1,3.315255880E0,8.807381630E0
5.302654707E0,3.439682424E-1,3.275774240E0,8.933005333E0
5.322764446E0,2.075773627E-1,3.190829039E0,8.952746391E0
5.342874238E0,-6.580262445E-3,3.183052301E0,8.699107170E0
5.362984029E0,-1.597209126E-1,3.289532900E0,8.598608017E0
5.383093769E0,7.537391037E-2,3.230310678E0,8.690732002E0
5.403203561E0,2.416750938E-1,3.337389469E0,9.061619759E0
5.423313352E0,4.845465720E-1,3.376272678E0,9.490532875E0
5.443423092E0,6.281159520E-1,3.403192043E0,9.698708534E0
5.463532884E0,5.437689424E-1,3.487539053E0,9.561120987E0
5.483642623E0,3.302095234E-1,3.514458179E0,9.006584167E0
5.503752415E0,4.743770957E-1,3.658027649E0,8.396414757E0
5.523862207E0,6.496513486E-1,3.781856298E0,8.067401886E0
5.543971946E0,5.868397355E-1,3.741178274E0,8.479565620E0
5.564081738E0,4.127618968E-1,3.522833109E0,9.446265221E0
5.584191529E0,3.266202807E-1,3.228515863E0,1.019521904E1
5.604301269E0,8.440681696E-1,3.057429075E0,1.090349483E1
5.624411061E0,6.921239495E-1,2.988037348E0,1.050748253E1
5.644520852E0,6.059823632E-1,3.232703447E0,9.690333366E0
5.664630592E0,2.015953064E-1,3.605983734E0,9.074181557E0
5.684740384E0,1.698904037E-1,3.370290756E0,8.894122124E0
5.704850123E0,-1.375873014E-2,3.397209883E0,8.946166039E0
5.724959915E0,-4.666004330E-2,3.283550978E0,8.956933022E0
5.745069707E0,-2.237289101E-1,3.057429075E0,9.310472488E0
5.765179446E0,1.465603858E-1,3.132204771E0,9.136993408E0
5.785289238E0,2.841476798E-1,3.177668571E0,8.380263329E0
5.805399029E0,9.571290575E-3,3.728615999E0,8.989236832E0
5.825508769E0,4.301098585E-1,3.600599766E0,9.578469276E0
5.845618561E0,7.256234884E-1,3.511467218E0,1.003729248E1
5.865728352E0,6.412764788E-1,3.422932863E0,1.016710377E1
5.885838092E0,4.474578202E-1,3.408575773E0,9.892526627E0
5.905947884E0,3.415754437E-1,3.489931822E0,9.562317848E0
5.926057623E0,-2.602194548E-1,3.601796389E0,9.202795982E0
5.946167415E0,-7.136593461E-1,3.393620729E0,9.308678627E0
5.966277207E0,6.640082598E-1,3.232703447E0,8.693722725E0
5.986386946E0,4.157529473E-1,4.081557274E0,8.750552177E0
6.006496738E0,8.614161611E-1,3.812962770E0,8.895915985E0
6.026606529E0,6.113662124E-1,3.780659676E0,9.235696793E0
6.046716269E0,5.192425251E-1,3.781257868E0,9.720243454E0
6.066826061E0,4.480560422E-1,3.614358664E0,1.003250694E1
6.086935852E0,2.781656384E-1,3.582653761E0,9.863214493E0
6.107045592E0,1.292124242E-1,3.707080364E0,9.327222824E0
6.127155384E0,5.982056633E-2,3.763311863E0,9.015557289E0
6.147265175E0,-1.363908947E-1,3.779463291E0,8.898308754E0
6.167374915E0,-1.375873014E-2,3.726222992E0,9.132207870E0
6.187484707E0,4.869394004E-1,3.703491211E0,9.054440498E0
6.207594498E0,5.605186820E-1,3.675973892E0,8.320442200E0
6.227704238E0,-9.930214286E-2,4.062414646E0,8.001599312E0
6.247814029E0,3.960121572E-1,3.692723513E0,8.490332603E0
6.267923821E0,4.354937077E-1,3.605983734E0,8.549555779E0
6.288033561E0,-2.691925503E-2,3.472583771E0,8.607581139E0
6.308143352E0,-6.879365444E-2,3.494717360E0,8.837890625E0
6.328253144E0,1.621137410E-1,3.755535126E0,9.504889488E0
6.348362884E0,7.286145091E-1,3.848257065E0,1.018385315E1
6.368472675E0,1.175474167E0,3.665804386E0,1.025085258E1
6.388582467E0,1.122832060E0,3.473181963E0,8.785846710E0
6.408692207E0,-2.171486616E-1,3.681357622E0,8.404191017E0
6.428801998E0,-2.279761791E0,2.766103029E0,9.019744873E0
6.448911738E0,-1.888535261E0,3.266801119E0,1.079342461E1
6.469021529E0,-3.379862010E-1,4.283750534E0,1.054217815E1
6.489131321E0,7.680960894E-1,4.074976921E0,1.038485050E1
6.509241113E0,1.878365725E-1,3.913461447E0,9.923633575E0
6.529350852E0,-6.323033571E-1,3.919443607E0,8.625527382E0
6.549460644E0,-1.381256819E0,4.584050179E0,7.143173695E0
6.569570436E0,-6.879365444E-2,4.798805714E0,7.725826263E0
6.589680175E0,1.383649707E0,4.320241451E0,7.543971539E0
6.609789967E0,9.457631707E-1,4.258625984E0,6.830910206E0
6.629899759E0,1.076770201E-1,5.483751297E0,7.634300709E0
6.650009498E0,-7.238288522E-1,5.553741455E0,8.484949112E0
6.670119290E0,1.024128079E0,4.405784607E0,9.081359863E0
6.690229029E0,1.459621787E0,4.165904045E0,9.390034676E0
6.710338821E0,9.990034699E-1,4.430311203E0,8.766703606E0
6.730448613E0,6.849454641E-1,4.109074593E0,8.493922234E0
6.750558404E0,7.417750359E-2,4.099503517E0,9.291330338E0
6.770668144E0,-5.270192027E-1,4.364508629E0,1.025025368E1
6.790777936E0,3.589234054E-1,4.179663181E0,1.009053326E1
6.810887727E0,6.065805554E-1,4.068994999E0,9.718449593E0
6.830997467E0,-1.998006850E-1,4.079164505E0,9.432506561E0
6.851107259E0,-6.149554253E-1,3.818944931E0,9.512666702E0
6.871217050E0,-6.418746710E-1,3.690928936E0,9.595816612E0
6.891326790E0,-4.444667995E-1,3.718446493E0,9.616754532E0
6.911436582E0,-7.118647546E-2,3.835694790E0,9.342776299E0
6.931546373E0,4.492524564E-1,3.909274101E0,9.059824944E0
6.951656113E0,8.979067206E-1,3.796811342E0,9.117252350E0
6.971765904E0,8.973084688E-1,3.568894863E0,9.098708153E0
6.991875696E0,1.543370634E-1,3.699902058E0,9.371489525E0
7.011985436E0,-2.572284341E-1,3.719642878E0,9.882357597E0
7.032095227E0,-1.328016520E-1,3.366701365E0,1.025085258E1
7.052205019E0,2.213360928E-2,3.310470104E0,9.742975235E0
7.072314759E0,1.316052526E-1,3.605983734E0,8.580063820E0
7.092424550E0,5.192425251E-1,4.131806374E0,7.854440212E0
7.112534342E0,5.557330847E-1,4.258625984E0,7.505686283E0
7.132644082E0,2.093719840E-1,4.025325775E0,8.090133667E0
7.152753873E0,-1.208375469E-1,3.765704632E0,9.509077072E0
7.172863665E0,-1.926222295E-1,3.866203070E0,1.037168980E1
7.192973457E0,1.519442350E-1,3.934996843E0,9.764511108E0
7.213083196E0,1.627119333E-1,3.430709362E0,9.068798065E0
7.233192988E0,-8.913264424E-2,4.036691666E0,8.998807907E0
7.253302779E0,-6.221338734E-2,4.264608383E0,9.203991890E0
7.273412519E0,1.806581169E-1,4.021736622E0,9.214759827E0
7.293522311E0,1.543370634E-1,3.889533281E0,9.270991325E0
7.313632102E0,5.078766346E-1,3.975076675E0,9.312865257E0
7.333741842E0,8.434699774E-1,3.977469444E0,9.230313301E0
7.353851634E0,6.681957245E-1,3.885345697E0,8.754141808E0
7.373961425E0,3.619144261E-1,3.878765583E0,8.424530029E0
7.394071217E0,2.871387079E-2,3.865604877E0,8.825327873E0
7.414180957E0,-1.980060786E-1,3.745365620E0,9.198010445E0
7.434290748E0,-1.531406492E-1,3.680161238E0,9.279964447E0
7.454400540E0,1.483550072E-1,3.786043644E0,9.172885895E0
7.474510279E0,3.906283081E-1,3.890131474E0,8.934800148E0
7.494620071E0,4.193421602E-1,3.863810301E0,8.794819832E0
7.514729863E0,1.106680483E-1,3.774677753E0,9.032905579E0
7.534839654E0,-2.273181453E-2,3.767499208E0,9.467801094E0
7.554949394E0,8.255238086E-2,3.663411379E0,9.683753014E0
7.575059186E0,9.272187948E-2,3.586841106E0,9.628718376E0
7.595168977E0,2.087737769E-1,3.637688637E0,9.625727654E0
7.615278717E0,2.560320199E-1,3.702294827E0,9.754940033E0
7.635388509E0,2.751746178E-1,3.870988846E0,9.988838196E0
7.655498300E0,6.795616150E-1,3.984049797E0,9.440283775E0
7.675608040E0,1.056431174E0,3.974478483E0,8.670990944E0
7.695717832E0,7.262216806E-1,3.775275946E0,8.123034477E0
7.715827623E0,3.565305769E-1,4.182055950E0,7.676773071E0
7.735937415E0,-1.992024779E-1,4.190430641E0,8.511868477E0
7.756047154E0,-3.529413417E-2,3.825525284E0,9.253045082E0
7.776156946E0,3.086741269E-1,3.932005882E0,9.659226418E0
7.796266738E0,4.809573591E-1,4.089334011E0,9.752547264E0
7.816376477E0,2.243271172E-1,4.045066833E0,9.099306107E0
7.836486269E0,-1.268195957E-1,4.031906128E0,8.673383713E0
7.856596061E0,-4.785645381E-2,4.113860130E0,8.623732567E0
7.876705852E0,-8.973085321E-3,4.033700943E0,8.824131966E0
7.896815592E0,2.644068897E-1,3.725026608E0,9.244669914E0
7.916925384E0,3.188436031E-1,3.818346739E0,9.328418732E0
7.937035175E0,-1.992024779E-1,4.092324734E0,9.105288506E0
7.957144915E0,-5.688936114E-1,4.058227062E0,9.046664238E0
7.977254707E0,-3.972085714E-1,3.932005882E0,8.914461136E0
7.997364498E0,-9.272187948E-2,4.057030678E0,8.778069496E0
8.017474290E0,-4.402793646E-1,3.772883177E0,9.519247055E0
8.037584029E0,-1.890329868E-1,3.593421459E0,9.816555023E0
8.057693821E0,6.520441920E-2,3.924827337E0,9.403793335E0
8.077803613E0,-1.615155339E-1,4.107878208E0,8.740383148E0
8.097913352E0,2.093719877E-2,3.939184189E0,8.982656479E0
8.118023144E0,-7.836493850E-2,3.967299938E0,9.358329773E0
8.138132936E0,-5.491527915E-1,3.933800459E0,9.259625435E0
8.158242727E0,-6.753742099E-1,3.819543123E0,8.901898384E0
8.178352467E0,-1.615155339E-1,3.604189157E0,9.171091080E0
8.198462259E0,-6.281159073E-2,3.651447296E0,9.729815483E0
8.218572050E0,3.798605800E-1,3.516851187E0,9.795019150E0
8.238681790E0,-4.839483798E-1,4.260420799E0,9.076574326E0
8.258791582E0,-2.297109663E-1,3.972683907E0,8.739784241E0
8.278901373E0,0.000000000E0,3.776472330E0,8.925228119E0
8.299011165E0,-3.170489967E-1,4.043272018E0,8.839086533E0
8.319120904E0,-4.259224236E-1,3.996612072E0,8.563912392E0
8.339230696E0,-1.950150430E-1,3.847060680E0,8.833703041E0
8.359340488E0,-1.758724600E-1,3.970290899E0,9.226125717E0
8.379450279E0,-2.027917206E-1,3.949353695E0,9.090931892E0
8.399560019E0,-1.872383654E-1,3.915854216E0,8.860024452E0
8.419669811E0,-2.422732860E-1,3.929014683E0,8.805587769E0
8.439779602E0,-2.835494876E-1,3.858426571E0,8.761320114E0
8.459889342E0,-3.499503136E-1,3.690928936E0,9.116056442E0
8.479999134E0,-1.538584948E0,3.492922783E0,1.082273674E1
8.500108925E0,1.519442350E-1,3.784249067E0,9.343374252E0
8.520218717E0,4.887340367E-1,4.063013077E0,8.477172852E0
8.540328457E0,3.702892959E-1,4.040280819E0,8.047660828E0
8.560438248E0,2.512463629E-1,3.916452408E0,8.585447311E0
8.580548040E0,1.477568001E-1,3.886542082E0,9.122037888E0
8.600657832E0,-3.349951655E-2,3.801596880E0,9.340383530E0
8.620767571E0,-1.585244983E-1,3.703491211E0,9.343972206E0
8.640877363E0,-1.304088384E-1,3.789632797E0,9.229117393E0
8.660987154E0,-2.093719877E-2,3.954737663E0,9.002396584E0
8.681096894E0,1.016949639E-1,3.975076675E0,9.145368576E0
8.701206686E0,4.576273263E-1,3.756731510E0,9.617352486E0
8.721316477E0,4.701896608E-1,3.749552965E0,1.018983555E1
8.741426269E0,3.320041299E-1,3.887140274E0,1.020120144E1
8.761536009E0,-1.914258152E-1,3.907479286E0,9.682557106E0
8.781645800E0,-4.618147612E-1,3.902095556E0,9.334401131E0
8.801755592E0,-1.746760458E-1,3.930211306E0,9.323035240E0
8.821865384E0,-1.046859920E-1,3.830310822E0,9.279366493E0
8.841975123E0,-1.274178028E-1,3.684946775E0,9.117252350E0
8.862084915E0,-4.067798555E-1,3.701098442E0,9.189037323E0
8.882194707E0,-6.562315822E-1,3.580859184E0,9.282357216E0
8.902304498E0,-6.711867452E-1,3.392424345E0,9.078369141E0
8.922414238E0,-4.558327198E-1,3.378067255E0,8.909076691E0
8.942524029E0,-2.745763958E-1,3.491726398E0,8.824131966E0
8.962633821E0,-1.818545163E-1,3.583850145E0,8.680562019E0
8.982743561E0,-3.738785386E-1,3.766901016E0,8.437092781E0
9.002853352E0,-2.321037948E-1,3.833899975E0,8.303094864E0
9.022963144E0,4.067798331E-2,3.831507206E0,8.423932076E0
9.043072936E0,3.032902777E-1,3.799802303E0,9.218349457E0
9.063182675E0,7.423732281E-1,3.600001574E0,1.014496994E1
9.083292467E0,2.003988922E-1,4.047459602E0,9.365508080E0
9.103402259E0,-2.099701911E-1,3.890131474E0,8.919246674E0
9.123512050E0,-3.924229145E-1,3.885345697E0,9.089137077E0
9.143621790E0,-4.689932466E-1,3.833301783E0,9.673583984E0
9.163731582E0,-3.062812984E-1,3.836891174E0,9.736993790E0
9.183841373E0,-1.232303679E-1,3.784249067E0,9.441479683E0
9.203951165E0,-5.443671346E-2,3.791427374E0,9.320642471E0
9.224060957E0,-6.101697683E-2,3.730410576E0,9.350552559E0
9.244170696E0,-1.016949583E-2,3.713062525E0,9.299705505E0
9.264280488E0,1.597209126E-1,3.762115479E0,8.894122124E0
9.284390279E0,-1.190429255E-1,3.725624800E0,8.871390343E0
9.304500019E0,-4.528416991E-1,3.610769272E0,9.143573761E0
9.324609811E0,-5.641079545E-1,3.652643681E0,9.784252167E0
9.344719602E0,-3.433700502E-1,3.644867182E0,9.932008743E0
9.364829394E0,-1.848455518E-1,3.618546009E0,9.378069878E0
9.384939134E0,-1.082752272E-1,3.716651678E0,8.757132530E0
9.405048925E0,3.529413417E-2,3.813561201E0,8.526225090E0
9.425158717E0,9.451649338E-2,3.835096598E0,8.717052460E0
9.445268509E0,4.785645381E-2,3.833301783E0,8.915657043E0
9.465378248E0,9.990034252E-2,3.786043644E0,8.903095245E0
9.485488040E0,1.375873089E-1,3.742972851E0,8.951549530E0
9.505597832E0,6.939185411E-2,3.701696634E0,9.213563919E0
9.525707623E0,-3.230310604E-2,3.646063566E0,9.576076508E0
9.545817363E0,-1.507478207E-1,3.623929977E0,9.599406242E0
9.565927154E0,-3.302095234E-1,3.632902861E0,9.358927727E0
9.586036946E0,-3.391826153E-1,3.637688637E0,9.150752068E0
9.606146738E0,-2.638086975E-1,3.636492252E0,9.189037323E0
9.626256477E0,-2.111666054E-1,3.620340586E0,9.305088997E0
9.646366269E0,-2.045863420E-1,3.626920938E0,9.398408890E0
9.666476061E0,-1.872383654E-1,3.629911900E0,9.486345291E0
9.686585852E0,-2.075773627E-1,3.581457376E0,9.448657990E0
9.706695644E0,-1.950150430E-1,3.561716557E0,9.250054359E0
9.726805384E0,-1.812563092E-1,3.544368505E0,9.278169632E0
9.746915175E0,-1.902294010E-1,3.529413462E0,9.445069313E0
9.767024967E0,-2.105683982E-1,3.503690481E0,9.450452805E0
9.787134759E0,-1.722832322E-1,3.518047571E0,9.258428574E0
9.807244498E0,-1.010967568E-1,3.592225075E0,8.994022369E0
9.827354290E0,-3.529413417E-2,3.561118364E0,8.906085968E0
9.847464082E0,-7.417750359E-2,3.515654564E0,9.079565048E0
9.867573873E0,-1.226321608E-1,3.562314749E0,9.059226990E0
9.887683613E0,-1.495514214E-1,3.578466177E0,9.046066284E0
9.907793404E0,-2.171486616E-1,3.437887907E0,9.420542717E0
9.927903196E0,-2.805584669E-1,3.416950703E0,9.769894600E0
9.948012988E0,-1.417747438E-1,3.541975737E0,9.704092026E0
9.968122727E0,4.187439680E-1,3.765704632E0,9.706484795E0
9.988232519E0,2.913261652E-1,3.643670797E0,9.474979401E0
1.000834231E1,-3.074777126E-1,3.422334671E0,8.998209953E0
1.002845210E1,-9.272187948E-1,3.366701365E0,9.123832703E0
1.004856189E1,-8.440681696E-1,3.309871912E0,9.661619186E0
1.006867163E1,-3.762713671E-1,3.307479143E0,9.330213547E0
1.008878142E1,-1.716850251E-1,3.472583771E0,9.121439934E0
1.010889122E1,-9.152546525E-2,3.518047571E0,9.298508644E0
1.012900101E1,-3.122633696E-1,3.515654564E0,9.228518486E0
1.014911075E1,-5.353940725E-1,3.443271875E0,8.863613129E0
1.016922054E1,-6.574280262E-1,3.440280676E0,8.729615211E0
1.018933033E1,-7.944171429E-1,3.382254839E0,8.819944382E0
1.020944012E1,-9.212366939E-1,3.309871912E0,8.989834785E0
1.022954986E1,-8.488538265E-1,3.250051260E0,9.182456970E0
1.024965965E1,-2.458625287E-1,3.620938778E0,8.967103004E0
1.026976945E1,-7.776673418E-3,3.750749588E0,8.740383148E0
1.028987924E1,-1.064806059E-1,3.654438496E0,8.881559372E0
1.030998898E1,-1.884347796E-1,3.579662561E0,9.648459435E0
1.033009877E1,-4.019941986E-1,3.572484255E0,9.866804123E0
1.035020856E1,-5.192425251E-1,3.510869026E0,9.415159225E0
1.037031835E1,-4.438686073E-1,3.526422262E0,9.218349457E0
1.039042814E1,-3.092723191E-1,3.516252756E0,9.455837250E0
1.041053788E1,-2.620140910E-1,3.456432343E0,9.677172661E0
1.043064768E1,-3.314059377E-1,3.398406267E0,9.634101868E0
1.045075747E1,-4.462614357E-1,3.367299557E0,9.564710617E0
1.047086726E1,-5.862415433E-1,3.433102369E0,9.764511108E0
1.049097705E1,-4.887340367E-1,3.504886866E0,9.696315765E0
1.051108679E1,-3.888336718E-1,3.432504177E0,9.413364410E0
1.053119658E1,-3.846462369E-1,3.405584812E0,9.250652313E0
1.055130637E1,-3.894318938E-1,3.480360508E0,9.185447693E0
1.057141616E1,-4.013960063E-1,3.530011654E0,9.069396019E0
1.059152590E1,-4.863412082E-1,3.535395384E0,9.023334503E0
1.061163570E1,-3.912265003E-1,3.550350666E0,9.110074043E0
1.063174549E1,-1.836491376E-1,3.595216036E0,9.157930374E0
1.065185528E1,-8.793623000E-2,3.594617844E0,9.103493690E0
1.067196502E1,-9.990034252E-2,3.605983734E0,8.897710800E0
1.069207481E1,-1.525424421E-1,3.570689678E0,8.774480820E0
1.071218460E1,-1.812563092E-1,3.595814228E0,8.857631683E0
1.073229439E1,-1.758724600E-1,3.626920938E0,8.933005333E0
1.075240419E1,-1.130608693E-1,3.647858143E0,8.923434258E0
1.077251392E1,-7.716853172E-2,3.653241873E0,9.005388260E0
1.079262372E1,7.118647546E-2,3.672384501E0,8.980263710E0
1.081273351E1,1.411765367E-1,3.714258909E0,9.029315948E0
1.083284330E1,2.033899277E-1,3.740580082E0,9.201001167E0
1.085295304E1,2.494517565E-1,3.833899975E0,9.311071396E0
1.087306283E1,3.002992272E-1,3.966103554E0,9.312267303E0
1.089317291E1,3.511467278E-1,4.062414646E0,9.290732384E0
1.091328270E1,3.918247223E-1,4.162314892E0,9.303294182E0
1.093339250E1,4.839483798E-1,4.211368084E0,9.410971642E0
1.095350224E1,7.381857634E-1,4.269991875E0,9.361918449E0
1.097361203E1,9.367900491E-1,4.357329845E0,9.136993408E0
1.099372182E1,9.170492887E-1,4.469194412E0,9.028717995E0
1.101383161E1,7.776673436E-1,4.499702930E0,8.924032211E0
1.103394135E1,4.749752879E-1,4.353142738E0,8.437092781E0
1.105405114E1,1.615155302E-2,4.503890514E0,8.624929428E0
1.107416093E1,-2.500499785E-1,4.399802685E0,9.068199158E0
1.109427073E1,-1.525424421E-1,4.322035789E0,8.519046783E0
1.111438052E1,1.447657645E-1,4.456632137E0,8.446663857E0
1.113449026E1,1.256231815E-1,4.603192329E0,9.047262192E0
1.115460005E1,-1.812563092E-1,4.551746845E0,9.377471924E0
1.117470984E1,-4.839483798E-1,4.451846600E0,9.080163956E0
1.119481963E1,-4.438686073E-1,4.465605259E0,8.755337715E0
1.121492942E1,-1.657029688E-1,4.607379913E0,8.618349075E0
1.123503916E1,-4.785645287E-3,4.705485821E0,8.603992462E0
1.125514896E1,-3.290131316E-2,4.747360229E0,8.529814720E0
1.127525875E1,-1.567298770E-1,4.785047054E0,8.436494827E0
1.129536854E1,-2.213360965E-1,4.818546772E0,8.488538742E0
1.131547828E1,-2.590230405E-1,4.825725079E0,8.385048866E0
1.133558807E1,-3.266202807E-1,4.957330227E0,8.232506752E0
1.135569786E1,-2.817548811E-1,5.178068161E0,8.190631866E0
1.137580765E1,-1.513460279E-1,5.311468124E0,8.420342445E0
1.139591744E1,-3.409772366E-2,5.246263504E0,8.886942863E0
1.141602718E1,1.208375469E-1,5.020142078E0,9.421140671E0
1.143613698E1,2.135594189E-1,4.789234638E0,9.881759644E0
1.145624677E1,4.307080805E-2,4.689932346E0,1.009651470E1
1.147635656E1,-2.446661144E-1,4.690530777E0,9.825528145E0
1.149646630E1,-3.589234054E-1,4.672584534E0,9.293723106E0
1.151657609E1,-2.470589429E-1,4.682155609E0,8.970093727E0
1.153668588E1,-7.836493850E-2,4.755734921E0,8.836693764E0
1.155679567E1,-7.657032460E-2,4.849055290E0,8.724829674E0
1.157690547E1,-1.166501045E-1,4.906482697E0,8.769695282E0
1.159701520E1,-1.435693651E-1,5.052444935E0,8.900702477E0
1.161712500E1,-4.301098585E-1,5.362913609E0,8.785846710E0
1.163723479E1,-9.391828626E-2,4.560719967E0,9.696315765E0
1.165734458E1,5.455635786E-1,3.417548895E0,1.221236897E1
1.167745432E1,6.879364848E-1,2.954537868E0,1.390529060E1
1.169756411E1,2.261217386E-1,2.684148788E0,1.300558949E1
1.171767390E1,-2.673979402E-1,2.599801779E0,1.126660538E1
1.173778369E1,9.990034252E-2,2.230110645E0,1.087537861E1
1.175789349E1,5.264210105E-1,1.741376638E0,1.169851017E1
1.177800323E1,1.244267747E-1,1.651645780E0,1.170509052E1
1.179811302E1,-6.071787477E-1,1.974676847E0,1.005224800E1
1.181822281E1,-9.068797827E-1,2.622533560E0,7.940581799E0
1.183833260E1,-6.711867452E-1,3.192623615E0,6.418746948E0
1.185844239E1,1.154536903E-1,3.409173965E0,6.195616245E0
1.187855213E1,7.238288522E-1,3.208176851E0,7.052844524E0
1.189866192E1,3.708875179E-1,3.102892876E0,7.871788502E0
1.191877172E1,-6.251249313E-1,3.120240688E0,7.989036560E0
1.193888151E1,-1.101296663E0,3.251247883E0,7.572087288E0
1.195899125E1,-7.166503668E-1,3.596412420E0,7.101299286E0
1.197910104E1,-2.793620527E-1,3.967898130E0,6.854838848E0
1.199921083E1,-1.118644550E-1,4.042674065E0,6.934998035E0
1.201932062E1,-8.075776696E-2,4.137190342E0,7.292725086E0
1.203943041E1,-2.991028363E-3,4.421338081E0,7.555337429E0
1.205954015E1,6.161518395E-2,4.601995945E0,7.445865631E0
1.207964994E1,5.383851007E-2,4.762913704E0,7.437490940E0
1.209975974E1,7.178468257E-2,4.861617565E0,7.763513088E0
1.211986953E1,1.196411322E-3,4.859822750E0,8.117053032E0
1.213997927E1,-2.751746178E-1,4.936393261E0,8.475975990E0
1.216008906E1,-3.643072546E-1,5.021936417E0,8.996415138E0
1.218019885E1,-1.932204217E-1,5.079962254E0,9.599406242E0
1.220030864E1,-1.627119333E-1,5.285147190E0,1.012881851E1
1.222041843E1,-8.195417374E-2,5.364708424E0,1.020120144E1
1.224052817E1,2.614158690E-1,5.248656273E0,1.005882835E1
1.226063796E1,7.513462901E-1,4.978865623E0,1.019880867E1
1.228074776E1,1.170688510E0,4.452444553E0,1.073480034E1
1.230085755E1,8.679963946E-1,4.730011940E0,1.065882874E1
1.232096729E1,9.523434043E-1,4.449453831E0,1.032981491E1
1.234107708E1,2.333002090E0,2.838485956E0,1.120439243E1
1.236118687E1,1.980658889E0,3.336193085E0,1.114397335E1
1.238129666E1,3.876372576E-1,4.473979950E0,9.157930374E0
1.240140646E1,6.155536175E-1,4.280759811E0,7.629515171E0
1.242151619E1,2.127219439E0,3.512663603E0,8.683553696E0
1.244162599E1,3.382254839E0,2.535195589E0,1.237328625E1
1.246173578E1,2.701496840E0,1.986042738E0,1.499342632E1
1.248184557E1,9.774680734E-1,1.853839397E0,1.360558987E1
1.250195531E1,3.649054468E-2,2.201995134E0,1.018923664E1
1.252206510E1,1.860419661E-1,2.583052158E0,8.227720261E0
1.254217489E1,8.231309652E-1,2.889333248E0,8.401798248E0
1.256228468E1,8.943174481E-1,3.199203968E0,8.209176064E0
1.258239448E1,5.688936114E-1,3.372085333E0,6.762116909E0
1.260250422E1,2.057827413E-1,3.443870068E0,5.391627789E0
1.262261401E1,6.580262445E-3,3.514458179E0,5.114658356E0
1.264272380E1,-6.999006122E-2,3.524029493E0,5.909673691E0
1.266283359E1,-3.720839322E-1,3.459423304E0,6.821339130E0
1.268294338E1,-7.334001660E-1,3.553939819E0,7.284948349E0
1.270305312E1,-7.555337548E-1,3.806980848E0,7.414160728E0
1.272316291E1,-3.212364316E-1,4.018745422E0,7.597211838E0
1.274327270E1,9.152546525E-2,4.165306091E0,8.090133667E0
1.276338250E1,4.151547253E-1,4.237090588E0,9.114261627E0
1.278349224E1,4.133601189E-1,4.405784607E0,9.754940033E0
1.280360203E1,1.854437590E-2,4.759922504E0,9.302696228E0
1.282371182E1,-3.433700502E-1,4.977669239E0,8.331210136E0
1.284382161E1,-5.635097623E-1,5.201398373E0,8.062017441E0
1.286393140E1,-5.276173949E-1,5.312066078E0,8.727222443E0
1.288404114E1,-3.188436031E-1,5.215157032E0,9.556335449E0
1.290415093E1,-2.279163599E-1,5.161318302E0,1.015334511E1
1.292426073E1,-1.639083475E-1,4.990231514E0,1.050867844E1
1.294437052E1,-8.051848412E-1,5.300700188E0,1.038724327E1
1.296448026E1,-1.094118118E0,5.118845940E0,1.077308559E1
1.298459005E1,-4.905286431E-2,3.872185230E0,1.237508011E1
1.300469984E1,5.910272002E-1,3.379862070E0,1.332203960E1
1.302480963E1,-1.214357466E-1,3.436691523E0,1.206341553E1
1.304491942E1,-6.999006271E-1,3.287738323E0,9.876974106E0
1.306502916E1,-5.772684813E-1,2.833101988E0,9.457631111E0
1.308513896E1,1.621137410E-1,2.071586132E0,1.149571800E1
1.310524875E1,3.152543902E-1,1.651047587E0,1.341655636E1
1.312535854E1,-1.202393398E-1,1.594816327E0,1.274477196E1
1.314546828E1,-4.181457460E-1,1.923231244E0,1.018804073E1
1.316557807E1,-2.632105052E-1,2.256431818E0,7.761120319E0
1.318568786E1,-1.519442350E-1,2.519043922E0,6.256034851E0
1.320579765E1,-1.663011760E-1,2.691327333E0,5.965306759E0
1.322590744E1,-1.830509305E-1,2.602194548E0,6.424728870E0
1.324601718E1,-1.806581169E-1,2.593819857E0,6.902695179E0
1.326612698E1,-1.333998591E-1,2.848655462E0,6.993024349E0
1.328623677E1,-3.529413417E-2,3.108276606E0,6.792026997E0
1.330634656E1,1.806581169E-1,3.298506021E0,6.541378975E0
1.332645630E1,4.079762697E-1,3.457030535E0,6.631109715E0
1.334656609E1,4.426721931E-1,3.580260992E0,7.082156658E0
1.336667588E1,2.189432681E-1,3.805784464E0,7.725826263E0
1.338678567E1,2.931207791E-2,3.982853174E0,8.195417404E0
1.340689547E1,-7.776673418E-3,4.105485439E0,8.440083504E0
1.342700520E1,1.806581169E-1,4.116253376E0,8.660821915E0
1.344711500E1,3.649054468E-1,4.240081787E0,9.116654396E0
1.346722479E1,2.398804724E-1,4.621138573E0,9.652647018E0
1.348733458E1,-1.160518974E-1,4.973481655E0,9.787840843E0
1.350744432E1,-1.668993831E-1,5.274379253E0,9.664012909E0
1.352755411E1,2.931207716E-1,5.325226784E0,9.795618057E0
1.354766390E1,9.990034699E-1,5.012963295E0,1.031904793E1
1.356777369E1,1.158126116E0,5.011766911E0,1.109910774E1
1.358788343E1,6.323033571E-1,5.403591633E0,1.161057377E1
1.360799323E1,1.970489502E0,4.298706055E0,1.206939697E1
1.362810302E1,3.397808075E0,3.247060299E0,1.330469227E1
1.364821281E1,2.477767944E0,2.875574589E0,1.373480225E1
1.366832260E1,8.321040869E-1,2.067398787E0,1.219741344E1
1.368843234E1,-1.016949583E-2,1.474576950E0,1.076590729E1
1.370854213E1,-3.122633696E-1,1.699502230E0,1.061456108E1
1.372865192E1,2.321037948E-1,2.107478619E0,1.033220863E1
1.374876172E1,1.362712502E0,2.383849621E0,9.468997002E0
1.376887146E1,2.047059774E0,2.479562521E0,9.023334503E0
1.378898125E1,1.466202021E0,2.435295343E0,9.358329773E0
1.380909104E1,1.764706671E-1,2.209771633E0,9.567701340E0
1.382920083E1,-6.795616150E-1,2.111665964E0,9.028120041E0
1.384931062E1,-9.493523836E-1,2.329412937E0,8.096714020E0
1.386942036E1,-4.630111754E-1,2.673979282E0,7.326224804E0
1.388953015E1,1.310070455E-1,2.912065268E0,6.963113785E0
1.390963994E1,3.649054468E-1,3.103491068E0,6.674778938E0
1.392974974E1,1.238285750E-1,3.251846075E0,6.537191391E0
1.394985948E1,-2.685943544E-1,3.250649452E0,6.585047722E0
1.396996927E1,-5.120640397E-1,3.238087177E0,6.553941250E0
1.399007906E1,-4.576273263E-1,3.374478102E0,6.576074600E0
1.401018885E1,-8.554340899E-2,3.610769272E0,6.841079712E0
1.403029859E1,3.068794906E-1,3.758526087E0,7.474579811E0
1.405040838E1,2.554338276E-1,3.882952929E0,8.365905762E0
1.407051817E1,-1.974078640E-2,4.152145386E0,9.011968613E0
1.409062797E1,-2.075773627E-1,4.497310162E0,8.932407379E0
1.411073770E1,8.374879137E-3,4.721039295E0,8.704490662E0
1.413084750E1,2.584248483E-1,4.834099770E0,9.140582085E0
1.415095729E1,4.671986103E-1,4.902295589E0,9.999007225E0
1.417106708E1,4.336991012E-1,5.084149837E0,1.061216831E1
1.419117687E1,1.800599098E-1,5.268995285E0,1.075334454E1
1.421128661E1,-4.420739710E-1,5.504688263E0,1.070548820E1
1.423139640E1,-7.866404653E-1,5.336592674E0,1.147418308E1
1.425150619E1,-6.759724021E-2,4.134797573E0,1.386341572E1
1.427161599E1,1.430309772E0,1.878365755E0,1.705544090E1
1.429172573E1,1.430907965E0,7.848458290E-1,1.725165367E1
1.431183552E1,5.563312769E-2,1.459023595E0,1.315813160E1
1.433194531E1,-9.864411354E-1,2.243271112E0,8.383254051E0
1.435205510E1,-1.182652593E0,2.605783939E0,6.224927902E0
1.437216484E1,-6.454638839E-1,2.794816732E0,7.484150887E0
1.439227463E1,1.555334684E-2,2.775674343E0,9.546764374E0
1.441238442E1,-6.699903309E-2,2.818745136E0,9.687342644E0
1.443249422E1,-4.432703853E-1,2.791227579E0,8.508278847E0
1.445260396E1,-4.965106845E-1,2.589632273E0,8.234899521E0
1.447271375E1,-3.661018610E-1,2.385046005E0,8.698508263E0
1.449282354E1,-4.815555513E-1,2.332403898E0,8.814560890E0
1.451293333E1,-5.198407173E-1,2.347358942E0,8.434102058E0
1.453304307E1,-4.151547253E-1,2.539981127E0,7.829914093E0
1.455315286E1,-1.244267747E-1,2.877369165E0,7.223333359E0
1.457326265E1,1.698904037E-1,3.070589542E0,6.728019238E0
1.459337244E1,2.667997181E-1,3.201596737E0,6.291927338E0
1.461348224E1,2.775674164E-1,3.451646566E0,6.722635269E0
1.463359198E1,2.638086975E-1,3.836292982E0,7.619345665E0
1.465370177E1,1.758724600E-1,4.131208420E0,7.904689789E0
1.467381156E1,2.051845491E-1,4.146163464E0,7.697710514E0
1.469392135E1,4.660021961E-1,4.156332970E0,7.935796261E0
1.471403109E1,7.166503668E-1,4.323830605E0,8.679964066E0
1.473414088E1,5.958128572E-1,4.622933388E0,9.257232666E0
1.475425067E1,3.134597540E-1,4.952544689E0,8.924630165E0
1.477436046E1,3.266202807E-1,5.053641319E0,8.408378601E0
1.479447021E1,6.723831892E-1,5.066802025E0,8.915657043E0
1.481458000E1,1.099501967E0,4.876572609E0,1.011266708E1
1.483468979E1,1.381855130E0,4.263411522E0,1.148794174E1
1.485479958E1,5.240281820E-1,4.702494621E0,1.195813084E1
1.487490932E1,-7.716853172E-2,5.207380295E0,1.075633621E1
1.489501911E1,2.407179594E0,3.803391695E0,1.016052341E1
1.491512890E1,4.220340729E0,2.953341246E0,1.192822075E1
1.493523869E1,3.661018610E0,2.746362209E0,1.339621735E1
1.495534843E1,1.648056626E0,2.065604210E0,1.277288723E1
1.497545823E1,5.258227587E-1,1.551745534E0,1.200359440E1
1.499556802E1,7.298108935E-1,1.438086390E0,1.158305645E1
1.501567781E1,1.057029366E0,1.747956991E0,1.118943691E1
1.503578755E1,9.559326172E-1,2.431705952E0,9.703494072E0
1.505589734E1,5.024927258E-1,2.963510752E0,8.100302696E0
1.507600713E1,2.386840582E-1,2.873181820E0,7.503293514E0
1.509611692E1,-1.704886109E-1,2.716451883E0,7.771289825E0
1.511622666E1,-4.253242314E-1,2.593819857E0,7.910073280E0
1.513633646E1,-4.713860750E-1,2.568096876E0,7.532605648E0
1.515644625E1,-3.517449200E-1,2.732603550E0,6.976872444E0
1.517655604E1,-2.733799815E-1,3.065205812E0,6.495915413E0
1.519666578E1,-2.638086975E-1,3.282952785E0,6.157928944E0
1.521677557E1,-2.213360965E-1,3.246462107E0,6.409773827E0
1.523688536E1,-1.148554832E-1,3.077768087E0,7.161119938E0
1.525699515E1,-6.580262631E-2,3.108276606E0,7.858029366E0
1.527710494E1,-2.470589429E-1,3.260220766E0,7.837092400E0
1.529721468E1,-4.486542344E-1,3.578466177E0,7.179664135E0
1.531732448E1,-3.720839322E-1,3.965505362E0,6.934400082E0
1.533743427E1,-1.088734269E-1,4.168296814E0,7.490133286E0
1.535754401E1,-1.256231871E-2,4.330410957E0,8.122436523E0
1.537765380E1,1.136590727E-2,4.630710125E0,8.417351723E0
1.539776359E1,1.854437590E-2,4.682155609E0,8.921041489E0
1.541787338E1,1.046859920E-1,4.386641979E0,1.031426239E1
1.543798312E1,2.662015259E-1,4.290929317E0,1.219801140E1
1.545809291E1,-2.691925503E-2,4.767699242E0,1.291526031E1
1.547820271E1,-1.746760458E-1,4.643272400E0,1.279741383E1
1.549831250E1,2.123630047E-1,4.228117466E0,1.317428303E1
1.551842229E1,1.836491376E-1,4.326223373E0,1.376471233E1
1.553853203E1,8.207381964E-1,2.765504837E0,1.434317684E1
1.555864182E1,1.095912814E0,1.247258782E0,1.499103355E1
1.557875161E1,-1.345962733E-1,1.172483087E0,1.416072464E1
1.559886140E1,-1.298704505E0,1.496710539E0,1.148853970E1
1.561897114E1,-1.634297848E0,1.828714728E0,9.115457535E0
1.563908093E1,-9.062815905E-1,2.179861546E0,8.510073662E0
1.565919073E1,2.398804724E-1,2.164308071E0,8.897112846E0
1.567930052E1,6.203392744E-1,1.995614052E0,8.663214684E0
1.569941026E1,1.471585929E-1,1.959123492E0,7.860422611E0
1.571952005E1,-6.263213158E-1,1.905883193E0,7.588238716E0
1.573962984E1,-8.165507317E-1,1.783251047E0,7.850851059E0
1.575973963E1,-7.058826685E-1,1.801197290E0,7.896314621E0
1.577984937E1,-4.773681164E-1,2.041675806E0,7.545167923E0
1.579995916E1,-2.303091735E-1,2.409572363E0,7.037291527E0
1.582006896E1,-8.853443712E-2,2.772683144E0,6.429514408E0
1.584017875E1,-7.657032460E-2,3.043072224E0,6.190830231E0
1.586028849E1,-1.226321608E-1,3.154338360E0,6.741777897E0
1.588039828E1,-2.398804724E-1,3.168695450E0,7.682157040E0
1.590050807E1,-4.510470629E-1,3.341576815E0,8.180462837E0
1.592061781E1,-6.233302951E-1,3.573082447E0,8.197810173E0
1.594072760E1,-5.958128572E-1,3.731606960E0,8.139784813E0
1.596083739E1,-3.146561682E-1,3.836891174E0,8.525627136E0
1.598094718E1,-5.563312769E-2,3.920639992E0,9.051449776E0
1.600105692E1,-1.645065546E-1,3.988835335E0,9.434899330E0
1.602116672E1,-3.655036688E-1,4.198207378E0,9.683753014E0
1.604127651E1,-1.130608693E-1,4.259224415E0,9.934999466E0
1.606138630E1,6.227321029E-1,4.176073551E0,1.063370419E1
1.608149604E1,1.287936807E0,3.987040758E0,1.202333546E1
1.610160583E1,1.350150228E0,4.379463673E0,1.250369453E1
1.612171562E1,9.954141974E-1,4.604987144E0,1.134317589E1
1.614182541E1,1.576870084E0,4.249652863E0,1.083888817E1
1.616193515E1,2.182852507E0,3.868596077E0,1.158544922E1
1.618204494E1,3.077768087E0,1.881356835E0,1.351526070E1
1.620215474E1,1.712662816E0,1.363908887E0,1.467817211E1
1.622226453E1,-1.387837082E-1,1.746162295E0,1.337348557E1
1.624237427E1,-5.497509837E-1,1.888535261E0,1.093161011E1
1.626248406E1,7.459624410E-1,2.276770830E0,9.122636795E0
1.628259385E1,2.008176327E0,2.480160713E0,9.086744308E0
1.630270364E1,2.048854351E0,2.345564365E0,9.611370087E0
1.632281338E1,1.133001566E0,2.082952023E0,9.725627899E0
1.634292317E1,1.417747438E-1,1.889133453E0,9.538987160E0
1.636303297E1,-3.373879790E-1,1.927418590E0,8.984451294E0
1.638314276E1,-2.979064286E-1,2.294118643E0,7.718049526E0
1.640325250E1,5.204389244E-2,2.724228621E0,6.390631199E0
1.642336229E1,4.719842672E-1,3.034099102E0,5.775675774E0
1.644347208E1,5.928218365E-1,3.194418192E0,5.991627693E0
1.646358182E1,2.757728100E-1,3.175275564E0,6.494120598E0
1.648369161E1,8.733802289E-2,2.982653379E0,6.925426960E0
1.650380140E1,2.273181453E-2,2.995215654E0,7.331608772E0
1.652391119E1,1.016949583E-2,3.216551781E0,7.497311592E0
1.654402099E1,-2.991028363E-3,3.552145243E0,7.149155617E0
1.656413073E1,1.310070455E-1,3.845864296E0,6.874579430E0
1.658424052E1,4.277170599E-1,3.938585997E0,7.180860519E0
1.660435031E1,4.606183469E-1,4.069592953E0,7.765905857E0
1.662446010E1,1.423729509E-1,4.307080746E0,8.208578110E0
1.664456984E1,-1.627119333E-1,4.579264164E0,8.423334122E0
1.666467963E1,-2.009970993E-1,4.724628448E0,8.525029182E0
1.668478942E1,-2.333002165E-2,4.709673405E0,9.092127800E0
1.670489916E1,1.704886109E-1,4.518845558E0,1.018205833E1
1.672500896E1,3.032902777E-1,4.265804768E0,1.146042442E1
1.674511875E1,-6.436693072E-1,4.969892502E0,1.167517948E1
1.676522854E1,-1.268794179E0,4.735994339E0,1.172961617E1
1.678533828E1,-6.221339107E-1,4.002593994E0,1.345364571E1
1.680544807E1,2.087737769E-1,3.442075491E0,1.517169189E1
1.682555786E1,7.190431952E-1,2.148754835E0,1.617906952E1
1.684566765E1,-1.501496136E-1,2.094317913E0,1.491865063E1
1.686577739E1,-1.331007600E0,2.356930256E0,1.220877934E1
1.688588718E1,-1.509272933E0,2.063211441E0,1.073838997E1
1.690599698E1,-5.216353536E-1,1.939980984E0,1.099083233E1
1.692610672E1,7.088736892E-1,1.944766641E0,1.103809071E1
1.694621651E1,8.877372146E-1,1.984846354E0,9.766903877E0
1.696632630E1,4.456632137E-1,2.057229280E0,7.949554920E0
1.698643609E1,5.982056609E-4,2.194816589E0,6.491727829E0
1.700654588E1,-2.518445849E-1,2.327019930E0,5.388038158E0
1.702665562E1,-5.186443329E-1,2.504687071E0,4.853840828E0
1.704676541E1,-6.209374666E-1,2.691327333E0,4.873581409E0
1.706687521E1,-2.997010350E-1,2.945564747E0,5.382654667E0
1.708698500E1,2.781656384E-1,3.317648649E0,5.702694416E0
1.710709474E1,6.299105883E-1,3.524627686E0,6.005386829E0
1.712720453E1,6.394818425E-1,3.510270834E0,6.860222340E0
1.714731432E1,4.001995921E-1,3.479164124E0,7.994420528E0
1.716742406E1,3.888336942E-2,3.533600807E0,8.821140289E0
1.718753385E1,-1.633101404E-1,3.690330744E0,9.217751503E0
1.720764364E1,-3.649054468E-2,3.850649834E0,8.913862228E0
1.722775343E1,1.836491376E-1,4.104887009E0,8.262416840E0
1.724786317E1,2.578266263E-1,4.543970108E0,8.093124390E0
1.726797297E1,1.501496136E-1,4.879563808E0,8.341380119E0
1.728808276E1,1.872383654E-1,4.850849628E0,9.000602722E0
1.730819255E1,5.910272002E-1,4.553541660E0,9.984052658E0
1.732830229E1,5.814558864E-1,4.811367989E0,1.100040436E1
1.734841208E1,5.335994363E-1,5.186442852E0,1.161476135E1
1.736852187E1,1.680957913E0,4.097110748E0,1.218126202E1
1.738863161E1,1.962114573E0,4.467998028E0,1.221655560E1
1.740874140E1,1.841277003E0,3.719044685E0,1.187737370E1
1.742885119E1,2.322234392E0,1.158724308E0,1.280638695E1
1.744896099E1,1.241276741E0,2.817548811E-1,1.481037617E1
1.746907078E1,-9.804590940E-1,6.215356588E-1,1.468535042E1
1.748918052E1,-2.304288149E0,1.316650629E0,1.215853024E1
1.750929031E1,-1.141974568E0,1.908276081E0,9.408578873E0
1.752940010E1,1.787438512E0,2.368894339E0,8.298907280E0
1.754950984E1,4.207778454E0,2.620738983E0,8.949754715E0
1.756961963E1,4.388436794E0,2.715255499E0,9.772287369E0
1.758972942E1,1.986641049E0,2.471187592E0,9.284152031E0
1.760983922E1,-2.075773627E-1,2.045863390E0,8.219944000E0
1.762994896E1,-1.275374413E0,2.035095692E0,7.641479015E0
1.765005875E1,-1.241874933E0,2.473580360E0,7.179664135E0
1.767016854E1,-4.336991012E-1,2.890529871E0,6.610172749E0
1.769027833E1,1.908276081E-1,3.270988464E0,6.008377552E0
1.771038807E1,5.772684813E-1,3.482155085E0,5.644070625E0
1.773049786E1,6.263213158E-1,3.538984776E0,6.028716564E0
1.775060765E1,1.453639716E-1,3.422932863E0,7.165307522E0
1.777071744E1,-4.624129832E-1,3.311068296E0,7.944769382E0
1.779082718E1,-6.825526357E-1,3.476173162E0,7.960920811E0
1.781093698E1,-2.955136001E-1,3.671188116E0,7.755138397E0
1.783104677E1,1.854437590E-1,3.781856298E0,7.826324463E0
1.785115656E1,4.139583111E-1,3.912265062E0,8.352147102E0
1.787126630E1,3.314059377E-1,4.073780537E0,8.989834785E0
1.789137609E1,-1.986042857E-1,4.277170658E0,9.263813019E0
1.791148588E1,-5.778666735E-1,4.378267288E0,9.150752068E0
1.793159567E1,-4.935196638E-1,4.229912281E0,9.765109062E0
1.795170541E1,-1.304088384E-1,3.967898130E0,1.100100231E1
1.797181521E1,2.871387079E-2,3.874577999E0,1.194855976E1
1.799192500E1,-4.630111754E-1,4.290929317E0,1.150349522E1
1.801203479E1,-1.040877819E0,4.786841869E0,1.046441174E1
1.803214453E1,-1.178465188E-1,4.020540237E0,1.144128132E1
1.805225432E1,9.619147182E-1,2.884547710E0,1.475833225E1
1.807236411E1,1.036092162E0,2.419143677E0,1.744666862E1
1.809247390E1,3.266202807E-1,1.819741607E0,1.619223022E1
1.811258364E1,-3.200400174E-1,1.945963025E0,1.214477158E1
1.813269343E1,-3.032902777E-1,2.460419893E0,8.955139160E0
1.815280323E1,1.351944804E-1,2.626721144E0,8.586644173E0
1.817291302E1,8.225327730E-1,2.486142635E0,1.016530895E1
1.819302276E1,8.075776696E-1,2.321038008E0,1.063011456E1
1.821313255E1,3.122633696E-1,2.061416626E0,9.720243454E0
1.823324234E1,9.511470050E-2,1.916052699E0,8.816953659E0
1.825335213E1,-2.213360928E-2,2.002792597E0,7.976474285E0
1.827346187E1,-1.196411322E-3,2.161915302E0,7.091129780E0
1.829357166E1,1.393819153E-1,2.318645239E0,6.449853420E0
1.831368146E1,4.289134443E-1,2.593819857E0,6.243472576E0
1.833379125E1,8.530412912E-1,2.740380049E0,6.241079807E0
1.835390099E1,8.219345808E-1,2.894119024E0,6.187241077E0
1.837401078E1,3.284149170E-1,3.043072224E0,6.029314995E0
1.839412057E1,-1.345962733E-1,3.189632654E0,5.693721294E0
1.841423036E1,-4.624129832E-1,3.543770313E0,5.712265968E0
1.843434010E1,-2.793620527E-1,3.832703590E0,6.343372822E0
1.845444989E1,1.872383654E-1,4.061218262E0,7.267002583E0
1.847455968E1,5.204389095E-1,4.216153622E0,8.483752251E0
1.849466948E1,7.477570772E-1,4.372883320E0,9.605986595E0
1.851477922E1,4.205385745E-1,4.600201607E0,9.990633011E0
1.853488901E1,-7.597211748E-2,4.822135925E0,9.256634712E0
1.855499880E1,-7.537391037E-2,5.001597404E0,8.582456589E0
1.857510859E1,7.076773047E-1,4.887340069E0,9.129216194E0
1.859521838E1,1.418943882E0,4.595416069E0,1.031545830E1
1.861532812E1,1.607378602E0,4.245465755E0,1.152323532E1
1.863543791E1,8.823533654E-1,4.566103935E0,1.161655617E1
1.865554770E1,-5.443671346E-2,5.272584915E0,1.038365364E1
1.867565750E1,1.506281853E0,4.416552544E0,9.911071777E0
1.869576724E1,3.459423304E0,3.354139090E0,1.155793190E1
1.871587703E1,3.193820000E0,3.166900873E0,1.271067429E1
1.873598682E1,1.264606714E0,2.737987280E0,1.199641609E1
1.875609661E1,2.333002090E-1,2.008176327E0,1.172363472E1
1.877620635E1,9.260223508E-1,1.756929994E0,1.290030479E1
1.879631614E1,1.853241086E0,1.771286964E0,1.360319710E1
1.881642593E1,2.479562521E0,1.900499344E0,1.272084332E1
1.883653573E1,2.201396942E0,2.358724833E0,1.069711399E1
1.885664546E1,1.232901812E0,2.767897606E0,8.763114929E0
1.887675526E1,5.676971674E-1,2.705085993E0,7.506284714E0
1.889686505E1,-1.585244983E-1,2.735594511E0,6.684350014E0
1.891697484E1,-6.675975323E-1,2.769093990E0,6.242276192E0
1.893708458E1,-7.549355626E-1,2.723032236E0,6.259624004E0
1.895719437E1,-6.011967063E-1,2.770888567E0,6.415157318E0
1.897730416E1,-4.043870270E-1,2.886342287E0,6.583851337E0
1.899741396E1,-2.213360965E-1,2.996412039E0,7.034300327E0
1.901752375E1,-1.034895778E-1,3.126222849E0,7.177869797E0
1.903763349E1,-1.836491376E-1,3.245265722E0,7.037889481E0
1.905774328E1,-2.470589429E-1,3.288934708E0,6.949355125E0
1.907785307E1,-2.895315289E-1,3.336193085E0,7.068996429E0
1.909796286E1,-1.842473447E-1,3.400799274E0,7.109076023E0
1.911807265E1,-9.152546525E-2,3.630510092E0,7.112067223E0
1.913818239E1,-3.708875179E-2,3.781856298E0,7.277770042E0
1.915829218E1,-7.058826834E-2,3.982254982E0,7.730611801E0
1.917840198E1,-9.212367237E-2,4.217350006E0,8.341380119E0
1.919851177E1,6.999006122E-2,4.272983074E0,8.868997574E0
1.921862151E1,6.005984545E-1,4.311268330E0,9.537791252E0
1.923873130E1,1.523629785E0,4.313661098E0,1.095135117E1
1.925884109E1,1.365105271E0,4.889134884E0,1.254616737E1
1.927895088E1,1.854437590E-1,5.291129112E0,1.304267788E1
1.929906062E1,-2.093719840E-1,4.409972191E0,1.376770306E1
1.931917041E1,5.976074338E-1,2.853441000E0,1.603131294E1
1.933928020E1,1.122832060E0,2.272583246E0,1.759322929E1
1.935939000E1,7.776673883E-2,2.506481647E0,1.512084484E1
1.937949979E1,-1.104885817E0,2.565704107E0,1.152084255E1
1.939960953E1,-1.408774376E0,2.327618122E0,1.037587738E1
1.941971932E1,-8.859425783E-1,2.034497499E0,1.169970608E1
1.943982911E1,-3.780659735E-1,1.700100541E0,1.255035496E1
1.945993890E1,-5.258227587E-1,1.573879123E0,1.138564873E1
1.948004869E1,-5.359922647E-1,1.591227055E0,9.711270332E0
1.950015843E1,-1.453639716E-1,1.667797327E0,8.412566185E0
1.952026823E1,1.178465188E-1,1.830509305E0,7.248457909E0
1.954037802E1,1.471585929E-1,2.024926186E0,6.090332031E0
1.956048781E1,8.374879137E-3,2.213361025E0,5.251049519E0
1.958059760E1,-1.088734269E-1,2.414358139E0,5.301896572E0
1.960070734E1,-1.585244983E-1,2.536391973E0,5.816353798E0
1.962081713E1,-8.374879509E-2,2.606980324E0,6.013163090E0
1.964092692E1,7.058826834E-2,2.851646423E0,5.887540340E0
1.966103672E1,2.763710022E-1,3.096910715E0,5.833701611E0
1.968114651E1,4.253242314E-1,3.195614576E0,5.964708805E0
1.970125625E1,4.283152521E-1,3.376272678E0,6.584449768E0
1.972136604E1,3.230310678E-1,3.661616802E0,7.305287361E0
1.974147583E1,2.925225794E-1,3.885943890E0,7.791628838E0
1.976158562E1,4.588237405E-1,4.152743816E0,8.274380684E0
1.978169541E1,6.317051649E-1,4.377668858E0,8.956335068E0
1.980180515E1,6.424728632E-1,4.673182487E0,9.418747902E0
1.982191494E1,6.269195080E-1,4.886742115E0,9.477970123E0
1.984202474E1,9.332008362E-1,4.889732838E0,9.694520950E0
1.986213453E1,1.698904037E0,4.671388149E0,1.040877819E1
1.988224432E1,2.298904419E0,4.216153622E0,1.164168072E1
1.990235406E1,1.719243050E0,4.378267288E0,1.227039433E1
1.992246385E1,1.044467092E0,4.730610371E0,1.153400326E1
1.994257364E1,1.450648785E0,4.685146809E0,1.053380394E1
1.996268343E1,2.164308071E0,4.339384079E0,9.997213364E0
1.998279323E1,3.751347780E0,2.817548752E0,1.126660538E1
2.000290302E1,3.589832067E0,1.997408748E0,1.280519009E1
2.002301276E1,1.380658627E0,1.694118381E0,1.364267826E1
2.004312255E1,-1.363908947E-1,1.163509965E0,1.358166122E1
2.006323234E1,-3.906283081E-1,1.167697430E0,1.286082363E1
2.008334213E1,7.136593461E-1,1.477568030E0,1.140120125E1
2.010345192E1,1.532602906E0,2.000998020E0,9.606584549E0
2.012356166E1,1.690529227E0,2.243869543E0,8.569893837E0
2.014367146E1,1.351346612E0,2.154736757E0,8.499904633E0
2.016378125E1,5.324030519E-1,2.060220242E0,8.469993591E0
2.018389104E1,-7.537391037E-2,2.057827473E0,7.868797302E0
2.020400083E1,-3.290131092E-1,2.215753794E0,6.837490559E0
2.022411062E1,-1.986042857E-1,2.544168711E0,6.022734642E0
2.024422036E1,4.037888348E-1,2.859423161E0,5.793622017E0
2.026433015E1,7.405785918E-1,3.091526747E0,6.162714481E0
2.028443994E1,5.934200287E-1,3.104089260E0,6.812366009E0
2.030454974E1,2.075773627E-1,3.041277647E0,7.575078487E0
2.032465953E1,1.322034448E-1,3.048455954E0,8.136793137E0
2.034476932E1,3.786641955E-1,3.215355396E0,8.426922798E0
2.036487906E1,6.939185858E-1,3.495315790E0,8.398807526E0
2.038498885E1,9.038887620E-1,3.766901016E0,8.065009117E0
2.040509864E1,1.018146038E0,4.043870449E0,7.853842258E0
2.042520843E1,8.129615188E-1,4.399802685E0,7.987242222E0
2.044531823E1,4.444667995E-1,4.547559261E0,8.349156380E0
2.046542802E1,1.728814393E-1,4.389034748E0,9.102895737E0
2.048553776E1,9.391828626E-2,4.150949001E0,1.021017456E1
2.050564755E1,3.840480447E-1,3.964907169E0,1.140718365E1
2.052575734E1,5.389832854E-1,3.965505362E0,1.208913803E1
2.054586713E1,-3.619144261E-1,4.882554531E0,1.147597694E1
2.056597692E1,-1.252642632E0,5.585446358E0,1.060080242E1
2.058608672E1,2.967100143E-1,4.425525665E0,1.246780205E1
2.060619646E1,2.108076811E0,2.647060156E0,1.648236084E1
2.062630625E1,1.513460279E0,2.133799553E0,1.804427528E1
2.064641604E1,-4.701896608E-1,1.908276081E0,1.404108334E1
2.066652583E1,-1.390229940E0,1.771885157E0,9.511469841E0
2.068663562E1,-7.806583643E-1,1.667797327E0,8.370692253E0
2.070674541E1,5.515456200E-1,1.670190215E0,1.031426239E1
2.072685515E1,1.150947690E0,1.697707653E0,1.112542915E1
2.074696494E1,6.388836503E-1,1.695913076E0,9.267401695E0
2.076707474E1,2.105683982E-1,1.860419631E0,7.180860519E0
2.078718453E1,2.309073806E-1,2.045863390E0,6.046064377E0
2.080729432E1,2.757728100E-1,2.290529490E0,5.513063431E0
2.082740411E1,3.122633696E-1,2.508874655E0,5.324628353E0
2.084751385E1,1.950150430E-1,2.551347256E0,5.715256691E0
2.086762364E1,2.051845491E-1,2.624328136E0,6.283552170E0
2.088773343E1,3.888336718E-1,2.864208698E0,6.615556240E0
2.090784323E1,7.884350419E-1,3.090330362E0,6.952944279E0
2.092795302E1,1.025922656E0,3.254837036E0,7.375277519E0
2.094806281E1,9.032905698E-1,3.358924866E0,7.935796261E0
2.096817260E1,4.301098585E-1,3.480360508E0,8.451449394E0
2.098828234E1,7.477571070E-2,3.629313707E0,8.842078209E0
2.100839213E1,9.870393574E-2,3.930809498E0,9.086145401E0
2.102850192E1,3.074777126E-1,4.204189301E0,8.995218277E0
2.104861172E1,4.175475538E-1,4.410570145E0,9.176474571E0
2.106872151E1,6.424728632E-1,4.584648132E0,9.699904442E0
2.108883130E1,1.030110121E0,4.575077057E0,9.745368004E0
2.110894109E1,1.639681697E0,4.223930359E0,9.488140106E0
2.112905088E1,2.127817631E0,4.076173306E0,1.059781170E1
2.114916062E1,2.158924341E0,3.942773581E0,1.289970684E1
2.116927041E1,4.642075896E-1,4.735994339E0,1.346142197E1
2.118938021E1,-7.740781307E-1,5.998806477E0,1.068993473E1
2.120949000E1,2.300698996E0,4.665405750E0,9.147761345E0
2.122959979E1,5.352744102E0,2.308475733E0,1.266760349E1
2.124970958E1,4.232305050E0,1.429711580E0,1.663669777E1
2.126981937E1,4.660021961E-1,1.192223907E0,1.460040569E1
2.128992911E1,-2.202593327E0,1.317248821E0,1.057388306E1
2.131003890E1,-1.520638824E0,1.406979680E0,9.126225471E0
2.133014869E1,1.291526079E0,1.796411633E0,1.041535854E1
2.135025849E1,3.343371391E0,2.248655081E0,1.062652493E1
2.137036828E1,3.120838881E0,2.410768747E0,8.821140289E0
2.139047807E1,1.142572761E0,2.173281193E0,7.346563816E0
2.141058786E1,-3.020938635E-1,1.950150490E0,7.422535896E0
2.143069765E1,-1.241874933E0,1.995614052E0,7.712665558E0
2.145080739E1,-1.301097274E0,2.205584288E0,7.649255753E0
2.147091718E1,-4.372883439E-1,2.459821701E0,7.367500782E0
2.149102698E1,4.707878530E-1,2.758924484E0,7.145566463E0
2.151113677E1,7.806583643E-1,2.937788010E0,6.881159782E0
2.153124656E1,4.749752879E-1,3.074178934E0,6.872784615E0
2.155135635E1,1.064806059E-1,3.192623615E0,7.225128174E0
2.157146614E1,5.742774159E-2,3.394218922E0,7.663612843E0
2.159157588E1,1.501496136E-1,3.617947817E0,7.730611801E0
2.161168567E1,4.743770957E-1,3.926023722E0,7.347161770E0
2.163179546E1,6.801598072E-1,4.420739651E0,7.156932354E0
2.165190526E1,6.233302951E-1,4.510470867E0,7.486543655E0
2.167201505E1,2.344966233E-1,4.380061626E0,8.584849358E0
2.169212484E1,-2.961117923E-1,4.445864677E0,9.613164902E0
2.171223463E1,-3.242274821E-1,4.503890514E0,9.779465675E0
2.173234442E1,4.127619043E-2,4.625924587E0,9.769894600E0
2.175245416E1,1.680957973E-1,4.999204636E0,1.003609657E1
2.177256396E1,4.307080805E-2,5.498706341E0,1.016471100E1
2.179267375E1,5.485545993E-1,5.087738991E0,1.117208862E1
2.181278354E1,2.026122570E0,4.128815651E0,1.420140266E1
2.183289333E1,2.578266382E0,3.454637766E0,1.622573090E1
2.185300312E1,1.740778446E0,2.885744095E0,1.422413445E1
2.187311291E1,8.392825127E-1,2.860021353E0,1.059063339E1
2.189322271E1,4.301098585E-1,2.740380049E0,8.495717049E0
2.191333250E1,5.880361795E-1,2.369492531E0,1.035314560E1
2.193344229E1,5.700899959E-1,2.148156643E0,1.305464172E1
2.195355208E1,-2.560320199E-1,2.155334949E0,1.273161125E1
2.197366182E1,-6.125625968E-1,2.275574446E0,1.009651470E1
2.199377161E1,-4.929214716E-1,2.462812662E0,7.830512047E0
2.201388140E1,-3.278166950E-1,2.626721144E0,6.488138676E0
2.203399119E1,-3.882354796E-1,2.739183664E0,5.939583778E0
2.205410099E1,-3.212364316E-1,2.725425005E0,5.949155331E0
2.207421078E1,-2.542374134E-1,2.712862730E0,6.357729912E0
2.209432057E1,-3.870390654E-1,2.763710260E0,6.705885410E0
2.211443036E1,-4.390829504E-1,2.874976397E0,6.720242500E0
2.213454015E1,-2.159522474E-1,2.988037348E0,6.566503525E0
2.215464994E1,1.932204217E-1,3.079562664E0,6.536593437E0
2.217475968E1,3.750749528E-1,3.256631613E0,6.890730858E0
2.219486948E1,4.905286431E-1,3.420539856E0,7.196413994E0
2.221497927E1,4.785645306E-1,3.674179077E0,7.109076023E0
2.223508906E1,3.326023519E-1,3.966701746E0,7.092924595E0
2.225519885E1,2.069791555E-1,4.214957237E0,7.636693478E0
2.227530864E1,3.930211067E-1,4.328018188E0,8.260024071E0
2.229541843E1,5.563312769E-1,4.569693089E0,8.513663292E0
2.231552823E1,6.418746710E-1,4.869992256E0,8.665607452E0
2.233563802E1,7.806583643E-1,4.826323509E0,9.105288506E0
2.235574781E1,1.236491084E0,4.436891556E0,1.013240719E1
2.237585760E1,1.956730723E0,4.015754700E0,1.156810093E1
2.239596734E1,2.103889227E0,3.804588079E0,1.258146191E1
2.241607713E1,8.087740541E-1,4.520640373E0,1.210050392E1
2.243618692E1,2.871387303E-1,4.785645485E0,1.119781208E1
2.245629672E1,1.953739643E0,4.395615101E0,1.143888855E1
2.247640651E1,4.149154663E0,3.439682484E0,1.279322624E1
2.249651630E1,4.959125042E0,2.279761791E0,1.395853043E1
2.251662609E1,2.713460922E0,2.027318954E0,1.277049446E1
2.253673588E1,1.878365725E-1,2.060220242E0,1.074616623E1
2.255684567E1,-1.049850941E0,2.185843468E0,9.630513191E0
2.257695546E1,-3.720839322E-1,2.492124796E0,9.481559753E0
2.259706526E1,1.253240824E0,2.537588358E0,9.423533440E0
2.261717505E1,1.974676847E0,2.629712105E0,8.964710236E0
2.263728479E1,1.865205288E0,2.634497643E0,8.876175880E0
2.265739458E1,8.697910309E-1,2.467000246E0,9.226723671E0
2.267750437E1,1.674975902E-1,2.263011932E0,9.369695663E0
2.269761416E1,-2.273181453E-2,2.267199516E0,9.016754150E0
2.271772396E1,2.901297510E-1,2.514856577E0,8.129016876E0
2.273783375E1,6.849454641E-1,2.793022156E0,7.204789162E0
2.275794354E1,7.944171429E-1,2.963510752E0,6.832107067E0
2.277805333E1,6.658028960E-1,3.050848961E0,6.710670948E0
2.279816312E1,3.182454109E-1,3.030509949E0,6.942774773E0
2.281827291E1,2.165504545E-1,2.821137905E0,7.738986492E0
2.283838270E1,2.219343036E-1,2.903690338E0,8.639883995E0
2.285849250E1,1.668993831E-1,3.262015581E0,8.773882866E0
2.287860229E1,1.459621787E-1,3.613760471E0,8.167302132E0
2.289871203E1,1.854437590E-1,3.896711588E0,7.762316704E0
2.291882182E1,2.667997181E-1,3.973880291E0,8.379066467E0
2.293893161E1,3.218346536E-1,4.074378967E0,9.572486877E0
2.295904140E1,3.140579760E-1,4.186243057E0,1.041296577E1
2.297915119E1,3.224328458E-1,4.231108665E0,1.033998489E1
2.299926099E1,2.452643216E-1,4.214957237E0,9.816555023E0
2.301937078E1,4.402793646E-1,4.059423447E0,9.963115692E0
2.303948057E1,4.761717021E-1,4.046263218E0,1.069292641E1
2.305959036E1,-1.172483116E-1,4.663012981E0,1.018744278E1
2.307970015E1,-1.003190875E0,5.078167915E0,9.127422333E0
2.309980994E1,-3.224328458E-1,4.244867325E0,1.018505001E1
2.311991974E1,1.387837082E-1,3.960719585E0,1.238225937E1
2.314002953E1,3.505485058E-1,2.789433002E0,1.427797318E1
2.316013927E1,2.715853751E-1,1.745564103E0,1.516810226E1
2.318024906E1,-5.072783828E-1,2.132004976E0,1.300798225E1
2.320035885E1,-8.584251404E-1,2.380260229E0,9.707681656E0
2.322046864E1,-3.326023519E-1,2.152942181E0,8.126624107E0
2.324057843E1,8.440681696E-1,1.771885157E0,9.190233231E0
2.326068823E1,1.365703583E0,1.438684583E0,1.049312592E1
2.328079802E1,5.826523304E-1,1.437488198E0,9.854840279E0
2.330090781E1,-3.571287692E-1,1.851446509E0,7.780860901E0
2.332101760E1,-7.178468108E-1,2.333600283E0,5.784050465E0
2.334112739E1,-4.719842672E-1,2.686541557E0,4.593621254E0
2.336123718E1,4.510470629E-1,2.913859844E0,5.246861935E0
2.338134698E1,1.270588875E0,2.991028309E0,7.028916359E0
2.340145677E1,1.309472203E0,2.995813847E0,8.669196129E0
2.342156656E1,8.847461939E-1,2.863012314E0,9.748359680E0
2.344167630E1,2.985046208E-1,2.912663460E0,1.001815033E1
2.346178609E1,1.704886109E-1,3.100499868E0,9.294321060E0
2.348189588E1,2.015953064E-1,3.399004459E0,7.956135273E0
2.350200567E1,1.106680483E-1,3.681357622E0,7.239484787E0
2.352211547E1,2.183450609E-1,3.900300980E0,7.275377274E0
2.354222526E1,3.152543902E-1,4.122833252E0,7.685746193E0
2.356233505E1,4.522434771E-1,4.332205296E0,8.155337334E0
2.358244484E1,6.759724021E-1,4.427918434E0,8.569295883E0
2.360255463E1,7.686942816E-1,4.358526230E0,9.337990761E0
2.362266442E1,8.075776696E-1,4.280161381E0,1.009113121E1
2.364277422E1,7.088736892E-1,4.250849247E0,1.031246758E1
2.366288401E1,8.931210637E-1,3.999004841E0,1.026640511E1
2.368299380E1,1.202393413E0,3.957130432E0,9.924231529E0
2.370310359E1,1.350748420E0,4.366302967E0,9.863813400E0
2.372321338E1,6.801598072E-1,5.187041283E0,9.958928108E0
2.374332312E1,2.065006018E0,3.839283943E0,1.063250732E1
2.376343291E1,3.595814228E0,2.581855536E0,1.313779259E1
2.378354271E1,3.391826153E0,2.073979139E0,1.564666748E1
2.380365250E1,1.880160451E0,1.201196909E0,1.495932865E1
2.382376229E1,2.871387079E-2,1.322034478E0,1.199581814E1
2.384387208E1,-4.977070987E-1,1.697707653E0,9.535996437E0
2.386398187E1,3.637090325E-1,2.131406784E0,8.517850876E0
2.388409166E1,1.792224169E0,2.367099762E0,8.657232285E0
2.390420146E1,2.277967215E0,2.448455811E0,8.797212601E0
2.392431125E1,1.543370605E0,2.472982168E0,8.967700958E0
2.394442104E1,9.062815905E-1,2.278565407E0,9.220742226E0
2.396453083E1,6.382854581E-1,2.154736757E0,9.132207870E0
2.398464062E1,4.025924206E-1,2.251047850E0,8.520243645E0
2.400475041E1,1.704886109E-1,2.466402054E0,7.552944660E0
2.402486021E1,5.982056633E-2,2.772084951E0,6.690331936E0
2.404496994E1,-3.888336942E-2,2.969492912E0,6.349953175E0
2.406507974E1,7.058826834E-2,3.089133978E0,6.516852379E0
2.408518953E1,2.021935135E-1,3.270988464E0,6.999006271E0
2.410529932E1,3.134597540E-1,3.398406267E0,7.447660446E0
2.412540911E1,4.941178858E-1,3.405584812E0,7.866404533E0
2.414551890E1,5.575276613E-1,3.490530014E0,8.472985268E0
2.416562869E1,6.388836503E-1,3.716651678E0,9.126225471E0
2.418573849E1,6.245267391E-1,3.966103554E0,9.125627518E0
2.420584828E1,4.582255483E-1,4.219742775E0,8.485547066E0
2.422595807E1,3.643072546E-1,4.424329281E0,8.009973526E0
2.424606786E1,2.961117923E-1,4.460819721E0,8.176873207E0
2.426617765E1,1.256231815E-1,4.280161381E0,9.156734467E0
2.428628744E1,-3.409772366E-2,3.966701746E0,1.031844902E1
2.430639724E1,-8.075776696E-2,3.807579041E0,1.118345451E1
2.432650703E1,-1.878365725E-1,4.054039955E0,1.116670513E1
2.434661677E1,-5.545366406E-1,4.733601570E0,1.014317513E1
2.436672661E1,-1.926222295E-1,4.058227062E0,1.045603657E1
2.438683635E1,6.101697683E-2,3.617349625E0,1.228774261E1
2.440694614E1,-5.210371017E-1,3.421138287E0,1.358584881E1
2.442705593E1,-2.656033039E-1,1.831705689E0,1.466321754E1
2.444716573E1,1.184447184E-1,1.397408366E0,1.457827187E1
2.446727552E1,3.044866920E-1,1.658824325E0,1.287697506E1
2.448738531E1,3.146561682E-1,1.604985833E0,1.188993549E1
2.450749510E1,4.845465720E-1,1.490728498E0,1.205623722E1
2.452760489E1,4.767699242E-1,1.446461320E0,1.169013500E1
2.454771468E1,4.462614357E-1,1.526022673E0,1.045543861E1
2.456782448E1,2.751746178E-1,1.772483349E0,8.817551613E0
2.458793427E1,5.084748194E-2,2.048854351E0,7.086344242E0
2.460804406E1,-9.631111473E-2,2.341975212E0,5.588437080E0
2.462815385E1,-1.262213886E-1,2.481955290E0,4.622334957E0
2.464826364E1,-1.046859920E-1,2.730808735E0,4.869394302E0
2.466837338E1,-3.828516230E-2,2.916850805E0,6.037091732E0
2.468848317E1,-5.264209956E-2,3.138785124E0,6.667600155E0
2.470859296E1,1.298106313E-1,3.354139090E0,6.917052269E0
2.472870276E1,5.024927258E-1,3.451048374E0,7.313064098E0
2.474881255E1,8.171489239E-1,3.531806231E0,8.248059273E0
2.476892234E1,9.505487680E-1,3.456432343E0,8.915657043E0
2.478903213E1,5.497509837E-1,3.499503136E0,8.657830238E0
2.480914192E1,-1.674975827E-2,3.636492252E0,8.185846329E0
2.482925172E1,-1.214357466E-1,3.700500250E0,8.178069115E0
2.484936151E1,2.931207791E-2,3.881756544E0,8.466404915E0
2.486947130E1,2.596212626E-1,4.156930923E0,8.533403397E0
2.488958109E1,2.685943544E-1,4.455435753E0,8.328817368E0
2.490969088E1,7.298108935E-2,4.696512699E0,8.346165657E0
2.492980067E1,2.243271172E-1,4.501497746E0,9.029315948E0
2.494991047E1,8.051848412E-1,4.036093712E0,1.020419216E1
2.497002026E1,1.201795220E0,3.765106440E0,1.168834019E1
2.499013000E1,7.663014531E-1,4.671986103E0,1.209272766E1
2.501023979E1,6.939185858E-1,4.593023300E0,1.127916813E1
2.503034958E1,2.227717876E0,3.184248686E0,1.239362526E1
2.505045937E1,2.757728100E0,3.092723370E0,1.390349579E1
2.507056916E1,2.205584288E0,1.987239242E0,1.405902958E1
2.509067896E1,1.098305583E0,1.040877819E0,1.300319672E1
2.511078875E1,-9.212367237E-2,1.411765337E0,1.194556904E1
2.513089854E1,-5.515456200E-1,1.644467354E0,1.071864891E1
2.515100833E1,2.195414752E-1,1.932204247E0,9.452845573E0
2.517111812E1,1.837687731E0,2.192423820E0,8.988039970E0
2.519122791E1,2.654238462E0,2.169093609E0,9.535996437E0
2.521133771E1,2.309672117E0,1.913061738E0,1.033938694E1
2.523144750E1,1.197607756E0,1.685145378E0,1.047936630E1
2.525155729E1,2.811566591E-1,1.633699656E0,9.798608780E0
2.527166708E1,-9.212367237E-2,1.865205288E0,8.583653450E0
2.529177687E1,-1.405783296E-1,2.300698996E0,7.278966427E0
2.531188661E1,5.802594870E-2,2.668595552E0,6.090929985E0
2.533199640E1,2.937189937E-1,2.894717216E0,5.685346603E0
2.535210619E1,5.730810165E-1,2.931805849E0,6.103492260E0
2.537221599E1,4.917250574E-1,2.926422119E0,6.896713257E0
2.539232578E1,1.740778536E-1,2.875574589E0,7.719245911E0
2.541243557E1,-4.845465720E-2,2.799004316E0,8.318648338E0
2.543254536E1,-3.589234129E-2,2.859423161E0,8.586046219E0
2.545265515E1,2.817548811E-1,3.082553864E0,8.702695847E0
2.547276494E1,6.299105883E-1,3.288934708E0,8.629117012E0
2.549287474E1,6.305087805E-1,3.498306751E0,8.505288124E0
2.551298453E1,4.229314029E-1,3.729812384E0,8.337790489E0
2.553309432E1,1.453639716E-1,3.991826296E0,8.344968796E0
2.555320411E1,-3.050848842E-2,4.058825493E0,8.737391472E0
2.557331390E1,4.067798331E-2,3.900300980E0,9.543772697E0
2.559342364E1,7.836493850E-2,3.827918053E0,1.053440189E1
2.561353343E1,1.519442350E-1,3.699303865E0,1.142393398E1
2.563364323E1,2.793620527E-1,3.670589924E0,1.220698452E1
2.565375302E1,2.847459018E-1,3.945166349E0,1.212203979E1
2.567386281E1,-4.899304509E-1,4.883750916E0,1.062293625E1
2.569397260E1,-1.153340459E0,5.770291805E0,9.088538170E0
2.571408239E1,5.503492057E-2,5.106881618E0,9.416953087E0
2.573419218E1,1.899302959E0,3.258426189E0,1.245763302E1
2.575430198E1,2.435893536E0,1.857428551E0,1.667438507E1
2.577441177E1,7.806583643E-1,1.500898004E0,1.628614998E1
2.579452156E1,-1.159322619E0,1.990230203E0,1.116909790E1
2.581463135E1,-1.920240164E0,2.447857618E0,6.950551510E0
2.583474114E1,-7.250252366E-1,2.529213428E0,6.135795593E0
2.585485088E1,1.407577872E0,2.458027124E0,8.538787842E0
2.587496067E1,2.269592285E0,2.253440619E0,1.048415279E1
2.589507046E1,1.107876897E0,1.980060697E0,1.043988514E1
2.591518026E1,-2.787638307E-1,1.920838356E0,8.797212601E0
2.593529005E1,-9.535398483E-1,2.123630047E0,7.715656757E0
2.595539984E1,-1.096511006E0,2.431107759E0,6.898507595E0
2.597550963E1,-5.635097623E-1,2.669193745E0,6.723233223E0
2.599561942E1,1.830509305E-1,2.868994236E0,7.022336483E0
2.601572922E1,4.552344978E-1,3.099901676E0,7.124629498E0
2.603583901E1,5.730810165E-1,3.219542980E0,6.993024349E0
2.605594880E1,4.636093974E-1,3.243471146E0,7.289734364E0
2.607605859E1,2.165504545E-1,3.272783279E0,7.841279984E0
2.609616833E1,-1.130608693E-1,3.364308596E0,8.027321815E0
2.611627812E1,-3.068794906E-1,3.560520172E0,7.936992645E0
2.613638791E1,-1.136590764E-1,3.822534084E0,7.840681553E0
2.615649771E1,2.566302419E-1,4.070789337E0,7.842476368E0
2.617660750E1,4.947160780E-1,4.202992916E0,8.079365730E0
2.619671729E1,5.156532526E-1,4.349553585E0,8.695517540E0
2.621682708E1,5.078766346E-1,4.324428558E0,9.355338097E0
2.623693687E1,4.707878530E-1,4.237689018E0,9.829116821E0
2.625704666E1,4.528416991E-1,4.301696777E0,1.009651470E1
2.627715646E1,7.417750359E-1,4.328616142E0,1.006241703E1
2.629726625E1,1.161117196E0,4.206582069E0,1.028435135E1
2.631737604E1,1.539781332E0,3.807579041E0,1.108654594E1
2.633748578E1,1.316650629E0,3.916452408E0,1.154178047E1
2.635759557E1,2.063809484E-1,5.009972572E0,1.045962620E1
2.637770536E1,1.545165181E0,4.378865242E0,9.848857880E0
2.639781515E1,3.455235958E0,4.049253941E0,1.074736309E1
2.641792494E1,4.310071945E0,3.955934048E0,1.146580791E1
2.643803474E1,3.765704632E0,2.992224693E0,1.119900799E1
2.645814453E1,1.918445587E0,2.325823545E0,1.113918781E1
2.647825432E1,9.505487680E-1,1.957328916E0,1.203470135E1
2.649836411E1,1.111466169E0,1.957328916E0,1.232483101E1
2.651847390E1,2.200200319E0,2.279163599E0,1.144965649E1
2.653858369E1,2.858226538E0,2.696711063E0,1.049372387E1
2.655869343E1,2.280359983E0,2.893520832E0,1.001336479E1
2.657880323E1,1.049252748E0,2.833101988E0,9.273982048E0
2.659891302E1,3.056831062E-1,2.804986238E0,8.224729538E0
2.661902281E1,-2.057827413E-1,2.870789051E0,6.928418159E0
2.663913260E1,-3.678964674E-1,2.947957516E0,6.230910301E0
2.665924239E1,-1.220339537E-1,3.005385160E0,6.324828625E0
2.667935218E1,1.423729509E-1,3.131008387E0,6.610770702E0
2.669946198E1,2.225325108E-1,3.321237803E0,6.576673031E0
2.671957177E1,1.609173268E-1,3.550350666E0,6.399005890E0
2.673968156E1,1.555334777E-1,3.705883980E0,6.757331371E0
2.675979130E1,2.189432681E-1,3.742374659E0,7.560721397E0
2.677990109E1,2.356930375E-1,3.802195072E0,8.073383331E0
2.680001088E1,8.614161611E-2,4.054637909E0,8.228917122E0
2.682012067E1,1.752742529E-1,4.152743816E0,8.330612183E0
2.684023046E1,3.798605800E-1,4.091726780E0,8.444869041E0
2.686034026E1,3.948157430E-1,4.095914364E0,8.689535141E0
2.688045005E1,1.142572835E-1,4.141975880E0,8.977272034E0
2.690055984E1,-1.782652885E-1,4.015156269E0,9.096315384E0
2.692066963E1,-2.919243574E-1,3.966103554E0,9.312865257E0
2.694077942E1,-2.614158690E-1,4.092923164E0,9.944570541E0
2.696088916E1,-9.511470050E-2,4.092324734E0,1.073480034E1
2.698099896E1,-2.273181528E-1,4.701896667E0,1.095194912E1
2.700110875E1,-5.898307562E-1,5.499304771E0,1.037647533E1
2.702121854E1,1.058823988E-1,4.469194412E0,1.122592735E1
2.704132833E1,3.379862010E-1,4.057030678E0,1.332622719E1
2.706143812E1,-3.254238665E-1,4.015156269E0,1.424626827E1
2.708154791E1,-2.949153781E-1,2.651247501E0,1.313839054E1
2.710165770E1,8.733802289E-2,1.889133453E0,1.142871952E1
2.712176744E1,-4.205385745E-1,2.289333105E0,9.519247055E0
2.714187724E1,-1.317248821E0,2.592025042E0,7.511668682E0
2.716198703E1,-2.096112728E0,2.772683144E0,6.394818306E0
2.718209682E1,-2.001596212E0,3.029313564E0,7.481758118E0
2.720220661E1,-5.270192027E-1,2.600399971E0,9.562317848E0
2.722231640E1,7.459624410E-1,2.084746838E0,1.087178993E1
2.724242619E1,9.888339639E-1,1.811366796E0,1.108235836E1
2.726253599E1,-2.147558331E-1,1.984846354E0,1.012821960E1
2.728264578E1,-1.208973646E0,2.240280151E0,8.947959900E0
2.730275552E1,-1.281954765E0,2.324028969E0,8.351549149E0
2.732286531E1,-7.782655358E-1,2.559123755E0,8.367102623E0
2.734297510E1,9.391828626E-2,2.818146944E0,8.886942863E0
2.736308489E1,5.976074338E-1,3.060420275E0,8.826524734E0
2.738319468E1,5.886343718E-1,3.297309637E0,8.442476273E0
2.740330448E1,5.623133183E-1,3.322434187E0,8.408976555E0
2.742341427E1,4.851447940E-1,3.237488985E0,8.694320679E0
2.744352406E1,1.758724600E-1,3.183650494E0,8.990432739E0
2.746363380E1,-7.058826834E-2,3.177668571E0,8.821140289E0
2.748374359E1,-8.374879509E-2,3.336791277E0,8.223533630E0
2.750385338E1,-1.136590727E-2,3.503690481E0,7.673183918E0
2.752396317E1,1.435693540E-2,3.649054527E0,7.450053215E0
2.754407296E1,1.202393398E-1,3.792623997E0,7.546364307E0
2.756418276E1,4.773681164E-1,3.709473372E0,8.117053032E0
2.758429255E1,4.241278172E-1,3.842274904E0,8.787042618E0
2.760440234E1,-5.383851007E-3,4.122235298E0,9.007183075E0
2.762451208E1,-5.144568533E-2,4.204787731E0,8.892925262E0
2.764462187E1,1.537388563E-1,4.253840446E0,8.871390343E0
2.766473166E1,3.128615618E-1,4.170690060E0,9.366106033E0
2.768484146E1,-1.435693540E-2,4.499702930E0,1.015334511E1
2.770495125E1,-3.529413417E-2,4.461417675E0,1.105005455E1
2.772506104E1,6.592226624E-1,4.155734539E0,1.179900837E1
2.774517083E1,1.823330879E0,3.695714474E0,1.304925823E1
2.776528062E1,2.995215654E0,2.184647083E0,1.510768414E1
2.778539036E1,2.556132793E0,8.195417523E-1,1.612463379E1
2.780550015E1,1.137787223E0,4.007977843E-1,1.454477215E1
2.782560994E1,1.872383654E-1,7.375875711E-1,1.141077328E1
2.784571974E1,-2.135594189E-1,1.489532113E0,8.197810173E0
2.786582953E1,-2.805584669E-1,2.486740828E0,5.640480995E0
2.788593932E1,4.438686073E-1,3.364308596E0,4.629513741E0
2.790604911E1,2.282154560E0,3.293720484E0,5.592026711E0
2.792615885E1,4.034298897E0,2.645265341E0,7.306483746E0
2.794626864E1,3.678964853E0,2.057229280E0,9.537791252E0
2.796637843E1,1.357328653E0,1.615753531E0,1.106381416E1
2.798648823E1,-1.072582722E0,1.612762451E0,1.106620693E1
2.800659802E1,-1.693520188E0,1.698305845E0,1.002951622E1
2.802670781E1,-7.058826685E-1,2.231905222E0,8.763114929E0
2.804681760E1,2.500499785E-1,2.907279491E0,7.815557003E0
2.806692734E1,8.195417523E-1,3.142374277E0,7.346563816E0
2.808703713E1,9.415757060E-1,3.198007345E0,7.873582840E0
2.810714692E1,4.779663086E-1,3.035295486E0,9.343374252E0
2.812725672E1,-1.447657645E-1,2.751147747E0,1.036630630E1
2.814736651E1,-3.852444589E-1,2.565704107E0,1.039980507E1
2.816747630E1,-1.202393398E-1,2.541775942E0,9.925428391E0
2.818758604E1,1.974078715E-1,2.796611547E0,9.557532310E0
2.820769583E1,3.960121572E-1,3.059821844E0,9.769894600E0
2.822780562E1,8.165507317E-1,2.570489645E0,1.075095177E1
2.824791541E1,7.591229677E-1,2.480758905E0,1.139462185E1
2.826802520E1,-1.716850251E-1,2.931207657E0,1.047099209E1
2.828813500E1,-8.057830334E-1,3.160918713E0,8.681160927E0
2.830824474E1,-2.685943544E-1,3.247060299E0,7.865208149E0
2.832835453E1,3.170489967E-1,3.355933666E0,8.742177963E0
2.834846432E1,1.567298770E-1,3.201596737E0,1.011984539E1
2.836857411E1,-5.682953596E-1,3.048455954E0,1.021675491E1
2.838868390E1,-8.572286963E-1,2.975475073E0,9.385847092E0
2.840879369E1,-6.119644046E-1,3.001796007E0,8.714659691E0
2.842890343E1,-3.858426511E-1,3.138785124E0,8.708678246E0
2.844901323E1,-3.164508045E-1,3.141776085E0,9.113064766E0
2.846912302E1,-2.404786795E-1,2.933002472E0,9.516255379E0
2.848923281E1,-3.260220885E-1,2.791227579E0,9.770493507E0
2.850934260E1,-5.042873621E-1,2.696112871E0,9.855438232E0
2.852945239E1,-6.496513486E-1,2.711666346E0,9.608977318E0
2.854956213E1,-6.532405615E-1,2.894119024E0,9.002995491E0
2.856967192E1,-5.623133183E-1,3.025724173E0,8.700901031E0
2.858978172E1,-4.163511395E-1,2.971287489E0,9.125029564E0
2.860989151E1,-5.347958803E-1,2.971287489E0,9.661021233E0
2.863000130E1,-7.088736892E-1,3.038286448E0,9.593423843E0
2.865011109E1,-6.598208547E-1,3.120240688E0,9.345169067E0
2.867022083E1,-3.714857101E-1,3.219542980E0,9.341579437E0
2.869033062E1,-7.836493850E-2,3.279363394E0,9.597013474E0
2.871044041E1,-9.332008660E-2,3.282354355E0,9.689137459E0
2.873055020E1,-3.840480447E-1,3.342175007E0,9.561718941E0
2.875066000E1,-4.205385745E-1,3.378067255E0,9.367302895E0
2.877076974E1,-9.272187948E-2,3.470789194E0,9.213563919E0
2.879087953E1,1.567298770E-1,3.551547050E0,9.127422333E0
2.881098932E1,2.081755698E-1,3.615555048E0,9.229117393E0
2.883109911E1,1.794617027E-1,3.550948858E0,9.471988678E0
2.885120890E1,3.565305769E-1,3.292523861E0,9.790832520E0
2.887131869E1,3.936193287E-1,3.102892876E0,1.004506969E1
2.889142843E1,1.220339537E-1,3.081357241E0,1.001874828E1
2.891153823E1,-9.391828626E-2,3.122035265E0,9.477970123E0
2.893164802E1,-9.750752151E-2,3.250051260E0,8.743971825E0
2.895175781E1,2.153540403E-1,3.472583771E0,8.398209572E0
2.897186760E1,7.465606928E-1,3.688536167E0,8.825327873E0
2.899197734E1,8.147560954E-1,3.721437454E0,9.384052277E0
2.901208713E1,4.289134443E-1,3.553341627E0,9.540781975E0
2.903219692E1,-5.862415582E-2,3.322434187E0,9.677172661E0
2.905230672E1,-2.781656384E-1,3.168695450E0,9.802796364E0
2.907241651E1,-4.175475538E-1,3.135794163E0,9.636494637E0
2.909252625E1,-3.786641955E-1,3.084946632E0,9.299106598E0
2.911263604E1,-2.045863420E-1,3.089133978E0,9.293125153E0
2.913274583E1,-7.716853172E-2,3.102892876E0,9.552745819E0
2.915285562E1,-1.495514158E-2,3.110071182E0,9.647860527E0
2.917296541E1,-3.649054468E-2,3.104687452E0,9.534201622E0
2.919307515E1,-3.290131316E-2,3.034697294E0,9.363713264E0
2.921318494E1,9.332008660E-2,3.064607620E0,9.243474007E0
2.923329474E1,4.725824669E-2,3.180659533E0,9.296115875E0
2.925340453E1,-1.172483116E-1,3.302693367E0,9.345169067E0
2.927351432E1,-4.187439755E-2,3.315255880E0,9.225527763E0
2.929362406E1,1.459621787E-1,3.311068296E0,9.154939651E0
2.931373385E1,2.488535494E-1,3.312264681E0,9.126823425E0
2.933384364E1,1.603191197E-1,3.309871912E0,9.293723106E0
2.935395343E1,-6.580262445E-3,3.332005501E0,9.437292099E0
2.937406317E1,-1.028913707E-1,3.363112211E0,9.401400566E0
2.939417297E1,8.973085321E-3,3.334996462E0,9.341579437E0
2.941428276E1,1.441675574E-1,3.328416348E0,9.331410408E0
2.943439255E1,9.391828626E-2,3.381656647E0,9.290732384E0
2.945450234E1,-2.632104978E-2,3.370290756E0,9.195018768E0
2.947461208E1,-7.657032460E-2,3.360719442E0,9.206384659E0
2.949472187E1,2.811566554E-2,3.352942705E0,9.350552559E0
2.951483166E1,6.640082598E-2,3.298506021E0,9.380462646E0
2.953494146E1,1.914258115E-2,3.279363394E0,9.454042435E0
2.955505119E1,-1.375873014E-2,3.292523861E0,9.732806206E0
2.957516099E1,-5.024927482E-2,3.343371391E0,9.720243454E0
2.959527078E1,7.776673418E-3,3.372683525E0,9.159127235E0
2.961538057E1,1.597209126E-1,3.403192043E0,8.809774399E0
2.963549031E1,2.368894368E-1,3.423531055E0,9.156734467E0
2.965560010E1,9.511470050E-2,3.384647608E0,9.632308006E0
2.967570989E1,-1.172483116E-1,3.364906788E0,9.634101868E0
2.969581968E1,-1.178465188E-1,3.366103172E0,9.310472488E0
2.971592942E1,7.058826834E-2,3.360121250E0,9.098110199E0
2.973603922E1,2.781656384E-1,3.388834953E0,9.342177391E0
2.975614901E1,2.045863420E-1,3.407977581E0,9.730413437E0
2.977625880E1,-3.290131316E-2,3.339184046E0,9.795618057E0
2.979636859E1,-8.315058798E-2,3.339184046E0,9.570094109E0
2.981647833E1,5.982056726E-3,3.351746321E0,9.112466812E0
2.983658812E1,7.417750359E-2,3.379263878E0,8.824131966E0
2.985669791E1,8.374879509E-2,3.410370588E0,8.964112282E0
2.987680770E1,2.751746029E-2,3.369692564E0,9.302696228E0
2.989691744E1,-3.290131316E-2,3.379862070E0,9.362516403E0
2.991702724E1,6.161518395E-2,3.451646566E0,9.120841980E0
2.993713703E1,3.655036688E-1,3.456432343E0,8.966505051E0
2.995724682E1,4.677968323E-1,3.438486099E0,9.241679192E0
2.997735656E1,3.517449200E-1,3.452843189E0,9.533603668E0
2.999746635E1,2.195414752E-1,3.479762316E0,9.298508644E0
3.001757614E1,1.758724600E-1,3.503092289E0,8.885746956E0
3.003768588E1,2.027917206E-1,3.498904943E0,8.832506180E0
3.005779567E1,1.914258152E-1,3.393022537E0,9.151947975E0
3.007790546E1,8.853443712E-2,3.323630571E0,9.446265221E0
3.009801526E1,1.238285750E-1,3.330809116E0,9.401400566E0
3.011812500E1,2.757728100E-1,3.413959742E0,9.104091644E0
3.013823479E1,4.941178858E-1,3.614358664E0,8.951549530E0
3.015834458E1,7.280163169E-1,3.744169235E0,9.190233231E0
3.017845437E1,5.940182209E-1,3.720241070E0,9.492327690E0
3.019856411E1,4.079762697E-1,3.626920938E0,9.772287369E0
3.021867390E1,4.025924206E-1,3.582653761E0,9.922437668E0
3.023878369E1,3.888336718E-1,3.602394581E0,9.701101303E0
3.025889349E1,3.619144261E-1,3.663411379E0,9.222537041E0
3.027900323E1,3.834498227E-1,3.675375462E0,8.974879265E0
3.029911302E1,4.205385745E-1,3.598805189E0,9.141778946E0
3.031922281E1,2.991028428E-1,3.515654564E0,9.495916367E0
3.033933260E1,1.896311939E-1,3.403790236E0,9.591031075E0
3.035944234E1,8.494520187E-2,3.346960783E0,9.481559753E0
3.037955213E1,1.130608693E-1,3.309273720E0,9.416355133E0
3.039966192E1,1.381855011E-1,3.372683525E0,9.414560318E0
3.041977166E1,2.003988922E-1,3.421736479E0,9.422337532E0
3.043988146E1,2.536391914E-1,3.444468260E0,9.254241943E0
3.045999125E1,3.206382394E-1,3.466601849E0,8.992825508E0
3.048010104E1,3.260220885E-1,3.436691523E0,8.913862228E0
3.050021078E1,1.872383654E-1,3.405584812E0,9.127422333E0
3.052032057E1,-4.666004330E-2,3.480958700E0,9.385847092E0
3.054043036E1,-4.965107143E-2,3.481556892E0,9.345169067E0
3.056054010E1,1.818545163E-1,3.481556892E0,9.108279228E0
3.058064989E1,3.457628787E-1,3.556930780E0,9.023334503E0
3.060075968E1,3.236292601E-1,3.530609846E0,9.246464729E0
3.062086948E1,1.178465188E-1,3.500101328E0,9.562915802E0
3.064097922E1,-8.015955985E-2,3.467200041E0,9.626923561E0
3.066108901E1,3.589233849E-3,3.440878868E0,9.517452240E0
3.068119880E1,1.704886109E-1,3.495315790E0,9.351150513E0
3.070130859E1,2.488535494E-1,3.527020693E0,9.104690552E0
3.072141833E1,2.841476798E-1,3.544966698E0,8.988039970E0
3.074152812E1,2.679961324E-1,3.540779352E0,9.071788788E0
3.076163791E1,1.908276081E-1,3.535993576E0,9.292527199E0
3.078174765E1,1.345962733E-1,3.481556892E0,9.470193863E0
3.080185744E1,2.021935135E-1,3.418745279E0,9.500103951E0
3.082196724E1,2.638086975E-1,3.476173162E0,9.465408325E0
3.084207698E1,2.739782035E-1,3.533600807E0,9.424132347E0
3.086218677E1,2.225325108E-1,3.538386583E0,9.327222824E0
3.088229656E1,2.309073806E-1,3.547957659E0,9.445069313E0
3.090240630E1,2.662015259E-1,3.577867985E0,9.590433121E0
3.092251609E1,2.488535494E-1,3.589233875E0,9.394221306E0
3.094262588E1,2.398804724E-1,3.586841106E0,9.111868858E0
3.096273567E1,2.823530734E-1,3.601198196E0,9.101698875E0
3.098284541E1,3.092723191E-1,3.608376503E0,9.187840462E0
3.100295521E1,1.752742529E-1,3.601198196E0,9.098110199E0
3.102306500E1,1.070788130E-1,3.562314749E0,8.954540253E0
3.104317474E1,1.333998591E-1,3.561716557E0,9.023334503E0
3.106328453E1,1.453639716E-1,3.542573929E0,9.227322578E0
3.108339432E1,5.324030295E-2,3.503092289E0,9.346364975E0
3.110350406E1,2.931207791E-2,3.487539053E0,9.321240425E0
3.112361385E1,9.032905847E-2,3.591028690E0,9.246464729E0
3.114372364E1,1.848455518E-1,3.650250912E0,9.109476089E0
3.116383338E1,2.440679073E-1,3.611367464E0,9.140582085E0
3.118394317E1,1.543370634E-1,3.583850145E0,9.366703987E0
3.120405297E1,4.127619043E-2,3.551547050E0,9.463613510E0
3.122416270E1,6.939185411E-2,3.530011654E0,9.414560318E0
3.124427250E1,1.842473447E-1,3.500699520E0,9.449256897E0
3.126438229E1,2.069791555E-1,3.496512175E0,9.419944763E0
3.128449208E1,1.238285750E-1,3.540181160E0,9.187840462E0
3.130460182E1,5.503492057E-2,3.576671600E0,8.887541771E0
3.132471161E1,1.441675574E-1,3.550948858E0,8.972486496E0
3.134482140E1,1.710868180E-1,3.543770313E0,9.346963882E0
3.136493114E1,9.511470050E-2,3.524029493E0,9.442078590E0
3.138504093E1,6.819544733E-2,3.514458179E0,9.262018204E0
3.140515073E1,1.304088384E-1,3.552743435E0,9.231510162E0
3.142526046E1,1.788634956E-1,3.586242914E0,9.368498802E0
3.144537026E1,1.645065546E-1,3.549154282E0,9.317052841E0
3.146548005E1,1.322034448E-1,3.570091486E0,9.251250267E0
3.148558979E1,5.742774159E-2,3.579662561E0,9.376275063E0
3.150569958E1,-1.555334684E-2,3.541975737E0,9.406186104E0
3.152580937E1,4.785645381E-2,3.538984776E0,9.328418732E0
3.154591911E1,2.327020019E-1,3.540181160E0,9.449854851E0
3.156602890E1,2.243271172E-1,3.568894863E0,9.367302895E0
3.158613869E1,1.393819153E-1,3.565903902E0,9.187840462E0
3.160624843E1,5.802594870E-2,3.538984776E0,9.090332985E0
3.162635823E1,6.699903309E-2,3.521636724E0,9.169894218E0
3.164646802E1,4.785645381E-2,3.512663603E0,9.281160355E0
3.166657776E1,-3.110669367E-2,3.507878065E0,9.361320496E0
3.168668755E1,-2.632104978E-2,3.482753277E0,9.416953087E0
3.170679734E1,7.477571070E-2,3.500101328E0,9.359525681E0
3.172690708E1,2.069791555E-1,3.531208038E0,9.198010445E0
3.174701687E1,1.878365725E-1,3.610171080E0,9.003593445E0
3.176712666E1,1.459621787E-1,3.628715515E0,8.918049812E0
3.178723640E1,1.040877849E-1,3.576073408E0,9.099306107E0
3.180734619E1,1.674975827E-2,3.518047571E0,9.449256897E0
3.182745599E1,-3.050848842E-2,3.506681681E0,9.552745819E0
3.184756573E1,3.170489892E-2,3.514458179E0,9.303893089E0
3.186767552E1,1.088734269E-1,3.538984776E0,9.138189316E0
3.188778531E1,1.310070455E-1,3.553939819E0,9.210572243E0
3.190789505E1,7.896314561E-2,3.552145243E0,9.302696228E0
3.192800484E1,3.349951655E-2,3.532404423E0,9.351150513E0
3.194811463E1,9.750752151E-2,3.496512175E0,9.362516403E0
3.196822437E1,1.501496136E-1,3.515056372E0,9.313464165E0
3.198833416E1,1.292124242E-1,3.532404423E0,9.320642471E0
3.200844390E1,1.716850251E-1,3.531208038E0,9.352347374E0
3.202855369E1,2.135594189E-1,3.535993576E0,9.356534958E0
3.204866349E1,2.291127741E-1,3.551547050E0,9.281759262E0
3.206877323E1,2.015953064E-1,3.571287870E0,9.202795982E0
3.208888302E1,1.627119333E-1,3.576073408E0,9.213563919E0
3.210899281E1,1.764706671E-1,3.570091486E0,9.259625435E0
3.212910255E1,1.639083475E-1,3.546761274E0,9.356534958E0
3.214921234E1,1.172483116E-1,3.524627686E0,9.332008362E0
3.216932213E1,1.004985496E-1,3.544368505E0,9.290732384E0
3.218943187E1,1.411765367E-1,3.537788391E0,9.297312737E0
3.220954166E1,1.477568001E-1,3.519842148E0,9.336195946E0
3.222965140E1,1.627119333E-1,3.519842148E0,9.381061554E0
3.224976119E1,1.680957973E-1,3.525225878E0,9.369695663E0
3.226987099E1,1.405783296E-1,3.516851187E0,9.294321060E0
3.228998073E1,1.136590764E-1,3.549752474E0,9.233902931E0
3.231009052E1,1.256231815E-1,3.568296671E0,9.144171715E0
3.233020031E1,1.226321608E-1,3.539582968E0,9.105288506E0
3.235031005E1,1.220339537E-1,3.522234917E0,9.144769669E0
3.237041984E1,2.632104978E-2,3.613162279E0,9.098110199E0
3.239052963E1,5.742774159E-2,3.573082447E0,9.034101486E0
3.241063937E1,1.154536903E-1,3.532404423E0,9.225527763E0
3.243074916E1,1.262213886E-1,3.506083488E0,9.531808853E0
3.245085890E1,9.212367237E-2,3.469592810E0,9.617950439E0
3.247096869E1,7.477571070E-2,3.501895905E0,9.490532875E0
3.249107849E1,1.716850251E-1,3.527618885E0,9.375079155E0
3.251118823E1,2.512463629E-1,3.546163082E0,9.291330338E0
3.253129802E1,1.986042857E-1,3.588635683E0,9.253045082E0
3.255140776E1,1.950150430E-1,3.578466177E0,9.180064201E0
3.257151755E1,2.321037948E-1,3.593421459E0,9.104091644E0
3.259162734E1,2.069791555E-1,3.615555048E0,9.111269951E0
3.261173708E1,2.165504545E-1,3.560520172E0,9.172286987E0
3.263184687E1,2.171486616E-1,3.563511133E0,9.274580956E0
3.265195661E1,2.691925466E-1,3.531806231E0,9.302696228E0
3.267206640E1,2.099701911E-1,3.534797192E0,9.293723106E0
3.269217619E1,1.142572835E-1,3.554538012E0,9.207581520E0
3.271228593E1,1.405783296E-1,3.540181160E0,9.144171715E0
3.273239573E1,1.740778536E-1,3.565305710E0,9.219545364E0
3.275250552E1,1.866401732E-1,3.565903902E0,9.291928291E0
3.277261526E1,2.673979402E-1,3.565903902E0,9.241081238E0
3.279272505E1,3.116651475E-1,3.573082447E0,9.080761909E0
3.281283479E1,1.998006850E-1,3.590430260E0,9.008378983E0
3.283294458E1,1.196411327E-1,3.546163082E0,9.145368576E0
3.285305437E1,2.572284266E-2,3.533600807E0,9.363713264E0
3.287316411E1,-4.366901144E-2,3.501895905E0,9.517452240E0
3.289327390E1,-2.572284266E-2,3.510270834E0,9.433105469E0
3.291338364E1,3.349951655E-2,3.548556089E0,9.334999084E0
3.293349343E1,9.810572863E-2,3.526422262E0,9.384052277E0
3.295360323E1,7.298108935E-2,3.591028690E0,9.396016121E0
3.297371297E1,8.554340899E-2,3.656831264E0,9.296713829E0
3.299382276E1,1.094716340E-1,3.607778311E0,9.227322578E0
3.301393250E1,1.531406492E-1,3.574877024E0,9.286544800E0
3.303404229E1,1.668993831E-1,3.556332588E0,9.361918449E0
3.305415208E1,1.890329868E-1,3.518047571E0,9.452247620E0
3.307426182E1,1.776670814E-1,3.537788391E0,9.463015556E0
3.309437161E1,2.111666054E-1,3.530609846E0,9.413364410E0
3.311448135E1,2.572284341E-1,3.565903902E0,9.215357780E0
3.313459114E1,2.297109663E-1,3.572484255E0,9.027522087E0
3.315470093E1,1.603191197E-1,3.515654564E0,9.147761345E0
3.317481067E1,5.623133108E-2,3.524627686E0,9.305686951E0
3.319492046E1,6.460621208E-2,3.497110367E0,9.242876053E0
3.321503021E1,1.579262912E-1,3.482155085E0,9.181859016E0
3.323514000E1,1.692921966E-1,3.497110367E0,9.180662155E0
3.325524979E1,3.050848842E-2,3.474976778E0,9.142376900E0
3.327535953E1,-4.187439568E-3,3.460619688E0,9.177073479E0
3.329546932E1,4.845465720E-2,3.436691523E0,9.339186668E0
3.331557906E1,8.374879509E-2,3.406781197E0,9.431908607E0
3.333568885E1,1.286142170E-1,3.431905985E0,9.357730865E0
3.335579859E1,2.201396823E-1,3.493520975E0,9.265607834E0
3.337590838E1,2.398804724E-1,3.519842148E0,9.246464729E0
3.339601817E1,1.674975902E-1,3.504288673E0,9.225527763E0
3.341612791E1,7.896314561E-2,3.483949661E0,9.253643036E0
3.343623770E1,8.673982322E-2,3.459423304E0,9.344570160E0
3.345634744E1,1.764706671E-1,3.459423304E0,9.348159790E0
3.347645724E1,2.590230405E-1,3.468396425E0,9.244071960E0
3.349656703E1,3.074777126E-1,3.482155085E0,9.213563919E0
3.351667677E1,3.266202807E-1,3.471387386E0,9.326624870E0
3.353678656E1,2.261217386E-1,3.446262836E0,9.359525681E0
3.355689630E1,7.956135273E-2,3.509074450E0,9.121439934E0
3.357700609E1,1.082752272E-1,3.541377544E0,8.867800713E0
3.359711588E1,2.057827413E-1,3.467200041E0,9.033503532E0
3.361722562E1,9.870393574E-2,3.423531055E0,9.587442398E0
3.363733541E1,-2.871387079E-2,3.367897987E0,9.830313683E0
3.365744515E1,-1.495514158E-2,3.399602890E0,9.625128746E0
3.367755494E1,6.759724021E-2,3.434896946E0,9.373284340E0
3.369766468E1,2.195414752E-1,3.430111170E0,9.370293617E0
3.371777448E1,2.273181528E-1,3.454637766E0,9.418149948E0
3.373788427E1,1.752742529E-1,3.407977581E0,9.405587196E0
3.375799401E1,1.854437590E-1,3.400799274E0,9.439086914E0
3.377810380E1,2.111666054E-1,3.431307554E0,9.347561836E0
3.379821354E1,2.165504545E-1,3.417548895E0,9.250054359E0
3.381832333E1,2.919243574E-1,3.419941664E0,9.230911255E0
3.383843307E1,3.326023519E-1,3.417548895E0,9.287142754E0
3.385854286E1,1.226321608E-1,3.327818155E0,9.209974289E0
3.387865265E1,-2.015953064E-1,3.290131092E0,9.303893089E0
3.389876239E1,1.752742529E-1,3.337389469E0,9.364311218E0
3.391887218E1,2.506481707E-1,3.418745279E0,9.254241943E0
3.393898192E1,4.791627228E-1,3.431905985E0,9.176474571E0
3.395909172E1,4.289134443E-1,3.483351469E0,9.384052277E0
3.397920146E1,-5.982056726E-3,3.425325632E0,9.564111710E0
3.399931125E1,-8.195417374E-2,3.358924866E0,9.710672379E0
3.401942104E1,1.794617027E-1,3.435495138E0,9.754341125E0
3.403953078E1,3.900300860E-1,3.500699520E0,9.486345291E0
3.405964057E1,3.732803464E-1,3.510270834E0,9.209974289E0
3.407975031E1,2.614158690E-1,3.477967739E0,9.184849739E0
3.409986010E1,1.477568001E-1,3.449253798E0,9.330811501E0
3.411996984E1,1.292124242E-1,3.378665686E0,9.415757179E0
3.414007963E1,1.387837082E-1,3.355933666E0,9.363713264E0
3.416018942E1,8.554340899E-2,3.460619688E0,9.083154678E0
3.418029916E1,5.383851007E-2,3.496512175E0,8.846863747E0
3.420040896E1,4.666004330E-2,3.424727440E0,9.039485931E0
3.422051869E1,-2.273181453E-2,3.375674486E0,9.466006279E0
3.424062849E1,-5.204389244E-2,3.345165968E0,9.694520950E0
3.426073823E1,-6.161518395E-2,3.332603693E0,9.530612946E0
3.428084802E1,-2.991028363E-3,3.334398270E0,9.323633194E0
3.430095776E1,9.511470050E-2,3.380460262E0,9.339186668E0
3.432106755E1,8.673982322E-2,3.407379389E0,9.361320496E0
3.434117729E1,8.075776696E-2,3.370888948E0,9.261420250E0
3.436128708E1,1.022931710E-1,3.378067255E0,9.158528328E0
3.438139687E1,1.178465188E-1,3.403790236E0,9.214759827E0
3.440150661E1,7.776673883E-2,3.348157167E0,9.287740707E0
3.442161640E1,-9.571290575E-3,3.364308596E0,9.294321060E0
3.444172614E1,5.922235921E-2,3.407379389E0,9.467801094E0
3.446183593E1,1.956132501E-1,3.410968781E0,9.231510162E0
3.448194567E1,1.902294010E-1,3.463610888E0,9.130413055E0
3.450205547E1,1.148554832E-1,3.470789194E0,9.376873970E0
3.452216520E1,7.896314561E-2,3.440878868E0,9.517452240E0
3.454227500E1,1.328016520E-1,3.427718401E0,9.528818130E0
3.456238479E1,2.554338276E-1,3.477967739E0,9.452247620E0
3.458249453E1,2.548356056E-1,3.477369547E0,9.446864128E0
3.460260432E1,1.387837082E-1,3.483949661E0,9.436694145E0
3.462271406E1,1.118644550E-1,3.482155085E0,9.386445045E0
3.464282385E1,1.016949639E-1,3.465405464E0,9.405587196E0
3.466293359E1,9.870393574E-2,3.413959742E0,9.317052841E0
3.468304338E1,7.058826834E-2,3.419343472E0,9.172885895E0
3.470315312E1,5.862415582E-2,3.401397467E0,9.184849739E0
3.472326291E1,7.118647546E-2,3.418147087E0,9.144769669E0
3.474337270E1,1.052841991E-1,3.407379389E0,9.202795982E0
3.476348244E1,-4.366901144E-2,3.387638569E0,9.671191216E0
3.478359224E1,-1.166501045E-1,3.361317635E0,9.979865074E0
3.480370198E1,4.247260094E-2,3.513261795E0,8.170890808E0
3.482381177E1,4.504488707E-1,3.501895905E0,5.875576019E0
3.484392151E1,-2.931207791E-2,3.187239647E0,9.913464546E0
3.486403130E1,-5.240281820E-1,3.249453068E0,1.215434265E1
3.488414104E1,-2.727817893E-1,3.071187973E0,1.223210907E1
