"Time (s)","Gyroscope x (rad/s)","Gyroscope y (rad/s)","Gyroscope z (rad/s)"
2.635517500E-2,3.461976945E-1,-2.485384792E-1,-3.939964995E-2
4.646496700E-2,2.901524538E-3,-7.444700599E-2,4.703523964E-2
6.657470700E-2,-1.876828223E-1,1.966164559E-1,8.643488586E-2
8.668444600E-2,-1.598892659E-1,2.303657681E-1,1.197260618E-1
1.067941860E-1,1.099525020E-2,1.028514057E-1,1.105633527E-1
1.269039250E-1,1.649287641E-1,-4.573718831E-2,6.642963737E-2
1.470137170E-1,1.637070626E-1,-1.222458109E-1,4.306473210E-2
1.671234570E-1,4.993676394E-2,-9.460496902E-2,6.306997687E-2
1.872331960E-1,-4.520269856E-2,-3.901786730E-2,1.087308154E-1
2.073429360E-1,-5.192201585E-2,1.336228382E-2,1.351499557E-1
2.274527270E-1,7.635590737E-4,6.696412712E-2,1.197260618E-1
2.475624670E-1,5.803048983E-2,8.131904155E-2,9.086353332E-2
2.676722070E-1,8.368607610E-2,3.917058185E-2,6.887302548E-2
2.877819460E-1,8.322793990E-2,3.321481869E-2,6.016845629E-2
3.078917380E-1,6.642963737E-2,8.849649876E-2,4.581354558E-2
3.280014770E-1,2.687728032E-2,1.194969937E-1,2.321219631E-2
3.481112170E-1,-2.519745007E-2,9.200886637E-2,1.221694518E-3
3.682209570E-1,-6.200099736E-2,7.398887724E-2,-2.061609551E-2
3.883307480E-1,-6.688777357E-2,8.223531395E-2,-3.695625812E-2
4.084404880E-1,-3.038965166E-2,7.979192585E-2,-4.291202128E-2
4.285502270E-1,2.321219631E-2,9.078717232E-2,-4.016320780E-2
4.486599670E-1,4.520269856E-2,7.841751724E-2,-3.726168349E-2
4.687697590E-1,2.336490713E-2,2.420482226E-2,-2.764083818E-2
4.888794980E-1,-1.374406368E-2,-2.878617682E-2,-2.229592577E-2
5.089892380E-1,-2.779355086E-2,1.351499557E-2,-3.497100621E-2
5.290989770E-1,-1.969982497E-2,1.187334359E-1,-5.558710173E-2
5.492087690E-1,-1.038440317E-2,1.576749533E-1,-5.803048983E-2
5.693185090E-1,-1.359135192E-2,1.199551299E-1,-6.016845629E-2
5.894282480E-1,-2.275406010E-2,7.353074104E-2,-7.162184268E-2
6.095380400E-1,-1.435491070E-2,8.116632700E-2,-8.246438205E-2
6.296477790E-1,1.236965694E-2,1.033095419E-1,-7.421794534E-2
6.497575190E-1,2.993151546E-2,8.895463496E-2,-5.268557742E-2
6.698672590E-1,3.894151375E-2,5.047125369E-2,-2.825168520E-2
6.899770500E-1,4.520269856E-2,2.771719359E-2,-1.343864016E-2
7.100867900E-1,4.856235534E-2,4.191939160E-2,-6.872031838E-3
7.301965290E-1,5.497625470E-2,8.162446320E-2,-4.886778072E-3
7.503063210E-1,5.070032179E-2,6.238277629E-2,-1.221694518E-3
7.704160610E-1,2.367033064E-2,-1.580567285E-2,-4.581354442E-4
7.905258000E-1,-2.092151903E-2,-5.932854116E-2,-7.024743594E-3
8.106355400E-1,-4.214845970E-2,-2.160872146E-2,-4.886778072E-3
8.307453320E-1,-4.046862945E-2,4.100312293E-2,-3.206948051E-3
8.508550710E-1,-3.329117596E-2,8.177717775E-2,1.053711493E-2
8.709648110E-1,-3.283303976E-2,5.856497958E-2,2.886253223E-2
8.910746020E-1,-3.665083647E-2,-1.718007959E-2,4.230117425E-2
9.111843420E-1,-3.161134571E-2,-7.230904698E-2,4.734066129E-2
9.312940820E-1,-3.390202299E-2,-5.932854116E-2,2.718270384E-2
9.514038730E-1,-4.382828996E-2,-1.656923257E-2,7.788302377E-3
9.715136130E-1,-6.444438547E-2,-2.825168660E-3,7.635590737E-4
9.916233520E-1,-7.192726433E-2,-1.061347127E-2,9.162708884E-4
1.011733144E0,-5.482354015E-2,-4.046862945E-3,-1.084253844E-2
1.031842884E0,-2.748812735E-2,1.641651988E-2,-3.329117596E-2
1.051952623E0,-1.572931744E-2,2.893888950E-2,-5.008947477E-2
1.072062415E0,-3.680354729E-2,-3.894151188E-3,-7.085828483E-2
1.092172154E0,-6.306997687E-2,-3.886515647E-2,-9.269607067E-2
1.112281894E0,-7.101099193E-2,-3.245126083E-2,-1.142284349E-1
1.132391686E0,-7.207997888E-2,-1.366770733E-2,-1.168245375E-1
1.152501425E0,-8.536590636E-2,-1.229330152E-2,-1.056765765E-1
1.172611165E0,-9.590301663E-2,-1.320957206E-2,-8.628217876E-2
1.192720957E0,-8.139539510E-2,-1.733279042E-2,-7.864658535E-2
1.212830696E0,-5.925218388E-2,-2.221956849E-2,-7.116370648E-2
1.232940436E0,-4.657710344E-2,6.032116711E-3,-4.337015375E-2
1.253050227E0,-4.046862945E-2,2.863346599E-2,-2.336490713E-2
1.273159967E0,-1.969982497E-2,2.038702741E-2,-1.450762246E-2
1.293269707E0,1.634016447E-2,8.399150101E-4,-6.108472589E-4
1.313379498E0,4.566083103E-2,-3.229855001E-2,1.679829881E-2
1.333489238E0,5.421269313E-2,-5.963396281E-2,3.542914242E-2
1.353598977E0,6.016845629E-2,-4.146125913E-2,6.429167092E-2
1.373708769E0,5.619794875E-2,-3.367295489E-2,7.635590434E-2
1.393818509E0,4.566083103E-2,-4.894413799E-2,6.826218218E-2
1.413928248E0,4.718795046E-2,-4.955498502E-2,5.543438718E-2
1.434038040E0,5.314370990E-2,-3.520007432E-2,4.627167806E-2
1.454147779E0,6.795676053E-2,-2.038702741E-2,3.527642787E-2
1.474257519E0,8.338065445E-2,1.908897655E-3,2.092151903E-2
1.494367311E0,8.842013776E-2,2.771719359E-2,1.527118124E-2
1.514477050E0,6.597150117E-2,3.581092134E-2,6.566607859E-3
1.534586842E0,1.695101149E-2,2.420482226E-2,-7.024743594E-3
1.554696582E0,-3.909422457E-2,1.488940232E-2,-1.801999472E-2
1.574806321E0,-6.536065787E-2,1.779092662E-2,-1.374406368E-2
1.594916113E0,-5.787777901E-2,2.588465251E-2,-7.024743594E-3
1.615025852E0,-3.970507160E-2,4.787515476E-2,-2.137965523E-3
1.635135592E0,-2.290677279E-2,5.566345528E-2,1.359135192E-2
1.655245384E0,1.007897966E-2,6.299362332E-2,4.046862945E-2
1.675355123E0,4.627167806E-2,6.681142002E-2,6.352811307E-2
1.695464915E0,6.887302548E-2,6.009209901E-2,7.666133344E-2
1.715574654E0,6.230641901E-2,3.214583546E-2,8.231166750E-2
1.735684446E0,3.833066672E-2,2.512109280E-2,7.757759839E-2
1.755794186E0,2.748812549E-3,2.817532979E-2,5.726693198E-2
1.775903925E0,-3.023693897E-2,7.253811229E-3,4.627167806E-2
1.796013717E0,-2.367033064E-2,3.840702027E-2,4.489727318E-2
1.816123457E0,1.313321572E-2,6.742226332E-2,2.687728032E-2
1.836233196E0,9.926267713E-2,5.077667907E-2,2.031067200E-2
1.856342988E0,2.034121305E-1,6.833853573E-2,4.734066315E-3
1.876452727E0,2.278460264E-1,7.444700599E-2,-2.443389036E-2
1.896562519E0,1.627907902E-1,7.444700599E-2,-4.459185153E-2
1.916672259E0,5.650337040E-2,7.108735293E-2,-6.383354217E-2
1.936781998E0,-4.046862945E-2,1.580567285E-2,-8.032641560E-2
1.956891790E0,-1.014006436E-1,-4.879142344E-2,-9.422318637E-2
1.977001529E0,-1.010952219E-1,-5.459447205E-2,-9.407047927E-2
1.997111269E0,-5.619794875E-2,-1.641651988E-2,-8.429691941E-2
2.017221061E0,-3.054236295E-4,2.481566928E-2,-5.741964281E-2
2.037330800E0,1.511846948E-2,2.344126441E-2,-2.825168520E-2
2.057440592E0,-3.237490356E-2,-4.176668078E-2,-5.344913341E-3
2.077550332E0,-8.322793990E-2,-9.735377878E-2,1.908897609E-2
2.097660123E0,-7.757759839E-2,-7.383616269E-2,3.374931216E-2
2.117769863E0,-1.954711229E-2,1.488940232E-2,3.939964995E-2
2.137879602E0,7.330167107E-3,4.451549426E-2,3.771981969E-2
2.157989394E0,-1.863084175E-2,2.825168660E-3,4.367557913E-2
2.178099134E0,-5.986303091E-2,-4.237752780E-2,4.688252881E-2
2.198208925E0,-6.490252167E-2,-5.398362502E-2,5.360184610E-2
2.218318665E0,-4.123219103E-2,-4.863871261E-2,5.696150661E-2
2.238428457E0,-1.007897966E-2,-2.954973653E-2,6.642963737E-2
2.258538196E0,1.939439960E-2,-1.565296017E-2,7.910472155E-2
2.278647936E0,3.161134571E-2,-1.275143679E-2,8.414421231E-2
2.298757727E0,1.985253580E-2,-3.733803704E-2,8.399149776E-2
2.318867467E0,-1.221694518E-3,-7.857023180E-2,7.528692484E-2
2.338977259E0,2.275406010E-2,-2.741177008E-2,6.398624927E-2
2.359086998E0,7.330167294E-2,4.115583375E-2,5.329642445E-2
2.379196790E0,1.085781008E-1,5.917582661E-2,5.070032179E-2
2.399306529E0,1.091889441E-1,6.100837141E-2,4.184303805E-2
2.419416321E0,5.329642445E-2,5.138752609E-2,9.315420873E-3
2.439526061E0,-1.603474095E-2,4.085041210E-2,-1.832541823E-2
2.459635800E0,-5.008947477E-2,4.069769755E-2,-3.588727489E-2
2.479745592E0,-3.878879920E-2,5.596888065E-2,-3.817795217E-2
2.499855332E0,-1.572931744E-2,3.703261539E-2,-4.107947648E-2
2.519965123E0,1.191152167E-2,3.703261539E-2,-3.924693540E-2
2.540074863E0,2.458660305E-2,7.414158434E-2,-3.619270027E-2
2.560184654E0,1.786728203E-2,9.017632902E-2,-2.458660305E-2
2.580294394E0,7.024743594E-3,6.131379306E-2,-2.046338283E-2
2.600404186E0,3.665083554E-3,1.550024934E-2,-2.855710872E-2
2.620513925E0,1.298050396E-2,-3.436015919E-3,-3.939964995E-2
2.640623665E0,2.641914412E-2,2.145601064E-2,-4.184303805E-2
2.660733457E0,4.107947648E-2,5.703786388E-2,-2.870982140E-2
2.680843196E0,4.092676565E-2,2.420482226E-2,-2.015795931E-2
2.700952988E0,3.802524135E-2,-2.573194169E-2,-1.282779220E-2
2.721062727E0,3.634541109E-2,-5.031854287E-2,-1.435491070E-2
2.741172519E0,5.085303262E-2,-1.504211407E-2,-2.443389036E-3
2.761282259E0,9.269607067E-2,-2.008160390E-2,1.527118124E-2
2.781392050E0,1.696628332E-1,-2.344126441E-2,3.527642787E-2
2.801501790E0,2.363978922E-1,-1.305686031E-2,4.825693369E-2
2.821611582E0,2.402156889E-1,1.748550311E-2,4.321744293E-2
2.841721321E0,1.615691036E-1,5.612159148E-2,1.832541823E-2
2.861831113E0,3.069507517E-2,8.116632700E-2,-9.773556143E-3
2.881940852E0,-8.185353130E-2,6.406260282E-2,-2.336490713E-2
2.902050644E0,-1.075091213E-1,4.955498502E-2,-3.237490356E-2
2.922160384E0,-5.054761097E-2,1.269798726E-1,-4.443913698E-2
2.942270123E0,-1.328592747E-2,2.712925375E-1,-3.924693540E-2
2.962379915E0,-4.917320609E-2,1.924932450E-1,1.007897966E-2
2.982489654E0,-1.087308154E-1,9.391776286E-3,5.879404768E-2
3.002599446E0,-1.328592747E-1,-3.825430945E-2,7.543963939E-2
3.022709186E0,-1.278197914E-1,-2.435753495E-2,8.139539510E-2
3.042818977E0,-1.149920002E-1,-4.955498502E-2,7.849387079E-2
3.062928717E0,-8.735115826E-2,-5.596888065E-2,7.589777559E-2
3.083038509E0,-4.199574888E-2,-4.497363046E-2,8.322793990E-2
3.103148248E0,7.941014133E-3,-4.421006888E-2,7.116370648E-2
3.123258040E0,3.283303976E-2,-4.314108938E-2,4.978405312E-2
3.143367779E0,2.886253223E-2,-5.306735635E-2,5.054761097E-2
3.163477571E0,9.773556143E-3,-6.650599837E-2,5.146388337E-2
3.183587311E0,-1.053711493E-2,-9.048175067E-2,3.573456407E-2
3.203697102E0,-7.941014133E-3,-7.536327839E-2,1.068982668E-2
3.223806842E0,1.404948719E-2,-3.000787087E-2,-2.489202656E-2
3.243916634E0,2.107422985E-2,-3.886515647E-2,-5.115845799E-2
3.264026373E0,-3.054236295E-4,-6.024480984E-2,-5.528167635E-2
3.284136165E0,-1.374406368E-2,-3.764346242E-2,-5.650337040E-2
3.304245904E0,-8.399149403E-3,9.926267667E-4,-7.528692484E-2
3.324355696E0,7.024743594E-3,2.237228118E-2,-9.071081877E-2
3.344465436E0,7.482878864E-3,4.810422193E-3,-9.559759498E-2
3.364575227E0,-6.413896102E-3,-1.779092662E-2,-8.200624585E-2
3.384684967E0,-3.252761811E-2,-3.306210786E-2,-6.749862432E-2
3.404794759E0,-4.779879749E-2,-1.977618039E-2,-5.482354015E-2
3.424904498E0,-4.092676565E-2,-1.168245357E-2,-4.963133857E-2
3.445014290E0,-2.733541466E-2,-9.849912487E-3,-5.375456065E-2
3.465124029E0,-1.389677543E-2,-2.435753495E-2,-4.886778072E-2
3.485233821E0,1.695101149E-2,-2.603736520E-2,-3.115320951E-2
3.505343561E0,6.276455522E-2,7.253811229E-3,-1.221694518E-2
3.525453352E0,8.521319181E-2,3.229855001E-2,-0.000000000E0
3.545563092E0,5.894676223E-2,1.030804776E-2,-6.872031838E-3
3.565672884E0,6.872031838E-3,-1.916533336E-2,-2.840439789E-2
3.585782623E0,-1.343864016E-2,-3.046600707E-2,-3.817795217E-2
3.605892415E0,1.557660475E-2,-1.763821393E-2,-2.199050039E-2
3.626002207E0,4.825693369E-2,-1.275143679E-2,-1.679830020E-3
3.646111946E0,4.550812021E-2,-2.954973653E-2,5.344913341E-3
3.666221738E0,2.153236605E-2,-4.543176666E-2,6.108472589E-3
3.686331477E0,1.130067464E-2,-3.168770298E-2,2.596100792E-3
3.706441269E0,2.840439789E-2,-4.199574701E-3,2.290677279E-3
3.726551009E0,4.749337584E-2,-5.726693198E-3,1.908897609E-2
3.746660800E0,5.726693198E-2,-1.336228382E-2,3.710897267E-2
3.766770540E0,6.215370819E-2,1.229330152E-2,3.451287001E-2
3.786880332E0,5.665608495E-2,1.733279042E-2,2.031067200E-2
3.806990071E0,4.840964451E-2,5.344913807E-4,1.496575773E-2
3.827099863E0,3.634541109E-2,-1.305686031E-2,1.374406274E-3
3.847209602E0,2.428117767E-2,7.253811229E-3,-1.527118124E-2
3.867319394E0,-1.038440317E-2,7.864658721E-3,-3.161134571E-2
3.887429134E0,-5.085303262E-2,-1.145338640E-3,-3.497100621E-2
3.907538925E0,-3.909422457E-2,-6.032116711E-3,-3.665083647E-2
3.927648717E0,3.237490356E-2,1.962346770E-2,-4.428642616E-2
3.947758457E0,4.840964451E-2,1.473669056E-2,-5.665608495E-2
3.967868248E0,5.039489828E-3,-2.771719359E-2,-4.810422286E-2
3.987977988E0,-2.107422985E-2,-3.199312463E-2,-4.535540938E-2
4.008087779E0,-1.527118124E-2,-1.259872504E-2,-6.963659078E-2
4.028197519E0,-8.246437646E-3,7.635590737E-5,-9.376505762E-2
4.048307311E0,-2.137965336E-2,-7.635590737E-5,-1.006370857E-1
4.068417050E0,-4.550812021E-2,-1.000262424E-2,-9.498675168E-2
4.088526842E0,-4.963133857E-2,-8.170082234E-3,-8.628217876E-2
4.108636634E0,-3.268032894E-2,4.963133950E-3,-8.017370105E-2
4.128746373E0,-7.024743594E-3,5.573981442E-3,-6.872031838E-2
4.148856165E0,7.788302377E-3,-6.490251981E-3,-6.688777357E-2
4.168965904E0,-3.970507067E-3,-1.198787708E-2,-6.429167092E-2
4.189075696E0,-2.901524492E-2,-7.711946499E-3,-5.986303091E-2
4.209185436E0,-4.963133857E-2,2.214321401E-3,-5.497625470E-2
4.229295227E0,-5.497625470E-2,-1.168245357E-2,-5.268557742E-2
4.249404967E0,-3.359659761E-2,-8.475505747E-3,-4.779879749E-2
4.269514759E0,-4.275931045E-3,2.603736520E-2,-5.222744122E-2
4.289624550E0,-2.748812735E-2,5.344913807E-4,-6.688777357E-2
4.309734290E0,-9.071081877E-2,-3.779617324E-2,-7.559234649E-2
4.329844082E0,-1.206423342E-1,-2.328855172E-2,-6.658235192E-2
4.349953821E0,-6.765133142E-2,4.634803534E-2,-4.642439261E-2
4.370063613E0,5.497625098E-3,5.459447205E-2,-3.008422814E-2
4.390173352E0,2.687728032E-2,-1.046075951E-2,-1.863084175E-2
4.410283144E0,-1.786728203E-2,-3.779617324E-2,-2.000524849E-2
4.430392936E0,-7.207997888E-2,2.420482226E-2,-2.153236605E-2
4.450502675E0,-9.009996802E-2,7.643226534E-2,-3.115320951E-2
4.470612467E0,-5.909947306E-2,7.017108053E-2,-4.703523964E-2
4.490722207E0,-2.870982140E-2,5.268557463E-3,-6.887302548E-2
4.510831998E0,-3.588727489E-2,-1.733279042E-2,-6.688777357E-2
4.530941790E0,-8.307522535E-2,3.642176837E-2,-5.421269313E-2
4.551051529E0,-1.392731816E-1,7.200361788E-2,-4.077405483E-2
4.571161321E0,-1.745496094E-1,6.818582863E-2,-4.367557913E-2
4.591271061E0,-1.922641695E-1,4.023956135E-2,-5.787777901E-2
4.611380852E0,-2.012741715E-1,-2.970244735E-2,-5.848862603E-2
4.631490592E0,-1.621799469E-1,-5.367820337E-2,-3.161134571E-2
4.651600384E0,-8.796200156E-2,1.336228382E-2,-1.068982668E-2
4.671710175E0,-3.771981969E-2,6.207735091E-2,1.496575773E-2
4.691819915E0,-2.305948362E-2,6.788039953E-2,3.069507517E-2
4.711929707E0,-3.283303976E-2,1.091889478E-2,5.955760833E-3
4.732039446E0,-4.398100078E-2,-4.359922186E-2,-2.718270384E-2
4.752149238E0,-8.383878320E-2,-5.291464552E-2,-5.711421743E-2
4.772259029E0,-1.412584335E-1,-6.314633787E-2,-5.787777901E-2
4.792368769E0,-1.516428292E-1,-7.719582319E-2,-3.084778599E-2
4.812478561E0,-7.895200700E-2,-7.276718318E-2,-2.031067200E-2
4.832588300E0,1.328592747E-2,-9.659022093E-2,-4.016320780E-2
4.852698092E0,5.741964281E-2,-1.065164879E-1,-5.955760926E-2
4.872807884E0,5.253286287E-2,-1.011715755E-1,-8.047912270E-2
4.892917623E0,3.451287001E-2,-5.825955793E-2,-8.567132801E-2
4.913027415E0,3.573456407E-2,-1.488940232E-2,-9.086353332E-2
4.933137154E0,3.955236077E-2,-1.168245357E-2,-1.194206402E-1
4.953246946E0,3.374931216E-2,-5.726693198E-3,-1.250709742E-1
4.973356738E0,-1.527118147E-3,-8.017370477E-3,-1.061347127E-1
4.993466477E0,-6.841489673E-2,-1.931804419E-2,-8.139539510E-2
5.013576269E0,-1.122431830E-1,-3.352024406E-2,-4.489727318E-2
5.033686009E0,-9.239064902E-2,-3.871244565E-2,-1.420219894E-2
5.053795800E0,-3.558185324E-2,-2.481566928E-2,1.175880991E-2
5.073905592E0,-5.955760833E-3,-3.458922729E-2,3.741439432E-2
5.094015332E0,-1.679830020E-3,-6.406260282E-2,5.405998230E-2
5.114125123E0,2.275406010E-2,-5.703786388E-2,5.696150661E-2
5.134234863E0,8.383878320E-2,-2.008160390E-2,6.597150117E-2
5.154344654E0,1.501157135E-1,1.351499557E-2,7.177454978E-2
5.174454446E0,1.901262105E-1,2.283041552E-2,5.894676223E-2
5.194564186E0,1.965401024E-1,4.810422193E-3,2.458660305E-2
5.214673977E0,2.084516287E-1,1.030804776E-2,-1.298050396E-2
5.234783769E0,2.362451702E-1,1.412584260E-2,-5.253286287E-2
5.254893509E0,2.452551723E-1,1.840177365E-2,-7.040014863E-2
5.275003300E0,2.159345001E-1,4.046862945E-3,-6.872031838E-2
5.295113040E0,1.782146841E-1,-3.474193811E-2,-6.704048812E-2
5.315222832E0,1.808107942E-1,-4.756972939E-2,-6.139015034E-2
5.335332623E0,1.779092699E-1,-6.482616812E-2,-6.215370819E-2
5.355442363E0,1.111742035E-1,-6.772769243E-2,-1.801999472E-2
5.375552154E0,-6.261184346E-3,-1.114032716E-1,3.069507517E-2
5.395661894E0,-1.107160673E-1,-1.537044346E-1,4.672981426E-2
5.415771686E0,-1.513374150E-1,-1.066692024E-1,6.383354217E-2
5.435881477E0,-9.926267713E-2,-7.406522986E-3,5.008947477E-2
5.455991217E0,1.695101149E-2,6.314633787E-2,4.886778072E-3
5.476101009E0,1.079672500E-1,-2.519744914E-3,-5.100574717E-2
5.496210800E0,7.864658535E-2,-1.065164879E-1,-7.498150319E-2
5.516320540E0,-1.186570823E-1,-2.085279822E-1,-1.003316641E-1
5.536430332E0,-3.523061574E-1,-2.694599926E-1,-1.478250325E-1
5.556540071E0,-4.764608741E-1,-3.360423446E-1,-1.928750277E-1
5.576649863E0,-4.340069890E-1,-1.766112149E-1,-1.569877416E-1
5.596759654E0,-2.522799075E-1,1.046839505E-1,-7.773031294E-2
5.616869394E0,4.566083103E-2,4.093440175E-1,-6.719319522E-2
5.636979186E0,2.454078794E-1,4.313345253E-1,-1.656923145E-1
5.657088977E0,2.192941606E-1,1.553842723E-1,-2.163926363E-1
5.677198717E0,1.276670843E-1,-2.160872146E-2,-2.151709497E-1
5.697308509E0,4.046862945E-2,-1.721825749E-1,-2.055501044E-1
5.717418300E0,1.084253844E-2,-2.460950911E-1,-1.545443535E-1
5.737528040E0,-5.803049076E-3,-1.465269923E-1,-4.443913698E-2
5.757637832E0,-1.221694518E-3,-1.763821393E-2,9.712471068E-2
5.777747571E0,-9.559759498E-2,6.528430432E-2,8.353336155E-2
5.797857363E0,-3.084778786E-1,6.070294604E-2,9.804098308E-2
5.817967154E0,-3.529170156E-1,3.184041381E-2,1.550024897E-1
5.838076894E0,-2.341072112E-1,8.727480471E-2,8.032641560E-2
5.858186686E0,-1.374406274E-3,1.259872504E-2,-6.291726977E-2
5.878296477E0,2.295258641E-1,-1.120141149E-1,-1.455343664E-1
5.898406217E0,3.559712470E-1,-1.631725729E-1,-1.756185889E-1
5.918516009E0,3.828485310E-1,-1.789018959E-1,-1.731752008E-1
5.938625800E0,3.845283389E-1,-4.497363046E-2,1.644706279E-1
5.958735540E0,3.582619131E-1,1.170536056E-1,3.559712470E-1
5.978845332E0,1.901262105E-1,1.350736022E-1,1.748550236E-1
5.998955123E0,5.787777901E-2,9.239064530E-3,7.406523079E-2
6.019064863E0,-4.153761268E-2,-5.764871091E-2,-2.412846684E-2
6.039174654E0,-5.879404768E-2,-1.230093688E-1,-7.727217674E-2
6.059284394E0,8.872556686E-2,-6.497887522E-2,-1.232384369E-1
6.079394186E0,3.211529553E-1,-9.277242422E-2,-1.250709742E-1
6.099503977E0,4.898995161E-1,-1.381278336E-1,-9.773556143E-2
6.119613717E0,4.506525695E-1,-8.528954536E-2,-9.147437662E-2
6.139723509E0,2.951919436E-1,-3.871244565E-2,-1.695101149E-2
6.159833300E0,1.698155403E-1,1.051420867E-1,9.575030953E-2
6.179943040E0,9.544488788E-2,2.990860939E-1,1.429382563E-1
6.200052832E0,-7.177455351E-3,4.743992388E-1,8.567132801E-2
6.220162623E0,-1.055238619E-1,2.528144121E-1,1.927223057E-1
6.240272363E0,-1.713426560E-1,1.993652731E-1,2.550287247E-1
6.260382154E0,-2.580829561E-1,2.311293334E-1,1.612636745E-1
6.280491946E0,-3.272614181E-1,3.862845302E-1,1.229330078E-1
6.300601686E0,-3.906368315E-1,3.117611706E-1,1.331647038E-1
6.320711477E0,-4.086568058E-1,1.680593491E-1,9.559759498E-2
6.340821269E0,-2.724378705E-1,4.329380020E-2,-2.382304333E-2
6.360931009E0,1.740914769E-2,-1.599656194E-1,-2.606790662E-1
6.381040800E0,1.860029846E-1,-5.841226876E-2,-5.483881235E-1
6.401150592E0,4.001049697E-2,-1.285069883E-1,-6.812474132E-1
6.421260332E0,-1.270562261E-1,6.795675959E-3,-5.008947253E-1
6.441370123E0,-9.880454093E-2,1.911188364E-1,-1.159082651E-1
6.461479915E0,2.913741469E-1,-1.840177365E-2,1.519482583E-1
6.481589654E0,7.354601026E-1,2.145601064E-2,-2.840439789E-2
6.501699446E0,1.170688748E0,-4.647783935E-1,-3.003841341E-1
6.521809238E0,1.542007565E0,-1.274914622E0,-2.651077211E-1
6.541918977E0,1.460154057E0,-2.501266718E0,1.012479365E-1
6.562028769E0,1.048213840E0,-1.294614434E0,4.892886579E-1
6.582138561E0,5.485408306E-1,2.060845941E-1,5.097520351E-1
6.602248300E0,-4.138490185E-2,8.850412965E-1,3.739912212E-1
6.622358092E0,-6.114581227E-1,1.040043831E0,4.474456310E-1
6.642467884E0,-7.835643291E-1,1.257963538E0,6.481089592E-1
6.662577623E0,-7.498149872E-1,9.346726537E-1,6.850652099E-1
6.682687415E0,-5.818319917E-1,9.414683282E-2,3.461976945E-1
6.702797207E0,-3.762819171E-1,-1.953947693E-1,4.902049154E-2
6.722906946E0,-5.299099684E-1,1.708081663E-1,-7.177454978E-2
6.743016738E0,-6.653653979E-1,5.831300616E-1,-8.429691941E-2
6.763126529E0,-6.497887969E-1,4.956261814E-1,-2.840439789E-2
6.783236269E0,-4.372139275E-1,5.365529656E-1,5.375456065E-2
6.803346061E0,-2.802261710E-1,5.887804031E-1,-6.261184067E-2
6.823455852E0,-2.345653474E-1,2.914505005E-1,-1.944021434E-1
6.843565644E0,-1.847812980E-1,-4.504998680E-3,-2.017323077E-1
6.863675384E0,-1.207950488E-1,-2.648786306E-1,-1.290414780E-1
6.883785175E0,-4.275930673E-2,-4.504235089E-1,-4.810422286E-2
6.903894967E0,3.252761811E-2,-6.860578060E-1,-1.328592747E-2
6.924004707E0,4.672981426E-2,-7.434774637E-1,-5.375456065E-2
6.944114498E0,-9.468132630E-3,-3.783435225E-1,-1.240019947E-1
6.964224290E0,-7.513421029E-2,1.718771458E-1,-1.870719790E-1
6.984334029E0,-1.255291104E-1,3.615452349E-1,-2.031067163E-1
7.004443821E0,-4.138490185E-2,1.285069883E-1,-1.601946950E-1
7.024553613E0,2.118112892E-1,-8.880192041E-2,-8.780929446E-2
7.044663352E0,4.989095032E-1,-2.315874696E-1,2.886253223E-2
7.064773144E0,5.989357233E-1,-3.204657435E-1,1.371352077E-1
7.084882936E0,4.614951015E-1,-2.500655949E-1,1.743968874E-1
7.104992675E0,1.646233350E-1,-2.832804248E-2,9.132166207E-2
7.125102467E0,-1.774511337E-1,3.074852526E-1,3.619270027E-2
7.145212259E0,-3.440597057E-1,4.278221428E-1,6.612421572E-2
7.165322050E0,-1.918060333E-1,1.672957987E-1,1.666085869E-1
7.185431790E0,1.143811494E-1,-8.628217503E-3,2.057028115E-1
7.205541582E0,2.029540092E-1,-3.336753324E-2,2.225011140E-1
7.225651321E0,1.053711548E-1,2.176143415E-2,2.498365343E-1
7.245761113E0,2.061609551E-2,1.234675050E-1,2.695363462E-1
7.265870904E0,-2.351761982E-2,3.193967640E-1,2.470877171E-1
7.285980696E0,-5.344913527E-2,3.554367423E-1,2.104368806E-1
7.306090436E0,-8.246437646E-3,8.727480471E-2,1.985253543E-1
7.326200227E0,7.192726433E-2,-1.700446010E-1,7.757759839E-2
7.346310019E0,9.956810623E-2,-1.016297117E-1,-6.841489673E-2
7.366419759E0,-9.009997360E-3,1.132358089E-1,-1.177408099E-1
7.386529550E0,-1.415638477E-1,1.482068151E-1,-1.183516532E-1
7.406639342E0,-1.293469071E-1,3.077143058E-2,-8.368607610E-2
7.426749134E0,-4.871506989E-2,-4.405735806E-2,-2.901524538E-3
7.446858873E0,-7.635590737E-4,-1.034622565E-1,7.223268598E-2
7.466968665E0,1.068982668E-2,-1.424037665E-1,8.506047726E-2
7.487078457E0,-4.321744293E-2,-6.543701142E-2,3.497100621E-2
7.507188196E0,-1.409530044E-1,1.702736691E-2,1.985253533E-3
7.527297988E0,-1.766875684E-1,2.970244735E-2,2.718270384E-2
7.547407779E0,-1.285833418E-1,4.940227047E-2,5.176930502E-2
7.567517519E0,-5.085303262E-2,1.460688561E-1,6.749862432E-2
7.587627311E0,2.687728032E-2,1.022405624E-1,1.026223376E-1
7.607737102E0,1.287360638E-1,-1.886754483E-1,1.044548824E-1
7.627846842E0,2.660239935E-1,-4.299601018E-1,8.704573661E-2
7.647956634E0,4.280512035E-1,-4.673745036E-1,6.780404598E-2
7.668066425E0,4.395045936E-1,-5.319716334E-1,-5.650337320E-3
7.688176217E0,2.380777150E-1,-3.242835402E-1,-1.230857223E-1
7.708285957E0,6.612421572E-2,4.725667238E-1,-8.429691941E-2
7.728395748E0,-2.582356930E-1,5.686224699E-1,2.901524538E-3
7.748505540E0,-3.142809272E-1,7.008708715E-1,1.047603041E-1
7.768615279E0,-2.435753495E-1,6.481853127E-1,1.272089481E-1
7.788725071E0,-5.115845799E-2,4.160633385E-1,7.574506104E-2
7.808834863E0,1.378987730E-1,1.046839505E-1,-1.847812906E-2
7.828944602E0,1.479777545E-1,-6.131379306E-2,-3.894151375E-2
7.849054394E0,4.932591692E-2,-2.237228118E-2,-2.321219631E-2
7.869164186E0,-5.726693198E-2,4.650074616E-2,-2.183778957E-2
7.889273977E0,-1.221694499E-1,2.201340795E-1,2.535016090E-2
7.909383717E0,-9.376505762E-2,4.548521340E-1,2.870982140E-2
7.929493509E0,-4.474456236E-2,4.223245382E-1,-3.130592033E-2
7.949603300E0,-3.038965166E-2,1.732515544E-1,-3.038965166E-2
7.969713040E0,-1.206423342E-2,-5.978667364E-2,1.756185852E-2
7.989822832E0,-1.496575773E-2,-2.456369549E-1,-5.039489828E-3
8.009932623E0,-6.673506647E-2,-2.621298432E-1,-3.451287001E-2
8.030042415E0,-6.551336497E-2,1.740151197E-1,5.894676223E-2
8.050152154E0,-4.581354442E-4,3.022930324E-1,3.970507067E-3
8.070261946E0,-1.282779220E-2,3.094705045E-1,-3.756710514E-2
8.090371738E0,-9.941539168E-2,1.880646050E-1,-5.314370990E-2
8.110481529E0,-7.574506104E-2,-4.008685052E-2,-9.666658193E-2
8.130591269E0,3.359659761E-2,-2.580066025E-1,-1.108687744E-1
8.150701061E0,7.146912813E-2,-1.697391868E-1,-2.367033064E-2
8.170810852E0,-2.504473738E-2,-8.803836256E-2,3.145863488E-2
8.190920592E0,-1.786728203E-2,3.413109109E-2,2.092151903E-2
8.211030384E0,7.727217674E-2,1.602710485E-1,-1.801999472E-2
8.231140175E0,1.910424829E-1,1.248419061E-1,-9.330692142E-2
8.251249967E0,1.585148573E-1,-5.428905040E-2,-2.565558441E-2
8.271359707E0,1.072036922E-1,-1.463742703E-1,-3.619270027E-2
8.291469498E0,8.414421231E-2,-6.207735091E-2,-4.291202128E-2
8.311579290E0,1.649287529E-2,-1.641651988E-2,-1.435491070E-2
8.331689082E0,-8.903098851E-2,2.023431472E-2,2.275406010E-2
8.351798821E0,-1.159082651E-1,1.057529300E-1,2.657185495E-2
8.371908613E0,-8.338065445E-2,9.994988143E-2,1.282779220E-2
8.392018404E0,-7.146912813E-2,2.970244735E-2,5.955760833E-3
8.412128144E0,-8.674030751E-2,-5.260922015E-2,-8.704573847E-3
8.432237936E0,-1.255291104E-1,-6.956022978E-2,-1.725643501E-2
8.452347727E0,-1.797417998E-1,-5.138752609E-2,-1.068982668E-2
8.472457519E0,-1.110214889E-1,-2.228828967E-1,2.748812735E-2
8.492567259E0,1.655396074E-1,-1.004080176E-1,2.238755226E-1
8.512677050E0,1.501157135E-1,-1.367534250E-1,1.240019947E-1
8.532786842E0,-6.261184346E-3,-1.205659807E-1,-1.679830020E-3
8.552896582E0,-1.861557066E-1,-1.052947938E-1,-7.238540053E-2
8.573006373E0,-2.296785712E-1,-6.207735091E-2,-1.189625040E-1
8.593116165E0,-1.889045089E-1,-4.146125913E-2,-1.478250325E-1
8.613225957E0,-1.211004704E-1,-7.505785674E-2,-1.360662282E-1
8.633335696E0,-6.994201243E-2,-1.755422354E-1,-1.055238619E-1
8.653445488E0,-6.551336497E-2,-2.418191582E-1,-9.636115283E-2
8.673555279E0,-1.186570823E-1,-2.299076319E-1,-1.093416587E-1
8.693665071E0,-1.378987730E-1,-1.517191827E-1,-1.372879148E-1
8.713774811E0,-1.000262350E-1,-2.008160390E-2,-1.621799469E-1
8.733884602E0,4.504998401E-2,2.374668792E-2,-2.090624720E-1
8.753994394E0,1.856975704E-1,-2.328855172E-2,-2.470877171E-1
8.774104186E0,2.238755226E-1,-5.215108395E-2,-2.089097649E-1
8.794213925E0,1.934858710E-1,-7.704310864E-2,-1.650814712E-1
8.814323717E0,1.624853760E-1,2.176143415E-2,-1.925695986E-1
8.834433509E0,1.163664013E-1,9.964445978E-2,-2.208212912E-1
8.854543300E0,7.192726433E-2,1.428619027E-1,-2.257080674E-1
8.874653040E0,6.245913357E-2,1.155264899E-1,-1.850867122E-1
8.894762832E0,7.360709459E-2,4.924955964E-2,-9.727742523E-2
8.914872623E0,5.054761097E-2,5.871769413E-2,3.359660041E-3
8.934982415E0,1.725643501E-2,1.347681731E-1,7.253811508E-2
8.955092154E0,-1.710372418E-2,1.818034202E-1,1.082726792E-1
8.975201946E0,-5.741964281E-2,1.291178465E-1,1.314848661E-1
8.995311738E0,-1.233911440E-1,-1.168245357E-2,1.756185889E-1
9.015421477E0,-2.153236568E-1,-9.704835713E-2,1.756185889E-1
9.035531269E0,-2.761029601E-1,-9.842276573E-2,1.478250325E-1
9.055641061E0,-1.933331639E-1,-6.146650389E-2,6.933116168E-2
9.075750852E0,-7.635590737E-4,1.889808774E-1,-5.405998230E-2
9.095860592E0,-3.206948191E-2,1.150683537E-1,-8.002099395E-2
9.115970384E0,-1.055238619E-1,3.321481869E-2,-5.726693198E-2
9.136080175E0,-9.941539168E-2,-1.037676781E-1,-1.725643501E-2
9.156189967E0,-9.315420873E-3,-2.633515298E-1,1.374406274E-3
9.176299707E0,7.910472155E-2,-3.149681091E-1,3.359660041E-3
9.196409498E0,9.193251282E-2,-3.073325157E-1,-2.367033064E-2
9.216519290E0,9.468132257E-2,-2.389176339E-1,-5.207473040E-2
9.236629082E0,1.047603041E-1,-1.353790164E-1,-8.307522535E-2
9.256738821E0,8.903098851E-2,8.223531395E-2,-1.240019947E-1
9.276848613E0,-1.557660475E-2,1.712663025E-1,-1.743968874E-1
9.296958404E0,-1.050657257E-1,1.341573298E-1,-1.647760421E-1
9.317068196E0,-9.666658193E-2,1.916533336E-2,-9.101624042E-2
9.337177936E0,5.573981255E-2,-9.567394853E-2,-1.603474095E-2
9.357287727E0,2.031067163E-1,-1.679066420E-1,9.620844387E-3
9.377397519E0,2.180724740E-1,-1.701973230E-1,3.100049868E-2
9.397507259E0,1.181989461E-1,-1.326302141E-1,4.398100078E-2
9.417617050E0,-1.068982761E-3,-6.528430432E-2,3.848337755E-2
9.437726842E0,-6.612421572E-2,-2.214321401E-3,2.947338112E-2
9.457836634E0,-1.244601309E-1,4.634803534E-2,2.519745007E-2
9.477946425E0,-1.930277348E-1,1.318666488E-1,1.221694518E-2
9.498056165E0,-2.539597452E-1,2.268534005E-1,-7.788302377E-3
9.518165957E0,-2.475458533E-1,2.488439083E-1,-1.450762246E-2
9.538275748E0,-1.589729935E-1,2.016559541E-1,-1.282779220E-2
9.558385540E0,-8.292251825E-2,1.269798726E-1,9.315420873E-3
9.578495279E0,-6.322269142E-2,1.013242900E-1,5.635065958E-2
9.598605071E0,-8.246438205E-2,1.150683537E-1,8.903098851E-2
9.618714863E0,-9.040539712E-2,1.278961450E-1,9.498675168E-2
9.638824654E0,-7.406523079E-2,9.949174523E-2,8.811471611E-2
9.658934394E0,-3.833066672E-2,5.367820337E-2,7.910472155E-2
9.679044186E0,1.359135192E-2,8.475505747E-3,6.612421572E-2
9.699153977E0,2.748812735E-2,-3.855973482E-2,5.803048983E-2
9.719263769E0,-7.482878864E-3,-2.466295846E-2,5.665608495E-2
9.739373561E0,-2.061609551E-2,1.733279042E-2,6.215370819E-2
9.759483300E0,4.123218823E-3,4.253023863E-2,6.704048812E-2
9.779593092E0,3.405473381E-2,4.085041210E-2,8.338065445E-2
9.799702884E0,2.580829710E-2,2.160872146E-2,7.788302749E-2
9.819812675E0,-2.947338112E-2,3.016058356E-2,5.925218388E-2
9.839922415E0,-9.269607067E-2,9.078717232E-2,4.092676565E-2
9.860032207E0,-1.148392856E-1,1.556897014E-1,2.702999115E-2
9.880141998E0,-1.630962193E-1,2.068481594E-1,7.788302377E-3
9.900251790E0,-2.153236568E-1,2.679328918E-1,7.635590737E-4
9.920361529E0,-1.789782494E-1,2.850365937E-1,-1.221694518E-3
9.940471321E0,-8.948912472E-2,1.763057858E-1,-1.603474095E-2
9.960581113E0,-1.985253533E-3,-8.880192041E-2,-8.490777016E-2
9.980690904E0,1.160609797E-1,-2.783172727E-1,-2.312056869E-1
1.000080064E1,1.586675793E-1,-2.984752357E-1,-2.947337925E-1
1.002091044E1,8.093725890E-2,-1.512610465E-1,-2.232646793E-1
1.004102023E1,2.916795574E-2,1.344627589E-1,-4.993676394E-2
1.006113002E1,6.490252167E-2,2.488439083E-1,3.665083647E-2
1.008123976E1,5.635065958E-2,1.625617296E-1,2.443389036E-2
1.010134955E1,4.428642616E-2,-1.718007959E-2,-2.046338283E-2
1.012145934E1,8.674030751E-2,-1.457634270E-1,-8.933641016E-2
1.014156913E1,8.185353130E-2,-1.292705536E-1,-1.119377613E-1
1.016167892E1,5.497625098E-3,-3.077143058E-2,-8.735115826E-2
1.018178867E1,-6.032116711E-2,2.603736520E-2,-4.795150831E-2
1.020189846E1,-8.185353130E-2,1.427855436E-2,8.246437646E-3
1.022200825E1,-7.574506104E-2,-4.504998680E-3,9.132166207E-2
1.024211804E1,-7.498150319E-2,6.055023521E-2,1.536280811E-1
1.026222778E1,-9.880454093E-2,3.413109109E-2,6.597150117E-2
1.028233757E1,-1.876828223E-1,4.008685052E-2,-3.054236248E-2
1.030244736E1,-2.136438340E-1,2.191414498E-2,-8.353336155E-2
1.032255715E1,-9.391776472E-2,-1.397313084E-2,-1.113269106E-1
1.034266695E1,1.572931744E-2,-4.314108938E-2,-9.758284688E-2
1.036277669E1,1.374406274E-3,-6.574243307E-2,-6.994201243E-2
1.038288648E1,-4.627167806E-2,-7.169819623E-2,-6.383354217E-2
1.040299627E1,-4.291202128E-2,-6.665870547E-2,-7.941014320E-2
1.042310606E1,-6.108472589E-3,-6.161921844E-2,-9.636115283E-2
1.044321580E1,1.985253580E-2,-6.375718117E-2,-9.681928903E-2
1.046332559E1,5.955760926E-2,-1.214822456E-1,-7.941014320E-2
1.048343538E1,1.536280811E-1,-2.636569440E-1,-6.062658876E-2
1.050354518E1,1.980672181E-1,-3.242835402E-1,-6.108472496E-2
1.052365492E1,1.693574041E-1,-2.552577853E-1,-5.146388337E-2
1.054376471E1,1.221694499E-1,-1.533990204E-1,-3.512371704E-2
1.056387450E1,9.239064902E-2,-6.299362332E-2,-2.290677279E-2
1.058398429E1,6.551336497E-2,-2.680092305E-2,-8.399149403E-3
1.060409408E1,6.933116168E-2,-8.299887180E-2,2.412846684E-2
1.062420382E1,9.376505762E-2,-1.873010397E-1,2.916795574E-2
1.064431361E1,1.186570823E-1,-2.491493225E-1,1.298050396E-2
1.066442340E1,1.131594554E-1,-2.547996640E-1,-6.719320081E-3
1.068453320E1,4.504998401E-2,-1.911188364E-1,-1.236965694E-2
1.070464294E1,-2.962609194E-2,-8.101361990E-2,4.275931045E-3
1.072475273E1,-6.765133142E-2,-9.086352773E-3,2.260134928E-2
1.074486252E1,-7.605048269E-2,-1.908897655E-3,3.817795217E-2
1.076497231E1,-7.543963939E-2,-3.687990457E-2,4.795150831E-2
1.078508210E1,-6.642963737E-2,-6.589514762E-2,5.329642445E-2
1.080519184E1,-8.307522535E-2,-6.971294433E-2,3.955236077E-2
1.082530163E1,-9.681928903E-2,-4.848600179E-2,3.970507160E-2
1.084541142E1,-8.887827396E-2,-3.000787087E-2,4.062134400E-2
1.086552122E1,-6.810946763E-2,-3.016058356E-2,3.817795217E-2
1.088563096E1,-5.558710173E-2,-4.650074616E-2,2.428117767E-2
1.090574104E1,-6.093201414E-2,-6.894938648E-2,1.206423342E-2
1.092585083E1,-6.184828654E-2,-5.642701685E-2,1.679829881E-2
1.094596062E1,-3.130592033E-2,-4.741701856E-2,7.482878864E-3
1.096607041E1,9.162708884E-4,-5.337277800E-2,-5.008947477E-2
1.098618015E1,2.519745007E-2,-1.109451354E-1,-1.462979168E-1
1.100628994E1,6.490252167E-2,-2.157054394E-1,-2.319692522E-1
1.102639974E1,7.681404054E-2,-2.845784724E-1,-3.043546379E-1
1.104650953E1,-5.757235363E-2,-1.178171635E-1,-3.173351586E-1
1.106661932E1,-5.635065958E-2,9.239064530E-3,-2.388412803E-1
1.108672906E1,8.399149403E-3,-7.826480269E-2,-1.550024897E-1
1.110683885E1,-6.337540597E-2,-4.329380020E-2,-1.172826737E-1
1.112694864E1,-1.221694499E-1,4.199574701E-3,-1.530172378E-1
1.114705843E1,-4.260659590E-2,-1.229330152E-2,-1.840177327E-1
1.116716817E1,7.223268598E-2,-4.619532451E-2,-1.571404636E-1
1.118727796E1,1.010952219E-1,-3.046600707E-2,-6.917845458E-2
1.120738776E1,6.795676053E-2,3.871244565E-2,-4.581354442E-4
1.122749755E1,3.176405653E-2,1.396549493E-1,4.581354558E-3
1.124760734E1,4.031591862E-2,1.779856235E-1,-1.328592747E-2
1.126771708E1,4.291202128E-2,1.283542812E-1,-2.000524849E-2
1.128782687E1,3.787253052E-2,1.173590273E-1,-1.282779220E-2
1.130793666E1,4.947862774E-2,1.393495351E-1,-5.192201585E-3
1.132804640E1,2.641914412E-2,1.683647782E-1,1.756185852E-2
1.134815619E1,-3.634541109E-2,1.732515544E-1,4.734066129E-2
1.136826599E1,-1.316375881E-1,1.404185146E-1,3.802524135E-2
1.138837578E1,-2.286095917E-1,9.674293548E-2,1.924168877E-2
1.140848557E1,-3.100049794E-1,3.794888780E-2,6.413896102E-3
1.142859536E1,-3.674246371E-1,8.941277117E-2,5.039489828E-3
1.144870510E1,-3.588727713E-1,2.577011883E-1,3.191677108E-2
1.146881489E1,-2.761029601E-1,3.894914687E-1,8.108997345E-2
1.148892468E1,-1.794363856E-1,3.803287745E-1,1.562241912E-1
1.150903448E1,-1.102579311E-1,2.726669312E-1,2.351761907E-1
1.152914422E1,-4.672981426E-2,1.935622245E-1,2.852656841E-1
1.154925401E1,7.941014133E-3,1.802763045E-1,3.054236174E-1
1.156936380E1,5.558710173E-2,1.755422354E-1,3.240544796E-1
1.158947359E1,1.114796251E-1,7.979192585E-2,3.352024257E-1
1.160958338E1,1.206423342E-1,-1.015533600E-2,2.929012477E-1
1.162969312E1,-6.520794332E-2,-2.360161096E-1,2.339545041E-1
1.164980291E1,-2.440334857E-1,-4.010975957E-1,2.174616307E-1
1.166991271E1,-7.711946964E-2,-2.480803430E-1,1.918060333E-1
1.169002250E1,3.005368412E-1,6.872031372E-4,1.353026628E-1
1.171013224E1,4.599680007E-1,-7.124006003E-2,9.116895497E-2
1.173024203E1,3.240544796E-1,-2.560213506E-1,8.872556686E-2
1.175035182E1,1.893626451E-1,-2.337254286E-1,5.604523420E-2
1.177046161E1,3.536805511E-1,4.085041210E-2,3.649812192E-2
1.179057140E1,6.780404449E-1,2.340308577E-1,1.036913246E-1
1.181068114E1,8.507575393E-1,1.466796994E-1,2.195995897E-1
1.183079093E1,7.395833135E-1,-1.208714023E-1,2.880144715E-1
1.185090073E1,4.023956358E-1,-3.361950517E-1,2.681619525E-1
1.187101052E1,5.008947477E-2,-2.480803430E-1,1.453816444E-1
1.189112026E1,-1.233911440E-1,3.306210786E-2,-2.260134928E-2
1.191123005E1,-9.880454093E-2,2.584647536E-1,-6.978929788E-2
1.193133984E1,1.679829881E-2,2.224247605E-1,4.886778072E-2
1.195144963E1,8.536590636E-2,4.451549426E-2,1.759240031E-1
1.197155942E1,9.193251282E-2,-8.131904155E-2,1.846285909E-1
1.199166916E1,2.916795574E-2,-1.172063202E-1,1.398840249E-1
1.201177896E1,-2.733541466E-2,-7.353074104E-2,1.236965731E-1
1.203188875E1,-2.428117767E-2,-4.344651103E-2,1.243074164E-1
1.205199854E1,-8.093725890E-3,-2.023431472E-2,1.058292910E-1
1.207210833E1,-4.474456236E-2,-3.413109109E-2,8.139539510E-2
1.209221807E1,-9.376505762E-2,-9.261971712E-2,4.718795046E-2
1.211232786E1,-1.232384369E-1,-1.291178465E-1,7.024743594E-3
1.213243765E1,-1.577513069E-1,-9.979717433E-2,-2.596100792E-3
1.215254739E1,-1.786728203E-1,-1.043785289E-1,3.726168349E-2
1.217265718E1,-1.569877416E-1,-1.779856235E-1,8.353336155E-2
1.219276698E1,-9.513945878E-2,-2.502183020E-1,1.079672500E-1
1.221287677E1,-2.718270384E-2,-3.180223405E-1,1.183516532E-1
1.223298656E1,-4.031591862E-2,-3.299338818E-1,1.380514801E-1
1.225309635E1,-1.305686086E-1,-3.000023663E-1,1.449235082E-1
1.227320609E1,-1.969982386E-1,-2.633515298E-1,1.322484314E-1
1.229331588E1,-1.340809762E-1,-1.289651245E-1,1.116323397E-1
1.231342567E1,-1.068982705E-1,-2.007396817E-1,8.887827396E-2
1.233353546E1,-1.195733473E-1,-3.140518367E-1,8.475505561E-2
1.235364521E1,1.265980899E-1,1.028514057E-1,-8.399149403E-3
1.237375500E1,4.338542521E-1,3.575747013E-1,-9.804098308E-2
1.239386479E1,3.481829464E-1,-4.283566400E-2,-1.116323397E-1
1.241397458E1,-1.146865711E-1,-6.541410685E-1,-2.240282297E-1
1.243408437E1,-6.027535200E-1,-7.495859265E-1,-4.198047817E-1
1.245419411E1,-5.178457499E-1,-2.995442152E-1,-6.261184216E-1
1.247430390E1,4.382828996E-2,2.434989959E-1,-6.465818286E-1
1.249441369E1,3.938437700E-1,3.978906274E-1,-4.886777997E-1
1.251452349E1,2.841966748E-1,2.552577853E-1,-2.866400778E-1
1.253463323E1,8.292251825E-2,1.653105468E-1,-1.696628332E-1
1.255474302E1,1.560714692E-1,2.642678022E-1,-1.838650256E-1
1.257485281E1,2.919849753E-1,3.481065929E-1,-2.341072112E-1
1.259496260E1,2.443388999E-1,3.676536977E-1,-2.533488870E-1
1.261507239E1,4.230117425E-2,2.859528661E-1,-2.490729690E-1
1.263518213E1,-1.420219839E-1,1.937149316E-1,-2.478512824E-1
1.265529192E1,-1.795890927E-1,1.756949425E-1,-2.426590770E-1
1.267540172E1,-9.376505762E-2,1.740151197E-1,-1.771457046E-1
1.269551151E1,6.108472589E-3,9.414683282E-2,-7.620319724E-2
1.271562130E1,2.886253223E-2,-3.107685409E-2,1.114796288E-2
1.273573104E1,-4.352286831E-2,-1.051420867E-1,3.222219273E-2
1.275584083E1,-1.165191159E-1,-3.458922729E-2,3.970507160E-2
1.277595062E1,-3.466558084E-2,1.307976693E-1,2.107422985E-2
1.279606041E1,1.354553849E-1,2.431935668E-1,-3.970507067E-3
1.281617015E1,2.076880634E-1,2.123457789E-1,-2.290677279E-3
1.283627994E1,9.804098308E-2,1.544679999E-1,2.550287358E-2
1.285638974E1,-5.604523420E-2,9.842276573E-2,6.200099736E-2
1.287649953E1,-1.395785958E-1,8.987089992E-2,8.322793990E-2
1.289660932E1,-1.745496094E-1,1.656159610E-1,1.000262350E-1
1.291671906E1,-1.988307834E-1,2.615189850E-1,1.142284349E-1
1.293682885E1,-2.208212912E-1,4.166741967E-1,1.146865711E-1
1.295693864E1,-3.271087110E-1,2.989333868E-1,1.640124917E-1
1.297704843E1,-3.897205591E-1,-3.588727675E-3,2.654131353E-1
1.299715817E1,-1.823379099E-1,9.017632902E-2,3.129065037E-1
1.301726796E1,2.124221325E-1,2.604500055E-1,2.683146596E-1
1.303737776E1,3.880407214E-1,3.428380191E-2,2.452551723E-1
1.305748755E1,1.215586066E-1,-3.629196286E-1,2.310529798E-1
1.307759729E1,-2.716743052E-1,-4.514924884E-1,2.440334857E-1
1.309770708E1,-3.011476994E-1,-1.843995154E-1,2.254026383E-1
1.311781687E1,5.115845799E-2,1.410293579E-1,2.606790662E-1
1.313792666E1,3.681881726E-1,3.084014952E-1,3.507790267E-1
1.315803646E1,4.498890042E-1,2.989333868E-1,4.272876680E-1
1.317814619E1,3.309265077E-1,1.646996886E-1,4.130854607E-1
1.319825599E1,1.078145429E-1,2.298312820E-2,3.665083647E-1
1.321836578E1,-6.230641901E-2,-1.229330152E-2,3.289412558E-1
1.323847557E1,-1.023169160E-1,6.375718117E-2,3.359659910E-1
1.325858531E1,-4.001049697E-2,1.207186878E-1,3.571929336E-1
1.327869510E1,4.886778072E-2,4.344651103E-2,3.648285270E-1
1.329880489E1,8.567132801E-2,-1.294232607E-1,3.342861533E-1
1.331891468E1,1.756185852E-2,-2.070008665E-1,2.628170252E-1
1.333902448E1,-9.880454093E-2,-1.282015741E-1,1.743968874E-1
1.335913422E1,-1.911951900E-1,-1.152974181E-2,1.145338640E-1
1.337924401E1,-2.053973973E-1,2.649549954E-2,9.193251282E-2
1.339935380E1,-1.834068894E-1,-1.305686031E-2,8.063183725E-2
1.341946359E1,-1.858502775E-1,-6.528430432E-2,7.360709459E-2
1.343957338E1,-2.047865391E-1,-3.046600707E-2,6.413896382E-2
1.345968312E1,-1.707318127E-1,4.344651103E-2,4.932591692E-2
1.347979291E1,-6.978929788E-2,-2.435753495E-2,4.214845970E-2
1.349990270E1,-1.496575773E-2,-1.871483326E-1,7.162184268E-2
1.352001250E1,-7.666133344E-2,-3.018349111E-1,9.407047927E-2
1.354012224E1,-2.142546773E-1,-3.172588050E-1,6.505523622E-2
1.356023203E1,-3.535278440E-1,-2.208976448E-1,-1.649287529E-2
1.358034182E1,-4.324798584E-1,-9.842276573E-2,-8.612946421E-2
1.360045161E1,-5.497625470E-1,-1.972273141E-1,-6.444438547E-2
1.362056135E1,-6.291726828E-1,-9.735377878E-2,-1.971509457E-1
1.364067114E1,-3.648285270E-1,2.260898352E-1,-4.990622103E-1
1.366078093E1,8.444963396E-2,2.433462739E-1,-6.748335361E-1
1.368089073E1,3.188622594E-1,4.665346071E-2,-6.080984473E-1
1.370100047E1,3.820849657E-1,-7.933378965E-2,-4.214846194E-1
1.372111026E1,4.874561131E-1,-1.738623977E-1,-2.254026383E-1
1.374122005E1,4.758500159E-1,-2.409028858E-1,-1.597365588E-1
1.376132984E1,2.502946556E-1,-1.584385037E-1,-2.802261710E-1
1.378143963E1,3.512371797E-3,6.284090877E-2,-4.830274582E-1
1.380154937E1,-4.031591862E-2,1.792073101E-1,-5.749599934E-1
1.382165916E1,6.734590977E-2,1.201078445E-1,-4.895940721E-1
1.384176896E1,1.511846930E-1,5.719057471E-2,-2.956500649E-1
1.386187875E1,1.299577504E-1,6.238277629E-2,-1.117850468E-1
1.388198854E1,5.741964281E-2,1.521773189E-1,-3.619270027E-2
1.390209828E1,2.137965523E-3,2.092915475E-1,-6.077930331E-2
1.392220807E1,-4.031591862E-2,1.914242655E-1,-1.160609797E-1
1.394231786E1,-5.299099907E-2,1.103342846E-1,-1.282779276E-1
1.396242765E1,-4.581354558E-2,4.497363046E-2,-8.765657991E-2
1.398253739E1,-8.551861346E-2,7.643226534E-2,-6.566607859E-3
1.400264718E1,-1.652341783E-1,1.417929232E-1,6.459710002E-2
1.402275698E1,-2.447970361E-1,1.792073101E-1,7.620319724E-2
1.404286677E1,-2.576248348E-1,1.873010397E-1,5.146388337E-2
1.406297651E1,-1.456870735E-1,1.391968131E-1,5.375456065E-2
1.408308630E1,7.330167107E-3,9.628479928E-2,8.597674966E-2
1.410319609E1,5.405998230E-2,6.085565686E-2,1.359135211E-1
1.412330588E1,-6.261184346E-3,8.628217503E-3,1.478250325E-1
1.414341562E1,-5.329642445E-2,-2.176143415E-2,1.432436854E-1
1.416352541E1,-4.291202128E-2,5.016583204E-2,1.154501289E-1
1.418363521E1,-3.313846514E-2,1.566059589E-1,7.971556485E-2
1.420374500E1,-1.151447073E-1,1.614927500E-1,2.764083818E-2
1.422385479E1,-3.538332880E-1,-4.695888236E-2,1.466033421E-2
1.424396453E1,-6.661289334E-1,-3.710133433E-1,2.947338112E-2
1.426407432E1,-6.868977547E-1,-5.105919242E-1,7.040014863E-2
1.428418411E1,-8.414421231E-2,-5.963396281E-2,9.636115283E-2
1.430429390E1,7.209524512E-1,6.176429391E-1,1.798945218E-1
1.432440364E1,9.871291518E-1,6.684959531E-1,2.733541429E-1
1.434451343E1,6.142069101E-1,2.245627195E-1,3.687990308E-1
1.436462323E1,6.566607952E-2,-1.602710485E-1,4.294256270E-1
1.438473302E1,-1.349972486E-1,-1.587439328E-1,4.269822240E-1
1.440484276E1,8.399149403E-3,-2.252499200E-2,3.388675153E-1
1.442495255E1,9.865183383E-2,1.152974181E-2,2.826695740E-1
1.444506234E1,-1.313321572E-2,-7.673768699E-2,2.733541429E-1
1.446517213E1,-9.147437662E-2,-1.025459841E-1,2.648022771E-1
1.448528187E1,-4.291202128E-2,-3.283303929E-3,2.612899244E-1
1.450539166E1,7.834116369E-2,9.292513877E-2,3.019112647E-1
1.452550146E1,1.913478971E-1,8.666395396E-2,3.474193811E-1
1.454561125E1,2.585411072E-1,5.764871091E-2,3.660502136E-1
1.456572099E1,2.721324563E-1,1.076618303E-2,3.260397315E-1
1.458583078E1,2.043284029E-1,-5.444176123E-2,2.480039895E-1
1.460594057E1,4.138490185E-2,-6.070294604E-2,1.944021434E-1
1.462605036E1,-3.603998944E-2,1.198787708E-2,1.606528312E-1
1.464616010E1,2.000524849E-2,2.909160033E-2,1.120904684E-1
1.466626989E1,5.986303091E-2,-1.641651988E-2,7.528692484E-2
1.468637968E1,8.704573847E-3,-8.284615725E-2,6.093201414E-2
1.470648948E1,-3.558185324E-2,-9.582666308E-2,4.123219103E-2
1.472659922E1,4.260659590E-2,-4.940227047E-2,2.015795931E-2
1.474670901E1,1.727170646E-1,-8.101361990E-2,2.596100792E-3
1.476681880E1,1.550024897E-1,-2.586174607E-1,9.162708884E-4
1.478692859E1,-3.115320951E-2,-3.974325061E-1,-1.374406274E-3
1.480703833E1,-2.049392611E-1,-4.359158874E-1,-4.367557913E-2
1.482714812E1,-2.449497581E-1,-3.723877668E-1,-8.338065445E-2
1.484725791E1,-7.284353673E-2,-1.451525837E-1,-6.765133142E-2
1.486736771E1,1.189625040E-1,-9.292513877E-2,6.093201414E-2
1.488747750E1,-8.460234851E-2,-5.339568853E-1,1.782146841E-1
1.490758724E1,-4.500417113E-1,-4.359158874E-1,4.123218823E-3
1.492769703E1,-4.488200247E-1,6.528430432E-2,-3.822376728E-1
1.494780682E1,-1.673721522E-1,9.659022093E-2,-6.930062175E-1
1.496791661E1,3.420744836E-2,-2.404447496E-1,-6.513158679E-1
1.498802635E1,1.362189353E-1,-4.401918054E-1,-4.906630516E-1
1.500813614E1,1.808107942E-1,-2.778591514E-1,-3.923166394E-1
1.502824593E1,2.512109280E-1,4.008685052E-2,-3.935383558E-1
1.504835573E1,1.843231618E-1,1.940203607E-1,-4.654656053E-1
1.506846547E1,-4.275931045E-3,2.088334113E-1,-5.128062963E-1
1.508857526E1,-1.240019947E-1,1.584385037E-1,-5.299099684E-1
1.510868505E1,-9.651386738E-2,1.242310628E-1,-4.766135812E-1
1.512879484E1,-1.099525020E-2,1.566059589E-1,-3.764346242E-1
1.514890458E1,2.305948362E-2,2.358634025E-1,-2.628170252E-1
1.516901437E1,1.817270555E-2,3.085542321E-1,-1.879882365E-1
1.518912416E1,-4.886778072E-3,2.642678022E-1,-1.579040140E-1
1.520923396E1,-6.566607952E-2,1.307976693E-1,-1.417165697E-1
1.522934369E1,-1.041494608E-1,4.818057641E-2,-1.101052165E-1
1.524945349E1,-7.834116369E-2,7.933378965E-2,-6.963659078E-2
1.526956328E1,2.489202656E-2,2.076117098E-1,-1.145338640E-2
1.528967307E1,7.681404054E-2,2.798444033E-1,6.841489673E-2
1.530978281E1,-9.315420873E-3,2.247154415E-1,1.543916464E-1
1.532989260E1,-1.298050433E-1,1.356844455E-1,1.991362125E-1
1.535000239E1,-1.953184158E-1,6.650599837E-2,2.009687424E-1
1.537011218E1,-2.724378705E-1,7.200361788E-2,1.893626451E-1
1.539022192E1,-4.373666346E-1,1.239256412E-1,1.718007922E-1
1.541033172E1,-6.623111367E-1,1.489703804E-1,1.797417998E-1
1.543044151E1,-7.539382577E-1,1.891335845E-1,2.241809368E-1
1.545055130E1,-6.314633489E-1,3.415399790E-1,2.451024652E-1
1.547066104E1,-5.157077909E-1,2.957264185E-1,2.596100867E-1
1.549077083E1,-4.645493329E-1,9.460496902E-2,2.785463631E-1
1.551088062E1,-3.894151151E-1,-7.673768699E-2,2.092151791E-1
1.553099041E1,-3.016058207E-1,-3.197021782E-1,1.160609797E-1
1.555110015E1,-1.304158866E-1,-2.676274478E-1,5.680879578E-2
1.557120994E1,2.877090573E-1,1.989071369E-1,6.826218218E-2
1.559131974E1,7.032378912E-1,4.522560537E-1,1.893626451E-1
1.561142953E1,7.805100679E-1,2.677801549E-1,3.756710589E-1
1.563153927E1,5.749599934E-1,-1.211768240E-1,5.256340504E-1
1.565164906E1,3.726168275E-1,-3.914767504E-1,4.792096615E-1
1.567175885E1,2.612899244E-1,-3.155789673E-1,3.179459870E-1
1.569186864E1,1.027750522E-1,-1.010188684E-1,1.475196183E-1
1.571197838E1,-1.010952219E-1,5.215108395E-2,7.910472155E-2
1.573208817E1,-2.011214644E-1,8.238802105E-2,1.195733473E-1
1.575219796E1,-1.322484314E-1,4.940227047E-2,1.942494214E-1
1.577230776E1,9.773556143E-3,-4.657710437E-3,2.644968629E-1
1.579241750E1,1.284306347E-1,-3.229855001E-2,3.048127890E-1
1.581252729E1,1.913478971E-1,-4.527905211E-2,2.838912606E-1
1.583263708E1,1.408002973E-1,-7.627955079E-2,2.206685692E-1
1.585274687E1,1.664558798E-2,-1.188861504E-1,1.476723254E-1
1.587285661E1,-6.184828654E-2,-1.453052908E-1,9.422318637E-2
1.589296640E1,-5.268557742E-2,-8.651123941E-2,7.330167294E-2
1.591307619E1,-9.009997360E-3,5.115845706E-3,8.918370306E-2
1.593318599E1,-4.275931045E-3,-3.436015919E-3,1.140757278E-1
1.595329573E1,-3.222219273E-2,-8.528954536E-2,1.369825006E-1
1.597340552E1,-4.046862945E-2,-1.657686681E-1,1.171299592E-1
1.599351531E1,-1.710372418E-2,-1.897444278E-1,9.132166207E-2
1.601362510E1,-1.527118147E-3,-2.387649268E-1,1.073564067E-1
1.603373484E1,-4.672981426E-2,-3.123720288E-1,1.644706279E-1
1.605384463E1,-1.820324808E-1,-3.687226772E-1,2.066190839E-1
1.607395442E1,-2.796153426E-1,-3.114557564E-1,2.032594234E-1
1.609406422E1,-1.554606259E-1,-1.056002229E-1,1.560714692E-1
1.611417396E1,-2.748812735E-2,-4.787515476E-2,8.200624585E-2
1.613428375E1,-1.721062213E-1,-1.610346138E-1,5.146388337E-2
1.615439354E1,-4.280512035E-1,-1.646996886E-1,-8.811471611E-2
1.617450333E1,-5.816792846E-1,-1.052947938E-1,-2.754921019E-1
1.619461307E1,-3.071034551E-1,3.442887962E-1,-4.414898455E-1
1.621472286E1,2.945810854E-1,5.312080383E-1,-3.900259733E-1
1.623483265E1,7.327113152E-1,1.572168171E-1,-1.612636745E-1
1.625494244E1,7.360709310E-1,-3.259633780E-1,3.237490356E-2
1.627505218E1,4.187358022E-1,-3.610870838E-1,-1.954711229E-2
1.629516198E1,1.296523362E-1,-5.657972768E-2,-2.315111160E-1
1.631527177E1,9.773556143E-3,2.752630413E-1,-3.932329118E-1
1.633538156E1,4.138490185E-2,3.627669215E-1,-4.045335948E-1
1.635549130E1,1.988307834E-1,2.905342281E-1,-2.806843221E-1
1.637560109E1,3.845283389E-1,1.958529055E-1,-1.302631795E-1
1.639571088E1,4.106420577E-1,1.097234413E-1,-3.741439432E-2
1.641582067E1,2.457133085E-1,1.204132661E-1,-2.336490713E-2
1.643593041E1,4.856235534E-2,2.126512080E-1,-7.284353673E-2
1.645604020E1,-4.718795046E-2,2.396811992E-1,-1.362189353E-1
1.647615000E1,-4.703523964E-2,1.527881771E-1,-1.342336833E-1
1.649625974E1,-5.803049076E-3,8.025006205E-2,-9.040539712E-2
1.651636953E1,6.810946763E-2,8.834378421E-2,-3.527642787E-2
1.653647932E1,1.359135211E-1,1.457634270E-1,1.420219894E-2
1.655658911E1,1.027750522E-1,1.086544544E-1,4.092676565E-2
1.657669885E1,1.221694518E-3,5.108210072E-2,3.313846514E-2
1.659680864E1,-7.605048269E-2,7.062921673E-2,-1.343864016E-2
1.661691843E1,-1.032331884E-1,1.529408842E-1,-4.107947648E-2
1.663702823E1,-1.065928489E-1,2.001288384E-1,-3.084778599E-2
1.665713796E1,-1.330119967E-1,1.715717167E-1,-9.162709117E-3
1.667724776E1,-2.209739983E-1,1.043785289E-1,3.206948051E-3
1.669735755E1,-3.032856584E-1,3.810159862E-2,9.162708884E-4
1.671746734E1,-3.130592108E-1,6.421531737E-2,5.344913341E-3
1.673757708E1,-2.139492482E-1,3.119138777E-1,-1.450762246E-2
1.675768687E1,-2.695363462E-1,2.418191582E-1,2.046338283E-2
1.677779666E1,-4.202629030E-1,4.810422193E-3,1.421747059E-1
1.679790646E1,-3.862081766E-1,-8.834378421E-2,1.743968874E-1
1.681801619E1,-1.415638477E-1,-1.207186878E-1,1.440072358E-1
1.683812599E1,3.342861533E-1,7.185091078E-2,1.192679256E-1
1.685823578E1,6.299362183E-1,9.491039068E-2,1.380514801E-1
1.687834552E1,5.438067913E-1,-1.135412306E-1,2.727433145E-1
1.689845531E1,3.347443044E-1,-3.000023663E-1,4.370612204E-1
1.691856510E1,2.851129472E-1,-1.303395331E-1,4.746283293E-1
1.693867489E1,3.654393852E-1,2.099023908E-1,3.733803928E-1
1.695878463E1,4.352286756E-1,3.662792742E-1,2.819060087E-1
1.697889442E1,4.465293586E-1,3.164952397E-1,2.391466945E-1
1.699900422E1,4.162923992E-1,1.523300409E-1,2.217375487E-1
1.701911401E1,3.202366829E-1,-8.780929260E-3,2.130329758E-1
1.703922375E1,1.968455315E-1,-1.202605516E-1,2.530434728E-1
1.705933354E1,8.674030751E-2,-1.604237556E-1,3.231382072E-1
1.707944333E1,1.924168877E-2,-1.242310628E-1,3.387148082E-1
1.709955312E1,-8.872556686E-2,-1.582857966E-1,2.449497581E-1
1.711966286E1,-2.386885732E-1,-1.842468083E-1,1.168245375E-1
1.713977265E1,-3.141281903E-1,-1.691283286E-1,1.863084175E-2
1.715988244E1,-2.757975459E-1,-1.115559787E-1,-1.832541823E-2
1.717999224E1,-1.533226669E-1,-4.726430774E-2,1.908897609E-2
1.720010198E1,9.315420873E-3,-4.634803534E-2,6.917845458E-2
1.722021177E1,7.498150319E-2,-8.971819282E-2,7.391251624E-2
1.724032156E1,7.177455351E-3,-9.414683282E-2,4.153761268E-2
1.726043130E1,-9.773556143E-2,-1.133885235E-1,-2.061609551E-2
1.728054109E1,-2.096733153E-1,-2.230356038E-1,-6.765133142E-2
1.730065088E1,-3.087832928E-1,-3.406237066E-1,-8.857285231E-2
1.732076067E1,-3.852919042E-1,-3.189386129E-1,-1.108687744E-1
1.734087041E1,-4.488200247E-1,-2.047101855E-1,-1.127013192E-1
1.736098020E1,-5.813738704E-1,-2.405974567E-1,-1.049130186E-1
1.738109000E1,-6.801784039E-1,4.436278343E-2,-1.963873953E-1
1.740119979E1,-8.362498879E-1,2.494547516E-1,-3.837648034E-1
1.742130958E1,-1.031110168E0,2.227301747E-1,-5.367820263E-1
1.744141932E1,-9.013051391E-1,4.554629922E-1,-6.178719997E-1
1.746152911E1,-1.643179059E-1,6.958313584E-1,-5.150969625E-1
1.748163890E1,6.652126908E-1,4.162160456E-1,-1.556133330E-1
1.750174864E1,1.050962687E0,-2.746522129E-1,3.057290614E-1
1.752185843E1,8.608365059E-1,-8.065474629E-1,5.103628635E-1
1.754196823E1,4.248442650E-1,-8.001335263E-1,2.999260128E-1
1.756207802E1,1.276670843E-1,-2.987806797E-1,-2.145601064E-1
1.758218776E1,7.452336699E-2,2.538833916E-1,-6.818582416E-1
1.760229755E1,6.978929788E-2,4.067479074E-1,-7.788302302E-1
1.762240734E1,8.612946421E-2,3.398601413E-1,-5.686988235E-1
1.764251713E1,1.537808031E-1,1.321720779E-1,-2.919849753E-1
1.766262687E1,2.124221325E-1,2.214321401E-3,-1.058292910E-1
1.768273666E1,2.006633282E-1,-2.053973824E-2,-8.047912270E-2
1.770284646E1,8.170082420E-2,-6.116108224E-2,-1.560714692E-1
1.772295625E1,-1.459924877E-1,-5.825955793E-2,-2.762556672E-1
1.774306599E1,-3.179459870E-1,4.894413799E-2,-3.652866483E-1
1.776317578E1,-2.951919436E-1,1.401130855E-1,-3.486410677E-1
1.778328557E1,-1.693574041E-1,1.558424085E-1,-2.362451702E-1
1.780339536E1,-9.987352788E-2,9.811734408E-2,-1.163664013E-1
1.782350510E1,-1.186570823E-1,6.864395738E-2,-6.612421572E-2
1.784361489E1,-1.730224788E-1,7.078192383E-2,-6.978929788E-2
1.786372468E1,-1.754658818E-1,1.300341040E-1,-9.086353332E-2
1.788383448E1,-1.116323397E-1,1.995179802E-1,-9.254335612E-2
1.790394422E1,-6.536065787E-2,1.578276604E-1,-3.955236077E-2
1.792405401E1,-1.310267299E-1,2.603736520E-2,4.596625641E-2
1.794416380E1,-1.824906170E-1,-3.382566571E-2,1.362189353E-1
1.796427359E1,-1.130067408E-1,1.122431830E-2,2.063136548E-1
1.798438333E1,1.786728203E-2,1.827196926E-1,2.554868758E-1
1.800449312E1,-6.184828654E-2,2.445679754E-1,3.080197275E-1
1.802460291E1,-4.819584787E-1,-5.291464552E-2,3.489464819E-1
1.804471265E1,-7.701256871E-1,-2.112767994E-1,3.385621011E-1
1.806482244E1,-4.592044353E-1,-1.129303873E-1,2.736595869E-1
1.808493224E1,3.715478480E-1,2.863346599E-2,2.562504113E-1
1.810504203E1,9.958337545E-1,4.512634128E-2,3.490992188E-1
1.812515182E1,9.791881442E-1,-6.177192926E-2,4.301891923E-1
1.814526156E1,5.135698318E-1,-1.654632539E-1,4.266768098E-1
1.816537135E1,1.667613089E-1,-1.225512326E-1,3.700207174E-1
1.818548114E1,1.890572309E-1,-3.122956678E-2,2.195995897E-1
1.820559093E1,3.112266660E-1,-1.427855436E-2,1.191152185E-1
1.822570067E1,3.599417508E-1,-3.138227761E-2,1.142284349E-1
1.824581046E1,3.920112252E-1,-4.504998680E-3,1.346918195E-1
1.826592026E1,3.982724249E-1,-5.268557463E-3,1.481304616E-1
1.828603005E1,3.414636254E-1,-3.840702027E-2,1.491994411E-1
1.830613979E1,2.570139766E-1,-8.116632700E-2,1.273616552E-1
1.832624958E1,2.081461996E-1,-9.292513877E-2,5.268557742E-2
1.834635937E1,1.922641695E-1,-9.231429547E-2,-7.879929990E-2
1.836646916E1,1.863084137E-1,-1.246891990E-1,-1.863084137E-1
1.838657890E1,1.504211426E-1,-1.979908645E-1,-2.089097649E-1
1.840668869E1,2.504473738E-2,-2.598391473E-1,-1.693574041E-1
1.842679849E1,-1.319430023E-1,-2.601445615E-1,-9.177979827E-2
1.844690828E1,-2.733541429E-1,-2.334200144E-1,-5.864133686E-2
1.846701802E1,-3.660502136E-1,-2.094442546E-1,-6.474980712E-2
1.848712781E1,-3.318427801E-1,-1.657686681E-1,-8.826743066E-2
1.850723760E1,-1.521009654E-1,-1.126249656E-1,-1.270562261E-1
1.852734739E1,3.512371704E-2,-1.541625708E-1,-1.148392856E-1
1.854745713E1,3.344388679E-2,-3.374167681E-1,-5.283828825E-2
1.856756692E1,-1.531699449E-1,-4.789806008E-1,1.023169141E-2
1.858767672E1,-3.077143133E-1,-4.233935177E-1,-2.443389036E-3
1.860778651E1,-3.090887070E-1,-2.719033957E-1,-5.268557742E-2
1.862789625E1,-1.053711548E-1,-9.017632902E-2,-7.314895838E-2
1.864800604E1,7.253811508E-2,-1.399603784E-1,-2.137965336E-2
1.866811583E1,-9.605573118E-2,-5.186856985E-1,1.007898003E-1
1.868822562E1,-4.161396921E-1,-5.759525895E-1,3.970507160E-2
1.870833536E1,-4.078932703E-1,-5.871769413E-2,-2.389939874E-1
1.872844515E1,-1.718007922E-1,1.830251068E-1,-5.292991400E-1
1.874855494E1,-7.895200700E-2,-7.200361788E-2,-5.251759291E-1
1.876866474E1,-6.306997687E-2,-4.240043461E-1,-3.738385141E-1
1.878877448E1,8.750387281E-2,-4.940990806E-1,-3.075616062E-1
1.880888427E1,2.673983872E-1,-2.549523711E-1,-3.319954872E-1
1.882899406E1,3.161134422E-1,2.386122048E-1,-4.207210541E-1
1.884910385E1,2.208212912E-1,6.034407616E-1,-5.196782947E-1
1.886921364E1,1.171299592E-1,7.036196589E-1,-5.544965863E-1
1.888932338E1,6.872031838E-2,5.777851343E-1,-5.639647245E-1
1.890943317E1,3.252761811E-2,3.328354061E-1,-5.204418898E-1
1.892954296E1,-1.343864016E-2,1.260636002E-1,-4.308000207E-1
1.894965276E1,-3.038965166E-2,8.681666851E-2,-3.417690396E-1
1.896976250E1,-5.726693198E-2,1.399603784E-1,-2.615953386E-1
1.898987229E1,-8.338065445E-2,1.837886721E-1,-1.846285909E-1
1.900998208E1,-2.702999115E-2,1.818034202E-1,-1.299577504E-1
1.903009187E1,2.947338112E-2,1.162900478E-1,-9.895725548E-2
1.905020161E1,3.512371704E-2,4.573718831E-2,-5.680879578E-2
1.907031140E1,-1.527118147E-4,1.626380906E-2,-1.038440317E-2
1.909042119E1,-3.558185324E-2,6.986565888E-2,4.932591692E-2
1.911053099E1,-9.040539712E-2,1.338519007E-1,8.979454637E-2
1.913064078E1,-1.441599578E-1,1.327829212E-1,1.072036922E-1
1.915075052E1,-1.997470558E-1,6.314633787E-2,1.133121699E-1
1.917086031E1,-2.235700935E-1,1.168245357E-2,1.328592747E-1
1.919097010E1,-2.270824611E-1,-4.955498502E-2,1.478250325E-1
1.921107989E1,-2.692309320E-1,-1.046839505E-1,1.525591016E-1
1.923118968E1,-3.736858070E-1,-1.211768240E-1,8.826743066E-2
1.925129942E1,-4.283566475E-1,6.406260282E-2,-9.254335612E-2
1.927140922E1,-4.343124032E-1,1.909661293E-1,-2.651077211E-1
1.929151901E1,-5.770979524E-1,-4.375193641E-2,-2.895416021E-1
1.931162880E1,-6.682668924E-1,-2.925194800E-1,-1.508792788E-1
1.933173854E1,-3.168770075E-1,-2.066954374E-1,-4.672981426E-2
1.935184833E1,3.549022675E-1,1.124722511E-1,-5.971032009E-2
1.937195812E1,5.880932212E-1,1.853157878E-1,-2.733541466E-2
1.939206791E1,3.110739589E-1,8.926005661E-2,1.195733473E-1
1.941217770E1,1.343864016E-2,-2.588465251E-2,2.761029601E-1
1.943228744E1,1.006370857E-1,4.650074616E-2,3.535278440E-1
1.945239724E1,3.921639323E-1,1.213295385E-1,3.836120665E-1
1.947250703E1,5.722111464E-1,7.001836598E-2,4.628695250E-1
1.949261682E1,6.398624778E-1,6.948387716E-3,5.315898061E-1
1.951272661E1,6.554391384E-1,4.268295318E-2,5.347967744E-1
1.953283635E1,6.216897964E-1,1.483595222E-1,4.929537475E-1
1.955294614E1,4.888305068E-1,1.949366331E-1,4.358395338E-1
1.957305593E1,3.066453338E-1,1.718771458E-1,4.081986845E-1
1.959316573E1,2.252499312E-1,6.345175952E-2,3.884988427E-1
1.961327552E1,2.434226274E-1,-8.223531395E-2,3.753656447E-1
1.963338526E1,2.391466945E-1,-1.332410574E-1,3.665083647E-1
1.965349505E1,1.536280811E-1,-1.272853017E-1,3.355078697E-1
1.967360484E1,5.497625098E-3,-1.043785289E-1,2.768665254E-1
1.969371463E1,-1.514901221E-1,-4.818057641E-2,2.264716178E-1
1.971382442E1,-2.234173864E-1,-2.023431472E-2,1.808107942E-1
1.973393416E1,-2.272351831E-1,-5.948125198E-2,1.575985998E-1
1.975404396E1,-2.463241518E-1,-1.051420867E-1,1.502684206E-1
1.977415375E1,-2.593046725E-1,-1.744732410E-1,1.293469071E-1
1.979426354E1,-2.379250079E-1,-2.445679754E-1,9.437590092E-2
1.981437333E1,-2.382304370E-1,-2.952682972E-1,7.681404054E-2
1.983448307E1,-3.339807391E-1,-3.507026732E-1,8.338065445E-2
1.985459286E1,-4.873034060E-1,-3.180223405E-1,7.742489129E-2
1.987470265E1,-5.734328628E-1,-1.909661293E-1,8.399149403E-3
1.989481244E1,-4.274403751E-1,-1.908897655E-3,-5.971032009E-2
1.991492224E1,-1.653869003E-1,-9.659022093E-2,-4.199574888E-2
1.993503203E1,-8.490777016E-2,-4.096494317E-1,-6.719320081E-3
1.995514177E1,-2.932066917E-1,-4.220190942E-1,-6.001574174E-2
1.997525156E1,-6.497887969E-1,-2.161635756E-1,-1.991362125E-1
1.999536135E1,-6.862868667E-1,-1.947075687E-2,-5.402944088E-1
2.001547114E1,-4.127800465E-1,-7.124006003E-2,-7.947123051E-1
2.003558093E1,-1.511846948E-2,-2.616716921E-1,-7.090409398E-1
2.005569067E1,3.558185399E-1,-3.847574294E-1,-4.027010500E-1
2.007580046E1,5.977140665E-1,-3.207711577E-1,-1.088835225E-1
2.009591026E1,6.018372774E-1,-1.425564736E-1,-6.001574174E-2
2.011602005E1,3.507790267E-1,7.093463838E-2,-1.559187621E-1
2.013612984E1,8.628217876E-2,2.934357524E-1,-2.780882120E-1
2.015623958E1,3.359660041E-3,4.156052172E-1,-3.338280320E-1
2.017634937E1,7.910472155E-2,4.337778986E-1,-2.768665254E-1
2.019645916E1,1.606528312E-1,3.465794623E-1,-1.606528312E-1
2.021656896E1,1.314848661E-1,2.615189850E-1,-3.252761811E-2
2.023667875E1,-1.130067464E-2,2.335727215E-1,3.695625812E-2
2.025678854E1,-1.808107942E-1,2.845784724E-1,7.635590737E-4
2.027689828E1,-2.867927849E-1,3.146626949E-1,-6.261184067E-2
2.029700807E1,-2.936648130E-1,2.628933787E-1,-6.933116168E-2
2.031711786E1,-1.945548505E-1,1.593547761E-1,6.108472589E-4
2.033722765E1,-5.757235363E-2,9.200886637E-2,8.567132801E-2
2.035733744E1,6.765133142E-2,1.010188684E-1,1.386623234E-1
2.037744724E1,1.412584335E-1,1.275907159E-1,1.446180940E-1
2.039755698E1,1.160609797E-1,1.492757946E-1,1.068982705E-1
2.041766677E1,3.573456407E-2,1.811925620E-1,3.863608837E-2
2.043777656E1,-5.405998230E-2,1.650051177E-1,-2.672456764E-2
2.045788635E1,-1.550024897E-1,7.414158434E-2,-4.932591692E-2
2.047799614E1,-2.261662036E-1,-1.916533336E-2,-4.886778072E-3
2.049810593E1,-2.244863659E-1,-1.947075687E-2,7.788302749E-2
2.051821567E1,-1.424801201E-1,1.379751265E-1,1.507265568E-1
2.053832546E1,-5.115845799E-2,4.191175699E-1,1.805053651E-1
2.055843526E1,-1.730224788E-1,3.613924980E-1,2.345653474E-1
2.057854505E1,-6.166502833E-1,-2.551050782E-1,3.078670204E-1
2.059865484E1,-7.870767117E-1,-5.739673376E-1,2.843494117E-1
2.061876463E1,-1.840177327E-1,-2.248681486E-1,1.493521482E-1
2.063887437E1,7.316423059E-1,2.321983129E-1,1.140757278E-1
2.065898416E1,9.660549164E-1,1.853157878E-1,2.872509360E-1
2.067909396E1,5.520532131E-1,-1.314085126E-1,5.106683373E-1
2.069920375E1,1.788255423E-1,-2.758738995E-1,6.067240238E-1
2.071931354E1,2.936648130E-1,-1.219403818E-1,5.234960914E-1
2.073942333E1,5.700731874E-1,1.094180122E-1,4.019374847E-1
2.075953312E1,5.948125124E-1,2.195232362E-1,3.839175105E-1
2.077964286E1,4.563029110E-1,2.523562610E-1,3.889569938E-1
2.079975265E1,3.008422852E-1,1.982962936E-1,3.542914093E-1
2.081986244E1,1.525591016E-1,7.398887724E-2,2.812951505E-1
2.083997224E1,8.093725890E-3,-4.695888236E-2,2.046338320E-1
2.086008203E1,-6.429167092E-2,-7.948649675E-2,1.806580722E-1
2.088019182E1,-9.956810623E-2,-6.024480984E-2,1.718007922E-1
2.090030161E1,-1.556133330E-1,-4.772244394E-2,1.432436854E-1
2.092041135E1,-2.151709497E-1,-3.016058356E-2,5.283828825E-2
2.094052114E1,-2.481566966E-1,-1.473669056E-2,-5.665608495E-2
2.096063093E1,-2.240282297E-1,-3.565821052E-2,-1.290414780E-1
2.098074073E1,-1.528645307E-1,-7.398887724E-2,-1.062874198E-1
2.100085052E1,-6.337540597E-2,-8.131904155E-2,-4.123219103E-2
2.102096031E1,1.038440317E-2,-5.444176123E-2,3.206948051E-3
2.104107010E1,1.343864016E-2,-8.116632700E-2,2.000524849E-2
2.106117984E1,2.382304333E-2,-1.810398549E-1,5.635065958E-2
2.108128963E1,5.467082933E-2,-2.473167777E-1,5.665608495E-2
2.110139942E1,-4.566083103E-2,-3.406237066E-1,2.626643144E-2
2.112150922E1,-3.785725832E-1,-3.125247359E-1,-4.520269856E-2
2.114161901E1,-5.697677732E-1,-6.314633787E-2,-1.557660550E-1
2.116172880E1,-2.988570333E-1,1.960056126E-1,-2.593046725E-1
2.118183854E1,9.544488788E-2,1.491230875E-1,-1.175880954E-1
2.120194833E1,-2.099787444E-1,-7.300388217E-1,-5.008947477E-2
2.122205812E1,-9.509364963E-1,-1.077152729E0,-3.107685447E-1
2.124216791E1,-9.187142849E-1,-8.513683826E-2,-7.559235096E-1
2.126227771E1,-1.206423342E-2,9.626189470E-1,-9.965972900E-1
2.128238750E1,5.552601814E-1,9.284114838E-1,-7.539382577E-1
2.130249729E1,5.392253995E-1,1.146102175E-1,-1.887518018E-1
2.132260708E1,4.051444530E-1,-5.608341694E-1,1.456870735E-1
2.134271682E1,4.963133931E-1,-5.321243405E-1,4.245388508E-2
2.136282661E1,4.947862923E-1,-5.520532280E-2,-3.686463237E-1
2.138293640E1,1.954711229E-1,4.667636752E-1,-6.652126908E-1
2.140304619E1,-8.735115826E-2,7.404232621E-1,-6.618530154E-1
2.142315599E1,-1.018587798E-1,6.484907269E-1,-5.024218559E-1
2.144326578E1,5.039490014E-2,3.155789673E-1,-2.371614426E-1
2.146337557E1,1.872246861E-1,8.086090535E-2,-3.512371797E-3
2.148348531E1,2.319692522E-1,8.864920586E-2,8.475505561E-2
2.150359510E1,2.133384049E-1,2.248681486E-1,4.947862774E-2
2.152370489E1,1.626380831E-1,3.137464225E-1,-5.192201585E-3
2.154381468E1,1.487413049E-1,2.827459276E-1,7.941014133E-3
2.156392448E1,2.186833173E-1,1.814979911E-1,8.307522535E-2
2.158403427E1,3.411581814E-1,7.490514219E-2,1.579040140E-1
2.160414406E1,3.872771561E-1,3.000787087E-2,2.037175596E-1
2.162425385E1,2.834331393E-1,7.475243509E-2,1.649287641E-1
2.164436364E1,8.658760041E-2,1.139993668E-1,7.589777559E-2
2.166447338E1,-7.681404054E-2,1.367534250E-1,3.130592033E-2
2.168458317E1,-5.436540768E-2,9.032903612E-2,7.040014863E-2
2.170469297E1,1.021642014E-1,-4.207210615E-2,1.881409585E-1
2.172480276E1,1.898207814E-1,-2.044047713E-1,2.899997234E-1
2.174491255E1,1.875301152E-1,-2.926721871E-1,3.295520842E-1
2.176502234E1,1.123958975E-1,-3.784962296E-1,3.061871827E-1
2.178513213E1,-1.695101112E-1,-6.553627253E-1,2.860292196E-1
2.180524192E1,-4.517215490E-1,-8.329665661E-1,2.811424434E-1
2.182535172E1,-2.423536479E-1,-5.388436317E-1,1.554606259E-1
2.184546146E1,2.938175201E-1,-1.286597103E-1,-4.123218823E-3
2.186557125E1,5.535803437E-1,-2.290677221E-4,-7.513421029E-2
2.188568104E1,2.403683960E-1,-1.459161341E-1,-1.180462316E-1
2.190579083E1,-3.713951409E-1,-2.328091562E-1,-1.310267299E-1
2.192590062E1,-4.877615273E-1,4.237752780E-2,-1.438545287E-1
2.194601041E1,-4.046862945E-2,3.168006539E-1,-1.464506239E-1
2.196612021E1,3.944546282E-1,4.408026636E-1,-2.214321308E-2
2.198623000E1,5.383091569E-1,3.441360891E-1,8.353336155E-2
2.200633979E1,4.830274582E-1,1.990598440E-1,1.050657257E-1
2.202644953E1,3.368822634E-1,1.109451354E-1,8.017370105E-2
2.204655932E1,1.601946950E-1,1.169008911E-1,7.788302749E-2
2.206666911E1,2.031067200E-2,2.251735777E-1,8.857285231E-2
2.208677890E1,-2.580829710E-2,3.039728701E-1,1.186570823E-1
2.210688869E1,1.435491070E-2,2.480803430E-1,1.832541823E-1
2.212699849E1,5.375456065E-2,7.017108053E-2,2.403683960E-1
2.214710828E1,2.687728032E-2,-4.650074616E-2,2.626643181E-1
2.216721807E1,-5.864133686E-2,-4.207210615E-2,2.473931462E-1
2.218732786E1,-1.030804738E-1,4.344651103E-2,2.351761907E-1
2.220743765E1,-1.128540337E-1,1.193442866E-1,2.089097649E-1
2.222754739E1,-1.560714692E-1,1.633252800E-1,1.835595965E-1
2.224765718E1,-2.021904439E-1,1.092653051E-1,1.829487532E-1
2.226776698E1,-1.586675793E-1,-3.687990457E-2,1.960819662E-1
2.228787677E1,-9.452861547E-2,-1.947839260E-1,1.837123185E-1
2.230798656E1,-1.061347127E-1,-2.836622000E-1,1.433963925E-1
2.232809635E1,-2.223484069E-1,-3.594072461E-1,9.681928903E-2
2.234820614E1,-3.796415627E-1,-4.417189360E-1,7.925742865E-2
2.236831593E1,-4.834856093E-1,-4.295019805E-1,5.787777901E-2
2.238842573E1,-4.341596961E-1,-2.031830698E-1,-7.941014133E-3
2.240853552E1,-2.237228155E-1,6.390989572E-2,-7.131642103E-2
2.242864531E1,-1.342336833E-1,-1.636307091E-1,-1.068982761E-3
2.244875510E1,-2.713688910E-1,-7.034669518E-1,8.780929446E-2
2.246886484E1,-5.083776116E-1,-8.890118003E-1,-8.093725890E-3
2.248897463E1,-5.653391480E-1,-3.661265671E-1,-3.061871827E-1
2.250908442E1,-3.025220931E-1,5.562527776E-1,-6.346703172E-1
2.252919422E1,-6.474980712E-2,9.125294685E-1,-6.659762263E-1
2.254930401E1,8.032641560E-2,5.403707623E-1,-4.176668227E-1
2.256941380E1,1.794363856E-1,-1.275907159E-1,-1.117850468E-1
2.258952359E1,2.429644912E-1,-3.974325061E-1,-1.236965694E-2
2.260963338E1,1.644706279E-1,-2.173852623E-1,-1.317902952E-1
2.262974317E1,-5.238015205E-2,1.735569835E-1,-3.148917556E-1
2.264985296E1,-2.021904439E-1,4.493545294E-1,-4.511106908E-1
2.266996276E1,-1.605001241E-1,4.743992388E-1,-4.254551232E-1
2.269007255E1,6.719320081E-3,3.717769086E-1,-3.022166789E-1
2.271018229E1,1.692046970E-1,2.471640706E-1,-1.727170646E-1
2.273029208E1,2.020377368E-1,2.053210288E-1,-1.301104724E-1
2.275040187E1,1.230857223E-1,2.434989959E-1,-1.524063945E-1
2.277051166E1,3.634541109E-2,2.790808380E-1,-1.995943487E-1
2.279062146E1,-4.779879749E-2,2.325037420E-1,-2.290677279E-1
2.281073125E1,-1.149920002E-1,1.361425817E-1,-1.931804419E-1
2.283084104E1,-8.276980370E-2,1.178171635E-1,-1.181989461E-1
2.285095083E1,5.619794875E-2,1.346154660E-1,-4.917320609E-2
2.287106062E1,1.482831687E-1,1.549261361E-1,-1.374406274E-3
2.289117041E1,8.276980370E-2,1.277434379E-1,2.260134928E-2
2.291128020E1,-9.055810422E-2,6.024480984E-2,2.932066843E-2
2.293139000E1,-1.800472289E-1,4.314108938E-2,4.459185153E-2
2.295149979E1,-1.284306347E-1,3.840702027E-2,5.803048983E-2
2.297160953E1,-1.130067464E-2,9.338327497E-2,8.124268800E-2
2.299171932E1,1.496575773E-2,1.311030984E-1,9.498675168E-2
2.301182911E1,-8.429691941E-2,1.191915721E-1,1.223221645E-1
2.303193890E1,-1.356080920E-1,1.773747802E-1,1.391204596E-1
2.305204869E1,-3.313846514E-2,3.620033562E-1,1.372879148E-1
2.307215849E1,-7.727217674E-2,3.071798086E-1,1.185043678E-1
2.309226828E1,-3.900259733E-1,9.697199799E-3,2.018850148E-1
2.311237807E1,-5.696150661E-1,-2.672456671E-3,1.991362125E-1
2.313248786E1,-4.949389994E-1,-6.177192926E-2,1.591257155E-1
2.315259765E1,-7.742489129E-2,-8.590039611E-2,2.194468826E-1
2.317270744E1,5.838172436E-1,-4.329380020E-2,3.095468581E-1
2.319281724E1,8.825215697E-1,-2.231883109E-1,3.799470067E-1
2.321292703E1,6.436802745E-1,-5.066214204E-1,4.453076422E-1
2.323303682E1,2.026485801E-1,-5.290700793E-1,4.480564594E-1
2.325314656E1,4.199574888E-2,-1.720298529E-1,3.410054743E-1
2.327325635E1,2.275405973E-1,2.486911863E-1,2.286095917E-1
2.329336614E1,4.741701782E-1,3.563530147E-1,2.278460264E-1
2.331347593E1,5.421269536E-1,1.448471546E-1,2.783936262E-1
2.333358573E1,3.318427801E-1,-2.062373012E-1,3.069507480E-1
2.335369552E1,-1.068982705E-1,-4.197284281E-1,2.828222811E-1
2.337380531E1,-4.647020400E-1,-3.745257258E-1,1.536280811E-1
2.339391510E1,-6.131379604E-1,-2.053210288E-1,-3.542914242E-2
2.341402489E1,-5.604523420E-1,-4.451549426E-2,-1.435490996E-1
2.343413468E1,-3.668137789E-1,1.458397787E-2,-1.476723254E-1
2.345424448E1,-1.322484314E-1,4.283566400E-2,-7.085828483E-2
2.347435427E1,5.344913341E-3,8.559497446E-2,-2.718270384E-2
2.349446406E1,-2.733541466E-2,8.666395396E-2,-1.175880991E-2
2.351457385E1,-1.026223376E-1,5.322006717E-2,2.748812549E-3
2.353468359E1,-1.426328421E-1,6.032116711E-3,-1.527118147E-4
2.355479338E1,-1.330119967E-1,-1.030804776E-2,3.970507067E-3
2.357490317E1,-1.096470803E-1,-2.909160033E-2,4.428642802E-3
2.359501297E1,-8.765657991E-2,-1.338519007E-1,9.162708884E-4
2.361512276E1,4.886778072E-3,-2.832040489E-1,4.123218823E-3
2.363523255E1,1.093416587E-1,-3.818559051E-1,7.024743594E-3
2.365534234E1,1.751604527E-1,-3.649048805E-1,5.222744122E-2
2.367545213E1,1.927223057E-1,-3.255052269E-1,8.903098851E-2
2.369556192E1,1.145338640E-1,-3.300865889E-1,7.467607409E-2
2.371567172E1,-9.162709117E-3,-3.762055635E-1,-9.773556143E-3
2.373578151E1,-2.948864996E-1,-6.817818880E-1,-4.138490185E-2
2.375589130E1,-6.730009913E-1,-6.365792155E-1,-1.481304616E-1
2.377600109E1,-6.850652099E-1,-9.750649333E-2,-3.668137789E-1
2.379611088E1,-1.606528312E-1,5.247941613E-1,-5.381564498E-1
2.381622067E1,3.994941115E-1,6.822400093E-1,-5.117372870E-1
2.383633041E1,6.169557571E-1,2.853420377E-1,-2.982461751E-1
2.385644021E1,5.306735635E-1,-2.564795017E-1,-1.207950488E-1
2.387655000E1,2.826695740E-1,-3.954472542E-1,-1.194206402E-1
2.389665979E1,2.382304333E-2,-1.098761484E-1,-3.194731176E-1
2.391676958E1,-2.133384049E-1,2.755684555E-1,-5.176930428E-1
2.393687937E1,-3.176405728E-1,4.223245382E-1,-5.653391480E-1
2.395698916E1,-2.493783981E-1,4.148416519E-1,-5.299099684E-1
2.397709896E1,-1.015533581E-1,3.653630316E-1,-4.656183124E-1
2.399720875E1,2.367033064E-2,3.258106709E-1,-3.921639323E-1
2.401731854E1,5.054761097E-2,2.922140658E-1,-3.229855001E-1
2.403742833E1,-5.955760833E-3,2.474694997E-1,-2.670929730E-1
2.405753812E1,-6.795676053E-2,1.584385037E-1,-2.154763639E-1
2.407764791E1,-9.086353332E-2,8.590039611E-2,-1.835595965E-1
2.409775771E1,-6.978929788E-2,1.855448633E-2,-1.676775664E-1
2.411786744E1,-5.619794875E-2,-4.100312293E-2,-1.600419879E-1
2.413797729E1,-6.978929788E-2,-1.122431830E-2,-1.423274130E-1
2.415808703E1,-2.244863659E-2,5.077667907E-2,-1.096470803E-1
2.417819682E1,1.125486046E-1,1.161373332E-1,-9.132166207E-2
2.419830661E1,2.076880634E-1,8.758022636E-2,-8.551861346E-2
2.421841640E1,1.626380831E-1,1.198787708E-2,-8.872556686E-2
2.423852619E1,5.803049076E-3,-3.443651274E-2,-1.097997949E-1
2.425863599E1,-1.640124917E-1,-5.115845706E-3,-1.162136942E-1
2.427874578E1,-2.269297540E-1,1.534753758E-2,-7.528692484E-2
2.429885557E1,-1.478250325E-1,5.413633958E-2,3.038965166E-2
2.431896536E1,1.557660475E-2,1.295759678E-1,1.496575773E-1
2.433907515E1,8.918370306E-2,1.776801944E-1,2.182251811E-1
2.435918494E1,-1.082726792E-1,-1.001025960E-1,2.536543310E-1
2.437929474E1,-2.742704153E-1,-1.230093688E-1,2.709107697E-1
2.439940453E1,-2.229592502E-1,-1.124722511E-1,2.118112892E-1
2.441951432E1,-2.580829710E-2,-3.872008026E-1,2.675510943E-1
2.443962411E1,3.455868363E-1,-4.931828082E-1,3.681881726E-1
2.445973385E1,6.029062271E-1,-3.891860545E-1,3.605526090E-1
2.447984364E1,4.949389994E-1,-3.296284378E-1,2.976353168E-1
2.449995343E1,3.147390485E-1,-2.424300015E-1,2.693836391E-1
2.452006323E1,2.762556672E-1,-4.879142344E-2,2.492256761E-1
2.454017302E1,3.026748300E-1,2.155527323E-1,2.675510943E-1
2.456028281E1,3.562766612E-1,4.172850251E-1,2.785463631E-1
2.458039260E1,3.984251320E-1,4.754682481E-1,2.840439677E-1
2.460050239E1,3.733803928E-1,3.728458881E-1,2.751866877E-1
2.462061218E1,2.273878902E-1,1.818034202E-1,2.538070381E-1
2.464072198E1,-2.596100792E-2,4.329380020E-2,2.318165302E-1
2.466083177E1,-1.805053651E-1,3.596363217E-2,2.133384049E-1
2.468094156E1,-1.656923145E-1,4.359922186E-2,1.974563748E-1
2.470105135E1,-1.365243644E-1,-3.825430945E-2,2.052446753E-1
2.472116114E1,-1.580567211E-1,-1.619508862E-1,1.882936656E-1
2.474127093E1,-1.901262105E-1,-2.265479714E-1,1.279724985E-1
2.476138073E1,-1.229330078E-1,-1.631725729E-1,3.329117596E-2
2.478149052E1,-3.344388679E-2,-2.848075330E-2,-5.818320066E-2
2.480160026E1,-3.665083647E-2,8.192989230E-2,-6.536065787E-2
2.482171005E1,-7.696675509E-2,5.902311578E-2,-1.481304597E-2
2.484181984E1,-7.650861889E-2,5.344913807E-4,3.741439432E-2
2.486192963E1,-2.382304333E-2,-5.596888065E-2,5.833591148E-2
2.488203942E1,-1.679830020E-3,-1.292705536E-1,2.932066843E-2
2.490214922E1,-7.849387079E-2,-2.244100124E-1,-7.941014133E-3
2.492225901E1,-2.365505993E-1,-3.403182924E-1,-1.450762246E-2
2.494236880E1,-3.886515796E-1,-3.966689408E-1,7.635590737E-4
2.496247859E1,-4.578300118E-1,-3.594072461E-1,7.635590620E-3
2.498258838E1,-3.582619131E-1,-1.046839505E-1,-1.374406274E-3
2.500269817E1,-3.541387022E-1,-1.957001835E-1,-3.176405653E-2
2.502280797E1,-6.219952106E-1,-3.810923398E-1,5.192201585E-3
2.504291776E1,-7.117897868E-1,-4.512634128E-2,-1.018587798E-1
2.506302755E1,-5.300627351E-1,3.690280914E-1,-2.854183912E-1
2.508313729E1,-1.806580722E-1,5.997756720E-1,-3.216110766E-1
2.510324708E1,1.870719790E-1,5.357894301E-1,-2.370087355E-1
2.512335687E1,5.192201734E-1,2.262425572E-1,-7.040014863E-2
2.514346666E1,6.668924689E-1,-2.228828967E-1,1.053711548E-1
2.516357646E1,5.030327439E-1,-4.488963783E-1,1.156028435E-1
2.518368625E1,1.675248593E-1,-3.096232116E-1,-8.032641560E-2
2.520379604E1,-7.742489129E-2,5.780142173E-2,-3.203893900E-1
2.522390583E1,-1.003316641E-1,3.507026732E-1,-4.532486796E-1
2.524401562E1,4.428642616E-2,4.093440175E-1,-4.304946065E-1
2.526412541E1,2.312056869E-1,3.522298038E-1,-3.170297146E-1
2.528423520E1,3.426853120E-1,2.525089979E-1,-2.057028115E-1
2.530434500E1,3.223746419E-1,1.547734290E-1,-1.476723254E-1
2.532445479E1,1.421747059E-1,1.033095419E-1,-1.418692768E-1
2.534456458E1,-6.016845629E-2,8.971819282E-2,-1.779092699E-1
2.536467437E1,-1.995943487E-1,7.536327839E-2,-2.475458533E-1
2.538478416E1,-2.574721277E-1,1.051420867E-1,-2.669402659E-1
2.540489390E1,-2.217375487E-1,1.251473278E-1,-2.195995897E-1
2.542500369E1,-1.275143623E-1,7.658497244E-2,-1.298050433E-1
2.544511349E1,-3.008422814E-2,3.458922729E-2,-3.527642787E-2
2.546522328E1,2.061609551E-2,2.267770469E-2,-5.955760833E-3
2.548533307E1,3.634541109E-2,9.659022093E-2,-1.847812906E-2
2.550544286E1,2.840439789E-2,1.359898746E-1,-3.206948191E-2
2.552555265E1,-8.551862091E-3,1.194969937E-1,-3.222219273E-2
2.554566244E1,-6.551336497E-2,3.565821052E-2,-1.847812906E-2
2.556577224E1,-1.363716573E-1,-4.894413799E-2,7.482878864E-3
2.558588203E1,-1.676775664E-1,-6.620056927E-2,4.443913698E-2
2.560599182E1,-1.424801201E-1,-6.284090877E-2,1.035386100E-1
2.562610161E1,-6.291726977E-2,-2.619007602E-2,1.856975704E-1
2.564621140E1,1.203369126E-1,1.779856235E-1,2.721324563E-1
2.566632119E1,2.961082160E-1,4.324035048E-1,3.307738006E-1
2.568643093E1,2.443388999E-1,3.728458881E-1,4.144598544E-1
2.570654073E1,-1.412584335E-1,-1.637834162E-1,4.395045936E-1
2.572665052E1,-5.836645365E-1,-5.967214108E-1,3.539859951E-1
2.574676031E1,-5.691569448E-1,-5.235724449E-1,2.159345001E-1
2.576687010E1,3.397837877E-1,1.607291847E-1,1.546970755E-1
2.578697989E1,1.261781335E0,4.771480560E-1,2.382304370E-1
2.580708968E1,1.371428490E0,1.885990985E-2,4.329380095E-1
2.582719948E1,8.492304087E-1,-6.254312396E-1,6.123743653E-1
2.584730927E1,2.535016239E-1,-7.425612211E-1,5.974085927E-1
2.586741906E1,5.604523420E-2,-2.978644073E-1,3.032856584E-1
2.588752885E1,1.708845198E-1,2.334200144E-1,6.108472589E-4
2.590763864E1,3.164188862E-1,4.137726724E-1,-8.948912472E-2
2.592774838E1,3.199312389E-1,2.668638825E-1,-3.084778599E-2
2.594785817E1,2.464768738E-1,5.184566230E-2,4.642439261E-2
2.596796797E1,7.696675509E-2,-6.818582863E-2,1.267508119E-1
2.598807776E1,-8.689302206E-2,-1.595838554E-2,1.308740228E-1
2.600818755E1,-1.678302884E-1,1.033095419E-1,5.314370990E-2
2.602829734E1,-2.331909388E-1,1.555369794E-1,-4.230117425E-2
2.604840713E1,-3.121429384E-1,1.175117418E-1,-1.284306347E-1
2.606851692E1,-3.159607351E-1,5.856497958E-2,-1.705790907E-1
2.608862672E1,-2.302894145E-1,2.771719359E-2,-1.586675793E-1
2.610873651E1,-1.360662282E-1,-5.726693198E-3,-9.147437662E-2
2.612884630E1,-7.085828483E-2,-6.177192926E-2,-8.399149403E-3
2.614895609E1,-4.123219103E-2,-1.304922402E-1,3.420744836E-2
2.616906588E1,-7.330167294E-2,-2.034884989E-1,2.519745007E-2
2.618917562E1,-1.279724985E-1,-2.499128878E-1,-1.985253533E-3
2.620928541E1,-1.421747059E-1,-2.555632293E-1,-1.572931744E-2
2.622939521E1,-1.261399537E-1,-2.722088099E-1,3.054236295E-4
2.624950500E1,-9.407047927E-2,-2.621298432E-1,5.329642445E-2
2.626961479E1,-6.429167092E-2,-2.497601658E-1,1.065928489E-1
2.628972458E1,-8.506047726E-2,-3.018349111E-1,1.122431830E-1
2.630983437E1,-8.582404256E-2,-3.920875788E-1,9.880454093E-2
2.632994416E1,7.391251624E-2,-3.355842233E-1,9.055810422E-2
2.635005396E1,2.866400778E-1,-3.174115121E-1,9.666658193E-2
2.637016375E1,1.921114624E-1,-6.411605477E-1,2.231119573E-1
2.639027354E1,-3.985778242E-2,-6.148941517E-1,1.956238300E-1
2.641038328E1,-1.482831687E-1,-2.039466351E-1,-7.177454978E-2
2.643049307E1,-9.865183383E-2,1.989071369E-1,-4.743228853E-1
2.645060286E1,-2.702999115E-2,1.558424085E-1,-7.434011102E-1
2.647071265E1,8.780929446E-2,-1.584385037E-1,-7.246175408E-1
2.649082244E1,3.194731176E-1,-4.163687527E-1,-5.612159371E-1
2.651093224E1,4.259132445E-1,-4.209501147E-1,-4.569137394E-1
2.653104203E1,2.496838123E-1,-9.292513877E-2,-5.302154422E-1
2.655115182E1,-1.527118147E-4,4.047626555E-1,-6.989619732E-1
2.657126161E1,-6.047387794E-2,6.936933994E-1,-7.899782062E-1
2.659137140E1,2.641914412E-2,6.775059700E-1,-7.510367036E-1
2.661148119E1,1.032331884E-1,5.131880641E-1,-6.612421870E-1
2.663159093E1,4.459185153E-2,3.265742064E-1,-5.218162537E-1
2.665170073E1,-4.947862774E-2,2.625879645E-1,-3.804051280E-1
2.667181052E1,-7.498150319E-2,3.022930324E-1,-2.822114229E-1
2.669192031E1,-1.756185852E-2,3.355842233E-1,-2.200577259E-1
2.671203010E1,2.901524492E-2,2.425827235E-1,-1.867665499E-1
2.673213989E1,1.878355257E-2,1.005607322E-1,-1.595838517E-1
2.675224968E1,1.298050396E-2,1.901262067E-2,-1.317902952E-1
2.677235948E1,6.581879407E-2,2.451024577E-2,-9.956810623E-2
2.679246927E1,1.133121699E-1,4.802786559E-2,-6.856760383E-2
2.681257906E1,1.142284349E-1,7.261446863E-2,-3.115320951E-2
2.683268880E1,7.146912813E-2,9.445225447E-2,-2.473931387E-2
2.685279859E1,2.443389036E-3,1.552315652E-1,-3.985778242E-2
2.687290838E1,-4.352286831E-2,2.541888058E-1,-6.032116711E-2
2.689301817E1,-6.856760383E-2,2.679328918E-1,-5.803048983E-2
2.691312796E1,-1.284306347E-1,2.143310308E-1,-2.031067200E-2
2.693323776E1,-2.144073844E-1,1.517191827E-1,2.535016090E-2
2.695334755E1,-2.530434728E-1,1.210241169E-1,7.696675509E-2
2.697345734E1,-2.325800955E-1,1.996707022E-1,1.241547018E-1
2.699356713E1,-2.904578745E-1,2.245627195E-1,1.127013192E-1
2.701367687E1,-5.848862529E-1,-3.794888780E-2,1.067455560E-1
2.703378666E1,-7.459971905E-1,4.046862945E-3,1.023169160E-1
2.705389646E1,-5.215108395E-1,1.798181683E-1,8.292251825E-2
2.707400625E1,-1.296523362E-1,7.750124484E-2,1.612636745E-1
2.709411604E1,2.107423097E-1,5.108210072E-2,3.124483824E-1
2.711422583E1,4.674508572E-1,2.181488276E-1,3.608580232E-1
2.713433562E1,5.757235289E-1,2.731250823E-1,3.744493723E-1
2.715444541E1,4.272876680E-1,1.840177365E-2,4.355340898E-1
2.717455515E1,1.023169160E-1,-3.865899444E-1,5.674771070E-1
2.719466494E1,-9.865183383E-2,-6.006919146E-1,6.499415040E-1
2.721477474E1,-9.987352788E-2,-5.234197378E-1,5.473191738E-1
2.723488453E1,-3.436015919E-2,-2.031830698E-1,3.574983478E-1
2.725499432E1,4.779879749E-2,1.975327283E-1,2.002051920E-1
2.727510411E1,6.688777357E-2,3.410818279E-1,1.953184158E-1
2.729521390E1,4.504998401E-2,2.662530541E-1,2.932066917E-1
2.731532369E1,5.803049076E-3,8.284615725E-2,3.724641204E-1
2.733543349E1,-4.581354442E-4,2.466295846E-2,3.871244490E-1
2.735554323E1,6.841489673E-2,3.642176837E-2,2.890834510E-1
2.737565302E1,7.024743408E-2,4.588989913E-2,1.611109674E-1
2.739576281E1,-1.985253533E-3,1.855448633E-2,5.971032009E-2
2.741587260E1,-7.391251624E-2,-1.298050396E-3,-2.657185495E-2
2.743598239E1,-8.353336155E-2,2.725905925E-2,-8.154810965E-2
2.745609218E1,-1.832541823E-2,5.245650932E-2,-7.742489129E-2
2.747620198E1,5.268557742E-2,4.802786559E-2,-4.031591862E-2
2.749631177E1,7.269082218E-2,-6.948387716E-3,-2.535016090E-2
2.751642151E1,5.497625470E-2,-7.948649675E-2,-2.519745007E-2
2.753653130E1,8.399149403E-3,-1.750840992E-1,-3.130592033E-2
2.755664109E1,-6.322269142E-2,-2.296022177E-1,-4.413371533E-2
2.757675088E1,-7.467607409E-2,-1.700446010E-1,-7.574506104E-2
2.759686067E1,6.261184346E-3,-1.382805556E-1,-8.887827396E-2
2.761697046E1,9.437590092E-2,-2.722088099E-1,-6.261184067E-2
2.763708026E1,1.053711548E-1,-4.056789279E-1,-5.711421743E-2
2.765719000E1,7.177455351E-3,-4.791333079E-1,-8.017370105E-2
2.767729979E1,-1.269035190E-1,-4.446204603E-1,-1.088835225E-1
2.769740958E1,-2.707580328E-1,-4.591280818E-1,-8.903098851E-2
2.771751937E1,-4.417952895E-1,-4.844782352E-1,-4.840964451E-2
2.773762916E1,-7.455390692E-1,-4.698179066E-1,-9.376505762E-2
2.775773896E1,-9.570449591E-1,-2.749576271E-1,-2.382304370E-1
2.777784875E1,-7.325585485E-1,1.527881771E-1,-4.063661397E-1
2.779795854E1,-9.575030953E-2,7.311078310E-1,-3.668137789E-1
2.781806828E1,6.120689511E-1,9.439880848E-1,-1.794363856E-1
2.783817807E1,1.105480790E0,6.796439290E-1,2.046338283E-2
2.785828786E1,1.226886749E0,1.057529300E-1,1.603474021E-1
2.787839765E1,9.170344472E-1,-5.269321203E-1,2.385358512E-1
2.789850744E1,3.506263196E-1,-8.836669326E-1,1.847812980E-1
2.791861724E1,-2.252499312E-1,-7.448518872E-1,-9.239064902E-2
2.793872703E1,-6.630746722E-1,-1.127776727E-1,-5.138752460E-1
2.795883682E1,-6.983511448E-1,5.444939733E-1,-7.748597264E-1
2.797894656E1,-3.756710589E-1,6.506286860E-1,-7.033905983E-1
2.799905635E1,1.114796288E-2,3.543677628E-1,-3.214583695E-1
2.801916614E1,2.504473627E-1,3.855973482E-2,3.237490356E-2
2.803927593E1,2.727433145E-1,-4.802786559E-2,1.363716573E-1
2.805938573E1,1.055238619E-1,1.168245357E-2,6.474980712E-2
2.807949552E1,-1.653869003E-1,9.292513877E-2,-7.589777559E-2
2.809960526E1,-3.367295563E-1,1.621035933E-1,-1.907370538E-1
2.811971505E1,-2.473931462E-1,1.764585078E-1,-1.918060333E-1
2.813982484E1,-4.123219103E-2,1.292705536E-1,-8.567132801E-2
2.815993463E1,9.987352788E-2,1.220930964E-1,4.749337584E-2
2.818004442E1,9.376505762E-2,1.905079931E-1,1.209477559E-1
2.820015422E1,-1.298050396E-2,2.422772944E-1,1.342336833E-1
2.822026401E1,-1.044548824E-1,1.546207070E-1,1.211004704E-1
2.824037375E1,-1.527118124E-2,2.367796749E-1,1.050657257E-1
2.826048354E1,2.330382317E-1,4.353050292E-1,1.033858955E-1
2.828059333E1,3.663556576E-1,3.290176094E-1,1.646233350E-1
2.830070312E1,2.469350100E-1,4.482091591E-2,2.623589039E-1
2.832081291E1,-1.679829881E-2,-8.101361990E-2,2.247917950E-1
2.834092265E1,-1.152974218E-1,2.115058713E-2,1.236965731E-1
2.836103244E1,2.428117767E-2,9.567394853E-2,7.177454978E-2
2.838114224E1,1.725643575E-1,3.535278514E-2,1.299577504E-1
2.840125203E1,1.878355294E-1,-8.590039611E-2,1.840177327E-1
2.842136182E1,1.043021679E-1,-1.402658075E-1,1.753131598E-1
2.844147161E1,1.756185852E-2,-1.643942744E-1,1.206423342E-1
2.846158135E1,-3.527642787E-2,-1.730988473E-1,6.948387623E-2
2.848169114E1,-5.741964281E-2,-1.405712217E-1,3.038965166E-2
2.850180093E1,-4.917320609E-2,-5.780142173E-2,2.794626169E-2
2.852191073E1,-2.748812549E-3,3.741439432E-3,5.650337040E-2
2.854202052E1,2.183778957E-2,1.962346770E-2,8.933641016E-2
2.856213031E1,-4.703523964E-2,-1.603474026E-3,9.620844573E-2
2.858224010E1,-1.540862173E-1,3.588727675E-3,8.444963396E-2
2.860234984E1,-1.707318127E-1,6.299362332E-2,6.856760383E-2
2.862245963E1,-1.073564067E-1,9.674293548E-2,8.292251825E-2
2.864256942E1,-7.406523079E-2,8.131904155E-2,1.241547018E-1
2.866267922E1,-7.788302749E-2,5.535803363E-2,1.501157135E-1
2.868278901E1,-8.124268800E-2,5.398362502E-2,1.359135211E-1
2.870289875E1,-3.909422457E-2,6.589514762E-2,9.132166207E-2
2.872300854E1,2.687728032E-2,5.703786388E-2,6.581879407E-2
2.874311833E1,7.696675509E-2,5.879404955E-3,8.108997345E-2
2.876322812E1,9.239064902E-2,-1.947075687E-2,8.628217876E-2
2.878333791E1,6.245913357E-2,-2.420482226E-2,4.169032723E-2
2.880344765E1,2.290677279E-3,-2.099787444E-2,-2.626643144E-2
2.882355744E1,-6.154286116E-2,-3.168770298E-2,-9.162709117E-2
2.884366724E1,-1.127013192E-1,-1.382041909E-2,-1.294996142E-1
2.886377703E1,-1.282779276E-1,5.871769413E-2,-1.650814712E-1
2.888388682E1,-8.139539510E-2,1.265217364E-1,-1.801999360E-1
2.890399661E1,9.926267900E-3,1.172063202E-1,-1.588202864E-1
2.892410635E1,6.047387794E-2,7.521057129E-2,-1.122431830E-1
2.894421614E1,1.542389300E-2,5.344913807E-4,-7.528692484E-2
2.896432593E1,-8.612946421E-2,-4.497363046E-2,-8.979454637E-2
2.898443573E1,-1.165191159E-1,-2.756448276E-2,-1.818797737E-1
2.900454552E1,-8.521319181E-2,-5.016583204E-2,-2.751866877E-1
2.902465526E1,-6.276455522E-2,-1.045312360E-1,-3.061871827E-1
2.904476505E1,-3.191677108E-2,-1.011715755E-1,-2.724378705E-1
2.906487484E1,2.305948362E-2,-5.627430230E-2,-2.287622988E-1
2.908498463E1,5.482354015E-2,-8.284615725E-2,-1.856975704E-1
2.910509442E1,3.451287001E-2,-1.381278336E-1,-1.563768983E-1
2.912520416E1,1.542389300E-2,-1.350736022E-1,-1.426328421E-1
2.914531396E1,1.893626526E-2,-9.017632902E-2,-1.378987730E-1
2.916542375E1,2.183778957E-2,-3.382566571E-2,-1.342336833E-1
2.918553354E1,2.229592577E-2,-4.810422193E-3,-1.189625040E-1
2.920564333E1,7.635590620E-3,9.086352773E-3,-1.035386100E-1
2.922575307E1,-1.389677543E-2,3.810159862E-2,-1.027750522E-1
2.924586286E1,2.137965523E-3,3.703261539E-2,-9.009996802E-2
2.926597265E1,4.016320780E-2,-2.710634656E-2,-6.368082762E-2
2.928608244E1,4.779879749E-2,-7.307260484E-2,-5.329642445E-2
2.930619218E1,2.504473738E-2,-6.467345357E-2,-6.688777357E-2
2.932630198E1,-2.565558441E-2,-1.229330152E-2,-8.185353130E-2
2.934641177E1,-3.206948191E-2,5.123481527E-2,-7.467607409E-2
2.936652156E1,-5.344913341E-3,3.138227761E-2,-5.405998230E-2
2.938663135E1,1.847812906E-2,-2.542651631E-2,-2.733541466E-2
2.940674109E1,2.962609194E-2,-5.917582661E-2,-1.954711229E-2
2.942685088E1,2.596100792E-2,-4.222481698E-2,-2.702999115E-2
2.944696067E1,9.773556143E-3,-1.794363745E-2,-2.641914412E-2
2.946707047E1,-5.344913341E-3,-3.520007432E-2,-6.872031838E-3
2.948718026E1,-1.572931744E-2,-8.070819080E-2,5.039489828E-3
2.950729000E1,-1.588202827E-2,-7.337802649E-2,-3.206948051E-3
2.952739979E1,-4.535540938E-2,-2.573194169E-2,-9.162709117E-3
2.954750958E1,-4.459185153E-2,-1.977618039E-2,4.734066315E-3
2.956761937E1,2.535016090E-2,-5.062396824E-2,2.046338283E-2
2.958772911E1,9.101624042E-2,-6.085565686E-2,3.390202299E-2
2.960783890E1,4.779879749E-2,-7.765395939E-2,2.733541466E-2
2.962794869E1,-4.810422286E-2,-6.482616812E-2,-6.108472589E-4
2.964805849E1,-6.368082762E-2,-3.031329438E-2,-2.901524492E-2
2.966816823E1,-7.177455351E-3,-1.779092662E-2,-2.565558441E-2
2.968827802E1,3.756710514E-2,-3.825430945E-2,6.872031838E-3
2.970838781E1,2.504473738E-2,-5.215108395E-2,2.611372061E-2
2.972849760E1,-3.176405653E-2,-3.901786730E-2,1.664558798E-2
2.974860739E1,-4.413371533E-2,-1.000262424E-2,-1.298050396E-2
2.976871713E1,1.389677543E-2,-6.490251981E-3,-1.572931744E-2
2.978882692E1,8.780929446E-2,-2.695363574E-2,2.000524849E-2
2.980893672E1,1.281252056E-1,-2.817532979E-2,4.504998401E-2
2.982904646E1,9.590301663E-2,-5.344913807E-4,5.085303262E-2
2.984915625E1,3.649812192E-2,1.091889478E-2,4.077405483E-2
2.986926604E1,2.641914412E-2,-5.268557463E-3,3.680354729E-2
2.988937583E1,7.941014320E-2,-3.611634299E-2,5.161659420E-2
2.990948562E1,1.233911440E-1,-6.971294433E-2,7.773031294E-2
2.992959536E1,9.025268257E-2,-9.323056042E-2,7.910472155E-2
2.994970515E1,1.130067464E-2,-6.681142002E-2,4.428642616E-2
2.996981494E1,-1.481304597E-2,-3.817795368E-4,1.786728203E-2
2.998992468E1,2.229592577E-2,4.023956135E-2,1.145338640E-2
3.001003448E1,3.359659761E-2,1.580567285E-2,1.893626526E-2
3.003014427E1,9.162708884E-4,-4.619532451E-2,2.214321308E-2
3.005025406E1,-2.214321308E-2,-9.720107168E-2,1.954711229E-2
3.007036380E1,-1.221694518E-3,-1.488176584E-1,2.901524492E-2
3.009047359E1,4.459185153E-2,-1.756949425E-1,6.123743951E-2
3.011058338E1,3.726168349E-2,-1.382805556E-1,8.811471611E-2
3.013069317E1,-5.390727147E-2,-2.573194169E-2,9.544488788E-2
3.015080291E1,-1.546970755E-1,9.231429547E-2,6.276455522E-2
3.017091271E1,-1.882936656E-1,1.489703804E-1,3.054236295E-4
3.019102250E1,-1.540862173E-1,9.597937763E-2,-2.076880634E-2
3.021113229E1,-6.872031838E-2,1.611109637E-2,-1.114796288E-2
3.023124203E1,2.901524492E-2,9.926267667E-4,-1.221694518E-3
3.025135182E1,7.024743408E-2,3.397838026E-2,1.527118147E-4
3.027146161E1,2.321219631E-2,5.795413256E-2,-5.803049076E-3
3.029157140E1,-4.337015375E-2,6.390989572E-2,-2.550287358E-2
3.031168114E1,-6.062658876E-2,5.489989743E-2,-4.795150831E-2
3.033179093E1,-1.252236869E-2,4.161396995E-2,-4.749337584E-2
3.035190073E1,3.130592033E-2,2.420482226E-2,-2.855710872E-2
3.037201047E1,5.253286287E-2,1.947075687E-2,5.344913341E-3
3.039212026E1,6.077930331E-2,2.496838197E-2,3.008422814E-2
3.041223005E1,7.849387079E-2,1.824906096E-2,4.871506989E-2
3.043233984E1,1.052184403E-1,-4.046862945E-3,5.039490014E-2
3.045244958E1,9.269607067E-2,-1.916533336E-2,3.878879920E-2
3.047255937E1,3.344388679E-2,1.534753758E-2,1.343864016E-2
3.049266916E1,-3.038965166E-2,6.238277629E-2,-5.803049076E-3
3.051277896E1,-2.932066843E-2,7.062921673E-2,4.275931045E-3
3.053288869E1,2.962609194E-2,5.421269219E-3,3.726168349E-2
3.055299849E1,5.803048983E-2,-4.665346071E-2,6.139015034E-2
3.057310828E1,1.084253844E-2,-2.588465251E-2,4.428642616E-2
3.059321802E1,-6.413896382E-2,3.947600350E-2,1.007897966E-2
3.061332781E1,-8.460234851E-2,8.559497446E-2,-1.038440317E-2
3.063343760E1,-3.542914242E-2,6.803311408E-2,2.290677279E-3
3.065354734E1,1.710372418E-2,2.313583903E-2,4.459185153E-2
3.067365713E1,4.520269856E-2,1.702736691E-2,6.978929788E-2
3.069376692E1,4.688252881E-2,4.023956135E-2,6.795676053E-2
3.071387672E1,9.620844387E-3,4.390464723E-2,5.680879578E-2
3.073398646E1,-3.176405653E-2,5.276193097E-2,4.230117425E-2
3.075409625E1,-4.993676394E-2,4.268295318E-2,3.252761811E-2
3.077420604E1,-3.100049868E-2,2.267770469E-2,3.756710514E-2
3.079431578E1,1.282779220E-2,-1.320957206E-2,5.222744122E-2
3.081442557E1,3.512371704E-2,-3.382566571E-2,5.848862603E-2
3.083453536E1,3.252761811E-2,-6.032116711E-3,4.978405312E-2
3.085464515E1,1.679829881E-2,4.176668078E-2,3.833066672E-2
3.087475489E1,-1.985253533E-3,4.054498672E-2,3.802524135E-2
3.089486468E1,2.382304333E-2,1.259872504E-2,3.252761811E-2
3.091497448E1,7.360709459E-2,-5.115845706E-3,1.969982497E-2
3.093508422E1,8.170082420E-2,-4.657710437E-3,1.007897966E-2
3.095519401E1,5.131116882E-2,2.290677221E-4,4.581354442E-4
3.097530380E1,3.497100621E-2,3.436015919E-3,-2.046338283E-2
3.099541354E1,3.955236077E-2,2.977880416E-3,-4.382828996E-2
3.101552333E1,3.084778599E-2,-1.030804776E-2,-4.474456236E-2
3.103563312E1,-6.108472589E-3,-2.420482226E-2,-4.398100078E-2
3.105574291E1,-3.527642787E-2,-3.894151188E-3,-5.085303262E-2
3.107585265E1,-3.527642787E-2,2.023431472E-2,-5.344913527E-2
3.109596244E1,-1.114796288E-2,1.412584260E-2,-3.451287001E-2
3.111607224E1,1.374406368E-2,-4.199574701E-3,-1.557660475E-2
3.113618198E1,2.321219631E-2,-2.817532979E-2,-1.801999472E-2
3.115629177E1,-7.177455351E-3,-4.421006888E-2,-3.542914242E-2
3.117640156E1,-3.619270027E-2,-1.962346770E-2,-5.146388337E-2
3.119651130E1,-2.260134928E-2,1.534753758E-2,-4.459185153E-2
3.121662109E1,1.068982761E-3,6.795675959E-3,-2.764083818E-2
3.123673088E1,1.847812906E-2,-2.160872146E-2,-1.649287529E-2
3.125684062E1,3.374931216E-2,-1.565296017E-2,-1.832541823E-2
3.127695041E1,4.107947648E-2,2.863346599E-2,-2.153236605E-2
3.129706020E1,1.740914769E-2,5.337277800E-2,-1.893626526E-2
3.131716994E1,-3.695625812E-2,3.504735976E-2,-1.420219894E-2
3.133727974E1,-5.421269313E-2,8.628217503E-3,-2.168507688E-2
3.135738953E1,-1.099525020E-2,-9.086352773E-3,-2.626643144E-2
3.137749927E1,1.664558798E-2,-9.086352773E-3,-1.527118124E-2
3.139760906E1,-6.872031838E-3,7.711946499E-3,-6.108472589E-4
3.141771885E1,-2.458660305E-2,2.496838197E-2,-9.162708884E-4
3.143782864E1,-1.985253533E-3,2.038702741E-2,-1.175880991E-2
3.145793838E1,-7.635590737E-4,2.825168660E-3,-2.046338283E-2
3.147804817E1,-1.740914769E-2,1.427855436E-2,-2.519745007E-2
3.149815791E1,-6.261184346E-3,4.100312293E-2,-1.725643501E-2
3.151826771E1,6.872031838E-3,2.725905925E-2,1.832541777E-3
3.153837750E1,1.404948719E-2,-1.756185899E-3,1.007897966E-2
3.155848729E1,3.619270027E-2,1.122431830E-2,-7.482878864E-3
3.157859703E1,3.206948191E-2,2.939702384E-2,-1.847812906E-2
3.159870682E1,9.926267900E-3,3.703261539E-2,-1.969982497E-2
3.161881661E1,-1.389677543E-2,1.885990985E-2,-1.298050396E-2
3.163892635E1,-1.435491070E-2,1.214058883E-2,-1.130067464E-2
3.165903614E1,-2.901524538E-3,8.399150101E-4,-4.734066315E-3
3.167914593E1,1.496575773E-2,-1.137703005E-2,1.664558798E-2
3.169925567E1,3.878879920E-2,-1.824906096E-2,3.695625812E-2
3.171936547E1,4.672981426E-2,-1.519482583E-2,4.016320780E-2
3.173947526E1,2.886253223E-2,7.711946499E-3,2.367033064E-2
3.175958500E1,-1.053711493E-2,1.046075951E-2,2.596100792E-3
3.177969479E1,-5.360184610E-2,-8.780929260E-3,-1.756185852E-2
3.179980453E1,-6.459710002E-2,-2.481566928E-2,-1.725643501E-2
3.181991432E1,-2.275406010E-2,-1.687465608E-2,6.108472589E-4
3.184002411E1,1.664558798E-2,-3.741439432E-3,2.199050039E-2
3.186013385E1,7.024743594E-3,-6.184828468E-3,2.718270384E-2
3.188024364E1,-2.183778957E-2,-1.611109637E-2,2.153236605E-2
3.190035343E1,-3.023693897E-2,-2.519744914E-3,1.466033421E-2
3.192046317E1,-2.504473738E-2,-4.657710437E-3,1.939439960E-2
3.194057296E1,-9.162709117E-3,-1.824906096E-2,3.100049868E-2
3.196068276E1,1.068982761E-3,-1.779092662E-2,3.084778599E-2
3.198079250E1,-5.344913341E-3,-9.391776286E-3,2.626643144E-2
3.200090229E1,-6.872031838E-3,-7.253811229E-3,2.412846684E-2
3.202101208E1,-1.832541777E-3,8.399150101E-4,2.153236605E-2
3.204112182E1,6.108472589E-3,5.344913807E-4,1.557660475E-2
3.206123161E1,9.162708884E-4,9.926267667E-4,6.108472589E-3
3.208134140E1,-9.926267900E-3,3.436015919E-3,-1.221694518E-3
3.210145114E1,-1.496575773E-2,-6.642963737E-3,-7.177455351E-3
3.212156093E1,-1.099525020E-2,-1.198787708E-2,-1.206423342E-2
3.214167067E1,4.428642802E-3,-9.849912487E-3,-1.236965694E-2
3.216178046E1,7.482878864E-3,-8.628217503E-3,-7.482878864E-3
3.218189026E1,2.901524538E-3,-8.322793990E-3,-6.261184346E-3
3.220200000E1,-9.162708884E-4,-4.810422193E-3,-9.009997360E-3
3.222210979E1,-1.527118147E-3,-9.926267667E-4,-9.773556143E-3
3.224221958E1,5.803049076E-3,1.030804776E-2,-1.130067464E-2
3.226232932E1,1.359135192E-2,1.443126611E-2,-1.206423342E-2
3.228243911E1,1.572931744E-2,8.628217503E-3,-1.007897966E-2
3.230254885E1,1.603474095E-2,9.239064530E-3,-8.093725890E-3
3.232265864E1,7.941014133E-3,9.239064530E-3,-1.007897966E-2
3.234276843E1,1.679830020E-3,9.926267667E-4,-9.926267900E-3
3.236287817E1,5.650337320E-3,2.977880416E-3,-9.926267900E-3
3.238298797E1,-1.114796288E-2,-1.458397787E-2,-7.788302377E-3
3.240309776E1,-4.871506989E-2,-1.427855436E-2,-7.330167107E-3
3.242320750E1,-5.772506446E-2,1.061347127E-2,-8.857285604E-3
3.244331729E1,-1.847812906E-2,2.389939874E-2,-4.428642802E-3
3.246342708E1,2.412846684E-2,-2.290677221E-4,9.468132630E-3
3.248353682E1,4.031591862E-2,-1.641651988E-2,2.092151903E-2
3.250364661E1,3.359659761E-2,2.825168660E-3,1.557660475E-2
3.252375635E1,2.214321308E-2,2.619007602E-2,3.665083554E-3
3.254386614E1,2.809897438E-2,6.948387716E-3,3.054236295E-4
3.256397588E1,3.023693897E-2,-2.359397523E-2,-7.024743594E-3
3.258408567E1,1.298050396E-2,-2.573194169E-2,-2.107422985E-2
3.260419547E1,-6.261184346E-3,-9.239064530E-3,-2.504473738E-2
3.262430520E1,-1.068982668E-2,-8.933641016E-3,-2.687728032E-2
3.264441500E1,1.221694518E-3,-2.832804248E-2,-2.870982140E-2
3.266452479E1,1.328592747E-2,-1.840177365E-2,-3.497100621E-2
3.268463453E1,1.924168877E-2,-1.015533600E-2,-3.283303976E-2
3.270474432E1,1.481304597E-2,-1.748550311E-2,-2.290677279E-2
3.272485406E1,2.137965523E-3,-2.695363574E-2,-2.076880634E-2
3.274496385E1,8.551862091E-3,-3.290939704E-2,-2.290677279E-2
3.276507364E1,2.260134928E-2,-4.482091591E-2,-2.367033064E-2
3.278518338E1,1.527118124E-2,-1.641651988E-2,-3.527642787E-2
3.280529317E1,-2.290677279E-2,1.427855436E-2,-5.207473040E-2
3.282540296E1,-6.093201414E-2,9.849912487E-3,-5.619794875E-2
3.284551271E1,-6.917845458E-2,9.926267667E-4,-5.268557742E-2
3.286562250E1,-4.214845970E-2,-1.015533600E-2,-3.436015919E-2
3.288573224E1,-3.359660041E-3,-2.023431472E-2,-1.007897966E-2
3.290584203E1,4.123218823E-3,-2.313583903E-2,7.941014133E-3
3.292595182E1,-5.803049076E-3,-1.641651988E-2,1.572931744E-2
3.294606156E1,-4.581354442E-4,-2.290677221E-4,2.153236605E-2
3.296617135E1,1.191152167E-2,2.977880416E-3,2.260134928E-2
3.298628109E1,7.024743594E-3,-7.864658721E-3,1.725643501E-2
3.300639088E1,-3.970507067E-3,-1.718007959E-2,1.481304597E-2
3.302650067E1,-1.099525020E-2,-1.603474026E-3,1.084253844E-2
3.304661041E1,-6.108472589E-3,1.244601328E-2,1.450762246E-2
3.306672020E1,1.282779220E-2,7.406522986E-3,1.527118124E-2
3.308682994E1,3.374931216E-2,1.908897655E-3,1.771457121E-2
3.310693974E1,4.840964451E-2,-8.628217503E-3,1.221694518E-2
3.312704953E1,2.275406010E-2,7.864658721E-3,-8.857285604E-3
3.314715927E1,-2.107422985E-2,1.000262424E-2,-2.046338283E-2
3.316726906E1,-2.137965336E-2,8.017370477E-3,-2.229592577E-2
3.318737880E1,-1.374406274E-3,-6.642963737E-3,-1.145338640E-2
3.320748859E1,-3.359660041E-3,-7.864658721E-3,-3.054236295E-3
3.322759838E1,-1.939439960E-2,1.947075687E-2,-9.773556143E-3
3.324770812E1,-2.657185495E-2,3.489464894E-2,-1.618745178E-2
3.326781791E1,-3.283303976E-2,1.351499557E-2,-2.443389036E-3
3.328792765E1,-3.649812192E-2,-1.259872504E-2,1.282779220E-2
3.330803744E1,-2.519745007E-2,-5.421269219E-3,2.718270384E-2
3.332814718E1,-6.566607859E-3,1.183516532E-2,4.428642616E-2
3.334825698E1,-2.443389036E-3,1.214058883E-2,4.856235534E-2
3.336836677E1,-8.246437646E-3,6.948387716E-3,3.497100621E-2
3.338847651E1,-1.557660475E-2,7.711946499E-3,1.664558798E-2
3.340858630E1,-2.764083818E-2,1.565296017E-2,1.466033421E-2
3.342869604E1,-2.657185495E-2,7.101099472E-3,2.779355086E-2
3.344880583E1,-6.108472589E-3,-1.756185899E-3,3.634541109E-2
3.346891562E1,3.512371797E-3,-7.559234742E-3,3.008422814E-2
3.348902536E1,-1.298050396E-2,-1.076618303E-2,1.557660475E-2
3.350913515E1,-3.695625812E-2,-8.399150101E-4,-1.527118147E-3
3.352924489E1,-3.222219273E-2,1.595838554E-2,-1.801999472E-2
3.354935468E1,-9.926267900E-3,2.909160033E-2,-1.542389300E-2
3.356946448E1,-2.443389036E-2,-3.130592173E-3,-1.053711493E-2
3.358957422E1,-8.353336155E-2,-3.520007432E-2,-2.382304333E-2
3.360968401E1,-1.175880954E-1,-2.176143415E-2,-3.573456407E-2
3.362979375E1,-7.116370648E-2,2.825168660E-3,-1.786728203E-2
3.364990354E1,-5.192201585E-3,6.184828468E-3,1.572931744E-2
3.367001328E1,1.252236869E-2,-1.702736691E-2,3.680354729E-2
3.369012307E1,-5.192201585E-3,-2.435753495E-2,4.016320780E-2
3.371023286E1,-1.221694518E-2,7.635590737E-5,2.015795931E-2
3.373034260E1,-1.130067464E-2,1.061347127E-2,9.773556143E-3
3.375045239E1,-3.817795310E-3,1.061347127E-2,1.481304597E-2
3.377056213E1,1.130067464E-2,-2.214321401E-3,1.404948719E-2
3.379067192E1,1.145338640E-2,-1.015533600E-2,1.343864016E-2
3.381078166E1,-1.221694518E-3,-1.641651988E-2,1.313321572E-2
3.383089146E1,-1.420219894E-2,-6.795675959E-3,2.596100792E-3
3.385100119E1,-1.435491070E-2,-5.573981442E-3,-8.704573847E-3
3.387111099E1,-3.069507517E-2,-3.588727675E-3,4.199574888E-2
3.389122078E1,-2.168507688E-2,8.399150101E-4,7.207997888E-2
3.391133052E1,-6.413896102E-3,2.710634656E-2,4.413371533E-2
3.393144031E1,-1.695101149E-2,-1.198787708E-2,-3.206948051E-3
3.395155005E1,-4.031591862E-2,-1.840177365E-2,-7.360709459E-2
3.397165984E1,-4.993676394E-2,1.824906096E-2,-7.849387079E-2
3.399176963E1,-3.863608837E-2,4.161396995E-2,-1.740914769E-2
3.401187937E1,9.468132630E-3,4.527905211E-2,3.741439432E-2
3.403198916E1,6.352811307E-2,2.008160390E-2,3.237490356E-2
3.405209890E1,7.101099193E-2,-9.239064530E-3,-1.679830020E-3
3.407220869E1,3.436015919E-2,-1.137703005E-2,-2.840439789E-2
3.409231843E1,4.734066315E-3,2.725905925E-2,-3.206948191E-2
3.411242823E1,1.038440317E-2,3.520007432E-2,-2.412846684E-2
3.413253797E1,4.138490185E-2,1.244601328E-2,-1.527118124E-2
3.415264776E1,7.040014863E-2,-1.091889478E-2,-1.756185852E-2
3.417275755E1,3.863608837E-2,-1.137703005E-2,-2.580829710E-2
3.419286729E1,-3.268032894E-2,4.352286924E-3,-3.726168349E-2
3.421297708E1,-6.306997687E-2,1.641651988E-2,-4.046862945E-2
3.423308682E1,-2.092151903E-2,7.711946499E-3,-2.764083818E-2
3.425319661E1,4.016320780E-2,-7.559234742E-3,-1.023169141E-2
3.427330635E1,4.947862774E-2,-1.137703005E-2,5.344913341E-3
3.429341614E1,1.817270555E-2,2.267770469E-2,9.468132630E-3
3.431352588E1,1.191152167E-2,5.719057471E-2,9.162708884E-4
3.433363567E1,2.290677279E-2,3.138227761E-2,-3.206948051E-3
3.435374546E1,2.046338283E-2,-5.421269219E-3,-1.221694518E-3
3.437385521E1,-2.596100792E-3,-3.283303929E-3,-6.872031838E-3
3.439396500E1,-1.801999472E-2,2.374668792E-2,-1.175880991E-2
3.441407474E1,-2.473931387E-2,3.122956678E-2,-1.068982761E-3
3.443418453E1,-1.175880991E-2,1.336228382E-2,2.061609551E-2
3.445429427E1,1.435491070E-2,-1.809635013E-2,2.015795931E-2
3.447440406E1,-1.725643501E-2,-1.947075687E-2,4.886778072E-3
3.449451385E1,-4.306473210E-2,-1.756185899E-3,-5.192201585E-3
3.451462359E1,-2.153236605E-2,2.061609412E-3,-4.886778072E-3
3.453473338E1,1.114796288E-2,-1.107160654E-2,3.665083554E-3
3.455484312E1,1.878355257E-2,-2.191414498E-2,-6.108472589E-4
3.457495291E1,4.428642802E-3,-4.199574701E-3,-1.893626526E-2
3.459506265E1,-7.635590737E-4,2.374668792E-2,-2.580829710E-2
3.461517244E1,9.773556143E-3,2.741177008E-2,-1.771457121E-2
3.463528218E1,3.161134571E-2,1.290414855E-2,-8.857285604E-3
3.465539198E1,5.955760926E-2,-1.603474026E-3,-7.177455351E-3
3.467550177E1,4.428642616E-2,-9.849912487E-3,-1.511846948E-2
3.469561151E1,2.443389036E-3,5.115845706E-3,-2.076880634E-2
3.471572130E1,-2.229592577E-2,2.664821222E-2,-2.718270384E-2
3.473583104E1,-4.917320609E-2,2.771719359E-2,-2.962609194E-2
3.475594083E1,-4.703523964E-2,1.259872504E-2,-2.580829710E-2
3.477605057E1,9.407047927E-2,1.152974181E-2,9.773556143E-3
3.479616036E1,1.696628332E-1,-4.695888236E-2,2.061609551E-2
3.481627010E1,-2.991624475E-1,1.120141149E-1,-2.412846684E-2
3.483637989E1,-7.067502737E-1,3.664320111E-1,-5.528167635E-2
3.485648963E1,-3.336753249E-1,2.152473032E-1,-6.673506647E-2
3.487659942E1,3.787252903E-1,-1.856212169E-1,4.337015375E-2
3.489670922E1,7.750124335E-1,-4.916556776E-1,7.162184268E-2
