"Time (s)","Acceleration x (m/s^2)","Acceleration y (m/s^2)","Acceleration z (m/s^2)"
2.191018900E-2,-2.791950226E0,6.271950245E0,7.644000530E0
4.180981300E-2,-2.397000074E0,5.857950211E0,8.245050430E0
6.170917400E-2,-2.385000229E0,5.827050209E0,8.224050522E0
8.160855800E-2,-1.909050107E0,5.647050381E0,7.668000221E0
1.015080010E-1,-1.617000103E0,5.641950130E0,7.122000217E0
1.214073910E-1,-1.971000075E0,6.042000294E0,7.012050152E0
1.413067700E-1,-2.287050009E0,6.243000507E0,7.117050171E0
1.612063900E-1,-2.296950102E0,6.205050468E0,7.225050449E0
1.811057940E-1,-2.208000183E0,6.154950142E0,7.390050411E0
2.010051790E-1,-2.026050091E0,6.073050499E0,7.594050407E0
2.209046500E-1,-1.948950052E0,5.968050480E0,7.738050461E0
2.408040050E-1,-2.014050007E0,5.949000359E0,7.708950520E0
2.607033810E-1,-2.184000015E0,5.997000217E0,7.551000595E0
2.806029860E-1,-2.184000015E0,6.070950508E0,7.654050350E0
3.005023850E-1,-2.076000214E0,6.109050274E0,7.618050575E0
3.204017700E-1,-1.983000040E0,6.070950508E0,7.383000374E0
3.403012270E-1,-2.100000143E0,6.010950089E0,7.240050316E0
3.602006110E-1,-2.206050158E0,6.460950375E0,7.299000263E0
3.800999960E-1,-2.215050220E0,6.708000183E0,7.254000187E0
3.999993800E-1,-2.446950197E0,6.769950390E0,7.558050156E0
4.198990110E-1,-2.596050024E0,6.765000343E0,8.314949989E0
4.397983800E-1,-2.055000067E0,6.255000114E0,8.578050613E0
4.596977560E-1,-1.018050075E0,5.386050224E0,8.383950233E0
4.795972030E-1,-4.860000312E-1,4.866000175E0,8.437050819E0
4.994965390E-1,-5.419500470E-1,4.870950222E0,9.391950607E0
5.193959340E-1,-7.759500146E-1,4.957050323E0,9.679050446E0
5.392955480E-1,-1.075049996E0,4.813950062E0,9.709950447E0
5.591949330E-1,-1.252950072E0,4.816050053E0,1.025100040E1
5.790943280E-1,-1.747950077E0,4.665000439E0,1.181505013E1
5.989937990E-1,-1.777050138E0,4.740000248E0,1.345500088E1
6.188932030E-1,-1.480050087E0,4.720050335E0,1.426395035E1
6.387925670E-1,-1.402950048E0,4.681950092E0,1.164000034E1
6.586921870E-1,-1.453950047E0,4.736999989E0,1.091205025E1
6.785915720E-1,-2.185950041E0,3.543000221E0,1.216695023E1
6.984909800E-1,-1.771950126E0,2.104050159E0,1.162605095E1
7.183903510E-1,-1.477950096E0,1.074000001E0,1.097700024E1
7.382897940E-1,-2.323050022E0,1.146000028E0,9.442049980E0
7.581891770E-1,-1.969050050E0,1.560000062E0,7.551000595E0
7.780885620E-1,-2.281949997E0,2.749950171E0,6.744000435E0
7.979881770E-1,-3.063000202E0,3.006000042E0,5.644950390E0
8.178875910E-1,-3.489000082E0,3.574050188E0,5.005950451E0
8.377869660E-1,-2.883000135E0,3.565950155E0,4.872000217E0
8.576863360E-1,-1.291050076E0,2.377050161E0,6.478050232E0
8.775858080E-1,-5.250000358E-1,1.882950068E0,7.524000168E0
8.974851730E-1,-1.636050105E0,2.665950060E0,7.729950428E0
9.173845480E-1,-2.692050219E0,3.169050217E0,7.357050419E0
9.372841250E-1,-1.702950120E0,3.328950167E0,7.311000347E0
9.571835390E-1,-1.188000083E0,3.592950106E0,8.005949974E0
9.770829820E-1,-6.919500232E-1,3.408000231E0,9.243000031E0
9.969823810E-1,-4.605000094E-2,2.656950235E0,1.011000061E1
1.016881750E0,1.519050121E0,1.981050134E0,1.061295033E1
1.036781164E0,3.682950258E0,1.291950107E0,1.106505013E1
1.056680784E0,2.557950020E0,1.675050020E0,1.017195034E1
1.076580198E0,9.679500461E-1,2.221050024E0,1.055505085E1
1.096479592E0,2.620500028E-1,2.359950066E0,1.221495056E1
1.116379077E0,-6.520500183E-1,2.877000093E0,1.377105045E1
1.136278453E0,-4.099500179E-1,2.791050196E0,1.469295025E1
1.156177833E0,8.959500194E-1,1.423950076E0,1.418805027E1
1.176077453E0,2.503050089E0,6.405000389E-2,1.337805080E1
1.195976833E0,3.568050146E0,-3.709500134E-1,1.272000027E1
1.215876227E0,3.915000200E0,6.379500031E-1,1.234395027E1
1.235775689E0,2.383050203E0,1.054949999E0,1.210500050E1
1.255675078E0,2.031000137E0,9.880500436E-1,1.024695015E1
1.275574467E0,1.653000116E0,1.048050046E0,1.081605053E1
1.295474112E0,1.252950072E0,6.049500108E-1,1.021095085E1
1.315373481E0,7.570500374E-1,4.780500233E-1,8.992050171E0
1.335272861E0,-2.020500153E-1,8.509500623E-1,7.912050247E0
1.355172295E0,-1.106999993E0,1.363950014E0,7.347000122E0
1.375071679E0,-1.549950123E0,1.954950094E0,7.443000317E0
1.394971285E0,-1.351050019E0,2.221050024E0,8.097000122E0
1.414870659E0,-1.126049995E0,2.331000090E0,8.707050323E0
1.434770025E0,-1.387050033E0,2.544000149E0,9.088050842E0
1.454669501E0,-1.731000066E0,2.604000092E0,9.097050667E0
1.474568890E0,-1.863000035E0,2.793000221E0,9.193050385E0
1.494468285E0,-1.878000140E0,2.863050222E0,9.634050369E0
1.514367909E0,-1.866000056E0,3.010950089E0,1.041900063E1
1.534267299E0,-1.786950111E0,3.199950218E0,1.045305061E1
1.554166698E0,-1.947000146E0,3.648000240E0,9.895050049E0
1.574066169E0,-1.711950064E0,4.018949986E0,9.126000404E0
1.593965539E0,-1.236000061E0,4.219950199E0,8.668950081E0
1.613864886E0,-1.513950109E0,4.561950207E0,9.065999985E0
1.633764491E0,-2.560050011E0,4.665000439E0,9.615000725E0
1.653663944E0,-3.417000055E0,4.038000107E0,9.475950241E0
1.673563337E0,-4.261950016E0,3.600000143E0,8.683050156E0
1.693462722E0,-4.666950226E0,2.817000151E0,8.343000412E0
1.713362319E0,-4.707000256E0,1.819050074E0,9.018000603E0
1.733261712E0,-4.546950340E0,1.069050074E0,9.379950523E0
1.753161184E0,-4.102050304E0,6.120000482E-1,8.656949997E0
1.773060549E0,-3.498000145E0,1.285050035E0,8.475000381E0
1.792959924E0,-2.344050169E0,1.753950119E0,9.117000580E0
1.812859314E0,-8.100000620E-1,2.341050148E0,8.020050049E0
1.832758693E0,-2.779500186E-1,2.673000097E0,7.246950150E0
1.852658299E0,1.489500105E-1,3.262050152E0,7.266000271E0
1.872557669E0,1.339050055E0,2.080049992E0,8.994000435E0
1.892457131E0,1.669950128E0,8.010000587E-1,9.664950371E0
1.912356506E0,9.589500427E-1,7.360500097E-1,8.427000046E0
1.932256150E0,8.770500422E-1,8.830500245E-1,8.568000793E0
1.952155516E0,4.939500093E-1,2.009999990E0,9.100049973E0
1.972054920E0,6.829500198E-1,2.427000046E0,9.124050140E0
1.991954381E0,1.405950069E0,2.151000023E0,9.032999992E0
2.011853798E0,1.162050009E0,2.929950237E0,8.848050117E0
2.031753413E0,9.589500427E-1,3.538050175E0,9.291000366E0
2.051652793E0,1.714950085E0,3.279000044E0,9.931050301E0
2.071552178E0,2.332950115E0,3.528000116E0,1.109400082E1
2.091451654E0,2.836050034E0,3.495000124E0,1.286400032E1
2.111351039E0,3.085050106E0,2.386050224E0,1.342095089E1
2.131250668E0,3.085050106E0,1.369050026E0,1.310505104E1
2.151150053E0,2.827950239E0,1.146000028E0,1.312695026E1
2.171049524E0,2.740050077E0,9.469500184E-1,1.290900040E1
2.190948909E0,2.398050070E0,7.630500197E-1,1.179105091E1
2.210848520E0,1.951950073E0,6.049500108E-1,1.054395008E1
2.230747899E0,2.188950062E0,5.899500251E-1,9.481050491E0
2.250647361E0,2.488050222E0,6.979500055E-1,8.254950523E0
2.270546759E0,2.407050133E0,1.210950017E0,7.137000561E0
2.290446346E0,2.110050201E0,1.215000033E0,6.664950371E0
2.310345812E0,1.267050028E0,1.551000118E0,6.439950466E0
2.330245086E0,2.260500044E-1,1.905000091E0,5.815050125E0
2.350144563E0,-8.580000401E-1,2.539050102E0,5.200050354E0
2.370043928E0,-1.336050034E0,3.034950256E0,5.355000019E0
2.389943534E0,-3.570000231E-1,2.793000221E0,6.366000175E0
2.409842924E0,4.990500212E-1,2.700000048E0,7.417050362E0
2.429742317E0,7.789500356E-1,2.700000048E0,7.672950268E0
2.449641750E0,4.680000246E-1,2.941950083E0,7.266000271E0
2.469541370E0,1.609500051E-1,2.977050066E0,6.742050171E0
2.489440524E0,1.399500072E-1,2.961000204E0,6.736950397E0
2.509340164E0,3.480000198E-1,3.016050100E0,7.029000282E0
2.529239649E0,5.520000458E-1,3.424950123E0,7.435950279E0
2.549139034E0,1.215000033E0,3.684000254E0,8.551950455E0
2.569038639E0,1.911000133E0,4.375950336E0,9.801000595E0
2.588938044E0,2.256000042E0,5.448000431E0,1.045500088E1
2.608837514E0,2.481000185E0,6.586050510E0,1.123995018E1
2.628736894E0,4.144950390E0,7.171950340E0,1.264305019E1
2.648636510E0,6.676050186E0,7.263000488E0,1.386705112E1
2.668535894E0,7.018050194E0,7.704000473E0,1.479795074E1
2.688435370E0,5.340000153E0,7.387950420E0,1.507605076E1
2.708334759E0,3.517950058E0,6.715050220E0,1.385205078E1
2.728234356E0,2.911950111E0,5.886000156E0,1.312905025E1
2.748133727E0,3.171000242E0,4.380000114E0,1.373700047E1
2.768033188E0,2.575050116E0,2.977050066E0,1.371105099E1
2.787932572E0,1.569000125E0,1.737000108E0,1.292100048E1
2.807831947E0,1.069050074E0,7.920000553E-1,1.167405033E1
2.827731563E0,4.579500258E-1,1.012050033E0,9.715050697E0
2.847631005E0,1.500000060E-2,1.452000022E0,8.206950188E0
2.867530389E0,-3.979500234E-1,1.711050034E0,7.326000214E0
2.887429765E0,-7.279500365E-1,1.657950044E0,7.419000149E0
2.907329360E0,-4.890000224E-1,1.483050108E0,8.118000031E0
2.927228842E0,7.800000161E-2,1.905000091E0,8.902950287E0
2.947128217E0,2.830500007E-1,2.902950048E0,9.423000336E0
2.967027615E0,1.660500020E-1,3.430050135E0,9.394050598E0
2.986927226E0,-1.819500029E-1,3.139950037E0,8.925000191E0
3.006826687E0,-1.440000087E-1,2.869950056E0,8.832000732E0
3.026726082E0,5.400000215E-1,3.006000042E0,9.175950050E0
3.046625457E0,1.188000083E0,3.211950064E0,9.576000214E0
3.066525087E0,1.414050102E0,3.147000074E0,9.792000771E0
3.086424558E0,1.318050027E0,2.982000113E0,9.397050858E0
3.106323928E0,1.275000095E0,2.910000086E0,8.743050575E0
3.126223558E0,1.858950138E0,3.004050255E0,8.298000336E0
3.146122903E0,2.536050081E0,3.241050243E0,8.002950668E0
3.166022366E0,2.577000141E0,3.667050123E0,7.426050186E0
3.185921996E0,2.371050119E0,4.005000114E0,7.081950188E0
3.205821386E0,2.413950205E0,4.183950424E0,7.347000122E0
3.225720795E0,3.247050047E0,4.039950371E0,8.353050232E0
3.245620251E0,4.003950119E0,3.801000118E0,9.679050446E0
3.265519645E0,3.865050077E0,3.400950193E0,1.045500088E1
3.285419246E0,3.303000212E0,3.253050089E0,1.017705059E1
3.305318689E0,2.845050097E0,3.291000128E0,9.234000206E0
3.325218088E0,2.788050175E0,3.291000128E0,8.475000381E0
3.345117689E0,3.192000151E0,2.854950190E0,7.840050220E0
3.365017184E0,3.496050119E0,3.016050100E0,6.988050461E0
3.384916554E0,3.484050274E0,2.785950184E0,6.220050335E0
3.404815929E0,3.220950127E0,2.523000002E0,6.763050556E0
3.424715549E0,3.523050070E0,2.317050219E0,8.346000671E0
3.444614996E0,4.179000378E0,2.026950121E0,8.889000893E0
3.464514381E0,4.665000439E0,2.038950205E0,8.395950317E0
3.484413996E0,4.456950188E0,2.566050053E0,7.474050522E0
3.504313361E0,3.391050100E0,3.346050262E0,6.106950283E0
3.524212822E0,2.259000063E0,3.949950218E0,5.053950310E0
3.544112183E0,1.686000109E0,4.183950424E0,4.869000435E0
3.564011793E0,1.710000038E0,4.336950302E0,5.452950478E0
3.583911236E0,2.035950184E0,4.552950382E0,6.130950451E0
3.603810625E0,2.041050196E0,4.792050362E0,6.499950409E0
3.623710245E0,1.744050026E0,4.798950195E0,7.134000301E0
3.643609621E0,1.572000027E0,4.798950195E0,8.530050278E0
3.663509077E0,1.768050075E0,5.175000191E0,9.799050331E0
3.683408462E0,2.110050201E0,5.611050129E0,1.024200058E1
3.703308091E0,2.416950226E0,5.839050293E0,1.036395073E1
3.723207563E0,2.220000029E0,5.791050434E0,1.066995049E1
3.743106957E0,1.618950129E0,5.917950153E0,1.135005093E1
3.763006582E0,9.370500445E-1,6.018000126E0,1.220505047E1
3.782905991E0,4.530000091E-1,5.827050209E0,1.349595070E1
3.802805457E0,6.105000153E-2,6.013050079E0,1.434300041E1
3.822704876E0,-3.070500195E-1,6.114000320E0,1.383795071E1
3.842604501E0,-2.659500241E-1,5.431950092E0,1.394295025E1
3.862503900E0,-5.250000358E-1,4.483050346E0,1.437405109E1
3.882403357E0,-1.018050075E0,3.492000103E0,1.420905113E1
3.902302996E0,-1.140000105E0,2.949000120E0,1.330395031E1
3.922202468E0,-5.269500017E-1,2.745000124E0,1.131195068E1
3.942101765E0,5.200500488E-1,2.614050150E0,9.472949982E0
3.962001237E0,1.666950107E0,2.530050039E0,8.410050392E0
3.981900866E0,2.280000210E0,2.446050167E0,7.546050549E0
4.001800294E0,2.155950069E0,2.427000046E0,6.787050247E0
4.021699924E0,1.758000135E0,2.700000048E0,6.430050373E0
4.041599068E0,1.677000046E0,2.973000050E0,6.181050301E0
4.061498684E0,2.351999998E0,3.169050217E0,6.001950264E0
4.081398135E0,3.058050156E0,3.456000090E0,5.712000370E0
4.101297751E0,3.070050240E0,3.844050169E0,5.571000099E0
4.121197208E0,2.620050192E0,4.273050308E0,5.748000145E0
4.141096563E0,2.874000072E0,4.576950073E0,6.256050110E0
4.160995938E0,3.741000175E0,4.938000202E0,5.998950481E0
4.180895543E0,4.336950302E0,5.539050102E0,5.287950039E0
4.200795010E0,3.955950260E0,5.874000072E0,5.274000168E0
4.220694394E0,3.252000093E0,5.755050182E0,6.303000450E0
4.240593789E0,3.358050108E0,5.320950031E0,7.869000435E0
4.260493505E0,4.021049976E0,4.765950203E0,8.551950455E0
4.280392875E0,4.321950436E0,4.288949966E0,8.439000130E0
4.300292510E0,4.050000191E0,3.763050079E0,7.512000561E0
4.320191909E0,3.906000137E0,2.953950167E0,6.811050415E0
4.340091346E0,4.018050194E0,2.890950203E0,7.306950569E0
4.359990755E0,4.002000332E0,3.231000185E0,8.026950836E0
4.379890385E0,3.310050249E0,3.478050232E0,7.453050137E0
4.399789865E0,2.364000082E0,3.873000145E0,6.730050087E0
4.419689245E0,1.660050035E0,4.243950367E0,6.679050446E0
4.439588851E0,1.665000081E0,4.288949966E0,6.775050163E0
4.459488270E0,1.842000127E0,4.309050083E0,6.496950150E0
4.479387756E0,1.959000111E0,4.384950161E0,6.484950542E0
4.499287371E0,2.110050201E0,4.261050224E0,6.670050144E0
4.519186751E0,2.113049984E0,4.123950005E0,7.086000443E0
4.539086207E0,2.188950062E0,3.813000202E0,7.765950203E0
4.558985809E0,2.119950056E0,3.897000074E0,9.046950340E0
4.578885213E0,1.903950095E0,4.018949986E0,9.825000763E0
4.598784683E0,1.923000097E0,4.288949966E0,9.840000153E0
4.618684035E0,2.292000055E0,4.378050327E0,9.973950386E0
4.638583650E0,2.095950127E0,4.773000240E0,1.069395065E1
4.658483112E0,1.594950080E0,5.166000366E0,1.163295078E1
4.678382703E0,1.348950028E0,5.350050449E0,1.194705009E1
4.698282068E0,1.417950034E0,5.740050316E0,1.242300034E1
4.718181511E0,1.830000043E0,6.055950165E0,1.391505051E1
4.738080900E0,1.408950090E0,6.130950451E0,1.527705097E1
4.757980526E0,8.320500255E-1,5.829000473E0,1.560495090E1
4.777879957E0,8.460000157E-1,5.151000023E0,1.492995071E1
4.797779318E0,1.318050027E0,3.997050285E0,1.466595078E1
4.817678717E0,1.464000106E0,2.938950062E0,1.501605034E1
4.837578332E0,1.096950054E0,2.101050138E0,1.435995102E1
4.857477794E0,6.570000052E-1,1.752000093E0,1.267905045E1
4.877377178E0,6.450000405E-1,1.606050134E0,1.093605042E1
4.897276775E0,9.439500570E-1,1.407000065E0,9.634050369E0
4.917176232E0,1.183950067E0,9.780000448E-1,8.578050613E0
4.937075621E0,1.129050016E0,7.770000100E-1,7.584000587E0
4.956975260E0,8.050500154E-1,8.950500488E-1,6.739050388E0
4.976874746E0,7.240500450E-1,1.099950075E0,6.145050526E0
4.996774159E0,1.030050039E0,1.443000078E0,5.461050034E0
5.016673760E0,1.123950005E0,2.104050159E0,5.070000172E0
5.036573222E0,9.630000591E-1,2.721000195E0,5.227950096E0
5.056472591E0,7.600500584E-1,3.135000229E0,5.443950176E0
5.076372207E0,8.580000401E-1,3.705000162E0,5.920050144E0
5.096271683E0,1.033050060E0,4.476000309E0,6.865950108E0
5.116171078E0,1.078050017E0,5.295000076E0,8.001000404E0
5.136070698E0,1.456950068E0,5.431950092E0,8.998950005E0
5.155970193E0,1.821000099E0,5.323950291E0,9.658050537E0
5.175869784E0,1.966950059E0,5.179950237E0,9.973950386E0
5.195769174E0,2.254050016E0,4.966950417E0,1.042395020E1
5.215668578E0,2.560050011E0,4.720050335E0,1.096005058E1
5.235568044E0,2.677950144E0,4.345050335E0,1.119195080E1
5.255467655E0,2.725950241E0,3.901950121E0,1.107705021E1
5.275367015E0,2.730000019E0,3.753000259E0,1.101495075E1
5.295266448E0,2.970000029E0,3.520950079E0,1.024395084E1
5.315166054E0,3.300000191E0,3.246000051E0,9.145050049E0
5.335065458E0,3.312000275E0,3.013050079E0,8.191950798E0
5.354964939E0,2.887950182E0,2.866950035E0,7.527000427E0
5.374864559E0,2.239950180E0,2.920050144E0,7.635000229E0
5.394763958E0,1.804050088E0,3.097050190E0,8.158950806E0
5.414663414E0,1.758000135E0,2.946000099E0,8.383950233E0
5.434562799E0,1.864050031E0,2.902950048E0,8.158950806E0
5.454462381E0,1.582950115E0,3.301050186E0,7.732950211E0
5.474361804E0,1.195950031E0,3.652950287E0,7.285050392E0
5.494261213E0,9.780000448E-1,3.993000269E0,6.909000397E0
5.514160809E0,8.410500288E-1,4.288949966E0,6.628950119E0
5.534060251E0,8.460000157E-1,4.213050365E0,6.394050121E0
5.553959862E0,8.959500194E-1,4.141050339E0,6.550050259E0
5.573859251E0,8.650500178E-1,4.102950096E0,7.125000477E0
5.593758717E0,6.400500536E-1,4.105050087E0,7.833000183E0
5.613658333E0,5.200500488E-1,4.108050346E0,8.275950432E0
5.633557693E0,4.510500133E-1,4.179000378E0,8.062950134E0
5.653457131E0,3.979500234E-1,4.369050026E0,7.966950417E0
5.673356727E0,2.830500007E-1,4.515000343E0,8.479949951E0
5.693256121E0,3.169500232E-1,4.524000168E0,9.688950539E0
5.713155569E0,4.609500170E-1,4.555050373E0,1.101495075E1
5.733055179E0,5.850000381E-1,4.548000336E0,1.143195057E1
5.752954631E0,3.480000198E-1,4.741950035E0,1.138395023E1
5.772854006E0,-3.900000080E-2,4.906949997E0,1.124295044E1
5.792753626E0,-3.280500174E-1,5.118000031E0,1.134300041E1
5.812653068E0,-4.600500166E-1,5.403000355E0,1.131405067E1
5.832552674E0,-6.520500183E-1,5.839050293E0,1.049100018E1
5.852452050E0,-6.280500293E-1,6.028050423E0,9.658050537E0
5.872351506E0,-1.560000032E-1,5.731050491E0,9.367950439E0
5.892250900E0,4.920000136E-1,4.998000145E0,9.748950005E0
5.912150506E0,1.123950005E0,3.799050093E0,1.103895092E1
5.932049972E0,7.810500264E-1,2.628000021E0,1.264605045E1
5.951949597E0,-1.750500053E-1,2.451000214E0,1.285200024E1
5.971849078E0,-1.489500105E-1,2.970000029E0,1.193700027E1
5.991748477E0,8.479500413E-1,3.267000198E0,1.075695038E1
6.011648083E0,1.750950098E0,3.328950167E0,1.018905067E1
6.031547563E0,1.785000086E0,3.382050276E0,9.828000069E0
6.051446933E0,8.080500364E-1,3.559050083E0,8.956050873E0
6.071346563E0,-7.905000448E-2,3.624000072E0,8.425050735E0
6.091246043E0,-4.510500133E-1,3.420000076E0,8.652000427E0
6.111145645E0,-2.569500208E-1,3.070950031E0,8.839050293E0
6.131045053E0,3.550500274E-1,2.980050087E0,8.604000092E0
6.150944539E0,8.629500270E-1,2.986950159E0,8.239950180E0
6.170843924E0,9.349500537E-1,2.932050228E0,7.591050148E0
6.190743553E0,7.429500222E-1,3.078000069E0,7.213050365E0
6.210643006E0,8.250000477E-1,3.253050089E0,7.117050171E0
6.230542404E0,1.356000066E0,3.583050251E0,6.823050499E0
6.250442034E0,1.978950143E0,3.910950184E0,6.564000130E0
6.270341505E0,2.212949991E0,4.018949986E0,7.029000282E0
6.290241121E0,1.618950129E0,4.198950291E0,7.551000595E0
6.310140563E0,7.720500231E-1,4.810950279E0,7.797000408E0
6.330040188E0,8.770500422E-1,5.398050308E0,7.477050304E0
6.349939567E0,1.420950055E0,5.839050293E0,7.291950226E0
6.369839049E0,1.524000049E0,6.103950500E0,8.062950134E0
6.389738660E0,1.387050033E0,6.094950199E0,8.953950882E0
6.409638136E0,1.129050016E0,6.085050106E0,9.262950897E0
6.429537535E0,1.015950084E0,5.854950428E0,9.787050247E0
6.449437145E0,1.228950024E0,5.488950253E0,1.064205074E1
6.469336631E0,1.722000122E0,5.412000179E0,1.089495087E1
6.489236251E0,2.160000086E0,5.130000114E0,1.000500011E1
6.509135617E0,2.515050173E0,4.713000298E0,8.887050629E0
6.529035073E0,2.874000072E0,4.278000355E0,8.271000862E0
6.548934675E0,3.066000223E0,3.777000189E0,8.607000351E0
6.568834059E0,2.802000046E0,3.592950106E0,9.595050812E0
6.588733521E0,2.413950205E0,3.399000168E0,9.864000320E0
6.608633136E0,2.170050144E0,3.231000185E0,9.196050644E0
6.628532588E0,2.328000069E0,3.241050243E0,8.487000465E0
6.648432203E0,2.686950207E0,3.250050068E0,8.070000648E0
6.668331554E0,2.802000046E0,3.274050236E0,7.813950539E0
6.688231005E0,2.647050142E0,3.504000187E0,7.171950340E0
6.708130620E0,2.517000198E0,3.681000233E0,6.568950176E0
6.728030005E0,2.428950071E0,3.934950113E0,6.804000378E0
6.747929717E0,2.160000086E0,4.207950115E0,7.524000168E0
6.767829169E0,1.900050044E0,4.300950050E0,7.857000351E0
6.787728515E0,1.705950022E0,4.459050179E0,7.462050438E0
6.807628117E0,1.798950076E0,4.492950439E0,6.958950520E0
6.827527597E0,1.749000072E0,4.633950233E0,6.904050350E0
6.847427232E0,1.537950039E0,4.753950119E0,7.156050205E0
6.867326634E0,1.212000012E0,5.025000095E0,6.895050526E0
6.887226116E0,1.078050017E0,5.356950283E0,6.307950497E0
6.907125727E0,1.294050097E0,5.817000389E0,6.622050285E0
6.927025178E0,1.597950101E0,5.961000443E0,7.615050316E0
6.946924799E0,1.777050138E0,6.001050472E0,8.266950607E0
6.966824274E0,1.837050080E0,6.292950153E0,8.764950752E0
6.986723678E0,1.983000040E0,6.523050308E0,9.349050522E0
7.006623309E0,1.879950047E0,6.688050270E0,9.849000931E0
7.026522761E0,1.734000087E0,6.661950111E0,1.029495049E1
7.046422169E0,1.891950130E0,6.753000259E0,1.029900074E1
7.066321790E0,2.116950035E0,7.066950321E0,9.142950058E0
7.086221256E0,1.311000109E0,6.681000233E0,8.257050514E0
7.106120876E0,6.105000153E-2,6.279000282E0,8.728950500E0
7.126020352E0,1.279500127E-1,5.745000362E0,8.599050522E0
7.145919963E0,8.890500665E-1,4.950000286E0,7.930950165E0
7.165819333E0,5.610000491E-1,3.882000208E0,7.684950352E0
7.185718756E0,1.192950010E0,7.170000076E-1,8.128050804E0
7.205618386E0,1.971000075E0,-5.430000424E-1,8.956050873E0
7.225517828E0,2.191950083E0,9.109500647E-1,1.206405067E1
7.245417478E0,7.290000319E-1,4.591050148E0,1.197795010E1
7.265316847E0,-1.104000092E0,5.542050362E0,9.732000351E0
7.285216300E0,-2.119050026E0,3.850950241E0,9.460950851E0
7.305115905E0,-1.059000015E0,1.926000118E0,9.130949974E0
7.325015376E0,-5.250000358E-1,3.199950218E0,8.556000710E0
7.344914728E0,-6.000000238E-2,3.982950211E0,8.479949951E0
7.364814343E0,-5.700000525E-1,3.763050079E0,8.523000717E0
7.384713795E0,-1.393950105E0,3.756000280E0,8.206950188E0
7.404613424E0,-1.123050094E0,3.645000219E0,6.780000210E0
7.424512886E0,-2.020500153E-1,4.239000320E0,5.704950333E0
7.444412251E0,9.420000315E-1,4.797000408E0,5.725950241E0
7.464311857E0,1.674000025E0,5.110950470E0,6.679050446E0
7.484211328E0,1.971000075E0,5.190000057E0,8.379000664E0
7.504110944E0,2.182049990E0,4.864050388E0,8.221050262E0
7.524010376E0,2.677950144E0,5.127000332E0,7.144050121E0
7.543909997E0,4.638000011E0,5.484000206E0,6.777000427E0
7.563809357E0,3.625950098E0,6.115950108E0,6.184050083E0
7.583708824E0,2.407050133E0,5.629950047E0,6.322950363E0
7.603608424E0,1.995000124E0,4.930950165E0,7.860000610E0
7.623507871E0,1.323000073E0,4.933950424E0,9.157050133E0
7.643407471E0,1.384950042E0,4.753950119E0,8.700000763E0
7.663306943E0,1.792050123E0,5.364000320E0,7.486050129E0
7.683206313E0,2.440950155E0,5.716050148E0,7.563000202E0
7.703105938E0,2.593950033E0,6.030000210E0,7.084050179E0
7.723005385E0,2.713950157E0,5.908050060E0,6.583950520E0
7.742905010E0,2.974950075E0,6.006000519E0,6.852000237E0
7.762804458E0,3.523050070E0,5.986950397E0,7.327950478E0
7.782704077E0,3.337950230E0,5.407950401E0,7.486050129E0
7.802603467E0,2.898000240E0,5.512950420E0,7.656000137E0
7.822502947E0,3.207000256E0,5.326050282E0,7.888050556E0
7.842402597E0,3.432000160E0,5.427000046E0,8.560950279E0
7.862302010E0,3.690000057E0,5.692050457E0,7.879050255E0
7.879020068E0,-5.629050255E0,7.632000446E0,9.069000244E0
7.898919213E0,-6.325950146E0,8.524950027E0,8.980050087E0
7.918818622E0,-6.271050453E0,9.226050377E0,9.550050735E0
7.938718029E0,-5.518950462E0,8.263950348E0,1.176000023E1
7.958617414E0,-4.056000233E0,6.847050190E0,1.290195084E1
7.978516747E0,-3.631950140E0,5.556000233E0,1.135800076E1
7.998416155E0,-4.198050022E0,5.520000458E0,8.355000496E0
8.018315323E0,-4.573050022E0,5.173050404E0,6.934950352E0
8.038214718E0,-5.317950249E0,4.684950352E0,7.933950424E0
8.058114106E0,-4.468050003E0,3.553950071E0,8.680950165E0
8.078013433E0,-3.592050076E0,1.900050044E0,8.203949928E0
8.097912823E0,-3.987000227E0,1.894950032E0,7.126950264E0
8.117812208E0,-3.723000288E0,3.283950090E0,7.309050560E0
8.137711347E0,-3.460050106E0,4.776000023E0,8.515950203E0
8.157610708E0,-2.929050207E0,4.855050087E0,8.914950371E0
8.177510006E0,-2.218050003E0,4.615050316E0,8.583000183E0
8.197409376E0,-1.923000097E0,4.669950008E0,9.354000092E0
8.217308775E0,-4.939500093E-1,5.368950367E0,1.042395020E1
8.237208169E0,2.569500208E-1,5.898000240E0,1.093905067E1
8.257107290E0,5.680500269E-1,3.703050137E0,1.102500057E1
8.277006693E0,8.959500194E-1,2.616000175E0,1.095795059E1
8.296905986E0,1.171950102E0,2.227950096E0,1.080705070E1
8.316805362E0,1.144950032E0,1.117050052E0,1.287105083E1
8.336704750E0,1.063950062E0,4.230000079E-1,1.151595020E1
8.356604169E0,1.258050084E0,-1.440000087E-1,1.159200096E1
8.376503337E0,1.272000074E0,-4.720500112E-1,1.020600033E1
8.396402737E0,3.289500177E-1,-6.030000448E-1,9.976050377E0
8.416302064E0,-4.290000200E-1,-6.970500350E-1,1.035900021E1
8.436201434E0,-7.450500131E-1,-7.210500240E-1,9.129000664E0
8.456100603E0,-7.140000463E-1,-7.159500122E-1,9.040050507E0
8.476000012E0,1.469999999E-1,-1.990500093E-1,8.560950279E0
8.495899319E0,1.891950130E0,1.740000099E-1,8.398050308E0
8.515798723E0,1.533000112E0,3.610500097E-1,8.317049980E0
8.535698108E0,-1.060500070E-1,8.130000234E-1,8.359950066E0
8.555597492E0,-1.083000064E0,3.409500122E-1,8.367000580E0
8.575496660E0,-4.909500182E-1,-6.510000229E-1,1.128600025E1
8.595396031E0,-3.063000202E0,1.335000038E0,1.310505104E1
8.615295368E0,-3.525000095E0,1.018950105E0,1.320105076E1
8.635194742E0,-2.268000126E0,-1.483950019E0,1.055505085E1
8.655093881E0,-2.397000074E0,-5.410500169E-1,7.453050137E0
8.674993242E0,-2.839950085E0,1.267950058E0,8.173049927E0
8.694892618E0,-2.272950172E0,2.343000174E0,8.749950409E0
8.714791929E0,-2.269950151E0,1.074000001E0,6.598050117E0
8.734691314E0,-2.035950184E0,9.210000634E-1,5.310000420E0
8.754590468E0,-3.592050076E0,3.178950071E0,6.700950146E0
8.774489762E0,-6.157950401E0,5.551050186E0,9.861000061E0
8.794389122E0,-2.706000090E0,3.082950115E0,1.165905094E1
8.814288507E0,-3.757050276E0,2.407950163E0,1.076895046E1
8.834187627E0,-4.936950207E0,2.122950077E0,1.238505077E1
8.854087001E0,-5.698950291E0,2.199000120E0,1.697205162E1
8.873986295E0,-3.409950256E0,1.330050111E0,1.764705086E1
8.893885454E0,-7.000500560E-1,1.930500120E-1,1.786995125E1
8.913784810E0,5.659500360E-1,-5.550000072E-1,1.634205055E1
8.933684194E0,2.113049984E0,1.000500023E-1,1.312395096E1
8.953583588E0,3.532050133E0,1.354050040E0,1.034700012E1
8.973482901E0,5.344950199E0,1.792050123E0,1.024200058E1
8.993382285E0,6.087000370E0,1.045050025E0,1.118805027E1
9.013281420E0,5.218050480E0,4.660500288E-1,9.709950447E0
9.033180713E0,4.789050102E0,-8.380500674E-1,6.010950089E0
9.053080113E0,5.926950455E0,-1.300050020E0,3.196050167E0
9.072979506E0,6.247050285E0,-3.202950239E0,2.841000080E0
9.092878660E0,5.649000168E0,-2.976000071E0,5.302950382E0
9.112778055E0,4.792050362E0,-4.519500136E-1,7.036050320E0
9.132677377E0,5.878950119E0,-6.580500603E-1,6.298950195E0
9.152576766E0,6.100950241E0,1.174950004E0,5.956050396E0
9.172475928E0,8.104949951E0,8.899500370E-1,4.800000191E0
9.192375281E0,6.262050152E0,2.956050158E0,4.816950321E0
9.212274608E0,2.479050159E0,3.313050270E0,1.004805088E1
9.232174001E0,1.224000096E0,3.492000103E0,1.684005165E1
9.252073377E0,1.239000082E0,4.552950382E0,1.726905060E1
9.271972536E0,3.030000031E-1,4.668000221E0,1.254705048E1
9.291871848E0,-1.319999993E-1,3.868050098E0,8.467950821E0
9.311771246E0,-2.368050098E0,3.490050077E0,9.703050613E0
9.331670650E0,-4.855950356E0,2.472000122E0,1.219095039E1
9.351569804E0,-5.719950199E0,3.214050055E0,8.530050278E0
9.371469194E0,-4.602000237E0,4.653000355E0,4.672950268E0
9.391368501E0,-2.814000130E0,4.423950195E0,8.314949989E0
9.411267655E0,-3.099000216E0,4.632000446E0,1.621305084E1
9.431167059E0,-4.267050266E0,3.946950197E0,1.661295128E1
9.451066438E0,-5.260950089E0,4.861950397E0,1.335000038E1
9.470965818E0,-3.015000105E0,5.350050449E0,1.381395054E1
9.490865145E0,1.861050129E0,4.179000378E0,1.419900036E1
9.510764309E0,7.030050278E0,3.789000273E0,1.460400105E1
9.530663664E0,6.412950516E0,3.921000242E0,1.554300117E1
9.550563049E0,4.138050079E0,3.673950195E0,1.589895058E1
9.570462395E0,5.356950283E0,3.873000145E0,1.300200081E1
9.590361790E0,9.355050087E0,4.117050171E0,1.115595055E1
9.610260957E0,1.271700096E1,3.894000292E0,9.721950531E0
9.630160333E0,1.001100063E1,1.984050035E0,8.824049950E0
9.650059693E0,6.808050156E0,5.620500445E-1,8.748000145E0
9.669959016E0,7.842000484E0,-8.160000443E-1,8.427000046E0
9.689858410E0,1.038900089E1,-1.657050133E0,8.427000046E0
9.709757795E0,1.036095047E1,-1.999050140E0,6.502050400E0
9.729656949E0,7.441950321E0,-2.727000237E0,3.046950102E0
9.749556290E0,5.395050049E0,-2.482950211E0,1.672950029E0
9.769455680E0,6.243000507E0,-1.738050103E0,3.337050200E0
9.789355002E0,8.946000099E0,-1.350000024E0,6.178950310E0
9.809254367E0,8.329950333E0,-2.920500040E-1,6.684000492E0
9.829153506E0,4.456950188E0,7.560000420E-1,5.182950020E0
9.849052920E0,1.504050016E0,2.175000191E0,2.901000023E0
9.868952324E0,4.560000300E-1,4.114950180E0,1.944000125E0
9.888851631E0,5.230500102E-1,6.010950089E0,2.497050047E0
9.908751002E0,5.320500135E-1,6.588000298E0,4.069950104E0
9.928650377E0,-7.669500113E-1,6.301050186E0,6.646050453E0
9.948549771E0,-1.678950071E0,5.524950027E0,8.068050385E0
9.968448939E0,-1.396050096E0,4.462050438E0,7.120050430E0
9.988348257E0,1.780500114E-1,3.466050148E0,5.350950241E0
1.000824763E1,1.890000105E0,3.211950064E0,5.014950275E0
1.002814700E1,2.398050070E0,2.805000067E0,5.365050316E0
1.004804618E1,2.070000172E0,2.815050125E0,6.940050125E0
1.006794562E1,2.670000076E0,3.021000147E0,1.036200047E1
1.008784501E1,5.938950062E0,4.243950367E0,1.165695095E1
1.010774440E1,9.889050484E0,6.640950203E0,1.174500084E1
1.012764379E1,1.117200089E1,8.247000694E0,1.835295105E1
1.014754313E1,8.104949951E0,6.589950085E0,2.626605034E1
1.016744252E1,1.311000109E0,7.063950539E0,2.647905159E1
1.018734188E1,-1.336050034E0,8.560950279E0,1.994595146E1
1.020724102E1,-7.810500264E-1,8.010000229E0,1.192500019E1
1.022714041E1,-1.080000028E-1,6.741000175E0,3.948000193E0
1.024703977E1,-1.510500014E-1,5.154000282E0,-1.189500093E-1
1.026693908E1,-2.127000093E0,1.885950089E0,4.768950462E0
1.028683848E1,-6.022050381E0,7.605000585E-2,8.745000839E0
1.030673784E1,-7.324050426E0,3.010500073E-1,6.282000065E0
1.032663697E1,-7.573050499E0,1.902000070E0,4.515000343E0
1.034653660E1,-4.558950424E0,2.367000103E0,8.215950012E0
1.036643574E1,-9.940500259E-1,2.982000113E0,1.356000042E1
1.038633508E1,8.200500607E-1,3.844050169E0,1.539705086E1
1.040623445E1,3.556050062E0,4.957050323E0,1.597800064E1
1.042613375E1,8.299050331E0,7.729950428E0,1.651695061E1
1.044603320E1,1.087095070E1,8.953050613E0,1.668000031E1
1.046593248E1,1.180200100E1,8.447999954E0,2.093205070E1
1.048583188E1,1.494300079E1,7.404000282E0,2.415705109E1
1.050573128E1,1.651395035E1,6.250050068E0,2.107800102E1
1.052563064E1,1.367700100E1,4.789950371E0,1.573395061E1
1.054553004E1,1.038705063E1,1.237050056E0,1.049805069E1
1.056542944E1,7.927950382E0,-7.780500650E-1,7.195950508E0
1.058532884E1,8.215050697E0,-2.698050022E0,5.997000217E0
1.060522797E1,1.090695095E1,-4.567950249E0,4.240050316E0
1.062512736E1,1.056195068E1,-6.607950211E0,-6.559500098E-1
1.064502673E1,9.111000061E0,-6.937950134E0,-2.515950203E0
1.066492613E1,9.034049988E0,-4.687950134E0,-3.487950087E0
1.068482550E1,1.203405094E1,-3.280050039E0,-3.343950272E0
1.070472491E1,1.203405094E1,-2.349000216E0,-3.952050209E0
1.072462430E1,8.713050842E0,-5.749500394E-1,-4.282950401E0
1.074452368E1,8.496000290E0,1.372950077E0,-2.832000017E0
1.076442305E1,1.036800003E1,2.937000036E0,-1.810500026E-1
1.078432246E1,9.705000877E0,4.866000175E0,5.041950226E0
1.080422174E1,7.399050236E0,4.974000454E0,1.637100029E1
1.082412118E1,7.272000313E0,4.516950130E0,2.300295067E1
1.084402058E1,8.938050270E0,4.900050163E0,2.059905052E1
1.086391987E1,6.006000519E0,5.532000065E0,1.819995117E1
1.088381933E1,2.484000206E0,4.131000042E0,1.958595085E1
1.090371863E1,5.595000088E-2,1.893000126E0,1.874805069E1
1.092361810E1,-1.063050032E0,1.444950104E0,1.143405056E1
1.094351751E1,4.129500091E-1,3.496950150E0,4.302000046E0
1.096341692E1,1.093050003E0,5.343000412E0,5.037000179E0
1.098331628E1,-1.252950072E0,5.695050240E0,1.028505039E1
1.100321568E1,-4.489950180E0,6.315000534E0,1.286595058E1
1.102311505E1,-5.404050350E0,7.831050396E0,1.043595028E1
1.104301445E1,-2.911950111E0,9.490050316E0,8.808000565E0
1.106291383E1,-6.420000196E-1,9.660000801E0,1.056000042E1
1.108281322E1,-9.490500689E-1,8.001000404E0,1.265805054E1
1.110271283E1,6.000000052E-3,6.127950191E0,1.460895061E1
1.112261223E1,3.562950134E0,4.054950237E0,1.599495029E1
1.114251162E1,4.819950104E0,3.466050148E0,1.396995068E1
1.116241101E1,3.634950161E0,3.186000109E0,9.061950684E0
1.118231042E1,3.003000259E0,3.169050217E0,6.153000355E0
1.120220978E1,4.545000076E0,3.150000095E0,7.186950207E0
1.122210924E1,8.401950836E0,3.055950165E0,1.034205055E1
1.124200864E1,9.571050644E0,2.344950199E0,1.513095093E1
1.126190800E1,8.653950691E0,2.014950037E0,1.682400131E1
1.128180739E1,1.067700005E1,3.021000147E0,1.575795078E1
1.130170677E1,1.299900055E1,5.050950050E0,1.595700073E1
1.132160616E1,1.063095093E1,6.736050129E0,1.714695168E1
1.134150554E1,8.425950050E0,7.657950401E0,1.601399994E1
1.136140493E1,7.741050243E0,8.998950005E0,1.486305046E1
1.138130455E1,8.467050552E0,8.175000191E0,1.288005066E1
1.140120392E1,4.734000206E0,6.595050335E0,7.801950455E0
1.142110331E1,-1.204950094E0,4.962000370E0,7.510500550E-1
1.144100278E1,-3.570000172E0,3.408000231E0,-2.809950113E0
1.146090215E1,-3.019500077E-1,7.800000310E-1,-3.270000219E0
1.148080153E1,3.697950125E0,-9.070500135E-1,-1.732950091E0
1.150070090E1,4.669950008E0,-1.566000104E0,1.890000105E-1
1.152060052E1,6.006000519E0,-2.727000237E0,4.710000157E-1
1.154049990E1,9.355050087E0,-4.470000267E0,-5.050500035E-1
1.156039925E1,1.023900032E1,-4.515000343E0,-2.413050175E0
1.158029871E1,7.309950352E0,-2.856000185E0,-4.161000252E0
1.160019809E1,6.790950298E0,-1.249950051E0,-4.531949997E0
1.162009749E1,9.730950356E0,-2.370000184E-1,-3.390000105E0
1.163999685E1,1.000395012E1,2.134950161E0,-1.525050044E0
1.165989647E1,8.206049919E0,4.689000130E0,-1.606050134E0
1.167979585E1,7.798950195E0,6.043950081E0,-2.212050200E0
1.169969523E1,9.360000610E0,7.297050476E0,7.230000496E-1
1.171959471E1,1.657395172E1,8.901000023E0,4.831050396E0
1.173949409E1,2.103405190E1,9.684000015E0,1.106805038E1
1.175939369E1,1.691100121E1,9.166050911E0,1.531800079E1
1.177929311E1,1.086795044E1,8.386050224E0,1.791495132E1
1.179919248E1,7.582950592E0,7.921050549E0,2.529405212E1
1.181909193E1,9.894000053E0,7.624950409E0,2.888595200E1
1.183899131E1,1.146195030E1,6.982950211E0,2.540400124E1
1.185889095E1,6.532050133E0,6.159000397E0,2.250705147E1
1.187879033E1,1.585950017E0,4.902000427E0,1.997700119E1
1.189868972E1,-4.960500300E-1,3.199950218E0,1.405605030E1
1.191858919E1,-2.779500186E-1,1.026000023E0,8.926950455E0
1.193848855E1,3.480000198E-1,-2.028000116E0,5.355000019E0
1.195838816E1,-2.976000071E0,-4.714050293E0,1.707000136E0
1.197828763E1,-7.738950253E0,-6.724950314E0,1.084050059E0
1.199818700E1,-6.004950523E0,-7.728000164E0,6.343950272E0
1.201808641E1,-1.281000018E0,-6.342000484E0,1.177905083E1
1.203798606E1,-4.120500088E-1,-3.361050129E0,1.303305054E1
1.205788544E1,3.859500289E-1,-1.530000091E0,9.603000641E0
1.207778491E1,3.645000219E0,-2.580000162E-1,7.342050552E0
1.209768428E1,8.791950226E0,2.122950077E0,8.713950157E0
1.211758390E1,1.216605091E1,3.853950262E0,4.234950066E0
1.213748330E1,1.146195030E1,4.372950077E0,9.600000381E-1
1.215738268E1,8.373000145E0,4.039950371E0,4.789950371E0
1.217728214E1,7.585950375E0,2.917950153E0,8.638050079E0
1.219718177E1,6.823950291E0,1.936050057E0,9.901950836E0
1.221708117E1,3.967950106E0,2.659050226E0,1.089495087E1
1.223698065E1,4.303050041E0,3.331950188E0,1.257900047E1
1.225688005E1,9.891000748E0,2.383949995E0,1.402905083E1
1.227677971E1,1.612095070E1,1.924050093E0,1.765904999E1
1.229667918E1,1.557000065E1,1.147950053E0,1.672305107E1
1.231657858E1,1.248900032E1,6.190500259E-1,1.187505054E1
1.233647795E1,1.100700092E1,2.190000117E-1,8.026950836E0
1.235637763E1,1.151205063E1,8.130000234E-1,8.247000694E0
1.237627702E1,1.462500095E1,6.889500618E-1,1.139805031E1
1.239617640E1,1.616895103E1,4.350000322E-1,1.186005020E1
1.241607578E1,1.444005108E1,1.800000109E-2,9.909000397E0
1.243597539E1,1.103595066E1,1.500000060E-1,7.855050564E0
1.245587483E1,8.934000015E0,4.470000267E-1,8.161050797E0
1.247577447E1,1.025100040E1,9.495000541E-2,9.190950394E0
1.249567386E1,1.182105064E1,1.570500135E-1,9.121050835E0
1.251557332E1,1.002495003E1,8.299500346E-1,8.596950531E0
1.253547267E1,6.682950497E0,9.850500226E-1,8.329050064E0
1.255537226E1,4.891950130E0,4.129500091E-1,8.662050247E0
1.257527173E1,4.990050316E0,9.705000371E-2,8.206950188E0
1.259517108E1,6.013050079E0,8.590500355E-1,8.142000198E0
1.261507069E1,5.440950394E0,1.122000098E0,7.254000187E0
1.263497016E1,4.107000351E0,1.225050092E0,5.704950333E0
1.265486952E1,3.673950195E0,1.998000145E0,4.903050423E0
1.267476914E1,2.689950228E0,3.277050257E0,4.327950001E0
1.269466860E1,1.251000047E0,4.026000023E0,2.464950085E0
1.271456821E1,1.192950010E0,4.230000019E0,7.780500650E-1
1.273446761E1,1.962000132E0,4.629000187E0,1.549500078E-1
1.275436708E1,2.259000063E0,5.143950462E0,5.879999995E-1
1.277426646E1,1.876050115E0,6.061050415E0,1.443000078E0
1.279416606E1,1.270050049E0,6.415950298E0,9.810000658E-1
1.281406552E1,8.460000157E-1,6.424950123E0,3.250500262E-1
1.283396490E1,5.200500488E-1,6.508950233E0,2.209050179E0
1.285386454E1,3.480000198E-1,6.115950108E0,3.958950281E0
1.287376403E1,-6.000000238E-2,5.733000278E0,4.254000187E0
1.289366368E1,-4.150500298E-1,5.508000374E0,3.616950274E0
1.291356304E1,-5.340000391E-1,5.719050407E0,3.286950111E0
1.293346251E1,-6.780000329E-1,6.052050114E0,3.672000170E0
1.295336212E1,-9.750000238E-1,6.528000355E0,3.853950262E0
1.297326157E1,-1.468050122E0,7.062000275E0,3.615000248E0
1.299316096E1,-1.863000035E0,7.500000477E0,3.658050060E0
1.301306060E1,-1.738950133E0,7.894950390E0,4.383000374E0
1.303296003E1,-1.375050068E0,7.633950233E0,5.113050461E0
1.305285942E1,-1.150050044E0,6.982950211E0,6.354000092E0
1.307275912E1,-1.602000117E0,6.600000381E0,7.462050438E0
1.309265853E1,-2.127000093E0,6.709950447E0,8.491950035E0
1.311255815E1,-1.684050083E0,7.005000114E0,9.811050415E0
1.313245761E1,-6.420000196E-1,7.086000443E0,1.059405041E1
1.315235719E1,2.239500135E-1,7.291950226E0,1.040895081E1
1.317225658E1,8.479500413E-1,7.845000267E0,9.331950188E0
1.319215604E1,1.432950020E0,7.977000237E0,8.485050201E0
1.321205564E1,1.945050120E0,7.941000462E0,8.105999947E0
1.323195511E1,1.804050088E0,7.567050457E0,7.504950523E0
1.325185449E1,7.219500542E-1,7.327950478E0,6.205050468E0
1.327175411E1,-5.320500135E-1,7.387950420E0,5.128050327E0
1.329165358E1,-1.207050085E0,7.564950466E0,4.390050411E0
1.331155317E1,-1.626000047E0,7.834950447E0,4.243950367E0
1.333145259E1,-1.063050032E0,7.279950142E0,4.041000366E0
1.335135199E1,-1.780500114E-1,6.301050186E0,3.796950102E0
1.337125160E1,1.639500111E-1,5.386050224E0,4.563000202E0
1.339115104E1,-1.368000031E0,4.986000061E0,4.339950085E0
1.341105066E1,-1.150050044E0,4.675050259E0,4.768950462E0
1.343095010E1,-1.106999993E0,3.705000162E0,5.676000118E0
1.345084949E1,-1.492050052E0,2.994000196E0,8.110950470E0
1.347074913E1,-2.524050236E0,2.179949999E0,1.153695011E1
1.349064856E1,-2.281949997E0,1.756050110E0,1.490805054E1
1.351054816E1,-1.216950059E0,2.412000179E0,1.419000053E1
1.353044759E1,-5.059500337E-1,2.649000168E0,1.272900105E1
1.355034720E1,-5.295000225E-2,2.707050085E0,1.227495098E1
1.357024664E1,3.720000088E-1,1.861950040E0,1.132395077E1
1.359014627E1,-2.419500053E-1,6.289500594E-1,9.576000214E0
1.361004573E1,4.800000191E-1,-2.100000158E-2,8.085000038E0
1.362994537E1,2.872050047E0,-2.730000019E-1,1.011000061E1
1.364984477E1,4.492050171E0,1.420950055E0,1.359405041E1
1.366974447E1,4.657950401E0,2.709000111E0,9.721950531E0
1.368964391E1,3.163950205E0,3.753000259E0,8.394000053E0
1.370954330E1,2.476950169E0,4.371000290E0,8.752950668E0
1.372944289E1,2.706000090E0,4.703999996E0,6.733950138E0
1.374934236E1,5.230500102E-1,4.810950279E0,5.032050133E0
1.376924198E1,-4.461000443E0,6.472950459E0,9.241050720E0
1.378914142E1,-3.763950109E0,4.986000061E0,1.079295063E1
1.380904103E1,-8.700000644E-1,2.673000097E0,1.064895058E1
1.382894049E1,-1.186050057E0,4.684950352E0,9.648000717E0
1.384884012E1,-2.128950119E0,5.131950378E0,8.347949982E0
1.386873957E1,-2.907000065E0,4.981050014E0,6.969000340E0
1.388863921E1,-3.429000139E0,4.629000187E0,7.825950146E0
1.390853865E1,-4.168950081E0,4.620000362E0,9.612000465E0
1.392843826E1,-3.622950077E0,4.390050411E0,1.031400013E1
1.394833773E1,-3.142050266E0,5.296950340E0,9.415950775E0
1.396823734E1,-2.749050140E0,5.074950218E0,8.133000374E0
1.398813681E1,-4.240950108E0,4.974000454E0,7.687050343E0
1.400803645E1,-5.337000370E0,4.384950161E0,7.828950405E0
1.402793592E1,-4.839000225E0,4.716000080E0,7.845000267E0
1.404783553E1,-3.774000168E0,5.508000374E0,7.848000526E0
1.406773499E1,-3.382950068E0,5.593950272E0,7.275000572E0
1.408763458E1,-3.939000130E0,5.098950386E0,6.049950123E0
1.410753407E1,-4.273950100E0,5.025000095E0,5.050950050E0
1.412743369E1,-5.068950176E0,5.568000317E0,1.528950095E0
1.414733318E1,-5.703000069E0,5.233050346E0,7.411950588E0
1.416723288E1,-5.919000149E0,5.476950169E0,7.480950356E0
1.418713228E1,-4.669050217E0,5.362050056E0,6.210000515E0
1.422237143E1,-5.185950279E0,4.890000343E0,8.166000366E0
1.424227057E1,-5.272950172E0,5.329050064E0,8.154000282E0
1.426216992E1,-5.581050396E0,5.812050343E0,8.791049957E0
1.428206911E1,-5.545050144E0,5.581950188E0,9.411000252E0
1.430196843E1,-5.203050137E0,5.050950050E0,1.023195076E1
1.432186760E1,-4.707000256E0,4.579050064E0,1.120005035E1
1.434176691E1,-4.473000050E0,4.122000217E0,1.160400009E1
1.436166601E1,-4.867950439E0,3.985050201E0,1.102005005E1
1.438156520E1,-5.425950050E0,3.873000145E0,1.053600025E1
1.440146455E1,-5.386950493E0,3.808050156E0,1.046505070E1
1.442136372E1,-4.465950012E0,3.387000084E0,1.051695061E1
1.444126304E1,-3.517950058E0,3.028050184E0,1.018200016E1
1.446116241E1,-2.980950117E0,2.877000093E0,9.909000397E0
1.448106156E1,-2.895000219E0,2.460000038E0,9.718050003E0
1.450096086E1,-3.348000050E0,2.143949986E0,9.160050392E0
1.452085990E1,-3.787950277E0,2.092050076E0,8.271000862E0
1.454075904E1,-3.819000244E0,2.398050070E0,7.635000229E0
1.456065833E1,-3.391050100E0,2.515050173E0,7.702050209E0
1.458055748E1,-3.237000227E0,2.305050135E0,7.957950592E0
1.460045678E1,-3.556050062E0,2.427000046E0,7.951050282E0
1.462035593E1,-3.711000204E0,2.403000116E0,7.555950165E0
1.464025525E1,-3.700050116E0,2.365050077E0,7.006950378E0
1.466015440E1,-3.706950188E0,2.458050013E0,6.627000332E0
1.468005371E1,-3.783000231E0,2.781000137E0,6.679050446E0
1.469995287E1,-3.747000217E0,3.235950232E0,7.162950516E0
1.471985214E1,-3.301950216E0,3.339000225E0,7.579950333E0
1.473975131E1,-3.088950157E0,3.238050222E0,7.642050266E0
1.475965040E1,-3.415050268E0,3.384000063E0,7.417050362E0
1.477954979E1,-3.757050276E0,3.520950079E0,7.174950123E0
1.479944888E1,-3.858000278E0,3.765000105E0,7.084050179E0
1.481934828E1,-3.655950069E0,3.799050093E0,7.089000225E0
1.483924738E1,-3.433950186E0,3.466050148E0,7.186950207E0
1.485914669E1,-3.553050280E0,3.315000057E0,7.426050186E0
1.487904584E1,-3.573000193E0,3.100050211E0,7.855050564E0
1.489894514E1,-3.520050049E0,2.922000170E0,7.824000359E0
1.491884430E1,-3.558000088E0,2.860050201E0,7.441050529E0
1.493874362E1,-3.858000278E0,2.760000229E0,7.584000587E0
1.495864278E1,-4.221000195E0,2.347950220E0,8.500950813E0
1.497854207E1,-4.260000229E0,2.257050037E0,9.081000328E0
1.499844122E1,-4.092000008E0,2.134950161E0,9.205050468E0
1.501834052E1,-4.011000156E0,2.271000147E0,9.046950340E0
1.503823966E1,-3.678000212E0,2.314050198E0,8.902950287E0
1.505813872E1,-3.405000210E0,2.287950039E0,8.728950500E0
1.507803810E1,-3.616050243E0,1.978950143E0,8.743050575E0
1.509793715E1,-4.095000267E0,1.680000067E0,9.319950104E0
1.511783645E1,-4.260000229E0,1.219950080E0,9.801000595E0
1.513773558E1,-4.117949963E0,9.090000391E-1,1.000200081E1
1.515763488E1,-3.972000122E0,6.289500594E-1,9.796950340E0
1.517753405E1,-4.473000050E0,1.759500057E-1,1.043100071E1
1.519743340E1,-5.248950481E0,-2.149500102E-1,1.146105099E1
1.521733257E1,-4.750950336E0,-3.570000231E-1,1.169805050E1
1.523723163E1,-3.345000267E0,-2.370000184E-1,1.159695053E1
1.525713100E1,-2.445000172E0,-2.370000184E-1,1.171395016E1
1.527703008E1,-2.052000046E0,-7.050000131E-3,1.210200024E1
1.529692948E1,-1.489950061E0,-2.130000144E-1,1.214505100E1
1.531682854E1,-9.559500217E-1,-2.149500102E-1,1.156095028E1
1.533672785E1,-3.210000098E-1,7.605000585E-2,1.074495029E1
1.535662703E1,2.209500074E-1,5.760000348E-1,9.910950661E0
1.537652636E1,7.720500231E-1,7.050000429E-1,9.832050323E0
1.539642551E1,9.300000668E-1,5.020500422E-1,9.799050331E0
1.541632484E1,8.010000587E-1,2.029500157E-1,9.313050270E0
1.543622403E1,4.819500148E-1,2.410500050E-1,7.912050247E0
1.545612335E1,4.905000329E-2,8.200500607E-1,6.370050430E0
1.547602251E1,-3.049500287E-1,1.345050097E0,5.524950027E0
1.549592182E1,-4.770000279E-1,1.275000095E0,5.937000275E0
1.551582094E1,-3.259500265E-1,1.036050081E0,6.742050171E0
1.553572025E1,7.950000465E-3,7.129500508E-1,7.354050159E0
1.555561942E1,-3.690000176E-1,3.850500286E-1,7.705950260E0
1.557551873E1,-1.392000079E0,3.299999982E-2,8.154000282E0
1.559541790E1,-1.846050143E0,-5.170500278E-1,8.652000427E0
1.561531721E1,-2.289000034E0,-1.041000009E0,8.596950531E0
1.563521639E1,-1.675950050E0,-1.875000119E0,9.777000427E0
1.565511571E1,-1.417950034E0,-2.131050110E0,1.029705048E1
1.567501486E1,-8.839500546E-1,-2.736000061E0,1.241595078E1
1.569491414E1,-4.720500112E-1,-2.929950237E0,1.238205051E1
1.571481329E1,-1.990500093E-1,-3.081000090E0,1.221495056E1
1.573471255E1,-3.640500307E-1,-2.547000170E0,1.160895061E1
1.575461170E1,-1.000950098E0,-2.182950020E0,1.086000061E1
1.577451101E1,-1.423050046E0,-1.963050127E0,1.056000042E1
1.579441017E1,-1.348050117E0,-1.717050076E0,1.015305042E1
1.581430948E1,-1.669050097E0,-1.609050035E0,9.921000481E0
1.583420887E1,-2.457000017E0,-1.594050050E0,1.081200027E1
1.585410795E1,-2.677050114E0,-2.503950119E0,1.204500103E1
1.587400732E1,-2.293950081E0,-4.060050011E0,1.204500103E1
1.589390646E1,-1.546950102E0,-4.453050137E0,1.236300087E1
1.591380552E1,-2.437950134E0,-3.268050194E0,1.217895031E1
1.593370491E1,-4.209000111E0,-3.487950087E0,1.198995018E1
1.595360421E1,-5.197950363E0,-5.125950336E0,1.106295013E1
1.597350333E1,-4.851000309E0,-3.790050268E0,9.825000763E0
1.599340263E1,-3.822000265E0,-2.370000124E0,1.008600044E1
1.601330182E1,-1.851000071E0,-2.049000025E0,1.120200062E1
1.603320114E1,-2.004000187E0,-1.954050064E0,1.110900021E1
1.605310033E1,-1.518000126E0,-2.362950087E0,1.055805016E1
1.607299963E1,-7.879500389E-1,-3.703950167E0,1.071600056E1
1.609289878E1,-1.758000135E0,-1.951050043E0,1.131705093E1
1.611279817E1,-2.292000055E0,-3.730500042E-1,1.193895054E1
1.613269749E1,-1.918050051E0,-1.870500147E-1,1.419495106E1
1.615259665E1,-1.255050063E0,-4.330500066E-1,1.487700081E1
1.617249596E1,-1.624050021E0,-7.249500155E-1,1.283505058E1
1.619239536E1,-2.566950083E0,-6.750000119E-1,1.074195004E1
1.621229453E1,-3.220950127E0,-5.629500151E-1,9.034950256E0
1.623219386E1,-3.252000093E0,-4.429500103E-1,7.668000221E0
1.625209302E1,-3.016950130E0,-3.330000043E-1,6.622050285E0
1.627199232E1,-2.773050070E0,-4.500000179E-2,6.303000450E0
1.629189173E1,-2.608050108E0,2.550000250E-1,6.238950253E0
1.631179081E1,-2.803950071E0,5.430000424E-1,6.037950516E0
1.633169017E1,-3.229950190E0,5.070000291E-1,5.680950165E0
1.635158934E1,-3.855000257E0,6.430500150E-1,4.984050274E0
1.637148873E1,-4.405950069E0,9.400500655E-1,4.591950417E0
1.639138783E1,-4.650000095E0,1.155000091E0,4.576950073E0
1.641128720E1,-4.723950386E0,1.194000006E0,5.307000160E0
1.643118651E1,-4.983000278E0,1.090950012E0,6.214950085E0
1.645108589E1,-5.371050358E0,7.750500441E-1,6.967050552E0
1.647098495E1,-5.440050125E0,5.470499992E-1,7.287000179E0
1.649088432E1,-5.349000454E0,4.729500115E-1,6.823050499E0
1.651078347E1,-5.548050404E0,6.379500031E-1,7.093050480E0
1.653068287E1,-5.596050262E0,6.769500375E-1,8.287950516E0
1.655058217E1,-5.212950230E0,3.079500198E-1,8.242950439E0
1.657048129E1,-4.851000309E0,-1.840500087E-1,8.122950554E0
1.659038066E1,-4.633050442E0,-6.300000548E-1,8.607000351E0
1.661027997E1,-4.753050327E0,-8.380500674E-1,1.026600075E1
1.663017936E1,-4.012950420E0,-1.810050130E0,1.187205029E1
1.665007851E1,-3.709050179E0,-1.719000101E0,1.264305019E1
1.666997781E1,-4.147050381E0,-1.657050133E0,1.270095062E1
1.668987721E1,-3.786000252E0,-2.059050083E0,1.203495026E1
1.670977634E1,-3.193950176E0,-2.221950054E0,1.240095043E1
1.672967572E1,-2.953050137E0,-1.848000050E0,1.288995075E1
1.674957502E1,-2.662950039E0,-1.671000123E0,1.223895073E1
1.676947415E1,-2.548050165E0,-1.642050028E0,1.112805080E1
1.678937355E1,-2.341950178E0,-1.506000042E0,1.031805038E1
1.680927286E1,-1.899000049E0,-1.288050056E0,1.089795017E1
1.682917221E1,-2.116950035E0,-1.290000081E-1,1.122300053E1
1.684907135E1,-2.365950108E0,1.270050049E0,9.921000481E0
1.686897070E1,-4.120500088E-1,6.889500618E-1,8.926950455E0
1.688887000E1,9.709500670E-1,-1.720500141E-1,7.194000244E0
1.690876938E1,1.708050132E0,-2.149500102E-1,6.922950268E0
1.692866856E1,2.146050215E0,4.005000368E-2,8.353050232E0
1.694856795E1,2.104950190E0,2.070000172E-1,9.214950562E0
1.696846735E1,1.513950109E0,3.270000219E-1,8.515950203E0
1.698836665E1,1.191000104E0,-2.939999998E-1,7.804950237E0
1.700826603E1,7.600500584E-1,-3.060000241E-1,7.419000149E0
1.702816541E1,1.849500090E-1,4.369500279E-1,7.062000275E0
1.704806459E1,7.800000161E-2,7.170000076E-1,6.979050159E0
1.706796389E1,1.009500027E-1,8.680500388E-1,7.161000252E0
1.708786327E1,-8.205000311E-2,8.269500136E-1,7.795050144E0
1.710776267E1,1.450500041E-1,2.910000086E-1,8.046000481E0
1.712766207E1,-4.770000279E-1,8.490000367E-1,7.726050377E0
1.714756127E1,-5.490000248E-1,1.491000056E0,7.879050255E0
1.716746066E1,4.395000264E-2,1.218000054E0,8.278950691E0
1.718735999E1,8.010000587E-1,1.275000095E0,9.129000664E0
1.720725941E1,8.629500270E-1,1.632000089E0,9.741000175E0
1.722715878E1,5.400000215E-1,1.645950079E0,9.904050827E0
1.724705791E1,5.490000248E-1,1.765950084E0,9.864000320E0
1.726695730E1,6.739500165E-1,1.858950138E0,9.130949974E0
1.728685667E1,3.340500295E-1,1.953000069E0,8.482049942E0
1.730675598E1,-3.720000088E-1,1.653000116E0,7.896000385E0
1.732665545E1,-1.729050040E0,1.689000130E0,8.458050728E0
1.734655473E1,-2.671950102E0,2.443950176E0,8.728950500E0
1.736645415E1,-3.417000055E0,4.416000366E0,8.868000031E0
1.738635357E1,-4.048950195E0,6.231000423E0,1.116795063E1
1.740625273E1,-4.921050072E0,5.664000034E0,1.306695080E1
1.742615208E1,-4.540050030E0,3.511050224E0,1.548000050E1
1.744605136E1,-2.578950167E0,2.736000061E0,1.832205009E1
1.746595084E1,3.310500085E-1,2.472000122E0,1.642395020E1
1.748585017E1,3.264000177E0,4.729500115E-1,1.432605076E1
1.750574955E1,3.918000221E0,-5.530500412E-1,1.400100040E1
1.752564892E1,3.975000143E0,-1.144050002E0,1.446300030E1
1.754554829E1,4.078050137E0,-1.767000079E0,1.545405102E1
1.756544767E1,4.320000172E0,-2.430000067E0,1.497300053E1
1.758534684E1,3.742950201E0,-2.938050032E0,1.258305073E1
1.760524645E1,2.282999992E0,-1.764000058E0,9.943050385E0
1.762514559E1,1.144950032E0,-9.769500494E-1,7.690050602E0
1.764504496E1,8.560500145E-1,-5.070000291E-1,7.189050198E0
1.766494432E1,8.410500288E-1,-3.450000286E-1,8.214000702E0
1.768484369E1,7.240500450E-1,-2.200500071E-1,9.073050499E0
1.770474307E1,1.420500129E-1,-3.229500055E-1,9.403950691E0
1.772464248E1,-5.299500227E-1,-6.940500140E-1,9.202950478E0
1.774454187E1,-1.204950094E0,-4.519500136E-1,8.913000107E0
1.776444128E1,-1.501950026E0,-9.600000083E-2,8.414999962E0
1.778434066E1,-1.144950032E0,-1.650000066E-1,8.293050766E0
1.780424001E1,-8.550000191E-1,-5.295000225E-2,8.482049942E0
1.782413940E1,-1.054050088E0,2.460000068E-1,8.167950630E0
1.784403880E1,-1.365000010E0,3.390000165E-1,7.089000225E0
1.786393820E1,-1.576050043E0,4.969500303E-1,5.892000198E0
1.788383751E1,-1.731000066E0,1.074000001E0,4.972050190E0
1.790373696E1,-1.368000031E0,1.462050080E0,5.203950405E0
1.792363633E1,-2.059500068E-1,1.416000009E0,6.411000252E0
1.794353570E1,6.810000539E-1,1.474050045E0,7.570050240E0
1.796343511E1,6.090000272E-1,1.789950132E0,8.133000374E0
1.798333451E1,5.160000324E-1,2.116050005E0,8.002950668E0
1.800323391E1,8.749500513E-1,2.434050083E0,7.555950165E0
1.802313328E1,1.416000009E0,2.664000034E0,7.608000278E0
1.804303263E1,1.810950041E0,2.875050068E0,8.413050652E0
1.806293202E1,1.801050067E0,3.016050100E0,8.961000443E0
1.808283140E1,1.308000088E0,3.142950058E0,8.638050079E0
1.810273078E1,8.389500380E-1,3.169050217E0,7.852050304E0
1.812263041E1,4.440000355E-1,2.908050060E0,7.450050354E0
1.814252979E1,-1.695000008E-2,2.223000050E0,7.785000324E0
1.816242918E1,-5.920500159E-1,1.407000065E0,8.274000168E0
1.818232856E1,-1.344000101E0,7.150500417E-1,8.785950661E0
1.820222795E1,-1.999950051E0,4.230000079E-1,1.033995056E1
1.822212734E1,-2.287050009E0,2.050500065E-1,1.219800091E1
1.824202680E1,-2.938050032E0,-1.720500141E-1,1.369005108E1
1.826192618E1,-3.664050102E0,-3.760500252E-1,1.634895134E1
1.828182558E1,-3.034050226E0,-7.230000496E-1,1.792005157E1
1.830172494E1,-1.984950066E0,-5.290500522E-1,1.661295128E1
1.832162430E1,-4.030500054E-1,-7.090500593E-1,1.560495090E1
1.834152393E1,6.109500527E-1,-9.105000645E-2,1.621800041E1
1.836142332E1,7.480500340E-1,4.200000167E-1,1.567200089E1
1.838132269E1,1.009050012E0,7.304999977E-2,1.588005066E1
1.840122216E1,1.645950079E0,-1.530000120E-1,1.485105038E1
1.842112155E1,3.789000273E0,-1.441050053E0,1.414905071E1
1.844102092E1,4.102050304E0,-9.600000381E-1,1.266705036E1
1.846092032E1,4.392000198E0,6.599999964E-2,1.048395061E1
1.848081970E1,4.531050205E0,2.310000062E-1,8.383950233E0
1.850071933E1,4.489950180E0,1.710000038E-1,7.069950104E0
1.852061871E1,4.761000156E0,4.399500191E-1,6.519000530E0
1.854051808E1,4.909050465E0,5.980500579E-1,5.713950157E0
1.856041756E1,4.594950199E0,6.049500108E-1,5.638050079E0
1.858031695E1,3.817050219E0,8.010000587E-1,6.318000317E0
1.860021653E1,3.154050112E0,8.130000234E-1,6.832950115E0
1.862011593E1,2.698950052E0,7.440000176E-1,6.571950436E0
1.864001531E1,2.268000126E0,1.171950102E0,6.229050159E0
1.865991474E1,2.134050131E0,1.492950082E0,5.784000397E0
1.867981416E1,2.116950035E0,1.741950035E0,5.440950394E0
1.869971355E1,1.717950106E0,1.867050052E0,5.041950226E0
1.871961316E1,1.095000029E0,2.143949986E0,5.085000038E0
1.873951253E1,7.620000243E-1,2.245050192E0,5.173050404E0
1.875941200E1,1.168950081E0,2.908050060E0,5.965950489E0
1.877931139E1,2.055000067E0,2.884050131E0,6.777000427E0
1.879921076E1,2.698950052E0,2.407950163E0,7.666050434E0
1.881911038E1,2.632050037E0,2.368950129E0,8.451000214E0
1.883900985E1,2.278050184E0,2.488950014E0,8.494050026E0
1.885890923E1,2.031000137E0,2.958000183E0,8.152050018E0
1.887880885E1,2.086050034E0,2.910000086E0,8.154000282E0
1.889870832E1,2.127000093E0,2.563050032E0,8.269050598E0
1.891860773E1,1.939950109E0,2.590050220E0,8.797950745E0
1.893850734E1,1.651050091E0,2.812050104E0,9.094950676E0
1.895840675E1,1.581000090E0,3.126000166E0,9.217050552E0
1.897830616E1,1.858950138E0,3.436950207E0,9.466050148E0
1.899820563E1,2.380950212E0,3.435000181E0,1.013205051E1
1.901810500E1,3.075000048E0,3.139950037E0,1.154895020E1
1.903800457E1,3.417000055E0,3.130950212E0,1.307895088E1
1.905790397E1,3.039000034E0,3.049050093E0,1.366800022E1
1.907780342E1,2.160000086E0,2.929950237E0,1.330905056E1
1.909770304E1,1.392000079E0,3.022950172E0,1.262400055E1
1.911760241E1,1.069050074E0,3.246000051E0,1.232700062E1
1.913750187E1,1.392000079E0,2.986950159E0,1.208295059E1
1.915740126E1,2.128950119E0,2.542050123E0,1.199205017E1
1.917730086E1,3.208950043E0,2.227950096E0,1.222905064E1
1.919720032E1,3.649950266E0,1.914000034E0,1.228695011E1
1.921709970E1,3.259050131E0,1.660950065E0,1.195095062E1
1.923699932E1,2.532000065E0,2.092050076E0,1.133400059E1
1.925689876E1,2.611050129E0,2.371950150E0,1.052700043E1
1.927679812E1,3.481950283E0,2.182950020E0,9.615000725E0
1.929669772E1,3.826950073E0,1.879050136E0,8.932050705E0
1.931659718E1,3.537000179E0,1.435950041E0,8.853000641E0
1.933649656E1,3.192000151E0,9.970500469E-1,9.100049973E0
1.935639620E1,2.890950203E0,6.720000505E-1,9.427950859E0
1.937629568E1,2.443050146E0,4.060500264E-1,9.660000801E0
1.939619529E1,1.734000087E0,2.359500080E-1,9.856050491E0
1.941609468E1,9.799500704E-1,1.570500135E-1,9.703050613E0
1.943599415E1,4.339500070E-1,2.410500050E-1,9.373050690E0
1.945589377E1,3.820500076E-1,2.599500120E-1,8.869950294E0
1.947579316E1,3.720000088E-1,3.510000110E-1,8.020050049E0
1.949569286E1,1.330500096E-1,5.520000458E-1,7.170000553E0
1.951559223E1,1.129500046E-1,7.770000100E-1,6.391950130E0
1.953549169E1,6.379500031E-1,1.042950034E0,5.602050304E0
1.955539131E1,1.114050031E0,1.306050062E0,5.410050392E0
1.957529071E1,1.360950112E0,1.603050113E0,5.992050171E0
1.959519018E1,1.404000044E0,1.831050038E0,6.178950310E0
1.961508979E1,9.970500469E-1,1.989000082E0,6.136050224E0
1.963498920E1,2.980500162E-1,2.647050142E0,6.315000534E0
1.965488884E1,-1.870500147E-1,3.444000244E0,6.435000420E0
1.967478822E1,3.030000031E-1,3.553950071E0,6.334950447E0
1.969468787E1,1.141050100E0,3.496950150E0,6.640950203E0
1.971458727E1,1.780050039E0,3.399000168E0,7.242000580E0
1.973448673E1,2.520000219E0,3.301050186E0,8.295000076E0
1.975438633E1,3.220950127E0,3.226050138E0,9.811050415E0
1.977428580E1,3.552000284E0,3.054000139E0,1.141500092E1
1.979418540E1,3.456000090E0,2.968050241E0,1.221705055E1
1.981408487E1,3.172950268E0,3.058950186E0,1.224105072E1
1.983398426E1,3.115950108E0,3.070950031E0,1.168605042E1
1.985388386E1,2.704050064E0,3.001050234E0,1.123095036E1
1.987378330E1,1.935000062E0,2.791050196E0,1.091895008E1
1.989368291E1,1.557000041E0,2.821950197E0,1.070895004E1
1.991358236E1,1.789050102E0,2.941950083E0,1.076595020E1
1.993348198E1,2.769000053E0,2.575050116E0,1.107000065E1
1.995338146E1,4.167000294E0,1.986000061E0,1.219800091E1
1.997328106E1,5.271000385E0,1.282050014E0,1.380405045E1
1.999318045E1,5.440950394E0,7.459500432E-1,1.517205048E1
2.001308015E1,5.019000053E0,5.710500479E-1,1.574100113E1
2.003297953E1,4.714950085E0,3.439500034E-1,1.511595058E1
2.005287923E1,4.537950039E0,2.460000068E-1,1.367295074E1
2.007277870E1,4.378050327E0,3.750000298E-1,1.214295101E1
2.009267809E1,4.063950062E0,5.040000081E-1,1.092900085E1
2.011257778E1,3.700050116E0,6.000000238E-1,1.009095001E1
2.013247738E1,3.523050070E0,4.560000300E-1,9.265050888E0
2.015237684E1,3.592050076E0,3.580500185E-1,8.371950150E0
2.017227625E1,3.492000103E0,3.799500167E-1,7.666050434E0
2.019217596E1,3.106050253E0,4.639500082E-1,7.456950188E0
2.021207535E1,2.320950031E0,5.380499959E-1,7.098000526E0
2.023197505E1,1.417950034E0,6.720000505E-1,6.427950382E0
2.025187467E1,8.700000644E-1,7.630500197E-1,5.719050407E0
2.027177414E1,6.229500175E-1,9.280500412E-1,5.226000309E0
2.029167376E1,4.200000167E-1,1.396950126E0,4.978950024E0
2.031157321E1,2.980500162E-1,1.816050053E0,4.843050003E0
2.033147283E1,2.980500162E-1,2.017050028E0,4.920000076E0
2.035137228E1,3.940500319E-1,2.218950033E0,5.311950207E0
2.037127167E1,5.230500102E-1,2.584950209E0,6.022950172E0
2.039117135E1,8.680500388E-1,2.761950016E0,6.552000523E0
2.041107095E1,1.203000069E0,2.781000137E0,6.994950294E0
2.043097041E1,1.416000009E0,2.944050074E0,7.536000252E0
2.045087002E1,1.837050080E0,2.932050228E0,8.166000366E0
2.047076947E1,2.320950031E0,2.860050201E0,8.949000359E0
2.049066907E1,2.613000154E0,2.379000187E0,1.004100037E1
2.051056853E1,2.083950043E0,1.797000051E0,1.094595051E1
2.053046816E1,9.630000591E-1,1.681950092E0,1.163505077E1
2.055036762E1,1.095000096E-2,1.636950135E0,1.189095020E1
2.057026725E1,-7.570500374E-1,1.918950081E0,1.194195080E1
2.059016671E1,-1.399050117E0,2.365050077E0,1.195905018E1
2.061006633E1,-1.924950123E0,2.824050188E0,1.214295101E1
2.062996602E1,-1.111050010E0,2.685000181E0,1.275600052E1
2.064986542E1,2.380500138E-1,1.765950084E0,1.293105030E1
2.066976488E1,8.340000510E-1,2.475000143E0,1.276095104E1
2.068966447E1,1.864050031E0,2.440950155E0,1.226295090E1
2.070956417E1,2.758950233E0,2.737950087E0,1.249995041E1
2.072946362E1,2.275050163E0,2.829000235E0,1.265505028E1
2.074936324E1,1.782000065E0,2.319000006E0,1.197495079E1
2.076926272E1,1.777050138E0,2.092050076E0,1.146105099E1
2.078916235E1,1.810950041E0,1.978950143E0,1.120905018E1
2.080906182E1,1.753050089E0,2.235000134E0,1.118805027E1
2.082896142E1,1.344000101E0,2.653950214E0,1.170495033E1
2.084886087E1,1.074000001E0,2.190000057E0,1.175295067E1
2.086876048E1,9.970500469E-1,1.543050051E0,1.064895058E1
2.088865992E1,1.180950046E0,8.509500623E-1,9.028050423E0
2.090855961E1,1.428000093E0,6.979500055E-1,8.539950371E0
2.092845903E1,1.681950092E0,9.619500637E-1,8.731050491E0
2.094835873E1,1.797000051E0,1.444950104E0,8.659049988E0
2.096825833E1,2.002050161E0,1.591050029E0,8.638050079E0
2.098815779E1,1.603050113E0,1.335000038E0,7.951050282E0
2.100805742E1,5.830500126E-1,1.660950065E0,7.699050426E0
2.102795714E1,-8.290500641E-1,2.544000149E0,8.989950180E0
2.104785662E1,-1.438950062E0,2.922000170E0,8.748000145E0
2.106775600E1,-1.320000052E0,2.238000154E0,7.656000137E0
2.108765562E1,-1.114050031E0,1.567050099E0,6.586050510E0
2.110755531E1,-1.281000018E0,1.687050104E0,6.519000530E0
2.112745477E1,-1.597050071E0,1.834950089E0,6.603000164E0
2.114735440E1,-1.722000122E0,2.211000204E0,6.588000298E0
2.116725384E1,-1.593000054E0,2.203950167E0,6.523950100E0
2.118715347E1,-1.771950126E0,2.227950096E0,7.026000500E0
2.120705316E1,-1.894050121E0,2.257050037E0,7.117050171E0
2.122695262E1,-3.436050177E0,3.339000225E0,8.406000137E0
2.124685224E1,-6.261000156E0,5.293050289E0,6.784950256E0
2.126675170E1,-6.232950211E0,4.174950123E0,5.881950378E0
2.128665132E1,-5.884950161E0,3.610050201E0,7.459950447E0
2.130655079E1,-4.735949993E0,3.265050173E0,9.294000626E0
2.132645048E1,-4.345950127E0,3.583050251E0,9.447000504E0
2.134635006E1,-4.083000183E0,4.278000355E0,8.791049957E0
2.136624951E1,-3.979950190E0,4.705950260E0,8.676000595E0
2.138614912E1,-4.477950096E0,4.765950203E0,9.057000160E0
2.140604858E1,-5.296050072E0,4.705950260E0,9.355950356E0
2.142594821E1,-5.623950481E0,5.013000011E0,9.322050095E0
2.144584790E1,-4.777050018E0,4.786950111E0,9.073050499E0
2.146574737E1,-4.468050003E0,5.035950184E0,8.773950577E0
2.148564697E1,-4.366950035E0,5.230050087E0,9.756000519E0
2.150554642E1,-3.355050087E0,4.822950363E0,1.078995037E1
2.152544604E1,-2.490000010E0,4.744050026E0,1.041405010E1
2.154534571E1,-1.888950109E0,4.555050373E0,1.075695038E1
2.156524516E1,-1.711950064E0,4.183950424E0,1.126200008E1
2.158514479E1,-1.987950087E0,3.495000124E0,1.078995037E1
2.160504426E1,-2.341950178E0,3.259950161E0,9.559950829E0
2.162494388E1,-2.299050093E0,3.589950085E0,8.707050323E0
2.164484333E1,-2.281949997E0,3.610050201E0,8.512949944E0
2.166474295E1,-2.601000071E0,3.769950151E0,7.678050518E0
2.168464262E1,-2.737050056E0,3.685950279E0,6.703050137E0
2.170454208E1,-2.577000141E0,3.633000135E0,6.199950218E0
2.172444169E1,-2.433000088E0,3.757950068E0,6.214950085E0
2.174434115E1,-2.610000134E0,3.693000078E0,6.343950272E0
2.176424076E1,-3.094050169E0,3.528000116E0,6.760950089E0
2.178414021E1,-3.406950235E0,3.387000084E0,6.997950554E0
2.180403992E1,-3.430950165E0,3.382050276E0,6.868050098E0
2.182393954E1,-3.678000212E0,3.631050110E0,6.787050247E0
2.184383901E1,-3.360000134E0,3.748050213E0,6.784950256E0
2.186373862E1,-3.022050142E0,3.837000132E0,6.624000549E0
2.188363830E1,-2.956950188E0,4.039950371E0,6.343950272E0
2.190353778E1,-3.381000042E0,4.157999992E0,6.447000504E0
2.192343738E1,-3.819000244E0,4.150950432E0,7.074000359E0
2.194333684E1,-4.095000267E0,4.153050423E0,7.663050175E0
2.196323645E1,-4.209000111E0,4.392000198E0,7.837950230E0
2.198313616E1,-4.252950191E0,4.801950455E0,7.801950455E0
2.200303566E1,-3.967950106E0,5.008050442E0,7.966950417E0
2.202293529E1,-3.895950079E0,5.008050442E0,8.191950798E0
2.204283475E1,-4.039050102E0,4.926000118E0,8.695050240E0
2.206273435E1,-4.372050285E0,5.047950268E0,9.481050491E0
2.208263406E1,-4.348050117E0,5.068050385E0,1.006500053E1
2.210253353E1,-4.399050236E0,5.194950104E0,9.904050827E0
2.212243315E1,-4.510950089E0,5.191950321E0,9.612000465E0
2.214233260E1,-4.831950188E0,5.211000443E0,9.265050888E0
2.216223230E1,-4.839000225E0,4.929000378E0,9.355950356E0
2.218213192E1,-5.056950092E0,4.660950184E0,9.799050331E0
2.220203140E1,-5.325000286E0,4.549950123E0,1.047405052E1
2.222193100E1,-5.416050434E0,4.440000057E0,1.104405022E1
2.224183046E1,-5.014050007E0,3.918000221E0,1.130205059E1
2.226173016E1,-4.425000191E0,3.384000063E0,1.108695030E1
2.228162977E1,-4.256999969E0,3.138000250E0,1.044495010E1
2.230152924E1,-4.171050072E0,3.367950201E0,9.547950745E0
2.232142885E1,-4.032000065E0,3.411000252E0,8.647050858E0
2.234132831E1,-3.996000290E0,3.351000071E0,8.286000252E0
2.236122801E1,-3.774000168E0,2.973000050E0,8.227950096E0
2.238112764E1,-3.727950096E0,2.470050097E0,8.128050804E0
2.240102708E1,-3.643950224E0,2.029050112E0,8.105999947E0
2.242092669E1,-3.453000069E0,1.765950084E0,7.969950199E0
2.244082639E1,-3.597000122E0,1.567050099E0,7.708950520E0
2.246072586E1,-3.853050232E0,1.591050029E0,7.443000317E0
2.248062549E1,-3.834000111E0,1.552950025E0,7.003050327E0
2.250052494E1,-3.610950232E0,1.795050144E0,6.619050503E0
2.252042456E1,-3.400050163E0,1.938000083E0,6.301050186E0
2.254032424E1,-3.484050274E0,1.902000070E0,6.181050301E0
2.256022371E1,-3.880950212E0,2.182950020E0,6.246000290E0
2.258012331E1,-3.937050104E0,2.407950163E0,6.394050121E0
2.260002301E1,-3.711000204E0,2.422049999E0,6.457050323E0
2.261992247E1,-3.711000204E0,2.644950151E0,6.490050316E0
2.263982206E1,-3.949050188E0,3.033000231E0,6.679050446E0
2.265972150E1,-4.186050415E0,3.459000111E0,6.969000340E0
2.267962111E1,-4.015950203E0,3.628950119E0,7.299000263E0
2.269952056E1,-3.747000217E0,3.604950190E0,7.492950439E0
2.271942017E1,-3.739950180E0,3.823050261E0,7.812000275E0
2.273931988E1,-3.952950239E0,4.170000076E0,8.218950272E0
2.275921931E1,-3.940950155E0,4.227000237E0,8.401050568E0
2.277911892E1,-3.738000154E0,4.357050419E0,8.310000420E0
2.279901837E1,-3.646950245E0,4.582050323E0,8.206950188E0
2.281891798E1,-3.678000212E0,4.759050369E0,8.074950218E0
2.283881768E1,-4.054049969E0,4.897950172E0,7.957950592E0
2.285871716E1,-4.260000229E0,5.029050350E0,7.977000237E0
2.287861679E1,-4.269000053E0,5.077050209E0,8.263950348E0
2.289851625E1,-4.129950047E0,5.080050468E0,8.692950249E0
2.291841587E1,-3.898050070E0,5.182950020E0,9.121050835E0
2.293831533E1,-3.573000193E0,5.350050449E0,9.334050179E0
2.295821505E1,-3.694950104E0,5.254050255E0,9.378000259E0
2.297811466E1,-3.937050104E0,5.214000225E0,9.322050095E0
2.299801411E1,-3.984000206E0,5.242050171E0,9.175950050E0
2.301791374E1,-3.735000134E0,5.400000095E0,9.442049980E0
2.303781324E1,-3.124950171E0,5.284950256E0,1.032300091E1
2.305771284E1,-2.613000154E0,4.918950081E0,1.108905029E1
2.307761229E1,-2.565000057E0,4.594050407E0,1.134795094E1
2.309751200E1,-2.359050035E0,4.162950039E0,1.137705040E1
2.311741162E1,-1.717050076E0,3.729000092E0,1.110405064E1
2.313731108E1,-1.150050044E0,3.564000130E0,1.054800034E1
2.315721068E1,-8.119500279E-1,3.444000244E0,9.799050331E0
2.317711035E1,-5.010000467E-1,3.325050116E0,9.279000282E0
2.319700981E1,-2.299500108E-1,3.408000231E0,8.314949989E0
2.321690942E1,-2.059500068E-1,3.826950073E0,7.125000477E0
2.323680887E1,-4.860000312E-1,4.225049973E0,6.670050144E0
2.325670851E1,-9.169500470E-1,4.740000248E0,6.861000538E0
2.327660795E1,-9.750000238E-1,4.651050091E0,7.378050327E0
2.329650754E1,-1.192950010E0,4.653000355E0,7.459950447E0
2.331640701E1,-1.401000023E0,4.687050343E0,7.309050560E0
2.333630661E1,-1.456050038E0,4.552950382E0,7.186950207E0
2.335620627E1,-1.660050035E0,4.495050430E0,7.249050140E0
2.337610572E1,-1.842000127E0,4.383000374E0,6.982950211E0
2.339600536E1,-1.980000138E0,4.339950085E0,6.685950279E0
2.341590480E1,-1.894050121E0,4.455000401E0,6.378000259E0
2.343580444E1,-1.642950058E0,4.603050232E0,6.070950508E0
2.345570391E1,-1.894050121E0,4.840050220E0,5.920050144E0
2.347560356E1,-2.059050083E0,4.873950005E0,5.929950237E0
2.349550326E1,-2.349000216E0,4.989000320E0,6.022950172E0
2.351540263E1,-2.577000141E0,5.137050152E0,6.319950104E0
2.353530207E1,-2.662950039E0,5.041050434E0,6.849000454E0
2.355520176E1,-2.635950089E0,4.893000126E0,7.243950367E0
2.357510136E1,-2.548050165E0,4.858950138E0,7.527000427E0
2.359500083E1,-2.371050119E0,4.962000370E0,7.654050350E0
2.361490047E1,-2.200950146E0,5.293050289E0,7.785000324E0
2.363479994E1,-2.110050201E0,5.257050037E0,7.896000385E0
2.365469964E1,-2.221950054E0,5.175000191E0,7.714050293E0
2.367459924E1,-2.361000061E0,5.139000416E0,7.642050266E0
2.369449872E1,-2.251049995E0,5.250000477E0,7.843050480E0
2.371439834E1,-2.137950182E0,5.398050308E0,8.130000114E0
2.373429779E1,-2.131050110E0,5.295000076E0,8.128050804E0
2.375419737E1,-2.119050026E0,5.235000134E0,8.157000542E0
2.377409684E1,-2.245950222E0,5.436000347E0,8.206950188E0
2.379399644E1,-2.317950010E0,5.395950317E0,8.523000717E0
2.381389589E1,-2.229000092E0,5.238000393E0,9.145050049E0
2.383379552E1,-2.140950203E0,5.086950302E0,9.889950752E0
2.385369502E1,-2.233950138E0,5.058000088E0,1.037595081E1
2.387359465E1,-2.280000210E0,5.026950359E0,1.074000072E1
2.389349411E1,-2.158050060E0,4.936050415E0,1.113000011E1
2.391339371E1,-1.966050148E0,4.696950436E0,1.168995094E1
2.393329318E1,-2.625000238E0,5.287950039E0,1.225305080E1
2.395319280E1,-2.790000200E0,5.403000355E0,1.303800106E1
2.397309225E1,-2.992950201E0,5.436000347E0,1.363695049E1
2.399299189E1,-3.582000256E0,5.127000332E0,1.427805042E1
2.401289134E1,-3.841050148E0,4.348950386E0,1.378005028E1
2.403279104E1,-3.472050190E0,3.577950239E0,1.164195061E1
2.405269044E1,-2.907000065E0,3.307950258E0,8.929950714E0
2.407259005E1,-2.320050001E0,3.490050077E0,6.844050407E0
2.409248951E1,-1.912950039E0,3.801000118E0,6.021000385E0
2.411238912E1,-1.849050045E0,3.696000099E0,5.980050087E0
2.413228880E1,-2.524050236E0,3.528000116E0,6.291000366E0
2.415218826E1,-3.175050259E0,3.367950201E0,6.880050182E0
2.417208762E1,-3.558000088E0,3.181050062E0,7.048050404E0
2.419198731E1,-3.721050262E0,2.958000183E0,6.904050350E0
2.421188671E1,-3.927000284E0,2.896050215E0,6.574050426E0
2.423178642E1,-3.867000103E0,2.965950251E0,6.366000175E0
2.425168604E1,-3.501000166E0,3.142950058E0,6.378000259E0
2.427158542E1,-3.163050175E0,3.391950130E0,6.667050362E0
2.429148513E1,-3.220950127E0,3.552000284E0,6.949950218E0
2.431138459E1,-3.534000158E0,3.523050070E0,6.889950275E0
2.433128398E1,-3.771000147E0,3.520950079E0,6.543000221E0
2.435118366E1,-3.778950214E0,3.484950066E0,6.100050449E0
2.437108326E1,-3.913050175E0,3.757950068E0,5.971050262E0
2.439098273E1,-3.928950071E0,3.966000080E0,5.938950062E0
2.441088233E1,-3.786000252E0,4.177050114E0,6.177000523E0
2.443078181E1,-3.964950085E0,4.231950283E0,6.547950268E0
2.445068142E1,-4.237950325E0,4.321050167E0,6.720000267E0
2.447058081E1,-4.320000172E0,4.548000336E0,6.588000298E0
2.449048048E1,-4.320000172E0,4.756050110E0,6.378000259E0
2.451037994E1,-4.312050343E0,5.089050293E0,6.313050270E0
2.453027931E1,-4.243050098E0,5.227950096E0,6.349050522E0
2.455017901E1,-4.425000191E0,5.350050449E0,6.394050121E0
2.457007838E1,-4.717050076E0,5.278050423E0,6.439950466E0
2.458997801E1,-4.803000450E0,5.001000404E0,6.619050503E0
2.460987768E1,-4.959000111E0,4.825950146E0,6.430050373E0
2.462977706E1,-5.215050220E0,5.056050301E0,6.265050411E0
2.464967678E1,-5.220000267E0,5.071950436E0,6.370050430E0
2.466957616E1,-5.137950420E0,4.858950138E0,6.568950176E0
2.468947586E1,-4.980000019E0,4.810950279E0,7.009950161E0
2.470937532E1,-4.684050083E0,4.930950165E0,7.395000458E0
2.472927495E1,-4.645050049E0,5.206050396E0,7.632000446E0
2.474917443E1,-4.936950207E0,5.548950195E0,7.630050182E0
2.476907405E1,-5.179050446E0,5.575050354E0,7.435950279E0
2.478897350E1,-5.386950493E0,5.713950157E0,7.474050522E0
2.480887311E1,-5.574000359E0,6.025050163E0,8.017950058E0
2.482877252E1,-5.485950470E0,6.135000229E0,8.836050034E0
2.484867222E1,-5.431050301E0,6.418050289E0,9.454050064E0
2.486857161E1,-5.445000172E0,6.349050522E0,9.387000084E0
2.488847106E1,-5.584050179E0,6.447000504E0,9.519000053E0
2.490837066E1,-5.265000343E0,6.540000439E0,1.047195053E1
2.492827013E1,-4.621050358E0,6.109050274E0,1.180305099E1
2.494816974E1,-3.870000124E0,5.335950375E0,1.225995064E1
2.496806917E1,-3.586950064E0,4.795050144E0,1.189095020E1
2.498796880E1,-3.417000055E0,4.347000122E0,1.112100029E1
2.500786826E1,-2.638950109E0,4.002000332E0,9.945000648E0
2.502776789E1,-2.457000017E0,3.528000116E0,9.322050095E0
2.504766733E1,-2.014050007E0,3.033000231E0,9.457050323E0
2.506756692E1,-1.405950069E0,3.079950094E0,9.279000282E0
2.508746638E1,-2.184000015E0,3.729000092E0,5.640000343E0
2.510736601E1,-2.257950068E0,3.331950188E0,7.663050175E0
2.512726544E1,-2.026050091E0,3.262050152E0,8.748000145E0
2.514716489E1,-2.161950111E0,3.289050102E0,7.855050564E0
2.516706451E1,-2.023950100E0,3.186000109E0,7.041000366E0
2.519942022E1,-1.216950059E0,3.454050064E0,8.935050011E0
2.521931953E1,-2.351999998E0,3.622050285E0,9.363000870E0
2.523921903E1,-1.924950123E0,3.049050093E0,1.014105034E1
2.525911843E1,-1.106999993E0,2.824050188E0,1.009605026E1
2.527901782E1,-8.310000300E-1,2.937000036E0,9.847050667E0
2.529891722E1,-8.770500422E-1,2.776050091E0,9.403950691E0
2.531881654E1,-1.236000061E0,2.749950171E0,8.899050713E0
2.533871600E1,-1.561050057E0,2.803050041E0,8.676000595E0
2.535861538E1,-1.839000106E0,2.791050196E0,8.748000145E0
2.537851471E1,-2.389950037E0,2.841000080E0,8.937000275E0
2.539841411E1,-2.908950090E0,2.893950224E0,9.265050888E0
2.541831349E1,-2.517000198E0,2.841000080E0,9.355950356E0
2.543821289E1,-2.241000175E0,2.695050240E0,9.081000328E0
2.545811227E1,-2.329950094E0,2.889000177E0,8.614050865E0
2.547801164E1,-2.464050055E0,3.291000128E0,8.488950729E0
2.549791106E1,-2.509950161E0,3.406050205E0,8.662050247E0
2.551781045E1,-2.313000202E0,3.040050030E0,8.707050323E0
2.553770960E1,-2.304000139E0,3.085050106E0,8.262000084E0
2.555760919E1,-2.188950062E0,3.577950239E0,7.879050255E0
2.557750833E1,-1.830000043E0,3.945000172E0,7.771050453E0
2.559740771E1,-1.174050093E0,3.862950087E0,8.164050102E0
2.561730706E1,-1.066050053E0,3.672000170E0,8.470050812E0
2.563720644E1,-1.866000056E0,3.616950274E0,9.049950600E0
2.565710583E1,-2.662950039E0,3.507000208E0,9.922950745E0
2.567700511E1,-3.052950144E0,3.229050159E0,1.094100094E1
2.569690455E1,-2.650950193E0,2.635050058E0,1.157100010E1
2.571680386E1,-2.004000187E0,2.149049997E0,1.191105080E1
2.573670323E1,-2.047950029E0,2.128050089E0,1.253595066E1
2.575660262E1,-2.644050121E0,2.092050076E0,1.355100060E1
2.577650200E1,-3.235050201E0,1.905000091E0,1.369200039E1
2.579640138E1,-3.445950270E0,1.570050120E0,1.360605049E1
2.581630054E1,-3.184950113E0,1.258050084E0,1.404900074E1
2.583620012E1,-2.863950253E0,1.777950048E0,1.414905071E1
2.585609929E1,-1.720050097E0,1.029000044E0,1.372305107E1
2.587599867E1,-1.147050023E0,1.189500093E-1,1.262205029E1
2.589589805E1,-1.401000023E0,6.105000153E-2,1.117095089E1
2.591579743E1,-1.759950042E0,5.640000105E-1,1.006500053E1
2.593569675E1,-1.594950080E0,1.018950105E0,9.459000587E0
2.595559614E1,-1.269000053E0,8.850000501E-1,8.868000031E0
2.597549554E1,-1.272000074E0,7.320000529E-1,8.257050514E0
2.599539496E1,-1.429950118E0,5.860500336E-1,7.726050377E0
2.601529435E1,-1.533000112E0,4.470000267E-1,7.546050549E0
2.603519371E1,-1.369950056E0,7.699500322E-1,7.572000504E0
2.605509289E1,-1.435050011E0,3.270000219E-1,7.570050240E0
2.607499227E1,-1.818000078E0,6.720000505E-1,7.419000149E0
2.609489165E1,-1.630950093E0,5.110500455E-1,7.278000355E0
2.611479097E1,-1.593000054E0,8.160000443E-1,7.390050411E0
2.613469036E1,-8.500500321E-1,7.530000210E-1,7.335000515E0
2.615458975E1,-2.209500074E-1,4.830000103E-1,7.153050423E0
2.617448913E1,-3.120000064E-1,5.929500461E-1,7.114950180E0
2.619438831E1,-1.201950073E0,9.810000658E-1,8.074950218E0
2.621428769E1,-2.257950068E0,1.158000112E0,9.243000031E0
2.623418706E1,-2.581050158E0,4.920000136E-1,9.544950485E0
2.625408645E1,-2.851950169E0,-3.400500119E-1,9.327000618E0
2.627398583E1,-3.658950090E0,-5.910000205E-1,9.337050438E0
2.629388513E1,-4.245000362E0,-5.770500302E-1,9.864000320E0
2.631378450E1,-3.972000122E0,-7.879500389E-1,1.004295063E1
2.633368392E1,-3.676050186E0,-1.240050077E0,9.507000923E0
2.635358332E1,-3.594000101E0,-1.417050123E0,9.301050186E0
2.637348247E1,-3.469950199E0,-1.270950079E0,9.622050285E0
2.639338185E1,-2.799000025E0,-1.401000023E0,1.020795059E1
2.641328125E1,-2.161950111E0,-1.606050134E0,1.064205074E1
2.643318062E1,-1.897050142E0,-1.281000018E0,1.137000084E1
2.645308000E1,-1.497000098E0,-9.100500345E-1,1.153500080E1
2.647297931E1,-1.237950087E0,-6.540000439E-1,1.156800079E1
2.649287868E1,-1.189950109E0,-6.130500436E-1,1.140495014E1
2.651277805E1,-1.554000020E0,1.090500057E-1,1.188405037E1
2.653267746E1,-1.150050044E0,1.009050012E0,1.178595066E1
2.655257662E1,-6.730500460E-1,8.230500221E-1,1.092405033E1
2.657247600E1,-1.048950076E0,3.409500122E-1,9.823050499E0
2.659237537E1,-1.192950010E0,0.000000000E0,8.602050781E0
2.661227477E1,-1.702950120E0,-2.539499998E-1,8.062950134E0
2.663217407E1,-2.179050207E0,-6.150000095E-1,7.492950439E0
2.665207352E1,-1.714950085E0,-1.084050059E0,7.824000359E0
2.667197282E1,-1.674000025E0,-6.510000229E-1,8.839050293E0
2.669187220E1,-1.992000103E0,2.910000086E-1,9.978000641E0
2.671177158E1,-2.031000137E0,1.549500078E-1,9.949950218E0
2.673167074E1,-1.879950047E0,-3.930000067E-1,9.439949989E0
2.675157034E1,-1.786950111E0,-6.199500561E-1,9.021000862E0
2.677146950E1,-1.618950129E0,-3.160500228E-1,9.322050095E0
2.679136887E1,-1.786950111E0,-1.905000024E-2,9.753000259E0
2.681126825E1,-1.863000035E0,-9.795000404E-2,1.001205063E1
2.683116756E1,-2.062050104E0,-4.930500090E-1,9.799050331E0
2.685106696E1,-2.344050169E0,-8.190000653E-1,9.550050735E0
2.687096633E1,-2.698950052E0,-1.000950098E0,9.421050072E0
2.689086572E1,-2.866050243E0,-1.113000035E0,9.399000168E0
2.691076486E1,-3.348000050E0,-1.281000018E0,9.634050369E0
2.693066425E1,-3.745050192E0,-1.471950054E0,1.003395081E1
2.695056365E1,-3.642000198E0,-1.513050079E0,1.076400089E1
2.697046303E1,-3.235050201E0,-1.249950051E0,1.195095062E1
2.699036241E1,-2.874000072E0,-8.280000687E-1,1.274895096E1
2.701026172E1,-2.188950062E0,-8.239500523E-1,1.274595070E1
2.703016120E1,-1.356000066E0,-1.453050017E0,1.187895012E1
2.705006051E1,-1.044000030E0,-2.071050167E0,1.152795029E1
2.706995992E1,-2.028000116E0,-2.164050102E0,1.203795052E1
2.708985930E1,-3.508050203E0,-2.269950151E0,1.228695011E1
2.710975871E1,-4.675950050E0,-2.241000175E0,1.173600101E1
2.712965811E1,-4.678950310E0,-2.559000015E0,1.104600048E1
2.714955726E1,-4.674000263E0,-3.096000195E0,1.017000008E1
2.716945664E1,-5.217000484E0,-3.385050058E0,8.902950287E0
2.718935603E1,-5.485950470E0,-3.706050158E0,7.699050426E0
2.720925542E1,-4.903950214E0,-3.985950232E0,6.769950390E0
2.722915481E1,-4.291050434E0,-4.495950222E0,6.037950516E0
2.724905417E1,-4.425000191E0,-4.441050053E0,6.256050110E0
2.726895347E1,-4.939950466E0,-4.297950268E0,6.586050510E0
2.728885293E1,-5.011950016E0,-4.051050186E0,6.724950314E0
2.730875223E1,-4.357950211E0,-3.294000149E0,7.261050224E0
2.732865162E1,-3.118050098E0,-1.987050056E0,8.425050735E0
2.734855102E1,-1.569000125E0,-1.204050064E0,8.677950859E0
2.736845040E1,-1.116000056E0,-9.769500494E-1,8.655000687E0
2.738834952E1,-2.191050053E0,-6.460500360E-1,8.419950485E0
2.740824890E1,-3.127050161E0,-2.899500132E-1,8.365050316E0
2.742814831E1,-3.418950081E0,1.980000138E-1,8.571000099E0
2.744804768E1,-2.917050123E0,6.310500503E-1,8.725950241E0
2.746794706E1,-2.111999989E0,5.329500437E-1,8.728950500E0
2.748784645E1,-1.576050043E0,1.210500076E-1,8.341050148E0
2.750774585E1,-2.019000053E0,-5.295000225E-2,8.334000587E0
2.752764516E1,-2.727000237E0,3.705000132E-2,8.914950371E0
2.754754454E1,-2.683950186E0,-1.950000064E-3,9.648000717E0
2.756744394E1,-2.152950048E0,-2.269500047E-1,9.888000488E0
2.758734333E1,-1.842000127E0,-2.440500110E-1,9.952050209E0
2.760724272E1,-1.714950085E0,-3.180000186E-1,1.007205009E1
2.762714213E1,-1.900950074E0,-4.189500213E-1,1.014405060E1
2.764704153E1,-2.004000187E0,-4.860000312E-1,9.871050835E0
2.766694089E1,-1.831950068E0,-4.309500158E-1,9.796950340E0
2.768684028E1,-1.614000082E0,-1.270500124E-1,1.000500011E1
2.770673970E1,-1.267050028E0,5.400000140E-2,1.030200005E1
2.772663908E1,-1.192950010E0,2.580000162E-1,1.097205067E1
2.774653843E1,-1.753050089E0,7.249500155E-1,1.210695076E1
2.776643782E1,-1.960950136E0,5.670000315E-1,1.311300087E1
2.778633720E1,-1.711950064E0,1.120500043E-1,1.378800106E1
2.780623634E1,-1.288950086E0,-3.760500252E-1,1.438395023E1
2.782613570E1,-1.020000100E0,-1.294950008E0,1.404900074E1
2.784603509E1,-1.175999999E0,-2.185950041E0,1.311495018E1
2.786593470E1,-1.224000096E0,-3.031050205E0,1.213995075E1
2.788583384E1,-7.909500599E-1,-3.469050169E0,1.116105080E1
2.790573345E1,-3.760500252E-1,-3.498000145E0,1.002405071E1
2.792563264E1,-1.300500035E-1,-3.342000246E0,8.971050262E0
2.794553201E1,-4.800000042E-2,-2.932950258E0,8.295000076E0
2.796543137E1,7.500000298E-2,-2.428050041E0,8.041950226E0
2.798533076E1,-1.750500053E-1,-1.852950096E0,8.209050179E0
2.800523015E1,-6.130500436E-1,-1.378950119E0,8.299950600E0
2.802512952E1,-8.310000300E-1,-1.012950063E0,8.314949989E0
2.804502892E1,-8.770500422E-1,-8.140500188E-1,8.050950050E0
2.806492832E1,-1.042050004E0,-6.420000196E-1,7.800000191E0
2.808482770E1,-1.297950029E0,-5.959500074E-1,7.563000202E0
2.810472710E1,-1.510950089E0,-6.390000582E-1,7.395000458E0
2.812462648E1,-1.747950077E0,-8.380500674E-1,7.335000515E0
2.814452588E1,-2.356050014E0,-1.017000079E0,7.423950195E0
2.816442526E1,-2.695950031E0,-1.051050067E0,8.080050468E0
2.818432465E1,-2.505000114E0,-1.068000078E0,8.520000458E0
2.820422406E1,-2.136000156E0,-9.960000515E-1,8.595000267E0
2.822412366E1,-2.007000208E0,-7.129500508E-1,8.488950729E0
2.824402303E1,-2.317950010E0,-2.820000052E-1,8.413050652E0
2.826392218E1,-2.557050228E0,2.980500162E-1,8.512949944E0
2.828382178E1,-2.197950125E0,5.380499959E-1,8.539950371E0
2.830372117E1,-2.197950125E0,8.539500237E-1,8.652000427E0
2.832362056E1,-2.458950043E0,1.278000116E0,8.855999947E0
2.834351994E1,-2.826000214E0,1.480950117E0,9.343950272E0
2.836341929E1,-3.166050196E0,1.753950119E0,1.014600086E1
2.838331866E1,-3.084000111E0,1.459950089E0,1.046505070E1
2.840321806E1,-3.205950260E0,1.114950061E0,1.088400078E1
2.842311745E1,-3.688050270E0,1.090950012E0,1.149195099E1
2.844301683E1,-3.838050127E0,9.259500504E-1,1.251600075E1
2.846291622E1,-3.172950268E0,3.889500201E-1,1.326105022E1
2.848281567E1,-2.146050215E0,-3.259500265E-1,1.355295086E1
2.850271506E1,-1.381950021E0,-6.370500326E-1,1.355505085E1
2.852261444E1,-1.317000031E0,-4.519500136E-1,1.335705090E1
2.854251382E1,-1.368000031E0,1.380000114E-1,1.330605030E1
2.856241320E1,-6.300000548E-1,6.340500116E-1,1.317495060E1
2.858231283E1,4.489500225E-1,8.269500136E-1,1.268595028E1
2.860221225E1,1.464000106E0,7.840500474E-1,1.205895042E1
2.862211162E1,1.825050116E0,4.879500270E-1,1.118295097E1
2.864201108E1,9.829500318E-1,9.495000541E-2,1.007205009E1
2.866191040E1,2.950500250E-1,-5.190000534E-1,9.154950142E0
2.868180982E1,2.620500028E-1,-1.293000102E0,8.458050728E0
2.870170930E1,1.450500041E-1,-1.669050097E0,7.588950157E0
2.872160868E1,-3.880500197E-1,-1.638000131E0,7.003050327E0
2.874150805E1,-9.990000725E-1,-1.324050069E0,6.993000507E0
2.876140744E1,-1.162050009E0,-9.379500151E-1,6.765000343E0
2.878130682E1,-1.174050093E0,-4.429500103E-1,6.664950371E0
2.880120643E1,-1.384050012E0,2.599500120E-1,6.643050194E0
2.882110581E1,-2.023950100E0,9.760500193E-1,7.210950375E0
2.884100528E1,-2.638950109E0,1.597950101E0,8.025000572E0
2.886090469E1,-2.826000214E0,1.725000024E0,9.057000160E0
2.888080409E1,-2.419050217E0,1.644000053E0,9.769950867E0
2.890070345E1,-2.167050123E0,1.528950095E0,9.756000519E0
2.892060304E1,-2.419050217E0,1.591050029E0,9.744000435E0
2.894050244E1,-2.218050003E0,1.402050018E0,9.598050117E0
2.896040178E1,-1.711950064E0,1.081050038E0,9.469050407E0
2.898030125E1,-1.564050078E0,9.709500670E-1,9.238950729E0
2.900020061E1,-1.645050049E0,1.009050012E0,9.181050301E0
2.902010001E1,-1.657050133E0,9.829500318E-1,9.495000839E0
2.903999940E1,-1.600050092E0,9.019500613E-1,9.628950119E0
2.905989901E1,-1.720050097E0,9.469500184E-1,9.391950607E0
2.907979839E1,-1.810050130E0,1.057050109E0,9.639000893E0
2.909969775E1,-1.849050045E0,1.170000076E0,1.069200039E1
2.911959722E1,-1.983000040E0,1.249050021E0,1.206600094E1
2.913949685E1,-2.158050060E0,1.278000116E0,1.292595100E1
2.915939621E1,-1.831950068E0,1.096050024E0,1.301400089E1
2.917929558E1,-1.048950076E0,1.105050087E0,1.284705067E1
2.919919503E1,-4.240500331E-1,1.198950052E0,1.309605026E1
2.921909441E1,-4.069500268E-1,9.520500302E-1,1.355295086E1
2.923899381E1,-5.560500026E-1,2.650500238E-1,1.356300068E1
2.925889318E1,-5.800500512E-1,-4.380000234E-1,1.284405041E1
2.927879260E1,-5.250000358E-1,-8.400000334E-1,1.133805084E1
2.929869221E1,6.000000052E-3,-1.089000106E0,9.655050278E0
2.931859161E1,9.195000678E-2,-1.210950017E0,8.563950539E0
2.933849105E1,-2.089500129E-1,-1.350000024E0,7.908000469E0
2.935839065E1,-3.240000010E-1,-1.864950061E0,7.480950356E0
2.937829005E1,-6.229500175E-1,-2.101950169E0,7.141050339E0
2.939818953E1,-6.829500198E-1,-1.930050135E0,6.865950108E0
2.941808891E1,-4.669500291E-1,-1.638000131E0,7.144050121E0
2.943798830E1,-5.440500379E-1,-9.190500379E-1,7.567950249E0
2.945788791E1,-6.400500536E-1,-3.330000043E-1,7.687050343E0
2.947778732E1,-5.419500470E-1,8.505000174E-2,8.082000732E0
2.949768669E1,-2.140500098E-1,4.300500154E-1,8.551950455E0
2.951758614E1,9.195000678E-2,6.259500384E-1,8.805000305E0
2.953748553E1,-2.970000207E-1,1.078950047E0,8.998950005E0
2.955738513E1,-6.949500442E-1,1.522050023E0,9.054000854E0
2.957728452E1,-9.030000567E-1,1.771050096E0,8.971050262E0
2.959718397E1,-1.035000086E0,2.065050125E0,8.877000809E0
2.961708335E1,-9.079500437E-1,2.251950026E0,8.989950180E0
2.963698296E1,-8.620500565E-1,2.632950068E0,9.487950325E0
2.965688242E1,-5.149500370E-1,2.833950043E0,1.030905056E1
2.967678180E1,-1.080000028E-1,2.949000120E0,1.127595043E1
2.969668141E1,9.405000508E-2,2.664000034E0,1.173795033E1
2.971658085E1,1.500000060E-2,2.269050121E0,1.171200085E1
2.973648025E1,-2.209500074E-1,2.122950077E0,1.144605064E1
2.975637965E1,-5.029500127E-1,1.978950143E0,1.155600071E1
2.977627929E1,-6.210000515E-1,1.846950054E0,1.209705067E1
2.979617873E1,-7.330500484E-1,1.213050008E0,1.228200054E1
2.981607811E1,-1.192950010E0,4.369500279E-1,1.198695087E1
2.983597774E1,-1.903950095E0,1.669500023E-1,1.142895031E1
2.985587712E1,-2.293950081E0,1.639500111E-1,1.147200012E1
2.987577661E1,-2.111999989E0,1.090500057E-1,1.180995083E1
2.989567626E1,-1.420050025E0,-4.930500090E-1,1.155600071E1
2.991557564E1,-8.310000300E-1,-1.615950108E0,1.075395012E1
2.993547509E1,-1.054050088E0,-1.732950091E0,9.837000847E0
2.995537446E1,-1.399050117E0,-1.663950086E0,8.479949951E0
2.997527409E1,-1.605000019E0,-1.414950013E0,8.662050247E0
2.999517355E1,-1.605000019E0,-1.174950004E0,8.853000641E0
3.001507294E1,-1.305000067E0,-7.849500179E-1,8.860050201E0
3.003497256E1,-3.910500109E-1,-4.120500088E-1,9.130949974E0
3.005487203E1,6.105000153E-2,2.220000178E-1,9.430050850E0
3.007477139E1,-2.950500250E-1,1.210950017E0,9.634050369E0
3.009467098E1,-4.549500346E-1,1.788000107E0,9.516000748E0
3.011457038E1,-2.490000129E-1,1.792050123E0,9.040050507E0
3.013446986E1,-1.695000008E-2,1.687050104E0,8.821949959E0
3.015436948E1,-1.560000032E-1,1.648950100E0,8.829000473E0
3.017426886E1,-6.589500308E-1,1.510050058E0,9.129000664E0
3.019416827E1,-5.970000029E-1,1.132050037E0,9.616950035E0
3.021406785E1,7.950000465E-3,7.459500432E-1,9.811050415E0
3.023396732E1,-1.729500145E-1,5.860500336E-1,9.588000298E0
3.025386673E1,-5.749500394E-1,5.070000291E-1,9.481050491E0
3.027376636E1,-7.210500240E-1,7.920000553E-1,1.006200027E1
3.029366579E1,-1.990500093E-1,1.219950080E0,1.106295013E1
3.031356516E1,1.830000132E-1,1.540950060E0,1.162305069E1
3.033346479E1,-1.200000010E-2,1.855050087E0,1.130205059E1
3.035336424E1,-4.339500070E-1,2.143949986E0,1.068000031E1
3.037326385E1,-3.720000088E-1,2.452950001E0,1.041195011E1
3.039316331E1,-1.080000028E-1,2.788050175E0,1.081200027E1
3.041306294E1,7.240500450E-1,2.701950073E0,1.127100086E1
3.043296231E1,1.561950088E0,1.689000130E0,1.142505074E1
3.045286177E1,1.368000031E0,6.619500518E-1,1.133805084E1
3.047276138E1,1.047000051E0,-2.869500220E-1,1.107495022E1
3.049266091E1,6.160500050E-1,-7.350000143E-1,1.083795071E1
3.051256032E1,5.080500245E-1,-9.859500527E-1,1.054605007E1
3.053245995E1,4.060500264E-1,-1.125000000E0,1.004295063E1
3.055235932E1,1.590000093E-1,-1.105949998E0,9.330000877E0
3.057225877E1,1.999500096E-1,-9.139500260E-1,8.863050461E0
3.059215841E1,-2.449500114E-1,-7.695000619E-2,8.506050110E0
3.061205787E1,-3.690000176E-1,7.990500331E-1,8.113050461E0
3.063195726E1,-3.450000286E-1,1.375950098E0,7.495950222E0
3.065185686E1,-4.579500258E-1,1.620000124E0,6.981000423E0
3.067175633E1,-9.529500604E-1,1.765950084E0,6.652950287E0
3.069165594E1,-1.606950045E0,1.807050109E0,6.763050556E0
3.071155540E1,-1.494000077E0,1.551000118E0,7.138950348E0
3.073145500E1,-9.889500737E-1,1.177050114E0,7.225050449E0
3.075135447E1,-6.640500426E-1,1.062000036E0,7.110000134E0
3.077125385E1,-5.820000172E-1,1.021050096E0,7.333050251E0
3.079115352E1,-5.730000138E-1,1.153050065E0,7.912050247E0
3.081105314E1,-5.629500151E-1,1.548000097E0,9.114000320E0
3.083095251E1,-6.250500083E-1,2.194950104E0,1.051995087E1
3.085085196E1,-5.610000491E-1,2.605950117E0,1.185105038E1
3.087075158E1,-5.920500159E-1,2.817000151E0,1.251900101E1
3.089065106E1,-8.310000300E-1,2.986950159E0,1.272195053E1
3.091055070E1,-7.909500599E-1,2.737950087E0,1.263105106E1
3.093045010E1,-9.199500680E-1,2.569950104E0,1.275795078E1
3.095034955E1,-1.392000079E0,2.350050211E0,1.302900028E1
3.097024919E1,-2.068950176E0,1.845000029E0,1.363905048E1
3.099014863E1,-2.115000010E0,1.026000023E0,1.393905067E1
3.101004826E1,-1.183050036E0,1.810500026E-1,1.373295021E1
3.102994772E1,-5.389500260E-1,-4.050000310E-1,1.304100037E1
3.104984736E1,-3.810000122E-1,-5.839500427E-1,1.199400043E1
3.106974681E1,-1.009500027E-1,-9.859500527E-1,1.068195057E1
3.108964620E1,-1.699500084E-1,-9.529500604E-1,9.232050896E0
3.110954591E1,-2.850000262E-1,-8.280000687E-1,8.179950714E0
3.112944531E1,-3.910500109E-1,-8.860500455E-1,7.720950603E0
3.114934499E1,-3.910500109E-1,-6.750000119E-1,7.692000389E0
3.116924436E1,-7.695000619E-2,-1.459500045E-1,7.789950371E0
3.118914396E1,2.070000172E-1,5.110500455E-1,8.086950302E0
3.120904342E1,6.795000285E-2,1.360950112E0,8.532000542E0
3.122894302E1,-2.280000150E-1,2.227950096E0,8.863050461E0
3.124884250E1,-5.805000290E-2,2.815050125E0,9.117000580E0
3.126874208E1,2.929500043E-1,3.115950108E0,9.391950607E0
3.128864153E1,5.560500026E-1,3.327000141E0,9.694050789E0
3.130854116E1,7.860000134E-1,3.013050079E0,9.124050140E0
3.132844062E1,3.270000219E-1,2.695050240E0,8.178000450E0
3.134834024E1,-2.710500062E-1,2.434050083E0,7.165050507E0
3.136823966E1,-1.027950048E0,2.095950127E0,6.556950092E0
3.138813929E1,-1.357950091E0,1.741950035E0,6.760950089E0
3.140803897E1,-1.055999994E0,1.114950061E0,7.474050522E0
3.142793832E1,-9.250500202E-1,9.060000181E-1,8.310000420E0
3.144783776E1,-1.106999993E0,1.062000036E0,9.057000160E0
3.146773737E1,-1.453950047E0,1.512000084E0,9.588000298E0
3.148763684E1,-1.545000076E0,1.807050109E0,9.745950699E0
3.150753645E1,-1.593000054E0,2.022000074E0,9.825000763E0
3.152743592E1,-1.746000051E0,2.446050167E0,1.007400036E1
3.154733556E1,-1.863000035E0,2.569950104E0,1.042905045E1
3.156723522E1,-2.140950203E0,2.463000059E0,1.146105099E1
3.158713472E1,-1.875000119E0,2.182950020E0,1.260705090E1
3.160703412E1,-1.332000017E0,1.849950075E0,1.294695091E1
3.162693375E1,-7.860000134E-1,1.894950032E0,1.262205029E1
3.164683322E1,-3.090000153E-1,2.119950056E0,1.216905022E1
3.166673285E1,1.540500075E-1,2.278050184E0,1.238895035E1
3.168663232E1,8.890500665E-1,2.422049999E0,1.304100037E1
3.170653196E1,1.156949997E0,2.202000141E0,1.351200104E1
3.172643142E1,2.190000117E-1,1.515000105E0,1.252605057E1
3.174633105E1,-9.870000482E-1,9.570000172E-1,1.084800053E1
3.176623074E1,-1.336050034E0,4.279500246E-1,9.202950478E0
3.178613013E1,-1.414950013E0,1.740000099E-1,8.161050797E0
3.180602982E1,-1.494000077E0,3.079500198E-1,7.560000420E0
3.182592929E1,-1.569000125E0,5.089499950E-1,7.330950260E0
3.184582890E1,-1.566000104E0,4.639500082E-1,7.146000385E0
3.186572833E1,-1.582950115E0,3.150000274E-1,6.921000481E0
3.188562795E1,-1.660050035E0,6.405000389E-2,6.600000381E0
3.190552742E1,-1.912950039E0,-6.000000238E-2,6.531000137E0
3.192542702E1,-1.878000140E0,2.505000122E-2,6.733950138E0
3.194532672E1,-1.714950085E0,3.799500167E-1,7.362000465E0
3.196522614E1,-1.626000047E0,5.899500251E-1,7.857000351E0
3.198512574E1,-1.570950031E0,4.230000079E-1,8.305050850E0
3.200502520E1,-1.540050030E0,5.569500327E-1,8.494050026E0
3.202492481E1,-1.612050056E0,1.110000014E0,8.482049942E0
3.204482428E1,-1.558950067E0,1.735050082E0,8.719050407E0
3.206472390E1,-1.666950107E0,2.341050148E0,9.222000122E0
3.208462359E1,-1.594950080E0,2.532000065E0,9.888000488E0
3.210452306E1,-1.633050084E0,2.701950073E0,1.050495052E1
3.212442266E1,-1.593000054E0,2.956050158E0,1.130205059E1
3.214432211E1,-1.518000126E0,2.997000217E0,1.192695045E1
3.216422181E1,-1.537950039E0,2.781000137E0,1.239705086E1
3.218412144E1,-1.522950053E0,2.554050207E0,1.228905106E1
3.220402092E1,-1.438950062E0,2.278050184E0,1.202295017E1
3.222392029E1,-1.438950062E0,2.155950069E0,1.212405014E1
3.224382002E1,-1.336050034E0,1.998000145E0,1.292805099E1
3.226371962E1,-1.068000078E0,1.665000081E0,1.363395023E1
3.228361909E1,-9.010500312E-1,1.318050027E0,1.365795040E1
3.230351873E1,-9.960000515E-1,8.350500464E-1,1.320105076E1
3.232341820E1,-1.456050038E0,3.559500277E-1,1.255905056E1
3.234331787E1,-1.912950039E0,-1.200000010E-2,1.146300030E1
3.236321747E1,-1.885050058E0,-6.199500561E-1,1.006200027E1
3.238311694E1,-1.875000119E0,-1.168050051E0,8.619000435E0
3.240301655E1,-1.723950028E0,-1.450950027E0,7.716000557E0
3.242291601E1,-1.675950050E0,-1.348050117E0,7.579950333E0
3.244281570E1,-1.951950073E0,-8.040000200E-1,7.996050358E0
3.246271532E1,-2.269950151E0,-7.905000448E-2,8.626049995E0
3.248261477E1,-1.843950033E0,4.350000322E-1,8.671050072E0
3.250251438E1,-9.340500236E-1,3.750000298E-1,8.410050392E0
3.252241406E1,-6.300000548E-1,2.719500065E-1,8.167950630E0
3.254231352E1,-1.171050072E0,3.649500310E-1,7.600950241E0
3.256221313E1,-1.576050043E0,4.440000355E-1,7.249050140E0
3.258211283E1,-1.401000023E0,6.070500016E-1,7.089000225E0
3.260201229E1,-9.169500470E-1,6.889500618E-1,7.183950424E0
3.262191189E1,-6.640500426E-1,4.200000167E-1,7.206000328E0
3.264181135E1,-1.165950060E0,4.969500303E-1,7.471950531E0
3.266171098E1,-1.846050143E0,4.849500358E-1,7.527000427E0
3.268161069E1,-2.104950190E0,6.019500494E-1,7.941000462E0
3.270151014E1,-1.594950080E0,7.920000553E-1,8.512949944E0
3.272140978E1,-1.192950010E0,1.053000093E0,9.105000496E0
3.274130948E1,-8.980500698E-1,1.195950031E0,9.499950409E0
3.276120894E1,-8.839500546E-1,1.528950095E0,1.014795017E1
3.278110854E1,-7.090500593E-1,1.843050122E0,1.067295074E1
3.280100802E1,1.009500027E-1,1.423950076E0,1.010100079E1
3.282090769E1,-1.005000062E-2,1.206000090E0,8.913000107E0
3.284080730E1,-1.150050044E0,2.071950197E0,8.941950798E0
3.286070698E1,-2.457000017E0,3.283950090E0,9.552000046E0
3.288060642E1,-2.833050251E0,3.880050182E0,1.014795017E1
3.290050603E1,-2.134050131E0,3.520950079E0,1.078995037E1
3.292040572E1,-1.120950103E0,3.163950205E0,1.084305096E1
3.294030518E1,-7.140000463E-1,3.400950193E0,1.115400028E1
3.296020479E1,-3.480000198E-1,3.550050259E0,1.197795010E1
3.298010427E1,6.139500141E-1,3.255000114E0,1.313205051E1
3.300000396E1,1.186050057E0,3.339000225E0,1.395795059E1
3.301990359E1,1.009050012E0,3.610050201E0,1.438395023E1
3.303980327E1,4.510500133E-1,3.789000273E0,1.446795082E1
3.305970272E1,7.995000482E-2,3.370050192E0,1.388295078E1
3.307960242E1,1.095000096E-2,2.511000156E0,1.225095081E1
3.309950205E1,5.805000290E-2,1.845000029E0,1.020600033E1
3.311940151E1,2.449500114E-1,1.440000057E0,8.784000397E0
3.313930121E1,4.270500243E-1,1.363950014E0,8.074950218E0
3.315920083E1,5.010000467E-1,1.383000016E0,7.681950569E0
3.317910030E1,7.304999977E-2,1.732050061E0,8.010000229E0
3.319900000E1,1.999500096E-1,2.009999990E0,8.437050819E0
3.321889961E1,7.170000076E-1,2.209050179E0,8.941950798E0
3.323879930E1,1.063950062E0,2.479050159E0,8.833950043E0
3.325869875E1,3.840000033E-1,2.982000113E0,8.821949959E0
3.327859843E1,-6.250500083E-1,3.403950214E0,8.845950127E0
3.329849801E1,-1.504050016E0,3.508950233E0,9.078000069E0
3.331839772E1,-1.842000127E0,3.468000174E0,9.985950470E0
3.333829718E1,-1.425000072E0,2.803050041E0,1.007400036E1
3.335819686E1,-1.516050100E0,2.347950220E0,9.841950417E0
3.337809649E1,-1.983000040E0,2.194950104E0,9.820050240E0
3.339799619E1,-2.281949997E0,1.969950080E0,9.511950493E0
3.341789565E1,-2.434950113E0,1.914000034E0,9.001950264E0
3.343779534E1,-2.229000092E0,2.320950031E0,8.700000763E0
3.345769496E1,-1.510950089E0,2.247000217E0,8.406000137E0
3.347759442E1,-1.332000017E0,2.137050152E0,8.097000122E0
3.349749411E1,-2.032950163E0,2.295000076E0,7.753950596E0
3.351739371E1,-2.164950132E0,2.299950123E0,7.539000511E0
3.353729345E1,-1.782000065E0,2.179949999E0,7.141050339E0
3.355719289E1,-1.566000104E0,2.584950209E0,6.624000549E0
3.357709258E1,-1.528050065E0,2.968050241E0,6.526050091E0
3.359699230E1,-1.858050108E0,3.664950132E0,7.318950176E0
3.361689193E1,-2.341950178E0,4.455000401E0,1.009305000E1
3.363679158E1,-1.300950050E0,3.480000257E0,1.128300095E1
3.365669104E1,-1.566000104E0,3.082950115E0,1.108005047E1
3.367659071E1,-2.857050180E0,3.765000105E0,9.994950294E0
3.369649032E1,-3.180000067E0,3.504000187E0,9.442049980E0
3.371639001E1,-3.522000074E0,3.363000154E0,9.411000252E0
3.373628968E1,-4.156949997E0,3.756000280E0,9.933000565E0
3.375618916E1,-3.466950178E0,3.171000242E0,1.080405045E1
3.377608876E1,-2.857050180E0,2.557950020E0,1.128795052E1
3.379598844E1,-3.244950056E0,2.194950104E0,1.112805080E1
3.381588813E1,-3.967950106E0,2.380950212E0,1.037100029E1
3.383578759E1,-3.811950207E0,2.479050159E0,9.406050682E0
3.385568727E1,-3.249000072E0,2.664000034E0,8.905950546E0
3.387558697E1,-3.478950262E0,2.829000235E0,8.470050812E0
3.389548659E1,-3.898050070E0,2.640000105E0,8.566050529E0
3.391538629E1,-3.691950083E0,2.221050024E0,8.350049973E0
3.393528576E1,-3.175050259E0,1.881000042E0,7.849950314E0
3.395518547E1,-3.051000118E0,1.795050144E0,7.383000374E0
3.397508517E1,-3.096000195E0,1.945950150E0,6.970950127E0
3.399498480E1,-3.228000164E0,2.484000206E0,6.772950172E0
3.401488448E1,-3.205950260E0,2.857950211E0,7.216050148E0
3.403478395E1,-3.024000168E0,2.536950111E0,7.635000229E0
3.405468367E1,-3.202050209E0,2.488950014E0,7.627050400E0
3.407458336E1,-3.273000240E0,2.632950068E0,7.507950306E0
3.409448298E1,-3.148950100E0,2.866950035E0,7.467000484E0
3.411438270E1,-2.956950188E0,2.875050068E0,7.575000286E0
3.413428239E1,-2.956950188E0,2.796000242E0,7.687050343E0
3.415418208E1,-3.324000120E0,3.085050106E0,8.038949966E0
3.417408152E1,-3.192000151E0,3.102000237E0,8.391000748E0
3.419398122E1,-3.108000040E0,3.079950094E0,8.410050392E0
3.421388092E1,-3.127050161E0,3.289050102E0,8.227950096E0
3.423378058E1,-3.364050150E0,3.564000130E0,8.164050102E0
3.425368017E1,-3.630000114E0,3.877950191E0,8.374050140E0
3.427357986E1,-3.747000217E0,4.110000134E0,8.901000023E0
3.429347954E1,-3.987000227E0,4.000050068E0,9.322050095E0
3.431337923E1,-4.401000023E0,4.270050049E0,9.961950302E0
3.433327870E1,-4.450950146E0,4.837950230E0,1.089105034E1
3.435317840E1,-4.245000362E0,4.744050026E0,1.176000023E1
3.437307808E1,-4.096950054E0,4.300950050E0,1.173300076E1
3.439297768E1,-4.510950089E0,3.988050222E0,1.098195076E1
3.441287737E1,-4.678950310E0,3.882000208E0,1.021095085E1
3.443277706E1,-3.955950260E0,4.179000378E0,9.799050331E0
3.445267676E1,-3.333000183E0,4.431000233E0,9.745950699E0
3.447257622E1,-3.012000084E0,4.227000237E0,9.741000175E0
3.449247593E1,-2.980950117E0,3.885000229E0,9.988050461E0
3.451237563E1,-2.823000193E0,3.547050238E0,1.045305061E1
3.453227527E1,-2.713050127E0,3.277050257E0,1.040895081E1
3.455217496E1,-2.572050095E0,3.016050100E0,9.958950043E0
3.457207472E1,-2.680050135E0,2.677950144E0,9.337050438E0
3.459197434E1,-2.839950085E0,2.484000206E0,8.310000420E0
3.461187404E1,-2.530950069E0,2.689950228E0,8.877000809E0
3.463177346E1,-2.386950016E0,2.520000219E0,9.136050224E0
3.465092272E1,-3.601050138E0,4.524000168E0,9.564000130E0
3.467082234E1,-3.823950291E0,4.165050030E0,1.019400024E1
3.469072205E1,-3.376050234E0,3.693000078E0,1.124700069E1
3.471062154E1,-3.027000189E0,3.420000076E0,1.170195103E1
3.473052123E1,-3.154050112E0,3.388950109E0,1.202295017E1
3.475042087E1,-3.379050255E0,2.806950092E0,1.272000027E1
3.477032056E1,-3.859950066E0,2.391000032E0,1.316295052E1
3.479022002E1,-4.068000317E0,2.029050112E0,1.271700096E1
3.481011960E1,-4.384050369E0,1.795050144E0,1.198500061E1
3.483001929E1,-4.530000210E0,1.572000027E0,1.162800026E1
3.484991877E1,-3.982050180E0,1.081050038E0,1.147500038E1
3.486981848E1,-3.427050114E0,7.840500474E-1,1.120005035E1
3.488971809E1,-3.160950184E0,6.000000238E-1,1.051200008E1
3.490961757E1,-3.217950106E0,4.879500270E-1,9.751049995E0
3.492951724E1,-3.429000139E0,6.529500484E-1,8.985000610E0
3.494941684E1,-3.265950203E0,8.509500623E-1,8.680950165E0
3.496931654E1,-2.875950098E0,7.510500550E-1,8.197050095E0
3.498921600E1,-2.887950182E0,5.689499974E-1,7.759050369E0
3.500911562E1,-3.039000034E0,4.609500170E-1,7.453050137E0
3.502901531E1,-3.108000040E0,5.590500236E-1,7.222950459E0
3.504891479E1,-2.773050070E0,6.049500108E-1,7.383000374E0
3.506881441E1,-2.461950064E0,8.040000200E-1,7.684950352E0
3.508871408E1,-2.320050001E0,1.242000103E0,7.936050415E0
3.510861354E1,-2.149950027E0,1.416000009E0,8.449049950E0
3.512851316E1,-1.714950085E0,1.519050121E0,9.258000374E0
3.514841285E1,-8.820000291E-1,1.075950027E0,9.610050201E0
3.516831232E1,-5.149500370E-1,9.420000315E-1,1.018200016E1
3.518821199E1,-1.150500029E-1,1.038000107E0,1.117305088E1
3.520811159E1,2.740500271E-1,1.231950045E0,1.227195072E1
3.522801104E1,1.090050101E0,1.231950045E0,1.282005024E1
3.524791073E1,1.749000072E0,1.120050073E0,1.306905079E1
3.526781035E1,8.749500513E-1,1.057050109E0,1.279395103E1
3.528771002E1,-4.605000094E-2,1.302000046E0,1.252095032E1
3.530760949E1,-5.940000415E-1,1.447950125E0,1.184400082E1
3.532750917E1,-1.969500035E-1,1.428000093E0,1.086000061E1
3.534740876E1,6.709500551E-1,8.730000257E-1,9.835050583E0
3.536730824E1,1.714950085E0,1.399500072E-1,9.550050735E0
3.538720792E1,2.682000160E0,-3.210000098E-1,1.068000031E1
3.540710756E1,2.323050022E0,-3.060000241E-1,1.021995068E1
3.542700703E1,2.009999990E0,-8.100000024E-2,9.049950600E0
3.544690671E1,2.077050209E0,-2.470500171E-1,8.772000313E0
3.546680634E1,1.729950070E0,-1.890000105E-1,8.973000526E0
3.548670580E1,5.160000324E-1,6.840000153E-1,9.981000900E0
3.550660549E1,-8.119500279E-1,1.395000100E0,1.002600002E1
3.552650509E1,-1.080000028E-1,2.820000052E-1,7.837950230E0
3.554640455E1,8.560500145E-1,5.700000376E-2,6.199950218E0
3.556630425E1,1.524000049E0,2.910000086E-1,7.291950226E0
3.558620387E1,1.083000064E0,7.680000067E-1,8.070000648E0
3.560610334E1,7.459500432E-1,5.520000458E-1,8.068050385E0
3.562600303E1,2.639999986E-1,-4.095000029E-2,7.912050247E0
3.564590267E1,-2.539499998E-1,-4.519500136E-1,7.984050274E0
3.566580236E1,-2.089500129E-1,-9.619500637E-1,8.451000214E0
3.568570180E1,9.559500217E-1,-9.310500622E-1,1.002600002E1
3.570560143E1,-2.779500186E-1,3.495000303E-2,1.102500057E1
3.572550114E1,-1.129500046E-1,-3.690000176E-1,1.143405056E1
3.574540060E1,6.900000572E-1,8.505000174E-2,1.159200096E1
3.576530021E1,5.610000491E-1,-1.173000097E0,1.116795063E1
3.578519990E1,-7.519500256E-1,-1.072950006E0,1.051500034E1
3.580509933E1,-1.518000126E0,-3.469500244E-1,1.033005047E1
3.582499903E1,-1.408050060E0,-7.249500155E-1,1.114005089E1
3.584489867E1,-1.387050033E0,-1.318950057E0,1.277295017E1
3.586479835E1,-2.119050026E0,-7.950000167E-1,1.217895031E1
3.588469781E1,-1.911000133E0,-1.225950003E0,9.673950195E0
3.590459744E1,-1.047000051E0,-1.345050097E0,8.122950554E0
3.592449715E1,-6.300000548E-1,-1.447950125E0,8.203949928E0
3.594439661E1,-2.229000092E0,-1.039050102E0,9.069000244E0
3.596429628E1,-4.150050163E0,-3.400500119E-1,9.412950516E0
3.598419591E1,-3.211050034E0,-1.729050040E0,8.410050392E0
3.600409561E1,-1.951950073E0,-2.473050117E0,7.134000301E0
3.602399508E1,-1.339050055E0,-2.728950024E0,8.281050682E0
3.604389475E1,-1.807950139E0,-3.438000202E0,1.091895008E1
3.606379436E1,-2.404050112E0,-3.936000109E0,1.201395035E1
3.608369407E1,-1.450950027E0,-4.693050385E0,1.019205093E1
3.610359353E1,4.650000334E-1,-4.471950054E0,9.550050735E0
3.612349325E1,1.258050084E0,-3.571950197E0,9.162000656E0
3.614339287E1,1.537950039E0,-3.373050213E0,8.546999931E0
3.616329255E1,1.093050003E0,-3.265950203E0,8.416950226E0
3.618319202E1,7.309500575E-1,-3.193950176E0,8.464950562E0
3.620309173E1,9.750000238E-1,-3.064050198E0,8.520000458E0
3.622299134E1,9.060000181E-1,-3.021000147E0,8.137050629E0
3.624289079E1,1.108950019E0,-2.950050116E0,7.963050365E0
3.626279047E1,1.050000072E0,-2.698050022E0,7.917000294E0
3.628269009E1,3.859500289E-1,-2.389050007E0,8.334000587E0
3.630258979E1,1.129500046E-1,-2.523000002E0,9.102000237E0
3.632248928E1,7.000500560E-1,-2.731950045E0,9.877950668E0
3.634238895E1,2.326050043E0,-2.938050032E0,1.076895046E1
3.636228856E1,2.817000151E0,-2.164050102E0,1.169295025E1
3.638218824E1,2.941050053E0,-2.059050083E0,1.208505058E1
3.640208771E1,2.967000246E0,-2.337000132E0,1.228695011E1
3.642198741E1,3.694950104E0,-2.499000072E0,1.274100018E1
3.644188711E1,4.957050323E0,-2.407950163E0,1.307205105E1
3.646178672E1,5.629950047E0,-2.278950214E0,1.303095055E1
3.648168621E1,4.813050270E0,-2.100000143E0,1.262895107E1
3.650158590E1,3.232950211E0,-2.494950056E0,1.225305080E1
3.652148557E1,2.653950214E0,-3.181950092E0,1.274895096E1
3.654138518E1,1.792050123E0,-4.111050129E0,1.257600021E1
3.656128488E1,7.050000429E-1,-5.170950413E0,1.162095070E1
3.658118435E1,-2.350500077E-1,-5.800950050E0,9.622050285E0
3.660108404E1,-1.315050006E0,-5.728950500E0,7.579950333E0
3.662098364E1,-1.984950066E0,-5.373000145E0,6.235950470E0
3.664088334E1,-2.245950222E0,-4.894050121E0,5.743050098E0
3.666078303E1,-2.152950048E0,-4.414950371E0,5.820000172E0
3.668068251E1,-1.030050039E0,-4.149000168E0,6.214950085E0
3.670058219E1,-8.205000311E-2,-3.715950251E0,6.703050137E0
3.672048179E1,5.490000248E-1,-3.213000059E0,7.504950523E0
3.674038147E1,1.252950072E0,-2.755950212E0,8.188050270E0
3.676028116E1,1.966950059E0,-2.607000113E0,8.353050232E0
3.678018060E1,2.524050236E0,-2.515950203E0,8.295000076E0
3.680008026E1,2.457000017E0,-2.401050091E0,8.074950218E0
3.681997994E1,1.804050088E0,-2.064000130E0,7.345050335E0
3.683987956E1,1.870950103E0,-1.839000106E0,6.660000324E0
3.685977926E1,3.100950241E0,-1.731000066E0,7.114950180E0
3.687967894E1,3.252000093E0,-1.683000088E0,7.242000580E0
3.689957840E1,2.347050190E0,-1.888950109E0,8.050950050E0
3.691947810E1,1.672050118E0,-2.458950043E0,9.205050468E0
3.693937778E1,1.114050031E0,-3.097950220E0,1.018905067E1
3.695927741E1,1.095000029E0,-3.352050066E0,1.174095058E1
3.697917709E1,1.332000017E0,-3.723000288E0,1.262205029E1
3.699907654E1,9.199500680E-1,-4.116000175E0,1.257900047E1
3.701897625E1,-4.605000094E-2,-4.683000088E0,1.307895088E1
3.703887595E1,-9.529500604E-1,-5.214000225E0,1.448700047E1
3.705877562E1,-7.450500131E-1,-5.590050220E0,1.551600075E1
3.707867526E1,1.702950120E0,-5.863050461E0,1.669395065E1
3.709857495E1,2.874000072E0,-5.571000099E0,1.571295071E1
3.711847467E1,3.489000082E0,-5.554050446E0,1.376595020E1
3.713837416E1,2.857050180E0,-5.143050194E0,1.120200062E1
3.715827386E1,2.590950012E0,-5.341050148E0,9.178950310E0
3.717817355E1,2.356950045E0,-4.875000000E0,8.844000816E0
3.719807319E1,1.782000065E0,-4.393050194E0,8.194950104E0
3.721797287E1,1.461000085E0,-3.868950129E0,7.225050449E0
3.723787255E1,1.665000081E0,-3.721050262E0,6.186000347E0
3.725777226E1,1.263000011E0,-3.697050095E0,5.166000366E0
3.727767171E1,5.440500379E-1,-3.127050161E0,5.032050133E0
3.729757166E1,1.590000093E-1,-2.236050129E0,5.418000221E0
3.731747114E1,8.839500546E-1,-1.602000117E0,5.973000050E0
3.733737084E1,2.139000177E0,-1.614000082E0,6.295950413E0
3.735727053E1,2.578950167E0,-1.591950059E0,6.294000149E0
3.737717018E1,2.965050220E0,-1.254000068E0,6.279000282E0
3.739706988E1,3.702000141E0,-6.919500232E-1,6.406050205E0
3.741696956E1,3.385950089E0,-3.349500299E-1,6.165000439E0
3.743686924E1,1.678950071E0,-4.305000231E-2,5.880000114E0
3.745676868E1,5.100000277E-2,4.060500264E-1,6.331950188E0
3.747666840E1,-7.330500484E-1,4.159500301E-1,6.907050133E0
3.749656809E1,-5.460000038E-1,1.549500078E-1,7.788000584E0
3.751646777E1,3.550500274E-1,-1.120500043E-1,8.937000275E0
3.753636739E1,1.236000061E0,-1.600500047E-1,9.685950279E0
3.755626708E1,1.459050059E0,8.805000782E-2,9.559950829E0
3.757616678E1,1.069050074E0,3.340500295E-1,9.579000473E0
3.759606648E1,1.186050057E0,4.129500091E-1,1.025400066E1
3.761596615E1,1.858950138E0,3.079500198E-1,1.119195080E1
3.763586561E1,2.374050140E0,3.495000303E-2,1.177200031E1
3.765576526E1,2.220000029E0,-3.060000241E-1,1.214505100E1
3.767566496E1,1.830000043E0,-7.879500389E-1,1.272495079E1
3.769556457E1,1.878000140E0,-1.360050082E0,1.304505062E1
3.771546424E1,1.705950022E0,-1.803000093E0,1.326300049E1
3.773536393E1,1.275000095E0,-2.008949995E0,1.397895050E1
3.775526361E1,1.428000093E0,-2.037000179E0,1.341900063E1
3.777516306E1,3.862950087E0,-2.557050228E0,1.374900055E1
3.779506274E1,5.650950432E0,-2.322000027E0,1.388100052E1
3.781496242E1,6.355050087E0,-2.808000088E0,1.283505058E1
3.783486209E1,5.254050255E0,-2.473050117E0,1.271505070E1
3.785476172E1,3.913050175E0,-2.356050014E0,1.269795036E1
3.787466139E1,3.231000185E0,-2.382000208E0,1.246095085E1
3.789456106E1,3.031950235E0,-3.016950130E0,1.141305065E1
3.791446075E1,2.059950113E0,-3.049950123E0,1.000695038E1
3.793436044E1,1.171950102E0,-2.791950226E0,8.602050781E0
3.795425992E1,8.010000587E-1,-2.374950171E0,7.194000244E0
3.797415986E1,7.339500189E-1,-1.578000069E0,6.418050289E0
3.799405931E1,7.669500113E-1,-8.950500488E-1,6.301050186E0
3.801395900E1,8.770500422E-1,-4.860000312E-1,6.619050503E0
3.803385870E1,7.480500340E-1,-1.339500099E-1,6.913950443E0
3.805375839E1,7.600500584E-1,1.189500093E-1,6.943050385E0
3.807365803E1,1.054050088E0,3.390000165E-1,6.556950092E0
3.809355774E1,1.651050091E0,7.080000043E-1,6.603000164E0
3.811345743E1,2.282999992E0,6.769500375E-1,6.298950195E0
3.813335714E1,1.878000140E0,9.709500670E-1,5.515950203E0
3.815325686E1,2.979000092E0,1.737000108E0,6.435000420E0
3.817315631E1,2.184000015E0,1.941000104E0,5.764950275E0
3.819305605E1,2.077050209E0,1.914000034E0,5.796000481E0
3.821295575E1,2.577000141E0,1.876050115E0,6.664950371E0
3.823285547E1,3.322050095E0,1.981050134E0,7.429050446E0
3.825275517E1,3.367050171E0,2.286000013E0,7.867050171E0
3.827265478E1,4.078050137E0,2.149049997E0,9.319950104E0
3.829255448E1,3.856050253E0,2.335950136E0,1.035705090E1
3.831245416E1,3.838950157E0,3.079950094E0,1.153695011E1
3.833235360E1,3.844050169E0,3.106950045E0,1.150395012E1
3.835225353E1,3.829050064E0,2.980050087E0,1.119000053E1
3.837215300E1,4.473000050E0,2.875050068E0,1.124505043E1
3.839205267E1,4.954950333E0,2.821950197E0,1.097205067E1
3.841195235E1,6.250050068E0,3.169050217E0,1.103895092E1
3.843185196E1,6.172950268E0,3.673950195E0,1.109895039E1
3.845175173E1,5.914950371E0,2.836050034E0,1.053600025E1
3.847165141E1,5.481000423E0,1.701000094E0,1.014105034E1
3.849155102E1,5.497950077E0,7.939500213E-1,1.092705059E1
3.851145068E1,5.404950142E0,8.179500103E-1,1.220295048E1
3.853135035E1,4.686000347E0,1.099950075E0,1.274100018E1
3.855125004E1,4.240950108E0,-6.195000187E-2,1.291605091E1
3.857114972E1,3.015000105E0,-9.360000491E-1,1.248000050E1
3.859104918E1,1.488000035E0,-5.509500504E-1,1.260300064E1
3.861094910E1,8.100000620E-1,-1.105949998E0,1.174800014E1
3.863084857E1,2.860500216E-1,-9.340500236E-1,1.069005013E1
3.865074828E1,-4.170000255E-1,8.505000174E-2,1.015095043E1
3.867064797E1,-8.959500194E-1,9.180000424E-1,9.655050278E0
3.869054758E1,-1.469999999E-1,1.348950028E0,8.515950203E0
3.871044730E1,1.071000099E0,1.407000065E0,7.222950459E0
3.873034700E1,2.019000053E0,1.057050109E0,6.916050434E0
3.875024666E1,2.143949986E0,1.072050095E0,7.311000347E0
3.877014614E1,1.678950071E0,1.668000102E0,7.711050510E0
3.879004584E1,6.430500150E-1,2.194950104E0,7.603050232E0
3.880994553E1,1.849500090E-1,2.689950228E0,7.273050308E0
3.882984524E1,7.005000114E-2,2.986950159E0,6.598050117E0
3.884974493E1,2.329500169E-1,2.833950043E0,6.337050438E0
3.886964453E1,4.410000145E-1,2.803050041E0,6.531000137E0
3.888954433E1,3.979500234E-1,3.211950064E0,7.231950283E0
3.890944395E1,5.279999971E-1,3.532950163E0,7.918950558E0
3.892934363E1,1.051950097E0,3.625950098E0,8.643000603E0
3.894924334E1,1.354050040E0,3.516000271E0,8.992050171E0
3.896914279E1,1.275000095E0,3.640950203E0,9.367950439E0
3.898904249E1,1.174050093E0,3.859050274E0,9.664950371E0
3.900894218E1,1.108950019E0,3.691050291E0,1.000200081E1
3.902884184E1,1.030050039E0,3.202950239E0,1.054605007E1
3.904874153E1,6.930000186E-1,3.322050095E0,1.124295044E1
3.906864125E1,1.212000012E0,3.672000170E0,1.194900036E1
3.908854087E1,3.094050169E0,3.928050280E0,1.215495014E1
3.910844055E1,5.164950371E0,3.709950209E0,1.150395012E1
3.912834024E1,5.709000111E0,2.910000086E0,1.034505081E1
3.914823993E1,5.377950191E0,2.134950161E0,1.015095043E1
3.916813962E1,4.468950272E0,1.914000034E0,1.115895081E1
3.918803910E1,3.444000244E0,1.924050093E0,1.164495087E1
3.920793875E1,2.608050108E0,1.819050074E0,1.135800076E1
3.922783842E1,2.256000042E0,1.933950067E0,1.107495022E1
3.924773812E1,2.875950098E0,1.846950054E0,1.080900097E1
3.926763782E1,3.700050116E0,1.630050063E0,1.046205044E1
3.928753752E1,4.239000320E0,1.512000084E0,9.661950111E0
3.930743720E1,4.107000351E0,1.452000022E0,8.496000290E0
3.932733682E1,3.802950144E0,1.789950132E0,7.612950325E0
3.934723652E1,3.645000219E0,1.972050071E0,6.697950363E0
3.936713623E1,3.712050200E0,1.953000069E0,6.069000244E0
3.938703568E1,3.750000238E0,2.116050005E0,5.668950081E0
3.940693561E1,3.652050257E0,1.941000104E0,5.500950336E0
3.942683506E1,3.196950197E0,1.873950124E0,5.463000298E0
3.944673475E1,2.749050140E0,1.701000094E0,5.704950333E0
3.946663446E1,2.371050119E0,1.689000130E0,6.337050438E0
3.948653418E1,1.942950130E0,1.759050131E0,6.715050220E0
3.950643388E1,1.513950109E0,1.680000067E0,7.086000443E0
3.952633351E1,1.150050044E0,2.101050138E0,7.941000462E0
3.954623320E1,1.105050087E0,2.151000023E0,8.616000175E0
3.956613292E1,1.186050057E0,1.941000104E0,8.689949989E0
3.958603258E1,1.095000029E0,2.125050068E0,8.592000008E0
3.960593226E1,1.198050022E0,2.494050026E0,8.989950180E0
3.962583197E1,1.531050086E0,2.740050077E0,9.243000031E0
3.964573168E1,1.722000122E0,2.970000029E0,9.390000343E0
3.966563137E1,1.947000146E0,3.277050257E0,9.463950157E0
3.968553081E1,2.095950127E0,3.559050083E0,9.696000099E0
3.970543049E1,2.199000120E0,3.732000113E0,1.011300087E1
3.972533017E1,2.425950050E0,3.688950062E0,1.074000072E1
3.974522986E1,2.563050032E0,3.721950293E0,1.132605076E1
3.976512947E1,2.449950218E0,3.733950138E0,1.195395088E1
3.978502920E1,2.608050108E0,3.427950144E0,1.232505035E1
3.980492880E1,2.839950085E0,3.286050081E0,1.257600021E1
3.982482849E1,3.171000242E0,3.270000219E0,1.267395020E1
3.984472818E1,3.444000244E0,3.151950121E0,1.294500065E1
3.986462785E1,3.535050154E0,3.013050079E0,1.319595051E1
3.988452753E1,3.586950064E0,2.653950214E0,1.324905109E1
3.990442700E1,3.255000114E0,2.206950188E0,1.288500023E1
3.992432672E1,2.551050186E0,1.990950108E0,1.244700050E1
3.994422641E1,1.923000097E0,1.656000137E0,1.156305027E1
3.996412608E1,1.236000061E0,1.251000047E0,9.997950554E0
3.998402579E1,6.589500308E-1,1.174950004E0,8.844000816E0
4.000392549E1,4.890000224E-1,1.258050084E0,8.218950272E0
4.002382520E1,5.989500284E-1,1.390050054E0,8.097000122E0
4.004372483E1,8.599500656E-1,1.476000071E0,8.145000458E0
4.006362454E1,7.690500617E-1,1.462050080E0,7.692000389E0
4.008352423E1,4.750500321E-1,1.551000118E0,7.290000439E0
4.010342395E1,4.939500093E-1,1.708950043E0,7.062000275E0
4.012332363E1,5.920500159E-1,2.082000017E0,7.122000217E0
4.014322333E1,9.319500327E-1,2.271000147E0,7.018950462E0
4.016312302E1,1.212000012E0,2.185050011E0,6.825000286E0
4.018302272E1,1.203000069E0,2.202000141E0,6.712950230E0
4.020292242E1,1.047000051E0,2.455950022E0,6.925950527E0
4.022282189E1,9.270000458E-1,2.596950054E0,7.386000156E0
4.024272177E1,1.081050038E0,2.740050077E0,7.675050259E0
4.026262122E1,1.207950115E0,2.956050158E0,7.462050438E0
4.028252092E1,1.123950005E0,3.178950071E0,7.659000397E0
4.030242062E1,9.040500522E-1,3.367950201E0,8.740950584E0
4.032232031E1,5.110500455E-1,3.315000057E0,9.349050522E0
4.034222000E1,3.070500195E-1,3.346050262E0,9.580950737E0
4.036211968E1,-3.090000153E-1,3.415950060E0,9.883050919E0
4.038201938E1,-8.119500279E-1,3.298050165E0,1.031805038E1
4.040191906E1,-1.152000070E0,3.310050249E0,1.087605095E1
4.042181868E1,-1.150050044E0,3.423000097E0,1.110405064E1
4.044171834E1,-1.075049996E0,3.265050173E0,1.125195026E1
4.046161804E1,-1.162050009E0,2.908050060E0,1.186800098E1
4.048151775E1,-9.580500722E-1,2.383949995E0,1.268595028E1
4.050141746E1,-3.840000033E-1,2.293050051E0,1.325100040E1
4.052131716E1,3.960000277E-1,2.266050100E0,1.372800064E1
4.054121687E1,6.760500073E-1,2.182950020E0,1.412505054E1
4.056111656E1,5.299500227E-1,2.059950113E0,1.399800110E1
4.058101624E1,4.969500303E-1,2.118000031E0,1.312905025E1
4.060091593E1,7.789500356E-1,2.443950176E0,1.192695045E1
4.062081540E1,1.014000058E0,2.482050180E0,1.137195015E1
4.064071509E1,1.324950099E0,1.965000153E0,1.065405083E1
4.066061478E1,1.270050049E0,1.845000029E0,9.193050385E0
4.068051447E1,6.379500031E-1,2.242050171E0,7.945950508E0
4.070041415E1,1.710000038E-1,2.269050121E0,7.666050434E0
4.072031386E1,6.949500442E-1,1.716000080E0,8.224050522E0
4.074021356E1,1.330050111E0,1.756050110E0,7.819050312E0
4.076011323E1,2.509950161E0,1.141050100E0,7.729950428E0
4.078001291E1,1.579050064E0,1.651050091E0,6.165000439E0
4.079991261E1,3.580500185E-1,2.149049997E0,6.025950432E0
4.081981220E1,-2.895000204E-2,1.792050123E0,6.082950115E0
4.083971191E1,-5.805000290E-2,1.870950103E0,6.145050526E0
4.085961160E1,-1.200000010E-2,1.972050071E0,6.234000206E0
4.087951129E1,-2.350500077E-1,2.086950064E0,6.586050510E0
4.089941096E1,3.150000274E-1,1.768050075E0,8.020050049E0
4.091931067E1,1.420500129E-1,1.867050052E0,8.485050201E0
4.093921036E1,-2.539499998E-1,2.230050087E0,8.638050079E0
4.095911005E1,-4.720500112E-1,2.458050013E0,8.868000031E0
4.097900976E1,-3.499500155E-1,2.712000132E0,9.130949974E0
4.099890946E1,-2.329500169E-1,2.779050112E0,8.977950096E0
4.101880896E1,4.605000094E-2,2.530050039E0,9.178950310E0
4.103870886E1,2.190000117E-1,2.353049994E0,9.880050659E0
4.105860831E1,3.720000088E-1,2.917950153E0,1.047600079E1
4.107850803E1,-1.660500020E-1,3.145050049E0,9.934950829E0
4.109840770E1,-8.359500170E-1,2.905950069E0,9.306000710E0
4.111830738E1,-1.585050106E0,2.806950092E0,9.823050499E0
4.113820711E1,-2.182049990E0,2.668950081E0,1.154205036E1
4.115810677E1,-2.608050108E0,1.912050128E0,1.366305065E1
4.117800646E1,-2.301000118E0,1.551000118E0,1.500600052E1
4.119790616E1,-1.827000141E0,1.615050077E0,1.509705067E1
4.121780588E1,-1.272000074E0,8.299500346E-1,1.482705116E1
4.123770554E1,-1.312050104E0,-1.560000032E-1,1.417800045E1
4.125760522E1,-2.545950174E0,-5.190000534E-1,1.300995064E1
4.127750491E1,-2.614950180E0,-1.027050018E0,1.142205048E1
4.129740461E1,-2.184000015E0,-9.190500379E-1,9.708000183E0
4.131730429E1,-1.630950093E0,-6.030000448E-1,8.262000084E0
4.133720396E1,-1.639950037E0,-4.995000362E-2,7.333050251E0
4.135710367E1,-2.560050011E0,5.879999995E-1,6.667050362E0
4.137700330E1,-3.175050259E0,8.179500103E-1,6.564000130E0
4.139690300E1,-2.767950058E0,4.900500178E-1,7.489050388E0
4.141680269E1,-1.755000114E0,2.190000117E-1,7.783050537E0
4.143670246E1,-1.759950042E0,2.740500271E-1,7.620000362E0
4.145660206E1,-1.813050032E0,4.800000191E-1,7.291950226E0
4.147650183E1,-1.629000068E0,6.769500375E-1,7.335000515E0
4.149640144E1,-1.489950061E0,1.110000014E0,8.013000488E0
4.151630114E1,-9.030000567E-1,1.480950117E0,8.178000450E0
4.153620081E1,-9.150000215E-1,1.834950089E0,8.005949974E0
4.155610051E1,-1.128000021E0,2.044049978E0,7.900050163E0
4.157599998E1,-1.143000007E0,1.558050036E0,7.987050533E0
4.159589991E1,-1.582950115E0,1.443000078E0,7.978950500E0
4.161579934E1,-2.014050007E0,1.615050077E0,7.678050518E0
4.163569927E1,-2.067000151E0,1.831050038E0,7.990950584E0
4.165559871E1,-1.624050021E0,2.604000092E0,8.683050156E0
4.167549862E1,-1.605000019E0,3.328950167E0,8.998950005E0
4.169539810E1,-1.654950023E0,3.459000111E0,8.836050034E0
