"Time (s)","Acceleration x (m/s^2)","Acceleration y (m/s^2)","Acceleration z (m/s^2)"
1.946382500E-2,4.235295951E-1,4.025924206E0,8.845666885E0
3.957523100E-2,3.798605800E-1,3.962514400E0,9.072386742E0
5.968658500E-2,3.678964674E-1,3.887140274E0,9.184251785E0
7.979799100E-2,2.099701911E-1,3.957130432E0,9.389435768E0
9.990939800E-2,1.399801224E-1,3.869194269E0,8.845068932E0
1.200208040E-1,2.979064286E-1,3.793222189E0,8.590831757E0
1.401321580E-1,5.724828243E-1,3.763910055E0,8.706883430E0
1.602435640E-1,3.583251834E-1,3.890131474E0,9.354740143E0
1.803549710E-1,3.038884699E-1,3.684946775E0,9.275178909E0
2.004663770E-1,2.482553422E-1,3.766901016E0,8.949754715E0
2.205777310E-1,3.188436031E-1,3.806382656E0,8.855836868E0
2.406891370E-1,2.931207716E-1,3.840480328E0,8.861818314E0
2.608005440E-1,2.117647976E-1,3.900300980E0,8.922835350E0
2.809119500E-1,2.321037948E-1,3.943371773E0,9.044271469E0
3.010233040E-1,2.889333367E-1,3.950550079E0,9.122037888E0
3.211347100E-1,4.289134443E-1,3.933800459E0,9.196813583E0
3.412461160E-1,4.534398913E-1,3.930809498E0,9.215956688E0
3.613574710E-1,4.133601189E-1,4.011567116E0,9.162715912E0
3.814688770E-1,4.522434771E-1,4.060619831E0,9.238688469E0
4.015802830E-1,4.761717021E-1,4.060619831E0,9.435498238E0
4.216916890E-1,4.301098585E-1,4.090530396E0,9.510871887E0
4.418030440E-1,5.198407173E-1,4.050450325E0,9.814760208E0
4.619144500E-1,5.312066078E-1,4.021736622E0,1.007677460E1
4.820258560E-1,4.995017350E-1,3.990031719E0,1.018445110E1
5.021372620E-1,5.718846321E-1,3.935595036E0,1.018086243E1
5.222486160E-1,5.509474277E-1,3.922434568E0,1.024965572E1
5.423600230E-1,2.356930375E-1,3.945764542E0,1.048415279E1
5.624714290E-1,-1.728814393E-1,3.938585997E0,1.079521942E1
5.825827830E-1,-2.667997181E-1,3.894917011E0,1.123669529E1
6.026941890E-1,-1.615155302E-2,3.917050600E0,1.177508068E1
6.228055960E-1,3.385843933E-1,3.755535126E0,1.270469189E1
6.429170020E-1,4.295116663E-1,3.471387386E0,1.403031540E1
6.630283560E-1,1.489532143E-1,3.090928555E0,1.466261864E1
6.831397620E-1,-2.015953064E-1,2.474776745E0,1.411167145E1
7.032511690E-1,-3.649054468E-2,2.082952023E0,1.318684578E1
7.233625230E-1,2.709871531E-1,2.237289190E0,1.184985638E1
7.434739290E-1,1.070788130E-1,2.653640270E0,1.024187946E1
7.635853350E-1,-3.349951804E-1,2.794816732E0,8.845068932E0
7.836966890E-1,-6.077769399E-1,2.533999205E0,8.360522270E0
8.038080960E-1,-6.735795736E-1,2.233700037E0,8.942576408E0
8.239195020E-1,-5.760720372E-1,1.884347796E0,9.535398483E0
8.440309080E-1,-5.258227587E-1,1.651047587E0,9.393623352E0
8.641422620E-1,-5.186443329E-1,1.668993831E0,8.819944382E0
8.842536690E-1,-5.676971674E-1,1.801795483E0,8.365307808E0
9.043650750E-1,-7.100701332E-1,1.914856315E0,8.126026154E0
9.244764290E-1,-8.530412912E-1,1.932802439E0,7.902296543E0
9.445878350E-1,-8.907282352E-1,1.918445587E0,7.714460373E0
9.646992410E-1,-7.674978375E-1,1.959721804E0,7.588238716E0
9.848105960E-1,-6.532405615E-1,2.015953064E0,7.583453178E0
1.004922002E0,-5.814558864E-1,2.067996979E0,7.616354465E0
1.025033408E0,-6.245267391E-1,2.135594130E0,7.468597889E0
1.045144814E0,-5.946164131E-1,2.145763636E0,7.241877556E0
1.065256169E0,-5.491527915E-1,2.163111687E0,7.157530785E0
1.085367575E0,-5.425725579E-1,2.287538528E0,7.266404152E0
1.105478981E0,-5.611169338E-1,2.461616278E0,7.244270325E0
1.125590335E0,-6.580262184E-1,2.576471806E0,7.273582458E0
1.145701741E0,-6.735795736E-1,2.578864574E0,7.629515171E0
1.165813148E0,-6.586244106E-1,2.584248543E0,8.234300613E0
1.185924502E0,-5.886343718E-1,2.745165825E0,8.877371788E0
1.206035908E0,-3.314059377E-1,3.094517946E0,9.144769669E0
1.226147314E0,4.666004330E-2,3.193221807E0,9.294919968E0
1.246258721E0,2.410768867E-1,3.189034462E0,9.777072906E0
1.266370075E0,1.603191197E-1,3.127419233E0,1.039382362E1
1.286481481E0,-8.135596663E-2,3.018545866E0,1.073001480E1
1.306592887E0,-4.372883439E-1,3.028715372E0,1.088076305E1
1.326704241E0,-5.533402562E-1,3.169891834E0,1.090050316E1
1.346815648E0,-2.853440940E-1,3.294916868E0,1.090349483E1
1.366927054E0,-1.597209126E-1,3.625126362E0,1.085503960E1
1.387038408E0,1.393819153E-1,3.496512175E0,1.091964626E1
1.407149814E0,8.626125455E-1,3.150151014E0,1.148853970E1
1.427261221E0,9.206385016E-1,3.415754318E0,1.195813084E1
1.447372575E0,7.722834945E-1,3.367299557E0,1.202752304E1
1.467483981E0,7.453642488E-1,3.152543783E0,1.184028435E1
1.487595387E0,1.202393413E0,2.916252613E0,1.190190029E1
1.507706794E0,1.867598057E0,2.383849621E0,1.226381397E1
1.527818148E0,2.117049932E0,2.030908108E0,1.253898907E1
1.547929554E0,1.730010748E0,2.020738840E0,1.195334530E1
1.568040908E0,1.231107235E0,2.143969059E0,1.067139053E1
1.588152314E0,1.016949654E0,2.319841623E0,9.689137459E0
1.608263721E0,1.024726272E0,2.277967215E0,9.311669350E0
1.628375127E0,1.080957651E0,1.918445587E0,9.578469276E0
1.648486481E0,8.141579032E-1,1.913659930E0,9.573084831E0
1.668597887E0,4.755735099E-1,2.066202402E0,8.738588333E0
1.688709241E0,5.940182209E-1,2.051247120E0,7.947162151E0
1.708820648E0,1.043868899E0,1.962712765E0,7.871190071E0
1.728932054E0,1.229910851E0,1.878365755E0,8.204988480E0
1.749043460E0,7.980063558E-1,1.850848317E0,7.922635555E0
1.769154814E0,4.007977843E-1,1.916052699E0,7.232306480E0
1.789266221E0,2.452643216E-1,2.011765718E0,6.363113403E0
1.809377575E0,2.297109663E-1,2.174477577E0,5.782854080E0
1.829488981E0,1.112662554E-1,2.439482689E0,5.613562107E0
1.849600387E0,6.580262445E-3,2.604587555E0,5.767899036E0
1.869711741E0,-6.041877344E-2,2.706880569E0,6.491129398E0
1.889823148E0,9.930214286E-2,2.846860647E0,7.494918823E0
1.909934554E0,7.836494446E-1,2.987439156E0,8.525029182E0
1.930045908E0,1.174875975E0,3.239881754E0,9.053842545E0
1.950157314E0,1.133001566E0,3.498306751E0,8.825327873E0
1.970268721E0,7.256234884E-1,3.713062525E0,8.522037506E0
1.990380075E0,5.545366406E-1,3.653241873E0,9.177671432E0
2.010491481E0,4.031906128E-1,3.404986620E0,1.023948669E1
2.030602887E0,3.720839322E-1,3.247060299E0,1.104526901E1
2.050714241E0,4.319044948E-1,3.417548895E0,1.121216869E1
2.070825648E0,4.809573591E-1,3.527020693E0,1.105663490E1
2.090937054E0,4.444667995E-1,3.373281717E0,1.134616661E1
2.111048408E0,3.050848842E-1,3.296113253E0,1.188514996E1
2.131159814E0,8.554340899E-2,3.313461065E0,1.200598717E1
2.151271221E0,-2.273181453E-2,3.308077335E0,1.195214939E1
2.171382575E0,4.905286431E-2,3.412763357E0,1.191266727E1
2.191493981E0,1.878365725E-1,3.133401155E0,1.234397411E1
2.211605335E0,3.978067636E-1,2.011167526E0,1.361575890E1
2.231716741E0,3.433700502E-1,1.019940615E0,1.492224026E1
2.251828148E0,-5.880361795E-1,9.116654396E-1,1.396451283E1
2.271939502E0,-1.448854089E0,1.406381488E0,1.134018517E1
2.292050908E0,-1.669592023E0,1.653440475E0,9.569496155E0
2.312162314E0,-1.316052437E0,1.358525038E0,9.532406807E0
2.332273669E0,-1.104287624E0,9.511470199E-1,1.073539925E1
2.352385075E0,-1.506880045E0,7.351947427E-1,1.133181000E1
2.372496481E0,-1.850848317E0,7.698906660E-1,1.073480034E1
2.392607835E0,-1.437488198E0,1.016351461E0,9.631709099E0
2.412719241E0,-6.095715761E-1,1.295115232E0,8.678169250E0
2.432830648E0,-2.883351147E-1,1.561316729E0,7.947760582E0
2.452942002E0,-3.810569942E-1,1.704886079E0,7.218547821E0
2.473053408E0,-4.893322289E-1,1.698904037E0,6.594020844E0
2.493164762E0,-6.939185858E-1,1.786840320E0,6.286543369E0
2.513276169E0,-8.907282352E-1,1.903490424E0,6.184250355E0
2.533387575E0,-7.561319470E-1,1.900499344E0,6.253642082E0
2.553498929E0,-3.451646566E-1,1.881955028E0,6.416353703E0
2.573610335E0,-2.931207716E-1,1.828116536E0,6.827919483E0
2.593721741E0,-6.699903607E-1,1.719841242E0,7.222734928E0
2.613833096E0,-1.118644595E0,1.850250125E0,7.275377274E0
2.633944502E0,-1.615155339E0,2.389831543E0,6.900900364E0
2.654055856E0,-1.728814363E0,2.879761934E0,6.803392887E0
2.674167262E0,-9.882357717E-1,2.849851847E0,7.649854183E0
2.694278669E0,-6.203392744E-1,2.747558594E0,8.877969742E0
2.714390023E0,-9.242277741E-1,2.916252613E0,9.640682220E0
2.734501429E0,-1.428515077E0,3.059821844E0,9.891928673E0
2.754612783E0,-1.997408748E0,3.378067255E0,1.027836990E1
2.774724189E0,-2.067996979E0,3.650849104E0,1.066181946E1
2.794835596E0,-1.527219057E0,3.588635683E0,1.101535892E1
2.814946950E0,-1.014556766E0,3.353540897E0,1.181755257E1
2.835058356E0,-8.069794178E-1,3.254238844E0,1.302891922E1
2.855169710E0,-1.064806104E0,3.178266764E0,1.331007576E1
2.875281116E0,-8.673982024E-1,3.035893679E0,1.239183044E1
2.895392523E0,-1.232303679E-1,3.042474031E0,1.127916813E1
2.915503877E0,3.026920557E-1,2.964108944E0,1.098664474E1
2.935615283E0,6.831508875E-1,2.313261271E0,1.176730347E1
2.955726637E0,1.113858938E0,1.557727575E0,1.281655598E1
2.975838044E0,1.135992527E0,1.258026481E0,1.274955750E1
2.995949450E0,8.823533654E-1,1.293320656E0,1.186361504E1
3.016060804E0,7.740781307E-1,1.310668588E0,1.113559818E1
3.036172210E0,1.094118118E0,1.192223907E0,1.098604679E1
3.056283564E0,1.447059512E0,9.535398483E-1,1.126540947E1
3.076394971E0,1.284347534E0,8.099704385E-1,1.115832996E1
3.096506377E0,7.692924738E-1,9.960124493E-1,1.015813065E1
3.116617731E0,6.197410822E-1,1.107278705E0,8.998807907E0
3.136729137E0,8.596215248E-1,1.182054400E0,8.347960472E0
3.156840491E0,1.088136077E0,1.298106313E0,8.169096947E0
3.176951898E0,8.386843204E-1,1.498505235E0,7.659425259E0
3.197063252E0,4.271188378E-1,1.639681697E0,6.848258495E0
3.217174634E0,9.212367237E-2,1.722832322E0,6.113661766E0
3.237286040E0,9.750752151E-2,1.733600020E0,6.245266914E0
3.257397395E0,4.510470629E-1,1.942971945E0,6.997211456E0
3.277508801E0,4.923232496E-1,2.187638044E0,7.074978352E0
3.297620155E0,1.196411327E-1,2.307877541E0,6.565905571E0
3.317731561E0,-1.160518974E-1,2.607578516E0,6.470790863E0
3.337842967E0,-1.136590764E-1,2.967698336E0,6.795616150E0
3.357954322E0,1.752742529E-1,3.020340443E0,7.050451756E0
3.378065728E0,1.824527234E-1,3.057429075E0,7.335197926E0
3.398177082E0,4.235295951E-1,2.997010469E0,8.195417404E0
3.418288488E0,6.664010882E-1,3.022733212E0,9.272188187E0
3.438399842E0,6.125625968E-1,3.038286448E0,1.018086243E1
3.458511249E0,2.219343036E-1,3.091526747E0,1.093519974E1
3.478622655E0,-1.794617064E-2,3.144767046E0,1.174935722E1
3.498734009E0,-6.580262445E-3,3.160918713E0,1.210828114E1
3.518845415E0,1.154536903E-1,3.284747362E0,1.214118195E1
3.538956770E0,-3.589234129E-2,3.621536970E0,1.205504036E1
3.559068176E0,-6.424728632E-1,3.732205153E0,1.196172047E1
3.579179530E0,-1.135992527E0,3.550948858E0,1.260538960E1
3.599290936E0,-9.038887620E-1,2.763710260E0,1.393101311E1
3.619402290E0,2.739782035E-1,1.836491346E0,1.582313824E1
3.639513697E0,8.273184299E-1,1.467398524E0,1.603131294E1
3.659625103E0,2.955136001E-1,1.200000525E0,1.354636765E1
3.679736457E0,-4.133601189E-1,1.338186026E0,1.070249748E1
3.699847863E0,-6.287141442E-1,2.045265198E0,8.959924698E0
3.719959217E0,-4.845465720E-1,2.436491728E0,8.166105270E0
3.740070624E0,-5.341976285E-1,2.380858421E0,7.728816986E0
3.760181978E0,-1.256231871E-2,1.631905079E0,8.577073097E0
3.780293384E0,1.136590764E-1,1.419542074E0,9.560523033E0
3.800404738E0,1.902294010E-1,1.333998680E0,9.516854286E0
3.820516145E0,1.471585929E-1,1.170688510E0,8.620143890E0
3.840627551E0,-2.691925466E-1,1.341775298E0,7.429714203E0
3.860738905E0,-5.078766346E-1,1.504487276E0,6.760322094E0
3.880850259E0,-5.288137794E-1,1.636092424E0,6.198009014E0
3.900961665E0,-2.069791555E-1,1.735992789E0,5.965306759E0
3.921073072E0,-1.872383654E-1,1.782054663E0,6.040680885E0
3.941184426E0,-3.547359705E-1,1.891526341E0,6.357729912E0
3.961295832E0,-3.164508045E-1,2.134995937E0,6.755536556E0
3.981407186E0,-3.308077157E-1,2.355733871E0,6.887740135E0
4.001518592E0,-3.385843933E-1,2.546561480E0,7.109076023E0
4.021629947E0,-8.195417374E-2,2.703889608E0,8.137392044E0
4.041741353E0,5.443671346E-2,2.796611547E0,9.457033157E0
4.061852707E0,1.824527234E-1,2.680559635E0,1.010608673E1
4.081964113E0,4.767699242E-1,2.612962246E0,1.063250732E1
4.102075467E0,4.827519655E-1,2.540579557E0,1.156690502E1
4.122186874E0,8.255238086E-2,2.412563324E0,1.265504074E1
4.142298228E0,-2.841476798E-1,2.174477577E0,1.324427319E1
4.162409634E0,-1.986042857E-1,2.227717876E0,1.318325615E1
4.182520988E0,2.835494876E-1,2.587239504E0,1.268196011E1
4.202632395E0,1.216750264E0,2.890529871E0,1.220578861E1
4.222743801E0,1.966900229E0,3.107678413E0,1.189711380E1
4.242855155E0,2.460419893E0,2.564507723E0,1.245464230E1
4.262966509E0,2.788236618E0,1.596610904E0,1.352064419E1
4.283077915E0,2.695514679E0,1.071984529E0,1.421575928E1
4.303189270E0,1.907677889E0,1.155135155E0,1.343988705E1
4.323300676E0,8.769695163E-1,1.640878081E0,1.131206894E1
4.343412082E0,7.896314859E-1,1.773679733E0,9.628718376E0
4.363523436E0,1.316650629E0,1.664806366E0,9.268000603E0
4.383634842E0,1.846062660E0,1.324427366E0,9.683753014E0
4.403746197E0,1.589432478E0,1.083948612E0,9.441479683E0
4.423857603E0,1.115653515E0,1.102493048E0,8.419146538E0
4.443968957E0,7.411768436E-1,1.223330617E0,7.146164894E0
4.464080363E0,4.671986103E-1,1.358525038E0,6.069993019E0
4.484191717E0,3.553341627E-1,1.674377680E0,5.461019516E0
4.504303072E0,1.740778536E-1,1.922034740E0,5.182255745E0
4.524414478E0,1.782652885E-1,1.959721804E0,5.527420521E0
4.544525884E0,3.583251834E-1,1.933400750E0,6.777669907E0
4.564637238E0,2.590230405E-1,1.945963025E0,7.780860901E0
4.584748592E0,9.631111473E-2,2.082952023E0,7.776673794E0
4.604859999E0,-3.050848842E-2,2.347957134E0,7.030711174E0
4.624971405E0,-4.366901144E-2,2.669791937E0,6.409175396E0
4.645082759E0,2.632105052E-1,2.736192703E0,6.640082836E0
4.665194113E0,5.180460811E-1,2.717648268E0,7.835297585E0
4.685305520E0,5.898307562E-1,2.745165825E0,8.812766075E0
4.705416874E0,8.727820516E-1,2.795415163E0,9.504291534E0
4.725528280E0,1.042672515E0,2.981456995E0,9.903294563E0
4.745639634E0,6.675975323E-1,3.083152056E0,9.888937950E0
4.765751040E0,2.901297510E-1,3.016152859E0,1.025982571E1
4.785862395E0,-4.247260094E-2,3.035893679E0,1.106919765E1
4.805973801E0,-2.249253243E-1,3.036491871E0,1.139641571E1
4.826085155E0,-1.160518974E-1,3.054438114E0,1.142273712E1
4.846196561E0,3.888336942E-2,3.176471949E0,1.173559856E1
4.866307915E0,-6.699903309E-2,3.095116138E0,1.239900875E1
4.886419322E0,-4.420739710E-1,2.700300455E0,1.280339622E1
4.906530676E0,-9.403793216E-1,2.261217356E0,1.308694553E1
4.926642082E0,-1.000798106E0,1.691725612E0,1.384068394E1
4.946753436E0,-5.641079545E-1,1.169492126E0,1.480678654E1
4.966864790E0,-1.333998591E-1,1.116850019E0,1.433420372E1
4.986976197E0,-3.924229145E-1,1.515254974E0,1.211545944E1
5.007087551E0,-9.086744189E-1,1.913061738E0,1.018146038E1
5.027198957E0,-1.368694544E0,2.085943222E0,9.318847656E0
5.047310311E0,-1.329811215E0,1.796411633E0,9.700503349E0
5.067421717E0,-6.771687865E-1,1.217348576E0,1.061336517E1
5.087533072E0,-3.619144261E-1,7.507480979E-1,1.081795120E1
5.107644478E0,-3.206382394E-1,5.509474277E-1,1.019043350E1
5.127755832E0,-3.954139352E-1,6.669993401E-1,9.057432175E0
5.147867186E0,-5.012963414E-1,7.334001660E-1,7.585247993E0
5.167978592E0,-3.804588020E-1,7.728816867E-1,6.455835342E0
5.188089947E0,-2.829512656E-1,9.361918569E-1,6.101099491E0
5.208201353E0,-3.320041299E-1,9.547362328E-1,6.104688644E0
5.228312707E0,-2.368894368E-1,1.013360381E0,6.053243160E0
5.248424113E0,-8.554340899E-2,1.192822099E0,6.122036934E0
5.268535467E0,-3.589234129E-2,1.402792215E0,6.497111797E0
5.288646874E0,-4.067798555E-1,1.615753531E0,6.617949009E0
5.308758228E0,-6.610172391E-1,1.791625977E0,6.822535515E0
5.328869582E0,-8.512466550E-1,2.172084808E0,7.362715244E0
5.348980988E0,-8.428717852E-1,2.567498684E0,8.086544037E0
5.369092342E0,-5.676971674E-1,2.757129908E0,8.522636414E0
5.389203749E0,-1.226321608E-1,2.813959360E0,8.614161491E0
5.409315103E0,3.044866920E-1,2.690729141E0,9.318847656E0
5.429426457E0,4.037888348E-1,2.502294302E0,1.087777138E1
5.449537863E0,1.806581169E-1,2.441875458E0,1.224347496E1
5.469649217E0,-3.798605800E-1,2.456830740E0,1.260718441E1
5.489760624E0,-4.456632137E-1,2.575275421E0,1.283809185E1
5.509871978E0,-1.292124242E-1,3.003590584E0,1.300020504E1
5.529983332E0,7.339983582E-1,3.052643538E0,1.270110226E1
5.550094738E0,1.712662816E0,2.866003275E0,1.227876949E1
5.570206092E0,2.429911375E0,2.390429735E0,1.262572861E1
5.590317499E0,2.608774900E0,1.849053741E0,1.346321678E1
5.610428853E0,2.238485575E0,1.636092424E0,1.358824158E1
5.630540259E0,1.433898926E0,1.742573142E0,1.256889915E1
5.650651613E0,1.133001566E0,1.742573142E0,1.137906837E1
5.670762967E0,1.218544960E0,1.771286964E0,1.050748253E1
5.690874374E0,1.259222865E0,1.908874273E0,1.004865837E1
5.710985728E0,1.163509965E0,1.860419631E0,9.918848038E0
5.731097082E0,1.240678549E0,1.578066587E0,9.961918831E0
5.751208488E0,1.426720500E0,1.372283816E0,1.009113121E1
5.771319842E0,1.433898926E0,1.222134113E0,9.777671814E0
5.791431249E0,1.091127157E0,1.270588875E0,8.932407379E0
5.811542603E0,5.653043389E-1,1.438684583E0,7.909475327E0
5.831653957E0,3.128615618E-1,1.577468276E0,7.156334400E0
5.851765363E0,2.973082066E-1,1.747358680E0,6.665207386E0
5.871876717E0,3.816552162E-1,1.847857237E0,6.281757832E0
5.891988124E0,3.750749528E-1,1.884347796E0,6.222535133E0
5.912099478E0,2.787638307E-1,1.890329838E0,6.543771744E0
5.932210832E0,2.620140910E-1,1.874178290E0,6.940382004E0
5.952322238E0,2.434697002E-1,1.943570137E0,7.172485828E0
5.972433592E0,1.926222295E-1,2.124228239E0,7.074978352E0
5.992544947E0,1.441675574E-1,2.435295343E0,6.917650223E0
6.012656353E0,9.391828626E-2,2.678765059E0,6.940980434E0
6.032767707E0,2.757728100E-1,2.742773056E0,7.201199532E0
6.052879061E0,5.569294691E-1,2.728415966E0,7.785048485E0
6.072990467E0,6.227321029E-1,2.781656265E0,8.398807526E0
6.093101822E0,7.010970116E-1,2.678166628E0,8.934800148E0
6.113213176E0,9.463613629E-1,2.559123755E0,9.704689980E0
6.133324582E0,9.966106415E-1,2.526222467E0,1.038006496E1
6.153435936E0,6.903293133E-1,2.565105915E0,1.060439205E1
6.173547342E0,2.901297510E-1,2.673381090E0,1.046680450E1
6.193658697E0,3.553341627E-1,2.730210543E0,1.062353420E1
6.213770051E0,7.758727670E-1,2.817548752E0,1.107398319E1
6.233881457E0,7.226324677E-1,2.889333248E0,1.119123173E1
6.253992811E0,2.368894368E-1,2.898904562E0,1.116969585E1
6.274104165E0,-2.374876440E-1,3.015554667E0,1.158365440E1
6.294215572E0,-3.930211067E-1,3.110071182E0,1.252881908E1
6.314326926E0,-1.459621787E-1,2.873780012E0,1.340459251E1
6.334438280E0,1.848455518E-1,2.351546526E0,1.401894951E1
6.354549686E0,5.102694035E-1,1.612762451E0,1.478764439E1
6.374661040E0,3.367897868E-1,7.986045480E-1,1.545045567E1
6.394772395E0,-5.569294691E-1,5.347958803E-1,1.486002636E1
6.414883749E0,-1.439282775E0,9.714859724E-1,1.279860973E1
6.434995155E0,-1.551147223E0,1.372882009E0,1.081555843E1
6.455106509E0,-8.656035662E-1,1.240080357E0,1.003430176E1
6.475217915E0,3.038884699E-1,8.560323119E-1,1.076949692E1
6.495329270E0,5.862415433E-1,6.831508875E-1,1.109671497E1
6.515440624E0,2.811566554E-2,7.339983582E-1,1.004806042E1
6.535551978E0,-3.565305769E-1,1.052842021E0,8.792427063E0
6.555663384E0,-4.743770957E-1,1.258624673E0,7.631309509E0
6.575774738E0,-2.979064286E-1,1.352542996E0,6.778268337E0
6.595886092E0,-2.727817893E-1,1.529013634E0,6.331408501E0
6.615997499E0,-3.457628787E-1,1.654038668E0,6.189633846E0
6.636108853E0,-3.978067636E-1,1.662413478E0,6.218348026E0
6.656220207E0,-3.631108403E-1,1.721037745E0,6.399005890E0
6.676331613E0,-3.349951804E-1,1.712662816E0,6.526423931E0
6.696442967E0,-3.990031779E-1,1.682154298E0,6.521039963E0
6.716554322E0,-6.041877270E-1,1.800000787E0,6.269793510E0
6.736665676E0,-7.304090858E-1,1.995015860E0,6.122634888E0
6.756777082E0,-7.710871100E-1,2.305484533E0,6.446264267E0
6.776888436E0,-8.668000102E-1,2.657229662E0,6.707680225E0
6.796999790E0,-7.513462901E-1,2.848057270E0,6.970292568E0
6.817111197E0,-4.749752879E-1,2.880360365E0,7.599604607E0
6.837222551E0,-1.274178028E-1,2.773879766E0,8.759525299E0
6.857333905E0,1.615155339E-1,2.634497643E0,1.022692394E1
6.877445259E0,1.196411322E-3,2.606980324E0,1.146820068E1
6.897556665E0,-3.960121572E-1,2.675175667E0,1.180798149E1
6.917668020E0,-4.510470629E-1,2.809772015E0,1.170030499E1
6.937779374E0,5.982056609E-4,2.894119024E0,1.213101292E1
6.957890780E0,2.853440940E-1,3.069991350E0,1.250010586E1
6.978002134E0,1.824527234E-1,3.121437073E0,1.209751320E1
6.998113488E0,4.301098585E-1,2.705085993E0,1.181695461E1
7.018224842E0,1.077368379E0,2.148156643E0,1.241934776E1
7.038336249E0,1.233500123E0,1.717448473E0,1.330349541E1
7.058447603E0,1.029511929E0,1.150349498E0,1.369412422E1
7.078558957E0,6.526423693E-1,8.374879360E-1,1.328973675E1
7.098670311E0,5.497509837E-1,8.147560954E-1,1.255155087E1
7.118781717E0,5.611169338E-1,1.010967612E0,1.181994534E1
7.138893072E0,5.647061467E-1,1.059422255E0,1.114995575E1
7.159004426E0,7.980063558E-1,7.268198729E-1,1.105484104E1
7.179115780E0,1.021735311E0,3.499503136E-1,1.183609676E1
7.199227186E0,9.978070259E-1,2.751746029E-2,1.251147175E1
7.219338540E0,5.365904570E-1,-5.982056609E-4,1.210170078E1
7.239449895E0,2.129612118E-1,2.853440940E-1,1.062173939E1
7.259561249E0,2.727817893E-1,6.807580590E-1,8.945567131E0
7.279672655E0,4.779663086E-1,8.141579032E-1,7.594819069E0
7.299784009E0,8.392825127E-1,7.441678643E-1,7.351349354E0
7.319895363E0,6.891329288E-1,7.806583643E-1,7.567899704E0
7.340006717E0,1.495514214E-1,8.847461939E-1,7.271788120E0
7.360118072E0,-1.567298770E-1,1.083350420E0,6.511468410E0
7.380229478E0,-2.410768867E-1,1.307677627E0,5.723631859E0
7.400340832E0,1.645065546E-1,1.402194023E0,6.119643688E0
7.420452186E0,1.758724600E-1,1.637288928E0,6.812366009E0
7.440563540E0,-3.008974493E-1,1.715653777E0,6.892525673E0
7.460674947E0,-6.346961856E-1,1.762313843E0,7.221538544E0
7.480786301E0,-5.766702294E-1,2.105085611E0,7.587640762E0
7.500897655E0,-7.836493850E-2,2.330609322E0,7.482356548E0
7.521009009E0,1.034895778E-1,2.516052961E0,7.645666599E0
7.541120363E0,-1.920240223E-1,2.609971285E0,8.214560509E0
7.561231770E0,-5.802595019E-1,2.540579557E0,8.814560890E0
7.581343124E0,-9.266205430E-1,2.545963287E0,9.531808853E0
7.601454478E0,-9.900303483E-1,2.402992249E0,1.051107121E1
7.621565832E0,-7.172485590E-1,2.158325911E0,1.156152058E1
7.641677186E0,-3.260220885E-1,2.284547329E0,1.210170078E1
7.661788592E0,-3.002992272E-1,2.590828657E0,1.158185959E1
7.681899947E0,-1.052243710E0,2.845664263E0,1.098485088E1
7.702011301E0,-1.830509305E0,2.931207657E0,1.133480072E1
7.722122655E0,-2.297109842E0,2.875574589E0,1.238704491E1
7.742234009E0,-2.194218397E0,2.359921217E0,1.323829174E1
7.762345363E0,-9.672985673E-1,1.670190215E0,1.418345642E1
7.782456770E0,-1.704886109E-1,1.497906923E0,1.502991676E1
7.802568124E0,-5.599204898E-1,1.202991605E0,1.420439339E1
7.822679478E0,-1.469193101E0,1.235892892E0,1.221296692E1
7.842790832E0,-1.816152334E0,1.573879123E0,1.078923702E1
7.862902186E0,-1.965105653E0,1.732403636E0,9.600603104E0
7.883013592E0,-1.728216171E0,1.548156261E0,9.641879082E0
7.903124947E0,-1.313061476E0,1.205982566E0,1.036451149E1
7.923236301E0,-9.768698215E-1,9.176474810E-1,1.008694363E1
7.943347655E0,-6.568298340E-1,7.142575383E-1,9.279366493E0
7.963459009E0,-2.069791555E-1,6.957131624E-1,8.982656479E0
7.983570363E0,-2.440679073E-1,8.303094506E-1,8.592027664E0
8.003681770E0,-5.060819983E-1,9.278169870E-1,7.725826263E0
8.023793124E0,-7.070791125E-1,1.095314622E0,6.635895252E0
8.043904478E0,-7.411768436E-1,1.260419369E0,5.694917679E0
8.064015832E0,-4.504488707E-1,1.427318692E0,5.388038158E0
8.084127186E0,-3.164508045E-1,1.741376638E0,5.545366287E0
8.104238540E0,-5.706881881E-1,2.066202402E0,5.445466042E0
8.124349895E0,-7.034898400E-1,2.133201361E0,5.548357487E0
8.144461301E0,-7.441678643E-1,2.153540373E0,6.389434814E0
8.164572655E0,-8.207381964E-1,2.338984251E0,7.240083218E0
8.184684009E0,-8.614161611E-1,2.575275421E0,7.919644833E0
8.204795363E0,-8.009973764E-1,2.678765059E0,8.626724243E0
8.224906717E0,-5.772684813E-1,2.652443886E0,9.291330338E0
8.245018072E0,-2.979064286E-1,2.638685226E0,1.002831936E1
8.265129426E0,-1.304088384E-1,2.675175667E0,1.094357395E1
8.285240780E0,-2.823530734E-1,2.719442844E0,1.149212933E1
8.305352134E0,-3.996013701E-1,2.669791937E0,1.186481094E1
8.325463540E0,-3.206382394E-1,2.535195589E0,1.244865990E1
8.345574895E0,2.392822690E-2,2.440080881E0,1.310010624E1
8.365686249E0,4.229314029E-1,2.313261271E0,1.347159195E1
8.385797603E0,6.496513486E-1,2.316252232E0,1.299302673E1
8.405908957E0,8.889335990E-1,2.368296146E0,1.207358456E1
8.426020311E0,1.378265858E0,2.177468538E0,1.185763264E1
8.446131665E0,1.957927108E0,1.500898004E0,1.262632656E1
8.466243020E0,2.388036966E0,8.847461939E-1,1.343928814E1
8.486354426E0,1.814357758E0,9.140582681E-1,1.323589802E1
8.506465780E0,5.838487148E-1,1.156929731E0,1.198923779E1
8.526577134E0,8.494520187E-2,1.325623751E0,1.094237804E1
8.546688488E0,1.776670814E-1,1.458425403E0,1.016471100E1
8.566799842E0,8.189435601E-1,1.411167145E0,9.885348320E0
8.586911197E0,1.364507079E0,1.372882009E0,1.000080204E1
8.607022551E0,1.156331539E0,1.406979680E0,9.561120987E0
8.627133905E0,7.345965505E-1,1.438684583E0,8.736793518E0
8.647245259E0,4.277170599E-1,1.508674622E0,7.858029366E0
8.667356613E0,2.656033039E-1,1.599601984E0,6.918248653E0
8.687467967E0,1.118644550E-1,1.741376638E0,5.961119175E0
8.707579374E0,8.554340899E-2,1.822134495E0,5.434698582E0
8.727690728E0,3.607180119E-1,1.807179332E0,5.848656654E0
8.747802082E0,4.037888348E-1,1.902294040E0,6.748358250E0
8.767913436E0,-1.465603858E-1,2.084746838E0,7.150352478E0
8.788024790E0,-4.151547253E-1,2.045265198E0,7.339385033E0
8.808136145E0,-1.836491376E-1,1.919043779E0,8.022536278E0
8.828247499E0,-3.050848842E-2,1.921436548E0,8.925827026E0
8.848358853E0,-1.764706671E-1,2.058425665E0,8.922237396E0
8.868470207E0,-5.120640397E-1,2.252842426E0,7.995018482E0
8.888581561E0,-5.545366406E-1,2.483749866E0,7.563712597E0
8.908692915E0,-3.050848842E-1,2.647060156E0,7.755736351E0
8.928804270E0,9.032905847E-2,2.754737139E0,8.379665375E0
8.948915624E0,2.231307179E-1,2.678166628E0,9.265607834E0
8.969026978E0,7.776673883E-2,2.602194548E0,1.038724327E1
8.989138332E0,1.405783296E-1,2.695514679E0,1.146879864E1
9.009249738E0,2.889333367E-1,2.855235577E0,1.168355465E1
9.029361040E0,1.435693540E-2,2.950350285E0,1.143290615E1
9.049472447E0,-6.681957245E-1,2.938984394E0,1.180140114E1
9.069583801E0,-1.124028444E0,3.111267567E0,1.233918858E1
9.089695155E0,-1.165902853E0,3.346362352E0,1.211904812E1
9.109806509E0,-7.477570772E-1,3.244667530E0,1.212742329E1
9.129917863E0,2.494517565E-1,2.555534601E0,1.334656620E1
9.150029217E0,7.645068169E-1,1.765903115E0,1.512443352E1
9.170140572E0,2.560320199E-1,1.164108157E0,1.605763435E1
9.190251926E0,-9.391828775E-1,1.069591761E0,1.442453289E1
9.210363280E0,-1.457827210E0,1.484746456E0,1.154237843E1
9.230474634E0,-1.338186026E0,1.845464468E0,9.431310654E0
9.250585988E0,-8.386843204E-1,1.789233088E0,8.472985268E0
9.270697342E0,-2.350948304E-1,1.360319614E0,8.599804878E0
9.290808697E0,-1.088734269E-1,9.613165259E-1,8.871988297E0
9.310920051E0,-3.649054468E-1,7.160521746E-1,8.707481384E0
9.331031405E0,-6.610172391E-1,7.543373108E-1,8.193024635E0
9.351142759E0,-7.603194118E-1,9.278169870E-1,7.528418064E0
9.371254113E0,-6.705885530E-1,1.058824062E0,6.817749977E0
9.391365467E0,-5.635097623E-1,1.254437327E0,6.319444656E0
9.411476822E0,-3.906283081E-1,1.460818172E0,6.145965099E0
9.431588176E0,-4.917250574E-1,1.816750646E0,6.142375946E0
9.451699530E0,-5.090730190E-1,2.041077614E0,6.236892223E0
9.471810884E0,-3.595215976E-1,2.022533417E0,6.502495766E0
9.491922238E0,-2.051845491E-1,2.029113531E0,7.228717327E0
9.512033592E0,-1.663011760E-1,2.132004976E0,7.782655716E0
9.532144947E0,-2.434697002E-1,2.340180635E0,7.735397339E0
9.552256301E0,-4.319044948E-1,2.655434847E0,7.379465103E0
9.572367655E0,-4.205385745E-1,2.786442041E0,7.505686283E0
9.592479009E0,-1.890329868E-1,2.733201742E0,8.429315567E0
9.612590363E0,8.913264424E-2,2.677568436E0,9.548559189E0
9.632701717E0,1.627119333E-1,2.570489645E0,1.072582722E1
9.652813072E0,1.651047617E-1,2.437089920E0,1.163270760E1
9.672924426E0,7.298108935E-2,2.387438774E0,1.252582836E1
9.693035780E0,1.226321608E-1,2.279163599E0,1.335434341E1
9.713147134E0,1.686939895E-1,2.246262312E0,1.391545963E1
9.733258488E0,2.303091735E-1,2.382653236E0,1.378146172E1
9.753369842E0,5.461617708E-1,2.279163599E0,1.357926846E1
9.773481197E0,8.309076428E-1,2.204387903E0,1.406441307E1
9.793592551E0,1.125823021E0,1.969292998E0,1.428335667E1
9.813703905E0,1.373480201E0,1.639681697E0,1.397109318E1
9.833815207E0,1.448255897E0,1.582852125E0,1.287398434E1
9.853926561E0,1.658226132E0,1.470389485E0,1.148495007E1
9.874037915E0,1.710868239E0,1.409372568E0,1.055952644E1
9.894149270E0,1.399801254E0,1.421934843E0,1.018744278E1
9.914260624E0,1.094118118E0,1.363310695E0,1.008574772E1
9.934371978E0,1.065404296E0,1.194616675E0,9.855438232E0
9.954483332E0,1.387837172E0,9.056833982E-1,9.403793335E0
9.974594686E0,1.546361685E0,8.081758618E-1,9.161520004E0
9.994706040E0,1.113260746E0,1.006181955E0,8.415556908E0
1.001481740E1,6.472585201E-1,1.302293777E0,7.237092018E0
1.003492875E1,2.602194548E-1,1.566102386E0,6.025127411E0
1.005504010E1,2.255235314E-1,1.640878081E0,5.201996326E0
1.007515146E1,4.917250574E-1,1.654636860E0,5.095515728E0
1.009526281E1,5.090730190E-1,1.807179332E0,5.470590591E0
1.011537416E1,2.590230405E-1,1.946561217E0,5.677569866E0
1.013548552E1,3.948157281E-2,2.095514536E0,5.729015827E0
1.015559687E1,5.324030295E-2,2.252842426E0,6.116054535E0
1.017570818E1,2.745763958E-1,2.370090723E0,6.683153629E0
1.019581953E1,3.780659735E-1,2.547159672E0,7.099504948E0
1.021593088E1,2.871387303E-1,2.834298372E0,7.259823799E0
1.023604224E1,2.877369225E-1,3.007778168E0,7.535596848E0
1.025615359E1,5.700899959E-1,2.922832966E0,8.273782730E0
1.027626495E1,7.866404653E-1,2.662015200E0,9.601201057E0
1.029637630E1,7.357929349E-1,2.432304144E0,1.098425198E1
1.031648766E1,3.391826153E-1,2.392224550E0,1.173858929E1
1.033659901E1,-7.178468257E-2,2.482553482E0,1.202513027E1
1.035671036E1,-2.673979402E-1,2.619542599E0,1.214118195E1
1.037682172E1,-2.673979402E-1,2.786442041E0,1.226859951E1
1.039693302E1,-3.972085714E-1,2.964707375E0,1.246062374E1
1.041704437E1,-5.892325640E-1,2.898904562E0,1.278544998E1
1.043715573E1,-5.324030519E-1,2.575275421E0,1.327657604E1
1.045726708E1,-6.017948985E-1,2.271985054E0,1.383230972E1
1.047737844E1,-5.635097623E-1,1.891526341E0,1.429173183E1
1.049748979E1,-3.511467278E-1,1.351346612E0,1.464347649E1
1.051760114E1,-2.075773627E-1,8.464609981E-1,1.495274830E1
1.053771250E1,-6.520441771E-1,7.178468108E-1,1.466321754E1
1.055782385E1,-1.326221943E0,9.230313301E-1,1.299183083E1
1.057793516E1,-1.328016520E0,1.122233868E0,1.131924725E1
1.059804651E1,-9.086744189E-1,1.207179070E0,1.029033375E1
1.061815786E1,-5.264210105E-1,1.093519926E0,9.690931320E0
1.063826922E1,-4.648058116E-1,9.481559992E-1,9.238688469E0
1.065838057E1,-5.910272002E-1,9.200403094E-1,8.745766640E0
1.067849193E1,-7.555337548E-1,9.690931439E-1,8.094919205E0
1.069860328E1,-7.914260626E-1,9.655039310E-1,7.478168964E0
1.071871458E1,-5.766702294E-1,9.708877802E-1,6.921239376E0
1.073882594E1,-2.883351147E-1,9.888339639E-1,6.519843578E0
1.075893729E1,-5.982056726E-3,1.110269666E0,6.109474182E0
1.077904865E1,1.328016520E-1,1.221535921E0,5.624329567E0
1.079916000E1,-4.187439568E-3,1.352542996E0,5.282754421E0
1.081927135E1,-2.859423161E-1,1.484746456E0,5.173282623E0
1.083938266E1,-3.762713671E-1,1.660020709E0,5.392225742E0
1.085949401E1,-4.019941986E-1,2.047657967E0,5.673980713E0
1.087960536E1,-4.384847581E-1,2.394019127E0,5.796612740E0
1.089971672E1,-5.162515044E-1,2.691327333E0,6.121438503E0
1.091982807E1,-5.204389095E-1,2.816352367E0,7.174878597E0
1.093993943E1,-2.380858511E-1,2.783450842E0,8.502895355E0
1.096005078E1,-1.172483116E-1,2.826521635E0,9.276973724E0
1.098016208E1,-2.285145670E-1,2.847458839E0,9.588638306E0
1.100027344E1,-3.248256743E-1,2.670390129E0,1.020299530E1
1.102038479E1,-1.058823988E-1,2.363510609E0,1.187438202E1
1.104049614E1,1.076770201E-1,1.913659930E0,1.434736443E1
1.106060750E1,-1.136590764E-1,1.864008784E0,1.565743542E1
1.108071885E1,-4.923232496E-1,2.444268227E0,1.422592926E1
1.110083016E1,3.086741269E-1,2.755933523E0,1.238405323E1
1.112094151E1,1.428515077E0,2.877369165E0,1.159561825E1
1.114105286E1,1.878365755E0,2.717050076E0,1.174875927E1
1.116116422E1,1.448255897E0,2.228316069E0,1.246780205E1
1.118127557E1,1.249651670E0,1.412961721E0,1.366062450E1
1.120138687E1,1.298704505E0,7.680960894E-1,1.471585941E1
1.122149823E1,1.136590719E0,6.095715761E-1,1.461416435E1
1.124160958E1,5.306084156E-1,1.168295622E0,1.225065327E1
1.126172094E1,2.081755698E-1,1.790429592E0,9.745368004E0
1.128183229E1,6.843472719E-1,1.866401672E0,8.306085587E0
1.130194359E1,1.520040631E0,1.737787485E0,8.504690170E0
1.132205495E1,1.578664780E0,1.657029629E0,9.377471924E0
1.134216630E1,8.135597110E-1,1.412961721E0,8.980263710E0
1.136227766E1,4.504488707E-1,1.225125194E0,8.179863930E0
1.138238901E1,2.883351147E-1,1.278365493E0,7.619345665E0
1.140250031E1,5.294120312E-1,1.329213023E0,7.544569969E0
1.142261167E1,6.263213158E-1,1.487737536E0,7.905287743E0
1.144272302E1,1.884347796E-1,1.621735573E0,7.478168964E0
1.146283437E1,-5.264209956E-2,1.648654819E0,7.118049145E0
1.148294573E1,-1.016949639E-1,1.832303882E0,7.310073376E0
1.150305703E1,-1.734796464E-1,2.121237278E0,7.098308563E0
1.152316838E1,-1.710868180E-1,2.296511650E0,6.568298340E0
1.154327974E1,-2.063809484E-1,2.483749866E0,6.337988853E0
1.156339109E1,-1.363908947E-1,2.714657307E0,6.445067883E0
1.158350240E1,-2.991028316E-2,2.806182861E0,6.734001160E0
1.160361375E1,4.247260094E-2,2.785843849E0,7.180860519E0
1.162372510E1,2.512463741E-2,2.703291416E0,7.907680511E0
1.164383646E1,-1.854437590E-2,2.740380049E0,8.642875671E0
1.166394776E1,-1.914258115E-2,2.898306370E0,9.218349457E0
1.168405911E1,9.332008660E-2,3.057429075E0,9.814162254E0
1.170417047E1,2.416750938E-1,3.176471949E0,1.075633621E1
1.172428182E1,3.505485058E-1,3.210569859E0,1.149571800E1
1.174439318E1,1.663011760E-1,3.217748165E0,1.186241817E1
1.176450448E1,-2.697907388E-1,3.333800077E0,1.234397411E1
1.178461583E1,-8.009973764E-1,3.396013498E0,1.284885979E1
1.180472719E1,-9.068797827E-1,3.144767046E0,1.319821167E1
1.182483849E1,-3.068794906E-1,2.671586514E0,1.345005608E1
1.184494984E1,1.118644550E-1,2.006979942E0,1.412184143E1
1.186506120E1,-2.841476798E-1,1.477568030E0,1.470987701E1
1.188517255E1,-1.168295622E0,1.249053478E0,1.416670609E1
1.190528385E1,-1.630110383E0,1.495514154E0,1.236550903E1
1.192539521E1,-1.637887120E0,1.968096614E0,1.052423191E1
1.194550656E1,-9.810572863E-1,1.941177368E0,9.583254814E0
1.196561786E1,-1.022931710E-1,1.768894196E0,9.903892517E0
1.198572922E1,-1.902294010E-1,1.546959877E0,1.045364380E1
1.200584057E1,-7.190431952E-1,1.160519004E0,1.037109184E1
1.202595193E1,-7.591229677E-1,8.949156404E-1,9.836894035E0
1.204606323E1,-4.325026870E-1,9.427721500E-1,8.965906143E0
1.206617458E1,-2.201396823E-1,1.110867858E0,7.853842258E0
1.208628594E1,-3.678964674E-1,1.255633712E0,6.801000118E0
1.210639724E1,-5.449653864E-1,1.312463164E0,6.037091732E0
1.212650859E1,-6.963114142E-1,1.290927768E0,5.770890236E0
1.214661995E1,-6.993024349E-1,1.246660590E0,6.133402824E0
1.216673130E1,-4.217349887E-1,1.272981644E0,6.957729816E0
1.218684260E1,-2.721835673E-1,1.555932879E0,7.135396957E0
1.220695396E1,-3.056831062E-1,1.968694806E0,6.403791428E0
1.222706531E1,-4.582255483E-1,2.218744755E0,6.049654007E0
1.224717661E1,-5.599204898E-1,2.232503414E0,6.935596466E0
1.226728797E1,-7.615157962E-1,2.349153519E0,7.788637638E0
1.228739932E1,-8.602197170E-1,2.570489645E0,7.971090317E0
1.230751062E1,-6.299105883E-1,2.669193745E0,8.040482521E0
1.232762198E1,-2.961117923E-1,2.692523718E0,8.516056061E0
1.234773333E1,-2.614158690E-1,2.720639229E0,9.333803177E0
1.236784463E1,-4.157529473E-1,2.775674343E0,9.959526062E0
1.238795599E1,-8.883354068E-1,2.874378204E0,1.026700401E1
1.240806734E1,-1.083948612E0,2.827718258E0,1.087837029E1
1.242817865E1,-8.093722463E-1,2.604587555E0,1.183609676E1
1.244829000E1,-3.373879790E-1,2.492124796E0,1.293859005E1
1.246840135E1,-2.159522474E-1,2.752344131E0,1.357149220E1
1.248851266E1,3.948157281E-2,2.846860647E0,1.313181114E1
1.250862401E1,5.024927258E-1,2.740380049E0,1.249232864E1
1.252873536E1,5.431707501E-1,2.697907448E0,1.257847023E1
1.254884667E1,5.748756528E-1,2.297109842E0,1.292542934E1
1.256895802E1,8.859425783E-1,1.843071699E0,1.286501122E1
1.258906937E1,1.392024517E0,1.444068432E0,1.292602825E1
1.260918068E1,1.593021631E0,1.186840057E0,1.320479202E1
1.262929203E1,1.314856052E0,1.269990563E0,1.285005569E1
1.264940338E1,7.256234884E-1,1.596012712E0,1.137428284E1
1.266951469E1,5.856433511E-1,1.750947952E0,1.005703354E1
1.268962604E1,9.188438654E-1,1.728814363E0,9.419346809E0
1.270973740E1,1.205384374E0,1.666600943E0,9.468997002E0
1.272984870E1,1.124626637E0,1.494317770E0,9.343972206E0
1.274996005E1,7.782655358E-1,1.405783296E0,8.702695847E0
1.277007135E1,5.054838061E-1,1.443470240E0,8.025527000E0
1.279018271E1,2.733799815E-1,1.586441398E0,7.258029461E0
1.281029406E1,1.764706671E-1,1.637887120E0,6.506682873E0
1.283040536E1,2.500499785E-1,1.660618901E0,5.971288681E0
1.285051672E1,5.545366406E-1,1.731805444E0,5.919843197E0
1.287062807E1,4.594219327E-1,1.901695848E0,5.871986866E0
1.289073937E1,-4.486542568E-2,2.032702923E0,5.770890236E0
1.291085073E1,-4.588237405E-1,2.186441660E0,5.968895912E0
1.293096203E1,-6.011967063E-1,2.386242390E0,6.594020844E0
1.295107338E1,-8.793623000E-2,2.508874655E0,7.509275436E0
1.297118474E1,3.942175210E-1,2.760719061E0,7.947760582E0
1.299129604E1,7.621139884E-1,2.853441000E0,8.072785378E0
1.301140740E1,8.362914920E-1,2.838485956E0,8.435895920E0
1.303151870E1,4.737788737E-1,2.886342287E0,8.965308189E0
1.305163005E1,1.728814393E-1,2.843271494E0,9.174081802E0
1.307174141E1,-5.084748194E-2,2.792423964E0,9.242876053E0
1.309185271E1,-3.469592705E-2,2.793620348E0,9.788438797E0
1.311196406E1,-1.076770201E-2,2.740380049E0,1.059123135E1
1.313207536E1,6.161518395E-2,2.666202545E0,1.142393398E1
1.315218672E1,1.100698411E-1,2.727219582E0,1.189591789E1
1.317229807E1,2.129612118E-1,2.819343328E0,1.185643578E1
1.319240937E1,2.333002090E-1,2.966501951E0,1.176491070E1
1.321252073E1,-9.571290761E-2,3.066402197E0,1.172662544E1
1.323263203E1,-5.312066078E-1,2.764906645E0,1.188694477E1
1.325274338E1,-9.541380405E-1,2.337189436E0,1.271545982E1
1.327285469E1,-1.077368379E0,1.900499344E0,1.374616814E1
1.329296604E1,-3.708875179E-1,1.314856052E0,1.436052513E1
1.331307734E1,2.757728100E-1,9.583254457E-1,1.463091373E1
1.333318870E1,1.208375469E-1,7.112665176E-1,1.439402485E1
1.335330005E1,-5.838487148E-1,6.604190469E-1,1.336451244E1
1.337341135E1,-1.111466169E0,9.152546525E-1,1.179601765E1
1.339352271E1,-1.287338614E0,1.204786181E0,1.015334511E1
1.341363401E1,-1.109671474E0,1.161715388E0,9.090931892E0
1.343374536E1,-2.650051117E-1,8.733802438E-1,9.332008362E0
1.345385666E1,1.896311939E-1,6.843472719E-1,9.861420631E0
1.347396802E1,-6.520441920E-2,5.539384484E-1,9.588040352E0
1.349407937E1,-3.403790295E-1,5.712863803E-1,8.710473061E0
1.351419068E1,-4.139583111E-1,7.674978375E-1,7.786244869E0
1.353430203E1,-4.187439680E-1,9.044869542E-1,6.912864685E0
1.355441333E1,-3.906283081E-1,9.924231768E-1,6.379265308E0
1.357452469E1,-2.787638307E-1,1.185045362E0,6.131010056E0
1.359463599E1,-1.698904037E-1,1.370489120E0,5.928217888E0
1.361474734E1,-2.279163599E-1,1.535593987E0,5.842674732E0
1.363485865E1,-3.152543902E-1,1.829911113E0,6.070590973E0
1.365497000E1,-3.936193287E-1,2.242672920E0,6.314659119E0
1.367508130E1,-3.403790295E-1,2.454437733E0,6.627520561E0
1.369519266E1,-1.106680483E-1,2.437089920E0,7.629515171E0
1.371530396E1,2.787638307E-1,2.452044964E0,8.905488014E0
1.373541531E1,4.169493318E-1,2.647658348E0,9.608379364E0
1.375552661E1,8.913264424E-2,2.754737139E0,9.358927727E0
1.377563797E1,-1.411765367E-1,2.846860647E0,8.871988297E0
1.379574927E1,3.469592705E-2,2.996412039E0,9.093324661E0
1.381586062E1,3.278166950E-1,3.128615618E0,9.845867157E0
1.383597193E1,3.804588020E-1,3.166900873E0,9.990633011E0
1.385608328E1,3.936193287E-1,3.107678413E0,9.656833649E0
1.387619458E1,4.229314029E-1,3.039483070E0,9.895518303E0
1.389630594E1,4.121637046E-1,2.810370207E0,1.110568810E1
1.391641724E1,6.526423693E-1,2.679961443E0,1.217408371E1
1.393652859E1,9.690931439E-1,3.055036306E0,1.267837048E1
1.395663990E1,7.836494446E-1,3.476771355E0,1.149811077E1
1.397675125E1,2.159522533E0,2.458027124E0,1.079581738E1
1.399686255E1,3.038884699E-1,3.448057413E0,1.223928738E1
1.401697390E1,1.764706671E-1,2.548356056E0,1.198923779E1
1.403708521E1,3.541377485E-1,1.992623091E0,1.130489063E1
1.405719656E1,1.022333503E0,2.367697954E0,1.179541969E1
1.407730786E1,1.506880045E0,1.668993831E0,1.222074318E1
1.409741922E1,1.448255897E0,1.214955688E0,1.294457245E1
1.411753052E1,1.236491084E0,1.345962763E0,1.206820107E1
1.413764187E1,6.215356588E-1,1.492523074E0,9.856036186E0
1.415775318E1,1.722832322E-1,1.561915040E0,9.271589279E0
1.417786453E1,7.357929349E-1,1.506281853E0,7.526025295E0
1.419797583E1,1.436291814E0,9.248259664E-1,9.489934921E0
1.421808719E1,5.892325640E-1,7.513462901E-1,1.166979599E1
1.423819849E1,-5.264209956E-2,1.144367456E0,1.076770210E1
1.425830984E1,3.942175210E-1,1.289133191E0,1.035972595E1
1.427842115E1,3.996013701E-1,1.129412293E0,8.222934723E0
1.431070980E1,9.152546525E-2,3.247060299E0,8.758927345E0
1.433082099E1,-3.050848842E-2,3.163311481E0,9.044271469E0
1.435093219E1,-1.316052489E-2,3.062813044E0,9.409774780E0
1.437104339E1,-6.759724021E-2,3.123830080E0,9.458230019E0
1.439115454E1,-6.939185411E-2,3.075375319E0,9.079565048E0
1.441126573E1,1.561316848E-1,2.910868645E0,9.002995491E0
1.443137693E1,7.621139884E-1,2.890529871E0,9.946963310E0
1.445148813E1,1.734796353E-2,3.157927752E0,1.004626560E1
1.447159927E1,-1.351944804E-1,2.857030153E0,9.418149948E0
1.449171047E1,-3.828516230E-2,3.011367321E0,9.257830620E0
1.451182167E1,2.093719840E-1,3.103491068E0,9.117850304E0
1.453193282E1,1.004985496E-1,3.131606579E0,9.043673515E0
1.455204401E1,-8.075776696E-2,3.135794163E0,9.270991325E0
1.457215521E1,-1.980060786E-1,3.095116138E0,9.492925644E0
1.459226641E1,-1.914258152E-1,3.111865759E0,9.571888924E0
1.461237756E1,-1.627119333E-1,3.152543783E0,9.513264656E0
1.463248875E1,-1.387837082E-1,3.205185890E0,9.448060036E0
1.465259995E1,-4.486542568E-2,3.220141172E0,9.487542152E0
1.467271110E1,4.067798331E-2,3.241078377E0,9.717252731E0
1.469282230E1,1.082752272E-1,3.180061340E0,9.802796364E0
1.471293349E1,1.842473447E-1,3.138186932E0,9.673583984E0
1.473304469E1,7.477571070E-2,3.208775282E0,9.591031075E0
1.475315584E1,-7.417750359E-2,3.324228764E0,9.738189697E0
1.477326704E1,-5.084748194E-2,3.261417150E0,1.002293587E1
1.479337818E1,2.362912297E-1,3.077768087E0,1.041954613E1
1.481348938E1,5.395814776E-1,3.009572744E0,1.105244732E1
1.483360058E1,4.019941986E-1,3.162115097E0,1.135753250E1
1.485371172E1,-7.417750359E-2,3.357130051E0,1.071924686E1
1.487382292E1,-1.208375469E-1,3.466003656E0,1.015573788E1
1.489393412E1,3.409772366E-2,3.600599766E0,1.032323551E1
1.491404526E1,-1.728814393E-1,3.658625841E0,1.061157036E1
1.493415646E1,-4.857429862E-1,3.676572084E0,1.077607632E1
1.495426766E1,-6.005984545E-1,3.652643681E0,1.076590729E1
1.497437881E1,-2.273181528E-1,3.471985579E0,1.107398319E1
1.499449000E1,3.601198196E-1,3.193820000E0,1.230209923E1
1.501460120E1,5.778666735E-1,2.676970243E0,1.389153194E1
1.503471235E1,4.779663086E-1,2.187039852E0,1.471585941E1
1.505482355E1,1.310070455E-1,1.963310957E0,1.360439301E1
1.507493469E1,-2.566302419E-1,2.191227436E0,1.166860008E1
1.509504589E1,-6.550351977E-1,2.358724833E0,1.052483082E1
1.511515709E1,-8.309076428E-1,2.127817631E0,1.044108200E1
1.513526823E1,-7.357929349E-1,1.801197290E0,1.065583706E1
1.515537943E1,-3.840480447E-1,1.481755376E0,1.046560764E1
1.517549058E1,-7.058826834E-2,1.242473125E0,9.921838760E0
1.519560177E1,-2.697907388E-1,1.290927768E0,9.434899330E0
1.521571292E1,-7.369893789E-1,1.395613790E0,8.833703041E0
1.523582412E1,-1.314856052E0,1.540977836E0,8.003992081E0
1.525593532E1,-1.750349760E0,1.679163337E0,7.170691490E0
1.527604646E1,-1.975873351E0,1.686939955E0,6.655636311E0
1.529615766E1,-1.760519266E0,1.574477315E0,6.904489517E0
1.531626881E1,-1.143769264E0,1.395613790E0,7.584051132E0
1.533638000E1,-5.892325640E-1,1.347159147E0,7.690532207E0
1.535649115E1,-4.570291340E-1,1.279561877E0,7.054041386E0
1.537660235E1,-3.942175210E-1,1.126421213E0,6.611967087E0
1.539671349E1,-4.462614357E-1,1.023529887E0,6.579065800E0
1.541682469E1,-6.759724021E-1,1.081555843E0,6.912864685E0
1.543693584E1,-9.529415965E-1,1.238285661E0,7.192226887E0
1.545704704E1,-7.794619799E-1,1.518844128E0,7.670791149E0
1.547715818E1,-2.087737769E-1,1.884945989E0,8.291728973E0
1.549726938E1,1.543370634E-1,2.316850424E0,8.989834785E0
1.551738052E1,6.460621208E-2,2.703889608E0,9.368498802E0
1.553749172E1,-3.888336942E-2,2.611765862E0,9.501898766E0
1.555760287E1,8.374879137E-3,2.314457655E0,1.050808048E1
1.557771407E1,1.022931710E-1,2.117648125E0,1.209452248E1
1.559782521E1,8.434699476E-2,1.945963025E0,1.322752380E1
1.561793641E1,-1.824527234E-1,1.877169371E0,1.365643692E1
1.563804756E1,-3.349951804E-1,2.298306227E0,1.295234871E1
1.565815875E1,-3.164508045E-1,2.831307411E0,1.137488079E1
1.567826990E1,-7.298108935E-2,2.785245657E0,1.068634605E1
1.569838105E1,6.598208547E-1,2.021935225E0,1.249113274E1
1.571849224E1,1.185643673E0,1.176670551E0,1.481516171E1
1.573860339E1,1.429113269E0,5.138586760E-1,1.532244015E1
1.575871459E1,1.369890928E0,5.862415433E-1,1.381077385E1
1.577882573E1,1.094716311E0,1.177866936E0,1.176371479E1
1.579893693E1,7.998009920E-1,1.582253933E0,1.001755238E1
1.581904808E1,6.963114142E-1,1.615155339E0,9.224929810E0
1.583915922E1,9.218349457E-1,1.411167145E0,9.534799576E0
1.585927042E1,1.080359459E0,1.298106313E0,9.853045464E0
1.587938157E1,1.008574724E0,1.219741344E0,9.261420250E0
1.589949276E1,1.211366415E0,1.076770186E0,8.856434822E0
1.591960391E1,1.393221021E0,1.042074203E0,8.815158844E0
1.593971511E1,9.924231768E-1,1.152742267E0,8.380263329E0
1.595982625E1,3.876372576E-1,1.225723386E0,7.736593723E0
1.597993740E1,3.888336942E-2,1.347757339E0,6.973881721E0
1.600004860E1,-1.076770201E-2,1.499701619E0,6.315257072E0
1.602015974E1,2.141576260E-1,1.537388563E0,5.979663849E0
1.604027089E1,3.810569942E-1,1.527219057E0,6.405586243E0
1.606038209E1,3.900300860E-1,1.338186026E0,7.091129780E0
1.608049323E1,3.254238665E-1,1.229910851E0,7.488936901E0
1.610060438E1,1.920240223E-1,1.381855130E0,7.481160164E0
1.612071558E1,1.328016520E-1,1.658226132E0,7.146762848E0
1.614082672E1,7.118647546E-2,1.991426587E0,6.936792850E0
1.616093792E1,2.997010350E-1,2.291127682E0,7.106683254E0
1.618104907E1,4.677968323E-1,2.438286304E0,7.366902828E0
1.620116021E1,7.016952634E-1,2.538186550E0,7.973483086E0
1.622127141E1,9.954141974E-1,2.710469961E0,9.078369141E0
1.624138256E1,1.030708313E0,2.711068153E0,1.043091202E1
1.626149370E1,8.560323119E-1,2.749951363E0,1.087956619E1
1.628160485E1,5.449653864E-1,2.886342287E0,1.035553837E1
1.630171605E1,4.420739710E-1,3.032902718E0,1.023410225E1
1.632182719E1,6.664010882E-1,3.005983353E0,1.107876873E1
1.634193834E1,9.164510965E-1,2.696112871E0,1.200299644E1
1.636204954E1,9.134600163E-1,2.652443886E0,1.293021584E1
1.638216068E1,4.839483798E-1,2.860619545E0,1.299541950E1
1.640227183E1,3.529413342E-1,2.855833769E0,1.247856998E1
1.642238297E1,4.989035130E-1,2.848655462E0,1.228056431E1
1.644249417E1,4.450650215E-1,2.508276224E0,1.260718441E1
1.646260532E1,3.086741269E-1,1.892124534E0,1.308096313E1
1.648271646E1,4.905286431E-2,1.610967875E0,1.288953781E1
1.650282761E1,-3.547359705E-1,1.640279889E0,1.197428226E1
1.652293881E1,-7.878368497E-1,1.594218135E0,1.116550827E1
1.654304995E1,-7.543373108E-1,1.086939692E0,1.124925709E1
1.656316110E1,-4.450650215E-1,3.966103494E-1,1.190847969E1
1.658327230E1,-5.599204898E-1,1.202393398E-1,1.213400364E1
1.660338344E1,-8.033902049E-1,2.380858511E-1,1.139521980E1
1.662349459E1,-6.574280262E-1,6.658028960E-1,1.009950638E1
1.664360573E1,-3.140579760E-1,1.139581800E0,8.863015175E0
1.666371693E1,-1.579262912E-1,1.363310695E0,7.785646915E0
1.668382808E1,-9.750752151E-2,1.384846091E0,7.354340553E0
1.670393922E1,-1.663011760E-1,1.482951880E0,7.245467186E0
1.672405037E1,-3.361915946E-1,1.633101463E0,6.822535515E0
1.674416151E1,-3.978067636E-1,1.694716692E0,6.382854462E0
1.676427271E1,-3.385843933E-1,1.817348838E0,6.518048763E0
1.678438386E1,-2.177468538E-1,1.846062660E0,6.897311211E0
1.680449500E1,-4.127619043E-2,1.801795483E0,7.165307522E0
1.682460615E1,7.597211748E-2,1.802991867E0,7.221538544E0
1.684471730E1,1.016949639E-1,1.822732687E0,7.363313675E0
1.686482849E1,-4.666004330E-2,1.935195327E0,7.740781307E0
1.688493964E1,-2.560320199E-1,2.129014015E0,8.001599312E0
1.690505078E1,-2.506481707E-1,2.375474691E0,8.122436523E0
1.692516193E1,7.657032460E-2,2.593221426E0,8.060821533E0
1.694527308E1,5.724828243E-1,2.715255499E0,8.353941917E0
1.696538422E1,7.262216806E-1,2.821736097E0,8.772686005E0
1.698549537E1,4.749752879E-1,2.847458839E0,9.084949493E0
1.700560657E1,5.922235921E-2,2.830709219E0,9.407979965E0
1.702571771E1,-1.250249892E-1,2.868396044E0,9.868598938E0
1.704582886E1,-7.298108935E-2,3.010170937E0,1.043150997E1
1.706594000E1,2.093719877E-2,3.116651535E0,1.078026390E1
1.708605115E1,2.195414752E-1,3.107080221E0,1.116012478E1
1.710616230E1,5.365904570E-1,2.997608662E0,1.184566879E1
1.712627349E1,7.531409264E-1,3.046661377E0,1.295833111E1
1.714638464E1,7.962117195E-1,3.186641455E0,1.301755333E1
1.716649579E1,5.527420044E-1,3.233301640E0,1.174995518E1
1.718660693E1,2.129612118E-1,3.180061340E0,1.132463169E1
1.720671808E1,-1.076770201E-2,2.755933523E0,1.211246777E1
1.722682922E1,3.625126183E-1,1.700698733E0,1.375035572E1
1.724694037E1,1.398604870E0,6.448656917E-1,1.486421394E1
1.726705151E1,1.900499344E0,4.289134443E-1,1.477029610E1
1.728716266E1,1.268794179E0,7.142575383E-1,1.326820183E1
1.730727386E1,7.782655358E-1,7.322037220E-1,1.181755257E1
1.732738500E1,7.334001660E-1,5.748756528E-1,1.093998528E1
1.734749615E1,6.436693072E-1,3.170489967E-1,1.056969547E1
1.736760730E1,4.127618968E-1,2.901297510E-1,1.007079220E1
1.738771844E1,2.763710022E-1,5.419743061E-1,9.173483849E0
1.740782959E1,3.320041299E-1,7.585247755E-1,8.083553314E0
1.742794073E1,4.456632137E-1,8.153542876E-1,7.296314240E0
1.744805188E1,4.450650215E-1,8.470591903E-1,7.034898758E0
1.746816302E1,2.799602449E-1,9.792626500E-1,6.862615108E0
1.748827417E1,6.699903309E-2,1.204786181E0,6.183651924E0
1.750838532E1,-1.615155302E-2,1.424925923E0,5.486144066E0
1.752849646E1,1.070788130E-1,1.608574986E0,5.598606586E0
1.754860761E1,3.451646566E-1,1.673181176E0,6.137589931E0
1.756871875E1,4.277170599E-1,1.714457393E0,6.404389858E0
1.758882990E1,1.896311939E-1,1.814357758E0,6.412166595E0
1.760894104E1,2.991028363E-3,1.923829436E0,6.703492641E0
1.762905219E1,1.196411327E-1,2.188834429E0,7.170691490E0
1.764916334E1,4.241278172E-1,2.523231506E0,7.908278942E0
1.766927448E1,5.718846321E-1,2.618346214E0,8.657232285E0
1.768938563E1,5.048855543E-1,2.388635159E0,9.516854286E0
1.770949683E1,3.577269912E-1,2.231905222E0,1.079103184E1
1.772960792E1,4.785645381E-2,2.187638044E0,1.194915771E1
1.774971907E1,-2.207378894E-1,2.106880426E0,1.220818138E1
1.776983021E1,-3.266202807E-1,2.014756680E0,1.214417267E1
1.778994136E1,-2.153540403E-1,2.240878344E0,1.200778198E1
1.781005250E1,-2.656033039E-1,2.618346214E0,1.162732315E1
1.783016365E1,-6.041877270E-1,2.995215654E0,1.139761257E1
1.785027480E1,-1.044467092E0,3.193221807E0,1.150409317E1
1.787038594E1,-1.281356573E0,3.256033421E0,1.159262753E1
1.789049709E1,-1.600200176E0,3.131606579E0,1.193240833E1
1.791060823E1,-1.319043517E0,2.117049932E0,1.317547989E1
1.793071938E1,-2.973082066E-1,1.064806104E0,1.507717514E1
1.795083052E1,2.632104978E-2,8.668000102E-1,1.656072617E1
1.797094167E1,-8.632107973E-1,9.487541914E-1,1.560060501E1
1.799105282E1,-1.347757339E0,1.313061476E0,1.308814144E1
1.801116396E1,-1.433300734E0,1.950150490E0,1.084905815E1
1.803127511E1,-1.511665702E0,1.999203324E0,8.985049248E0
1.805138625E1,-1.208973646E0,1.624128342E0,8.425726891E0
1.807149740E1,-7.423732281E-1,1.384846091E0,9.247062683E0
1.809160854E1,-3.684946895E-1,1.060618639E0,9.459425926E0
1.811171969E1,-1.836491376E-1,9.176474810E-1,8.813961983E0
1.813183084E1,-2.021935135E-1,9.678967595E-1,7.905886173E0
1.815194198E1,-4.414757788E-1,9.714859724E-1,6.799803734E0
1.817205313E1,-1.842473447E-1,8.811569214E-1,5.979663849E0
1.819216422E1,3.451646566E-1,9.678967595E-1,5.768496990E0
1.821227542E1,1.914258152E-1,1.273579836E0,5.985645771E0
1.823238651E1,-1.944168359E-1,1.581057549E0,5.480760098E0
1.825249766E1,-3.810569942E-1,1.883749604E0,4.800600529E0
1.827260881E1,-1.716850251E-1,2.101496458E0,5.564508915E0
1.829271995E1,-1.519442350E-1,2.388635159E0,7.138986588E0
1.831283110E1,-8.703892231E-1,2.649452925E0,7.762316704E0
1.833294224E1,-1.512263894E0,2.676372051E0,7.527221680E0
1.835305339E1,-1.637288928E0,2.656033039E0,7.764111042E0
1.837316454E1,-1.076770186E0,2.749951363E0,8.093722343E0
1.839327568E1,-2.368894368E-1,2.766701221E0,8.746963501E0
1.841338683E1,2.512463629E-1,2.705085993E0,9.824930191E0
1.843349792E1,-1.776670814E-1,2.664407969E0,1.118166065E1
1.845360907E1,-1.019342422E0,2.542374134E0,1.181994534E1
1.847372021E1,-1.499103427E0,2.696112871E0,1.163210869E1
1.849383136E1,-1.394417405E0,2.895315409E0,1.141615677E1
1.851394250E1,-9.254241586E-1,2.966501951E0,1.165902805E1
1.853405365E1,-6.580262184E-1,3.249453068E0,1.191625690E1
1.855416474E1,-1.884347796E-1,3.064607620E0,1.207837009E1
1.857427589E1,3.260220885E-1,3.021536827E0,1.236850071E1
1.859438704E1,4.331009090E-1,2.866601467E0,1.267298698E1
1.861449818E1,8.141579032E-1,1.871187329E0,1.340160179E1
1.863460933E1,1.294517040E0,1.094716311E0,1.464706516E1
1.865472047E1,1.116850019E0,9.888339639E-1,1.446820259E1
1.867483162E1,2.231307179E-1,1.302891970E0,1.211964703E1
1.869494271E1,-5.024927482E-2,1.636092424E0,1.004865837E1
1.871505386E1,2.895315289E-1,1.884347796E0,8.787042618E0
1.873516500E1,9.547362328E-1,1.905883193E0,8.478966713E0
1.875527615E1,1.285543919E0,1.740778446E0,8.845666885E0
1.877538730E1,8.650053740E-1,1.534397483E0,9.031110764E0
1.879549844E1,3.086741269E-1,1.372283816E0,8.620143890E0
1.881560954E1,1.651047617E-1,1.312463164E0,8.222336769E0
1.883572068E1,3.056831062E-1,1.246660590E0,7.873582840E0
1.885583183E1,4.911268353E-1,1.232901812E0,7.684549809E0
1.887594297E1,2.769692242E-1,1.405185103E0,7.428517818E0
1.889605412E1,-7.896314561E-2,1.661217093E0,6.854240417E0
1.891616521E1,-2.237289101E-1,1.847857237E0,6.044867992E0
1.893627636E1,-1.076770201E-2,1.971685886E0,5.483751297E0
1.895638750E1,4.755735099E-1,1.988435626E0,6.078966141E0
1.897649865E1,5.515456200E-1,1.938784599E0,7.356134892E0
1.899660980E1,3.284149170E-1,1.920838356E0,8.496912956E0
1.901672094E1,3.385843933E-1,1.968694806E0,8.901300430E0
1.903683204E1,3.116651475E-1,2.225923300E0,8.359924316E0
1.905694318E1,2.386840582E-1,2.438286304E0,8.073383331E0
1.907705433E1,3.708875179E-1,2.432304144E0,8.783453941E0
1.909716547E1,3.720839322E-1,2.361117840E0,9.764511108E0
1.911727657E1,1.369891018E-1,2.317448616E0,1.061874866E1
1.913738771E1,-2.356930375E-1,2.374278307E0,1.057029438E1
1.915749886E1,-2.261217386E-1,2.494517565E0,9.991230965E0
1.917761000E1,1.830509305E-1,2.771486759E0,9.839286804E0
1.919772110E1,5.180460811E-1,2.985046148E0,1.016650486E1
1.921783224E1,6.245267391E-1,3.105285645E0,1.082154083E1
1.923794339E1,3.266202807E-1,3.261417150E0,1.124746323E1
1.925805454E1,-2.662015259E-1,3.431905985E0,1.124865913E1
1.927816563E1,-6.101697683E-1,3.396013498E0,1.161296654E1
1.929827677E1,-7.782655358E-1,3.100499868E0,1.229252815E1
1.931838792E1,-6.681957245E-1,2.429911375E0,1.288893890E1
1.933849907E1,8.853443712E-2,1.732403636E0,1.418883991E1
1.935861016E1,5.419743061E-1,1.345364571E0,1.562154293E1
1.937872131E1,1.519442350E-1,1.138983607E0,1.497787380E1
1.939883245E1,-6.903293133E-1,1.498505235E0,1.248455238E1
1.941894360E1,-1.023529887E0,1.977667928E0,1.036271667E1
1.943905469E1,-9.433703423E-1,1.935793519E0,9.287740707E0
1.945916584E1,-3.343969584E-1,1.644467354E0,9.895518303E0
1.947927698E1,-1.016949639E-1,1.353141189E0,1.080120182E1
1.949938813E1,-3.541377485E-1,1.057627559E0,1.026461124E1
1.951949922E1,-4.719842672E-1,9.840483069E-1,9.219545364E0
1.953961037E1,-3.595215976E-1,1.055832982E0,8.618349075E0
1.955972151E1,-2.021935135E-1,9.978070259E-1,7.920242786E0
1.957983266E1,-1.686939895E-1,1.111466169E0,7.102495670E0
1.959994375E1,-2.943171859E-1,1.343569875E0,6.409175396E0
1.962005490E1,-4.582255483E-1,1.564307809E0,6.007181168E0
1.964016604E1,-4.480560422E-1,1.664208174E0,6.096313953E0
1.966027714E1,-1.962114573E-1,1.670190215E0,6.657430649E0
1.968038829E1,-9.810572863E-2,1.763510346E0,7.001399040E0
1.970049943E1,-1.812563092E-1,1.936989903E0,6.866802692E0
1.972061052E1,-3.744767308E-1,2.222932339E0,6.741179466E0
1.974072167E1,-3.948157430E-1,2.537588358E0,7.131209850E0
1.976083282E1,-5.623133183E-1,2.919243574E0,7.664809227E0
1.978094396E1,-4.863412082E-1,2.889333248E0,8.428717613E0
1.980105506E1,-2.129612118E-1,2.841476917E0,9.256035805E0
1.982116620E1,3.768695518E-2,2.816950560E0,9.924231529E0
1.984127735E1,7.357929647E-2,2.836691141E0,1.018325520E1
1.986138844E1,-9.032905847E-2,2.822334290E0,9.917651176E0
1.988149959E1,2.769692242E-1,2.581257343E0,1.016710377E1
1.990161073E1,7.339983582E-1,2.220539331E0,1.136889839E1
1.992172183E1,7.992027402E-1,2.062613010E0,1.275793171E1
1.994183297E1,2.901297510E-1,2.338984251E0,1.254197979E1
1.996194412E1,-3.230310604E-2,2.631506681E0,1.134317589E1
1.998205521E1,2.578266263E-1,2.635694027E0,1.106740284E1
2.000216636E1,9.266205430E-1,2.469991207E0,1.174516964E1
2.002227750E1,1.784447432E0,1.776072621E0,1.280519009E1
2.004238860E1,2.007578135E0,1.135394335E0,1.411645699E1
2.006249974E1,1.558325768E0,7.465606928E-1,1.474636745E1
2.008261089E1,1.141376376E0,5.515456200E-1,1.358525085E1
2.010272198E1,1.284945726E0,7.543373108E-1,1.222911835E1
2.012283313E1,1.386640668E0,1.262812138E0,1.128754234E1
2.014294427E1,1.181456208E0,1.445264935E0,1.022752190E1
2.016305537E1,1.035493970E0,1.293918848E0,9.601799011E0
2.018316651E1,1.243669510E0,1.063011408E0,9.962516785E0
2.020327766E1,1.298704505E0,9.032905698E-1,1.006241703E1
2.022338875E1,9.678967595E-1,7.495517135E-1,9.233902931E0
2.024349990E1,6.035895348E-1,7.884350419E-1,8.335995674E0
2.026361104E1,4.809573591E-1,9.050851464E-1,7.662416458E0
2.028372214E1,5.916253924E-1,1.009771109E0,7.310073376E0
2.030383329E1,5.910272002E-1,1.169492126E0,6.973881721E0
2.032394438E1,4.372883439E-1,1.374078393E0,6.545566559E0
2.034405552E1,2.165504545E-1,1.503889084E0,5.998208046E0
2.036416667E1,3.236292601E-1,1.655833244E0,5.804389477E0
2.038427776E1,4.558327198E-1,1.896910191E0,6.065207005E0
2.040438891E1,4.839483798E-1,2.057827473E0,6.109474182E0
2.042450006E1,4.187439680E-1,2.192423820E0,6.093322754E0
2.044461115E1,4.995017350E-1,2.308475733E0,6.410371780E0
2.046472230E1,6.448656917E-1,2.367099762E0,6.686742783E0
2.048483344E1,8.446664214E-1,2.380260229E0,7.378866673E0
2.050494454E1,9.864411354E-1,2.391027927E0,8.289934158E0
2.052505568E1,1.171286702E0,2.380858421E0,8.950951576E0
2.054516677E1,1.189831018E0,2.389233351E0,9.145368576E0
2.056527792E1,9.924231768E-1,2.307279348E0,9.052047729E0
2.058538901E1,8.841479421E-1,2.151147604E0,9.662218094E0
2.060550016E1,8.231309652E-1,2.067996979E0,1.071386337E1
2.062561131E1,6.448656917E-1,2.114058733E0,1.147657585E1
2.064572240E1,5.222335458E-1,2.110469580E0,1.143290615E1
2.066583354E1,4.486542344E-1,2.369492531E0,1.127438164E1
2.068594469E1,4.223332107E-1,2.693121910E0,1.163330555E1
2.070605579E1,5.802595019E-1,2.459821701E0,1.259581852E1
2.072616693E1,5.545366406E-1,1.680359721E0,1.412961769E1
2.074627802E1,1.842473447E-1,1.137787223E0,1.567119408E1
2.076638917E1,-1.615155302E-2,9.128618240E-1,1.665763474E1
2.078650032E1,-3.469592705E-2,7.154539824E-1,1.633041573E1
2.080661141E1,2.733799815E-1,4.648058116E-1,1.569512177E1
2.082672256E1,2.099701911E-1,2.231307179E-1,1.543191147E1
2.084683365E1,-6.945167780E-1,1.950150430E-1,1.463809299E1
2.086694480E1,-1.367498159E0,4.001995921E-1,1.291825104E1
2.088705594E1,-1.391426325E0,5.467599630E-1,1.139701462E1
2.090716704E1,-7.710871100E-1,2.578266263E-1,1.083170986E1
2.092727818E1,-4.851447940E-1,1.112662554E-1,1.107039356E1
2.094738927E1,-8.410771489E-1,4.546362907E-2,1.079043388E1
2.096750042E1,-1.006780148E0,1.998006850E-1,9.904491425E0
2.098761151E1,-7.854440212E-1,6.376872063E-1,8.882756233E0
2.100772266E1,-3.433700502E-1,9.553344250E-1,7.735995770E0
2.102783381E1,-5.982056609E-4,1.127019525E0,6.705885410E0
2.104794490E1,5.503492057E-2,1.285543919E0,5.824728489E0
2.106805605E1,-5.922235921E-2,1.357328653E0,5.381458282E0
2.108816714E1,-2.482553422E-1,1.315454245E0,5.324628353E0
2.110827828E1,-2.667997181E-1,1.251446247E0,5.532206059E0
2.112838938E1,-1.250249892E-1,1.192223907E0,5.684748173E0
2.114850052E1,7.597211748E-2,1.342373490E0,5.729015827E0
2.116861167E1,1.094716340E-1,1.627119422E0,5.376074314E0
2.118872276E1,2.093719877E-2,1.849053741E0,4.984847546E0
2.120883391E1,-1.663011760E-1,1.986641049E0,5.167300701E0
2.122894500E1,-1.944168359E-1,2.015354872E0,5.918048382E0
2.124905615E1,-2.506481707E-1,2.172084808E0,6.573083878E0
2.126916724E1,-1.208375469E-1,2.293520451E0,7.181458950E0
2.128927839E1,2.333002165E-2,2.467000246E0,7.835297585E0
2.130938954E1,1.555334684E-2,2.627319336E0,8.386843681E0
2.132950063E1,-1.142572835E-1,2.714657307E0,8.784051895E0
2.134961177E1,-3.068794906E-1,2.806182861E0,9.659226418E0
2.136972287E1,-3.661018610E-1,2.956930637E0,1.083888817E1
2.138983401E1,-3.122633696E-1,3.040679455E0,1.139641571E1
2.140994511E1,-2.009970993E-1,3.037688255E0,1.133121204E1
2.143005625E1,3.278166950E-1,3.118446112E0,1.205982590E1
2.145016735E1,1.009172916E0,3.064009428E0,1.350568962E1
2.147027849E1,8.715856671E-1,2.976073265E0,1.395853043E1
2.149038964E1,2.632105052E-1,2.836691141E0,1.293081379E1
2.151050073E1,1.375873014E-2,2.546561480E0,1.190548897E1
2.153061188E1,-3.284149170E-1,2.536990166E0,1.149093246E1
2.155072297E1,-3.900300860E-1,2.440080881E0,1.208495045E1
2.157083412E1,2.650051117E-1,1.886740685E0,1.339920902E1
2.159094521E1,1.490728498E0,1.057029366E0,1.433719540E1
2.161105636E1,2.341975212E0,6.011967063E-1,1.519861126E1
2.163116745E1,1.899302959E0,6.681957245E-1,1.485763359E1
2.165127860E1,1.034895778E0,6.113662124E-1,1.314377499E1
2.167138969E1,8.171489239E-1,3.218346536E-1,1.199462128E1
2.169150084E1,1.027119160E0,2.350948304E-1,1.144128132E1
2.171161193E1,1.024128079E0,3.296113312E-1,1.083170986E1
2.173172308E1,8.488538265E-1,5.102694035E-1,9.956535339E0
2.175183417E1,6.209374666E-1,8.572286963E-1,8.928219795E0
2.177194532E1,4.660021961E-1,1.010369420E0,8.041678429E0
2.179205641E1,5.401797295E-1,8.530412912E-1,7.705487251E0
2.181216756E1,5.599204898E-1,6.741777658E-1,8.007580757E0
2.183227865E1,4.079762697E-1,5.922235847E-1,8.019545555E0
2.185238980E1,8.973085135E-2,8.309076428E-1,7.223333359E0
2.187250094E1,-1.052841991E-1,1.103091240E0,6.332605362E0
2.189261204E1,-9.032905847E-2,1.232901812E0,5.658427238E0
2.191272318E1,8.973085135E-2,1.454237938E0,5.745167255E0
2.193283427E1,1.674975902E-1,1.682752490E0,6.384648800E0
2.195294542E1,1.734796464E-1,1.838884234E0,6.777669907E0
2.197305651E1,2.051845491E-1,1.943570137E0,6.927221775E0
2.199316766E1,3.619144261E-1,1.960918188E0,7.363313675E0
2.201327875E1,3.493520916E-1,2.046461582E0,7.703094482E0
2.203338990E1,1.399801224E-1,2.089532375E0,7.430312634E0
2.205350099E1,-7.716853172E-2,2.219342947E0,7.107879639E0
2.207361214E1,-2.153540403E-1,2.511267424E0,7.299305439E0
2.209372323E1,-2.584248483E-1,2.706282377E0,7.838887215E0
2.211383438E1,-2.117647976E-1,2.671586514E0,8.354539871E0
2.213394547E1,6.999006122E-2,2.501696110E0,9.211769104E0
2.215405662E1,1.908276081E-1,2.388635159E0,1.020897770E1
2.217416771E1,2.033899277E-1,2.299502611E0,1.087956619E1
2.219427886E1,8.614161611E-2,2.327019930E0,1.129472065E1
2.221438995E1,-1.112662554E-1,2.422732830E0,1.168953705E1
2.223450110E1,-4.001995921E-1,2.636292458E0,1.175833035E1
2.225461219E1,-5.862415433E-1,2.863610506E0,1.144307613E1
2.227472334E1,-5.306084156E-1,2.963510752E0,1.140000534E1
2.229483443E1,-4.372883439E-1,2.907877684E0,1.185763264E1
2.231494558E1,-7.435696125E-1,2.907877684E0,1.211845016E1
2.233505667E1,-6.628118753E-1,2.440679073E0,1.275254822E1
2.235516782E1,2.087737769E-1,1.692921996E0,1.405603886E1
2.237527891E1,6.556333899E-1,1.317248821E0,1.515015697E1
2.239539006E1,4.486542568E-2,1.161117196E0,1.520100403E1
2.241550115E1,-1.000199914E0,1.030708313E0,1.391067410E1
2.243561230E1,-1.321436286E0,1.268195987E0,1.221775246E1
2.245572339E1,-1.106680512E0,1.510469317E0,1.090110207E1
2.247583454E1,-5.054838061E-1,1.316650629E0,1.025982571E1
2.249594563E1,2.991028363E-3,9.152546525E-1,1.065464115E1
2.251605677E1,0.000000000E0,5.653043389E-1,1.080957603E1
2.253616787E1,-9.332008660E-2,2.787638307E-1,1.009292603E1
2.255627901E1,-6.640082598E-2,3.726821244E-1,9.044271469E0
2.257639011E1,-2.548356056E-1,4.378865361E-1,7.744370461E0
2.259650125E1,-4.989035130E-1,4.283152521E-1,6.524031162E0
2.261661235E1,-6.909275651E-1,5.479564071E-1,5.843272686E0
2.263672349E1,-7.686942816E-1,7.351947427E-1,5.704489231E0
2.265683459E1,-8.159525394E-1,9.529415965E-1,5.856433392E0
2.267694573E1,-6.921239495E-1,1.095314622E0,6.201598167E0
2.269705683E1,-3.529413342E-1,1.237687469E0,6.894320011E0
2.271716797E1,-1.573280841E-1,1.421934843E0,7.448856831E0
2.273727907E1,-1.567298770E-1,1.614557028E0,7.384250641E0
2.275739021E1,-2.506481707E-1,1.795813441E0,7.121040344E0
2.277750131E1,-3.661018610E-1,2.017747641E0,7.405786037E0
2.279761245E1,-4.713860750E-1,2.223530531E0,7.949554920E0
2.281772354E1,-6.562315822E-1,2.413759947E0,8.103293419E0
2.283783469E1,-6.538388133E-1,2.529213428E0,8.261817932E0
2.285794579E1,-5.150550604E-1,2.594418049E0,8.948558807E0
2.287805693E1,-2.422732860E-1,2.568096876E0,9.679565430E0
2.289816802E1,-4.067798331E-2,2.477169752E0,1.056610680E1
2.291827917E1,-1.573280841E-1,2.373081923E0,1.161236858E1
2.293839026E1,-4.552344978E-1,2.400599241E0,1.195932770E1
2.295850141E1,-4.582255483E-1,2.623131752E0,1.160279655E1
2.297861256E1,-2.051845491E-1,2.861217737E0,1.175533962E1
2.299872365E1,-9.451649338E-2,3.046063185E0,1.245284748E1
2.301883480E1,8.374879509E-2,3.043072224E0,1.279920864E1
2.303894589E1,3.044866920E-1,3.049054146E0,1.170150089E1
2.305905704E1,8.518448472E-1,2.822932482E0,1.127378368E1
2.307916813E1,1.552941918E0,2.021337032E0,1.253300667E1
2.309927927E1,1.898106575E0,1.192223907E0,1.433001614E1
2.311939037E1,1.244267821E0,8.356932998E-1,1.461835194E1
2.313950151E1,3.188436031E-1,7.818548083E-1,1.296251869E1
2.315961261E1,2.015953064E-1,1.012163997E0,1.126301575E1
2.317972375E1,7.220342159E-1,9.918249846E-1,1.033101177E1
2.319983485E1,1.676172256E0,8.081758618E-1,1.033041382E1
2.321994599E1,2.044068813E0,7.286145091E-1,1.089093208E1
2.324005709E1,1.425524116E0,7.040880919E-1,1.053799057E1
2.326016823E1,6.675975323E-1,8.141579032E-1,9.468399048E0
2.328027933E1,5.802595019E-1,8.021938205E-1,8.807381630E0
2.330039047E1,5.617151260E-1,9.026923180E-1,8.211568832E0
2.332050157E1,5.132604837E-1,9.906286001E-1,7.467999458E0
2.334061271E1,4.354937077E-1,1.151545882E0,6.506682873E0
2.336072386E1,1.800599098E-1,1.326221943E0,5.584847927E0
2.338083495E1,-3.230310604E-2,1.344766378E0,5.508875847E0
2.340094604E1,-1.130608693E-1,1.478166223E0,6.399604321E0
2.342105719E1,-2.578266263E-1,1.858624935E0,6.905686378E0
2.344116829E1,-2.757728100E-1,2.212762833E0,6.620940208E0
2.346127943E1,-9.272187948E-2,2.529811859E0,6.041877270E0
2.348139058E1,1.130608693E-1,2.785843849E0,5.997610092E0
2.350150167E1,4.576273263E-1,2.662015200E0,6.635895252E0
2.352161282E1,6.783652306E-1,2.425724030E0,7.530810833E0
2.354172391E1,6.071787477E-1,2.458027124E0,8.558527946E0
2.356183506E1,3.696911037E-1,2.487339020E0,9.513264656E0
2.358194615E1,-5.503492057E-2,2.565704107E0,9.824331284E0
2.360205730E1,-3.481557071E-1,2.683550596E0,9.778867722E0
2.362216839E1,-5.084748194E-2,2.708076954E0,1.009292603E1
2.364227954E1,5.485545993E-1,2.727219582E0,1.063848972E1
2.366239068E1,9.361918569E-1,2.653042078E0,1.125224876E1
2.368250177E1,7.274180651E-1,2.517847538E0,1.134138107E1
2.370261292E1,-9.451649338E-2,2.680559635E0,1.107338524E1
2.372272401E1,-3.858426511E-1,2.885145903E0,1.106859970E1
2.374283516E1,-4.145565331E-1,3.014358282E0,1.128156090E1
2.376294625E1,-4.660021961E-1,2.837289333E0,1.152263737E1
2.378305740E1,-3.445664644E-1,2.340778828E0,1.199163055E1
2.380316855E1,-1.375873014E-2,1.645065546E0,1.313360500E1
2.382327964E1,1.992024779E-1,1.264008522E0,1.484148216E1
2.384339079E1,2.392822690E-2,1.125224829E0,1.541875076E1
2.386350188E1,-3.373879790E-1,1.188036442E0,1.342074394E1
2.388361302E1,-3.583251834E-1,1.320838094E0,1.110987568E1
2.390372412E1,-6.041877344E-2,1.497308731E0,9.836296082E0
2.392383526E1,-9.212367237E-2,1.779063582E0,9.561718941E0
2.394394641E1,-7.118647546E-2,1.543370605E0,9.777072906E0
2.396405750E1,7.776673418E-3,1.336989641E0,1.013420200E1
2.398416865E1,3.050848842E-2,1.231705427E0,9.731011391E0
2.400427980E1,1.698904037E-1,1.033101201E0,8.973084450E0
2.402439089E1,2.943171859E-1,8.943174481E-1,8.819944382E0
2.404450204E1,3.242274821E-1,8.835497499E-1,9.096315384E0
2.406461313E1,1.561316848E-1,7.962117195E-1,8.739784241E0
2.408472427E1,2.392822690E-2,8.183453679E-1,7.999206066E0
2.410483542E1,-8.434699476E-2,9.684949517E-1,7.157530785E0
2.412494651E1,-1.016949639E-1,1.184447169E0,6.398407936E0
2.414505766E1,-7.417750359E-2,1.330409408E0,6.082555294E0
2.416516875E1,-9.571290761E-2,1.420738459E0,6.433103561E0
2.418527990E1,-2.446661144E-1,1.609173179E0,7.216155052E0
2.420539105E1,-3.547359705E-1,1.767697692E0,7.688737392E0
2.422550214E1,-2.476571500E-1,1.934597135E0,8.017750740E0
2.424561329E1,-1.142572835E-1,2.178664923E0,8.634500504E0
2.426572443E1,-1.028913707E-1,2.192423820E0,9.053842545E0
2.428583552E1,-2.153540403E-2,2.036890268E0,9.333204269E0
2.430594667E1,7.298108935E-2,1.986042738E0,9.865608215E0
2.432605782E1,-9.690931439E-2,2.081157446E0,1.023230743E1
2.434616891E1,-4.378865361E-1,2.275574446E0,9.873384476E0
2.436628006E1,-4.761717021E-1,2.401197433E0,9.370891571E0
2.438639120E1,-2.554338276E-1,2.451446772E0,9.797411919E0
2.440650230E1,-1.202393398E-1,2.349751949E0,1.084965611E1
2.442661344E1,-7.178467698E-3,2.216351986E0,1.148016453E1
2.444672454E1,-5.982056633E-2,2.227717876E0,1.180379391E1
2.446683568E1,-1.657029688E-1,2.271386862E0,1.193480110E1
2.448694683E1,1.244267747E-1,1.999203324E0,1.176311588E1
2.450705792E1,7.256234884E-1,1.566102386E0,1.139821053E1
2.452716907E1,1.312463164E0,1.666600943E0,1.108594704E1
2.454728021E1,1.707278967E0,1.975873351E0,1.087478065E1
2.456739136E1,1.739582062E0,1.726421595E0,1.094656563E1
2.458750245E1,1.660618901E0,9.571290612E-1,1.193659592E1
2.460761360E1,1.436291814E0,3.762713671E-1,1.357209015E1
2.462772474E1,7.112665176E-1,2.536391914E-1,1.432762337E1
2.464783584E1,3.110669367E-2,5.437689424E-1,1.288355541E1
2.466794698E1,-9.391828626E-2,9.924231768E-1,1.102493000E1
2.468805813E1,2.105683982E-1,1.058225870E0,9.198010445E0
2.470816927E1,1.054636598E0,9.661021233E-1,8.270193100E0
2.472828037E1,1.822732687E0,9.092726111E-1,8.724231720E0
2.474839151E1,1.447059512E0,7.704889178E-1,9.150154114E0
2.476850266E1,6.089733839E-1,7.238288522E-1,8.787042618E0
2.478861375E1,4.313062727E-1,7.244270444E-1,8.369495392E0
2.480872490E1,5.898307562E-1,7.543373108E-1,7.671987534E0
2.482883605E1,8.847461939E-1,9.942178130E-1,7.718647480E0
2.484894719E1,7.028916478E-1,1.214955688E0,7.723433495E0
2.486905828E1,2.967100143E-1,1.259821177E0,7.320242882E0
2.488916943E1,2.446661144E-1,1.306481123E0,7.450053215E0
2.490928058E1,5.228317380E-1,1.347757339E0,8.148159027E0
2.492939172E1,6.598208547E-1,1.516451359E0,8.497511864E0
2.494950282E1,5.359922647E-1,1.689931035E0,8.531010628E0
2.496961396E1,6.496513486E-1,1.651645780E0,8.608179092E0
2.498972511E1,8.997012973E-1,1.660618901E0,8.621339798E0
2.500983625E1,1.040877819E0,1.643869162E0,8.769096375E0
2.502994735E1,9.326026440E-1,1.673181176E0,8.991030693E0
2.505005849E1,6.945167780E-1,1.905285001E0,8.908478737E0
2.507016964E1,6.239284873E-1,1.936391711E0,8.576474190E0
2.509028079E1,6.101697683E-1,1.956132531E0,8.606983185E0
2.511039188E1,4.492524564E-1,1.925624013E0,9.105288506E0
2.513050302E1,2.512463629E-1,1.823929071E0,9.736993790E0
2.515061417E1,3.284149170E-1,1.744965911E0,1.074676514E1
2.517072532E1,8.763712645E-1,1.736590981E0,1.142512989E1
2.519083646E1,1.252044439E0,1.835893154E0,1.142931747E1
2.521094761E1,1.084546804E0,2.138585329E0,1.127557850E1
2.523105870E1,4.055834413E-1,2.274976015E0,1.104706383E1
2.525116985E1,4.187439568E-3,2.086541414E0,1.128156090E1
2.527128099E1,-3.290131092E-1,2.173879385E0,1.166142082E1
2.529139214E1,-6.999006271E-1,2.111665964E0,1.167757225E1
2.531150328E1,-9.960124493E-1,1.839482427E0,1.190010548E1
2.533161438E1,-6.095715761E-1,1.399203062E0,1.261914825E1
2.535172552E1,2.237289101E-1,8.416753411E-1,1.369950771E1
2.537183667E1,3.930211067E-1,6.388836503E-1,1.473081398E1
2.539194782E1,-9.870393574E-2,6.574280262E-1,1.440239906E1
2.541205896E1,-6.837490797E-1,8.350951076E-1,1.234517002E1
2.543217011E1,-6.693921089E-1,1.185045362E0,1.048893833E1
2.545228120E1,-6.059823632E-1,1.405783296E0,8.904889107E0
2.547239235E1,-4.037888348E-1,1.376471281E0,8.199604988E0
2.549250349E1,-2.997010350E-1,1.232901812E0,8.522037506E0
2.551261464E1,-2.733799815E-1,9.547362328E-1,8.765507698E0
2.553272579E1,-2.775674164E-1,7.369893789E-1,8.417949677E0
2.555283693E1,-3.266202807E-1,6.323033571E-1,8.109873772E0
2.557294808E1,-4.049852192E-1,5.491527915E-1,8.190631866E0
2.559305917E1,-3.816552162E-1,5.581258535E-1,8.206185341E0
2.561317032E1,-3.804588020E-1,7.411768436E-1,7.581658363E0
2.563328146E1,-9.511470050E-2,9.236295223E-1,7.171887875E0
2.565339261E1,2.775674164E-1,1.186241865E0,7.231708050E0
2.567350375E1,3.475574851E-1,1.327418327E0,7.225128174E0
2.569361490E1,2.105683982E-1,1.348355532E0,7.429116249E0
2.571372604E1,6.400800496E-2,1.506281853E0,7.784450054E0
2.573383719E1,-4.067798331E-2,1.635494232E0,7.923233986E0
2.575394834E1,-5.982056726E-3,1.685743570E0,8.337790489E0
2.577405948E1,1.848455518E-1,1.883749604E0,8.909076691E0
2.579417063E1,2.787638307E-1,2.072782516E0,9.262616158E0
2.581428172E1,2.799602449E-1,2.039283037E0,9.562317848E0
2.583439287E1,1.860419661E-1,2.060220242E0,1.004327488E1
2.585450401E1,1.178465188E-1,2.121237278E0,1.048235798E1
2.587461516E1,1.591227055E-1,2.177468538E0,1.043210888E1
2.589472631E1,2.201396823E-1,2.316252232E0,1.016351414E1
2.591483745E1,1.579262912E-1,2.448455811E0,9.901499748E0
2.593494860E1,2.117647976E-1,2.368894339E0,1.000678444E1
2.595505974E1,1.519442350E-1,2.214557409E0,1.071805096E1
2.597517089E1,8.793623000E-2,2.058425665E0,1.121695423E1
2.599528204E1,1.507478207E-1,2.123630047E0,1.104048347E1
2.601539318E1,3.529413342E-1,2.197807550E0,1.091067314E1
2.603550433E1,6.771687865E-1,1.985444546E0,1.142931747E1
2.605561547E1,7.483552694E-1,2.009970903E0,1.197308636E1
2.607572662E1,4.420739710E-1,2.255833626E0,1.145145130E1
2.609583776E1,3.326023519E-1,2.388036966E0,1.054995537E1
2.611594891E1,7.782655358E-1,2.455634356E0,1.042971611E1
2.613606006E1,1.222134113E0,2.228914261E0,1.076710415E1
2.615617120E1,1.173679471E0,1.758724689E0,1.144187927E1
2.617628235E1,1.074377418E0,1.228714466E0,1.195514011E1
2.619639349E1,1.410568953E0,7.657032609E-1,1.247916794E1
2.621650464E1,1.342373490E0,6.849454641E-1,1.284766293E1
2.623661578E1,8.805587292E-1,8.033902049E-1,1.208375454E1
2.625672693E1,5.000999570E-1,1.059422255E0,1.039143085E1
2.627683808E1,5.162515044E-1,1.175474167E0,8.868997574E0
2.629694922E1,1.123430252E0,1.132403374E0,7.975875854E0
2.631706037E1,1.572682738E0,1.210768223E0,8.498707771E0
2.633717151E1,1.127617717E0,1.184447169E0,9.365508080E0
2.635728266E1,4.289134443E-1,1.170688510E0,8.905488014E0
2.637739381E1,3.260220885E-1,1.292722464E0,7.873582840E0
2.639750495E1,7.375875711E-1,1.180259824E0,7.206583500E0
2.641761610E1,1.232303619E0,1.258624673E0,7.421937466E0
2.643772724E1,8.458628058E-1,1.377069473E0,8.102695465E0
2.645783839E1,1.298106313E-1,1.223928809E0,8.054241180E0
2.647794959E1,-7.657032460E-2,1.303490162E0,7.548757076E0
2.649806073E1,1.495514214E-1,1.591825247E0,7.249654293E0
2.651817188E1,4.025924206E-1,1.771286964E0,7.028318405E0
2.653828302E1,3.810569942E-1,1.980060697E0,6.958328247E0
2.655839417E1,3.475574851E-1,2.128415823E0,7.491329670E0
2.657850532E1,5.174478889E-1,2.192423820E0,8.286344528E0
2.659861646E1,6.885347366E-1,2.175673962E0,8.717651367E0
2.661872761E1,8.500502706E-1,2.070987940E0,9.189037323E0
2.663883881E1,8.333004713E-1,2.059023857E0,9.712467194E0
2.665894995E1,6.412764788E-1,2.143370867E0,9.934999466E0
2.667906110E1,4.193421602E-1,2.241476536E0,9.721440315E0
2.669917224E1,4.576273263E-1,2.163111687E0,9.720243454E0
2.671928339E1,5.898307562E-1,1.968694806E0,1.056371403E1
2.673939454E1,2.470589429E-1,1.902892232E0,1.156630611E1
2.675950568E1,-2.542374134E-1,1.937588096E0,1.184985638E1
2.677961688E1,-2.691925503E-2,2.085943222E0,1.106501007E1
2.679972802E1,5.204389095E-1,2.437089920E0,1.063848972E1
2.681983917E1,4.127618968E-1,2.583650351E0,1.088853931E1
2.683995032E1,-2.907279432E-1,2.626721144E0,1.130967617E1
2.686006151E1,-7.028916478E-1,2.599203587E0,1.144367409E1
2.688017266E1,-7.531409264E-1,2.596212626E0,1.173141098E1
2.690028381E1,-5.258227587E-1,2.471187592E0,1.203230858E1
2.692039495E1,3.834498227E-1,1.922633052E0,1.230389404E1
2.694050610E1,1.281356573E0,1.262213945E0,1.329512119E1
2.696061730E1,1.138385415E0,8.255237937E-1,1.498385525E1
2.698072844E1,-3.284149170E-1,7.088736892E-1,1.501316738E1
2.700083959E1,-1.241874933E0,9.906286001E-1,1.248515034E1
2.702095079E1,-1.213759303E0,1.593619823E0,1.013360405E1
2.704106193E1,-8.440681696E-1,1.719243050E0,8.347960472E0
2.706117308E1,-8.494520187E-2,1.515254974E0,8.044670105E0
2.708128422E1,5.461617708E-1,1.181456208E0,9.139984131E0
2.710139542E1,5.431707501E-1,7.441678643E-1,9.702896118E0
2.712150657E1,1.902294010E-1,5.796613097E-1,9.088538170E0
2.714161771E1,1.100698411E-1,6.448656917E-1,8.224131584E0
2.716172891E1,2.033899277E-1,6.113662124E-1,7.679764271E0
2.718184006E1,1.627119333E-1,6.741777658E-1,7.391428947E0
2.720195120E1,-2.147558331E-1,9.924231768E-1,7.034300327E0
2.722206240E1,-5.617151260E-1,1.188036442E0,6.503692150E0
2.724217354E1,-5.545366406E-1,1.284347534E0,6.082555294E0
2.726228474E1,-3.792623878E-1,1.481755376E0,6.139982700E0
2.728239589E1,-2.093719877E-2,1.662413478E0,6.737590313E0
2.730250704E1,7.178468257E-2,1.808973908E0,7.213762283E0
2.732261823E1,-5.922235921E-2,1.814357758E0,7.682157040E0
2.734272938E1,-1.752742529E-1,1.798206210E0,8.276175499E0
2.736284058E1,-3.523431420E-1,1.912463546E0,8.903095245E0
2.738295172E1,-3.774677813E-1,2.023729801E0,9.408578873E0
2.740306287E1,-1.698904037E-1,2.154138565E0,9.618548393E0
2.742317407E1,7.716853172E-2,2.219342947E0,9.543772697E0
2.744328521E1,1.692921966E-1,2.298904419E0,9.509675026E0
2.746339641E1,7.118647546E-2,2.315654039E0,9.818947792E0
2.748350756E1,-3.948157281E-2,2.318047047E0,1.006959629E1
2.750361875E1,-8.793623000E-2,2.359323025E0,1.015633583E1
2.752372990E1,-1.555334777E-1,2.313859463E0,1.058046341E1
2.754384110E1,-1.298106313E-1,2.210369825E0,1.110030460E1
2.756395224E1,6.819544733E-2,2.216950178E0,1.142213917E1
2.758406344E1,1.674975902E-1,2.248056889E0,1.161835003E1
2.760417459E1,3.631108403E-1,1.994417667E0,1.227936745E1
2.762428578E1,4.019941986E-1,1.905285001E0,1.260838032E1
2.764439693E1,6.251249313E-1,1.872981906E0,1.224287701E1
2.766450813E1,1.167697430E0,1.599601984E0,1.198445225E1
2.768461927E1,1.703091502E0,1.223330617E0,1.237089348E1
2.770473047E1,1.875972986E0,1.002592683E0,1.315214920E1
2.772484167E1,1.472782373E0,1.065404296E0,1.320299721E1
2.774495282E1,8.386843204E-1,1.197607756E0,1.176610756E1
2.776506401E1,6.699903607E-1,1.315454245E0,1.053739262E1
2.778517521E1,9.876375198E-1,1.329811215E0,9.673583984E0
2.780528636E1,1.245464206E0,1.346560955E0,9.086145401E0
2.782539756E1,1.102493048E0,1.262812138E0,9.019744873E0
2.784550875E1,7.722834945E-1,1.133599758E0,9.078967094E0
2.786561990E1,4.863412082E-1,1.066002488E0,8.843872070E0
2.788573110E1,3.762713671E-1,1.067797065E0,8.559126854E0
2.790584230E1,3.098705411E-1,1.160519004E0,8.280363083E0
2.792595344E1,4.576273263E-1,1.261615753E0,7.967501163E0
2.794606464E1,6.370890141E-1,1.449452281E0,7.651050568E0
2.796617584E1,7.848458290E-1,1.500299811E0,7.558328629E0
2.798628698E1,6.801598072E-1,1.551147223E0,7.578069210E0
2.800639818E1,5.629115105E-1,1.590628862E0,7.654639721E0
2.802650938E1,4.390829504E-1,1.624726534E0,7.546962738E0
2.804662058E1,2.057827413E-1,1.767099500E0,7.406982422E0
2.806673177E1,-1.722832322E-1,1.939382792E0,7.465008259E0
2.808684292E1,-5.443671346E-2,2.031506538E0,7.888537884E0
2.810695412E1,4.438686073E-1,2.093719721E0,8.666803360E0
2.812706532E1,8.183453679E-1,2.087139606E0,9.320642471E0
2.814717651E1,9.116654396E-1,2.043470621E0,9.698110580E0
2.816728771E1,8.781659007E-1,2.020140409E0,9.745966911E0
2.818739891E1,8.931210637E-1,2.020738840E0,9.762716293E0
2.820751006E1,8.715856671E-1,2.059622049E0,9.964909554E0
2.822762125E1,8.147560954E-1,2.116451740E0,9.906285286E0
2.824773245E1,8.045865893E-1,2.228316069E0,9.735796928E0
2.826784365E1,9.278169870E-1,2.327618122E0,9.866206169E0
2.828795485E1,1.083350420E0,2.294118643E0,1.008215809E1
2.830806605E1,1.109073281E0,2.311466694E0,1.018983555E1
2.832817724E1,9.529415965E-1,2.342573404E0,1.006780148E1
2.834828844E1,3.062812984E-1,2.358724833E0,9.793225288E0
2.836839964E1,1.172483116E-1,2.335993052E0,1.081974602E1
2.838851084E1,-5.982056726E-3,2.252244234E0,1.153460121E1
2.840862204E1,-1.052841991E-1,2.199003935E0,1.248335552E1
2.842873323E1,-1.022931710E-1,2.369492531E0,1.223151112E1
2.844884443E1,2.344966233E-1,2.347358942E0,1.188096237E1
2.846895563E1,5.557330847E-1,1.814357758E0,1.243071365E1
2.848906683E1,4.671986103E-1,1.162911773E0,1.365583897E1
2.850917802E1,2.069791555E-1,6.616154313E-1,1.452682590E1
2.852928922E1,-3.032902777E-1,3.373879790E-1,1.459861088E1
2.854940042E1,-7.752745152E-1,4.815555513E-1,1.290628719E1
2.856951162E1,-8.201399446E-1,8.883354068E-1,1.093161011E1
2.858962282E1,-3.613162339E-1,1.093519926E0,9.101698875E0
2.860973401E1,-1.561316848E-1,9.972088337E-1,8.182855606E0
2.862984521E1,-2.273181453E-2,8.512466550E-1,8.475378036E0
2.864995646E1,-1.148554832E-1,7.322037220E-1,8.969495773E0
2.867006766E1,-1.447657645E-1,6.580262184E-1,8.839086533E0
2.869017886E1,-4.666004330E-2,5.856433511E-1,8.464610100E0
2.871029006E1,1.375873089E-1,6.939185858E-1,8.152346611E0
2.873040125E1,3.098705411E-1,7.932206988E-1,7.714460373E0
2.875051245E1,4.253242314E-1,9.499505758E-1,7.284350395E0
2.877062370E1,3.188436031E-1,1.182652593E0,7.099504948E0
2.879073490E1,4.450650215E-1,1.459621787E0,6.915257454E0
2.881084610E1,6.209374666E-1,1.618744493E0,6.742974281E0
2.883095730E1,5.862415433E-1,1.680957913E0,6.943373203E0
2.885106855E1,2.925225794E-1,1.689931035E0,7.606783390E0
2.887117974E1,-1.136590727E-2,1.778465390E0,8.325227737E0
2.889129094E1,4.845465720E-2,1.891526341E0,8.696115494E0
2.891140219E1,1.459621787E-1,1.984846354E0,8.739784241E0
2.893151339E1,2.261217386E-1,2.000399828E0,9.169296265E0
2.895162459E1,2.530409992E-1,2.094916344E0,9.663414001E0
2.897173584E1,1.525424421E-1,2.185843468E0,9.777671814E0
2.899184704E1,2.177468538E-1,2.274976015E0,9.486345291E0
2.901195823E1,2.117647976E-1,2.381456852E0,9.373882294E0
2.903206948E1,3.948157281E-2,2.483749866E0,9.447462082E0
2.905218068E1,-3.589234129E-2,2.616551638E0,9.484550476E0
2.907229193E1,4.725824669E-2,2.661417007E0,9.611968994E0
2.909240313E1,2.321037948E-1,2.724228621E0,9.824930191E0
2.911251438E1,2.512463629E-1,2.762513638E0,1.000917721E1
2.913262558E1,2.733799815E-1,2.794218540E0,1.023589706E1
2.915273683E1,2.901297510E-1,2.750549555E0,1.062652493E1
2.917284802E1,3.403790295E-1,2.631506681E0,1.109312534E1
2.919295922E1,2.614158690E-1,2.599801779E0,1.135633659E1
2.921307047E1,1.674975902E-1,2.715853691E0,1.134556866E1
2.923318172E1,2.973082066E-1,2.673381090E0,1.159322548E1
2.925329292E1,4.905286431E-1,2.593221426E0,1.205324554E1
2.927340417E1,5.623133183E-1,2.650649309E0,1.227338600E1
2.929351537E1,6.053841114E-1,2.661417007E0,1.202453232E1
2.931362662E1,5.892325640E-1,2.486142635E0,1.203529930E1
2.933373782E1,9.218349457E-1,2.108675003E0,1.225663567E1
2.935384907E1,1.453041553E0,1.509272933E0,1.274058437E1
2.937396032E1,1.490130305E0,1.122233868E0,1.269392395E1
2.939407151E1,1.122233868E0,1.135394335E0,1.167338562E1
2.941418276E1,8.177471161E-1,1.401595831E0,9.900303841E0
2.943429401E1,8.057830334E-1,1.484148264E0,8.647661209E0
2.945440521E1,7.316055298E-1,1.549352646E0,8.264809608E0
2.947451646E1,6.424728632E-1,1.490130305E0,8.749954224E0
2.949462771E1,7.782655358E-1,1.372882009E0,9.075976372E0
2.951473891E1,7.728816867E-1,1.436890006E0,8.874381065E0
2.953485016E1,8.177471161E-1,1.385444283E0,8.552546501E0
2.955496141E1,7.878368497E-1,1.357328653E0,8.508877754E0
2.957507266E1,5.874379873E-1,1.434497118E0,8.193024635E0
2.959518391E1,3.373879790E-1,1.520638824E0,7.811369419E0
2.961529511E1,2.386840582E-1,1.627119422E0,7.646264553E0
2.963540636E1,3.212364316E-1,1.792822361E0,7.342376232E0
2.965551761E1,4.893322289E-1,1.819741607E0,7.309474945E0
2.967562886E1,7.465606928E-1,1.809572101E0,7.758129120E0
2.969574006E1,7.794619799E-1,1.993819475E0,7.957331657E0
2.971585131E1,6.837490797E-1,2.159522533E0,7.930412292E0
2.973596256E1,5.611169338E-1,2.314457655E0,8.033902168E0
2.975607381E1,5.724828243E-1,2.363510609E0,8.352147102E0
2.977618506E1,5.557330847E-1,2.414358139E0,8.450253487E0
2.979629631E1,5.192425251E-1,2.414358139E0,8.577671051E0
2.981640756E1,5.395814776E-1,2.347957134E0,9.006584167E0
2.983651881E1,4.588237405E-1,2.325225353E0,9.296713829E0
2.985663006E1,3.553341627E-1,2.330609322E0,9.190832138E0
2.987674131E1,3.774677813E-1,2.251047850E0,9.604789734E0
2.989685256E1,3.230310678E-1,2.230110645E0,1.015633583E1
2.991696381E1,1.728814393E-1,2.329412937E0,1.020239735E1
2.993707506E1,3.296113312E-1,2.363510609E0,1.005763149E1
2.995718631E1,5.461617708E-1,2.349751949E0,1.007737255E1
2.997729756E1,6.095715761E-1,2.362912416E0,1.015334511E1
2.999740881E1,5.862415433E-1,2.374278307E0,1.001276588E1
3.001752006E1,5.641079545E-1,2.483151674E0,9.726225853E0
3.003763131E1,5.635097623E-1,2.544766903E0,9.503094673E0
3.005774256E1,6.382854581E-1,2.423331022E0,9.662816048E0
3.007785381E1,5.569294691E-1,2.411366940E0,9.614361763E0
3.009796506E1,3.918247223E-1,2.379063845E0,9.494122505E0
3.011807631E1,3.355933726E-1,2.313261271E0,9.437292099E0
3.013818761E1,3.451646566E-1,2.199003935E0,9.446265221E0
3.015829886E1,3.284149170E-1,2.064407825E0,9.622138023E0
3.017841011E1,3.481557071E-1,1.950150490E0,9.961320877E0
3.019852136E1,2.823530734E-1,1.993221283E0,9.740582466E0
3.021863261E1,3.373879790E-1,2.108675003E0,9.387042999E0
3.023874391E1,1.220339537E-1,2.271985054E0,8.170890808E0
3.025885516E1,1.627119333E-1,2.079961061E0,1.009232807E1
3.027896641E1,4.803591371E-1,2.274377823E0,1.055952644E1
3.029907766E1,4.378865361E-1,2.385046005E0,1.053200912E1
3.034859437E1,3.888336718E-1,3.355335474E0,9.206983566E0
3.036870614E1,2.620140910E-1,3.379263878E0,9.163313866E0
3.038881791E1,3.176472187E-1,3.393620729E0,9.356534958E0
3.040892968E1,3.403790295E-1,3.466003656E0,9.279964447E0
3.042904145E1,3.768695593E-1,3.498904943E0,9.049057007E0
3.044915322E1,4.283152521E-1,3.571886063E0,8.925827026E0
3.046926500E1,5.270192027E-1,3.683152199E0,9.050851822E0
3.048937677E1,7.908278704E-1,3.624528170E0,9.984052658E0
3.050948854E1,2.943171859E-1,3.821935892E0,9.058030128E0
3.052960026E1,4.372883439E-1,3.737588882E0,8.691329956E0
3.054971203E1,4.666004181E-1,3.875176191E0,8.953344345E0
3.056982380E1,2.787638307E-1,3.980460405E0,8.815756798E0
3.058993557E1,2.171486616E-1,4.028914928E0,8.624929428E0
3.061004734E1,2.943171859E-1,4.160520554E0,8.864809990E0
3.063015911E1,3.631108403E-1,4.192225456E0,9.406186104E0
3.065027088E1,3.625126183E-1,4.194618225E0,9.615557671E0
3.067038265E1,3.954139352E-1,4.228715897E0,9.775279045E0
3.069049442E1,4.420739710E-1,4.319643021E0,1.003131104E1
3.071060614E1,2.955136001E-1,4.498506546E0,1.010010433E1
3.073071791E1,8.494520187E-2,4.657629490E0,1.026939678E1
3.075082968E1,3.529413417E-2,4.806582451E0,1.066959572E1
3.077094145E1,2.033899277E-1,4.893322468E0,1.076830006E1
3.079105323E1,1.250249892E-1,5.117051125E0,1.067378330E1
3.081116500E1,8.315058798E-2,5.151747227E0,1.056969547E1
3.083127677E1,3.732803464E-1,5.055436134E0,1.092443180E1
3.085138848E1,8.650053740E-1,4.616353035E0,1.216032505E1
3.087150026E1,9.098708034E-1,3.809373617E0,1.381735420E1
3.089161203E1,3.774677813E-1,3.185445070E0,1.448794270E1
3.091172380E1,-3.649054468E-1,3.053241730E0,1.301815128E1
3.093183552E1,-3.565305769E-1,3.062214851E0,1.139940739E1
3.095194729E1,-1.860419661E-1,3.252444267E0,1.098604679E1
3.097205906E1,-5.282155871E-1,3.272783279E0,1.077787113E1
3.099217083E1,-7.932206988E-1,2.851048231E0,1.059840965E1
3.101228260E1,-7.202396393E-1,2.462214470E0,1.089811039E1
3.103239432E1,-5.575276613E-1,2.255235434E0,1.093998528E1
3.105250609E1,-4.881358147E-1,2.085345030E0,1.025264645E1
3.107261786E1,-4.971089065E-1,2.104487419E0,9.303893089E0
3.109272963E1,-5.688936114E-1,2.214557409E0,8.391031265E0
3.111284135E1,-6.855437160E-1,2.137987137E0,7.695915699E0
3.113295312E1,-8.249256015E-1,2.073380709E0,7.397411346E0
3.115306489E1,-8.877372146E-1,2.120040894E0,7.203592777E0
3.117317666E1,-8.494520187E-1,2.111067772E0,6.925426960E0
3.119328843E1,-7.429714203E-1,1.997408748E0,6.793821812E0
3.121340015E1,-5.910272002E-1,1.948953986E0,6.910471916E0
3.123351192E1,-5.270192027E-1,1.998006940E0,6.934400082E0
3.125362369E1,-6.137589812E-1,2.056631088E0,6.646064758E0
3.127373541E1,-6.939185858E-1,2.158325911E0,6.365506649E0
3.129384718E1,-7.256234884E-1,2.307279348E0,6.363711834E0
3.131395895E1,-6.382854581E-1,2.587239504E0,6.489335060E0
3.133407067E1,-5.000999570E-1,2.907877684E0,6.699305058E0
3.135418244E1,-2.841476798E-1,3.067598581E0,6.860222340E0
3.137429422E1,-1.130608693E-1,3.168097258E0,7.270591736E0
3.139440593E1,-9.571290575E-3,3.288336515E0,7.746763229E0
3.141451770E1,1.770688742E-1,3.265604734E0,8.279764175E0
3.143462948E1,2.985046208E-1,3.166900873E0,9.159127235E0
3.145474119E1,2.117647976E-1,3.093919754E0,1.009651470E1
3.147485296E1,-9.810572863E-2,3.163311481E0,1.030887794E1
3.149496474E1,-4.498506486E-1,3.376272678E0,9.964909554E0
3.151507645E1,-6.532405615E-1,3.585644722E0,9.769894600E0
3.153518823E1,-6.059823632E-1,3.690330744E0,1.017966557E1
3.155530000E1,-5.467599630E-1,3.634697676E0,1.093579769E1
3.157541172E1,-5.066801906E-1,3.615555048E0,1.143470097E1
3.159552348E1,-2.961117923E-1,3.610769272E0,1.184865952E1
3.161563520E1,-6.699903309E-2,3.628117323E0,1.219681549E1
3.163574698E1,2.153540403E-2,3.662214994E0,1.199103260E1
3.165585875E1,2.769692242E-1,3.592823267E0,1.162792206E1
3.167597047E1,5.611169338E-1,3.381058455E0,1.166800117E1
3.169608224E1,6.777670383E-1,3.039483070E0,1.208195972E1
3.171619395E1,8.237292171E-1,2.598007202E0,1.232184029E1
3.173630572E1,9.846464992E-1,2.285743713E0,1.221835041E1
3.175641750E1,1.201795220E0,1.997408748E0,1.190967655E1
3.177652922E1,1.326820135E0,1.858624935E0,1.183250809E1
3.179664098E1,1.102493048E0,1.913659930E0,1.142871952E1
3.181675270E1,9.002995491E-1,1.852642894E0,1.090349483E1
3.183686448E1,8.668000102E-1,1.734796405E0,1.061874866E1
3.185697619E1,1.130608678E0,1.634896040E0,1.047338486E1
3.187708796E1,1.314856052E0,1.682154298E0,1.038843918E1
3.189719968E1,1.151545882E0,1.736590981E0,1.002413273E1
3.191731145E1,9.080761671E-1,1.797009826E0,9.213563919E0
3.193742317E1,7.214360237E-1,1.962712765E0,8.062616348E0
3.195753494E1,5.228317380E-1,2.043470621E0,6.940382004E0
3.197764666E1,2.530409992E-1,2.118246317E0,6.119045734E0
3.199775843E1,1.238285750E-1,2.273181438E0,5.808577061E0
3.201787015E1,2.201396823E-1,2.314457655E0,5.812764645E0
3.203798192E1,3.535395563E-1,2.286342144E0,6.089733601E0
3.205809364E1,2.512463629E-1,2.246262312E0,6.674180508E0
3.207820541E1,-3.589233849E-3,2.239083767E0,6.940382004E0
3.209831713E1,-2.368894368E-1,2.299502611E0,6.924230576E0
3.211842890E1,-2.177468538E-1,2.435893536E0,7.064808846E0
3.213854062E1,-5.144568533E-2,2.615355253E0,7.316055298E0
3.215865239E1,1.465603858E-1,2.856431961E0,7.539186001E0
3.217876411E1,3.690928817E-1,3.055634499E0,7.822735310E0
3.219887588E1,6.382854581E-1,3.219542980E0,8.391629219E0
3.221898760E1,7.603194118E-1,3.314059258E0,9.062815666E0
3.223909932E1,7.375875711E-1,3.348157167E0,9.371489525E0
3.225921109E1,4.426721931E-1,3.453441381E0,9.406186104E0
3.227932281E1,2.464607358E-1,3.695116282E0,9.547960281E0
3.229943458E1,2.937189937E-1,3.780061483E0,9.946365356E0
3.231954630E1,4.301098585E-1,3.531806231E0,1.084187984E1
3.233965802E1,4.336991012E-1,3.312264681E0,1.174397373E1
3.235976979E1,3.230310678E-1,3.412165165E0,1.176491070E1
3.237988151E1,1.746760458E-1,3.708875179E0,1.106979561E1
3.239999328E1,1.196411327E-1,4.003790379E0,1.040279675E1
3.242010500E1,-6.879365444E-2,4.176073551E0,1.027178955E1
3.244021672E1,-4.115654826E-1,4.064209461E0,1.110090256E1
3.246032849E1,-4.205385745E-1,3.693321705E0,1.239063358E1
3.248044020E1,-8.793623000E-2,3.049054146E0,1.332383442E1
3.250055192E1,2.889333367E-1,2.367099762E0,1.395553970E1
3.252066369E1,2.392822653E-1,1.856830359E0,1.428933907E1
3.254077541E1,-3.170489967E-1,1.865205288E0,1.340100288E1
3.256088713E1,-1.222732425E0,2.487339020E0,1.144965649E1
3.258099890E1,-1.571486235E0,2.848655462E0,9.686744690E0
3.260111062E1,-9.960124493E-1,2.736192703E0,9.253045082E0
3.262122234E1,-1.525424421E-1,2.310868502E0,1.022991467E1
3.264133411E1,-3.601198196E-1,1.902294040E0,1.099083233E1
3.266144583E1,-9.397810698E-1,1.742573142E0,1.090050316E1
3.268155755E1,-8.243274093E-1,1.766501307E0,1.003190899E1
3.270166932E1,-5.264209956E-2,1.791625977E0,9.091529846E0
3.272178104E1,6.095715761E-1,1.649253011E0,8.734998703E0
3.274189276E1,5.832505226E-1,1.426720500E0,8.894720078E0
3.276200448E1,7.058826834E-2,1.496112347E0,8.488538742E0
3.278211625E1,-1.686939895E-1,1.732403636E0,7.499105930E0
3.280222796E1,1.453639716E-1,1.926222205E0,6.353542328E0
3.282233968E1,6.287141442E-1,1.996810555E0,5.918048382E0
3.284245140E1,8.410771489E-1,1.898106575E0,6.391229153E0
3.286256312E1,3.726821244E-1,1.814357758E0,6.956533432E0
3.288267489E1,-3.266202807E-1,1.780858278E0,6.798008919E0
3.290278661E1,-4.737788737E-1,1.890928149E0,6.281159401E0
3.292289833E1,-1.136590764E-1,2.300100803E0,6.180660725E0
3.294301005E1,1.764706671E-1,2.732603550E0,6.762714863E0
3.296312182E1,-3.888336942E-2,2.909672260E0,7.216155052E0
3.298323354E1,-3.332005441E-1,2.960519791E0,7.739584923E0
3.300334526E1,-5.718846321E-1,3.171088219E0,8.457431793E0
3.302345698E1,-7.698906660E-1,3.440878868E0,8.730213165E0
3.304356869E1,-7.998009920E-1,3.702294827E0,8.821140289E0
3.306368047E1,-8.662018180E-1,3.924229145E0,9.586245537E0
3.308379218E1,-9.290133715E-1,3.957130432E0,1.112483025E1
3.310390390E1,-9.619147182E-1,3.802195072E0,1.293799210E1
3.312401562E1,-9.822536707E-1,3.596412420E0,1.382991695E1
3.314412734E1,-8.781659007E-1,3.695714474E0,1.357926846E1
3.316423906E1,-3.744767308E-1,3.729812384E0,1.354696560E1
3.318435083E1,1.375873014E-2,3.704089403E0,1.324427319E1
3.320446255E1,-2.057827413E-1,3.668197155E0,1.207717419E1
3.322457427E1,-1.531406492E-1,3.172284603E0,1.167159081E1
3.324468599E1,3.278166950E-1,2.614757061E0,1.264247799E1
3.326479770E1,9.020941257E-1,1.844866276E0,1.346201992E1
3.328490942E1,7.441678643E-1,1.491326690E0,1.258026505E1
3.330502114E1,4.169493318E-1,1.624726534E0,1.092622662E1
3.332513286E1,4.923232496E-1,1.704287887E0,1.002473068E1
3.334524458E1,7.016952634E-1,1.694118381E0,9.673583984E0
3.336535630E1,1.146760225E0,1.571486235E0,9.878170013E0
3.338546802E1,1.263410330E0,1.592423439E0,9.688538551E0
3.340557979E1,1.142572761E0,1.631905079E0,8.987442017E0
3.342569151E1,1.055832982E0,1.631905079E0,8.298309326E0
3.344580317E1,9.068797827E-1,1.589432478E0,7.846663475E0
3.346591494E1,6.215356588E-1,1.474576950E0,7.520641804E0
3.348602666E1,4.331009090E-1,1.456032634E0,7.003791809E0
3.350613838E1,1.962114573E-1,1.669592023E0,6.436094761E0
3.352625010E1,3.589233849E-3,1.878963947E0,6.036493301E0
3.354636182E1,-1.878365725E-1,1.948953986E0,5.950950146E0
3.356647354E1,-2.033899277E-1,1.983649969E0,6.370292187E0
3.358658526E1,-2.536391914E-1,2.180459738E0,7.039085865E0
3.360669698E1,-3.409772217E-1,2.408974171E0,7.389634609E0
3.362680869E1,-3.499503136E-1,2.569293261E0,7.481160164E0
3.364692041E1,-1.561316848E-1,2.587239504E0,7.759923935E0
3.366703213E1,1.555334777E-1,2.617748022E0,8.248059273E0
3.368714385E1,3.314059377E-1,2.657229662E0,8.626724243E0
3.370725557E1,1.926222295E-1,2.688336134E0,9.013762474E0
3.372736729E1,-2.644068897E-1,2.778067112E0,9.463015556E0
3.374747901E1,-4.253242314E-1,2.885145903E0,9.588638306E0
3.376759067E1,-4.283152521E-1,3.027518749E0,9.404391289E0
3.378770239E1,-4.504488707E-1,3.095714331E0,9.546165466E0
3.380781411E1,-3.314059377E-1,2.985046148E0,1.022512913E1
3.382792583E1,-1.244267747E-1,2.877967358E0,1.121456146E1
3.384803755E1,-2.344966233E-1,2.956332445E0,1.202094269E1
3.386814927E1,-7.812566161E-1,3.320639610E0,1.168953705E1
3.388826098E1,-1.355534077E0,3.813561201E0,1.060499001E1
3.390837270E1,-1.036690354E0,4.124029636E0,1.043031406E1
3.392848442E1,-4.277170599E-1,3.928416491E0,1.158425236E1
3.394859614E1,-2.817548811E-1,3.544966698E0,1.306241894E1
3.396870786E1,-6.275177598E-1,3.182454109E0,1.394656658E1
3.398881953E1,-7.238288522E-1,2.700898647E0,1.448554993E1
3.400893125E1,-5.395814776E-1,2.298306227E0,1.454297829E1
3.402904296E1,-6.855437160E-1,2.215753794E0,1.350329685E1
3.404915468E1,-1.004985452E0,2.293520451E0,1.169252777E1
3.406926640E1,-1.319641709E0,2.412563324E0,1.029452133E1
3.408937812E1,-1.447059512E0,2.312064886E0,9.876974106E0
3.410948984E1,-1.255035520E0,1.928016901E0,1.039801121E1
3.412960151E1,-9.984052777E-1,1.526620865E0,1.076770210E1
3.414971322E1,-8.051848412E-1,1.174875975E0,1.038604641E1
3.416982494E1,-6.646065116E-1,9.547362328E-1,9.631709099E0
3.418993666E1,-5.928218365E-1,9.720842242E-1,8.649456024E0
3.421004838E1,-4.336991012E-1,1.070189953E0,7.415357590E0
3.423016010E1,-4.031906128E-1,1.167697430E0,5.898906231E0
3.425027177E1,-4.313062727E-1,1.349551916E0,4.840082169E0
3.427038348E1,-6.317051649E-1,1.602592945E0,4.414757729E0
3.429049520E1,-8.177471161E-1,1.733600020E0,4.795814991E0
3.431060692E1,-9.038887620E-1,1.929213285E0,5.566901684E0
3.433071859E1,-9.349954724E-1,2.138585329E0,6.238687038E0
3.435083031E1,-1.052842021E0,2.566302299E0,6.629314899E0
3.437094203E1,-1.145563841E0,2.998206854E0,6.665207386E0
3.439105375E1,-1.143171072E0,3.115455151E0,6.539584160E0
3.441116541E1,-9.302098155E-1,3.055634499E0,7.098308563E0
3.443127713E1,-5.485545993E-1,3.005983353E0,8.224131584E0
3.445138885E1,-3.439682424E-1,2.894119024E0,9.420542717E0
3.447150057E1,-3.936193287E-1,2.727817774E0,1.051286602E1
3.449161224E1,-6.598208547E-1,2.820539713E0,1.105543900E1
3.451172395E1,-9.625129104E-1,3.151347399E0,1.060678482E1
3.453183567E1,-8.787640929E-1,3.270390272E0,1.025085258E1
3.455194739E1,-7.459624410E-1,3.207578659E0,1.108116150E1
3.457205906E1,-7.800601721E-1,3.205185890E0,1.176072311E1
3.459217078E1,-8.087740541E-1,3.165106058E0,1.241815090E1
3.461228250E1,-7.477570772E-1,3.086741209E0,1.314018536E1
3.463239416E1,-3.326023519E-1,3.103491068E0,1.357149220E1
3.465250588E1,3.272185028E-1,3.159124136E0,1.304267788E1
3.467261760E1,6.849454641E-1,3.234498024E0,1.224945736E1
3.469272927E1,1.150349498E0,2.947359324E0,1.256351566E1
3.471284098E1,1.229312658E0,2.402393818E0,1.334477234E1
3.473295270E1,9.966106415E-1,1.937588096E0,1.339262867E1
3.475306437E1,8.273184299E-1,1.587039590E0,1.265504074E1
3.477317609E1,3.696911037E-1,1.604985833E0,1.160399342E1
3.479328781E1,6.520441920E-2,1.672582984E0,1.061396313E1
3.481339948E1,1.274178028E-1,1.457827210E0,1.001755238E1
3.483351119E1,3.601198196E-1,1.191027522E0,9.763913155E0
3.485362286E1,5.371887088E-1,1.056431174E0,9.400801659E0
3.487373458E1,5.605186820E-1,1.010369420E0,8.644669533E0
3.489384630E1,5.868397355E-1,9.337990284E-1,7.929814339E0
3.491395796E1,4.797609448E-1,9.906286001E-1,7.954938889E0
3.493406968E1,1.794617027E-1,1.140179992E0,7.829315662E0
3.495418135E1,-1.393819153E-1,1.327418327E0,6.746563435E0
3.497429307E1,-3.158525825E-1,1.654038668E0,5.251049519E0
3.499440479E1,-1.878365725E-1,1.960319996E0,4.268197536E0
3.501451645E1,1.058823988E-1,2.106282234E0,4.550550461E0
3.503462817E1,-3.110669367E-2,2.130808592E0,6.218945980E0
3.505473984E1,-5.066801906E-1,2.155334949E0,7.304689407E0
3.507485156E1,-5.760720372E-1,2.076371908E0,7.564310551E0
3.509496322E1,-3.918247223E-1,2.109273195E0,7.662416458E0
3.511507494E1,-2.003988922E-1,2.288136721E0,7.840681553E0
3.513518661E1,-1.752742529E-1,2.498106956E0,8.186444283E0
3.515529833E1,-3.960121572E-1,2.706880569E0,8.583054543E0
3.517541000E1,-5.916253924E-1,2.645863533E0,8.945567131E0
3.519552172E1,-5.814558864E-1,2.462214470E0,9.516255379E0
3.521563338E1,-4.378865361E-1,2.388635159E0,1.046321487E1
3.523574510E1,-2.991028428E-1,2.414358139E0,1.152861977E1
3.525585677E1,-3.044866920E-1,2.550748825E0,1.211785221E1
3.527596848E1,-4.642075896E-1,2.810968399E0,1.185942745E1
3.529608015E1,-4.833501875E-1,3.095714331E0,1.108415222E1
3.531619187E1,-4.432703853E-1,3.376272678E0,1.090409279E1
3.533630354E1,-6.137589812E-1,3.603590965E0,1.115294647E1
3.535641526E1,-9.954141974E-1,3.619144201E0,1.138026428E1
3.537652692E1,-1.175474167E0,3.215355396E0,1.204846001E1
3.539663864E1,-1.103689432E0,2.677568436E0,1.314317703E1
3.541675031E1,-9.816554785E-1,2.268994093E0,1.384786320E1
3.543686203E1,-4.618147612E-1,1.768894196E0,1.443709564E1
3.545697369E1,-1.190429255E-1,1.515853167E0,1.479183102E1
3.547708536E1,-5.138586760E-1,1.609771490E0,1.370489216E1
3.549719708E1,-1.118644595E0,1.846660852E0,1.152622700E1
3.551730875E1,-1.208973646E0,2.087139606E0,9.777072906E0
3.553742047E1,-9.984052777E-1,2.139781713E0,8.915059090E0
3.555753213E1,-6.179464459E-1,1.790429592E0,9.374481201E0
3.557764380E1,-5.180460811E-1,1.209571838E0,1.001276588E1
3.559775552E1,-5.282155871E-1,7.052844763E-1,9.836296082E0
3.561786718E1,-5.688936114E-1,5.485545993E-1,9.393025398E0
3.563797890E1,-5.407779217E-1,5.892325640E-1,8.849854469E0
3.565809057E1,-5.742774606E-1,7.082754970E-1,7.918448448E0
3.567820224E1,-6.155536175E-1,8.309076428E-1,6.972685337E0
3.569831395E1,-6.400800347E-1,1.001396298E0,6.262016773E0
3.571842562E1,-5.324030519E-1,1.244267821E0,5.906084538E0
3.573853729E1,-3.571287692E-1,1.539781332E0,5.869594097E0
3.575864901E1,-1.668993831E-1,1.842473388E0,5.766702652E0
3.577876067E1,1.453639716E-1,2.121237278E0,5.930012703E0
3.579887234E1,3.349951655E-2,2.405983210E0,6.518647194E0
3.581898406E1,-5.270192027E-1,2.609971285E0,6.898507595E0
3.583909572E1,-1.045663476E0,2.833101988E0,7.003791809E0
3.585920739E1,-1.228116274E0,3.020938635E0,7.440482140E0
3.587931911E1,-8.877372146E-1,3.087339401E0,8.328817368E0
3.589943078E1,-2.201396823E-1,2.892324448E0,9.245268822E0
3.591954244E1,4.725824669E-2,2.648854733E0,1.009172916E1
3.593965416E1,-2.356930375E-1,2.522035122E0,1.073300552E1
3.595976583E1,-9.439685345E-1,2.577668190E0,1.085563850E1
3.597987750E1,-1.390229940E0,2.772683144E0,1.049671459E1
3.599998916E1,-1.431506157E0,3.081955671E0,1.025803089E1
3.602010088E1,-1.253240824E0,3.242872953E0,1.047757244E1
3.604021255E1,-1.080359459E0,3.164507866E0,1.112004471E1
3.606032422E1,-9.487541914E-1,3.011367321E0,1.194497108E1
3.608043588E1,-7.136593461E-1,3.037090063E0,1.266102314E1
3.610054760E1,-3.984049559E-1,3.144168854E0,1.253181076E1
3.612065927E1,-2.560320199E-1,3.217149973E0,1.169312572E1
3.614077093E1,-7.956135273E-2,3.076571703E0,1.163510036E1
3.616088260E1,3.505485058E-1,2.465803623E0,1.279083347E1
3.618099432E1,9.888339639E-1,1.432104349E0,1.435334682E1
3.620110598E1,1.426122308E0,6.915257573E-1,1.589910984E1
3.622121765E1,9.858429432E-1,8.524430394E-1,1.523151207E1
3.624132932E1,3.236292601E-1,1.489532113E0,1.201316643E1
3.626144098E1,3.433700502E-1,2.019542217E0,9.379266739E0
3.628155270E1,4.941178858E-1,2.227717876E0,7.822735310E0
3.630166437E1,8.009973764E-1,1.907079697E0,8.011768341E0
3.632177604E1,7.758727670E-1,1.475773335E0,9.335597992E0
3.634188770E1,3.535395563E-1,1.129412293E0,9.680164337E0
3.636199937E1,4.307080805E-2,1.125823021E0,8.704490662E0
3.638211109E1,1.974078715E-1,1.359721422E0,7.631907940E0
3.640222276E1,3.230310678E-1,1.469791293E0,6.926024914E0
3.642233442E1,2.183450609E-1,1.461416483E0,6.501897335E0
3.644244609E1,-1.597209126E-1,1.542772412E0,6.296712875E0
3.646255776E1,-4.833501875E-1,1.651047587E0,6.088537216E0
3.648266942E1,-6.418746710E-1,1.847259045E0,6.025127411E0
3.650278109E1,-6.101697683E-1,2.114656925E0,6.356533527E0
3.652289281E1,-7.004988194E-1,2.289333105E0,7.032505512E0
3.654300448E1,-7.585247755E-1,2.456232548E0,7.882555962E0
3.656311614E1,-9.649057388E-1,2.693121910E0,7.936394691E0
3.658322781E1,-9.774680734E-1,2.755933523E0,7.239484787E0
3.660333948E1,-7.268198729E-1,2.673381090E0,7.125825882E0
3.662345114E1,-5.048855543E-1,2.606382132E0,8.238488197E0
3.664356281E1,-6.783652306E-1,2.563909531E0,9.294321060E0
3.666367448E1,-8.889335990E-1,2.451446772E0,1.000917721E1
3.668378619E1,-1.050449133E0,2.558525562E0,1.003131104E1
3.670389786E1,-8.003991842E-1,2.717648268E0,9.835099220E0
3.672400953E1,-3.678964674E-1,2.762513638E0,1.021137047E1
3.674412119E1,-1.471585929E-1,2.727219582E0,1.074556828E1
3.676423286E1,1.010967568E-1,2.696711063E0,1.147418308E1
3.678434453E1,1.525424421E-1,2.895913601E0,1.135573769E1
3.680445619E1,-6.400800496E-2,3.127419233E0,1.031127071E1
3.682456786E1,-2.913261652E-1,3.387638569E0,9.960124016E0
3.684467953E1,-5.341976285E-1,3.552743435E0,1.030768204E1
3.686479119E1,-8.410771489E-1,3.347558975E0,1.130189991E1
3.688490286E1,-1.129412293E0,3.113062143E0,1.233260822E1
3.690501453E1,-1.348355532E0,2.979662418E0,1.272144127E1
3.692512619E1,-9.409775138E-1,2.603989124E0,1.288295746E1
3.694523786E1,-5.922235921E-2,2.026720762E0,1.412363529E1
3.696534953E1,4.253242314E-1,1.558923960E0,1.566640759E1
3.698546119E1,7.477571070E-2,1.461416483E0,1.499163246E1
3.700557286E1,-6.568298340E-1,2.002792597E0,1.185165024E1
3.702568453E1,-7.872386575E-1,2.657229662E0,9.195018768E0
3.704579619E1,-5.431707501E-1,2.721835852E0,7.378268719E0
3.706590786E1,7.776673883E-2,2.120040894E0,7.986045361E0
3.708601953E1,7.836493850E-2,1.463809252E0,1.011924744E1
3.710613119E1,-6.257231236E-1,9.475577474E-1,1.068574810E1
3.712624286E1,-1.063609719E0,9.188438654E-1,9.491728783E0
3.714635453E1,-7.435696125E-1,1.096511006E0,8.171489716E0
3.716646619E1,-1.220339537E-1,1.112064362E0,8.081160545E0
3.718657786E1,-9.152546525E-2,1.161715388E0,8.558527946E0
3.720668953E1,-2.446661144E-1,1.177866936E0,8.396414757E0
3.722680119E1,-3.373879790E-1,1.224527001E0,7.584649563E0
3.724691286E1,-4.061816335E-1,1.380060434E0,6.900302410E0
3.726702453E1,-7.178468257E-2,1.387837172E0,6.939185619E0
3.728713614E1,3.409772366E-2,1.317248821E0,7.298707485E0
3.730724781E1,-2.219343036E-1,1.341775298E0,7.452445984E0
3.732735948E1,-4.648058116E-1,1.436890006E0,7.324429989E0
3.734747114E1,-5.359922647E-1,1.565504193E0,7.066603661E0
3.736758281E1,-6.299105883E-1,1.841277003E0,6.899703979E0
3.738769448E1,-7.507480979E-1,2.027318954E0,6.825526714E0
3.740780614E1,-1.159322619E0,2.044068813E0,7.440482140E0
3.742791781E1,-1.276570916E0,2.017747641E0,8.340781212E0
3.744802948E1,-1.270588875E0,2.211566210E0,8.899505615E0
3.746814114E1,-9.589236975E-1,2.557329178E0,9.067601204E0
3.748825276E1,-5.910272002E-1,2.796013355E0,9.456435204E0
3.750836442E1,-7.633104324E-1,2.907279491E0,1.018325520E1
3.752847609E1,-1.378265858E0,2.797807932E0,1.088674450E1
3.754858776E1,-1.831705689E0,2.599801779E0,1.146640587E1
3.756869942E1,-2.225923300E0,2.752344131E0,1.206461143E1
3.758881109E1,-2.490928411E0,3.229712248E0,1.233380413E1
3.760892276E1,-2.243869543E0,3.627519131E0,1.168893814E1
3.762903437E1,-1.543968797E0,3.350549936E0,1.155673504E1
3.764914604E1,-8.315058947E-1,2.570489645E0,1.266939735E1
3.766925770E1,-4.528416991E-1,2.365903378E0,1.285962677E1
3.768936937E1,-1.978266120E0,2.413759947E0,1.284706497E1
3.770948104E1,-2.209771633E0,1.118644595E0,1.417209053E1
3.772959270E1,-1.058824062E0,4.331009090E-1,1.534816265E1
3.774970432E1,9.571290575E-3,2.991028363E-3,1.570648766E1
3.776981598E1,-1.268195957E-1,3.499503136E-1,1.406620789E1
3.778992765E1,-6.119644046E-1,7.393822074E-1,1.165723324E1
3.781003932E1,-2.955136001E-1,3.960121572E-1,1.097827053E1
3.783015093E1,-1.333998591E-1,4.695914388E-1,1.150768185E1
3.785026260E1,-1.208375469E-1,7.399803996E-1,1.113858986E1
3.787037427E1,-1.794617027E-1,9.858429432E-1,9.565906525E0
3.789048593E1,-1.740778536E-1,1.219143152E0,7.820940971E0
3.791059760E1,-1.914258115E-2,1.290927768E0,6.641279221E0
3.793070922E1,5.623133108E-2,1.335793257E0,5.874977589E0
3.795082088E1,-1.184447184E-1,1.401595831E0,5.027320385E0
3.797093255E1,-2.943171859E-1,1.476371527E0,4.286741734E0
3.799104422E1,-3.966103494E-1,1.641476393E0,4.173680782E0
3.801115583E1,-3.242274821E-1,1.788036704E0,4.637888432E0
3.803126750E1,-2.973082066E-1,1.767697692E0,5.434698582E0
3.805137916E1,-5.096712112E-1,1.892124534E0,6.367899418E0
3.807149083E1,-7.704889178E-1,2.219941139E0,6.984051228E0
3.809160244E1,-6.945167780E-1,2.609971285E0,6.985845566E0
3.811171411E1,-4.857429862E-1,3.184248686E0,6.509674072E0
3.813182578E1,-7.956135273E-2,3.390629768E0,6.586842537E0
3.815193739E1,1.417747438E-1,3.067000389E0,7.669594765E0
3.817204906E1,1.220339537E-1,2.562713146E0,9.471389771E0
3.819216072E1,-1.256231815E-1,2.258824587E0,1.130249786E1
3.821227234E1,-8.889335990E-1,2.435893536E0,1.206341553E1
3.823238401E1,-1.158126116E0,2.819941521E0,1.105304623E1
3.825249567E1,-3.367897868E-1,3.088535786E0,1.041476059E1
3.827260729E1,6.340979785E-2,3.324826956E0,1.141615677E1
3.829271895E1,-3.535395563E-1,3.512065411E0,1.255693531E1
3.831283062E1,-1.299900889E0,3.633501291E0,1.222792149E1
3.833294229E1,-1.566102386E0,3.494119167E0,1.178704453E1
3.835305390E1,-1.064806104E0,3.144767046E0,1.283091354E1
3.837316557E1,-5.653043389E-1,2.498705149E0,1.424327660E1
3.839327718E1,-9.523434043E-1,1.945963025E0,1.478345680E1
3.841338885E1,-1.536790371E0,1.539183140E0,1.422353554E1
3.843350052E1,-1.681556106E0,1.505085468E0,1.252881908E1
3.845361213E1,-1.598405480E0,1.593021631E0,1.106201935E1
3.847372380E1,-1.233500123E0,1.481157184E0,1.087896824E1
3.849383547E1,-1.127019525E0,1.392024517E0,1.151306629E1
3.851394708E1,-1.182652593E0,1.030708313E0,1.112961674E1
3.853405875E1,-1.055234790E0,7.980063558E-1,9.970293999E0
3.855417036E1,-9.385846853E-1,8.787640929E-1,8.859425545E0
3.857428203E1,-8.309076428E-1,9.254241586E-1,7.632505894E0
3.859439369E1,-6.723831892E-1,9.667003751E-1,6.337390900E0
3.861450531E1,-4.235295951E-1,9.667003751E-1,5.806184292E0
3.863461698E1,-3.266202807E-1,1.018146038E0,6.372086525E0
3.865472859E1,-5.712863803E-1,1.176670551E0,6.508477688E0
3.867484026E1,-7.447660565E-1,1.380658627E0,6.153143406E0
3.869495187E1,-5.593222976E-1,1.716252089E0,5.956932068E0
3.871506354E1,-2.141576260E-1,2.142174482E0,6.243472576E0
3.873517520E1,-2.476571500E-1,2.473580360E0,6.528816700E0
3.875528682E1,-7.154539824E-1,2.652443886E0,6.786643028E0
3.877539849E1,-1.015753269E0,2.781656265E0,7.249056339E0
3.879551010E1,-9.314061999E-1,2.939582586E0,7.814360619E0
3.881562177E1,-4.983053207E-1,2.827718258E0,8.270193100E0
3.883573338E1,-3.583251834E-1,2.609373093E0,8.992227554E0
3.885584505E1,-4.271188378E-1,2.553740025E0,9.948758125E0
3.887595666E1,-4.701896608E-1,2.544168711E0,1.065643597E1
3.889606833E1,-4.606183469E-1,2.672184706E0,1.085743237E1
3.891618000E1,-4.600201547E-1,2.947359324E0,1.052243805E1
3.893629161E1,-3.487538993E-1,3.089133978E0,1.063789082E1
3.895640328E1,-3.326023519E-1,3.119642496E0,1.143829060E1
3.897651489E1,-4.097708762E-1,3.074777126E0,1.209452248E1
3.899662656E1,-4.666004181E-1,3.168097258E0,1.218903828E1
3.901673817E1,-5.557330847E-1,3.421736479E0,1.162911797E1
3.903684984E1,-4.043870270E-1,3.524627686E0,1.102732277E1
3.905696145E1,-2.153540403E-2,3.383451223E0,1.117747307E1
3.907707312E1,1.866401732E-1,2.944368362E0,1.227458191E1
3.909718474E1,1.435693651E-1,2.368296146E0,1.330170155E1
3.911729640E1,1.764706671E-1,1.841277003E0,1.366780281E1
3.913740802E1,3.445664644E-1,1.399801254E0,1.390828133E1
3.915751963E1,3.463610709E-1,1.261615753E0,1.362114334E1
3.917763130E1,9.032905847E-2,1.464407444E0,1.204008579E1
3.919774291E1,-2.991028316E-2,1.730608940E0,1.014377308E1
3.921785458E1,1.627119333E-1,1.711466432E0,8.648857117E0
3.923796619E1,7.298108935E-1,1.631905079E0,8.352147102E0
3.925807786E1,9.505487680E-1,1.576271892E0,9.106484413E0
3.927818948E1,4.420739710E-1,1.478166223E0,8.927022934E0
3.929830114E1,-2.871387079E-2,1.518245935E0,8.091927528E0
3.931841276E1,1.016949583E-2,1.621735573E0,7.376473904E0
3.933852442E1,1.609173268E-1,1.726421595E0,6.921837807E0
3.935863604E1,3.349951655E-2,1.801795483E0,6.919445038E0
3.937874765E1,-2.368894368E-1,1.841875196E0,6.981060028E0
3.939885932E1,-3.110669553E-1,1.938784599E0,6.789036274E0
3.941897093E1,-2.009970993E-1,2.084746838E0,6.591628075E0
3.943908260E1,-1.040877849E-1,2.268994093E0,6.687341213E0
3.945919422E1,-1.794617027E-1,2.467598438E0,6.879364967E0
3.947930583E1,-3.750749528E-1,2.537588358E0,6.995417118E0
3.949941750E1,-5.186443329E-1,2.599801779E0,7.379465103E0
3.951952911E1,-4.827519655E-1,2.762513638E0,8.047660828E0
3.953964078E1,-1.513460279E-1,2.834298372E0,8.415556908E0
3.955975239E1,8.733802289E-2,2.807977438E0,8.629714966E0
3.957986401E1,1.914258152E-1,2.683550596E0,9.179466248E0
3.959997567E1,-1.010967568E-1,2.655434847E0,9.820143700E0
3.962008729E1,-6.113662124E-1,2.667398930E0,1.010189915E1
3.964019895E1,-9.571290612E-1,2.766103029E0,9.923633575E0
3.966031057E1,-7.447660565E-1,2.897109985E0,9.883553505E0
3.968042218E1,-3.804588020E-1,2.930609465E0,1.029033375E1
3.970053385E1,-3.792623878E-1,2.922832966E0,1.098903847E1
3.972064547E1,-3.864408433E-1,2.918645382E0,1.170389366E1
3.974075708E1,-7.908278704E-1,3.175275564E0,1.184806156E1
3.976086875E1,-1.225723386E0,3.519842148E0,1.180857944E1
3.978098036E1,-1.115055323E0,3.587439299E0,1.209392357E1
3.980109198E1,-8.129615188E-1,3.536591768E0,1.230269718E1
3.982120364E1,-6.173482537E-1,3.289532900E0,1.211785221E1
3.984131526E1,-3.074777126E-1,2.611765862E0,1.224227905E1
3.986142687E1,2.991028316E-2,1.803590059E0,1.329093361E1
3.988153854E1,-6.083751321E-1,1.372882009E0,1.392503166E1
3.990165015E1,-1.744367719E0,1.408176184E0,1.250369453E1
3.992176177E1,-2.079961061E0,1.671386600E0,1.018863869E1
3.994187343E1,-1.659422517E0,1.634896040E0,7.796414375E0
3.996198505E1,-3.894318938E-1,1.363310695E0,7.629515171E0
3.998209666E1,5.066801906E-1,9.948160052E-1,9.571888924E0
4.000220833E1,-1.405783296E-1,4.097708762E-1,1.114516926E1
4.002231994E1,-1.487737536E0,1.112662554E-1,1.124865913E1
4.004243156E1,-1.975275040E0,4.731806815E-1,1.000199890E1
4.006254317E1,-1.525424480E0,9.433703423E-1,8.267800331E0
4.008265484E1,-9.481559992E-1,1.354337573E0,6.866802692E0
4.010276645E1,-6.711867452E-1,1.657627940E0,6.123233318E0
4.012287807E1,-7.866404653E-1,1.862214208E0,6.146563053E0
4.014298968E1,-1.272383451E0,1.727617979E0,6.768098831E0
4.016310135E1,-1.348953724E0,1.467398524E0,7.459624767E0
4.018321296E1,-1.104885817E0,1.610369682E0,7.752745152E0
4.020332458E1,-7.262216806E-1,1.999203324E0,7.604988575E0
4.022343619E1,-5.371887088E-1,2.421536446E0,7.322037220E0
4.024354786E1,-3.332005441E-1,2.520240545E0,7.342974663E0
4.026365948E1,-1.710868180E-1,2.456830740E0,7.950751305E0
4.028377109E1,-1.597209126E-1,2.467000246E0,8.678169250E0
4.030388270E1,-1.148554832E-1,2.390429735E0,9.183054924E0
4.032399432E1,-8.374879509E-2,2.468196630E0,9.034101486E0
4.034410598E1,-2.267199457E-1,2.685345173E0,8.960522652E0
4.036421760E1,-5.856433511E-1,2.684148788E0,9.276973724E0
4.038432922E1,-8.416753411E-1,2.540579557E0,9.678967476E0
4.040444083E1,-8.494520187E-1,2.365903378E0,1.041476059E1
4.042455250E1,-1.040877819E0,2.262413740E0,1.119362450E1
4.044466411E1,-1.230509043E0,2.137987137E0,1.189711380E1
4.046477572E1,-1.543968797E0,2.312064886E0,1.226202011E1
4.048488734E1,-1.444068432E0,2.507079840E0,1.192642593E1
4.050499895E1,-1.141974568E0,2.568695068E0,1.177268696E1
4.052511057E1,-1.240678549E0,2.647060156E0,1.200778198E1
4.054522224E1,-9.433703423E-1,2.233700037E0,1.233320618E1
4.056533385E1,-3.158525825E-1,1.774278045E0,1.323051453E1
4.058544546E1,3.750749528E-1,1.482353687E0,1.416431332E1
4.060555708E1,7.986045480E-1,1.272981644E0,1.459382534E1
4.062566869E1,7.004988194E-1,1.248455167E0,1.395374489E1
4.064578036E1,4.217349887E-1,1.461416483E0,1.227039433E1
4.066589198E1,2.751746178E-1,1.714457393E0,1.068933678E1
4.068600359E1,3.343969584E-1,1.804188251E0,9.760323524E0
4.070611520E1,4.408775866E-1,1.741376638E0,9.282357216E0
4.072622682E1,5.994020700E-1,1.697109461E0,9.430113792E0
4.074633843E1,6.681957245E-1,1.664806366E0,9.550951958E0
4.076645010E1,4.749752879E-1,1.514058471E0,8.935996056E0
4.078656172E1,2.614158690E-1,1.521835208E0,8.184649467E0
4.080667333E1,1.555334684E-2,1.599003673E0,7.409375191E0
4.082678494E1,-1.112662554E-1,1.713261008E0,6.692126751E0
4.084689656E1,1.734796353E-2,1.748555183E0,6.060421467E0
4.086700817E1,1.854437590E-1,1.765304923E0,5.737390518E0
4.088711979E1,5.982056633E-2,1.875972986E0,5.709274769E0
4.090723140E1,-1.591227055E-1,1.957328916E0,5.939583778E0
4.092734302E1,-3.242274821E-1,2.023729801E0,6.311069489E0
4.094745468E1,-5.168496966E-1,2.154736757E0,6.836892605E0
4.096756630E1,-7.824530005E-1,2.453241348E0,6.979265213E0
4.098767791E1,-8.644071817E-1,2.656033039E0,7.212565422E0
4.100778953E1,-6.161518097E-1,2.763710260E0,7.754539967E0
4.102790114E1,-5.383851007E-2,2.730210543E0,8.277371407E0
4.104801276E1,2.243271172E-1,2.531008244E0,8.824729919E0
4.106812437E1,2.811566554E-2,2.408375978E0,9.329615593E0
4.108823599E1,-3.780659735E-1,2.417947292E0,9.705886841E0
4.110834760E1,-6.801598072E-1,2.450250387E0,9.987043381E0
4.112845922E1,-7.130611539E-1,2.548356056E0,1.027119160E1
4.114857088E1,-5.503492355E-1,2.619542599E0,1.036331463E1
4.116868250E1,-3.080759048E-1,2.755933523E0,1.036750221E1
4.118879411E1,-2.321037948E-1,2.927020311E0,1.055234814E1
4.120890572E1,-2.697907388E-1,2.930609465E0,1.101117134E1
4.122901734E1,-3.990031779E-1,2.906083107E0,1.187557888E1
4.124912895E1,-6.053841114E-1,2.986242771E0,1.239841080E1
4.126924057E1,-8.404789567E-1,2.909074068E0,1.197727394E1
4.128935218E1,-1.085743308E0,3.005385160E0,1.155015469E1
4.130946380E1,-1.274776220E0,3.276970625E0,1.154536915E1
4.132957541E1,-1.682154298E0,3.382254839E0,1.182353497E1
4.134968703E1,-1.592423439E0,2.922832966E0,1.253779221E1
4.136979864E1,-5.359922647E-1,1.913659930E0,1.393879032E1
4.138991026E1,1.238285750E-1,1.077368379E0,1.632443428E1
4.141002187E1,-8.177471161E-1,9.403793216E-1,1.705484390E1
4.143013348E1,-1.897508383E0,1.272383451E0,1.374856091E1
4.145024510E1,-1.839482427E0,1.969292998E0,1.046142101E1
4.147035672E1,-1.363908887E0,2.172084808E0,8.335995674E0
4.149046833E1,-7.447660565E-1,1.893320918E0,8.196614265E0
4.151057994E1,-5.730810165E-1,1.526022673E0,9.455837250E0
4.153069156E1,-9.302098155E-1,1.106680512E0,9.428318977E0
4.155080317E1,-1.097109199E0,8.464609981E-1,8.359326363E0
4.157091479E1,-9.188438654E-1,8.536394835E-1,7.424928665E0
4.159102640E1,-6.622136831E-1,1.082154036E0,6.373282909E0
4.161113802E1,-5.593222976E-1,1.377069473E0,5.436492920E0
4.163124963E1,-6.693921089E-1,1.597807288E0,5.188836098E0
4.165136125E1,-9.702895880E-1,1.667797327E0,5.371886730E0
4.167147286E1,-1.021735311E0,1.667797327E0,5.870192051E0
4.169158448E1,-8.452646136E-1,1.818545222E0,6.763911247E0
4.171169609E1,-6.161518097E-1,2.048854351E0,7.394420147E0
4.173180770E1,-5.754738450E-1,2.261815548E0,7.235297680E0
4.175191932E1,-7.483552694E-1,2.314457655E0,7.043273449E0
4.177203093E1,-9.672985673E-1,2.398804665E0,7.294519901E0
4.179214255E1,-9.786644578E-1,2.397608280E0,7.719245911E0
4.181225416E1,-8.279166222E-1,2.320439816E0,8.291728973E0
4.183236578E1,-9.230313301E-1,2.319243431E0,8.919844627E0
4.185247734E1,-1.083948612E0,2.419741869E0,9.110074043E0
4.187258895E1,-1.028315544E0,2.579462767E0,9.129815102E0
4.189270057E1,-1.060618639E0,2.737987280E0,9.344570160E0
4.191281218E1,-1.268794179E0,2.840878725E0,9.613164902E0
4.193292380E1,-1.483550072E0,2.888136864E0,9.967901230E0
4.195303541E1,-1.485942841E0,3.006581545E0,1.047218800E1
4.197314703E1,-1.197607756E0,2.909074068E0,1.104048347E1
