"Time (s)","Acceleration x (m/s^2)","Acceleration y (m/s^2)","Acceleration z (m/s^2)"
3.619901500E-2,-1.101894855E0,6.939784050E0,6.510870457E0
5.621339000E-2,-5.563312769E-1,6.695715904E0,6.807580471E0
7.584292100E-2,-2.140978098E0,6.786643028E0,7.243073940E0
9.566474400E-2,-3.428914785E0,6.293123722E0,8.229515076E0
1.154866190E-1,-3.041277647E0,5.824130535E0,8.133802414E0
1.353084420E-1,-2.160120726E0,5.809773445E0,6.970292568E0
1.553227650E-1,-2.308475733E0,6.230910301E0,6.304489613E0
1.749523480E-1,-2.658426046E0,6.350551128E0,6.371488571E0
1.949666710E-1,-2.979064226E0,6.183053493E0,6.606583118E0
2.145962550E-1,-2.969492912E0,5.924628735E0,6.184848309E0
2.344180250E-1,-2.797209740E0,6.178267956E0,6.050850391E0
2.544323480E-1,-2.658426046E0,6.331408501E0,6.999006271E0
2.740619320E-1,-2.859423161E0,6.187839508E0,7.621738434E0
2.938837030E-1,-2.897708178E0,6.044270039E0,7.477570534E0
3.137054730E-1,-2.825923443E0,6.139982700E0,6.941578388E0
3.335274000E-1,-2.883351326E0,6.364908218E0,6.510870457E0
3.535417230E-1,-2.821137905E0,6.479763508E0,6.888936520E0
3.731712550E-1,-2.327618122E0,6.369693756E0,7.290930748E0
3.929930780E-1,-1.992623091E0,5.962913990E0,6.428916454E0
4.128149530E-1,-2.423331022E0,5.819344521E0,5.754140377E0
4.326367750E-1,-2.620140791E0,6.600003242E0,6.520441532E0
4.526510980E-1,-1.839482427E0,6.834499836E0,7.472784996E0
4.722806820E-1,-1.010967612E0,6.647859573E0,8.603393555E0
4.921025050E-1,-7.908278704E-1,6.384050846E0,9.690333366E0
5.119243280E-1,-1.365105271E0,5.594419479E0,9.469595909E0
5.317461500E-1,-1.719841242E0,5.867201328E0,9.110671997E0
5.517605780E-1,-9.631111026E-1,5.508277893E0,8.473583221E0
5.713901090E-1,6.604190469E-1,5.527420521E0,8.310871124E0
5.912119320E-1,9.810572863E-1,6.130411625E0,9.254241943E0
6.110337550E-1,3.008974493E-1,6.039484501E0,1.003968525E1
6.308555780E-1,1.716850251E-1,5.220541000E0,9.512666702E0
6.508700050E-1,6.269195080E-1,4.171886444E0,8.296514511E0
6.704995360E-1,-6.041877270E-1,4.320241451E0,7.089933395E0
6.903213590E-1,-1.695913076E0,4.277170658E0,7.545167923E0
7.101431820E-1,-1.307677627E0,3.808177233E0,8.038089752E0
7.299650050E-1,-2.356332064E0,4.698905468E0,8.239086151E0
7.499793800E-1,-3.141776085E0,4.971687317E0,8.033304214E0
7.696089110E-1,-3.333201885E0,5.057828903E0,8.100302696E0
7.896232860E-1,-2.711068153E0,5.344967365E0,9.474381447E0
8.092528170E-1,-2.375474691E0,5.220541000E0,1.063310528E1
8.290745880E-1,-2.399402857E0,5.201398373E0,1.036032391E1
8.488580250E-1,-3.285345554E0,5.900700569E0,1.050389290E1
8.687181820E-1,-2.988635540E0,5.867201328E0,1.153340530E1
8.887325570E-1,1.286142170E-1,6.504290104E0,1.275972652E1
9.083620880E-1,2.517847538E0,6.911069870E0,1.278365517E1
9.281839110E-1,7.848458290E-1,6.369693756E0,1.105005455E1
9.480057860E-1,-2.270190477E0,6.168696880E0,8.962317467E0
9.678276090E-1,-1.211964726E0,2.936591625E0,9.225527763E0
9.878034420E-1,-2.461616278E0,4.473979950E0,1.121755219E1
1.007471463E0,1.668993831E-1,4.823332310E0,1.202213955E1
1.027293338E0,1.330409408E0,4.584050179E0,1.044167995E1
1.047115161E0,7.848458290E-1,3.525824070E0,9.215956688E0
1.066936984E0,7.896314859E-1,2.472383976E0,8.632107735E0
1.086951307E0,-8.673982322E-2,3.214159012E0,7.947162151E0
1.106580890E0,-3.403790295E-1,3.271586657E0,5.653641701E0
1.126402713E0,-1.298106313E-1,3.209373474E0,3.575475216E0
1.146224588E0,-1.049252748E0,3.918246984E0,2.986242771E0
1.166046411E0,-1.633699656E0,5.115256786E0,3.604189157E0
1.186060786E0,-1.087537885E0,5.608776093E0,4.288536549E0
1.205690317E0,7.752745152E-1,5.148756027E0,5.432903767E0
1.225512140E0,2.484348059E0,4.329812527E0,8.114660263E0
1.245333963E0,2.498705149E0,3.918246984E0,9.282955170E0
1.265348286E0,2.058425665E0,3.889533281E0,8.196015358E0
1.285170317E0,1.666002750E0,4.076173306E0,6.275775433E0
1.304799953E0,6.843472719E-1,4.684548378E0,4.638486862E0
1.324621671E0,-2.638086975E-1,5.551348686E0,4.369892120E0
1.344443442E0,-6.137589812E-1,6.662216663E0,5.462215900E0
1.364226880E0,-1.680957973E-1,6.839285374E0,6.836294174E0
1.384279536E0,3.056831062E-1,6.686144829E0,8.377870560E0
1.403909119E0,1.860419661E-1,6.968497753E0,9.685547829E0
1.423730942E0,3.008974493E-1,7.773084164E0,1.122712421E1
1.443552765E0,6.987041831E-1,8.179863930E0,1.259641647E1
1.463374588E0,1.713859200E0,7.523632526E0,1.337228966E1
1.483388963E0,2.211566210E0,7.241279602E0,1.319521999E1
1.503018494E0,1.354337573E0,7.059424877E0,1.165783215E1
1.522763546E0,-9.152546525E-2,6.801000118E0,9.838688850E0
1.542662036E0,-1.006181955E0,6.882356167E0,8.742177963E0
1.562445421E0,-8.913264275E-1,7.183851719E0,7.698308468E0
1.582498234E0,-1.824527234E-1,7.394420147E0,7.257431030E0
1.602127817E0,-3.409772366E-2,6.982854843E0,7.784450054E0
1.622142140E0,5.264210105E-1,5.804987907E0,8.397012711E0
1.641902140E0,1.718644857E0,5.498706341E0,8.933603287E0
1.661515786E0,2.235494614E0,5.546562672E0,8.353941917E0
1.681414536E0,1.392622828E0,5.440680504E0,7.703094482E0
1.701198078E0,-6.281159073E-2,5.086542606E0,7.813164234E0
1.721251098E0,-4.025924206E-1,4.296313286E0,7.750950813E0
1.740880630E0,-3.409772366E-2,3.530609846E0,7.051648140E0
1.760702505E0,1.860419661E-1,3.387040377E0,5.720640659E0
1.780524380E0,4.540380836E-1,4.133601189E0,4.638486862E0
1.800346255E0,3.678964674E-1,4.517050743E0,4.815555573E0
1.820360734E0,9.511470050E-2,4.445266247E0,5.691926956E0
1.839990317E0,5.312066078E-1,4.564907551E0,6.342774391E0
1.860004640E0,1.148554921E0,5.124827862E0,6.438487530E0
1.879634171E0,1.249053478E0,6.005984783E0,6.203990936E0
1.899456046E0,1.153340459E0,6.585646152E0,6.189633846E0
1.919470369E0,7.657032609E-1,6.982854843E0,6.170491219E0
1.939099953E0,4.013960063E-1,7.451848030E0,5.959922791E0
1.958921723E0,9.032905847E-2,8.031509399E0,5.959922791E0
1.978743546E0,-6.759724021E-2,8.371290207E0,6.165705681E0
1.998565369E0,-6.903293133E-1,8.371290207E0,6.893722057E0
2.018579692E0,-1.518245935E0,7.887939930E0,7.664809227E0
2.038209223E0,-9.966106415E-1,7.365706444E0,8.152944565E0
2.058223546E0,-3.547359705E-1,7.557730198E0,8.454441071E0
2.077983546E0,-3.116651475E-1,7.878368378E0,8.569893837E0
2.097674328E0,-1.154536903E-1,7.787441254E0,8.746963501E0
2.117688807E0,-2.452643216E-2,7.864011765E0,9.211171150E0
2.137318442E0,2.003988922E-1,7.868797302E0,9.757332802E0
2.157140265E0,7.944171429E-1,7.466204643E0,1.014975548E1
2.176962140E0,8.997012973E-1,7.231708050E0,9.704689980E0
2.196784015E0,5.838487148E-1,7.217351437E0,8.833105087E0
2.216798338E0,1.238285750E-1,6.820142746E0,8.564510345E0
2.236427973E0,1.286142170E-1,5.843272686E0,9.182456970E0
2.256442296E0,7.226324677E-1,4.607978344E0,9.795618057E0
2.276071828E0,1.325623751E0,4.080958843E0,9.603593826E0
2.295893650E0,1.570289850E0,4.114458561E0,8.377870560E0
2.315907921E0,8.039883971E-1,4.248456478E0,7.156932354E0
2.335537505E0,-1.728814393E-1,4.329812527E0,6.117849350E0
2.355551775E0,-1.106680483E-1,4.713262558E0,5.811567783E0
2.375181411E0,8.039883971E-1,5.297111034E0,6.294918060E0
2.395003130E0,1.761715651E0,5.450251579E0,6.668796539E0
2.414940317E0,1.699502230E0,5.354538918E0,6.328417778E0
2.434646880E0,8.374879360E-1,5.191826820E0,6.069993019E0
2.454661203E0,4.187439568E-3,4.794618607E0,6.046064377E0
2.474290734E0,-4.121637046E-1,4.923830986E0,5.648856163E0
2.494112505E0,-7.190431952E-1,5.258825779E0,5.236692429E0
2.513895890E0,-7.381857634E-1,5.435894966E0,5.610570908E0
2.533756098E0,-7.286145091E-1,5.833701611E0,6.371488571E0
2.553770421E0,-3.020938635E-1,6.235695839E0,7.688737392E0
2.573399953E0,4.588237405E-1,6.906284332E0,8.584251404E0
2.593221775E0,1.854437590E-2,7.336992264E0,8.636893272E0
2.613043598E0,-1.250249863E0,6.954140663E0,8.804390907E0
2.632827036E0,-1.197607756E0,6.321837425E0,8.909674644E0
2.652879796E0,-3.499503136E-1,6.489335060E0,8.679964066E0
2.672509328E0,4.588237405E-1,7.360920429E0,9.440881729E0
2.692331203E0,1.764706671E-1,7.140780926E0,1.048953629E1
2.712114536E0,-1.556531072E0,6.633502483E0,1.053739262E1
2.731974796E0,-1.844268084E0,6.786643028E0,9.896116257E0
2.751989171E0,-1.974078640E-2,7.241279602E0,9.259027481E0
2.771618703E0,1.747358680E0,7.562515736E0,9.642477036E0
2.791440630E0,1.689931035E0,6.714858532E0,9.972686768E0
2.811223963E0,6.317051649E-1,5.766702652E0,9.512666702E0
2.831084119E0,-8.673982322E-2,5.435894966E0,8.085946083E0
2.851098598E0,-6.424728632E-1,5.991627693E0,6.793223381E0
2.870858598E0,-7.381857634E-1,6.460621357E0,6.558726788E0
2.890549328E0,-3.786641955E-1,6.245266914E0,6.759724140E0
2.910332869E0,3.678964674E-1,5.852844238E0,6.855436802E0
2.930193182E0,1.158126116E0,5.445466042E0,6.568298340E0
2.950207765E0,1.330409408E0,5.254040241E0,5.840281963E0
2.969837296E0,1.129412293E0,5.139184952E0,4.925625324E0
2.989659171E0,6.843472719E-1,5.096114159E0,4.197608948E0
3.009481046E0,1.375873014E-2,5.096114159E0,4.073182583E0
3.029302869E0,-8.147560954E-1,5.000401020E0,4.705485821E0
3.049317296E0,-1.441675663E0,5.172684193E0,5.437689304E0
3.068946932E0,-9.200403094E-1,5.685346603E0,5.706283569E0
3.088768703E0,-1.824527234E-1,6.230910301E0,5.921638012E0
3.108590578E0,-1.968096644E-1,6.609574318E0,6.428916454E0
3.128412400E0,-4.456632137E-1,6.877570629E0,6.400202274E0
3.148426775E0,-2.398804724E-1,7.102495670E0,5.375475883E0
3.168186775E0,-3.020938635E-1,7.562515736E0,4.437489510E0
3.188070734E0,-1.049252748E0,7.820940971E0,4.997410297E0
3.207830734E0,-1.245464206E0,7.537989616E0,6.141777515E0
3.227521463E0,-7.525427341E-1,7.744370461E0,7.104290485E0
3.247420369E0,-2.063809484E-1,7.897511005E0,8.152944565E0
3.267165421E0,-1.920240223E-1,7.734799385E0,8.876175880E0
3.287179848E0,-6.759724021E-1,7.907082558E0,8.444869041E0
3.306809432E0,-7.381857634E-1,8.270791054E0,7.918448448E0
3.326592765E0,-4.695914388E-1,8.347361565E0,8.679964066E0
3.346414536E0,-1.489532143E-1,7.983652592E0,1.056132126E1
3.366274848E0,3.583251834E-1,7.451848030E0,1.121276665E1
3.386289275E0,6.556333899E-1,7.212565422E0,9.829116821E0
3.405918859E0,5.114658475E-1,7.073781967E0,8.014161110E0
3.425740682E0,3.290131316E-2,6.863213539E0,7.123433113E0
3.445524067E0,-5.126622319E-1,6.159125328E0,7.200003147E0
3.465384275E0,-4.169493318E-1,5.752345562E0,7.391428947E0
3.485398703E0,4.971089065E-1,5.838487148E0,7.540382385E0
3.505028234E0,1.747358680E0,5.910272121E0,7.784450054E0
3.524850109E0,2.020140409E0,6.135197163E0,8.401798248E0
3.544671932E0,1.699502230E0,6.369693756E0,8.464012146E0
3.564493755E0,2.149353027E0,6.312266350E0,7.660023689E0
3.584508130E0,2.882154942E0,6.068198204E0,6.597012043E0
3.604137661E0,2.886940479E0,5.871986866E0,5.907280922E0
3.623959536E0,2.671586514E0,5.694917679E0,5.691926956E0
3.643781411E0,2.307279348E0,5.489135265E0,5.610570908E0
3.663795734E0,2.015354872E0,5.613562107E0,5.346762180E0
3.683617817E0,1.943570137E0,5.603990555E0,5.298905849E0
3.703247348E0,1.421336651E0,5.522634506E0,5.734997749E0
3.723069119E0,1.134197950E0,5.771488190E0,6.117849350E0
3.742890942E0,1.229910851E0,6.120840549E0,6.520441532E0
3.762712765E0,1.081555843E0,6.436692715E0,7.338787079E0
3.782727036E0,5.066801906E-1,6.700501442E0,8.062017441E0
3.802356619E0,-1.728814393E-1,7.054639339E0,7.846663475E0
3.822178390E0,-4.552344978E-1,7.523632526E0,7.669594765E0
3.842000265E0,-6.329016089E-1,7.792226791E0,8.876175880E0
3.861783650E0,1.908276081E-1,7.605587006E0,1.022632599E1
3.881836359E0,1.473978758E0,7.423133850E0,1.122712421E1
3.901596359E0,1.244267821E0,7.246065140E0,1.144726372E1
3.921287140E0,-1.824527234E-1,7.054639339E0,1.040818024E1
3.941109119E0,-1.805982947E0,7.451848030E0,8.818747520E0
3.960930994E0,-2.145763636E0,7.964509964E0,7.688737392E0
3.980945525E0,-1.456032634E0,8.002795219E0,7.123433113E0
4.000575109E0,-9.104689956E-1,7.820940971E0,6.687939167E0
4.020589484E0,-6.951149702E-1,7.413562775E0,6.716653347E0
4.040219015E0,-7.142575383E-1,6.494120598E0,7.233502865E0
4.060040890E0,-1.355534077E0,5.575276852E0,7.947162151E0
4.079939640E0,-2.112264156E0,4.904688358E0,8.761320114E0
4.099684692E0,-2.227119684E0,4.545764923E0,9.211171150E0
4.119698963E0,-1.561915040E0,4.234099865E0,8.723034859E0
4.139328546E0,-9.391828775E-1,4.334598064E0,7.453642368E0
4.159150317E0,-2.925225794E-1,4.636692047E0,6.175277233E0
4.178972192E0,4.013960063E-1,4.737190723E0,5.663212776E0
4.198794015E0,1.095912814E0,4.713262558E0,6.237490654E0
4.218808338E0,1.526620865E0,4.507479668E0,7.247859955E0
4.238437869E0,1.239482164E0,4.368097782E0,6.965506554E0
4.258452192E0,2.626122832E-1,4.746761799E0,5.720640659E0
4.278081775E0,-9.152546525E-1,5.249254704E0,5.021338463E0
4.297903546E0,-1.527817249E0,5.570491314E0,4.882554531E0
4.317917817E0,-1.412961721E0,6.159125328E0,4.738985062E0
4.337677817E0,-1.369890928E0,7.083353043E0,5.107480049E0
4.357368650E0,-1.441675663E0,7.653443336E0,6.256632805E0
4.377190525E0,-1.240678549E0,7.634300709E0,7.109076023E0
4.397012453E0,-9.774680734E-1,7.782655716E0,7.219145775E0
4.417026932E0,-7.668996453E-1,8.117650986E0,7.027719975E0
4.436656515E0,-8.195417523E-1,8.256434441E0,7.808378696E0
4.456670890E0,-4.983053207E-1,7.964509964E0,9.354740143E0
4.476300421E0,-4.600201547E-1,7.634300709E0,1.020239735E1
4.496122244E0,-1.073180914E0,7.964509964E0,1.020239735E1
4.516136567E0,-9.774680734E-1,8.337790489E0,9.886545181E0
4.535766098E0,-3.212364316E-1,8.065009117E0,9.110671997E0
4.555549484E0,-1.872383654E-1,7.586444378E0,8.239086151E0
4.575409692E0,-2.159522474E-1,7.121638298E0,8.114660263E0
4.595231515E0,3.008974493E-1,6.657430649E0,8.363512993E0
4.615245890E0,1.153340459E0,6.173482418E0,8.435297966E0
4.634875421E0,1.866999865E0,5.843272686E0,8.263014793E0
4.654889744E0,2.053640127E0,5.580062389E0,7.429714203E0
4.674519328E0,1.531406522E0,5.627918720E0,6.069993019E0
4.694341098E0,6.747759581E-1,6.001199245E0,5.069194794E0
4.714355421E0,7.704889178E-1,6.144768715E0,4.973481655E0
4.733984953E0,1.560718536E0,6.044270039E0,5.251049519E0
4.753806775E0,2.355135679E0,5.943771362E0,5.442475319E0
4.773628546E0,2.767299414E0,5.632704735E0,5.437689304E0
4.793450369E0,2.350350142E0,5.268397331E0,5.744568825E0
4.813464744E0,1.234696507E0,4.875974178E0,6.160920143E0
4.833094275E0,4.636093974E-1,4.789832592E0,6.170491219E0
4.853108546E0,2.913261652E-1,5.110470772E0,5.864210129E0
4.872738130E0,1.477568001E-1,5.498706341E0,5.462215900E0
4.892559900E0,-2.303091735E-1,5.924628735E0,5.534000397E0
4.912381671E0,-8.769695163E-1,6.427121639E0,6.285346985E0
4.932203546E0,-1.082752228E0,6.839285374E0,6.951149940E0
4.952217869E0,-4.025924206E-1,7.399205685E0,7.300501823E0
4.971847400E0,9.032905847E-2,7.854440212E0,7.889734268E0
4.991630786E0,3.822534084E-1,7.868797302E0,8.842676163E0
5.011490994E0,4.827519655E-1,7.816154957E0,9.273384094E0
5.031312817E0,2.721835673E-1,8.184649467E0,9.168100357E0
5.051327192E0,4.247260094E-2,8.654241562E0,9.498309135E0
5.070956723E0,-3.786641955E-1,8.347361565E0,1.003011417E1
5.090778598E0,-6.424728632E-1,8.103293419E0,9.762118340E0
5.110600369E0,-8.769695163E-1,8.246863365E0,8.627322197E0
5.130422192E0,-6.855437160E-1,8.175078392E0,7.827520847E0
5.150436567E0,-6.137589812E-1,7.605587006E0,7.951947689E0
5.170066150E0,-6.041877270E-1,6.700501442E0,8.310871124E0
5.189849536E0,-5.850451589E-1,5.953342915E0,8.444869041E0
5.209709744E0,-9.200403094E-1,5.819344521E0,8.679964066E0
5.229531515E0,-8.482556343E-1,5.982056618E0,9.077172279E0
5.249545890E0,-4.313062727E-1,6.029912949E0,8.617751122E0
5.269305890E0,-2.877369225E-1,5.843272686E0,7.636095047E0
5.288996671E0,-5.174478889E-1,5.364109993E0,7.085147858E0
5.308818650E0,-9.104689956E-1,4.890331268E0,6.577869415E0
5.328640630E0,-8.099704385E-1,4.598406792E0,6.050850391E0
5.348655109E0,1.854437590E-2,4.713262558E0,5.696712494E0
5.368284640E0,7.561319470E-1,5.043471813E0,5.691926956E0
5.388106515E0,7.034898400E-1,5.244469166E0,6.180062771E0
5.407928338E0,5.982056856E-1,5.129613400E0,6.496513367E0
5.427750213E0,4.540380836E-1,5.177470207E0,6.333203316E0
5.447764640E0,-3.308077157E-1,5.814558983E0,6.146563053E0
5.467394171E0,-8.769695163E-1,6.484549522E0,6.285346985E0
5.487215994E0,-9.296116233E-1,6.786643028E0,6.874579430E0
5.507037817E0,-6.233302951E-1,6.695715904E0,7.530810833E0
5.526859640E0,-1.537388563E-1,6.705287457E0,8.066802979E0
5.546874015E0,2.434697002E-1,7.001997471E0,8.330014229E0
5.566634015E0,2.913261652E-1,7.088139057E0,8.727820396E0
5.586324796E0,2.051845491E-1,6.767500877E0,9.282955170E0
5.606146723E0,1.142572835E-1,6.542575359E0,9.853045464E0
5.625968703E0,-1.680957973E-1,6.403193474E0,9.996614456E0
5.645983182E0,5.204389244E-2,6.178267956E0,9.637691498E0
5.665612765E0,4.205385745E-1,6.302694798E0,9.014959335E0
5.685627140E0,6.029912829E-1,6.465406895E0,8.358727455E0
5.705256671E0,8.039883971E-1,6.369693756E0,8.473583221E0
5.725078546E0,9.667003751E-1,5.900700569E0,8.914461136E0
5.744861880E0,1.406979680E0,5.460421085E0,8.828319550E0
5.764722088E0,1.666002750E0,5.513063431E0,8.066802979E0
5.784736515E0,1.115055323E0,6.005984783E0,7.271788120E0
5.804366046E0,7.417750359E-1,6.111268997E0,6.606583118E0
5.824187921E0,6.173482537E-1,5.785845280E0,6.400202274E0
5.844009692E0,9.762716293E-1,5.469992638E0,6.970292568E0
5.863831567E0,1.454836130E0,5.349753380E0,7.310073376E0
5.883845890E0,1.833500385E0,5.368896008E0,6.793223381E0
5.903475473E0,1.852642894E0,5.316253662E0,5.739783287E0
5.923258859E0,1.363908887E0,5.182255745E0,4.935196877E0
5.943119067E0,7.513462901E-1,5.014758110E0,5.207978249E0
5.962940890E0,1.282552958E0,4.808975220E0,5.864210129E0
5.982955265E0,9.332008362E-1,4.828117847E0,5.744568825E0
6.002584796E0,6.077769399E-1,5.263611794E0,5.849853039E0
6.022368234E0,1.908276081E-1,5.551348686E0,6.141777515E0
6.042228442E0,1.812563092E-1,5.771488190E0,6.314060688E0
6.062050265E0,1.573280841E-1,6.264409542E0,7.420143127E0
6.082064640E0,-7.238288224E-2,6.547360897E0,9.608977318E0
6.101824640E0,-1.441675574E-1,6.537789822E0,1.108833981E1
6.121515421E0,8.554340899E-2,6.533003807E0,1.067677498E1
6.141337348E0,3.583251834E-1,7.226922512E0,9.656833649E0
6.161120838E0,3.152543902E-1,7.792226791E0,9.929615974E0
6.181173807E0,-2.877369225E-1,7.370491982E0,1.058046341E1
6.200803286E0,-1.025324464E0,6.934998035E0,1.100219822E1
6.220625161E0,-1.135394335E0,7.164709091E0,1.081077290E1
6.240447036E0,-9.918249846E-1,7.274778843E0,9.244669914E0
6.260268911E0,-1.355534077E0,7.116852760E0,7.722237110E0
6.280283338E0,-1.959123492E0,6.844070911E0,7.908876896E0
6.299912921E0,-1.350748420E0,6.010770321E0,9.263813019E0
6.319927244E0,-3.164508045E-1,5.277968407E0,1.029332447E1
6.339556775E0,2.195414752E-1,5.196612358E0,9.843474388E0
6.359378546E0,2.099701911E-1,5.335396290E0,8.057231903E0
6.379392921E0,8.554340899E-2,5.316253662E0,6.294918060E0
6.399022453E0,5.682953820E-2,4.909473896E0,5.174479008E0
6.418844223E0,-1.393819153E-1,4.684548378E0,4.743771076E0
6.438666046E0,-3.930211067E-1,4.593621254E0,4.872983456E0
6.458487869E0,-2.303091735E-1,4.617549419E0,4.906482697E0
6.478502192E0,1.668993831E-1,5.033900738E0,4.398606300E0
6.498131775E0,8.075776696E-2,5.354538918E0,4.384249210E0
6.518146046E0,-3.499503136E-1,5.359324455E0,4.834698200E0
6.537775630E0,-6.376872063E-1,5.383252621E0,4.834698200E0
6.557597400E0,-8.243274093E-1,5.656632900E0,4.829912663E0
6.577380786E0,-1.054038405E0,6.245266914E0,5.452644825E0
6.597240994E0,-1.355534077E0,6.528218269E0,6.611369133E0
6.617255317E0,-1.341177106E0,6.240481377E0,8.052446365E0
6.636884848E0,-1.063609719E0,5.982056618E0,9.766903877E0
6.656706671E0,-4.360919297E-1,5.661418438E0,1.097827053E1
6.676528494E0,-4.695914388E-1,5.728417397E0,1.116969585E1
6.696311880E0,-1.106680512E0,6.063412666E0,1.147597694E1
6.716364640E0,-1.106680512E0,5.723631859E0,1.178285694E1
6.735994119E0,-5.324030519E-1,5.373681545E0,1.119841003E1
6.755815994E0,2.811566554E-2,5.460421085E0,1.006839943E1
6.775637817E0,3.056831062E-1,5.675775528E0,8.540582657E0
6.795459640E0,5.455635786E-1,5.618347645E0,7.841877937E0
6.815474015E0,3.152543902E-1,5.838487148E0,8.622536659E0
6.835103546E0,3.535395563E-1,5.565705299E0,8.971888542E0
6.855117869E0,1.406979680E0,4.612763882E0,8.368298531E0
6.874747400E0,2.925225735E0,3.309871912E0,8.109873772E0
6.894569171E0,4.385445595E0,1.030708313E0,9.062815666E0
6.914583494E0,4.012165546E0,4.468596280E-1,1.057089233E1
6.934213025E0,3.470789194E0,3.468396425E0,1.196949673E1
6.954034796E0,8.973085321E-3,6.858428001E0,1.105484104E1
6.973856619E0,-5.004588604E0,7.480561733E0,7.324429989E0
6.993678494E0,-4.597210407E0,6.350551128E0,4.514060020E0
7.013692817E0,-1.058823988E-1,4.061816216E0,3.632902861E0
7.033322348E0,8.327022791E-1,4.181457520E0,3.886542082E0
7.053336619E0,1.440479279E0,3.832105398E0,4.829912663E0
7.072966203E0,1.895713687E0,3.406183004E0,6.333203316E0
7.092787973E0,8.614161611E-1,4.042674065E0,8.157731056E0
7.112802244E0,-3.451646566E-1,4.401597023E0,8.449654579E0
7.132431828E0,-5.850451589E-1,4.478765965E0,8.890532494E0
7.152253598E0,-5.563312769E-1,3.899104595E0,9.680762291E0
7.172075369E0,-5.324030519E-1,5.014758110E0,9.460023880E0
7.191897244E0,-5.802595019E-1,6.350551128E0,9.340383530E0
7.211911567E0,-3.355933726E-1,6.154339790E0,9.244669914E0
7.231671567E0,-1.537388563E-1,5.580062389E0,8.703892708E0
7.251555421E0,5.886343718E-1,5.263611794E0,8.885746956E0
7.271185005E0,1.004985452E0,5.450251579E0,9.330811501E0
7.291006775E0,3.870390654E-1,5.843272686E0,1.046082211E1
7.311020994E0,-5.659025311E-1,5.411966801E0,1.129412270E1
7.330650578E0,-1.159322619E0,4.990829945E0,1.019761181E1
7.350664796E0,-1.546959877E0,5.704489231E0,9.105886459E0
7.370294380E0,-3.595215976E-1,5.277968407E0,9.905687332E0
7.390077713E0,-4.845465720E-2,4.396811485E0,1.153819084E1
7.409899432E0,-1.585244983E-1,4.689334393E0,1.298465252E1
7.429759640E0,-3.547359705E-1,4.732405186E0,1.235234833E1
7.449773963E0,-3.882354796E-1,4.521836758E0,1.003968525E1
7.469403494E0,-3.116651475E-1,4.243670940E0,8.564510345E0
7.489225317E0,-7.238288522E-1,4.061816216E0,8.196015358E0
7.509047140E0,-6.137589812E-1,3.535395384E0,8.095517159E0
7.528868963E0,-5.126622319E-1,3.037090063E0,8.105088234E0
7.548883338E0,-5.659025311E-1,3.626322746E0,7.808378696E0
7.568512869E0,-8.434699774E-1,4.450051785E0,7.152146816E0
7.588334692E0,-1.039681435E0,4.396811485E0,6.031707764E0
7.608156515E0,-6.281159520E-1,3.568894863E0,5.332405090E0
7.627978338E0,4.348955154E-1,2.668595552E0,6.074778557E0
7.647992713E0,9.714859724E-1,3.195016384E0,7.703094482E0
7.667622244E0,-1.106680483E-1,4.617549419E0,7.597810268E0
7.687444067E0,-1.288534999E0,5.330610752E0,5.945566177E0
7.707227453E0,-1.676770449E0,5.426323414E0,4.657629490E0
7.727087661E0,-1.231107235E0,5.522634506E0,4.877768993E0
7.747102036E0,-4.695914388E-1,6.245266914E0,6.807580471E0
7.766862036E0,-6.233302951E-1,6.987640381E0,8.919246674E0
7.786552817E0,-8.243274093E-1,7.236494064E0,9.206384659E0
7.806374744E0,-5.228317380E-1,6.853642464E0,7.683951855E0
7.826196671E0,-6.041877270E-1,6.643074036E0,7.669594765E0
7.846211203E0,3.768695518E-2,6.748358250E0,1.051346493E1
7.865840734E0,6.161518395E-2,7.279564857E0,1.227099228E1
7.885662609E0,-2.063809484E-1,7.629515171E0,1.013539886E1
7.905484484E0,-5.228317380E-1,6.690930367E0,7.880163193E0
7.925306359E0,-1.470389485E0,5.694917679E0,8.876175880E0
7.945320734E0,-1.446461320E0,5.508277893E0,1.141376400E1
7.964950317E0,-7.956135273E-1,6.455835342E0,1.199342537E1
7.984772088E0,5.204389244E-2,7.112067223E0,1.045603657E1
8.004593911E0,9.140582681E-1,5.857629776E0,9.517452240E0
8.024415734E0,4.253242314E-1,4.622334957E0,9.148957253E0
8.044430213E0,-1.393819153E-1,4.550550461E0,8.258229256E0
8.064059640E0,-3.499503136E-1,5.191826820E0,6.960721016E0
8.083881515E0,-7.908278704E-1,6.355337143E0,5.634499073E0
8.103703338E0,-5.324030519E-1,5.560919762E0,5.600999832E0
8.123525161E0,2.769692242E-1,4.339384079E0,7.027719975E0
8.143539536E0,4.348955154E-1,4.200600147E0,7.961519241E0
8.163299536E0,3.822534084E-1,4.406383038E0,7.616952896E0
8.183183442E0,5.407779217E-1,4.267599106E0,6.175277233E0
8.202813025E0,6.987041831E-1,4.291527271E0,5.255835056E0
8.222634796E0,8.075776696E-2,4.842474937E0,5.500501156E0
8.242418182E0,-1.092323542E0,4.785047054E0,5.667998791E0
8.262278286E0,-1.892124534E0,5.062614441E0,5.634499073E0
8.282292661E0,-1.393819213E0,5.761917114E0,5.988636971E0
8.301922244E0,-1.130608678E0,6.968497753E0,6.568298340E0
8.321743963E0,-2.064407825E0,7.682157040E0,7.664809227E0
8.341565786E0,-2.581257343E0,7.040282249E0,8.890532494E0
8.361387661E0,-1.983051777E0,7.403991699E0,9.570094109E0
8.381401984E0,-9.439685345E-1,7.950153351E0,9.666405678E0
8.401161984E0,-2.916850805E0,7.835297585E0,8.670392990E0
8.421045942E0,-4.894518852E0,7.308278561E0,9.110671997E0
8.440675473E0,-4.185645103E0,7.045068264E0,1.047996521E1
8.460497244E0,-2.131406784E0,7.523632526E0,9.757332802E0
8.480511515E0,-1.542174220E0,8.146365166E0,8.478368759E0
8.500141098E0,-3.841078520E0,7.586444378E0,8.694320679E0
8.519962817E0,-6.397809505E0,6.340980053E0,9.345169067E0
8.539784588E0,-5.502295494E0,5.857629776E0,9.474381447E0
8.559606463E0,-1.983051777E0,6.465406895E0,9.738189697E0
8.579620786E0,-6.855437160E-1,7.188637257E0,7.985447407E0
8.599250265E0,-4.295714855E0,7.284350395E0,3.666402578E0
8.619072036E0,-4.424927235E0,5.848058701E0,4.887340069E0
8.638893911E0,-4.032504559E0,5.172684193E0,5.260620594E0
8.687911058E0,-2.428116798E0,5.718846321E0,7.636095047E0
8.707671058E0,-1.417747378E0,5.656632900E0,9.728618622E0
8.727361475E0,-3.308077157E-1,5.508277893E0,9.273384094E0
8.747183194E0,-8.721838593E-1,5.392824173E0,7.444071293E0
8.766928194E0,-1.853839397E0,5.675775528E0,6.146563053E0
8.787019287E0,-1.681556106E0,5.924628735E0,6.089135647E0
8.806648610E0,-7.860422134E-1,6.226124287E0,6.826723099E0
8.826355121E0,-4.313062727E-1,6.403193474E0,7.420143127E0
8.846291840E0,-3.690928817E-1,5.852844238E0,8.234300613E0
8.866113558E0,-5.228317380E-1,5.508277893E0,9.628120422E0
8.886127881E0,-1.188036442E0,5.800201893E0,1.083948612E1
8.905757204E0,-1.374676585E0,6.183053493E0,1.129890823E1
8.925771423E0,-1.235892892E0,5.915057659E0,9.843474388E0
8.945400798E0,-2.519043922E0,6.499504566E0,8.076375008E0
8.965414965E0,-4.109074593E0,7.480561733E0,8.636893272E0
8.985044287E0,-3.515056372E0,7.140780926E0,1.177807140E1
9.004865902E0,-1.092323542E0,6.552146435E0,1.439701557E1
9.024880017E0,4.636093974E-1,5.479563713E0,1.357328606E1
9.044509340E0,-6.281159073E-2,4.517050743E0,1.201735306E1
9.064330954E0,-2.294118643E0,4.488337040E0,1.058524895E1
9.084114183E0,-4.113860130E0,5.230112076E0,1.007797050E1
9.103974131E0,-3.668795347E0,6.230910301E0,1.013061333E1
9.123988298E0,-2.255833626E0,5.344967365E0,9.431310654E0
9.143617673E0,-1.810768485E0,4.013959885E0,9.608977318E0
9.163631787E0,-1.997408748E0,3.951746702E0,9.958329201E0
9.183261162E0,-1.077966571E0,3.387040377E0,9.067601204E0
9.203082777E0,-3.116651475E-1,2.337787628E0,7.870592117E0
9.223096840E0,1.429711580E-1,1.116850019E0,6.002993584E0
9.242856840E0,3.290131316E-2,2.850450039E0,6.606583118E0
9.262547256E0,-7.286145091E-1,3.655036688E0,7.851449490E0
9.282368923E0,1.100698471E0,-1.615155339E-1,6.558726788E0
9.302190694E0,2.796013355E0,-8.273184299E-1,7.908876896E0
9.322204912E0,-7.956135273E-1,2.663809776E0,9.733404160E0
9.341834340E0,-9.678967595E-1,4.301098824E0,1.101655579E1
9.361848558E0,1.387837172E0,2.414956331E0,1.034596729E1
9.381477881E0,-5.276173949E-1,9.254241586E-1,5.701498032E0
9.401299496E0,-4.338785648E0,5.484349728E0,5.687141418E0
9.421313662E0,-3.093919754E0,3.171088219E0,6.476772785E0
9.440942985E0,9.511470050E-2,2.601596355E0,1.059960651E1
9.460764600E0,2.333002165E-2,6.106483459E0,1.235713387E1
9.480586267E0,7.800601721E-1,5.096114159E0,1.052303600E1
9.500407881E0,4.875376225E-1,3.454039574E0,1.064806080E1
9.520421996E0,-9.343972206E-1,2.773879766E0,1.106441212E1
9.540051371E0,-9.487541914E-1,3.492324591E0,1.129412270E1
9.560065433E0,3.152543902E-1,4.191029072E0,1.009232807E1
9.579694860E0,4.875376225E-1,3.784249067E0,9.690333366E0
9.599516423E0,-3.499503136E-1,2.998805046E0,1.057567787E1
9.619530537E0,-1.259821177E0,2.802593470E0,9.910472870E0
9.639159912E0,-1.317248821E0,3.180659533E0,8.373085022E0
9.658981475E0,-3.409772366E-2,3.588037491E0,7.219145775E0
9.678803037E0,7.178468108E-1,3.477967739E0,7.305287361E0
9.698624756E0,3.678964674E-1,2.706880569E0,8.219944000E0
9.718638871E0,-4.313062727E-1,2.093719721E0,8.464012146E0
9.738268194E0,-9.583254457E-1,2.060220242E0,8.028517723E0
9.758282360E0,-1.025324464E0,1.983649969E0,7.511070251E0
9.777911683E0,-8.434699774E-1,1.954936147E0,6.860222340E0
9.797733246E0,-2.446661144E-1,2.103291035E0,6.525227547E0
9.817554808E0,6.699903607E-1,2.227717876E0,7.128218651E0
9.837376475E0,1.306481123E0,2.251646042E0,7.343572617E0
9.857390642E0,1.019342422E0,2.381456852E0,6.955935478E0
9.877019965E0,1.621137410E-1,2.505883455E0,6.750152588E0
9.896841527E0,5.204389244E-2,2.477169752E0,7.271788120E0
9.916663194E0,3.966103494E-1,2.606382132E0,8.157731056E0
9.936484860E0,4.588237405E-1,3.056232691E0,9.196813583E0
9.956498975E0,-2.925225794E-1,3.592823267E0,9.757332802E0
9.976128298E0,-1.341177106E0,4.238885403E0,9.598808289E0
9.995949965E0,-1.667199135E0,5.038686275E0,9.766903877E0
1.001577153E1,-1.374676585E0,5.407180786E0,1.065284634E1
1.003559325E1,-1.082752228E0,4.933402061E0,1.235234833E1
1.005560736E1,-1.298106313E0,4.536193371E0,1.394716454E1
1.007523668E1,-1.523031592E0,4.718048096E0,1.455972767E1
1.009505835E1,-7.860422134E-1,4.813760757E0,1.435394478E1
1.011487996E1,-1.207179070E0,4.708476543E0,1.439701557E1
1.013470158E1,-2.107478619E0,4.775475979E0,1.420080376E1
1.015471575E1,-2.782852650E0,4.627120972E0,1.338186073E1
1.017434507E1,-2.830709219E0,4.517050743E0,1.253898907E1
1.019416674E1,-2.260619164E0,4.181457520E0,1.114098263E1
1.021398835E1,-1.604985833E0,3.511467218E0,9.838688850E0
1.023381002E1,-9.008977413E-1,2.730808735E0,9.805189133E0
1.025382418E1,-7.429714203E-1,1.950150490E0,9.652048111E0
1.027345351E1,-1.058824062E0,1.648654819E0,8.492725372E0
1.029346762E1,-1.149751306E0,1.715653777E0,7.362715244E0
1.031309705E1,-1.269392371E0,1.116850019E0,7.180860519E0
1.033291856E1,-2.083550215E0,5.090730190E-1,6.865008354E0
1.035293267E1,-3.041277647E0,5.090730190E-1,6.506084919E0
1.037256205E1,-3.203989506E0,9.684949517E-1,7.003791809E0
1.039238366E1,-1.581057549E0,1.586441398E0,7.564310551E0
1.041220523E1,6.747759581E-1,2.084148407E0,7.511070251E0
1.043202689E1,1.833500385E0,2.328216314E0,6.994220734E0
1.045204106E1,1.378265858E0,2.615953445E0,6.592226505E0
1.047180106E1,7.597211748E-2,2.778665304E0,6.227919102E0
1.049149142E1,-6.759724021E-1,3.338585854E0,5.849853039E0
1.051131314E1,-8.530412912E-1,4.200600147E0,5.624927998E0
1.053113486E1,-1.274178028E0,4.703691006E0,5.514857769E0
1.055114918E1,-1.700698733E0,5.033900738E0,5.921638012E0
1.057077851E1,-1.729412556E0,5.435894966E0,7.147361279E0
1.059079267E1,-1.259821177E0,5.900700569E0,8.545368195E0
1.061042200E1,-9.200403094E-1,6.216553211E0,8.799605370E0
1.063024372E1,-9.008977413E-1,6.441478729E0,8.981459618E0
1.065006533E1,-8.147560954E-1,6.149554253E0,9.608977318E0
1.066988694E1,-7.381857634E-1,5.589633465E0,1.057089233E1
1.068990116E1,-9.678967595E-1,5.239683151E0,1.125105190E1
1.070953049E1,-1.226321578E0,4.899902344E0,1.198385429E1
1.072935210E1,-9.152546525E-1,4.339384079E0,1.283151150E1
1.074917377E1,-4.073780477E-1,4.071387768E0,1.286979675E1
1.076895694E1,-9.631111473E-2,4.353740692E0,1.257727432E1
1.078900950E1,7.226324677E-1,4.162314892E0,1.261077309E1
1.080863887E1,1.426122308E0,3.420539856E0,1.217049408E1
1.082846054E1,1.129412293E0,3.056232691E0,1.071506023E1
1.084828215E1,5.551348329E-1,3.175873756E0,8.852247238E0
1.086810377E1,1.477568001E-1,3.487539053E0,7.396214962E0
1.088811799E1,-4.845465720E-2,3.789034605E0,6.611369133E0
1.090774731E1,5.982056856E-1,3.745963812E0,6.385845661E0
1.092756892E1,1.790429592E0,3.774677753E0,6.409773827E0
1.094739059E1,2.283350945E0,4.013959885E0,6.448058605E0
1.096721220E1,2.072782516E0,4.124029636E0,7.075576782E0
1.098722637E1,1.828714728E0,3.621536970E0,7.923233986E0
1.100685569E1,1.618146300E0,3.013161898E0,8.028517723E0
1.102667736E1,9.858429432E-1,3.041875839E0,7.262216568E0
1.104649898E1,3.104687333E-1,3.511467218E0,5.916851997E0
1.106632059E1,-1.058823988E-1,4.023531437E0,4.911268711E0
1.108633476E1,-6.281159073E-2,4.320241451E0,4.825126648E0
1.110596413E1,1.860419661E-1,4.464408875E0,5.639284611E0
1.112578575E1,1.956132501E-1,4.641477585E0,6.707081795E0
1.114560736E1,5.682953820E-2,5.009972572E0,7.357929707E0
1.116562153E1,-4.845465720E-2,5.402395248E0,7.875377655E0
1.118544340E1,4.725824669E-2,5.397609711E0,8.258229256E0
1.120520340E1,9.990034252E-2,5.445466042E0,8.928817749E0
1.122489372E1,-4.366901144E-2,5.560919762E0,1.026939678E1
1.124471548E1,-3.888336942E-2,5.392824173E0,1.147597694E1
1.126453715E1,-1.441675574E-1,5.465207100E0,1.160997581E1
1.128455142E1,-7.046862841E-1,5.647061348E0,1.166261768E1
1.130418085E1,-1.417747378E0,5.469992638E0,1.220399380E1
1.132400247E1,-1.877767563E0,5.335396290E0,1.273579884E1
1.134378569E1,-1.896910191E0,5.373681545E0,1.239541912E1
1.136360726E1,-1.825125456E0,5.508277893E0,1.118405342E1
1.138365991E1,-1.839482427E0,5.435894966E0,1.033160973E1
1.140328929E1,-1.403390527E0,4.358526230E0,1.015454102E1
1.142311090E1,-1.034895778E0,3.525824070E0,9.766903877E0
1.144293257E1,-9.535398483E-1,3.588037491E0,8.579465866E0
1.146275424E1,-8.195417523E-1,4.095315933E0,6.821937561E0
1.148276840E1,-5.898307562E-1,4.502694130E0,5.586642742E0
1.150239778E1,-4.887340367E-1,4.497908592E0,5.303691387E0
1.152241189E1,-2.829512656E-1,4.315455437E0,5.998208046E0
1.154204127E1,3.056831062E-1,4.066602230E0,7.156932354E0
1.156186288E1,4.061816335E-1,3.932604074E0,7.650452137E0
1.158168455E1,6.161518395E-2,3.990031719E0,7.396214962E0
1.160150616E1,-2.590230405E-1,3.894318819E0,6.888936520E0
1.162152028E1,-9.966106415E-1,3.990031719E0,6.692724705E0
1.164114970E1,-1.892124534E0,4.272384644E0,7.118647575E0
1.166097127E1,-2.581257343E0,4.464408875E0,7.583453178E0
1.168079293E1,-2.940778971E0,4.823332310E0,7.975875854E0
1.170061460E1,-3.007778168E0,5.187041283E0,7.999804497E0
1.172062872E1,-2.715853691E0,5.637490273E0,8.387441635E0
1.174025809E1,-1.609771490E0,5.733202934E0,9.512666702E0
1.176027220E1,-7.381857634E-1,5.416752338E0,1.050867844E1
1.177990163E1,-5.611169338E-1,5.172684193E0,1.070548820E1
1.179972319E1,-7.716853172E-2,4.866403103E0,1.005404282E1
1.181973726E1,3.200400174E-1,4.703691006E0,9.450452805E0
1.183949726E1,5.790630579E-1,4.598406792E0,9.747760773E0
1.185918767E1,1.129412293E0,4.023531437E0,1.007797050E1
1.187900939E1,1.067198873E0,3.295515060E0,1.005882835E1
1.189883111E1,3.870390654E-1,3.027518749E0,1.014018440E1
1.191884538E1,1.812563092E-1,3.061018467E0,1.045603657E1
1.193860538E1,5.551348329E-1,3.041875839E0,1.103091240E1
1.195848903E1,1.196411371E0,2.941377163E0,1.123669529E1
1.197811840E1,1.349551916E0,2.955734253E0,1.037468052E1
1.199793996E1,7.561319470E-1,3.075375319E0,9.235098839E0
1.201795413E1,1.094716340E-1,3.061018467E0,8.373085022E0
1.203758351E1,-4.313062727E-1,3.061018467E0,7.803592682E0
1.205740512E1,-4.600201547E-1,3.080160856E0,7.496713161E0
1.207722674E1,2.673979402E-1,3.084946632E0,7.535596848E0
1.209704840E1,1.359123230E0,3.233301640E0,7.784450054E0
1.211706252E1,1.929213285E0,3.262015581E0,7.947162151E0
1.213669189E1,1.661217093E0,3.123231649E0,7.942376614E0
1.215670601E1,1.378265858E0,2.898306370E0,7.774878979E0
1.217633543E1,1.560718536E0,2.749951363E0,7.472784996E0
1.219615700E1,1.766501307E0,3.065804005E0,7.559525013E0
1.221617106E1,1.182054400E0,3.468396425E0,8.157731056E0
1.223580049E1,-1.920240223E-1,3.731606960E0,8.234300613E0
1.225562205E1,-9.200403094E-1,4.296313286E0,8.320442200E0
1.227544366E1,-6.568298340E-1,4.861617565E0,9.158528328E0
1.229526533E1,-3.547359705E-1,4.813760757E0,1.086820030E1
1.231527950E1,-4.169493318E-1,4.162314892E0,1.285543919E1
1.233490882E1,-9.678967595E-1,3.578466177E0,1.353021526E1
1.235492299E1,-1.858624935E0,3.535395384E0,1.262513065E1
1.237468299E1,-2.399402857E0,3.889533281E0,1.125105190E1
1.239437335E1,-2.644068956E0,4.018745422E0,1.001097202E1
1.241419507E1,-2.432902336E0,4.248456478E0,9.077172279E0
1.243401679E1,-1.920838356E0,4.899902344E0,8.559724808E0
1.245403111E1,-1.341177106E0,5.513063431E0,8.248658180E0
1.247366049E1,-1.264606714E0,5.503491879E0,8.713463783E0
1.249344366E1,-1.192822099E0,4.430909157E0,9.776474953E0
1.251330377E1,-1.240678549E0,3.559323788E0,1.049432182E1
1.253312543E1,-8.913264275E-1,3.444468260E0,1.004925728E1
1.255313965E1,-1.920240223E-1,3.655036688E0,8.593822479E0
1.257289965E1,1.381855011E-1,3.951746702E0,7.075576782E0
1.259259007E1,-6.424728632E-1,3.956532240E0,6.549155712E0
1.261241189E1,-1.753340840E0,3.521038532E0,6.711867332E0
1.263223361E1,-1.657627940E0,3.171088219E0,7.310073376E0
1.265224799E1,-6.999006271E-1,3.285943747E0,7.789236069E0
1.267200798E1,3.343969584E-1,3.592823267E0,7.755736351E0
1.269165976E1,6.364908218E-1,3.812962770E0,7.195217609E0
1.271152002E1,1.238285750E-1,3.779463291E0,6.515655994E0
1.273134179E1,-3.978067636E-1,3.755535126E0,6.165705681E0
1.275135637E1,-7.238288522E-1,4.119244099E0,6.136991978E0
1.277098569E1,-1.360319614E0,4.770689964E0,6.132206440E0
1.279076898E1,-1.715055585E0,5.311468124E0,6.318846226E0
1.281062903E1,-1.164108157E0,5.599205017E0,7.511070251E0
1.283041236E1,-6.807580590E-1,5.513063431E0,9.211171150E0
1.285046502E1,-7.190431952E-1,5.546562672E0,1.050389290E1
1.287009439E1,-2.207378894E-1,5.484349728E0,1.131326580E1
1.288991606E1,4.253242314E-1,5.086542606E0,1.150947666E1
1.290969929E1,8.662018180E-1,4.588835716E0,1.181157112E1
1.292955939E1,8.566305041E-1,4.138386726E0,1.219442272E1
1.294957361E1,4.013960063E-1,3.784249067E0,1.184028435E1
1.296920304E1,-6.759724021E-2,3.525824070E0,1.052782154E1
1.298902470E1,-5.126622319E-1,3.846462488E0,9.306883812E0
1.300884637E1,-1.680957973E-1,4.353740692E0,9.326025963E0
1.302866799E1,1.311266780E0,4.372883320E0,1.057089233E1
1.304868220E1,2.374278307E0,3.683750391E0,1.163868904E1
1.306831158E1,2.201995134E0,2.903092146E0,1.115533924E1
1.308813325E1,1.172483087E0,2.922234535E0,9.316454887E0
1.310795491E1,-2.111666054E-1,3.352942705E0,7.386643410E0
1.312777658E1,-1.077966571E0,3.530609846E0,6.678368092E0
1.314779075E1,-7.046862841E-1,3.175873756E0,7.391428947E0
1.316742012E1,3.583251834E-1,2.534597397E0,8.545368195E0
1.318743429E1,7.848458290E-1,2.357528448E0,8.746963501E0
1.320719429E1,1.296909928E0,2.687737942E0,8.253443718E0
1.322684611E1,1.828714728E0,2.816950560E0,7.765307903E0
1.324666778E1,1.924427629E0,2.783450842E0,7.822735310E0
1.326652799E1,2.230708838E0,2.692523718E0,7.990232944E0
1.328654241E1,2.743371248E0,2.730808735E0,7.947162151E0
1.330617174E1,2.527418852E0,3.056232691E0,7.884948730E0
1.332599340E1,1.910070658E0,3.884747505E0,9.005388260E0
1.334581512E1,1.550549030E0,4.052245140E0,9.690333366E0
1.336559840E1,1.426122308E0,4.013959885E0,9.407382011E0
1.338565101E1,7.034898400E-1,4.646263599E0,8.823533058E0
1.340541101E1,-4.743770957E-1,5.268397331E0,8.526225090E0
1.342510142E1,-9.966106415E-1,5.426323414E0,9.177671432E0
1.344492325E1,-2.925225794E-1,5.359324455E0,1.054217815E1
1.346474502E1,5.114658475E-1,4.679762840E0,1.137547874E1
1.348475944E1,-5.419743061E-1,4.191029072E0,1.199342537E1
1.350438882E1,-2.480758905E0,4.320241451E0,1.251984596E1
1.352421043E1,-2.672782898E0,4.631906509E0,1.199821091E1
1.354399372E1,-1.317248821E0,4.430909157E0,1.011147022E1
1.356385382E1,-2.207378894E-1,4.291527271E0,8.780462265E0
1.358386809E1,9.032905847E-2,4.181457520E0,9.383454323E0
1.360349746E1,7.597211748E-2,4.037888050E0,9.867402077E0
1.362331913E1,1.429711580E-1,4.243670940E0,9.263813019E0
1.364314085E1,-1.585244983E-1,4.406383038E0,8.487939835E0
1.366296247E1,-6.041877270E-1,4.143172264E0,7.999804497E0
1.368297668E1,-7.668996453E-1,3.712464333E0,7.444071293E0
1.370260606E1,-7.142575383E-1,3.631108284E0,6.601797581E0
1.372242778E1,-4.791627228E-1,4.018745422E0,6.084349632E0
1.374221095E1,-9.152546525E-2,4.095315933E0,6.510870457E0
1.376207101E1,-6.759724021E-2,3.588037491E0,7.300501823E0
1.378208523E1,-3.260220885E-1,3.233301640E0,7.545167923E0
1.380171460E1,-7.238288522E-1,3.544966698E0,6.879364967E0
1.382153627E1,-8.147560954E-1,4.334598064E0,6.242276192E0
1.384135793E1,-5.659025311E-1,4.914259434E0,6.888936520E0
1.386117960E1,-5.611169338E-1,4.598406792E0,7.741379261E0
1.388119382E1,-9.343972206E-1,4.560121536E0,7.832306862E0
1.390082319E1,-1.097109199E0,5.541777134E0,7.578667641E0
1.392064481E1,-8.099704385E-1,6.451049805E0,7.636095047E0
1.394046648E1,-6.376872063E-1,6.336194515E0,8.401798248E0
1.396028814E1,-6.089733839E-1,5.852844238E0,9.421739578E0
1.398030236E1,-6.807580590E-1,5.809773445E0,9.876974106E0
1.400006236E1,-2.159522474E-1,5.680561066E0,9.574879646E0
1.401994595E1,1.860419661E-1,5.460421085E0,8.919246674E0
1.403957533E1,4.247260094E-2,5.508277893E0,8.564510345E0
1.405939694E1,-2.159522474E-1,5.388038158E0,9.129815102E0
1.407918017E1,3.200400174E-1,4.584050179E0,1.041775131E1
1.409904017E1,1.081555843E0,3.731606960E0,1.116491032E1
1.411905434E1,9.188438654E-1,3.832105398E0,1.071506023E1
1.413881434E1,1.860419661E-1,4.670191765E0,9.905687332E0
1.415869793E1,-2.494517565E-1,4.923830986E0,9.574879646E0
1.417845793E1,-8.673982322E-2,4.584050179E0,9.637691498E0
1.419810981E1,4.875376225E-1,4.018745422E0,9.488738060E0
1.421816262E1,6.843472719E-1,3.765106440E0,9.000602722E0
1.423779194E1,3.152543902E-1,4.076173306E0,8.306085587E0
1.425757517E1,-1.202393398E-1,4.478765965E0,7.846663475E0
1.427743528E1,-2.973082066E-1,4.348955154E0,7.636095047E0
1.429721861E1,-4.845465720E-2,3.951746702E0,7.439285755E0
1.431727122E1,1.081555843E0,3.118446112E0,7.391428947E0
1.433690064E1,2.973082066E0,2.098505497E0,6.788437843E0
1.435691481E1,3.945166349E0,1.945364833E0,5.629713535E0
1.437654418E1,3.016152859E0,2.697309256E0,4.269393921E0
1.439632741E1,1.124626637E0,3.147160053E0,3.723830223E0
1.441637996E1,-1.202393398E-1,2.888735056E0,4.360321045E0
1.443600934E1,-3.116651475E-1,2.615953445E0,6.050850391E0
1.445583101E1,-3.355933726E-1,3.003590584E0,8.253443718E0
1.447561424E1,-8.913264275E-1,3.626322746E0,1.007318497E1
1.449566684E1,-1.705484390E0,4.167100430E0,1.059960651E1
1.451548866E1,-2.394617319E0,4.856831551E0,1.043210888E1
1.453511809E1,-2.773281336E0,5.316253662E0,1.052782154E1
1.455513215E1,-2.663211584E0,5.325825214E0,1.081555843E1
1.457476158E1,-2.351546526E0,5.421537876E0,1.177328587E1
1.459458319E1,-1.604985833E0,5.522634506E0,1.317129230E1
1.461459720E1,-5.706881881E-1,5.148756027E0,1.394237900E1
1.463422668E1,-3.308077157E-1,4.627120972E0,1.383230972E1
1.465404825E1,-5.078766346E-1,4.119244099E0,1.303250885E1
1.467386986E1,-5.898307562E-1,3.678964853E0,1.187856960E1
1.469369153E1,-3.786641955E-1,3.650250912E0,1.097348499E1
1.471370569E1,1.375873014E-2,3.482753277E0,1.115533924E1
1.473333507E1,1.860419661E-1,2.687737942E0,1.145204926E1
1.475315674E1,-1.250249892E-1,1.868794441E0,1.149512005E1
1.477297840E1,-9.056833982E-1,1.648654819E0,1.105005455E1
1.479280002E1,-1.188036442E0,2.299502611E0,9.881759644E0
1.481281418E1,-1.168893814E0,2.955734253E0,8.425726891E0
1.483244361E1,-1.422533035E0,2.678166628E0,7.487142086E0
1.485245772E1,-1.906481385E0,1.983649969E0,6.774080753E0
1.487208715E1,-2.145763636E0,1.844866276E0,6.452844620E0
1.489190877E1,-8.961120844E-1,1.318445325E0,6.640082836E0
1.491169200E1,4.731806815E-1,4.468596280E-1,7.626523972E0
1.493155194E1,-5.383851007E-3,8.727820516E-1,8.584251404E0
1.495156616E1,-2.542374134E-1,1.241276741E0,8.564510345E0
1.497119554E1,1.860419661E-1,1.011565804E0,7.832306862E0
1.499120970E1,8.709874153E-1,1.323230863E0,7.319644451E0
1.501083913E1,1.381855011E-1,2.242074728E0,7.549953461E0
1.503066075E1,-1.149751306E0,3.276372433E0,8.473583221E0
1.505067486E1,-2.361117840E0,3.726821184E0,8.133802414E0
1.507030429E1,-1.882553220E0,3.808177233E0,6.884150982E0
1.509012590E1,-9.200403094E-1,3.817748547E0,6.424130440E0
1.510994752E1,-3.690928817E-1,4.167100430E0,8.009375572E0
1.512973075E1,-3.690928817E-1,3.602394581E0,9.723833084E0
1.514978335E1,3.678964674E-1,2.333002090E0,1.123190975E1
1.516941267E1,2.020140409E0,1.380658627E0,1.237627697E1
1.518942684E1,2.359921217E0,3.559323549E-1,1.274536991E1
1.520918684E1,2.642872572E0,4.803591371E-1,1.126062298E1
1.522887731E1,3.744169235E0,3.257229805E0,1.014018440E1
1.524889163E1,2.096710920E0,7.174280643E0,1.032682419E1
1.526852106E1,-1.695913076E0,7.494918823E0,1.185942745E1
1.528830429E1,-8.099704385E-1,4.157529354E0,1.251506042E1
1.530816439E1,6.987041831E-1,3.132802963E0,1.297986603E1
1.532798611E1,2.173281193E0,2.855235577E0,1.152861977E1
1.534800038E1,4.572085857E0,8.727820516E-1,9.455238342E0
1.536762981E1,3.983451605E0,1.792224169E0,7.870592117E0
1.538764398E1,7.034898400E-1,5.599205017E0,6.419344902E0
1.540727335E1,-2.270190477E0,7.658228874E0,4.710271358E0
1.542709491E1,-9.535398483E-1,4.674977303E0,3.809971809E0
1.544710918E1,-1.298106313E-1,2.160718918E0,4.724628448E0
1.546673856E1,-7.429714203E-1,2.697309256E0,7.214360237E0
1.548656017E1,8.973085321E-3,3.276372433E0,9.781260490E0
1.550638184E1,1.847857237E0,3.190230846E0,9.790832520E0
1.552620351E1,1.599003673E0,2.812164783E0,7.405786037E0
1.554621773E1,-7.956135273E-1,2.716451883E0,6.050850391E0
1.556584710E1,-2.758924484E0,3.175873756E0,6.984649181E0
1.558586122E1,-1.896910191E0,3.693321705E0,8.401798248E0
1.560549064E1,-2.398804724E-1,4.923830986E0,8.871390343E0
1.562531220E1,-1.728814393E-1,5.656632900E0,8.018946648E0
1.564532632E1,-1.546959877E0,5.757131100E0,8.219944000E0
1.566495580E1,-2.499901533E0,5.618347645E0,1.004447079E1
1.568496986E1,-1.566700578E0,5.234897614E0,1.126062298E1
1.570459929E1,-5.228317380E-1,5.560919762E0,1.130848026E1
1.572442085E1,-1.240678549E0,5.819344521E0,1.083470058E1
1.574428095E1,-2.658426046E0,5.685346603E0,9.987043381E0
1.576406424E1,-2.542972326E0,5.704489231E0,8.880961418E0
1.578407835E1,-2.983849764E0,5.349753380E0,8.928817749E0
1.580370773E1,-6.550950050E0,4.387240410E0,1.088255692E1
1.582352939E1,-8.313263893E0,3.420539856E0,1.339621735E1
1.584335106E1,-5.669793129E0,3.309871912E0,1.266820145E1
1.586317273E1,-2.408974171E0,3.961317778E0,9.594022751E0
1.588318689E1,-1.829911113E0,5.005186558E0,7.664809227E0
1.590281632E1,-3.113062143E0,5.527420521E0,7.535596848E0
1.592263793E1,-3.793222189E0,4.627120972E0,7.832306862E0
1.594245965E1,-4.037290096E0,4.210171223E0,7.861020565E0
1.596228132E1,-3.208775282E0,4.301098824E0,7.817949772E0
1.598229549E1,-1.987837434E0,4.722833633E0,6.946363926E0
1.600192486E1,-2.408974171E0,4.852046013E0,6.189633846E0
1.602174653E1,-3.572484255E0,4.579264164E0,6.549155712E0
1.604152976E1,-2.935993433E0,4.789832592E0,7.161718369E0
1.606138981E1,-1.446461320E0,5.402395248E0,6.707081795E0
1.608140403E1,-3.510270834E0,5.551348686E0,2.823530674E0
1.610103340E1,-7.087540627E0,5.263611794E0,1.765304923E0
1.612081668E1,-5.330012321E0,5.886343479E0,7.185646534E0
1.614067674E1,-3.443271875E0,6.336194515E0,6.170491219E0
1.619826053E1,-1.680957973E-1,6.307480335E0,7.937591076E0
1.621808209E1,4.827519655E-1,6.216553211E0,9.359525681E0
1.623790365E1,1.477568001E-1,6.571289062E0,7.429714203E0
1.625772516E1,-1.001396298E0,6.786643028E0,5.198407173E0
1.627773928E1,-1.719841242E0,6.374479294E0,5.308476925E0
1.629736855E1,-1.044467092E0,6.331408501E0,7.042077065E0
1.631719011E1,7.465606928E-1,6.499504566E0,9.101100922E0
1.633701167E1,1.335195065E0,6.911069870E0,9.709476471E0
1.635683323E1,1.381855011E-1,6.891927242E0,9.067601204E0
1.637684735E1,-1.255035520E0,6.911069870E0,9.115457535E0
1.639660735E1,-1.049252748E0,6.887141705E0,9.560523033E0
1.641649073E1,-3.451646566E-1,7.121638298E0,9.589237213E0
1.643612000E1,-2.685943544E-1,7.653443336E0,9.934401512E0
1.645594151E1,-2.829512656E-1,7.537989616E0,1.206999588E1
1.647576303E1,3.487538993E-1,6.388836384E0,1.361157131E1
1.649558459E1,4.396811724E-1,4.990829945E0,1.180678558E1
1.651559865E1,-1.087537885E0,5.431109428E0,9.158528328E0
1.653522792E1,-2.586043119E0,6.968497753E0,8.176873207E0
1.655504943E1,-1.479960799E0,6.896713257E0,8.095517159E0
1.657487099E1,2.673979402E-1,4.517050743E0,7.928019524E0
1.659469256E1,-3.499503136E-1,2.663809776E0,9.153742790E0
1.661470657E1,-1.494317770E0,2.879163742E0,1.118405342E1
1.663433589E1,-1.614557028E0,3.061018467E0,1.163868904E1
1.665415740E1,-1.154536963E0,3.352942705E0,9.656833649E0
1.667397896E1,-5.706881881E-1,3.908675671E0,7.928019524E0
1.669380053E1,-3.068794906E-1,2.955734253E0,8.114660263E0
1.671381459E1,-6.999006271E-1,1.993221283E0,7.923233986E0
1.673344386E1,-1.345962733E-1,2.386242390E0,7.434499741E0
1.675326542E1,3.774677813E-1,3.913461447E0,7.640881062E0
1.677308693E1,-2.494517565E-1,5.254040241E0,8.397012711E0
1.679290849E1,-1.360319614E0,5.666203976E0,7.999804497E0
1.681292261E1,-3.116651475E-1,4.301098824E0,6.726224422E0
1.683255188E1,1.488335729E0,1.969292998E0,6.831508636E0
1.685237339E1,9.990034252E-2,1.006780148E0,6.793223381E0
1.687219495E1,-2.126621008E0,9.349954724E-1,5.864210129E0
1.689201651E1,-1.446461320E0,1.935793519E0,5.265406132E0
1.691203063E1,-1.097109199E0,3.717249870E0,5.687141418E0
1.693165985E1,-3.026920557E0,5.919843197E0,7.918448448E0
1.695148141E1,-4.032504559E0,6.388836384E0,9.058030128E0
1.697130297E1,-1.719841242E0,4.847260475E0,8.938388824E0
1.699112448E1,1.599003673E0,3.726821184E0,9.675976753E0
1.701113860E1,3.384647608E0,3.535395384E0,1.324786282E1
1.703076787E1,4.323232174E0,5.110470772E0,1.645125389E1
1.705058943E1,4.462016106E0,4.320241451E0,1.589133358E1
1.707041094E1,2.623729944E0,3.271586657E0,1.112183952E1
1.709023250E1,-5.611169338E-1,5.680561066E0,6.759724140E0
1.711024662E1,1.258624673E0,4.646263599E0,7.971090317E0
1.712987589E1,2.714657307E0,4.018745422E0,1.089212894E1
1.714965896E1,3.351148129E0,4.167100430E0,1.249591827E1
1.716951891E1,2.762513638E0,3.712464333E0,1.263470173E1
1.718934047E1,1.589432478E0,1.433300734E0,1.013539886E1
1.720935464E1,-5.078766346E-1,1.811366796E0,7.262216568E0
1.722898386E1,-1.680957973E-1,2.783450842E0,6.587440968E0
1.724899792E1,1.497906923E0,2.860021353E0,6.213562012E0
1.726862719E1,2.101496458E0,3.497110367E0,5.787639618E0
1.728833360E1,3.207578659E0,2.270788670E0,5.510072231E0
1.730823162E1,4.093521118E0,1.940579176E0,6.213562012E0
1.732809157E1,2.781656265E0,2.735594511E0,8.502297401E0
1.734810573E1,2.063211441E0,1.935793519E0,1.051825047E1
1.736773500E1,1.282552958E0,1.663011789E0,1.045603657E1
1.738751813E1,1.081555843E0,2.117648125E0,9.560523033E0
1.740737808E1,4.157529473E-1,2.467598438E0,9.125029564E0
1.742719969E1,-1.255035520E0,2.831307411E0,7.650452137E0
1.744721375E1,-2.667997360E0,3.492324591E0,7.204789162E0
1.746684303E1,-2.739781857E0,3.990031719E0,8.670392990E0
1.748685709E1,-2.241476536E0,3.918246984E0,1.026461124E1
1.750648641E1,-1.734198213E0,3.180659533E0,1.049432182E1
1.752626954E1,-4.408775866E-1,3.290729284E0,9.550951958E0
1.754632188E1,-1.345962733E-1,4.368097782E0,9.507881165E0
1.756595115E1,-3.882354796E-1,4.746761799E0,1.138026428E1
1.758577271E1,1.190429255E-1,4.033102512E0,1.268255806E1
1.760559428E1,1.375873014E-2,3.913461447E0,1.246241856E1
1.762541578E1,-9.439685345E-1,4.377668858E0,1.229013538E1
1.764542985E1,-1.259821177E0,4.526622295E0,1.184985638E1
1.766505917E1,-1.278963685E0,4.435695171E0,1.043689442E1
1.768507318E1,-1.412961721E0,4.799404144E0,1.004447079E1
1.770470245E1,-2.159522474E-1,4.598406792E0,1.018804073E1
1.772452396E1,6.747759581E-1,4.100101471E0,9.939187050E0
1.774453797E1,4.971089065E-1,4.200600147E0,8.890532494E0
1.776416724E1,4.827519655E-1,4.435695171E0,7.540382385E0
1.778398875E1,6.556333899E-1,4.114458561E0,6.668796539E0
1.780381026E1,4.588237405E-1,3.463610888E0,6.151348591E0
1.782359339E1,2.243271172E-1,2.989233732E0,5.907280922E0
1.784364584E1,4.247260094E-2,3.075375319E0,6.055635929E0
1.786340584E1,-3.786641955E-1,3.463610888E0,6.208776474E0
1.788328922E1,-1.097109199E0,3.583251953E0,6.093921185E0
1.790291855E1,-1.839482427E0,3.669393539E0,6.065207005E0
1.792274000E1,-2.107478619E0,4.176671982E0,6.299703598E0
1.794275401E1,-1.992623091E0,5.081757069E0,6.821937561E0
1.796238334E1,-1.758126378E0,6.020341873E0,7.530810833E0
1.798220474E1,-1.648056626E0,6.628716946E0,8.224729538E0
1.800202631E1,-1.044467092E0,6.824928284E0,8.746963501E0
1.802184787E1,-3.499503136E-1,6.757929325E0,8.708678246E0
1.804186188E1,-6.759724021E-2,6.743572235E0,8.564510345E0
1.806149115E1,-2.255235314E-1,6.700501442E0,8.641678810E0
1.808150521E1,-8.195417374E-2,6.595217228E0,9.029315948E0
1.810113443E1,6.412764788E-1,6.159125328E0,9.488738060E0
1.812095594E1,7.034898400E-1,5.498706341E0,9.570094109E0
1.814073907E1,-1.633101404E-1,5.206183910E0,9.412167549E0
1.816059896E1,-6.616154313E-1,5.062614441E0,9.349954605E0
1.818061303E1,-4.265206456E-1,5.110470772E0,1.012104130E1
1.820024230E1,3.104687333E-1,4.890331268E0,1.148076344E1
1.822006386E1,1.129412293E0,4.200600147E0,1.187856960E1
1.823988547E1,1.603789330E0,3.722035646E0,1.071027374E1
1.825970693E1,1.158126116E0,3.875176191E0,8.531010628E0
1.827972105E1,1.764706671E-1,4.450051785E0,6.496513367E0
1.829935026E1,-2.494517565E-1,4.579264164E0,5.150550842E0
1.831917183E1,-1.537388563E-1,4.320241451E0,4.662415028E0
1.833899339E1,2.530409992E-1,3.875176191E0,4.772484779E0
1.835881495E1,5.359922647E-1,3.401397467E0,5.088337421E0
1.837882907E1,1.046859920E-1,3.151945591E0,5.121836662E0
1.839845834E1,-4.983053207E-1,3.209373474E0,5.399404526E0
1.841827985E1,-6.376872063E-1,3.501895905E0,6.079564095E0
1.843806297E1,-3.888336942E-2,3.999603033E0,6.903293133E0
1.845811547E1,6.412764788E-1,4.521836758E0,7.511070251E0
1.847793719E1,3.008974493E-1,4.842474937E0,7.660023689E0
1.849756651E1,-2.733799815E-1,5.076971531E0,7.798807144E0
1.851738803E1,-3.355933726E-1,4.990829945E0,8.656036377E0
1.853720948E1,-5.371887088E-1,4.923830986E0,1.000618649E1
1.855703105E1,-4.935196638E-1,5.258825779E0,1.103091240E1
1.857704511E1,-2.638086975E-1,5.469992638E0,1.114098263E1
1.859667438E1,-3.930211067E-1,5.589633465E0,1.062831974E1
1.861649594E1,-4.360919297E-1,5.623133183E0,1.027896786E1
1.863631745E1,8.554340899E-2,5.728417397E0,1.054696369E1
1.865613901E1,-2.159522474E-1,6.250052929E0,1.116012478E1
1.867615302E1,-1.944766641E0,6.724429607E0,1.137069321E1
1.869578235E1,-2.859423161E0,6.455835342E0,1.107398319E1
1.871560386E1,-2.083550215E0,6.096911907E0,1.067198944E1
1.873538698E1,-9.008977413E-1,5.733202934E0,1.022632599E1
1.875524698E1,-6.424728632E-1,5.527420521E0,1.017846966E1
1.877526110E1,-1.020538807E0,5.124827862E0,1.020239735E1
1.879489032E1,-1.006181955E0,4.631906509E0,1.007318497E1
1.881467344E1,-7.238288522E-1,4.325026989E0,9.608977318E0
1.883453339E1,-4.073780477E-1,4.128815651E0,8.976674080E0
1.885435490E1,-1.393819153E-1,3.860819340E0,8.392227173E0
1.887436907E1,6.640082598E-2,3.458825111E0,7.626523972E0
1.889399829E1,3.768695518E-2,3.257229805E0,6.721438885E0
1.891401235E1,-1.441675574E-1,3.281157970E0,5.950351715E0
1.893364162E1,-2.931207791E-2,3.382254839E0,5.849853039E0
1.895346313E1,3.870390654E-1,3.252444267E0,6.103492260E0
1.897343865E1,6.891329288E-1,3.032304525E0,6.294918060E0
1.899310646E1,4.013960063E-1,3.075375319E0,6.452844620E0
1.901312042E1,-3.068794906E-1,3.233301640E0,6.558726788E0
1.903274969E1,-6.089733839E-1,3.726821184E0,6.687939167E0
1.905257120E1,-6.568298340E-1,4.440480709E0,6.922435760E0
1.907235433E1,-9.200403094E-1,4.938187599E0,7.257431030E0
1.909217579E1,-1.240678549E0,5.599205017E0,7.314858913E0
1.911222829E1,-1.326820135E0,6.278766632E0,7.209574699E0
1.913185756E1,-1.398604870E0,6.523432732E0,7.515855789E0
1.915167912E1,-1.374676585E0,6.484549522E0,8.502297401E0
1.917150063E1,-8.338986635E-1,6.340980053E0,9.838688850E0
1.919132219E1,-8.673982322E-2,6.509075642E0,1.082512951E1
1.921133631E1,-6.281159073E-2,6.552146435E0,1.160519028E1
1.923096558E1,-5.946164131E-1,5.996413708E0,1.207956696E1
1.925078714E1,-9.918249846E-1,5.378467083E0,1.201735306E1
1.927060865E1,-7.525427341E-1,5.100899696E0,1.143290615E1
1.929043021E1,-2.111666054E-1,4.957330227E0,1.056132126E1
1.931044433E1,-2.931207791E-2,4.718048096E0,9.699904442E0
1.933007360E1,1.908276081E-1,4.493122578E0,9.192028046E0
1.934989511E1,3.966103494E-1,4.301098824E0,9.421739578E0
1.936967823E1,4.247260094E-2,3.851248026E0,9.805189133E0
1.938953818E1,-2.590230405E-1,3.352942705E0,9.690333366E0
1.940955230E1,-1.728814393E-1,3.430111170E0,9.259027481E0
1.942918157E1,1.621137410E-1,4.076173306E0,8.694320679E0
1.944900313E1,2.578266263E-1,4.339384079E0,7.947162151E0
1.946882469E1,8.973085321E-3,4.205385685E0,7.381857872E0
1.948864625E1,-2.159522474E-1,4.147958279E0,7.123433113E0
1.950866037E1,8.554340899E-2,4.176671982E0,7.109076023E0
1.952828964E1,5.114658475E-1,4.124029636E0,7.118647575E0
1.954811115E1,5.934200287E-1,4.186243057E0,7.066005230E0
1.956793271E1,6.173482537E-1,4.291527271E0,6.702296257E0
1.958775428E1,3.008974493E-1,4.253242016E0,6.184848309E0
1.960776839E1,-6.759724021E-1,4.238885403E0,6.419344902E0
1.962739766E1,-1.125823021E0,4.348955154E0,7.089933395E0
1.964721922E1,-7.860422134E-1,4.517050743E0,7.338787079E0
1.966704073E1,-5.611169338E-1,4.885545731E0,7.750950813E0
1.968686230E1,-8.434699774E-1,5.182255745E0,8.723034859E0
1.970687641E1,-7.716853023E-1,5.225326538E0,9.738189697E0
1.972663641E1,-4.552344978E-1,5.076971531E0,1.008754253E1
1.974632667E1,-4.217349887E-1,5.134399414E0,9.493523598E0
1.976614829E1,-3.020938635E-1,4.981258392E0,8.296514511E0
1.978596995E1,-3.547359705E-1,4.933402061E0,7.247859955E0
1.980598417E1,-6.520441771E-1,5.589633465E0,7.070790768E0
1.982561349E1,-1.341177106E0,6.824928284E0,7.727022648E0
1.984562761E1,-1.968694806E0,7.629515171E0,8.890532494E0
1.986538761E1,-1.628913999E0,6.853642464E0,1.018804073E1
1.988507787E1,-1.135394335E0,5.790630817E0,1.162433243E1
1.990486105E1,-7.956135273E-1,5.431109428E0,1.238106251E1
1.992472110E1,-4.360919297E-1,5.206183910E0,1.179242802E1
1.994473542E1,-4.695914388E-1,5.043471813E0,1.058046341E1
1.996449542E1,-8.434699774E-1,4.952544689E0,9.943972588E0
1.998418563E1,-1.307677627E0,4.765904427E0,9.455238342E0
2.000400735E1,-1.417747378E0,4.636692047E0,8.612964630E0
2.002382907E1,-1.144965649E0,4.493122578E0,7.736593723E0
2.004384344E1,-8.243274093E-1,4.310669899E0,7.085147858E0
2.006347266E1,-3.978067636E-1,3.990031719E0,6.683153629E0
2.008348688E1,2.811566554E-2,3.688536167E0,6.366703033E0
2.010311615E1,-1.016949583E-2,3.745963812E0,6.098706722E0
2.012293771E1,-3.888336942E-2,3.923032761E0,6.036493301E0
2.014295178E1,9.990034252E-2,3.999603033E0,6.022136211E0
2.016258105E1,2.333002165E-2,4.047459602E0,5.983851433E0
2.018240261E1,-3.308077157E-1,4.325026989E0,6.098706722E0
2.020222417E1,-8.099704385E-1,4.981258392E0,6.318846226E0
2.022204573E1,-8.338986635E-1,5.541777134E0,6.568298340E0
2.024205985E1,-5.126622319E-1,5.891129494E0,7.137789726E0
2.026181985E1,-1.872383654E-1,6.025127411E0,8.243872643E0
2.028170329E1,-1.016949583E-2,5.790630817E0,9.359525681E0
2.030133250E1,1.190429255E-1,5.714060307E0,9.613762856E0
2.032115401E1,4.253242314E-1,6.187839508E0,9.488738060E0
2.034116802E1,3.583251834E-1,6.494120598E0,1.033639526E1
2.036079735E1,3.439682424E-1,5.833701611E0,1.181635666E1
2.038081131E1,1.764706671E-1,4.732405186E0,1.275015545E1
2.040044063E1,-2.159522474E-1,4.329812527E0,1.265384388E1
2.042026204E1,-1.920240223E-1,4.435695171E0,1.210349560E1
2.044027610E1,4.301098585E-1,4.464408875E0,1.146162033E1
2.045990537E1,1.311266780E0,4.329812527E0,1.061396313E1
2.047991933E1,1.838286042E0,4.157529354E0,9.642477036E0
2.049954865E1,1.962712765E0,3.932604074E0,8.751749039E0
2.051937016E1,1.469193101E0,3.851248026E0,8.090731621E0
2.053938412E1,9.906286001E-1,3.726821184E0,7.884948730E0
2.055901344E1,1.033699393E0,3.391826153E0,7.765307903E0
2.057883495E1,1.435693622E0,3.061018467E0,7.386643410E0
2.059865646E1,2.044068813E0,2.955734253E0,6.798008919E0
2.061847802E1,2.522633314E0,3.051447153E0,5.916851997E0
2.063849209E1,2.589632273E0,3.333800077E0,4.983053207E0
2.065812136E1,2.101496458E0,3.626322746E0,4.341178417E0
2.067813542E1,1.450050473E0,3.607180119E0,4.082753658E0
2.069776469E1,8.279166222E-1,3.578466177E0,4.307679176E0
2.071754782E1,1.812563092E-1,3.980460405E0,5.121836662E0
2.073736928E1,-3.547359705E-1,4.555335999E0,6.065207005E0
2.075719079E1,-5.754738450E-1,5.024329185E0,7.032505512E0
2.077724329E1,-7.381857634E-1,5.378467083E0,7.875377655E0
2.079687256E1,-1.073180914E0,5.891129494E0,8.775676727E0
2.081669417E1,-9.678967595E-1,6.393621922E0,9.795618057E0
2.083651573E1,-5.706881881E-1,6.877570629E0,1.081555843E1
2.085633730E1,-8.195417374E-2,7.155138016E0,1.172542953E1
2.087635141E1,2.099701911E-1,7.246065140E0,1.183549881E1
2.089598068E1,3.200400174E-1,7.360920429E0,1.139462185E1
2.091580224E1,3.439682424E-1,7.639086246E0,1.066720295E1
2.093562386E1,-7.238288224E-2,7.940581799E0,1.009232807E1
2.095544542E1,-6.520441771E-1,7.596015453E0,1.014018440E1
2.097545954E1,-1.197607756E0,6.992425919E0,1.088255692E1
2.099508881E1,-6.424728632E-1,5.929414749E0,1.173500061E1
2.101491037E1,5.066801906E-1,4.732405186E0,1.201256752E1
2.103473193E1,9.379864931E-1,4.339384079E0,1.084905815E1
2.105455349E1,3.104687333E-1,4.674977303E0,9.316454887E0
2.107456761E1,-8.673982024E-1,4.890331268E0,8.392227173E0
2.109419688E1,-1.259821177E0,4.507479668E0,7.774878979E0
2.111401849E1,-7.238288522E-1,3.951746702E0,7.334001541E0
2.113384006E1,7.597211748E-2,3.822534084E0,7.099504948E0
2.115366162E1,7.752745152E-1,4.042674065E0,6.831508636E0
2.117367573E1,9.858429432E-1,4.167100430E0,6.769295216E0
2.119330500E1,5.694918036E-1,3.994817495E0,6.530013084E0
2.121308813E1,3.343969584E-1,3.616751432E0,5.950351715E0
2.123290964E1,7.597211748E-2,3.559323788E0,5.399404526E0
2.125276959E1,-5.706881881E-1,4.076173306E0,5.241477966E0
2.127278375E1,-1.523031592E0,4.540979385E0,5.892923832E0
2.129254375E1,-2.102692842E0,4.660620213E0,6.951149940E0
2.131223401E1,-1.719841242E0,4.789832592E0,7.923233986E0
2.133205573E1,-1.039681435E0,5.311468124E0,8.852247238E0
2.135187740E1,-6.281159520E-1,5.938985825E0,9.623334885E0
2.137189167E1,-1.537388563E-1,6.101697922E0,9.982257843E0
2.139165167E1,3.726821244E-1,6.025127411E0,1.014018440E1
2.141134188E1,5.216353536E-1,5.694917679E0,1.029811001E1
2.143116365E1,4.444667995E-1,5.005186558E0,1.025025368E1
2.145098537E1,2.530409992E-1,4.469194412E0,9.862616539E0
2.147099974E1,9.990034252E-2,3.994817495E0,9.067601204E0
2.149062901E1,-2.781656384E-1,3.482753277E0,8.152944565E0
2.151064318E1,-6.376872063E-1,3.698107481E0,7.784450054E0
2.153027256E1,-5.563312769E-1,4.267599106E0,8.344370842E0
2.155009412E1,-1.010967568E-1,4.396811485E0,9.436096191E0
2.156991568E1,6.460621357E-1,4.353740692E0,1.059960651E1
2.158973724E1,1.493121386E0,4.090530396E0,1.081077290E1
2.160975136E1,1.296909928E0,4.080958843E0,9.939187050E0
2.162938068E1,9.475577474E-1,4.119244099E0,8.718249321E0
2.164916386E1,1.071984529E0,3.851248026E0,7.674380302E0
2.166902381E1,1.162911773E0,3.702893019E0,7.223931789E0
2.168884537E1,1.948355794E0,3.683750391E0,7.434499741E0
2.170885954E1,2.465205431E0,3.769891977E0,7.593024254E0
2.172848881E1,2.312064886E0,3.985246181E0,7.319644451E0
2.174831042E1,1.790429592E0,4.258028030E0,6.936792850E0
2.176813198E1,1.296909928E0,4.372883320E0,6.649653912E0
2.178795355E1,7.704889178E-1,4.483551502E0,6.754938126E0
2.180796771E1,3.343969584E-1,4.962115765E0,7.329215527E0
2.182759698E1,8.075776696E-2,5.426323414E0,8.306085587E0
2.184741855E1,-1.250249892E-1,5.785845280E0,8.751749039E0
2.186720172E1,-6.281159073E-2,6.250052929E0,9.005388260E0
2.188706167E1,1.046859920E-1,6.542575359E0,9.483952522E0
2.190707573E1,3.104687333E-1,6.436692715E0,1.030768204E1
2.192670506E1,7.609176040E-1,6.020341873E0,1.079162979E1
2.194648823E1,7.561319470E-1,5.416752338E0,1.052782154E1
2.196634823E1,3.290131316E-2,4.928616524E0,1.046082211E1
2.198616980E1,-6.233302951E-1,5.416752338E0,1.067677498E1
2.200618391E1,-5.324030519E-1,5.163113117E0,1.010189915E1
2.202581318E1,-2.446661144E-1,5.277968407E0,9.733404160E0
2.204563485E1,3.152543902E-1,5.196612358E0,1.059960651E1
2.206545641E1,2.020140409E0,4.200600147E0,1.105005455E1
2.208527797E1,2.536990166E0,2.893520832E0,1.101655579E1
2.210529209E1,1.862214208E0,3.161516905E0,1.081077290E1
2.212492141E1,1.440479279E0,4.018745422E0,9.527023315E0
2.214474297E1,1.402194023E0,4.540979385E0,8.095517159E0
2.216452610E1,7.992027402E-1,3.894318819E0,7.908876896E0
2.218438605E1,-1.441675574E-1,2.592025042E0,8.205587387E0
2.220440021E1,-1.020538807E0,2.179861546E0,8.157731056E0
2.222402948E1,-1.585843205E0,2.510669231E0,7.655237675E0
2.224381266E1,-1.255035520E0,2.893520832E0,6.893722057E0
2.226363412E1,-3.978067636E-1,3.080160856E0,6.927221775E0
2.228368672E1,2.243271172E-1,2.807379246E0,7.295716286E0
2.230350849E1,1.046859920E-1,3.678964853E0,6.979863644E0
2.232313782E1,-2.931207791E-2,3.865604877E0,6.046064377E0
2.234315183E1,1.908276081E-1,4.095315933E0,5.605785370E0
2.236291183E1,1.238285750E-1,4.224528313E0,6.093921185E0
2.238260209E1,-4.025924206E-1,4.727619171E0,7.219145775E0
2.240242375E1,-9.248259664E-1,5.081757069E0,7.827520847E0
2.242224537E1,-4.791627228E-1,4.995615482E0,9.531808853E0
2.244225959E1,-1.441675574E-1,4.804189682E0,1.178285694E1
2.246201959E1,-1.202393398E-1,4.478765965E0,1.206521034E1
2.248190308E1,4.444667995E-1,3.942175388E0,1.133240795E1
2.250153240E1,1.497906923E0,3.209373474E0,1.112183952E1
2.252135396E1,1.048056364E0,3.051447153E0,1.119362450E1
2.254136808E1,-4.648058116E-1,3.190230846E0,1.121755219E1
2.256099735E1,-8.195417374E-2,3.305086374E0,1.118883896E1
2.258081886E1,1.177268744E0,2.654238462E0,1.123669529E1
2.260064042E1,2.757728100E0,1.596012712E0,1.114098263E1
2.262046204E1,2.829512835E0,2.270788670E0,1.075813103E1
2.264047615E1,2.039283037E0,3.808177233E0,9.786046028E0
2.266010542E1,-2.111666054E-1,5.647061348E0,7.712665558E0
2.268011948E1,1.238285750E-1,4.660620213E0,5.308476925E0
2.269987948E1,2.235494614E0,3.108874798E0,5.356333256E0
2.271956974E1,2.149353027E0,3.554538012E0,6.280561447E0
2.273958401E1,6.987041831E-1,5.148756027E0,6.922435760E0
2.275921334E1,3.290131316E-2,6.096911907E0,6.707081795E0
2.277903495E1,7.597211748E-2,5.714060307E0,6.563512325E0
2.279885657E1,5.742774606E-1,3.750749588E0,7.013363361E0
2.281867818E1,-1.728814393E-1,3.295515060E0,8.301300049E0
2.283869230E1,-1.101894855E0,3.875176191E0,7.789236069E0
2.285832167E1,-7.860422134E-1,4.296313286E0,6.438487530E0
2.287814323E1,-2.361117840E0,4.512265205E0,6.707081795E0
2.289796480E1,-3.065205812E0,4.152743816E0,7.410571575E0
2.291778641E1,-1.436890006E0,4.856831551E0,7.405786037E0
2.293780053E1,-1.537388563E-1,6.374479294E0,7.434499741E0
2.295742985E1,-3.164508045E-1,6.638288021E0,8.229515076E0
2.297744396E1,-1.887338877E0,6.159125328E0,9.503094673E0
2.299707323E1,-2.845066071E0,6.321837425E0,1.021675491E1
2.301689480E1,-2.547757864E0,7.121638298E0,9.637691498E0
2.303690886E1,-2.006979942E0,7.528418064E0,8.852247238E0
2.305653818E1,-3.069991350E0,7.164709091E0,8.353941917E0
2.307635974E1,-4.861019135E0,6.407979012E0,8.723034859E0
2.309618125E1,-5.723033428E0,6.116054535E0,9.488738060E0
2.311600287E1,-5.607579708E0,6.350551128E0,9.316454887E0
2.313601698E1,-5.444868088E0,6.240481377E0,8.047660828E0
2.315564625E1,-5.282155991E0,5.910272121E0,7.908876896E0
2.317566026E1,-4.760520458E0,5.895915031E0,8.770891190E0
2.319542026E1,-4.444069862E0,6.068198204E0,9.306883812E0
2.321511058E1,-4.156930923E0,5.943771362E0,8.919246674E0
2.323489386E1,-4.295714855E0,5.623133183E0,7.674380302E0
2.325475386E1,-4.592424870E0,5.311468124E0,6.577869415E0
2.327476818E1,-4.856233597E0,5.383252621E0,6.122634888E0
2.329439745E1,-5.243870735E0,5.867201328E0,6.136991978E0
2.331421912E1,-5.038087845E0,5.752345562E0,6.074778557E0
2.333404068E1,-3.769293785E0,4.875974178E0,5.179264545E0
2.335386230E1,-3.299702406E0,5.009972572E0,2.095514536E0
2.337387651E1,-4.137788773E0,5.321039200E0,2.411965132E0
2.339350579E1,-5.411368370E0,6.063412666E0,7.554739475E0
2.341332740E1,-4.491926193E0,6.202196121E0,7.133004189E0
2.343311053E1,-4.851448059E0,6.714858532E0,9.128618240E-1
2.349640963E1,-1.044467092E0,6.360122681E0,8.009375572E0
2.351623114E1,-5.324030295E-2,6.891927242E0,7.324429989E0
2.353605270E1,2.811566554E-2,6.547360897E0,6.544369698E0
2.355606687E1,-8.099704385E-1,6.259624004E0,6.486343861E0
2.357569608E1,-1.398604870E0,6.504290104E0,7.219145775E0
2.359551760E1,-5.515456200E-1,6.925426960E0,7.200003147E0
2.361533905E1,-2.159522474E-1,7.293921471E0,5.945566177E0
2.363516051E1,-6.855437160E-1,7.250850677E0,6.342774391E0
2.365517463E1,-1.288534999E0,6.848856449E0,9.086744308E0
2.367480379E1,-2.907279491E0,7.040282249E0,1.171107197E1
2.369462530E1,-4.099503517E0,7.375277519E0,1.252463150E1
2.371444676E1,-3.486342669E0,7.470990658E0,1.133719349E1
2.373426822E1,-2.533401012E0,7.045068264E0,9.924830437E0
2.375428223E1,-1.983051777E0,5.460421085E0,9.924830437E0
2.377391140E1,-3.055634499E0,5.081757069E0,1.157647610E1
2.379373286E1,-2.902493954E0,6.001199245E0,1.331007576E1
2.381355431E1,-6.281159520E-1,6.307480335E0,1.315214920E1
2.383337582E1,1.381855011E-1,5.790630817E0,9.043673515E0
2.385338983E1,-1.087537885E0,5.364109993E0,5.821139336E0
2.387301900E1,-2.164906263E0,4.990829945E0,6.232704639E0
2.389284046E1,-2.490330219E0,4.210171223E0,7.453642368E0
2.391266192E1,-1.532602906E0,3.238087177E0,7.937591076E0
2.393248338E1,-5.371887088E-1,3.621536970E0,7.813164234E0
2.395249739E1,-2.973082066E-1,3.559323788E0,7.937591076E0
2.397212661E1,2.291127741E-1,1.978864312E0,8.579465866E0
2.399194806E1,6.843472719E-1,-2.045863420E-1,8.895318031E0
2.401176952E1,-7.668996453E-1,-5.682953596E-1,8.651249886E0
2.403159098E1,-1.140179992E0,2.021935135E-1,9.579665184E0
2.405160504E1,4.247260094E-2,7.770691514E-1,1.124148083E1
2.407123421E1,3.768695518E-2,-4.103690982E-1,1.021196842E1
2.409105567E1,-4.743770957E-1,-1.640878081E0,8.468797684E0
2.411087713E1,-2.744567633E0,-3.864408433E-1,7.985447407E0
2.413066015E1,-3.912863255E0,1.428515077E0,8.411369324E0
2.415071254E1,-3.486342669E0,2.548954248E0,7.597810268E0
2.417034171E1,-2.385046005E0,3.659822226E0,6.640082836E0
2.419035572E1,-1.700698733E0,4.885545731E0,7.314858913E0
2.420998489E1,-2.227119684E0,5.191826820E0,8.880961418E0
2.422980629E1,-2.868994236E0,5.603990555E0,1.009711361E1
2.424958937E1,-1.681556106E0,5.191826820E0,1.026461124E1
2.426944921E1,-1.269392371E0,5.508277893E0,1.017846966E1
2.428946322E1,-3.017349243E0,6.125626087E0,1.003489971E1
2.430909239E1,-2.682354212E0,5.938985825E0,1.133240795E1
2.432891385E1,-1.728814393E-1,5.148756027E0,1.183071327E1
2.434873530E1,9.858429432E-1,5.134399414E0,1.220399380E1
2.436855676E1,1.057627559E0,4.708476543E0,1.356371498E1
2.438857077E1,8.757730722E-1,3.975674868E0,1.329093361E1
2.440833077E1,1.225125194E0,3.564109325E0,1.060917759E1
2.442821405E1,1.704287887E0,2.673381090E0,7.176074982E0
2.444784322E1,1.397408366E0,2.328216314E0,5.318048477E0
2.446766463E1,1.234696507E0,2.587239504E0,5.797211170E0
2.448767853E1,7.130611539E-1,4.162314892E0,8.545368195E0
2.450730775E1,1.812563092E-1,5.623133183E0,9.282955170E0
2.452712911E1,1.477568001E-1,4.942973614E0,6.807580471E0
2.454695056E1,9.475577474E-1,4.181457520E0,5.255835056E0
2.456677202E1,5.647061467E-1,4.167100430E0,4.451846600E0
2.458678603E1,8.709874153E-1,4.076173306E0,5.212764263E0
2.460641515E1,1.795215130E0,3.698107481E0,6.683153629E0
2.462642916E1,1.670788407E0,3.592823267E0,6.476772785E0
2.464605832E1,4.971089065E-1,4.018745422E0,5.198407173E0
2.466587973E1,-7.381857634E-1,4.267599106E0,5.050052166E0
2.468589369E1,-1.686341763E0,4.713262558E0,6.640082836E0
2.470552286E1,-1.595414519E0,5.982056618E0,9.608977318E0
2.472534431E1,-1.326820135E0,6.345765591E0,1.137547874E1
2.474516572E1,-1.106680512E0,6.183053493E0,1.246241856E1
2.476498723E1,-1.082752228E0,6.077769279E0,1.330050468E1
2.478500119E1,-8.243274093E-1,5.790630817E0,1.364507103E1
2.480476119E1,-1.231107235E0,6.106483459E0,1.161476135E1
2.482464437E1,-2.131406784E0,6.968497753E0,9.330811501E0
2.484427364E1,-1.805982947E0,7.480561733E0,8.521439552E0
2.486409504E1,-8.578268886E-1,7.246065140E0,8.828319550E0
2.488410890E1,-1.168893814E0,6.120840549E0,1.032203865E1
2.490386890E1,-1.901695848E0,4.627120972E0,1.118405342E1
2.492355895E1,-2.107478619E0,3.745963812E0,1.029811001E1
2.494338056E1,-1.896910191E0,4.195814610E0,8.196015358E0
2.496316369E1,-1.269392371E0,5.081757069E0,5.538786411E0
2.498321614E1,-1.034895778E0,5.249254704E0,4.283750534E0
2.500284536E1,-1.154536963E0,4.895116806E0,4.911268711E0
2.502285937E1,-8.721838593E-1,4.655834675E0,6.227919102E0
2.504248858E1,-4.743770957E-1,4.382454872E0,7.487142086E0
2.506227161E1,-2.350948304E-1,4.109673023E0,8.023732185E0
2.508209301E1,-6.759724021E-2,3.870390654E0,7.564310551E0
2.510195286E1,-3.451646566E-1,3.698107481E0,6.553941250E0
2.512196692E1,-1.255035520E0,3.856033802E0,5.897709846E0
2.514159614E1,-1.968694806E0,3.980460405E0,5.581857204E0
2.516141760E1,-1.729412556E0,3.683750391E0,5.050052166E0
2.518123905E1,-1.006181955E0,3.195016384E0,4.490131855E0
2.520106062E1,-1.245464206E0,3.362514019E0,5.212764263E0
2.522107457E1,-2.595614433E0,4.066602230E0,6.506084919E0
2.524070379E1,-4.156930923E0,4.775475979E0,8.656036377E0
2.526052525E1,-4.717449665E0,4.459623337E0,9.967901230E0
2.528034671E1,-5.526223660E0,4.128815651E0,1.120319557E1
2.530012978E1,-5.157729149E0,4.483551502E0,1.301815128E1
2.532018218E1,-3.860221148E0,4.214957237E0,1.391366577E1
2.533981135E1,-2.562114954E0,3.808177233E0,1.440658665E1
2.535963286E1,-2.475973129E0,4.469194412E0,1.369771290E1
2.537945437E1,-2.557329178E0,4.976472855E0,1.237149143E1
2.539927582E1,-1.815554142E0,4.909473896E0,1.169671535E1
2.541928983E1,-8.865407705E-1,4.775475979E0,1.100698376E1
2.543891900E1,6.640082598E-2,4.660620213E0,9.853045464E0
2.545874051E1,8.231309652E-1,4.679762840E0,8.718249321E0
2.547856197E1,1.320838094E0,4.804189682E0,7.774878979E0
2.549838343E1,1.253839016E0,4.957330227E0,6.989434719E0
2.551839744E1,8.997012973E-1,4.986044407E0,6.381059647E0
2.553802666E1,9.044869542E-1,4.804189682E0,6.390631199E0
2.555784812E1,1.129412293E0,4.488337040E0,6.491727829E0
2.557766957E1,1.339980721E0,4.143172264E0,6.203990936E0
2.559745260E1,1.497906923E0,3.698107481E0,5.720640659E0
2.561750504E1,9.714859724E-1,3.343371391E0,5.097908497E0
2.563713421E1,5.204389244E-2,3.295515060E0,4.571487427E0
2.565714822E1,-7.477570772E-1,3.410968781E0,4.226323128E0
2.567677744E1,-1.662413478E0,3.611965895E0,3.963112593E0
2.569659885E1,-2.265404940E0,4.114458561E0,4.935196877E0
2.571661286E1,-1.283749342E0,4.952544689E0,6.764509678E0
2.573624207E1,-8.673982322E-2,6.460621357E0,8.363512993E0
2.575606348E1,-6.520441771E-1,7.897511005E0,1.053260708E1
2.577588494E1,-1.546959877E0,7.509275436E0,1.227099228E1
2.579570645E1,-2.318047047E0,6.576074600E0,1.278844070E1
2.581572046E1,-2.107478619E0,6.345765591E0,1.260598755E1
2.583534963E1,-1.058824062E0,6.455835342E0,1.195035458E1
2.585513270E1,-1.274178028E0,6.561717987E0,1.120798111E1
2.587499254E1,-1.643270969E0,6.039484501E0,1.090170002E1
2.589481405E1,-1.930409670E0,5.316253662E0,1.069113159E1
2.591482806E1,-2.586043119E0,5.134399414E0,1.066720295E1
2.593445723E1,-2.006979942E0,5.024329185E0,1.069113159E1
2.595447119E1,-1.144965649E0,4.746761799E0,1.007318497E1
2.597410041E1,-1.049252748E0,4.617549419E0,9.096315384E0
2.599392187E1,-9.678967595E-1,4.469194412E0,7.612166882E0
2.601374332E1,-8.051848412E-1,4.344169617E0,6.160920143E0
2.603356489E1,-5.850451589E-1,4.372883320E0,5.543571949E0
2.605357885E1,-2.542374134E-1,4.560121536E0,5.534000397E0
2.607320806E1,-2.063809484E-1,4.665405750E0,5.553143024E0
2.609302947E1,-6.137589812E-1,4.531407833E0,5.040481091E0
2.611285103E1,-1.144965649E0,4.401597023E0,4.518845558E0
2.613267249E1,-1.556531072E0,4.348955154E0,4.796412945E0
2.615268655E1,-1.949552298E0,4.761118889E0,5.787639618E0
2.617244655E1,-2.069193363E0,5.239683151E0,6.702296257E0
2.619209801E1,-1.643270969E0,5.450251579E0,6.955935478E0
2.621195801E1,-1.393819213E0,5.694917679E0,6.544369698E0
2.623177968E1,-1.767697692E0,6.369693756E0,6.007779598E0
2.625179390E1,-1.853839397E0,7.121638298E0,6.108277798E0
2.627142306E1,-1.628913999E0,7.586444378E0,6.707081795E0
2.629120614E1,-1.183250785E0,7.782655716E0,7.027719975E0
2.631106608E1,-8.530412912E-1,7.782655716E0,7.094718933E0
2.633088760E1,-8.003991842E-1,7.600800991E0,7.612166882E0
2.635090171E1,-9.774680734E-1,7.533204079E0,8.478368759E0
2.637053093E1,-9.535398483E-1,7.835297585E0,9.163313866E0
2.639035244E1,-2.255235314E-1,7.864011765E0,9.507881165E0
2.641017395E1,6.891329288E-1,7.518846989E0,9.853045464E0
2.642999546E1,9.954141974E-1,7.021139622E0,1.088255692E1
2.645000952E1,1.019342422E0,6.853642464E0,1.199342537E1
2.646963869E1,9.140582681E-1,6.667002201E0,1.259641647E1
2.648946025E1,4.109672904E-1,6.542575359E0,1.220399380E1
2.650928171E1,1.854437590E-2,6.509075642E0,1.116012478E1
2.652910322E1,5.503492355E-1,5.867201328E0,9.809974670E0
2.654911728E1,1.062413216E0,4.938187599E0,7.813164234E0
2.656887728E1,1.272981644E0,4.770689964E0,6.069993019E0
2.658856739E1,1.411765337E0,5.249254704E0,4.944767952E0
2.660838895E1,1.268195987E0,5.368896008E0,4.628915310E0
2.662821056E1,1.225125194E0,5.105685234E0,4.523631096E0
2.664822468E1,1.244267821E0,4.880760193E0,4.403391838E0
2.666785395E1,1.536192179E0,4.852046013E0,4.509274483E0
2.668767541E1,2.178066730E0,4.938187599E0,4.566701889E0
2.670749697E1,2.508276224E0,4.990829945E0,4.638486862E0
2.672731853E1,2.431705952E0,4.923830986E0,4.451846600E0
2.674733254E1,2.029711723E0,5.076971531E0,4.369892120E0
2.676696181E1,1.694716692E0,5.230112076E0,4.533202648E0
2.678697582E1,1.536192179E0,5.575276852E0,4.595416069E0
2.680660504E1,1.728216171E0,5.958128452E0,4.911268711E0
2.682642650E1,1.795215130E0,6.283552170E0,5.399404526E0
2.684620952E1,1.105484009E0,6.930212498E0,5.821139336E0
2.686606942E1,2.817548811E-1,7.792226791E0,6.817151546E0
2.688608343E1,2.333002165E-2,8.395217896E0,8.526225090E0
2.690571265E1,1.956132501E-1,8.289934158E0,1.043689442E1
2.692553416E1,1.956132501E-1,7.998009682E0,1.213699436E1
2.694535562E1,2.913261652E-1,8.017151833E0,1.275494099E1
2.696517713E1,1.477568001E-1,8.141578674E0,1.230449200E1
2.698519119E1,-2.446661144E-1,8.088936806E0,1.093519974E1
2.700482036E1,-9.726824164E-1,8.275577545E0,9.503094673E0
2.702483437E1,-1.839482427E0,8.347361565E0,8.646464348E0
2.704446358E1,-2.045265198E0,8.045866013E0,8.656036377E0
2.706424661E1,-1.576271892E0,7.375277519E0,9.244669914E0
2.708429895E1,-8.817551732E-1,6.293123722E0,9.647262573E0
2.710392822E1,-7.477570772E-1,5.340181828E0,9.345169067E0
2.712374963E1,-1.030110121E0,4.818546772E0,8.124231339E0
2.714357114E1,-1.350748420E0,4.536193371E0,6.467201233E0
2.716339260E1,-1.853839397E0,4.387240410E0,5.322834015E0
2.718340661E1,-2.586043119E0,4.267599106E0,5.203192711E0
2.720303588E1,-2.864208698E0,4.028316975E0,5.524429321E0
2.722304983E1,-1.983051777E0,3.669393539E0,5.773283005E0
2.724267905E1,-6.376872063E-1,3.544966698E0,5.811567783E0
2.726250051E1,5.790630579E-1,3.765106440E0,5.481358528E0
2.728251447E1,1.229910851E0,4.741976261E0,5.217549801E0
2.730214374E1,8.279166222E-1,6.163911343E0,5.327619553E0
2.732196515E1,2.291127741E-1,7.121638298E0,5.648856163E0
2.734178661E1,-2.255235314E-1,7.533204079E0,6.160920143E0
2.736160817E1,-4.791627228E-1,7.399205685E0,6.798008919E0
2.738162213E1,-9.678967595E-1,7.202994347E0,7.324429989E0
2.740125135E1,-1.652842283E0,7.212565422E0,8.009375572E0
2.742126536E1,-1.532602906E0,7.097710133E0,8.794819832E0
2.744089452E1,-1.269392371E0,6.844070911E0,9.273384094E0
2.746071598E1,-1.374676585E0,6.647859573E0,9.881759644E0
2.748072994E1,-8.243274093E-1,6.111268997E0,1.087777138E1
2.750035921E1,1.477568001E-1,5.273182869E0,1.156690502E1
2.752018067E1,7.082754970E-1,4.348955154E0,1.112183952E1
2.754000213E1,4.827519655E-1,3.611965895E0,9.589237213E0
2.755982364E1,2.434697002E-1,3.779463291E0,8.368298531E0
2.757983765E1,7.561319470E-1,4.052245140E0,7.367500782E0
2.759946687E1,7.178468108E-1,3.362514019E0,6.462415695E0
2.761948088E1,-5.850451589E-1,2.721237659E0,6.812366009E0
2.763911004E1,-1.604985833E0,2.572882652E0,7.760521889E0
2.765893150E1,-1.470389485E0,2.706880569E0,7.951947689E0
2.767879145E1,8.973085321E-3,3.678964853E0,8.143373489E0
2.769857452E1,1.766501307E0,4.971687317E0,8.900103569E0
2.771858848E1,2.130210400E0,5.680561066E0,9.172885895E0
2.773821775E1,1.986641049E0,5.517848969E0,9.297312737E0
2.775803921E1,2.398206472E0,4.933402061E0,9.206384659E0
2.777786072E1,2.628515720E0,4.732405186E0,8.473583221E0
2.779768218E1,2.560918331E0,5.273182869E0,7.424928665E0
2.781769619E1,2.067996979E0,5.915057659E0,7.013363361E0
2.783732546E1,1.622931957E0,6.010770321E0,7.200003147E0
2.785714692E1,1.316052437E0,5.723631859E0,7.525427341E0
2.787696848E1,8.662018180E-1,5.469992638E0,7.631309509E0
2.789678999E1,2.865405083E-1,5.627918720E0,7.770093441E0
2.791680400E1,-1.537388563E-1,6.374479294E0,8.282156944E0
2.793643322E1,-5.706881881E-1,7.317849636E0,9.081958771E0
2.795621634E1,-9.200403094E-1,8.002795219E0,1.002054310E1
2.797607614E1,-8.003991842E-1,8.524430275E0,1.089691448E1
2.799589770E1,3.768695518E-2,8.807381630E0,1.154776192E1
2.801591171E1,1.100698471E0,8.543573380E0,1.190249825E1
2.803554098E1,1.450050473E0,8.313861847E0,1.244327641E1
2.805532405E1,1.043270707E0,8.065009117E0,1.268734360E1
2.807518395E1,3.008974493E-1,7.777870178E0,1.142812061E1
2.809500541E1,-1.154536903E-1,7.322635651E0,9.574879646E0
2.811501952E1,5.682953820E-2,6.896713257E0,8.947959900E0
2.813477952E1,-6.807580590E-1,5.857629776E0,9.077172279E0
2.815446963E1,-1.882553220E0,4.593621254E0,9.225527763E0
2.817429129E1,-1.700698733E0,4.119244099E0,8.670392990E0
2.819411286E1,-4.695914388E-1,4.085744858E0,7.980661869E0
2.821412707E1,2.195414752E-1,4.248456478E0,7.588238716E0
2.823375635E1,3.391826153E-1,4.171886444E0,7.286144733E0
2.825357786E1,3.439682424E-1,4.248456478E0,6.908079147E0
2.827339937E1,2.530409992E-1,4.387240410E0,6.448058605E0
2.829322093E1,3.631108403E-1,4.152743816E0,6.026922226E0
2.831323499E1,4.253242314E-1,3.841676712E0,5.160121918E0
2.833286426E1,3.248256743E-1,3.655036688E0,4.341178417E0
2.835268577E1,2.243271172E-1,3.731606960E0,3.853042603E0
2.837250728E1,4.013960063E-1,3.769891977E0,3.393620729E0
2.839232884E1,8.973085321E-3,4.023531437E0,2.919243574E0
2.841234286E1,-7.908278704E-1,4.942973614E0,2.766103029E0
2.843197213E1,-1.240678549E0,5.685346603E0,2.742174864E0
2.845179364E1,-9.918249846E-1,5.948556900E0,3.704687595E0
2.847161515E1,-6.807580590E-1,6.111268997E0,4.959125042E0
2.849143666E1,-6.185446382E-1,6.451049805E0,5.935994625E0
2.851145072E1,-4.935196638E-1,7.054639339E0,7.252645493E0
2.853121072E1,9.990034252E-2,7.174280643E0,9.053244591E0
2.855109395E1,1.100698471E0,6.499504566E0,1.094477081E1
2.857072322E1,1.234696507E0,6.269195557E0,1.191685486E1
2.859054468E1,1.210768223E0,6.364908218E0,1.173978615E1
2.861036614E1,1.277767301E0,6.455835342E0,1.086820030E1
2.863018765E1,1.373480201E0,6.360122681E0,1.001097202E1
2.865020166E1,1.919641972E0,6.379265308E0,9.762118340E0
2.866983093E1,2.288136721E0,6.781857491E0,1.029811001E1
2.868965239E1,2.867797852E0,6.939784050E0,1.172542953E1
2.870947390E1,3.150151014E0,6.499504566E0,1.265384388E1
2.872925697E1,2.815155745E0,5.790630817E0,1.156211948E1
2.874930937E1,2.666800737E0,5.402395248E0,9.101100922E0
2.876893864E1,2.158924341E0,5.551348686E0,6.908079147E0
2.878876020E1,9.571290612E-1,5.819344521E0,5.648856163E0
2.880858171E1,7.992027402E-1,5.747560024E0,5.859424591E0
2.882840317E1,1.948355794E0,5.124827862E0,6.975078106E0
2.884841723E1,2.681157827E0,4.818546772E0,7.846663475E0
2.886804645E1,2.752942562E0,4.981258392E0,7.770093441E0
2.888786796E1,2.163709879E0,5.029115200E0,7.128218651E0
2.890768947E1,1.244267821E0,4.847260475E0,6.232704639E0
2.892751103E1,1.028913736E0,4.415954113E0,5.471786976E0
2.894752510E1,1.287338614E0,4.258028030E0,5.054837704E0
2.896715431E1,8.374879360E-1,4.770689964E0,4.863411903E0
2.898697582E1,1.009771109E0,5.527420521E0,5.198407173E0
2.900679728E1,9.667003751E-1,5.297111034E0,5.332405090E0
2.902661884E1,2.817548811E-1,5.029115200E0,5.825924873E0
2.904663291E1,2.147558331E-1,5.608776093E0,6.664011002E0
2.906639291E1,6.795616150E-1,6.379265308E0,7.424928665E0
2.908608306E1,1.301695466E0,6.695715904E0,7.683951855E0
2.910590468E1,9.858429432E-1,6.724429607E0,7.971090317E0
2.912572629E1,2.147558331E-1,6.949355125E0,8.895318031E0
2.914574046E1,3.918247223E-1,7.375277519E0,9.982257843E0
2.916536973E1,1.325623751E0,7.758727551E0,1.122233772E1
2.918519129E1,9.092726111E-1,7.624729156E0,1.220399380E1
2.920501280E1,-1.680957973E-1,6.705287457E0,1.153340530E1
2.922483437E1,-5.371887088E-1,6.388836384E0,9.996614456E0
2.924484843E1,-2.398804724E-1,7.159923553E0,9.584450722E0
2.926447770E1,-9.152546525E-2,7.073781967E0,1.075334454E1
2.928429926E1,-3.888336942E-2,5.603990555E0,1.163868904E1
2.930412072E1,8.973085321E-3,4.080958843E0,1.057567787E1
2.932394228E1,-2.255235314E-1,3.966103554E0,8.833105087E0
2.934395640E1,-1.293320656E0,4.875974178E0,7.727022648E0
2.936358562E1,-2.169692039E0,5.493920803E0,7.741379261E0
2.938359963E1,-1.820339799E0,4.890331268E0,7.616952896E0
2.940322885E1,-6.999006271E-1,4.052245140E0,7.204789162E0
2.942305030E1,1.190429255E-1,3.966103554E0,7.109076023E0
2.944298728E1,-2.829512656E-1,3.549752474E0,7.056434155E0
2.946269348E1,-1.245464206E0,3.765106440E0,6.256632805E0
2.948270749E1,-1.719841242E0,4.214957237E0,4.710271358E0
2.950233676E1,-9.152546525E-1,3.616751432E0,3.537189960E0
2.952215822E1,-4.695914388E-1,3.190230846E0,3.565903902E0
2.954197968E1,-1.101894855E0,3.712464333E0,5.069194794E0
2.956180124E1,-1.939980984E0,4.100101471E0,6.156134605E0
2.958181525E1,-1.667199135E0,3.789034605E0,7.458428383E0
2.960144447E1,8.949156404E-1,2.702095032E0,9.483952522E0
2.962145853E1,1.776072621E0,2.381456852E0,9.618548393E0
2.964108775E1,4.247260094E-2,4.430909157E0,1.097348499E1
2.966090921E1,-5.419743061E-1,6.312266350E0,1.237627697E1
2.968092317E1,-5.850451589E-1,5.666203976E0,1.138026428E1
2.970055244E1,-9.439685345E-1,4.981258392E0,1.194078350E1
2.972037390E1,-3.069991350E0,4.564907551E0,1.241934776E1
2.974015697E1,-1.796411633E0,3.913461447E0,1.253898907E1
2.976001692E1,6.987041831E-1,2.879163742E0,1.339621735E1
2.978003093E1,2.312064886E0,2.989233732E0,1.512024593E1
2.979966015E1,3.537788391E0,4.128815651E0,1.543609905E1
2.981967416E1,3.792025566E0,5.737988472E0,1.251506042E1
2.983930343E1,2.757728100E0,6.571289062E0,8.694320679E0
2.985931739E1,1.680359721E0,5.962913990E0,5.557928562E0
2.987913905E1,1.737787485E0,5.407180786E0,4.030111313E0
2.989876843E1,2.652443886E0,5.105685234E0,3.867399693E0
2.991858983E1,1.661217093E0,6.240481377E0,4.480560303E0
2.993841124E1,-1.892124534E0,7.322635651E0,6.098706722E0
2.995823270E1,-2.682354212E0,5.254040241E0,7.180860519E0
2.997824671E1,8.901300430E-1,3.281157970E0,6.573083878E0
2.999787598E1,1.694716692E0,3.903890133E0,6.821937561E0
3.001788994E1,7.896314859E-1,4.665405750E0,7.429714203E0
3.003751921E1,6.891329288E-1,4.641477585E0,7.247859955E0
3.005734067E1,9.571290612E-1,4.919044971E0,6.525227547E0
3.007735468E1,5.264210105E-1,5.311468124E0,5.298905849E0
3.009698395E1,-8.769695163E-1,5.407180786E0,4.341178417E0
3.011680536E1,-2.102692842E0,5.263611794E0,4.547559261E0
3.013662687E1,-2.073979139E0,5.158327579E0,5.505286694E0
3.015644838E1,-9.774680734E-1,5.311468124E0,6.046064377E0
3.017646239E1,-4.073780477E-1,5.747560024E0,6.568298340E0
3.019609166E1,-1.149751306E0,6.273981094E0,7.535596848E0
3.021610567E1,-1.686341763E0,6.216553211E0,8.397012711E0
3.023573489E1,-1.202393413E0,6.139982700E0,8.444869041E0
3.025555640E1,-6.233302951E-1,6.609574318E0,8.057231903E0
3.027557041E1,-1.111466169E0,7.102495670E0,7.703094482E0
3.029519963E1,-2.408974171E0,7.140780926E0,7.631309509E0
3.031521358E1,-3.175275564E0,7.092924595E0,8.358727455E0
3.033484286E1,-2.955136061E0,7.336992264E0,9.843474388E0
3.035466431E1,-2.490330219E0,7.537989616E0,1.061396313E1
3.037448577E1,-2.504687071E0,7.820940971E0,9.848259926E0
3.039430728E1,-2.653640270E0,7.902296543E0,8.291728973E0
3.041432135E1,-3.117847919E0,7.533204079E0,7.846663475E0
3.043395056E1,-3.922434568E0,7.174280643E0,8.253443718E0
3.045377207E1,-3.922434568E0,7.260422230E0,8.842676163E0
3.047359364E1,-3.036491871E0,6.748358250E0,8.598608017E0
3.049341515E1,-2.801995277E0,6.245266914E0,7.381857872E0
3.051342916E1,-3.812364578E0,6.484549522E0,6.520441532E0
3.053305843E1,-4.654638290E0,6.734001160E0,7.271788120E0
3.055287994E1,-4.142574310E0,6.168696880E0,8.411369324E0
3.057270150E1,-3.390629768E0,5.661418438E0,8.138587952E0
3.059252301E1,-3.089133978E0,5.613562107E0,6.337988853E0
3.061253707E1,-2.955136061E0,5.833701611E0,4.901697159E0
3.063216629E1,-2.562114954E0,5.613562107E0,4.791627407E0
3.065198780E1,-2.605783939E0,4.962115765E0,5.486144066E0
3.067180937E1,-2.644068956E0,4.363312244E0,5.983851433E0
3.069163088E1,-2.437688112E0,4.377668858E0,6.093921185E0
3.071164494E1,-2.849851847E0,5.000401020E0,5.667998791E0
3.073127416E1,-3.543770313E0,5.440680504E0,4.858626366E0
3.075109567E1,-3.261417150E0,5.498706341E0,4.461417675E0
3.077091723E1,-2.988635540E0,5.752345562E0,4.657629490E0
3.079073874E1,-3.050848961E0,6.393621922E0,5.471786976E0
3.081075286E1,-2.711068153E0,6.915855408E0,6.385845661E0
3.083038207E1,-2.663211584E0,7.236494064E0,6.697510719E0
3.085020358E1,-2.294118643E0,7.107281685E0,6.328417778E0
3.086998671E1,-2.337189436E0,7.236494064E0,6.424130440E0
3.088984661E1,-2.955136061E0,7.720442295E0,7.923233986E0
3.090986067E1,-2.442473650E0,7.365706444E0,9.896116257E0
3.092948989E1,-1.600200176E0,6.729215622E0,1.029332447E1
3.094931150E1,-1.935195327E0,6.667002201E0,9.388239861E0
3.096913306E1,-2.888136864E0,7.078567505E0,9.287740707E0
3.098895457E1,-2.528615236E0,7.116852760E0,9.628120422E0
3.100896864E1,-1.503889084E0,7.198208809E0,9.474381447E0
3.102859786E1,-8.913264275E-1,6.982854843E0,6.189633846E0
3.104841942E1,-2.423331022E0,6.494120598E0,5.467001438E0
3.106824093E1,-3.036491871E0,6.029912949E0,7.779664516E0
3.108806244E1,-2.648854733E0,6.355337143E0,7.434499741E0
3.110807655E1,-2.361117840E0,6.528218269E0,7.794021606E0
3.112770577E1,-2.140978098E0,5.996413708E0,7.046862602E0
3.114771983E1,-2.442473650E0,6.092126369E0,4.681557655E0
3.118584489E1,-2.279761791E0,7.049853802E0,3.316452265E0
3.120566630E1,-5.324030295E-2,7.360920429E0,7.027719975E0
3.122548765E1,7.752745152E-1,7.164709091E0,1.082034397E1
3.124550166E1,-6.759724021E-2,6.010770321E0,1.139462185E1
3.126513088E1,-1.235892892E0,5.426323414E0,9.857831001E0
3.128491395E1,-2.112264156E0,5.565705299E0,8.320442200E0
3.130477380E1,-2.265404940E0,5.833701611E0,7.937591076E0
3.132459531E1,-1.432104349E0,5.685346603E0,7.612166882E0
3.134460932E1,-1.317248821E0,5.843272686E0,6.587440968E0
3.136423854E1,-1.638485312E0,5.867201328E0,6.218348026E0
3.138406000E1,-1.825125456E0,5.694917679E0,6.994220734E0
3.140388161E1,-1.207179070E0,5.513063431E0,7.861020565E0
3.142389562E1,-3.643072546E-1,5.416752338E0,7.444071293E0
3.144371729E1,-6.711867452E-1,5.972485542E0,6.740581512E0
3.146334656E1,-1.082752228E0,6.331408501E0,7.099504948E0
3.148316796E1,-3.643072546E-1,6.159125328E0,7.889734268E0
3.150298942E1,2.243271172E-1,5.642275810E0,7.233502865E0
3.152300343E1,-8.673982322E-2,6.197410583E0,6.156134605E0
3.154282515E1,-3.834498227E-1,6.734001160E0,6.582654953E0
3.156245447E1,2.051845491E-1,6.801000118E0,8.301300049E0
3.158227588E1,1.488335729E0,6.561717987E0,8.723034859E0
3.160209729E1,1.919641972E0,6.479763508E0,7.357929707E0
3.162191880E1,1.282552958E0,6.700501442E0,6.984649181E0
3.164193281E1,4.636093974E-1,6.364908218E0,9.383454323E0
3.166156203E1,1.589432478E0,5.388038158E0,1.160040379E1
3.168138343E1,3.159722328E0,4.440480709E0,1.112183952E1
3.170120500E1,3.681955814E0,2.682952404E0,9.728618622E0
3.172102650E1,3.250649452E0,5.760720372E-1,8.554939270E0
3.174104052E1,8.374879360E-1,1.068993568E0,8.708678246E0
3.176066974E1,-6.903293133E-1,2.175075769E0,9.373882294E0
3.178049119E1,-1.135394335E0,2.515454769E0,1.037946606E1
3.180031276E1,-2.112264156E0,3.195016384E0,1.120798111E1
3.182013427E1,-1.853839397E0,3.865604877E0,1.139940739E1
3.184014828E1,-9.966106415E-1,3.990031719E0,9.805189133E0
3.185977750E1,1.666002750E0,2.850450039E0,8.071588516E0
3.187959901E1,3.298506021E0,2.088934183E0,8.133802414E0
3.189942057E1,4.366302967E0,1.734796405E0,1.000139999E1
3.191943453E1,3.916452408E0,2.136790514E0,1.059960651E1
3.193925625E1,2.963510752E0,3.118446112E0,1.019282627E1
3.195888552E1,3.135794163E0,3.084946632E0,9.862616539E0
3.197889942E1,4.313661098E0,1.773081541E0,8.751749039E0
3.199852869E1,4.648656368E0,3.089732170E0,1.036510944E1
3.201835010E1,3.494717360E0,1.801795483E0,1.315693569E1
3.203828692E1,1.478764415E0,-1.545165181E0,1.124148083E1
3.205799312E1,-4.774877548E0,3.990031719E0,1.144247818E1
3.207800708E1,-3.180061340E0,3.348157167E0,1.316650677E1
3.209763635E1,-2.111666054E-1,3.209373474E0,1.461236954E1
3.211745781E1,-9.248259664E-1,4.415954113E0,1.397109318E1
3.213727927E1,-4.456632137E-1,3.927818298E0,1.314736366E1
3.215710078E1,-4.695914388E-1,3.223730326E0,1.187378407E1
3.217711474E1,-2.447259426E0,4.584050179E0,9.829116821E0
3.219674395E1,-3.903291941E0,6.025127411E0,7.487142086E0
3.221656546E1,-2.835494757E0,5.958128452E0,5.078765869E0
3.223638697E1,-2.002194405E0,5.440680504E0,4.772484779E0
3.225620848E1,-1.503889084E0,3.669393539E0,7.405786037E0
3.227622250E1,-9.200403094E-1,3.065804005E0,9.963115692E0
3.229585177E1,-1.494317770E0,4.109673023E0,9.987043381E0
3.231567322E1,-6.999006271E-1,3.908675671E0,8.430512428E0
3.233549474E1,-2.925225794E-1,3.535395384E0,7.650452137E0
3.235531625E1,-6.568298340E-1,3.171088219E0,6.496513367E0
3.237533026E1,-8.051848412E-1,2.687737942E0,5.026124001E0
3.239515203E1,-1.202393398E-1,2.381456852E0,4.130609989E0
3.241478124E1,6.604190469E-1,2.582453728E0,4.533202648E0
3.243460270E1,8.566305041E-1,2.989233732E0,6.180062771E0
3.245442416E1,5.790630579E-1,3.487539053E0,7.147361279E0
3.247443817E1,5.886343718E-1,3.760320902E0,6.793223381E0
3.249406744E1,5.216353536E-1,3.975674868E0,6.428916454E0
3.251408130E1,6.161518395E-2,4.698905468E0,6.601797581E0
3.253371057E1,-6.999006271E-1,5.163113117E0,8.186444283E0
3.255353203E1,-1.121037364E0,5.096114159E0,1.010668468E1
3.257354598E1,-5.898307562E-1,5.067399979E0,1.077727318E1
3.259317526E1,2.811566554E-2,5.666203976E0,1.021675491E1
3.261299666E1,4.492524564E-1,6.264409542E0,8.928817749E0
3.263281817E1,2.626122832E-1,6.183053493E0,8.272585869E0
3.265260124E1,-6.185446382E-1,5.551348686E0,8.033304214E0
3.267265364E1,-9.918249846E-1,4.670191765E0,8.253443718E0
3.269228281E1,-4.791627228E-1,3.841676712E0,8.320442200E0
3.271229682E1,-2.452643216E-2,3.300300598E0,8.167302132E0
3.273192609E1,-5.078766346E-1,3.017947674E0,8.857032776E0
3.275174755E1,-1.240678549E0,3.285943747E0,1.047996521E1
3.277176150E1,-6.233302951E-1,3.640679598E0,1.226620674E1
3.279139078E1,3.966103494E-1,3.707678795E0,1.233799171E1
3.281121218E1,1.335195065E0,3.477967739E0,1.050867844E1
3.283103364E1,1.105484009E0,3.056232691E0,8.622536659E0
3.285081677E1,3.678964674E-1,2.654238462E0,7.703094482E0
3.287086916E1,8.757730722E-1,2.438884497E0,7.472784996E0
3.289049838E1,1.933998942E0,2.438884497E0,7.381857872E0
3.291051239E1,1.004985452E0,2.434098721E0,7.593024254E0
3.293014156E1,-3.260220885E-1,2.721237659E0,7.837092400E0
3.294996302E1,4.636093974E-1,2.759522676E0,7.841877937E0
3.296974614E1,2.671586514E0,2.984447956E0,7.472784996E0
3.298960599E1,3.643670797E0,3.607180119E0,6.616154671E0
3.300962005E1,2.910868645E0,4.009174347E0,6.203990936E0
3.302924927E1,2.096710920E0,4.267599106E0,6.520441532E0
3.304907072E1,1.359123230E0,4.856831551E0,7.583453178E0
3.306885380E1,2.769692242E-1,5.556134224E0,9.460023880E0
3.308871369E1,-5.030909777E-1,5.814558983E0,1.149033451E1
3.310872776E1,-7.238288522E-1,5.723631859E0,1.267777252E1
3.312835697E1,-8.961120844E-1,5.627918720E0,1.318086338E1
3.314817848E1,-1.652842283E0,5.929414749E0,1.329093361E1
3.316800000E1,-1.724626899E0,6.331408501E0,1.327179050E1
3.318782150E1,-1.025324464E0,6.465406895E0,1.250548935E1
3.320783557E1,-5.467599630E-1,6.576074600E0,1.187378407E1
3.322746479E1,-9.439685345E-1,6.667002201E0,1.136590767E1
3.324728630E1,-1.877767563E0,6.973283291E0,1.065284634E1
3.326710781E1,-2.231905222E0,6.867999077E0,9.987043381E0
3.328692927E1,-2.126621008E0,6.302694798E0,9.833903313E0
3.330694333E1,-1.992623091E0,5.632704735E0,1.046082211E1
3.332657255E1,-1.748555183E0,4.799404144E0,1.105962658E1
3.334658656E1,-1.546959877E0,4.181457520E0,9.900901794E0
3.336621583E1,-1.168893814E0,3.961317778E0,7.631309509E0
3.338599885E1,-1.695913076E0,3.607180119E0,6.012565136E0
3.340605119E1,-2.447259426E0,2.994019270E0,5.467001438E0
3.342568041E1,-2.404188633E0,2.568096876E0,5.457430363E0
3.344550187E1,-1.389033556E0,2.754737139E0,5.634499073E0
3.346532338E1,2.865405083E-1,3.458825111E0,6.046064377E0
3.348514489E1,1.450050473E0,3.812962770E0,6.573083878E0
3.350515890E1,7.513462901E-1,3.722035646E0,6.893722057E0
3.352478817E1,-6.424728632E-1,3.669393539E0,6.606583118E0
3.354460958E1,-1.331605792E0,3.674179077E0,5.825924873E0
3.356443114E1,-1.600200176E0,4.085744858E0,5.164907455E0
3.358425265E1,-2.093121529E0,4.603192329E0,5.002195835E0
3.360426666E1,-2.322832584E0,4.713262558E0,5.447260857E0
3.362389588E1,-1.920838356E0,4.942973614E0,5.811567783E0
3.364371734E1,-1.508674622E0,5.589633465E0,5.778068542E0
3.366353885E1,-1.460818172E0,6.221338749E0,6.002993584E0
3.368336036E1,-2.002194405E0,6.547360897E0,6.707081795E0
3.370337437E1,-2.198405743E0,6.518647194E0,7.765307903E0
3.372300359E1,-1.628913999E0,6.676573277E0,8.636893272E0
3.374301760E1,-8.865407705E-1,7.198208809E0,9.455238342E0
3.376277760E1,-6.424728632E-1,7.327421188E0,1.080120182E1
3.378246776E1,-7.190431952E-1,7.351349354E0,1.252941799E1
3.380225088E1,-2.452643216E-2,7.068996429E0,1.326700497E1
3.382211083E1,8.279166222E-1,6.590431690E0,1.219920826E1
3.384212505E1,8.327022791E-1,6.178267956E0,1.039860916E1
3.386175427E1,2.195414752E-1,5.771488190E0,9.321240425E0
3.388157583E1,-9.152546525E-2,5.105685234E0,9.268598557E0
3.390139734E1,-2.542374134E-1,4.560121536E0,1.022154045E1
3.392121890E1,-2.494517565E-1,3.875176191E0,1.134676456E1
3.394123296E1,2.961117923E-1,3.027518749E0,1.107876873E1
3.396086218E1,1.043270707E0,2.769093990E0,8.890532494E0
3.398068369E1,1.526620865E0,3.037090063E0,5.902495384E0
3.400050520E1,1.071984529E0,3.731606960E0,3.905684710E0
3.402032677E1,4.731806815E-1,4.162314892E0,4.365106583E0
3.404034078E1,1.263410330E0,3.889533281E0,6.294918060E0
3.405997005E1,2.551347256E0,3.674179077E0,7.894520283E0
3.407979156E1,2.800798893E0,3.937389612E0,8.229515076E0
3.409961302E1,2.154138565E0,4.574478626E0,7.837092400E0
3.411943453E1,1.680359721E0,4.684548378E0,7.377072334E0
3.413944859E1,1.618146300E0,4.660620213E0,6.970292568E0
3.415907781E1,2.000998020E0,4.871188641E0,6.845865726E0
3.417886088E1,2.077568293E0,5.421537876E0,6.798008919E0
3.419872078E1,1.962712765E0,5.661418438E0,6.970292568E0
3.421854229E1,1.800000787E0,5.594419479E0,7.075576782E0
3.423855630E1,1.550549030E0,5.594419479E0,6.955935478E0
3.425818557E1,7.082754970E-1,5.680561066E0,7.056434155E0
3.427800708E1,-6.089733839E-1,5.881557941E0,7.822735310E0
3.429782859E1,-1.470389485E0,6.135197163E0,9.311669350E0
3.431784260E1,-1.336391449E0,6.116054535E0,1.049432182E1
3.433766432E1,-1.135394335E0,6.254838467E0,1.116012478E1
3.435729354E1,-1.226321578E0,6.753143787E0,1.154297638E1
3.437711500E1,-7.956135273E-1,6.863213539E0,1.187378407E1
3.439689807E1,-4.743770957E-1,6.643074036E0,1.209870911E1
3.441675791E1,-5.467599630E-1,6.710072994E0,1.138504982E1
3.443677197E1,-6.137589812E-1,6.997211456E0,9.943972588E0
3.445640114E1,-8.195417523E-1,7.049853802E0,9.058030128E0
3.447622265E1,-1.288534999E0,6.250052929E0,9.460023880E0
3.449604416E1,-1.398604870E0,5.081757069E0,1.036510944E1
3.451605817E1,-1.508674622E0,4.421338081E0,1.059960651E1
3.453587989E1,-1.959123492E0,4.071387768E0,9.862616539E0
3.455563989E1,-1.978266120E0,3.956532240E0,8.368298531E0
3.457552317E1,-1.398604870E0,3.966103554E0,7.133004189E0
3.459515239E1,-9.631111026E-1,4.080958843E0,6.826723099E0
3.461497380E1,-8.338986635E-1,3.942175388E0,7.214360237E0
3.463494911E1,-6.903293133E-1,3.588037491E0,7.444071293E0
3.465461692E1,-2.255235314E-1,3.396611691E0,7.156932354E0
3.467463083E1,6.173482537E-1,3.650250912E0,6.601797581E0
3.469426010E1,1.488335729E0,3.899104595E0,5.897709846E0
3.471408150E1,1.325623751E0,4.018745422E0,5.174479008E0
3.473390296E1,4.827519655E-1,4.305884361E0,4.767699242E0
3.475372437E1,-7.716853172E-2,4.698905468E0,4.858626366E0
3.477373838E1,-4.983053207E-1,5.215754986E0,5.265406132E0
3.479336765E1,-1.298106313E0,5.680561066E0,5.873781204E0
3.481318911E1,-1.815554142E0,5.915057659E0,6.740581512E0
3.483301062E1,-1.978266120E0,5.924628735E0,7.741379261E0
3.485283213E1,-1.460818172E0,5.929414749E0,8.656036377E0
3.487284614E1,-6.855437160E-1,6.168696880E0,9.311669350E0
3.489247541E1,-4.408775866E-1,6.235695839E0,9.800403595E0
3.491248932E1,-1.968096644E-1,5.934200287E0,1.033639526E1
3.493211859E1,4.492524564E-1,5.728417397E0,1.078205872E1
3.495194005E1,1.344766378E0,5.627918720E0,1.072941685E1
3.497195400E1,2.158924341E0,5.532206059E0,9.824331284E0
3.499158328E1,2.589632273E0,5.440680504E0,8.397012711E0
3.501140474E1,1.728216171E0,5.172684193E0,7.822735310E0
3.503122619E1,8.614161611E-1,4.411168575E0,8.780462265E0
3.505104776E1,7.034898400E-1,3.664607763E0,1.078684425E1
3.507106177E1,5.359922647E-1,3.621536970E0,1.221356487E1
3.509069098E1,1.004985452E0,3.487539053E0,1.185942745E1
3.511070500E1,1.234696507E0,3.185445070E0,1.021196842E1
3.513033421E1,1.525424421E-1,3.199802160E0,8.880961418E0
3.515015567E1,-3.786641955E-1,3.266801119E0,9.081958771E0
3.517016968E1,4.205385745E-1,2.946162939E0,1.021675491E1
3.518979890E1,1.277767301E0,2.472383976E0,1.062831974E1
3.520958197E1,1.929213285E0,2.601596355E0,9.527023315E0
3.522944182E1,2.388635159E0,2.994019270E0,7.415357590E0
3.524926333E1,2.216351986E0,3.324228764E0,5.749354839E0
3.526927734E1,1.421336651E0,3.449253798E0,5.126622677E0
3.528890661E1,9.667003751E-1,3.463610888E0,5.639284611E0
3.530892057E1,1.378265858E0,3.588037491E0,6.577869415E0
3.532854984E1,1.430907965E0,4.004388809E0,7.491927624E0
3.534837130E1,8.566305041E-1,4.387240410E0,8.382656097E0
3.536838526E1,4.013960063E-1,4.679762840E0,8.986245155E0
3.538801453E1,4.301098585E-1,4.871188641E0,9.254241943E0
3.540783599E1,7.609176040E-1,5.110470772E0,9.594022751E0
3.542765744E1,8.853443861E-1,5.287539959E0,1.021196842E1
3.544744057E1,3.248256743E-1,5.421537876E0,1.041296577E1
3.546749296E1,-3.355933726E-1,5.709274769E0,1.034118080E1
3.548712218E1,1.094716340E-1,6.159125328E0,1.007318497E1
3.550713619E1,4.971089065E-1,6.441478729E0,9.886545181E0
3.552676541E1,-4.695914388E-1,6.302694798E0,1.025982571E1
3.554658692E1,-1.820339799E0,6.096911907E0,1.020239735E1
3.556637000E1,-2.658426046E0,6.120840549E0,9.800403595E0
3.558622984E1,-3.213560820E0,5.886343479E0,1.060439205E1
3.560624390E1,-3.975076675E0,4.995615482E0,1.188335514E1
3.562600390E1,-4.314857483E0,3.659822226E0,1.212263775E1
3.564569406E1,-4.113860130E0,2.735594511E0,1.158604717E1
3.566551567E1,-3.654438496E0,2.577668190E0,1.035553837E1
3.568533729E1,-2.571686029E0,2.927020311E0,8.526225090E0
3.570535145E1,-1.312463164E0,3.276372433E0,6.917650223E0
3.572498072E1,-7.142575383E-1,3.314657450E0,6.022136211E0
3.574480224E1,-8.626125455E-1,3.285943747E0,5.648856163E0
3.576462380E1,-8.530412912E-1,3.262015581E0,5.687141418E0
3.578444541E1,-7.286145091E-1,3.175873756E0,5.778068542E0
3.580445942E1,-1.178465128E0,3.309871912E0,6.002993584E0
3.582408875E1,-1.590628862E0,3.774677753E0,6.845865726E0
3.584391026E1,-1.503889084E0,3.549752474E0,6.884150982E0
3.586373177E1,-1.231107235E0,3.846462488E0,6.218348026E0
3.588355328E1,-8.195417523E-1,4.775475979E0,6.122634888E0
3.590356734E1,-1.044467092E0,5.647061348E0,6.841079712E0
3.592319661E1,-1.456032634E0,5.761917114E0,7.559525013E0
3.594301812E1,-1.667199135E0,6.130411625E0,8.286943436E0
3.596283963E1,-1.542174220E0,5.943771362E0,8.928817749E0
3.598266114E1,-1.561915040E0,6.010770321E0,1.032203865E1
3.600267520E1,-7.429714203E-1,6.010770321E0,1.145204926E1
3.602230442E1,7.130611539E-1,5.833701611E0,1.121276665E1
3.604212593E1,2.058425665E0,5.728417397E0,1.019282627E1
3.606194750E1,2.312064886E0,5.804987907E0,9.172885895E0
3.608176895E1,1.938784599E0,5.368896008E0,8.866603851E0
3.610178302E1,1.828714728E0,4.377668858E0,9.287740707E0
3.612141224E1,1.575075507E0,3.736392498E0,9.412167549E0
3.614123380E1,1.229910851E0,3.559323788E0,9.345169067E0
3.616105531E1,1.239482164E0,3.376870871E0,9.105886459E0
3.618087677E1,1.330409408E0,3.309871912E0,8.718249321E0
3.620089088E1,1.368694544E0,3.357728481E0,8.737391472E0
3.622052005E1,1.167697430E0,3.300300598E0,9.647262573E0
3.624034161E1,1.325623751E0,3.051447153E0,1.034596729E1
3.626016312E1,1.459621787E0,2.544168711E0,9.479166985E0
3.627998463E1,1.038485050E0,2.587239504E0,7.961519241E0
3.629999869E1,1.282552958E0,3.707678795E0,7.731808186E0
3.631962791E1,2.662015200E0,4.277170658E0,7.583453178E0
3.633941098E1,3.725026608E0,4.162314892E0,6.620940208E0
3.635927088E1,3.658027649E0,4.234099865E0,5.691926956E0
3.637909239E1,3.461217880E0,4.584050179E0,5.327619553E0
3.639910645E1,3.327219963E0,4.976472855E0,5.577071190E0
3.641873572E1,2.551347256E0,5.072185993E0,6.022136211E0
3.643874974E1,1.953141451E0,4.866403103E0,6.266204357E0
3.645837901E1,1.440479279E0,4.880760193E0,6.165705681E0
3.647820046E1,1.426122308E0,5.105685234E0,6.754938126E0
3.649802197E1,2.474776745E0,4.971687317E0,8.306085587E0
3.651784348E1,2.977867842E0,4.794618607E0,9.125029564E0
3.653785755E1,2.431705952E0,5.043471813E0,8.713463783E0
3.655748677E1,1.373480201E0,5.517848969E0,8.272585869E0
3.657730822E1,5.647061467E-1,5.455037594E0,8.306085587E0
3.659712984E1,8.518448472E-1,5.532206059E0,8.009375572E0
3.661695135E1,1.857428551E0,6.336194515E0,7.808378696E0
3.663696536E1,2.609373093E0,6.705287457E0,8.928817749E0
3.665659458E1,2.130210400E0,6.120840549E0,1.054696369E1
3.667641609E1,8.566305041E-1,5.623133183E0,1.129890823E1
3.669623765E1,-1.776670814E-1,5.728417397E0,1.103091240E1
3.671605911E1,-9.918249846E-1,5.747560024E0,1.115533924E1
3.673607317E1,-7.142575383E-1,5.460421085E0,1.274536991E1
3.675583317E1,1.764706671E-1,4.818546772E0,1.327179050E1
3.677552333E1,3.008974493E-1,4.396811485E0,1.209870911E1
3.679534500E1,-3.308077157E-1,4.262813568E0,1.066720295E1
3.681516661E1,-7.381857634E-1,4.382454872E0,9.642477036E0
3.683518078E1,-1.824527234E-1,4.665405750E0,9.024530411E0
3.685481005E1,2.051845491E-1,4.665405750E0,8.315656662E0
3.687463156E1,1.286142170E-1,4.679762840E0,6.774080753E0
3.689441468E1,3.678964674E-1,4.703691006E0,5.088337421E0
3.691427468E1,8.805587292E-1,4.540979385E0,4.456632137E0
3.693428880E1,1.488335729E0,4.238885403E0,5.251049519E0
3.695391807E1,1.545763373E0,4.124029636E0,6.965506554E0
3.697373958E1,1.268195987E0,4.238885403E0,8.464012146E0
3.699356109E1,9.667003751E-1,3.899104595E0,8.632107735E0
3.701338265E1,7.848458290E-1,3.913461447E0,7.899305820E0
3.703339671E1,6.364908218E-1,3.927818298E0,6.530013084E0
3.705302593E1,-1.489532143E-1,4.464408875E0,5.615356445E0
3.707284750E1,-7.525427341E-1,5.115256786E0,5.600999832E0
3.709266906E1,-7.286145091E-1,5.575276852E0,6.692724705E0
3.711249057E1,-1.441675574E-1,5.522634506E0,7.755736351E0
3.713250463E1,2.434697002E-1,5.335396290E0,7.602595806E0
3.715213385E1,4.253242314E-1,5.852844238E0,7.343572617E0
3.717195536E1,1.177268744E0,6.777071953E0,8.100302696E0
3.719177687E1,1.823929071E0,7.198208809E0,8.756534576E0
3.721159843E1,2.115853310E0,6.867999077E0,9.187242508E0
3.723161250E1,2.623729944E0,6.221338749E0,9.555737495E0
3.725124171E1,3.260220766E0,5.828916073E0,9.455238342E0
3.727125578E1,3.231507063E0,6.159125328E0,9.848259926E0
3.729088505E1,2.173281193E0,6.643074036E0,9.872187614E0
3.731089895E1,2.163709879E0,5.752345562E0,9.369096756E0
3.733065895E1,2.752942562E0,5.072185993E0,9.652048111E0
3.735034911E1,2.144567251E0,4.459623337E0,1.091127110E1
3.737036328E1,1.766501307E0,4.622334957E0,1.184028435E1
3.738999260E1,1.301695466E0,4.411168575E0,1.134676456E1
3.740981411E1,1.938784599E0,3.233301640E0,9.905687332E0
3.742963567E1,2.072782516E0,3.338585854E0,8.703892708E0
3.744945724E1,9.667003751E-1,4.119244099E0,7.612166882E0
3.746947135E1,-2.829512656E-1,4.353740692E0,6.668796539E0
3.748910057E1,-2.159522474E-1,4.555335999E0,5.916851997E0
3.750911458E1,7.369893789E-1,3.908675671E0,5.514857769E0
3.752887458E1,1.857428551E0,2.793022156E0,5.816353798E0
3.754875791E1,4.232305050E0,1.174277663E0,7.219145775E0
3.756857963E1,3.753740549E0,2.443670034E0,8.105088234E0
3.758820895E1,2.642872572E0,3.817748547E0,8.598608017E0
3.760799192E1,1.953141451E0,4.057030678E0,8.349156380E0
3.762785171E1,1.105484009E0,3.865604877E0,7.401000500E0
3.764767322E1,-4.935196638E-1,3.635894060E0,6.845865726E0
3.766768724E1,-2.246262312E0,3.588037491E0,6.395416737E0
3.768731645E1,-2.634497643E0,4.325026989E0,5.845067501E0
3.770733046E1,-1.815554142E0,5.513063431E0,6.318846226E0
3.772695968E1,-5.515456200E-1,6.139982700E0,8.382656097E0
3.774678119E1,-3.116651475E-1,6.211767673E0,9.915258408E0
3.776679515E1,-5.467599630E-1,5.258825779E0,1.065763187E1
3.778655515E1,-5.898307562E-1,5.148756027E0,1.149512005E1
3.780624531E1,-6.903293133E-1,5.833701611E0,1.136590767E1
3.782606692E1,-6.711867452E-1,5.953342915E0,1.023589706E1
3.784588848E1,-7.094719410E-1,5.742774487E0,1.014975548E1
3.786590276E1,-5.324030519E-1,5.096114159E0,1.117926693E1
3.788553197E1,-6.329016089E-1,6.058627129E0,1.233799171E1
3.790554604E1,-8.243274093E-1,6.226124287E0,1.137069321E1
3.792517531E1,-1.159322619E0,5.440680504E0,9.393025398E0
3.794499682E1,-1.849053741E0,5.172684193E0,7.937591076E0
3.796501083E1,-8.099704385E-1,4.799404144E0,8.306085587E0
3.798464010E1,8.805587292E-1,4.584050179E0,9.196813583E0
3.800446161E1,1.675574064E0,4.785047054E0,9.278169632E0
3.802428312E1,1.800000787E0,4.607978344E0,9.402596474E0
3.804410463E1,1.119840980E0,3.913461447E0,9.555737495E0
3.806411869E1,2.099701911E-1,3.439682484E0,9.316454887E0
3.808374796E1,-6.472585201E-1,3.946960926E0,8.554939270E0
3.810376192E1,-5.515456200E-1,4.124029636E0,7.013363361E0
3.812339124E1,7.417750359E-1,3.889533281E0,5.825924873E0
3.814321270E1,9.667003751E-1,3.760320902E0,4.959125042E0
3.816322666E1,8.075776696E-2,3.860819340E0,4.590630054E0
3.818285598E1,-6.376872063E-1,4.277170658E0,4.772484779E0
3.820286994E1,-6.999006271E-1,4.866403103E0,5.413761139E0
3.822249921E1,-4.887340367E-1,4.971687317E0,6.347560406E0
3.824232067E1,-1.001396298E0,5.435894966E0,6.917650223E0
3.826210375E1,-1.202393413E0,5.924628735E0,7.128218651E0
3.828196364E1,-2.590230405E-1,6.321837425E0,7.717451096E0
3.830197765E1,1.392622828E0,6.096911907E0,8.052446365E0
3.832160692E1,1.608574986E0,6.355337143E0,8.531010628E0
3.834142843E1,-8.626125455E-1,7.279564857E0,1.064267731E1
3.836121156E1,-2.327618122E0,6.489335060E0,1.254377460E1
3.838103296E1,-1.705484390E0,4.919044971E0,1.263470173E1
3.840108552E1,-1.264606714E0,5.325825214E0,1.151904774E1
3.842071474E1,-8.961120844E-1,6.451049805E0,1.080120182E1
3.844049786E1,-5.276173949E-1,6.810571671E0,1.073898792E1
3.846031932E1,-1.767697692E0,6.398407936E0,1.047039413E1
3.848017921E1,-2.313261271E0,5.273182869E0,9.757332802E0
3.850019338E1,-1.259821177E0,3.846462488E0,9.211171150E0
3.851982265E1,-3.308077157E-1,3.741178274E0,8.804390907E0
3.853964421E1,2.243271172E-1,4.703691006E0,8.349156380E0
3.855946572E1,7.034898400E-1,5.551348686E0,7.703094482E0
3.857924880E1,6.604190469E-1,5.489135265E0,6.936792850E0
3.859930130E1,4.013960063E-1,4.981258392E0,6.577869415E0
3.861893057E1,5.934200287E-1,4.890331268E0,6.817151546E0
3.863875208E1,6.987041831E-1,5.029115200E0,6.936792850E0
3.865857364E1,-2.685943544E-1,4.914259434E0,6.433701992E0
3.867839520E1,-1.111466169E0,4.694119930E0,6.055635929E0
3.869840927E1,-5.419743061E-1,4.622334957E0,6.299703598E0
3.871803854E1,-2.931207791E-2,4.689334393E0,6.597012043E0
3.873786005E1,-1.207179070E0,5.158327579E0,6.428916454E0
3.875764317E1,-2.868994236E0,5.129613400E0,6.113063812E0
3.877750307E1,-2.145763636E0,5.392824173E0,5.667998791E0
3.879751718E1,-4.217349887E-1,6.144768715E0,5.462215900E0
3.881714640E1,-2.035693884E0,6.839285374E0,3.330809116E0
3.883696796E1,-5.196014404E0,7.461419106E0,3.388834953E0
3.885675109E1,-3.495913982E0,8.017151833E0,8.392227173E0
3.887661098E1,-1.092323542E0,8.644669533E0,7.803592682E0
3.894100005E1,-1.293320656E0,5.800201893E0,5.529214859E0
3.896082167E1,-9.822536707E-1,5.891129494E0,7.166503906E0
3.898060469E1,2.386840582E-1,5.747560024E0,8.492725372E0
3.900065719E1,8.614161611E-1,5.450251579E0,8.038089752E0
3.902028646E1,-2.063809484E-1,5.675775528E0,6.563512325E0
3.904010802E1,-2.006979942E0,6.029912949E0,5.959922791E0
3.905992958E1,-3.031706333E0,6.671787739E0,6.807580471E0
3.907975114E1,-1.729412556E0,7.509275436E0,7.798807144E0
3.909976521E1,7.034898400E-1,7.533204079E0,1.026461124E1
3.911952521E1,9.379864931E-1,6.633502483E0,1.298465252E1
3.913921542E1,-9.487541914E-1,6.460621357E0,1.381316662E1
3.915903708E1,-1.178465128E0,6.576074600E0,1.247677517E1
3.917885875E1,-1.092323542E0,7.107281685E0,1.042732334E1
3.919887292E1,-8.913264275E-1,6.556932449E0,1.022632599E1
3.921850224E1,-1.020538807E0,4.923830986E0,1.173500061E1
3.923832380E1,-1.695913076E0,3.836891174E0,1.187856960E1
3.925814536E1,-2.854637384E0,3.242872953E0,1.077727318E1
3.927796698E1,-3.189632654E0,3.319443226E0,9.086744308E0
3.929798109E1,-2.365903378E0,3.956532240E0,6.697510719E0
3.931761036E1,-1.786840320E0,3.698107481E0,5.715855122E0
3.933743193E1,-5.994020700E-1,2.065006018E0,8.047660828E0
3.935725344E1,1.094716340E-1,1.006780148E0,9.402596474E0
3.937707505E1,-5.030909777E-1,1.753939033E0,9.565308571E0
3.939708906E1,-1.106680512E0,3.343371391E0,9.637691498E0
3.941671838E1,2.243271172E-1,2.788236618E0,9.460023880E0
3.943653990E1,3.193221807E0,1.222134113E0,1.107398319E1
3.945636146E1,-2.685943544E-1,3.611965895E0,9.738189697E0
3.947618302E1,-6.472585201E-1,4.277170658E0,1.001097202E1
3.949619708E1,3.432504177E0,2.084148407E0,1.015454102E1
3.951582630E1,3.964308977E0,1.954936147E0,8.454441071E0
3.953584036E1,1.967498422E0,2.649452925E0,7.353144169E0
3.955546964E1,8.709874153E-1,2.663809776E0,7.904091358E0
3.957529109E1,-6.472585201E-1,3.482753277E0,8.746963501E0
3.959511266E1,-2.428116798E0,4.526622295E0,8.344370842E0
3.961493422E1,-1.633699656E0,4.066602230E0,1.025503922E1
3.963494828E1,-4.845465720E-2,2.477169752E0,1.218006516E1
3.965457750E1,1.038485050E0,1.998006940E0,1.095434189E1
3.967439901E1,3.008974493E-1,2.903092146E0,9.598808289E0
3.969422057E1,-4.265206456E-1,3.511467218E0,9.507881165E0
3.971404208E1,-7.238288224E-2,2.984447956E0,9.795618057E0
3.973405615E1,-1.298106313E-1,2.251646042E0,1.006361389E1
3.975368536E1,-2.877369225E-1,2.376671076E0,9.876974106E0
3.977350693E1,-2.638086975E-1,3.089732170E0,1.004925728E1
3.979332854E1,4.157529473E-1,2.960519791E0,1.021196842E1
3.981330396E1,1.095912814E0,2.477169752E0,1.022154045E1
3.983316422E1,1.287338614E0,1.940579176E0,9.048459053E0
3.985279354E1,7.274180651E-1,1.567298889E0,7.133004189E0
3.987261500E1,-4.743770957E-1,2.065006018E0,6.117849350E0
3.989243651E1,-3.212364316E-1,2.678166628E0,6.290132523E0
3.991225802E1,1.028913736E0,2.740380049E0,7.357929707E0
3.993227208E1,2.288136721E0,2.496312141E0,8.057231903E0
3.995203208E1,3.068794966E0,2.289931297E0,7.698308468E0
3.997172229E1,3.595216036E0,2.405385017E0,7.018148899E0
3.999154391E1,3.260220766E0,2.994019270E0,6.582654953E0
4.001136552E1,1.843071699E0,3.765106440E0,6.731009960E0
4.003137974E1,-5.383851007E-3,4.210171223E0,7.448856831E0
4.005100901E1,-1.140179992E0,4.426123619E0,7.813164234E0
4.007083057E1,-1.609771490E0,4.607978344E0,7.971090317E0
4.009065214E1,-1.810768485E0,4.962115765E0,8.947959900E0
4.011047370E1,-1.930409670E0,5.292325497E0,1.108833981E1
4.013048781E1,-1.278963685E0,5.220541000E0,1.353021526E1
4.015011708E1,-4.169493318E-1,4.981258392E0,1.422951794E1
4.016993864E1,1.375873014E-2,4.655834675E0,1.364028549E1
4.018976016E1,-5.994020700E-1,4.584050179E0,1.216570854E1
4.020958172E1,-1.896910191E0,5.340181828E0,1.094477081E1
4.022959573E1,-1.700698733E0,5.790630817E0,1.090170002E1
4.024922505E1,-5.419743061E-1,5.301896572E0,1.083948612E1
4.026904656E1,-6.281159520E-1,4.847260475E0,1.106919765E1
4.028886812E1,-8.913264275E-1,4.214957237E0,1.148076344E1
4.030868964E1,-7.046862841E-1,3.602394581E0,1.082512951E1
4.032870375E1,-2.733799815E-1,3.765106440E0,9.503094673E0
4.034846375E1,4.636093974E-1,4.186243057E0,8.483154297E0
4.036834703E1,3.439682424E-1,4.473979950E0,7.597810268E0
4.038797635E1,-3.978067636E-1,4.296313286E0,6.630511761E0
4.040779781E1,-1.101894855E0,3.722035646E0,5.873781204E0
4.042761932E1,-1.235892892E0,3.156731367E0,5.577071190E0
4.044744083E1,-9.296116233E-1,2.936591625E0,5.519643784E0
4.046745490E1,-4.217349887E-1,3.156731367E0,5.581857204E0
4.048721490E1,-3.547359705E-1,3.468396425E0,6.414559364E0
4.050709818E1,-5.946164131E-1,3.535395384E0,7.324429989E0
4.052672750E1,-7.238288522E-1,3.463610888E0,7.995018482E0
4.054654896E1,-2.781656384E-1,3.722035646E0,8.100302696E0
4.056656292E1,-4.217349887E-1,4.281956196E0,7.990232944E0
4.058619219E1,-2.035693884E0,4.990829945E0,8.263014793E0
4.060601370E1,-2.260619164E0,5.378467083E0,9.235098839E0
4.062583516E1,-7.621139884E-1,5.091328144E0,9.719047546E0
4.064565667E1,-2.452643216E-2,4.746761799E0,9.349954605E0
4.066567068E1,-4.169493318E-1,4.746761799E0,9.584450722E0
4.068530000E1,-4.887340367E-1,4.339384079E0,1.059003448E1
4.070531396E1,3.200400174E-1,3.271586657E0,1.151904774E1
4.072494323E1,1.038485050E0,2.155933142E0,1.117448139E1
4.074476469E1,1.454836130E0,1.883151412E0,1.024068260E1
4.076477870E1,1.977069736E0,2.160718918E0,9.675976753E0
4.078440797E1,3.217149973E0,2.759522676E0,1.010668468E1
4.080422943E1,4.993820667E0,3.501895905E0,9.805189133E0
4.082405094E1,5.544169903E0,4.061816216E0,7.664809227E0
4.084387250E1,4.457230568E0,4.214957237E0,5.117051125E0
4.086388651E1,4.835894585E0,2.697309256E0,3.695116282E0
4.088351578E1,3.686741590E0,2.371885538E0,4.015754700E0
4.090352979E1,1.373480201E0,3.065804005E0,5.567500114E0
4.092315901E1,2.961117923E-1,3.521038532E0,7.180860519E0
4.094298052E1,1.392622828E0,3.765106440E0,8.699107170E0
4.096299453E1,2.503490686E0,4.205385685E0,8.943174362E0
4.098262380E1,3.408575773E0,3.621536970E0,7.995018482E0
4.100244526E1,4.332803726E0,3.142374277E0,7.467999458E0
4.102226672E1,4.079164505E0,3.285943747E0,7.448856831E0
4.104204990E1,3.681955814E0,3.497110367E0,7.343572617E0
4.106210229E1,3.255435228E0,3.784249067E0,7.549953461E0
4.108173156E1,2.312064886E0,4.114458561E0,8.267800331E0
4.110174557E1,6.747759581E-1,4.718048096E0,9.105886459E0
4.112137484E1,-4.887340367E-1,5.254040241E0,9.565308571E0
4.114119635E1,-6.759724021E-1,5.349753380E0,9.795618057E0
4.116121036E1,-2.781656384E-1,5.321039200E0,1.038425159E1
4.118083964E1,2.721835673E-1,5.670989513E0,1.150947666E1
4.120058432E1,6.987041831E-1,6.029912949E0,1.255334568E1
4.122048250E1,6.412764788E-1,6.163911343E0,1.321914864E1
4.124030406E1,4.013960063E-1,5.924628735E0,1.289851093E1
4.126031812E1,-2.398804724E-1,6.096911907E0,1.198863983E1
4.127994740E1,-6.616154313E-1,6.451049805E0,1.106919765E1
4.129996141E1,-7.716853023E-1,6.786643028E0,1.059960651E1
4.131959062E1,-1.255035520E0,7.097710133E0,1.105484104E1
4.133941214E1,-1.546959877E0,6.561717987E0,1.134676456E1
4.135923364E1,-7.477570772E-1,5.364109993E0,1.075813103E1
4.137905521E1,2.051845491E-1,4.214957237E0,9.426525116E0
4.139906927E1,2.769692242E-1,3.688536167E0,7.841877937E0
4.141869854E1,-4.552344978E-1,3.554538012E0,6.692724705E0
4.143852000E1,-1.590628862E0,3.506681681E0,6.199205399E0
4.145830318E1,-2.203191519E0,3.113660574E0,5.840281963E0
4.147812458E1,-2.217548370E0,2.539382935E0,5.500501156E0
4.149817708E1,-1.887338877E0,2.184647083E0,5.222335339E0
4.151780635E1,-1.293320656E0,2.084148407E0,4.939982414E0
4.153762786E1,-8.434699774E-1,2.429313183E0,5.107480049E0
4.155744943E1,-1.302891970E0,3.300300598E0,6.659225464E0
4.157727099E1,-1.341177106E0,3.463610888E0,7.894520283E0
4.159728505E1,-6.376872063E-1,2.802593470E0,7.703094482E0
4.161704505E1,-8.434699774E-1,2.941377163E0,7.200003147E0
4.163673526E1,-1.949552298E0,3.731606960E0,7.487142086E0
4.165651849E1,-2.480758905E0,4.243670940E0,8.890532494E0
4.167637844E1,-2.097907305E0,4.651049137E0,1.072463131E1
4.169639276E1,-1.484746456E0,4.780261517E0,1.153819084E1
4.171602198E1,-1.283749342E0,4.636692047E0,1.115055370E1
4.173603615E1,-2.097907305E0,4.919044971E0,1.044646549E1
4.175566536E1,-2.720639229E0,5.450251579E0,1.045125103E1
4.177548693E1,-2.059622049E0,5.623133183E0,1.105484104E1
