"Time (s)","Acceleration x (m/s^2)","Acceleration y (m/s^2)","Acceleration z (m/s^2)"
0.000000000E0,-2.259813786E0,5.985654354E0,7.317158699E0
0.000000000E0,-2.330439329E0,6.069447517E0,7.568539143E0
0.000000000E0,-2.214325666E0,6.111344337E0,6.248193741E0
0.000000000E0,-2.179611444E0,6.195137501E0,7.296809196E0
0.000000000E0,-2.193975925E0,6.040718079E0,8.557302475E0
0.000000000E0,-1.970127702E0,6.032339096E0,8.996619225E0
0.000000000E0,-2.058709383E0,5.869540215E0,7.226182938E0
0.000000000E0,-1.654106855E0,5.865949154E0,6.613293648E0
0.000000000E0,-2.312484026E0,6.174787521E0,8.183822632E0
4.190162000E-3,-2.215523005E0,6.110146999E0,8.703342438E0
2.400328700E-2,-1.859999299E0,5.729485512E0,7.788795948E0
4.381511000E-2,-2.046738863E0,5.942560196E0,7.227380276E0
6.369276600E-2,-2.342409849E0,5.898269176E0,7.312370777E0
8.357724600E-2,-2.568652391E0,5.886298656E0,7.546991825E0
1.034526620E-1,-2.663219213E0,5.824052334E0,7.750490665E0
1.233273500E-1,-2.594987392E0,5.717514992E0,7.659514427E0
1.431787560E-1,-2.656036854E0,5.813278675E0,7.187877655E0
1.630291210E-1,-2.484858990E0,5.699559212E0,7.275261879E0
1.829164120E-1,-2.535135031E0,5.548731327E0,7.696623325E0
2.027936520E-1,-2.469297171E0,5.423040867E0,8.212551117E0
2.226611520E-1,-2.255025387E0,5.429026127E0,8.143122673E0
2.425786000E-1,-2.045541763E0,5.370370865E0,8.028205872E0
2.624309430E-1,-1.863590479E0,5.326079845E0,8.100028992E0
2.823119850E-1,-1.718747377E0,5.332065105E0,8.161078453E0
3.022009960E-1,-1.621786475E0,5.327276707E0,8.350212097E0
3.219964640E-1,-1.387164831E0,5.209966183E0,8.453158379E0
3.418436000E-1,-1.166907668E0,5.201586723E0,8.168260574E0
3.617139120E-1,-9.873502851E-1,5.356006145E0,7.989900589E0
3.815821930E-1,-1.012488246E0,5.411070347E0,7.827101707E0
4.015180270E-1,-9.765767455E-1,5.318897724E0,8.004264832E0
4.213865160E-1,-9.310888648E-1,5.223133564E0,8.187413216E0
4.412545890E-1,-7.694872618E-1,5.192010403E0,8.214945793E0
4.611874540E-1,-7.216052413E-1,5.236301422E0,7.860619068E0
4.809808390E-1,-7.383639216E-1,5.302138805E0,7.309976578E0
5.007808390E-1,-6.402059197E-1,5.563095570E0,7.445242882E0
5.207282350E-1,-1.673714072E-1,5.926998615E0,7.920471668E0
5.406780790E-1,1.761817634E-1,5.855175495E0,7.991097450E0
5.605842250E-1,2.420194745E-1,5.856372833E0,8.399291039E0
5.803944330E-1,2.887043953E-1,5.810884476E0,8.648278236E0
6.002194330E-1,4.778382182E-1,5.741456032E0,8.443581581E0
6.200635480E-1,3.210247159E-1,5.810884476E0,8.185019493E0
6.398481830E-1,3.545421362E-1,5.820461273E0,8.296344757E0
6.597151100E-1,4.957939386E-1,5.682800770E0,8.187413216E0
6.795943290E-1,4.215768576E-1,5.751032352E0,8.162275314E0
6.994745370E-1,3.198276758E-1,5.639706612E0,8.212551117E0
7.193542770E-1,3.852108121E-2,5.620553970E0,8.047358513E0
7.392227140E-1,-1.829330772E-1,5.475711346E0,7.852239609E0
7.590880270E-1,-3.349583149E-1,5.241089344E0,7.882165909E0
7.790156830E-1,-7.180141211E-1,5.092655182E0,8.315498352E0
7.988383390E-1,-4.558603168E-1,4.781422138E0,9.147446632E0
8.186477140E-1,1.630142182E-1,4.630594254E0,9.525714874E0
8.387625060E-1,2.001227438E-1,5.231512547E0,9.008588791E0
8.590269850E-1,-3.445346951E-1,5.973683834E0,8.846987724E0
8.792921930E-1,-4.606484771E-1,6.140073299E0,9.214482307E0
8.995573500E-1,-2.068740278E-1,5.838417053E0,9.884830475E0
9.198231310E-1,-6.366147399E-1,5.857569695E0,1.065572929E1
9.400877140E-1,-3.876284957E-1,5.581051350E0,1.054081345E1
9.603515680E-1,-7.383639216E-1,5.622948170E0,1.164329529E1
9.806162040E-1,-1.438637972E0,5.857569695E0,1.178454685E1
1.000880579E0,-1.613407016E0,6.183166981E0,1.140388489E1
1.021134381E0,-1.561933875E0,6.280128002E0,1.051687241E1
1.041389173E0,-1.718747377E0,6.405817986E0,9.739987373E0
1.061654589E0,-1.785782218E0,5.621751308E0,9.737591743E0
1.081919537E0,-1.903092980E0,4.186488628E0,1.038519573E1
1.102189225E0,-2.386700869E0,3.227652073E0,1.119320393E1
1.122459277E0,-1.935413480E0,2.284377098E0,1.145535851E1
1.142725006E0,-2.507602930E0,2.849384546E0,1.051327991E1
1.162991360E0,-1.862393379E0,2.619550943E0,9.212087631E0
1.183257089E0,-1.219577789E0,2.551319122E0,8.661444664E0
1.203521516E0,-1.615801215E0,3.092385530E0,8.164669991E0
1.223777766E0,-1.755855918E0,3.589160919E0,7.691834927E0
1.244036048E0,-1.123813868E0,3.702880621E0,6.580973625E0
1.264303027E0,-6.402059197E-1,3.718442202E0,5.935763359E0
1.284572923E0,-5.252891779E-1,3.467061996E0,6.019556999E0
1.304844902E0,-7.108318210E-1,3.485017776E0,6.858688354E0
1.325115891E0,-7.311816812E-1,3.153434992E0,7.542203903E0
1.345389954E0,-4.486780167E-1,2.781152725E0,7.909698009E0
1.365664121E0,-5.484877527E-2,2.578851223E0,7.677470684E0
1.385934693E0,-4.199488163E-1,3.380874395E0,7.387784481E0
1.406201204E0,-5.731711388E-1,3.790265322E0,7.213015556E0
1.426456412E0,-7.012554407E-1,4.351681709E0,7.581706524E0
1.446711933E0,-9.346800447E-1,4.794589520E0,7.720564365E0
1.466977610E0,-1.304568291E0,4.388790131E0,9.251589775E0
1.487243287E0,-1.366814971E0,4.137409687E0,1.144697857E1
1.507507610E0,-1.746279597E0,4.320558548E0,1.275774765E1
1.527770214E0,-1.700791717E0,4.381608009E0,1.192101097E1
1.548037350E0,-1.338085771E0,4.909506798E0,1.049891567E1
1.568310943E0,-1.324918151E0,5.656465530E0,9.414388657E0
1.588584746E0,-1.103464007E0,5.915028095E0,9.042106628E0
1.608858287E0,-9.861530662E-1,5.772579193E0,9.962637901E0
1.629118235E0,-6.473881602E-1,5.642100811E0,1.076466084E1
1.649374016E0,-1.470215768E-1,5.846796036E0,1.092267132E1
1.669639798E0,-4.287827015E-2,5.796520233E0,1.007875156E1
1.689904902E0,4.945968986E-1,5.008861542E0,9.660981178E0
1.710173652E0,4.694588780E-1,3.936305285E0,1.037681675E1
1.730486881E0,7.088687420E-1,3.354539156E0,1.094780922E1
1.750794693E0,6.968982816E-1,3.201317072E0,1.035287571E1
1.771059954E0,5.329024792E-1,3.433544397E0,9.392842293E0
1.791327454E0,3.952417970E-1,3.647816420E0,8.174245834E0
1.811590631E0,5.647682399E-2,3.959049225E0,7.496716022E0
1.831623912E0,3.138424158E-1,3.546067238E0,7.685850143E0
1.851660110E0,2.295944095E-2,3.720836401E0,7.357858658E0
1.871709798E0,-1.049596786E0,4.528845310E0,6.716239929E0
1.891565266E0,-8.496895432E-1,4.109877586E0,6.463662624E0
1.911446360E0,-3.636875153E-1,3.614299059E0,6.911358833E0
1.931314485E0,3.174335957E-1,3.155829191E0,7.738520145E0
1.951174329E0,5.927549601E-1,2.979862690E0,7.701411724E0
1.971052923E0,5.472670794E-1,3.189346552E0,7.106478214E0
1.990925214E0,-6.681926548E-2,3.844132423E0,6.160809040E0
2.010782923E0,-5.408508182E-1,4.339711189E0,6.048286438E0
2.030856568E0,-3.505199552E-1,4.320558548E0,7.168724537E0
2.050794433E0,-4.886351526E-2,4.181700706E0,8.535755157E0
2.070451725E0,4.670647383E-1,3.804630041E0,9.158221245E0
2.090259381E0,5.688139796E-1,4.082345486E0,8.745239258E0
2.110124329E0,-5.193039179E-1,5.420646667E0,8.594409943E0
2.129981152E0,-7.862459421E-1,5.814476013E0,9.596341133E0
2.149850891E0,-7.251964211E-1,5.644495010E0,9.933909416E0
2.169801204E0,-7.012554407E-1,5.474514008E0,1.022359467E1
2.189742818E0,-7.323786616E-1,5.226724625E0,1.126742172E1
2.209574537E0,-7.204082012E-1,5.536760807E0,1.209937096E1
2.229430996E0,-8.688423038E-1,6.154438019E0,1.108068180E1
2.249295318E0,-1.202819228E0,6.879849911E0,9.516138077E0
2.269144641E0,-1.822890759E0,6.968431473E0,8.530966759E0
2.288929173E0,-2.591396332E0,6.351951122E0,8.793121338E0
2.308797923E0,-3.040289879E0,5.105822563E0,1.031935787E1
2.328752402E0,-2.628504992E0,3.623875380E0,1.152598381E1
2.348599485E0,-2.166443586E0,3.219272614E0,1.135001850E1
2.368425110E0,-1.801343799E0,3.546067238E0,9.611902237E0
2.388272610E0,-1.611013055E0,3.877650023E0,8.174245834E0
2.408168339E0,-1.725929856E0,3.986581564E0,8.013841629E0
2.428112037E0,-1.707974076E0,4.138607025E0,8.050950050E0
2.448026516E0,-1.537993073E0,4.123044968E0,8.035387993E0
2.468064485E0,-1.385967731E0,4.204444408E0,7.955185890E0
2.488300475E0,-8.844040036E-1,4.021296024E0,6.876644611E0
2.508562923E0,-6.665409803E-1,4.057207108E0,7.360252380E0
2.528827402E0,-6.222501993E-1,3.884832144E0,7.517066002E0
2.549091881E0,-7.838518023E-1,3.941093445E0,7.356661320E0
2.569357402E0,-9.107390046E-1,4.010522366E0,6.958044052E0
2.589621308E0,-9.526357055E-1,3.992566824E0,6.814397812E0
2.609881881E0,-1.074734926E0,3.850117683E0,6.764122009E0
2.630143912E0,-9.274976850E-1,3.918349504E0,6.776092529E0
2.650406568E0,-8.879951239E-1,4.297814369E0,6.911358833E0
2.670669329E0,-1.017276525E0,4.575529575E0,7.236956596E0
2.690933912E0,-9.861530662E-1,4.883171558E0,7.355463982E0
2.711198600E0,-1.156134248E0,5.322488785E0,7.652332306E0
2.731461152E0,-1.072340846E0,5.565489769E0,8.325074196E0
2.751723756E0,-1.108252287E0,5.492469788E0,9.051683426E0
2.771987662E0,-1.524825454E0,5.523593426E0,9.335384369E0
2.792251204E0,-1.824087739E0,5.492469788E0,9.627464294E0
2.812514381E0,-1.306962371E0,5.152507782E0,1.092506504E1
2.832777766E0,-8.676453233E-1,5.188419342E0,1.229927826E1
2.853040631E0,-1.001714945E0,5.724697113E0,1.188509941E1
2.873303391E0,-7.898370624E-1,6.366315842E0,1.054081345E1
2.893566464E0,-4.522691369E-1,6.657198906E0,9.803429604E0
2.913833443E0,-1.230805814E-1,6.053885937E0,1.005361271E1
2.934104225E0,1.438614279E-1,4.905915737E0,1.046539783E1
2.954375110E0,-1.039277911E-1,3.491003036E0,1.092985439E1
2.974641568E0,2.372312844E-1,2.327471018E0,1.147331429E1
2.994904329E0,4.874145985E-1,2.365776539E0,1.127101326E1
3.015167246E0,4.570338130E-2,2.858960867E0,9.409601212E0
3.035429902E0,-7.041041553E-2,3.167799473E0,7.625997543E0
3.055693235E0,-1.362481266E-1,3.337780714E0,6.640825748E0
3.075956621E0,-3.134114146E-1,3.318627596E0,6.671948910E0
3.096219589E0,-6.390088797E-1,3.487411737E0,7.331522942E0
3.116483079E0,-7.718812823E-1,3.613101959E0,7.775628567E0
3.136747350E0,-9.717885852E-1,3.838147163E0,7.803160667E0
3.157011568E0,-9.586209655E-1,4.251129627E0,8.116787910E0
3.177275839E0,-5.444419384E-1,4.540815830E0,7.693032265E0
3.197539641E0,-2.583471537E-1,4.355272770E0,7.161541939E0
3.217802818E0,-1.135041863E-1,4.108680725E0,7.451228142E0
3.238066204E0,-1.769478172E-1,3.978201866E0,8.018629074E0
3.258329798E0,-2.619383335E-1,3.869270563E0,8.234098434E0
3.278595423E0,-6.186589599E-1,3.864482164E0,8.301133156E0
3.298861777E0,-8.353249431E-1,4.225991249E0,8.029402733E0
3.319126048E0,-7.168170214E-1,4.915491581E0,7.388981342E0
3.339389641E0,-3.110173345E-1,5.294956684E0,7.523051262E0
3.359653756E0,-2.344061583E-1,5.085472584E0,8.404079437E0
3.379918079E0,-3.265789747E-1,5.047167301E0,9.748366356E0
3.400181985E0,-5.516242385E-1,5.090260983E0,1.050011349E1
3.420446568E0,-8.401131034E-1,5.237498283E0,1.018887997E1
3.440711829E0,-9.298918843E-1,5.053152561E0,1.027746201E1
3.460972506E0,-7.706843019E-1,4.954994678E0,1.116926384E1
3.481033339E0,-9.981235862E-1,5.668436050E0,1.194854259E1
3.500858756E0,-1.696003556E0,6.282522202E0,1.149486065E1
3.520716516E0,-2.161655664E0,6.120920658E0,1.010029793E1
3.540595110E0,-2.369942188E0,5.405085087E0,9.482621193E0
3.560459068E0,-2.444159269E0,4.220005989E0,1.022957993E1
3.580364798E0,-2.220310926E0,3.129493952E0,1.099808502E1
3.600252610E0,-2.403459787E0,3.368903875E0,1.063298512E1
3.620099016E0,-2.526755571E0,3.769915581E0,9.288699150E0
3.640039277E0,-2.348395109E0,4.126636505E0,7.950397491E0
3.659916673E0,-2.249040127E0,4.367243290E0,6.970014572E0
3.679691152E0,-2.081453085E0,4.070374966E0,6.553441048E0
3.699549641E0,-1.674456716E0,3.668166161E0,6.499574184E0
3.719436933E0,-1.132193327E0,3.293489695E0,6.687510490E0
3.739312714E0,-7.515314817E-1,3.203711033E0,7.058596134E0
3.759169433E0,-8.484925032E-1,3.419179916E0,7.282444000E0
3.779040475E0,-7.072407007E-1,3.477835417E0,7.190271378E0
3.798909537E0,-4.726189971E-1,3.580781698E0,7.332720757E0
3.818776516E0,-4.115694761E-1,3.365312815E0,7.555371761E0
3.838437141E0,-5.971121192E-1,3.378480196E0,7.846254349E0
3.858295006E0,-1.000517845E0,3.701683760E0,8.103619576E0
3.878393027E0,-1.148951888E0,3.960246325E0,7.950397491E0
3.898272610E0,-1.068749666E0,4.191277027E0,7.767249107E0
3.918119381E0,-8.329308629E-1,4.707205296E0,7.902515888E0
3.937989485E0,-6.378117800E-1,5.305730343E0,8.694962502E0
3.957860318E0,-8.616600633E-1,5.709135532E0,9.140265465E0
3.977731881E0,-1.342873931E0,5.929392815E0,9.364112854E0
3.997604798E0,-1.535598874E0,5.904254913E0,9.756745338E0
4.017540735E0,-1.432652712E0,5.443390846E0,1.040075779E1
4.037675787E0,-7.036494613E-1,5.400296688E0,1.137036800E1
4.057944485E0,-3.002438545E-1,5.827643871E0,1.030499363E1
4.078212871E0,3.971812874E-2,6.009595394E0,9.362915993E0
4.098479902E0,-1.446274668E-1,5.801308155E0,9.417980194E0
4.118746829E0,-2.894704342E-1,4.964570522E0,1.012423897E1
4.139016673E0,-1.230805814E-1,3.847723722E0,1.049173450E1
4.159290006E0,1.697419584E-2,2.964301109E0,1.041512203E1
4.179559173E0,1.390732378E-1,3.098370790E0,1.016613579E1
4.199828131E0,1.582260132E-1,3.556840658E0,9.286305428E0
4.220087662E0,1.977286637E-1,3.707669020E0,8.416049957E0
4.240347454E0,2.420194745E-1,3.718442202E0,7.999476910E0
4.260620839E0,2.623693049E-1,3.927926064E0,7.922865391E0
4.280894537E0,4.108034372E-1,4.154168129E0,7.734929085E0
4.301167350E0,4.131975174E-1,4.065587044E0,7.554174423E0
4.321439068E0,2.863103151E-1,4.199656487E0,7.423696041E0
4.341710527E0,1.091469973E-1,4.557574272E0,7.055005074E0
4.361975839E0,1.055558473E-1,4.649746895E0,6.898191452E0
4.382240527E0,-3.689303994E-2,4.331331730E0,7.266882420E0
4.402511308E0,-6.677380800E-1,4.288238049E0,7.669091225E0
4.422769329E0,-9.358771443E-1,4.270282269E0,7.946806431E0
4.443025787E0,-7.646990418E-1,4.138607025E0,8.365774155E0
4.463294589E0,-5.193039179E-1,4.297814369E0,8.702144623E0
4.483560787E0,-2.104651779E-1,4.644958496E0,8.382532120E0
4.503824068E0,3.413745761E-1,4.731146336E0,8.378941536E0
4.524088079E0,7.084141672E-2,5.004073620E0,8.619547844E0
4.544355579E0,-6.019002795E-1,5.364385128E0,9.491000175E0
4.564626308E0,-1.419485092E0,5.857569695E0,1.030858517E1
4.584897141E0,-4.055842161E-1,5.407479286E0,1.070720196E1
4.605167871E0,-2.176474780E-1,5.966501236E0,1.009790421E1
4.625425371E0,-3.648845553E-1,6.513552666E0,9.337778091E0
4.645680162E0,-1.294991970E0,7.334728718E0,8.656657219E0
4.665945110E0,-3.643602610E0,8.299551010E0,8.788331985E0
4.686209016E0,-3.136053562E0,6.816406250E0,9.852509499E0
4.706474329E0,-2.229887486E0,4.854442120E0,9.903982162E0
4.726740006E0,-2.298119068E0,3.911167145E0,1.032295036E1
4.747001360E0,-2.020403624E0,3.923137665E0,9.905179024E0
4.767265631E0,-1.712762117E0,4.214020729E0,8.739253044E0
4.787539433E0,-1.235139489E0,4.296617508E0,7.649938583E0
4.807807454E0,-1.232745409E0,4.217612267E0,7.236956596E0
4.828079850E0,-1.283021450E0,4.297814369E0,7.137600899E0
4.848357818E0,-1.073537827E0,4.125439167E0,6.815595150E0
4.868627298E0,-8.460983634E-1,3.974611044E0,6.707860470E0
4.888893756E0,-5.887327790E-1,3.690910101E0,7.008319855E0
4.909157246E0,-2.679235935E-1,3.373692036E0,7.661909103E0
4.929417766E0,-2.044799477E-1,3.548461199E0,7.910894871E0
4.949677818E0,5.767387152E-2,3.915955544E0,7.641559124E0
4.969941152E0,-1.893728971E-2,4.149380207E0,7.367434502E0
4.990208496E0,-2.774999142E-1,4.046433926E0,7.270473480E0
5.010479537E0,-4.223428965E-1,3.924334764E0,7.244138718E0
5.030756256E0,-6.342206597E-1,4.494130611E0,7.536218643E0
5.050712766E0,-6.844967604E-1,5.025619984E0,7.993491650E0
5.070475110E0,-6.880878806E-1,5.457755089E0,8.466325760E0
5.090343652E0,-8.760246038E-1,5.996427536E0,9.125900269E0
5.110250371E0,-1.175287008E0,6.329207420E0,1.033731365E1
5.130149746E0,-1.423076272E0,6.384271622E0,1.107349968E1
5.149977558E0,-1.277036190E0,6.264566898E0,1.077663136E1
5.169834798E0,-9.143301845E-1,6.107753277E0,1.059108925E1
5.189848548E0,-4.606484771E-1,6.287310600E0,1.096935558E1
5.209707610E0,-9.794254601E-2,6.802041531E0,1.048215675E1
5.229430996E0,8.760011196E-2,6.503976345E0,9.671754837E0
5.249371777E0,3.964388371E-1,5.826446533E0,9.246802330E0
5.269528079E0,2.372312844E-1,5.122581005E0,9.377281189E0
5.289808443E0,1.558319181E-1,2.852975607E0,1.063059139E1
5.310072766E0,2.946896553E-1,3.107947111E0,1.051926613E1
5.330336621E0,1.749847233E-1,3.523323298E0,9.676543236E0
5.350601412E0,-6.681926548E-2,3.854906082E0,8.767982483E0
5.370866725E0,-4.750131369E-1,4.114665985E0,8.076087952E0
5.391128339E0,-8.257485628E-1,4.351681709E0,7.345888138E0
5.411391048E0,-7.790636420E-1,4.526450634E0,6.542667389E0
5.431652193E0,-3.624904752E-1,4.196064949E0,6.096168518E0
5.451912766E0,-2.487707585E-1,3.941093445E0,5.992024899E0
5.472178287E0,-1.458245069E-1,3.901591063E0,5.924990177E0
5.492443183E0,-4.168121517E-2,3.923137665E0,5.802891254E0
5.512705371E0,2.176239341E-2,3.985384226E0,6.102153778E0
5.532988496E0,1.936829090E-2,4.228385448E0,6.606111526E0
5.553276673E0,-1.817360073E-1,4.612637997E0,7.004728317E0
5.573547246E0,-5.288802981E-1,4.770648479E0,7.464395523E0
5.593811829E0,-8.879951239E-1,5.019635201E0,8.554907799E0
5.614073287E0,-9.310888648E-1,5.634918690E0,9.451498032E0
5.634335475E0,-7.910341024E-1,5.998821735E0,9.889617920E0
5.654598183E0,-8.808128238E-1,6.031141758E0,9.926726341E0
5.674861204E0,-9.119361043E-1,5.982062817E0,1.017331791E1
5.695123860E0,-8.568718433E-1,5.871934414E0,1.097773647E1
5.715385996E0,-6.222501993E-1,6.009595394E0,1.158224583E1
5.735648652E0,-5.145157576E-1,6.562631607E0,1.136797428E1
5.755915996E0,-8.604629636E-1,7.246147156E0,1.062340927E1
5.776183339E0,-1.588268995E0,7.438872337E0,9.841735840E0
5.796446673E0,-1.984492421E0,6.389059544E0,9.529306412E0
5.816709850E0,-2.207143545E0,4.951403141E0,9.893209457E0
5.836972766E0,-2.149685144E0,3.919546604E0,1.011945057E1
5.857236881E0,-2.150882244E0,3.704077721E0,1.005600834E1
5.877504693E0,-2.152079105E0,3.887226105E0,9.662178040E0
5.897771464E0,-2.107788324E0,3.921940804E0,8.940358162E0
5.918038131E0,-1.751067758E0,3.902787924E0,7.821116447E0
5.938308287E0,-1.509263754E0,4.076360226E0,6.882629395E0
5.958574850E0,-1.263868690E0,3.993763685E0,6.303257942E0
5.978837818E0,-1.163316488E0,3.822585821E0,5.913019657E0
5.999104381E0,-1.012488246E0,3.907576323E0,6.112926960E0
6.019374433E0,-8.556748033E-1,3.858496904E0,6.499574184E0
6.039640891E0,-8.879951239E-1,3.923137665E0,7.019093513E0
6.059905110E0,-7.275905013E-1,3.785476923E0,7.017896652E0
6.080169589E0,-4.690278769E-1,3.565219879E0,6.719830990E0
6.100433339E0,-5.133186579E-1,3.739989281E0,6.438524723E0
6.120706621E0,-4.702248573E-1,3.992566824E0,6.480421066E0
6.140979068E0,-4.774071574E-1,4.437869072E0,6.682722569E0
6.161245006E0,-8.377190232E-1,5.069911003E0,6.871856689E0
6.181510475E0,-1.347662210E0,5.789337635E0,7.326735020E0
6.201775423E0,-1.443426013E0,6.372301102E0,7.769643307E0
6.222040943E0,-1.393150091E0,6.724233627E0,8.648278236E0
6.242302402E0,-1.377588391E0,6.768524170E0,1.006319046E1
6.262480787E0,-1.487716913E0,6.669169426E0,1.123988914E1
6.282494850E0,-1.183666468E0,6.466867924E0,1.171870899E1
6.302375214E0,-9.753797650E-1,6.326813221E0,1.157985115E1
6.322226985E0,-7.204082012E-1,6.193940639E0,1.144817638E1
6.342106881E0,-6.162649393E-1,6.605725765E0,1.088556290E1
6.361961881E0,-2.020858377E-1,6.725430489E0,1.005600834E1
6.381882714E0,-4.527238011E-2,6.760145187E0,9.777094841E0
6.401807610E0,-9.815394878E-4,6.378286362E0,9.534093857E0
6.421613652E0,9.478240460E-2,5.567883492E0,8.917613983E0
6.441425735E0,1.570289731E-1,4.482160091E0,9.085201263E0
6.461305683E0,1.582260132E-1,3.534096718E0,9.836948395E0
6.481189016E0,3.150395155E-1,3.221666813E0,1.005600834E1
6.501049016E0,1.749847233E-1,3.338977814E0,9.554444313E0
6.520988235E0,1.223145425E-1,3.559234619E0,8.515404701E0
6.540889589E0,-1.362481266E-1,3.808220863E0,7.696623325E0
6.560745266E0,-3.696727753E-1,4.135015488E0,6.876644611E0
6.580619850E0,-3.648845553E-1,4.233173370E0,6.291287422E0
6.600492766E0,-1.123071462E-1,4.112271786E0,6.160809040E0
6.620386360E0,1.390732378E-1,3.920743704E0,6.320016384E0
6.640261933E0,8.041781187E-2,3.899196625E0,6.419371605E0
6.660062766E0,-1.518097669E-1,4.164941788E0,6.170385361E0
6.679930214E0,1.697419584E-2,4.385199070E0,6.038710117E0
6.699870787E0,2.456106246E-1,4.299011230E0,6.187143803E0
6.719749954E0,1.582260132E-1,4.294223309E0,6.561820507E0
6.739549068E0,1.366791278E-1,4.629397392E0,7.289626598E0
6.759420527E0,2.312460393E-1,5.394311905E0,7.956383228E0
6.779370787E0,2.276548892E-1,5.778564930E0,8.710523605E0
6.799229329E0,-2.499678284E-1,6.082615376E0,9.372491837E0
6.819100839E0,-6.150678396E-1,6.277734280E0,9.793853760E0
6.839177975E0,-4.845895171E-1,5.789337635E0,1.088675976E1
6.859442037E0,-5.564123988E-1,5.685194492E0,1.125305748E1
6.879710423E0,-5.025452375E-1,6.272945881E0,1.115130806E1
6.899977766E0,-7.287875414E-1,7.025890350E0,1.031696415E1
6.920241985E0,-1.061567307E0,7.327546120E0,9.534093857E0
6.940505006E0,-1.499687433E0,6.871470928E0,9.194131851E0
6.960767662E0,-1.849225760E0,5.801308155E0,9.264758110E0
6.981035891E0,-1.765432477E0,4.395972252E0,9.811810493E0
7.001307193E0,-1.887531400E0,4.003340244E0,1.015895367E1
7.021563912E0,-1.952172160E0,4.488145351E0,9.629858017E0
7.041821568E0,-1.974916101E0,4.746707916E0,8.529769897E0
7.062089798E0,-2.000053883E0,4.676082134E0,7.931244850E0
7.082357246E0,-1.843240499E0,4.401957512E0,7.599662304E0
7.102627037E0,-1.444623232E0,4.202050209E0,7.621209145E0
7.122893027E0,-1.048399806E0,4.217612267E0,7.029867172E0
7.143156881E0,-6.521763802E-1,4.069177628E0,6.499574184E0
7.163421308E0,-7.694872618E-1,3.938699484E0,6.665964127E0
7.183685371E0,-7.623049021E-1,3.917152405E0,6.965226173E0
7.203948964E0,-7.802606821E-1,3.626269579E0,6.875447750E0
7.224202662E0,-1.040020466E0,3.562825918E0,7.412922382E0
7.244457037E0,-1.085508347E0,3.155829191E0,7.064580917E0
7.264722246E0,-7.718812823E-1,3.160617113E0,6.140459061E0
7.284988027E0,-7.251964211E-1,3.694501162E0,5.550313473E0
7.305254381E0,3.090542555E-1,4.011719704E0,5.491658688E0
7.325520735E0,-5.420478582E-1,5.387129307E0,6.385854244E0
7.345791204E0,-1.658894897E0,6.471656322E0,7.919274330E0
7.366061673E0,-1.737900138E0,6.861894131E0,8.855366707E0
7.386331308E0,-1.048399806E0,6.675154686E0,9.342566490E0
7.406600579E0,-9.514387250E-1,6.786480427E0,1.003924942E1
7.426857350E0,-7.994135022E-1,6.548267365E0,1.089394188E1
7.447118183E0,-5.264861584E-1,6.205911160E0,1.208859730E1
7.467390371E0,-2.667264938E-1,6.135285378E0,1.247644138E1
7.487661256E0,7.922076434E-2,6.383074284E0,1.128298283E1
7.507933079E0,6.478192210E-1,6.554252625E0,1.014339161E1
7.528205214E0,9.710225463E-1,6.906185150E0,9.281517029E0
7.548473652E0,8.058297634E-1,6.729021549E0,9.064850807E0
7.568742610E0,6.645779610E-1,6.196334839E0,9.210890770E0
7.589015110E0,6.945041418E-1,5.047167301E0,9.347353935E0
7.609280943E0,7.806916833E-1,3.984187126E0,1.049173450E1
7.629534225E0,8.968055248E-1,3.207302332E0,1.120996284E1
7.649794225E0,1.191279531E0,3.125902891E0,1.052884197E1
7.670065631E0,1.233176351E0,3.319824934E0,9.681330681E0
7.690336621E0,9.542638659E-1,3.734004021E0,8.954722404E0
7.710607402E0,2.719457150E-1,4.218809128E0,8.211354256E0
7.730876516E0,-1.793418974E-1,4.489342213E0,7.625997543E0
7.751146777E0,-1.158982813E-1,4.605456352E0,7.098098755E0
7.771418287E0,-7.519860566E-2,4.764663696E0,6.760530472E0
7.791687923E0,5.887092277E-2,4.783816814E0,6.721027851E0
7.811955735E0,4.809747636E-2,4.723964214E0,6.680328369E0
7.831953131E0,-9.674550593E-2,4.941827297E0,6.402613163E0
7.851951673E0,-3.792491555E-1,4.939432621E0,6.215873241E0
7.872064173E0,-5.504271984E-1,4.664111614E0,6.469647408E0
7.891985891E0,-1.937064976E-1,4.309784889E0,6.950861454E0
7.911827350E0,1.079499498E-1,4.193671227E0,7.025078773E0
7.931626152E0,7.711153030E-1,3.932714224E0,7.017896652E0
7.951488652E0,5.029762387E-1,4.363652229E0,6.926920414E0
7.971354954E0,1.797729135E-1,5.429026127E0,7.397361279E0
7.991185423E0,-2.296179682E-1,5.885101795E0,7.047822475E0
8.011124537E0,-4.881806374E-1,6.482429504E0,7.546991825E0
8.031098652E0,1.438614279E-1,6.130496979E0,8.185019493E0
8.050958860E0,3.449657261E-1,5.893481255E0,9.747169495E0
8.070733652E0,2.958866954E-1,5.747441292E0,1.120876598E1
8.090539225E0,-6.203106046E-2,5.979668617E0,1.133086491E1
8.110404016E0,-1.266717315E-1,6.845135689E0,1.075269032E1
8.130282402E0,5.003698170E-3,7.219811916E0,9.718440056E0
8.150137246E0,2.180784941E-1,7.417325020E0,8.898461342E0
8.169990631E0,-8.844040036E-1,7.381413937E0,9.082805634E0
8.189881308E0,-1.527219534E0,6.693109989E0,9.821386337E0
8.209740787E0,-1.656500936E0,5.408676147E0,1.098491764E1
8.229643964E0,-1.083114147E0,4.307390690E0,1.146254063E1
8.249535839E0,-6.042944193E-1,3.833359003E0,1.043786621E1
8.269356048E0,-4.367074966E-1,3.828570604E0,9.628661156E0
8.289204954E0,-1.171695948E0,4.379213810E0,9.040909767E0
8.309086412E0,-1.644530416E0,4.637776852E0,8.909234047E0
8.328930318E0,-1.377588391E0,4.696431637E0,7.995885372E0
8.348792141E0,-5.647917986E-1,4.205641747E0,6.281711102E0
8.368710787E0,-9.143301845E-1,4.586303234E0,6.224252701E0
8.388568235E0,-1.250701189E0,4.779028416E0,6.832353592E0
8.408411048E0,-9.478476644E-1,4.449839592E0,6.902979374E0
8.428365527E0,-6.186589599E-1,4.231976509E0,6.752151489E0
8.448309016E0,-6.102796793E-1,4.077557564E0,6.970014572E0
8.468103704E0,-8.149751425E-1,3.905181885E0,7.239350319E0
8.487978391E0,-1.077128887E0,3.884832144E0,7.010714054E0
8.507837714E0,-1.123813868E0,3.900393724E0,6.248193741E0
8.527628704E0,-1.310553551E0,4.135015488E0,6.326001644E0
8.547511777E0,-1.383573651E0,4.386396408E0,6.847915649E0
8.567390683E0,-1.129799128E0,4.801772118E0,7.356661320E0
8.587243912E0,-6.641468406E-1,5.045970440E0,7.652332306E0
8.607187558E0,-6.785115004E-1,5.166872025E0,7.979126930E0
8.627073183E0,-8.556748033E-1,5.699559212E0,8.088058472E0
8.646940162E0,-7.958223224E-1,6.338783741E0,8.729677200E0
8.666777246E0,-2.667264938E-1,6.711066246E0,9.523321152E0
8.686532662E0,-1.774023473E-2,6.816406250E0,9.899193764E0
8.706391881E0,-5.468360782E-1,7.386201859E0,1.024873257E1
8.726376308E0,-7.419551015E-1,7.460418701E0,1.088795662E1
8.746273964E0,-8.149751425E-1,7.234176636E0,1.150323963E1
8.766068964E0,-5.528212786E-1,6.958855152E0,1.066889668E1
8.785961360E0,-3.541110754E-1,6.803238869E0,9.620282173E0
8.805834329E0,-3.648845553E-1,6.685927868E0,9.303064346E0
8.825647246E0,-3.217907548E-1,5.961713314E0,9.299471855E0
8.845503860E0,-4.766647518E-2,4.662914753E0,1.004403687E1
8.865417714E0,9.578549862E-1,2.878113747E0,1.067488194E1
8.885285527E0,5.580404997E-1,2.521393061E0,1.032414722E1
8.905142298E0,-4.869835377E-1,3.457485437E0,9.159418106E0
8.925012037E0,-6.066884995E-1,4.191277027E0,7.931244850E0
8.944892037E0,-1.290658265E-1,4.271479607E0,7.501503944E0
8.964771152E0,4.419267178E-1,3.632254601E0,6.361913204E0
8.984642350E0,5.329024792E-1,3.706471682E0,7.574523926E0
9.004525579E0,-9.897443652E-1,4.333725929E0,9.530503273E0
9.024401985E0,-9.167242646E-1,4.290632248E0,7.959973812E0
9.060447809E0,-1.350056171E0,5.602598190E0,7.309976578E0
9.060447809E0,-9.191184640E-1,5.490075588E0,8.520193100E0
9.076392197E0,-9.634092450E-1,5.311715126E0,9.192934990E0
9.096254281E0,-9.370741248E-1,5.269818783E0,8.966692924E0
9.116189385E0,-7.347728014E-1,5.366779804E0,7.936033249E0
9.136045895E0,-8.712364435E-1,5.437405109E0,7.754081726E0
9.156133031E0,-9.071479440E-1,5.332065105E0,8.052146912E0
9.176424176E0,-8.856009841E-1,5.455361366E0,7.985112190E0
9.196694229E0,-8.341279030E-1,5.356006145E0,8.199383736E0
9.216963187E0,-7.862459421E-1,5.269818783E0,8.363380432E0
9.237231520E0,-7.934282422E-1,5.339247227E0,8.220931053E0
9.257500010E0,-8.472954035E-1,5.394311905E0,8.224521637E0
9.277771624E0,-8.832069039E-1,5.357203007E0,8.125166893E0
9.298044697E0,-8.604629636E-1,5.326079845E0,8.000674248E0
9.318317614E0,-8.065957427E-1,5.323685646E0,8.025812149E0
9.338591312E0,-7.048465610E-1,5.316503048E0,8.061723709E0
9.358863239E0,-8.389161229E-1,5.334459305E0,8.070102692E0
9.379135010E0,-8.867980242E-1,5.387129307E0,7.719367027E0
9.399407979E0,-8.604629636E-1,5.633721828E0,7.513474464E0
9.419680322E0,-6.749203205E-1,5.779761791E0,7.608041763E0
9.439948395E0,-1.414909214E-2,5.698362350E0,6.740180969E0
9.460226208E0,2.348371893E-1,5.429026127E0,7.004728317E0
9.480505479E0,-2.020858377E-1,5.049561024E0,8.615957260E0
9.500770531E0,-5.133186579E-1,4.999285221E0,8.631519318E0
9.521037666E0,-1.773811698E0,5.649283409E0,9.963834763E0
9.541308760E0,-1.411105752E0,5.180039883E0,9.236028671E0
9.561577510E0,-7.646990418E-1,5.038788319E0,8.216142654E0
9.581845426E0,-4.450868368E-1,5.038788319E0,7.671484947E0
9.602112979E0,-1.518097669E-1,5.182433605E0,7.860619068E0
9.622379593E0,-7.280449569E-2,5.170463085E0,8.428020477E0
9.642647562E0,9.791895747E-3,5.078290939E0,9.291092873E0
9.662913916E0,-8.118385077E-2,4.840077877E0,9.596341133E0
9.683179489E0,-2.918645144E-1,4.840077877E0,9.258772850E0
9.703445583E0,-2.655294538E-1,5.024423122E0,8.636306763E0
9.723712041E0,-3.241848946E-1,4.951403141E0,8.115590096E0
9.743975895E0,-1.901153475E-1,4.698826313E0,8.326271057E0
9.764238447E0,-1.003366411E-1,4.661717415E0,8.863745689E0
9.784504229E0,-1.542038769E-1,4.840077877E0,9.165403366E0
9.804767614E0,-3.375642002E-3,4.952600002E0,8.705736160E0
9.825031572E0,1.713935584E-1,4.940629482E0,7.953989029E0
9.845295479E0,1.666053683E-1,4.986117840E0,7.578115463E0
9.865555270E0,7.922076434E-2,5.050758839E0,7.919274330E0
9.885818239E0,1.606201231E-1,5.299744606E0,8.030599594E0
9.906079645E0,3.806650639E-3,5.535563469E0,8.032994270E0
9.926341260E0,-8.357796073E-2,5.537957668E0,8.179034233E0
9.946606885E0,-7.878975570E-2,5.515213490E0,8.364577293E0
9.966870166E0,-2.252843976E-2,5.737864494E0,8.644685745E0
9.987132458E0,1.749847233E-1,5.773776054E0,8.745239258E0
1.000739277E1,3.270099759E-1,5.472119808E0,8.979860306E0
1.002765209E1,2.204725891E-1,5.491272926E0,9.420373917E0
1.004791803E1,-1.434304267E-1,5.740258694E0,9.189344406E0
1.006818392E1,-2.212386280E-1,5.970092297E0,8.874520302E0
1.008844730E1,-1.123071462E-1,6.138876438E0,8.540542603E0
1.010871480E1,-3.732638955E-1,6.306463242E0,8.965496063E0
1.012897845E1,-8.628570437E-1,6.235836983E0,1.124707222E1
1.014920574E1,-6.354176998E-1,5.831234932E0,1.285231495E1
1.016924694E1,-5.181068778E-1,5.190813065E0,1.251594448E1
1.018905475E1,-7.431521416E-1,4.976541042E0,1.178813839E1
1.020883944E1,-1.181272268E0,5.148916721E0,1.097175026E1
1.022872892E1,-1.405120492E0,5.668436050E0,1.047377777E1
1.024857319E1,-1.797752619E0,5.435011387E0,1.021880627E1
1.026840470E1,-2.369942188E0,4.605456352E0,1.078381443E1
1.028829303E1,-3.037895679E0,3.629860640E0,1.122911644E1
1.030815912E1,-3.110915661E0,3.033730030E0,1.106033230E1
1.032802501E1,-2.803274155E0,2.718905926E0,1.002249050E1
1.034789001E1,-2.228690386E0,2.741649866E0,8.062920570E0
1.036776746E1,-1.922245860E0,2.989439249E0,5.866334915E0
1.038766043E1,-2.185596704E0,3.151041031E0,4.501698494E0
1.040751584E1,-2.173626184E0,3.026547670E0,4.511274815E0
1.042735506E1,-2.355577707E0,3.008591890E0,5.969281197E0
1.044723199E1,-3.510730267E0,3.492199898E0,7.868998528E0
1.046715209E1,-3.776475191E0,3.967428446E0,7.586494446E0
1.048700866E1,-2.770953655E0,4.321755409E0,6.515135765E0
1.050684017E1,-1.478140593E0,4.878383160E0,8.107211113E0
1.052671246E1,-8.365219831E-1,5.812081814E0,1.072156715E1
1.054652662E1,-1.612210035E0,7.095318794E0,1.219513512E1
1.056640662E1,-1.345268011E0,7.147989273E0,1.310728645E1
1.058630959E1,8.273766637E-1,7.363457680E0,1.240940666E1
1.060615855E1,2.357205868E0,7.541818142E0,1.203832150E1
1.062603892E1,3.724236012E0,6.262172699E0,1.224541092E1
1.064594907E1,3.407018185E0,5.260241985E0,1.124826908E1
1.066585350E1,2.062731743E0,5.444587708E0,9.159418106E0
1.068558386E1,1.801774859E0,5.243483067E0,6.355927944E0
1.070541194E1,2.499654531E0,4.155365467E0,4.301791668E0
1.072537136E1,3.260977983E0,3.820191383E0,4.378402710E0
1.074524194E1,2.862360477E0,3.325810194E0,5.891472816E0
1.076512027E1,1.728754759E0,3.391647816E0,8.042570114E0
1.078498074E1,3.772860765E-1,3.470653057E0,9.496986389E0
1.080484689E1,3.413745761E-1,4.848457336E0,9.334187508E0
1.082471699E1,2.187224865E0,5.315306187E0,7.530233383E0
1.084465272E1,3.712265491E0,5.024423122E0,7.640362263E0
1.086451579E1,3.010794878E0,5.007664680E0,1.182524681E1
1.088410584E1,-5.312744379E-1,5.816870213E0,1.712338638E1
1.090396459E1,-2.926570177E0,6.063462257E0,1.914639854E1
1.092404001E1,-1.110646248E0,5.207571983E0,1.466584492E1
1.094391735E1,4.120004773E-1,4.301405907E0,9.303064346E0
1.096379189E1,8.393471241E-1,3.672954559E0,5.813664436E0
1.098366194E1,7.651301026E-1,3.123508692E0,4.148569107E0
1.100351235E1,3.808771968E-1,2.882901669E0,2.133934736E0
1.102345558E1,-1.504475594E0,2.824246407E0,1.611974686E-1
1.104340819E1,-3.067821980E0,2.571668863E0,9.655679762E-2
1.106319850E1,-4.058979034E0,1.403348804E0,1.467178464E0
1.108278444E1,-3.845904112E0,6.265354156E-2,2.701336384E0
1.110264621E1,-4.331905842E0,-7.046551704E-1,6.056665421E0
1.112280037E1,-5.708512783E0,-7.764780521E-1,9.322216034E0
1.114275631E1,-6.493777275E0,1.237030551E-1,8.194596291E0
1.116284959E1,-8.568264008E0,1.756478310E0,7.181891918E0
1.118313548E1,-5.634295940E0,2.102425575E0,1.207782364E1
1.120340095E1,-1.570313334E0,3.068444490E0,1.094421768E1
1.122366631E1,-1.549963474E0,5.692376614E0,1.099928188E1
1.124393168E1,-2.296922207E0,8.030214310E0,1.342210960E1
1.126420454E1,-4.881806374E-1,9.135090828E0,1.680975914E1
1.128447366E1,1.677281618E0,9.925143242E0,1.753157997E1
1.130473501E1,4.183903217E0,1.037882519E1,1.491961861E1
1.132499605E1,6.075241089E0,1.010829258E1,1.298398972E1
1.134525735E1,5.389332294E0,9.299087524E0,1.282717705E1
1.136551777E1,1.926267982E0,8.851389885E0,1.283196545E1
1.138577824E1,-7.826548219E-1,8.123583794E0,1.357772732E1
1.140603975E1,3.449657261E-1,6.281325340E0,1.146613216E1
1.142630194E1,2.218348026E0,4.692840576E0,8.406474113E0
1.144656725E1,2.780961275E0,3.869270563E0,6.461268425E0
1.146682215E1,1.747907519E0,3.860891104E0,5.193593025E0
1.148707793E1,-4.572689533E-3,4.223597527E0,5.180425644E0
1.150734069E1,-3.876284957E-1,3.792659521E0,6.880235672E0
1.152760147E1,1.041648388E0,2.954724789E0,8.223324776E0
1.154786527E1,2.660059214E0,2.742846966E0,8.186216354E0
1.156813037E1,2.305732489E0,3.104356050E0,9.467059135E0
1.158839834E1,-1.350510865E-1,3.650210381E0,1.279725075E1
1.160866532E1,-1.996462703E0,3.704077721E0,1.515543842E1
1.162893074E1,-1.769023538E0,3.316233635E0,1.340894318E1
1.164919558E1,-9.670003057E-1,3.142661572E0,1.067368507E1
1.166946131E1,-8.568718433E-1,3.032532930E0,8.742843628E0
1.168976725E1,-1.130996227E0,3.258775234E0,7.331522942E0
1.171006751E1,-1.407514572E0,3.391647816E0,5.666427612E0
1.173032735E1,-1.628968835E0,3.142661572E0,4.300593853E0
1.175059183E1,-1.851619959E0,2.819458246E0,4.118642807E0
1.177085569E1,-1.802540898E0,2.480693102E0,4.548383713E0
1.179111918E1,-1.532007813E0,2.565683603E0,4.525639534E0
1.181138162E1,-1.669668436E0,3.051685810E0,4.279047489E0
1.183164037E1,-1.701988816E0,3.675348520E0,3.880429745E0
1.185190105E1,-1.244715929E0,4.027281284E0,3.675734520E0
1.187216652E1,-3.146084547E-1,4.020098686E0,3.819380283E0
1.189243006E1,-2.092681378E-1,4.123044968E0,5.591013432E0
1.191268970E1,-1.242321849E0,4.974147320E0,6.956847191E0
1.193295142E1,-2.166443586E0,5.797717094E0,7.928851128E0
1.195321642E1,-2.268193007E0,5.871934414E0,9.647813797E0
1.197348152E1,-1.876757979E0,5.536760807E0,1.220949936E1
1.199374517E1,-6.294324398E-1,5.541548729E0,1.238666344E1
1.201400746E1,2.180784941E-1,6.602134705E0,1.093224812E1
1.203427470E1,2.415648848E-2,7.699828625E0,9.373688698E0
1.205454256E1,-1.482928634E0,8.066125870E0,8.502238274E0
1.207480376E1,-3.265335083E0,7.759681225E0,9.797445297E0
1.209506381E1,-3.806401491E0,6.562631607E0,1.190904045E1
1.211532345E1,-2.434582949E0,4.995694160E0,1.359448624E1
1.213558105E1,-5.564123988E-1,4.038054466E0,1.288343811E1
1.215571756E1,8.333618641E-1,3.969822645E0,1.061981773E1
1.217566496E1,1.293028831E0,4.069177628E0,8.521389961E0
1.219553215E1,7.076717019E-1,4.507297993E0,7.375813961E0
1.221541449E1,-2.607412338E-1,4.804166317E0,7.106478214E0
1.223524814E1,-7.491373420E-1,4.814939499E0,6.810806751E0
1.225509100E1,-6.461911201E-1,4.618623734E0,6.081803322E0
1.227500048E1,-3.708698153E-1,4.376819611E0,5.456943989E0
1.229487121E1,-5.061363578E-1,4.301405907E0,5.030794621E0
1.231472829E1,-7.311816812E-1,4.346893311E0,4.838069439E0
1.233467985E1,-6.629498601E-1,4.222400188E0,5.057129383E0
1.235464157E1,-4.618455768E-1,4.131424427E0,5.832817554E0
1.237442121E1,-1.374451816E-1,4.415125370E0,6.657584667E0
1.239420314E1,1.522407830E-1,5.078290939E0,7.232168198E0
1.241408126E1,3.473598361E-1,6.282522202E0,8.133546829E0
1.243393928E1,-1.877212673E-1,7.273679256E0,1.030499363E1
1.245380720E1,-2.480070591E0,7.535833359E0,1.350231266E1
1.247366418E1,-3.911741734E0,6.916958809E0,1.589641094E1
1.249373142E1,-3.028319359E0,5.505637169E0,1.638001823E1
1.251365277E1,-1.205213308E0,4.516874790E0,1.469936180E1
1.253327918E1,3.377834558E-1,4.479765892E0,1.223942566E1
1.255311600E1,1.611443996E0,5.297350883E0,9.659784317E0
1.257298485E1,2.411072969E0,5.754623890E0,8.274798393E0
1.259284126E1,2.704349995E0,5.424237728E0,8.053343773E0
1.261275876E1,2.479304790E0,4.642564774E0,8.183822632E0
1.263263027E1,1.870006561E0,3.595146179E0,9.055274010E0
1.265248564E1,1.616232038E0,2.894872189E0,9.668164253E0
1.267235152E1,1.773045540E0,2.729679346E0,9.346157074E0
1.269225840E1,2.101037025E0,3.089991570E0,8.082073212E0
1.271212334E1,2.317703009E0,3.587964058E0,7.582903385E0
1.273194272E1,2.461349010E0,3.690910101E0,7.426090240E0
1.275180642E1,2.435014009E0,3.465864897E0,7.803160667E0
1.277167267E1,2.086672544E0,3.130691051E0,8.232901573E0
1.279153011E1,6.107106805E-1,3.061262131E0,8.766784668E0
1.281139626E1,-1.010094166E0,3.246804953E0,9.173782349E0
1.283126782E1,-1.541584134E0,3.268351793E0,8.650671959E0
1.285112751E1,-9.346800447E-1,3.149843931E0,7.584100723E0
1.287094564E1,-5.540183783E-1,3.348553896E0,7.229773998E0
1.289082433E1,-1.523628473E0,3.732806921E0,7.272868156E0
1.291074923E1,-2.691948414E0,4.514480114E0,6.770107269E0
1.293061392E1,-2.524361372E0,5.297350883E0,6.497179985E0
1.295046621E1,-1.214789629E0,5.235104084E0,5.822043896E0
1.297033225E1,2.372312844E-1,5.516410828E0,5.195987225E0
1.299019787E1,8.860321045E-1,5.694771290E0,4.799764156E0
1.301006636E1,6.006797403E-2,5.494863510E0,6.365504742E0
1.303001314E1,-1.360829711E0,5.594218731E0,9.219269753E0
1.304994017E1,-2.302907467E0,5.774973392E0,1.120996284E1
1.306980282E1,-1.696003556E0,5.988048077E0,1.054679775E1
1.308964329E1,-4.630426168E-1,6.253793240E0,8.589622498E0
1.310949235E1,1.486496329E-1,6.233443260E0,8.284374237E0
1.312938767E1,5.049157888E-2,5.373961926E0,9.128293991E0
1.314928319E1,-4.522691369E-1,4.403154850E0,1.042110825E1
1.316908037E1,-1.109449267E0,3.359327555E0,1.190784264E1
1.318893131E1,-9.765767455E-1,3.042109489E0,1.140747643E1
1.320878803E1,-9.011626840E-1,3.415588617E0,9.845327377E0
1.322859386E1,-1.704382777E0,3.977005005E0,8.365774155E0
1.324846298E1,-2.003645182E0,4.111074448E0,7.667893887E0
1.326839017E1,-1.613407016E0,3.663378000E0,8.092846870E0
1.328832985E1,-1.176483989E0,3.088794231E0,9.281517029E0
1.330812376E1,-5.444419384E-1,2.491466761E0,8.970284462E0
1.332791991E1,-3.912196159E-1,2.527378321E0,7.872589588E0
1.334784652E1,-9.358771443E-1,2.947542429E0,7.092113495E0
1.336771282E1,-1.260277510E0,3.224061012E0,7.005926132E0
1.338752298E1,-4.534661770E-1,2.983453989E0,7.178300858E0
1.340747225E1,3.174335957E-1,2.788334846E0,7.203439236E0
1.342735459E1,3.988329172E-1,3.354539156E0,6.634840488E0
1.344713886E1,-2.248297781E-1,4.424701691E0,6.151232719E0
1.346700293E1,-9.502417445E-1,5.293759823E0,7.987506390E0
1.348709366E1,-1.239927649E0,5.177645683E0,1.125066280E1
1.350737303E1,-8.460983634E-1,4.245144367E0,1.283794975E1
1.352764100E1,-6.821026206E-1,4.378016472E0,1.160259533E1
1.354790876E1,-7.994135022E-1,4.593485832E0,1.114771748E1
1.356817553E1,-1.199228048E0,4.526450634E0,1.118123436E1
1.358844027E1,-1.261474490E0,4.337316990E0,1.205388260E1
1.360870246E1,-6.198560596E-1,4.465401173E0,1.215084362E1
1.362896662E1,3.329952359E-1,4.470189571E0,1.152359009E1
1.364924022E1,4.910057187E-1,4.384001732E0,1.065094090E1
1.366949918E1,8.501206040E-1,3.651407480E0,1.029541683E1
1.368975064E1,1.318166852E0,2.631521463E0,1.144697857E1
1.371001642E1,1.146988750E0,1.949203372E0,1.251115608E1
1.373028131E1,4.167886972E-1,1.983917713E0,1.223583412E1
1.375054324E1,-2.439825684E-1,2.447175980E0,1.136797428E1
1.377080777E1,-2.332091182E-1,2.668629885E0,1.016015148E1
1.379107543E1,7.562961429E-2,2.643491983E0,9.130687714E0
1.381134272E1,3.492993116E-2,2.570472002E0,8.428020477E0
1.383160991E1,-2.020858377E-1,2.698556185E0,7.943215370E0
1.385187371E1,-5.252891779E-1,2.733270645E0,7.220197678E0
1.387212376E1,-5.396537185E-1,2.644689083E0,6.351140022E0
1.389237235E1,-4.941658378E-1,2.527378321E0,5.672412872E0
1.391263558E1,-4.067812562E-1,2.447175980E0,5.205563545E0
1.393290178E1,3.732403368E-2,2.603989124E0,4.867995739E0
1.395316439E1,4.586853981E-1,2.761999846E0,4.583097935E0
1.397343011E1,8.213914037E-1,3.209696293E0,5.182819366E0
1.399369991E1,5.281142592E-1,3.720836401E0,5.962098598E0
1.401396850E1,2.396253794E-1,4.284646988E0,6.531894207E0
1.403423511E1,2.156843841E-1,4.333725929E0,8.153896332E0
1.405450324E1,2.073050439E-1,4.125439167E0,9.963834763E0
1.407475902E1,2.025168538E-1,4.050024986E0,1.094062710E1
1.409501475E1,-2.727117538E-1,4.350484848E0,1.121714497E1
1.411528402E1,-9.777738452E-1,4.810151577E0,1.150204277E1
1.413554975E1,-1.217183828E0,4.697628498E0,1.173546791E1
1.415581329E1,-9.119361043E-1,4.370834351E0,1.228730774E1
1.417608095E1,-6.007032394E-1,4.387593269E0,1.306419277E1
1.419634991E1,-3.660815954E-1,4.868807316E0,1.245130348E1
1.421661360E1,-1.018473506E0,5.384735107E0,1.156069946E1
1.423687626E1,-2.468100071E0,5.455361366E0,1.093583870E1
1.425714303E1,-3.136053562E0,4.958585739E0,1.095499229E1
1.427739970E1,-2.549499750E0,4.042842865E0,1.070361137E1
1.429765439E1,-1.679244757E0,3.495791197E0,9.771109581E0
1.431792173E1,-1.114237547E0,3.465864897E0,8.339439392E0
1.433819188E1,-8.472954035E-1,3.555643559E0,7.252518177E0
1.435845923E1,-9.693945050E-1,3.735200882E0,6.819186211E0
1.437872345E1,-8.293396831E-1,3.672954559E0,6.547456264E0
1.439898798E1,-5.216979980E-1,3.427559137E0,6.437327385E0
1.441925277E1,-6.509793401E-1,3.212090492E0,7.220197678E0
1.443951751E1,-7.000583410E-1,3.224061012E0,7.502701759E0
1.445978220E1,-8.161721826E-1,3.470653057E0,7.016698837E0
1.447989204E1,-1.044808626E0,3.674151421E0,6.662372589E0
1.449997980E1,-6.940731406E-1,3.402421236E0,6.246996403E0
1.452003621E1,-2.607412338E-1,3.149843931E0,6.492391586E0
1.453990767E1,-2.906674743E-1,3.201317072E0,7.415316582E0
1.455984345E1,-7.658960223E-1,3.568811178E0,8.275995255E0
1.458004090E1,-1.037626266E0,4.200853348E0,8.264024734E0
1.460041209E1,-2.403914183E-1,5.907845497E0,8.940358162E0
1.462077782E1,5.767387152E-2,5.771382332E0,9.888421059E0
1.464114209E1,-4.091753364E-1,5.449375629E0,1.117285538E1
1.466150689E1,-1.643333316E0,5.126172543E0,1.309411907E1
1.468186564E1,-1.916260600E0,5.147719860E0,1.332754421E1
1.470221871E1,-1.050793886E0,5.092655182E0,1.137635326E1
1.472256772E1,-1.996917576E-1,5.549928188E0,9.708863258E0
1.474291282E1,2.922955453E-1,6.076629639E0,8.996619225E0
1.476325412E1,6.274693608E-1,6.305266380E0,8.771574020E0
1.478359043E1,6.849277616E-1,5.897072315E0,9.028939247E0
1.480392360E1,3.473598361E-1,5.205177784E0,9.529306412E0
1.482425204E1,3.294040561E-1,4.411534309E0,1.016254520E1
1.484457876E1,1.093121529E0,3.809417963E0,1.076346397E1
1.486490314E1,2.280594587E0,3.277928114E0,1.106152916E1
1.488522334E1,2.940168858E0,3.027744770E0,1.076825237E1
1.490553959E1,3.071844339E0,3.087597132E0,9.882434845E0
1.492585657E1,3.014385939E0,3.219272614E0,9.273137093E0
1.494617428E1,2.536763430E0,3.373692036E0,9.057667732E0
1.496648376E1,1.573138356E0,3.475441217E0,8.637503624E0
1.498678829E1,9.722196460E-1,3.414391756E0,7.847451687E0
1.500709517E1,7.543566227E-1,3.263563395E0,7.150769234E0
1.502740314E1,8.561058044E-1,3.155829191E0,6.752151489E0
1.504770798E1,8.848350048E-1,3.066050529E0,6.551046848E0
1.506801027E1,1.000948787E0,2.890084267E0,6.816792011E0
1.508831037E1,1.413930774E0,2.846990347E0,6.658781528E0
1.510864043E1,1.800577760E0,2.985847950E0,5.929778576E0
1.512896517E1,1.755089879E0,3.321022034E0,5.705930233E0
1.514925277E1,1.556379676E0,3.802235603E0,6.668357849E0
1.516953881E1,1.435477734E0,4.242750168E0,8.098832130E0
1.518982480E1,1.568350077E0,4.503706932E0,9.455088615E0
1.521011110E1,1.099106789E0,4.905915737E0,1.039836407E1
1.523039704E1,5.819814801E-1,5.560701847E0,1.105315018E1
1.525068277E1,9.698255062E-1,5.786943913E0,1.092386818E1
1.527096704E1,1.133821249E0,5.980865479E0,1.110581970E1
1.529124975E1,8.728644848E-1,6.545873165E0,1.161217213E1
1.531153131E1,5.209320188E-1,6.978008270E0,1.139789963E1
1.533181209E1,1.689994633E-1,7.757287025E0,1.033372307E1
1.535209220E1,-1.721595973E-1,8.208574295E0,8.580045700E0
1.537237235E1,-4.726189971E-1,7.696237564E0,7.262094498E0
1.539265662E1,-1.060370326E0,6.512355804E0,7.429681778E0
1.541294011E1,-1.607421756E0,5.099837780E0,8.553710938E0
1.543321808E1,-1.599042535E0,4.419913292E0,9.925529480E0
1.545349579E1,-1.435046792E0,4.179306507E0,1.103878498E1
1.547373730E1,-9.310888648E-1,4.146986008E0,9.543669701E0
1.549376511E1,-3.624904752E-1,3.974611044E0,7.038246155E0
1.551365407E1,-2.128592879E-1,3.919546604E0,5.988433838E0
1.553352850E1,-2.487707585E-1,3.942290545E0,6.202705383E0
1.555337787E1,-6.952701807E-1,4.149380207E0,6.703072548E0
1.557326699E1,-1.151346087E0,4.532436371E0,6.777289391E0
1.559313871E1,-9.849560857E-1,4.542012691E0,6.166793823E0
1.561301058E1,-7.311816812E-1,4.208035469E0,5.425820351E0
1.563290590E1,-9.729855657E-1,4.105089188E0,5.787329674E0
1.565277652E1,-1.184863448E0,3.972216606E0,6.345154762E0
1.567263897E1,-1.360829711E0,3.869270563E0,6.913753033E0
1.569257173E1,-1.071143627E0,3.897999763E0,6.353534222E0
1.571238751E1,-8.844040036E-1,4.194868088E0,5.394697666E0
1.573228829E1,-7.802606821E-1,4.641367912E0,4.536413193E0
1.575221985E1,-6.078855395E-1,4.761072636E0,5.282174587E0
1.577200699E1,-1.781448573E-1,4.403154850E0,8.558499336E0
1.579189334E1,-1.446274668E-1,4.366046429E0,1.183961105E1
1.581177933E1,-4.187517166E-1,5.512819767E0,1.186355209E1
1.583164230E1,-4.642395973E-1,7.077363014E0,9.207300186E0
1.585150376E1,-4.690278769E-1,8.312718391E0,7.338705540E0
1.587159605E1,-8.808128238E-1,8.555719376E0,7.512277603E0
1.589189251E1,-1.770220518E0,8.062534332E0,1.101963234E1
1.591217022E1,-1.639742136E0,8.092460632E0,1.101125336E1
1.593244329E1,-8.269456029E-1,8.227727890E0,1.071558189E1
1.595271319E1,-9.554843605E-2,7.707011223E0,9.875252724E0
1.597298350E1,3.485568762E-1,7.013919830E0,8.910430908E0
1.599325371E1,3.988329172E-1,5.892284393E0,9.526911736E0
1.601354616E1,5.807844400E-1,4.142197609E0,1.197368145E1
1.603383714E1,1.272678971E0,2.712920666E0,1.365433788E1
1.605410449E1,1.884371161E0,2.311909437E0,1.272183704E1
1.607437241E1,1.621020317E0,2.838610888E0,1.062699986E1
1.609463871E1,9.327170253E-1,3.435938597E0,9.161811829E0
1.611490522E1,5.831785798E-1,3.577190399E0,8.313103676E0
1.613517423E1,4.790352583E-1,3.408406496E0,7.433272362E0
1.615544991E1,2.587781549E-1,3.040912390E0,7.361449718E0
1.617572569E1,-6.966792047E-3,2.700950146E0,7.568539143E0
1.619599522E1,-3.349583149E-1,2.794320107E0,7.318355560E0
1.621626636E1,-5.420478582E-1,3.338977814E0,6.557032585E0
1.623653678E1,-3.612934351E-1,3.729215622E0,5.599392891E0
1.625680496E1,-8.163839579E-3,3.850117683E0,5.387515068E0
1.627707314E1,1.099106789E0,4.217612267E0,6.269740582E0
1.629734162E1,1.756286979E0,4.515676975E0,7.207029819E0
1.631761064E1,1.245146871E0,4.544406891E0,7.614027023E0
1.633787959E1,8.692733645E-1,4.787407875E0,7.904910088E0
1.635814808E1,6.633808613E-1,4.719175816E0,8.331059456E0
1.637841673E1,3.341922760E-1,4.656929016E0,9.778291702E0
1.639868553E1,-1.877212673E-1,4.796984196E0,1.041751671E1
1.641895423E1,-3.636875153E-1,5.394311905E0,9.610705376E0
1.643922642E1,-4.905747175E-1,5.919816017E0,8.730874062E0
1.645950282E1,-6.844967604E-1,6.052688599E0,8.812273026E0
1.647977537E1,-4.367074966E-1,5.593021870E0,1.002727795E1
1.650004345E1,3.253584355E-2,4.925068378E0,1.136198807E1
1.652031168E1,1.833640635E-1,4.537224293E0,1.178095627E1
1.654058048E1,2.336401343E-1,4.892748356E0,1.140627861E1
1.656084918E1,2.204725891E-1,5.618159771E0,1.066769981E1
1.658111777E1,2.396253794E-1,6.410606861E0,1.000453377E1
1.660138647E1,-4.283281565E-1,6.659592628E0,1.007875156E1
1.662165449E1,-1.321327090E0,6.328010082E0,1.077543449E1
1.664192267E1,-2.113773584E0,5.424237728E0,1.142662907E1
1.666219506E1,-2.192778826E0,4.514480114E0,1.155471325E1
1.668246402E1,-1.306962371E0,3.810615301E0,1.103279972E1
1.670272871E1,-3.804461956E-1,3.640634060E0,9.716046333E0
1.672299673E1,-1.913124174E-1,3.973413706E0,8.088058472E0
1.674326543E1,-5.803534389E-1,4.728752136E0,6.932906151E0
1.676353600E1,-8.592659235E-1,5.265030384E0,6.160809040E0
1.678380610E1,-7.239993811E-1,5.203980923E0,5.752614975E0
1.680407438E1,-2.320120782E-1,4.716781616E0,5.776556015E0
1.682434246E1,3.892565370E-1,4.123044968E0,6.167991161E0
1.684461360E1,7.172480822E-1,3.670560122E0,6.985576153E0
1.686484980E1,1.012919188E0,3.440726995E0,6.687510490E0
1.688508355E1,1.218599826E-2,3.797447443E0,6.373883724E0
1.690535282E1,2.415648848E-2,3.653801680E0,6.861083031E0
1.692562173E1,2.515958548E-1,3.384465456E0,7.098098755E0
1.694589017E1,4.933998585E-1,3.163011551E0,6.582170486E0
1.696616032E1,2.468076646E-1,3.767521143E0,5.839999676E0
1.698643407E1,-5.408508182E-1,5.147719860E0,5.155287743E0
1.700670709E1,-5.671858788E-1,6.003609657E0,5.449761391E0
1.702698079E1,-5.312744379E-1,6.147255898E0,6.428947926E0
1.704725683E1,-1.898304820E0,6.739795208E0,9.890814781E0
1.706751819E1,-4.264871597E0,8.671833038E0,1.210415936E1
1.708777923E1,-3.283290863E0,8.978277206E0,1.052644825E1
1.710805449E1,-1.888728380E0,8.450378418E0,8.151501656E0
1.712832668E1,-5.006057024E-2,8.749641418E0,7.782811165E0
1.714859564E1,5.951490402E-1,7.296423435E0,8.048556328E0
1.716886464E1,6.418340206E-1,6.797253609E0,9.944682121E0
1.718913319E1,4.515030980E-1,5.530775070E0,1.266198444E1
1.720940480E1,1.111077309E0,4.958585739E0,1.248482132E1
1.722967569E1,1.288240552E0,4.466598034E0,1.069523239E1
1.724994459E1,8.872290850E-1,3.973413706E0,9.820189476E0
1.727020579E1,5.149467587E-1,3.561628819E0,1.078979874E1
1.729046657E1,2.563840747E-1,2.923601389E0,1.138473225E1
1.731073647E1,6.200745702E-3,2.760802746E0,1.050011349E1
1.733102157E1,5.281142592E-1,2.595609903E0,8.886489868E0
1.735130569E1,-8.163839579E-3,3.122311831E0,9.488606453E0
1.737157564E1,-4.391016364E-1,3.603525400E0,1.052884197E1
1.739184954E1,1.809699535E-1,3.089991570E0,1.038519573E1
1.741212220E1,1.154171109E0,2.453161240E0,9.838145256E0
1.743238907E1,1.176914930E0,2.201780796E0,9.030136108E0
1.745265386E1,2.755368352E-1,2.548924923E0,8.410064697E0
1.747291183E1,-5.492300987E-1,2.698556185E0,8.448369980E0
1.749317256E1,-8.401131034E-1,2.632718563E0,8.309512138E0
1.751344298E1,-5.444419384E-1,2.395702600E0,7.390178680E0
1.753371303E1,-6.030973792E-1,2.508225441E0,7.026275635E0
1.755398798E1,-1.075931907E0,2.790729046E0,7.517066002E0
1.757426204E1,-1.153740168E0,2.902054787E0,7.807949066E0
1.759452975E1,-1.097478747E0,3.318627596E0,7.742111206E0
1.761479642E1,-7.862459421E-1,3.480229378E0,7.265685558E0
1.763506496E1,-7.838518023E-1,3.893211365E0,7.076551437E0
1.765533777E1,-9.119361043E-1,4.360061169E0,7.424892902E0
1.767560090E1,-7.467433214E-1,4.559967995E0,7.921668530E0
1.769586277E1,-4.163576961E-1,4.330134869E0,8.704539299E0
1.771613954E1,-1.769478172E-1,4.158956528E0,8.933175087E0
1.773641574E1,-4.486780167E-1,4.306193829E0,8.630322456E0
1.775668683E1,-9.658033252E-1,4.616229534E0,8.534558296E0
1.777695782E1,-1.479337573E0,4.873595238E0,8.663839340E0
1.779722923E1,-1.366814971E0,4.828107357E0,8.620744705E0
1.781750121E1,-8.796157837E-1,4.592288494E0,8.641095161E0
1.783777199E1,-2.978497744E-1,4.278661728E0,8.548921585E0
1.785804209E1,-3.110173345E-1,4.421110630E0,7.922865391E0
1.787831787E1,-1.104661226E0,5.147719860E0,7.481154442E0
1.789846939E1,-1.794161558E0,5.784549713E0,7.095704556E0
1.791834475E1,-2.147290945E0,5.845599174E0,6.901782513E0
1.793821928E1,-2.110182524E0,5.630130291E0,7.423696041E0
1.795816642E1,-2.089832783E0,5.524790287E0,7.779219627E0
1.797803782E1,-2.220310926E0,5.650480270E0,8.260433197E0
1.799787845E1,-2.226296186E0,5.747441292E0,8.659050941E0
1.801775631E1,-2.490844250E0,5.964107037E0,8.444779396E0
1.803767876E1,-2.679977894E0,6.199925900E0,7.920471668E0
1.805754657E1,-2.665613413E0,6.216684818E0,6.938890934E0
1.807742194E1,-2.469297171E0,6.165211678E0,7.223789215E0
1.809726741E1,-2.541120291E0,6.080220699E0,8.000674248E0
1.811705037E1,-2.662022114E0,6.148452759E0,9.161811829E0
1.813710855E1,-2.786515474E0,6.347163200E0,8.954722404E0
1.815740402E1,-2.911008358E0,6.555449486E0,6.863477230E0
1.817767064E1,-2.930161238E0,6.384271622E0,7.998279572E0
1.821534916E1,-2.289739847E0,7.147989273E0,7.848648548E0
1.821534916E1,-1.423076272E0,6.499188423E0,9.409601212E0
1.821534916E1,-9.227095246E-1,6.609316826E0,7.586494446E0
1.821534916E1,-6.761173606E-1,7.037860394E0,6.219464779E0
1.821534916E1,-1.031641006E0,6.707474709E0,7.774431705E0
1.821534916E1,-1.044808626E0,6.098176479E0,8.800303459E0
1.822044387E1,-7.826548219E-1,5.682800770E0,8.697357178E0
1.824012908E1,-4.845895171E-1,6.032339096E0,8.338241577E0
1.825999715E1,-4.271311164E-1,6.544676304E0,7.564948082E0
1.828005028E1,-2.391943783E-1,6.695504189E0,6.669555187E0
1.829992647E1,-1.182923764E-1,6.670366287E0,6.632446766E0
1.831980116E1,-5.001510978E-1,6.606922626E0,7.545794964E0
1.833968757E1,-2.403914183E-1,6.073038578E0,8.006659508E0
1.835956397E1,-2.918645144E-1,5.958121777E0,7.871392727E0
1.837942283E1,-5.995062590E-1,6.062265396E0,7.671484947E0
1.839930371E1,-7.120288610E-1,6.177181721E0,7.511080742E0
1.841916517E1,-8.508865833E-1,6.527917385E0,7.551780701E0
1.843923486E1,-8.425072432E-1,6.733809471E0,6.985576153E0
1.845952710E1,-7.527285218E-1,6.617696285E0,5.602983952E0
1.847980705E1,-9.203154445E-1,6.555449486E0,5.771768093E0
1.850008663E1,-1.242776215E-1,5.973683834E0,7.052610397E0
1.852036205E1,6.801396012E-1,5.267424107E0,8.260433197E0
1.854063653E1,-1.485322833E0,6.168802738E0,9.804627419E0
1.856091184E1,-7.192111611E-1,6.228655338E0,8.339439392E0
1.858118710E1,-2.236327082E-1,6.207108021E0,7.465592384E0
1.860145939E1,-2.834851742E-1,6.407015324E0,7.503898621E0
1.862173179E1,-2.846822739E-1,6.769721031E0,7.526642323E0
1.864200554E1,-2.731662989E-2,7.019904613E0,7.555371761E0
1.866227850E1,1.318909377E-1,6.961249352E0,7.535021305E0
1.868255252E1,4.203798175E-1,6.681139469E0,7.610435486E0
1.870282684E1,1.749847233E-1,6.664381027E0,8.036585808E0
1.872310350E1,-5.216979980E-1,6.924140930E0,8.448369980E0
1.874338356E1,-5.995062590E-1,7.098910332E0,8.430415154E0
1.876366377E1,-4.646942019E-2,6.867879391E0,8.235295296E0
1.878393975E1,3.772860765E-1,6.572208405E0,8.570468903E0
1.880421236E1,-3.449892998E-2,6.490808487E0,1.004643059E1
1.882448502E1,-2.320120782E-1,6.950475693E0,1.150084591E1
1.884475491E1,-3.074262142E-1,7.455630779E0,1.064615345E1
1.886502533E1,-4.067812562E-1,7.665114403E0,8.994225502E0
1.888529731E1,-4.845895171E-1,7.282058716E0,8.152699471E0
1.890556845E1,-5.791563392E-1,6.343571663E0,8.766784668E0
1.892583809E1,-9.897443652E-1,5.004073620E0,1.081733131E1
1.894610720E1,-1.334494591E0,3.903985023E0,1.261769295E1
1.896637882E1,-1.186060429E0,3.757945061E0,1.264163399E1
1.898665142E1,-9.969266057E-1,3.888423204E0,1.127221012E1
1.900692335E1,-6.557675600E-1,3.839344263E0,9.851311684E0
1.902719757E1,-3.948107958E-1,3.575993538E0,9.061260223E0
1.904747095E1,-6.366147399E-1,3.664574862E0,8.425625801E0
1.906774194E1,-1.017276525E0,3.949472666E0,7.639164925E0
1.908801319E1,-1.194439769E0,4.302602768E0,6.941285133E0
1.910829850E1,-9.035567641E-1,4.615032673E0,6.414583683E0
1.912858689E1,-4.510720968E-1,4.453430653E0,6.984378815E0
1.914886345E1,-2.068740278E-1,4.182897568E0,7.605647564E0
1.916914022E1,-3.529140949E-1,4.252326488E0,8.044964790E0
1.918941658E1,-6.880878806E-1,4.395972252E0,8.015038490E0
1.920969215E1,-7.646990418E-1,4.373228550E0,7.527839661E0
1.922996402E1,-5.767623186E-1,4.085936546E0,7.548189163E0
1.925023606E1,-1.721595973E-1,3.765127182E0,8.228113174E0
1.927051147E1,-2.851366997E-2,3.817797422E0,8.787135124E0
1.929078778E1,1.306938827E-1,4.187685966E0,8.782346725E0
1.931106397E1,9.238830209E-2,4.428292751E0,7.482351303E0
1.933133861E1,-3.375642002E-3,4.703614235E0,7.052610397E0
1.935161153E1,-5.843991041E-2,4.864018917E0,8.034191132E0
1.937188080E1,-3.210483491E-2,4.837683678E0,9.273137093E0
1.939214798E1,-2.008887976E-1,5.014847279E0,9.555641174E0
1.941241882E1,-1.613861471E-1,5.177645683E0,8.517799377E0
1.943256699E1,3.222217858E-1,5.520001888E0,8.248462677E0
1.945258673E1,5.233260989E-1,5.842008114E0,8.896066666E0
1.947244725E1,5.867697001E-1,5.919816017E0,9.100762367E0
1.949232272E1,6.382428408E-1,5.885101795E0,8.996619225E0
1.951220377E1,5.867697001E-1,5.912634373E0,9.341368675E0
1.953200850E1,7.100658417E-1,5.846796036E0,9.842932701E0
1.955195397E1,9.841900468E-1,5.620553970E0,1.013142204E1
1.957188991E1,1.154171109E0,5.739061832E0,9.917150497E0
1.959173632E1,1.272678971E0,5.802505493E0,9.145052910E0
1.961160913E1,1.124244809E0,5.936575413E0,8.783543587E0
1.963147757E1,6.538044214E-1,6.172393799E0,9.352143288E0
1.965128126E1,8.130120635E-1,5.808490753E0,1.012304211E1
1.967117074E1,1.350487232E0,5.117793083E0,1.026908207E1
1.969109725E1,1.289437532E0,4.799378395E0,1.003685474E1
1.971095085E1,8.142091036E-1,4.627003193E0,9.884830475E0
1.973075095E1,7.747064233E-1,4.217612267E0,9.559231758E0
1.975054679E1,1.164944410E0,3.906378984E0,9.131884575E0
1.977050345E1,1.358866453E0,3.645422220E0,8.526178360E0
1.979047106E1,9.339140058E-1,3.550855398E0,8.054540634E0
1.981026168E1,3.353893161E-1,3.820191383E0,7.836678028E0
1.983014283E1,5.288567767E-2,4.079951286E0,7.457213402E0
1.985001205E1,1.330879927E-1,3.917152405E0,7.458410740E0
1.986980496E1,5.424788594E-1,3.682530642E0,7.614027023E0
1.988969038E1,7.986474633E-1,3.693304300E0,7.890545368E0
1.990957913E1,7.435832024E-1,3.796250582E0,7.810343266E0
1.992951095E1,4.072122574E-1,4.057207108E0,7.299202919E0
1.994937673E1,3.389804959E-1,4.363652229E0,7.021487713E0
1.996929595E1,6.262723804E-1,4.284646988E0,6.760530472E0
1.998922720E1,1.065589428E0,4.230779648E0,6.849112511E0
2.000906434E1,1.187688470E0,4.401957512E0,7.107675076E0
2.002893918E1,9.470815659E-1,4.823319435E0,7.142389774E0
2.004866210E1,4.299561977E-1,5.239892006E0,7.008319855E0
2.006860017E1,2.300489843E-1,5.518804550E0,6.902979374E0
2.008860934E1,3.916506767E-1,5.394311905E0,6.978393555E0
2.010841595E1,5.412818193E-1,5.201586723E0,8.016235352E0
2.012822934E1,6.023313403E-1,5.022029400E0,8.663839340E0
2.014802970E1,5.233260989E-1,5.013650417E0,8.572862625E0
2.016788913E1,3.006749153E-1,5.291365147E0,8.259236336E0
2.018784679E1,3.150395155E-1,5.567883492E0,8.180231094E0
2.020772017E1,6.502133012E-1,5.485287189E0,8.222127914E0
2.022752064E1,8.058297634E-1,5.312911987E0,8.302330971E0
2.024732074E1,7.687212229E-1,5.340444088E0,8.712918282E0
2.026734892E1,6.071195006E-1,5.476908207E0,9.061260223E0
2.028729402E1,3.317981958E-1,5.573869228E0,8.936765671E0
2.030706996E1,5.647682399E-2,5.814476013E0,8.592016220E0
2.032723324E1,-6.966792047E-3,6.175984859E0,8.654263496E0
2.034752205E1,3.760889769E-1,6.427365303E0,9.568807602E0
2.036779095E1,-1.494156867E-1,6.945687771E0,9.894406319E0
2.038805658E1,-8.496895432E-1,7.383807659E0,9.639433861E0
2.040831830E1,-1.046005726E0,7.564562321E0,9.590354919E0
2.042856965E1,-7.251964211E-1,7.151580334E0,1.018409157E1
2.044882100E1,-9.315434098E-2,6.636848927E0,1.053003883E1
2.046908205E1,6.964436918E-2,6.245413780E0,1.025830936E1
2.048934710E1,-3.014409542E-1,5.956924915E0,9.774701118E0
2.050961429E1,-1.097478747E0,5.648086071E0,9.565217018E0
2.052988522E1,-1.218380809E0,5.211163044E0,1.005720520E1
2.055015913E1,-6.617528200E-1,4.561165333E0,1.034449577E1
2.057042585E1,-6.928760409E-1,4.282252789E0,1.001291370E1
2.059068804E1,-1.078326106E0,4.378016472E0,9.159418106E0
2.061095111E1,-1.182469249E0,4.482160091E0,8.192201614E0
2.063120569E1,-1.047202826E0,4.477371693E0,7.603253365E0
2.065146116E1,-8.245514631E-1,4.401957512E0,7.379405022E0
2.067172720E1,-4.187517166E-1,4.451036930E0,7.623603344E0
2.069199387E1,-8.956320584E-2,4.606653214E0,7.648741722E0
2.071226064E1,1.414673328E-1,4.629397392E0,7.126828194E0
2.073252684E1,2.324430943E-1,4.783816814E0,6.485209465E0
2.075279392E1,1.098895073E-2,5.062729359E0,5.970478058E0
2.077306163E1,-1.889182776E-1,5.224330902E0,5.877108097E0
2.079332887E1,-3.696727753E-1,5.310518265E0,6.167991161E0
2.081359694E1,-6.437970400E-1,5.491272926E0,6.687510490E0
2.083385642E1,-6.533734202E-1,5.545139790E0,6.814397812E0
2.085412022E1,-3.445346951E-1,5.366779804E0,6.759333611E0
2.087439345E1,-1.374451816E-1,5.203980923E0,6.797638893E0
2.089466246E1,-2.463766485E-1,5.408676147E0,6.498376846E0
2.091493137E1,-4.199488163E-1,5.826446533E0,6.140459061E0
2.093520022E1,-2.786970139E-1,5.988048077E0,5.873517036E0
2.095547064E1,-2.212386280E-1,6.004806519E0,6.159612179E0
2.097574231E1,-2.320120782E-1,6.052688599E0,6.984378815E0
2.099600986E1,-1.685684770E-1,6.171196938E0,7.673879623E0
2.101627548E1,-1.817360073E-1,6.150846481E0,8.185019493E0
2.103653491E1,-1.565979570E-1,6.217881680E0,8.198186874E0
2.105679892E1,-2.056769878E-1,6.409409523E0,8.076087952E0
2.107707569E1,-1.386422217E-1,6.642834187E0,7.959973812E0
2.109734517E1,-7.759270072E-2,6.754159927E0,7.694229126E0
2.111761455E1,-3.050320745E-1,7.131230354E0,7.823510647E0
2.113789314E1,-5.480331182E-1,7.619626045E0,8.394502640E0
2.115817147E1,-1.063218862E-1,7.264102936E0,9.101959229E0
2.117844350E1,5.652227998E-1,6.746977329E0,9.694499016E0
2.119871194E1,5.305083990E-1,6.755356789E0,1.049412823E1
2.121898038E1,2.731427550E-1,6.774509907E0,1.098611546E1
2.123925007E1,2.551870346E-1,6.861894131E0,1.051926613E1
2.125951611E1,3.808771968E-1,7.101304054E0,9.585567474E0
2.127977772E1,7.771005630E-1,7.024692535E0,8.783543587E0
2.130003965E1,1.327743173E0,6.420183182E0,8.852972984E0
2.132030173E1,1.786213040E0,5.759411812E0,9.542472839E0
2.134044616E1,1.812548161E0,5.340444088E0,1.009551048E1
2.136036465E1,1.589897037E0,4.983723640E0,1.006917477E1
2.138023715E1,1.357669473E0,4.761072636E0,9.282713890E0
2.140006684E1,1.216417551E0,4.679673195E0,8.474704742E0
2.142006059E1,1.385201573E0,4.599470615E0,7.992294312E0
2.144032689E1,1.749104619E0,4.178109169E0,7.752884388E0
2.146059650E1,1.361260533E0,4.448642731E0,7.884560108E0
2.148086932E1,8.489235044E-1,4.759875774E0,7.270473480E0
2.150114010E1,6.885188818E-1,5.004073620E0,6.554637909E0
2.152141166E1,7.615389228E-1,5.336853027E0,6.182355881E0
2.154168150E1,7.639330029E-1,5.557110310E0,6.063848019E0
2.156194827E1,6.346517205E-1,5.478105068E0,6.361913204E0
2.158221473E1,6.286664605E-1,5.212360382E0,7.107675076E0
2.160248140E1,8.249825239E-1,5.011255741E0,7.760066986E0
2.162275083E1,8.956084251E-1,4.995694160E0,7.591282845E0
2.164302202E1,9.506726861E-1,5.189616203E0,7.228577137E0
2.166329463E1,8.225884438E-1,5.545139790E0,6.703072548E0
2.168356859E1,6.370457411E-1,6.075432777E0,7.205832958E0
2.170384041E1,4.347444177E-1,6.423774242E0,7.706199646E0
2.172411286E1,3.492993116E-2,6.900199890E0,8.343029976E0
2.174439656E1,-6.442515552E-2,7.163550854E0,9.006195068E0
2.176467932E1,3.612697870E-2,7.320363998E0,9.153431892E0
2.178495275E1,-1.099130362E-1,7.339516640E0,8.941555023E0
2.180522416E1,8.520600945E-2,7.343108177E0,9.407207489E0
2.182549046E1,3.066601157E-1,7.210235596E0,1.070600510E1
2.184575833E1,2.216696441E-1,7.374231339E0,1.131530380E1
2.186602848E1,-3.241848946E-1,7.338319778E0,1.006199265E1
2.188629713E1,-8.006104827E-1,7.513089180E0,8.653065681E0
2.190656343E1,-1.101069927E0,7.529847622E0,8.141925812E0
2.192683135E1,-1.232745409E0,7.143200874E0,8.638701439E0
2.194710249E1,-1.160922408E0,6.356739044E0,9.506562233E0
2.196737041E1,-1.113040447E0,5.821658134E0,1.022000313E1
2.198763926E1,-1.364420772E0,5.525987148E0,1.030020618E1
2.200791057E1,-1.511657953E0,5.449375629E0,9.123505592E0
2.202818187E1,-1.682835937E0,5.572672367E0,7.818722725E0
2.204845379E1,-1.285415530E0,5.639706612E0,6.755742550E0
2.206872312E1,-9.514387250E-1,5.681603909E0,6.245799541E0
2.208899228E1,-9.801678061E-1,5.528381348E0,6.467253685E0
2.210926036E1,-8.975715041E-1,5.430222988E0,6.519923687E0
2.212952947E1,-7.228022814E-1,5.394311905E0,6.388248444E0
2.214980202E1,-7.108318210E-1,5.326079845E0,6.122503757E0
2.217007468E1,-7.958223224E-1,5.308124065E0,5.721491814E0
2.219034463E1,-5.959150791E-1,5.254256725E0,5.818452835E0
2.221061437E1,-3.684756756E-1,5.218345165E0,6.244602680E0
2.223088702E1,-2.547559738E-1,5.244680882E0,6.329593182E0
2.225115885E1,-2.068740278E-1,5.243483067E0,6.196720600E0
2.227142702E1,-2.372547984E-2,5.358400345E0,6.100956440E0
2.229169536E1,7.203846425E-2,5.528381348E0,6.006389618E0
2.231196603E1,-4.886351526E-2,5.705544472E0,5.753811836E0
2.233223676E1,-9.435139596E-2,5.974880695E0,5.348012447E0
2.235250827E1,-1.051248461E-1,6.216684818E0,5.237884045E0
2.237278025E1,-9.195730090E-2,6.294492722E0,5.495249748E0
2.239304984E1,-1.055794209E-2,6.420183182E0,5.486869812E0
2.241331650E1,-3.210483491E-2,6.703883648E0,5.353997707E0
2.243344338E1,-1.937064976E-1,6.866682053E0,5.488067150E0
2.245335728E1,-5.604581535E-2,7.034269333E0,6.181159019E0
2.247324307E1,2.647634149E-1,7.331137657E0,6.853900433E0
2.249306296E1,2.827191353E-1,7.758484364E0,6.992758274E0
2.251285557E1,-2.930616140E-1,8.292367935E0,7.433272362E0
2.253281244E1,-8.700393438E-1,8.659862518E0,8.437597275E0
2.255275734E1,-1.316538811E0,8.696970940E0,9.285107613E0
2.257255754E1,-1.414696932E0,8.714925766E0,1.001770210E1
2.259244473E1,-1.247110009E0,8.604798317E0,1.131650066E1
2.261236416E1,-4.414956570E-1,8.191816330E0,1.189228058E1
2.263220739E1,2.468076646E-1,7.867415905E0,1.071318817E1
2.265203942E1,1.091924548E0,7.679478645E0,9.177372932E0
2.267194359E1,1.636581898E0,7.399369240E0,8.146714211E0
2.269188859E1,1.472586155E0,6.481232643E0,7.965959549E0
2.271168853E1,1.054816008E0,5.564292908E0,9.622675896E0
2.273151645E1,1.106289148E0,4.992103100E0,1.131290913E1
2.275146614E1,1.184097290E0,4.789801598E0,1.092386818E1
2.277138874E1,1.054816008E0,4.834092617E0,9.431147575E0
2.279118843E1,8.860321045E-1,4.935841560E0,7.930047989E0
2.281106978E1,8.608940244E-1,4.816136837E0,7.355463982E0
2.283101603E1,9.446874261E-1,4.490539074E0,7.274065018E0
2.285085312E1,8.692733645E-1,4.427095890E0,7.326735020E0
2.287065416E1,6.202871203E-1,4.585106373E0,6.828762531E0
2.289050484E1,2.515958548E-1,4.694037914E0,5.829226494E0
2.291041973E1,-1.175498962E-2,4.935841560E0,5.292948246E0
2.293034051E1,2.575811148E-1,5.366779804E0,5.545525551E0
2.295024281E1,7.747064233E-1,5.515213490E0,6.018360138E0
2.297008958E1,1.114668489E0,5.310518265E0,6.087789059E0
2.298993807E1,1.173323870E0,5.354809284E0,6.164400101E0
2.300980926E1,7.735093832E-1,5.683997631E0,6.499574184E0
2.302963208E1,5.903608203E-1,5.771382332E0,7.011910915E0
2.304945734E1,6.753513813E-1,5.579854012E0,7.757673264E0
2.306933056E1,8.656821847E-1,5.697165012E0,8.624337196E0
2.308927666E1,6.226812005E-1,6.083812237E0,8.356197357E0
2.310914718E1,2.671574950E-1,6.511158466E0,7.780416489E0
2.312894687E1,-4.572689533E-3,6.976810932E0,7.545794964E0
2.314889202E1,-1.434304267E-1,7.370640278E0,8.114393234E0
2.316882379E1,9.957060218E-2,7.169535637E0,9.318625450E0
2.318864890E1,3.413745761E-1,6.847529888E0,1.047258091E1
2.320848947E1,6.909130216E-1,7.425704002E0,1.044504929E1
2.322839697E1,6.346517205E-1,8.339053154E0,9.079215050E0
2.324850004E1,-1.877212673E-1,8.280397415E0,7.058596134E0
2.326877156E1,-3.948107958E-1,7.156368256E0,8.653065681E0
2.328904265E1,-8.616600633E-1,6.165211678E0,1.070241451E1
2.330931025E1,-1.296189070E0,5.853978634E0,1.130931759E1
2.332958609E1,-1.512854934E0,6.335192680E0,9.981791496E0
2.334986197E1,-1.721141577E0,6.465670586E0,8.029402733E0
2.337013458E1,-1.390755892E0,6.047900677E0,7.141192436E0
2.339040666E1,-9.610151649E-1,5.236301422E0,7.349479198E0
2.341067286E1,-9.969266057E-1,4.558771133E0,8.824244499E0
2.343092864E1,-1.309356570E0,4.457022190E0,9.596341133E0
2.345118661E1,-1.358435512E0,4.694037914E0,8.392108917E0
2.347145520E1,-1.017276525E0,4.954994678E0,6.865870953E0
2.349172103E1,-6.569646001E-1,5.223133564E0,6.215873241E0
2.351198786E1,-7.156199813E-1,5.329671383E0,6.601323128E0
2.353225624E1,-6.904819608E-1,5.079487801E0,7.207029819E0
2.355252395E1,-7.994135022E-1,5.072305202E0,7.506292343E0
2.357279583E1,-1.085508347E0,5.273409843E0,7.159148216E0
2.359306812E1,-1.468564153E0,5.488878727E0,6.031527519E0
2.361333973E1,-1.409908652E0,5.666041851E0,5.254642487E0
2.363360072E1,-1.041217566E0,5.859963894E0,5.375544548E0
2.365385864E1,-8.053987622E-1,5.899466515E0,5.727477074E0
2.367413077E1,-6.270383596E-1,6.057476997E0,5.411456108E0
2.369440911E1,-5.923238993E-1,6.396242142E0,4.633374214E0
2.371468702E1,-7.527285218E-1,6.723036766E0,3.991755486E0
2.373495874E1,-5.480331182E-1,6.958855152E0,3.991755486E0
2.375522796E1,-2.727117538E-1,6.853514671E0,4.531624317E0
2.377549718E1,-1.613861471E-1,6.681139469E0,6.170385361E0
2.379576588E1,1.019646972E-1,7.131230354E0,7.350676060E0
2.381603447E1,2.192755342E-1,7.787213326E0,6.433735847E0
2.383629484E1,-3.265789747E-1,8.196603775E0,5.332450867E0
2.385655562E1,-9.674550593E-2,8.400102615E0,5.971674919E0
2.387682796E1,7.184451222E-1,8.182239532E0,8.499842644E0
2.389709968E1,1.004539967E0,7.115668774E0,1.195811939E1
2.391736770E1,7.375979424E-1,6.652410507E0,1.358251476E1
2.393763640E1,2.132903039E-1,6.943293571E0,1.232441616E1
2.395790536E1,2.539899647E-1,7.052225113E0,1.034808826E1
2.397818395E1,9.877812862E-1,6.563828468E0,9.919544220E0
2.399846270E1,1.964573503E0,5.737864494E0,1.080655766E1
2.401873098E1,2.367979288E0,4.659323215E0,1.187911415E1
2.403898978E1,2.085475445E0,4.054813385E0,1.239025402E1
2.405924963E1,1.932253242E0,4.143394947E0,1.174863529E1
2.407951978E1,1.334925413E0,4.533633232E0,9.926726341E0
2.409978973E1,6.861248016E-1,4.642564774E0,8.364577293E0
2.412005963E1,8.501206040E-1,4.217612267E0,7.737322807E0
2.414033249E1,9.303228855E-1,3.610707998E0,7.807949066E0
2.416060780E1,8.201943040E-1,3.420377016E0,7.666697025E0
2.418088057E1,1.118259549E0,4.065587044E0,7.081339836E0
2.420115025E1,9.734166265E-1,4.984920502E0,6.129685402E0
2.422141926E1,5.771933198E-1,5.359597206E0,5.515599728E0
2.424145718E1,7.771005630E-1,5.171660900E0,6.205100060E0
2.426149265E1,1.313378572E0,4.627003193E0,7.669091225E0
2.428153702E1,1.518074036E0,4.358863831E0,8.314301491E0
2.430139806E1,1.069180608E0,4.373228550E0,7.394967079E0
2.432128140E1,5.616316795E-1,4.711993694E0,6.148838520E0
2.434114150E1,6.777454615E-1,5.452967167E0,5.719097614E0
2.436108765E1,9.219434857E-1,6.015580177E0,5.537146091E0
2.438104697E1,9.805989265E-1,5.827643871E0,5.996812820E0
2.440089062E1,9.375051856E-1,5.557110310E0,7.264488697E0
2.442093494E1,1.040451407E0,5.882707596E0,8.325074196E0
2.444097525E1,1.016510367E0,6.462079525E0,8.343029976E0
2.446067088E1,8.525146842E-1,6.672760010E0,7.807949066E0
2.448037187E1,3.784831166E-1,6.872667789E0,7.953989029E0
2.450024213E1,2.288519442E-1,7.089333534E0,8.879307747E0
2.452002213E1,2.384283394E-1,6.910973072E0,9.639433861E0
2.453989171E1,5.101585388E-1,6.846332550E0,1.104596710E1
2.455980952E1,4.143946171E-1,6.852317810E0,1.168279839E1
2.457968281E1,4.215768576E-1,7.161156654E0,1.111898708E1
2.459952197E1,3.653155565E-1,7.503512859E0,1.030020618E1
2.461940536E1,-4.527238011E-2,7.344305038E0,9.330595970E0
2.463948213E1,-3.325642347E-1,6.909776211E0,8.668626785E0
2.465949093E1,-4.103724360E-1,6.450109005E0,9.058864594E0
2.467925843E1,-7.371669412E-1,5.856372833E0,9.761532784E0
2.469897734E1,-1.176483989E0,5.419449806E0,9.991367340E0
2.471882473E1,-1.615801215E0,5.298547745E0,9.590354919E0
2.473869598E1,-1.548766375E0,5.290168285E0,9.236028671E0
2.475856577E1,-1.085508347E0,4.907112598E0,8.644685745E0
2.477837051E1,-6.916790009E-1,4.439066410E0,8.220931053E0
2.479819874E1,-6.090826392E-1,4.451036930E0,8.143122673E0
2.481806083E1,-7.251964211E-1,4.659323215E0,7.791190147E0
2.483797989E1,-6.054914594E-1,4.819728374E0,7.057399273E0
2.485790176E1,-2.846822739E-1,4.848457336E0,6.615687370E0
2.487779432E1,-4.886351526E-2,4.822122097E0,6.794047832E0
2.489767973E1,-9.794254601E-2,4.854442120E0,7.453622341E0
2.491754072E1,-3.373523951E-1,4.928659439E0,7.615223885E0
2.493739900E1,-6.976642609E-1,5.189616203E0,6.919737816E0
2.495715254E1,-6.078855395E-1,5.347626686E0,6.237420082E0
2.497697468E1,-3.541110754E-1,5.300941467E0,6.342760563E0
2.499690583E1,-1.446274668E-1,5.220739841E0,6.612096310E0
2.501677739E1,-4.527238011E-2,5.235104084E0,6.426554203E0
2.503672426E1,1.223145425E-1,5.419449806E0,5.836408615E0
2.505665989E1,-4.048417509E-2,5.885101795E0,5.592210770E0
2.507648973E1,-1.996917576E-1,6.348360062E0,5.619742393E0
2.509633577E1,2.252607942E-1,6.509961605E0,5.181622505E0
2.511623473E1,4.658676982E-1,6.881047249E0,5.108602524E0
2.513613150E1,5.544493794E-1,7.522665024E0,5.861546516E0
2.515594119E1,4.203798175E-1,7.879386425E0,6.861083031E0
2.517582176E1,1.366791278E-1,8.188224792E0,7.211818695E0
2.519562968E1,2.535354346E-2,8.492275238E0,7.224986076E0
2.521543265E1,-3.086231947E-1,8.492275238E0,7.445242882E0
2.523542958E1,-5.695799589E-1,8.340250015E0,8.621941566E0
2.525528989E1,-5.815504789E-1,8.564098358E0,9.708863258E0
2.527508312E1,-1.625832170E-1,8.881316185E0,9.945878983E0
2.529494275E1,5.747992396E-1,8.621556282E0,8.601593018E0
2.531486895E1,1.459418654E0,8.237303734E0,8.507025719E0
2.533476338E1,1.992105603E0,7.612444401E0,9.289896011E0
2.535465989E1,1.395975113E0,6.885835171E0,1.008952522E1
2.537451968E1,5.927549601E-1,6.135285378E0,1.096576500E1
2.539433150E1,6.837307215E-1,5.607386112E0,1.132128906E1
2.541421452E1,1.194870710E0,5.414661884E0,1.021760941E1
2.543407301E1,1.267890692E0,5.287774086E0,8.594409943E0
2.545393338E1,1.336122632E0,5.006467819E0,7.535021305E0
2.547380192E1,1.512088776E0,4.691643715E0,7.099295616E0
2.549367166E1,1.599473476E0,4.504904270E0,6.968817711E0
2.551355442E1,1.333728433E0,4.326543808E0,7.125630379E0
2.553342473E1,8.477264643E-1,4.283450127E0,6.926920414E0
2.555330801E1,4.131975174E-1,4.422307491E0,6.324804306E0
2.557336557E1,1.725906134E-1,4.709599018E0,5.759797573E0
2.559323244E1,1.725906134E-1,4.921477318E0,5.179228306E0
2.561299447E1,1.817125082E-2,5.171660900E0,4.768640518E0
2.563280781E1,1.893492937E-1,5.557110310E0,4.902709961E0
2.565260723E1,5.472670794E-1,5.977274895E0,5.371953487E0
2.567252213E1,7.268245220E-1,6.162817001E0,5.774161816E0
2.569238687E1,4.024240971E-1,6.210699081E0,6.100956440E0
2.571220822E1,1.247086376E-1,6.399833202E0,6.419371605E0
2.573209421E1,7.922076434E-2,6.503976345E0,7.011910915E0
2.575199807E1,2.360342294E-1,6.466867924E0,7.108871937E0
2.577185650E1,2.372312844E-1,6.763736248E0,7.301597118E0
2.579171062E1,4.550942779E-1,6.955264091E0,7.755278587E0
2.581155775E1,8.932143450E-1,6.983993053E0,8.501040459E0
2.583144426E1,8.812438846E-1,7.152777195E0,8.783543587E0
2.585132629E1,7.172480822E-1,7.317970276E0,8.809879303E0
2.587120999E1,7.782976627E-1,7.517877102E0,9.343763351E0
2.589107978E1,9.853871465E-1,7.750104904E0,1.025352097E1
2.591095906E1,1.290634751E0,8.013455391E0,1.105913544E1
2.593087541E1,1.271481991E0,8.084081650E0,1.056595135E1
2.595082822E1,9.985547066E-1,8.394117355E0,9.716046333E0
2.597066333E1,7.802371681E-2,8.591630936E0,9.385660172E0
2.599043598E1,-6.761173606E-1,8.347433090E0,9.247999191E0
2.601036650E1,-1.077128887E0,7.669902802E0,9.336581230E0
2.603026531E1,-6.150678396E-1,6.509961605E0,9.632251740E0
2.605011963E1,2.851132751E-1,5.584642887E0,9.756745338E0
2.607000958E1,2.096991539E-1,5.370370865E0,9.022953987E0
2.608987932E1,-3.469288349E-1,5.407479286E0,8.339439392E0
2.610977838E1,-6.366147399E-1,5.402691364E0,8.102422714E0
2.612960650E1,-5.300773382E-1,5.028014660E0,7.823510647E0
2.614948057E1,3.014174104E-2,4.860427856E0,7.654726505E0
2.616935156E1,2.551870346E-1,4.975344181E0,7.106478214E0
2.618922103E1,2.599751949E-1,5.352414608E0,6.068635941E0
2.620913437E1,1.522407830E-1,5.600203991E0,5.040370464E0
2.622892900E1,1.989257038E-1,5.730682850E0,4.792581558E0
2.624880999E1,2.839162052E-1,5.649283409E0,4.802157879E0
2.626875041E1,2.396253794E-1,5.636115551E0,4.750685215E0
2.628859749E1,-1.470215768E-1,5.819264412E0,4.835675716E0
2.630846848E1,-3.385494947E-1,5.785746574E0,4.814128399E0
2.632834791E1,-1.817360073E-1,5.565489769E0,4.793778419E0
2.634814739E1,2.894469351E-2,5.551125050E0,5.012838364E0
2.636798937E1,1.689994633E-1,5.670830250E0,5.653260231E0
2.638786234E1,1.905463636E-1,5.985654354E0,5.950128078E0
2.640771833E1,1.881522536E-1,6.434547901E0,5.545525551E0
2.642759786E1,1.905463636E-1,7.062998772E0,5.203169346E0
2.644767895E1,1.199204400E-1,7.504709721E0,7.506292343E0
2.646794515E1,7.443256676E-2,7.533438683E0,8.577651978E0
2.648821150E1,-1.206864864E-1,8.025425911E0,9.103156090E0
2.650847916E1,-4.067812562E-1,8.679015160E0,9.110339165E0
2.652874713E1,-8.484925032E-1,8.554522514E0,9.151038170E0
2.654901754E1,-6.090826392E-1,8.175057411E0,1.029062939E1
2.656928770E1,1.354820877E-1,7.963179588E0,1.180848789E1
2.658955416E1,1.821670234E-1,7.871006489E0,1.133325863E1
2.660982369E1,-2.176474780E-1,7.787213326E0,9.856100082E0
2.663008254E1,-2.499678284E-1,7.873400688E0,9.036122322E0
2.665033937E1,2.420194745E-1,7.132427216E0,8.764390945E0
2.667060760E1,9.434904456E-1,5.974880695E0,9.338974953E0
2.669087603E1,1.679675698E0,4.938235760E0,1.000573158E1
2.671114494E1,2.001682043E0,4.527647495E0,1.010987473E1
2.673141260E1,1.617429256E0,4.780225277E0,9.098367691E0
2.675167739E1,1.111077309E0,5.129763603E0,7.751687527E0
2.677194098E1,8.884261250E-1,5.113005161E0,7.311173439E0
2.679221004E1,6.346517205E-1,4.976541042E0,7.416513443E0
2.681248426E1,6.023313403E-1,4.910703659E0,7.160345078E0
2.683274468E1,6.166959405E-1,4.995694160E0,6.561820507E0
2.685300171E1,4.969909787E-1,5.126172543E0,6.203902721E0
2.687327281E1,3.294040561E-1,5.376355648E0,6.196720600E0
2.689354812E1,3.856654167E-1,5.420646667E0,6.100956440E0
2.691382327E1,7.340067625E-1,5.247074604E0,6.530696869E0
2.693409541E1,1.087136269E0,5.227921486E0,6.324804306E0
2.695439228E1,1.143397689E0,5.424237728E0,5.692762375E0
2.697468656E1,9.901753068E-1,5.722303391E0,5.593407631E0
2.699496208E1,8.884261250E-1,5.867146015E0,6.017163277E0
2.701524083E1,9.746137261E-1,5.603795052E0,6.863477230E0
2.703549879E1,1.215220571E0,5.324882507E0,7.562553406E0
2.705575364E1,1.435477734E0,5.515213490E0,7.388981342E0
2.707601874E1,1.337319613E0,5.971289635E0,6.343957424E0
2.709628374E1,1.233176351E0,6.080220699E0,5.540737629E0
2.711654895E1,9.794018865E-1,6.149649620E0,6.075818539E0
2.713681812E1,6.514104009E-1,6.335192680E0,7.600859642E0
2.715709025E1,5.939520001E-1,6.518341064E0,8.929584503E0
2.717738812E1,1.179309130E0,6.635651588E0,8.386123657E0
2.719768124E1,1.024889708E0,6.899002552E0,7.538612843E0
2.721794661E1,4.383355379E-1,7.382610798E0,7.672682762E0
2.723820265E1,3.222217858E-1,7.820730686E0,8.031797409E0
2.725846411E1,3.820742369E-1,7.717784882E0,8.898461342E0
2.727873817E1,7.603418827E-1,7.544212341E0,1.038519573E1
2.729900702E1,6.861248016E-1,7.630399704E0,1.074909878E1
2.731927301E1,5.712080598E-1,8.148721695E0,9.777094841E0
2.733953900E1,2.037138939E-1,8.856178284E0,8.881702423E0
2.735980458E1,-4.510720968E-1,9.017780304E0,8.624337196E0
2.738007083E1,-7.323786616E-1,8.261244774E0,8.878110886E0
2.740033728E1,-8.329308629E-1,7.200659275E0,9.760335922E0
2.742060327E1,-1.129799128E0,6.299281120E0,1.019366837E1
2.744087395E1,-1.399135351E0,5.342838764E0,1.043666935E1
2.746093504E1,-1.672062516E0,4.774240017E0,1.083169651E1
2.748075254E1,-1.892319560E0,4.653338432E0,1.064136505E1
2.750067296E1,-1.658894897E0,4.649746895E0,9.298274994E0
2.752073171E1,-1.554751635E0,4.542012691E0,7.851042747E0
2.754057781E1,-1.457790613E0,4.494130611E0,7.013108253E0
2.756033994E1,-1.207607269E0,4.627003193E0,6.840733051E0
2.758014749E1,-9.179213643E-1,4.792195797E0,6.834747314E0
2.760009072E1,-5.372596979E-1,4.678476334E0,6.462465763E0
2.761996900E1,-3.995989561E-1,4.598273754E0,6.202705383E0
2.763992801E1,-6.138707995E-1,4.741919518E0,6.009980679E0
2.765985468E1,-8.927833438E-1,4.956191540E0,5.847182274E0
2.767954260E1,-1.103464007E0,5.047167301E0,5.665230751E0
2.769934353E1,-1.024458766E0,4.837683678E0,5.796905994E0
2.771922692E1,-8.568718433E-1,4.752693176E0,6.422962666E0
2.773910937E1,-9.454534650E-1,4.871201038E0,6.822777271E0
2.775898103E1,-9.705914855E-1,4.968162060E0,6.308045864E0
2.777892254E1,-9.370741248E-1,5.148916721E0,5.417441368E0
2.779886051E1,-1.016079426E0,5.658859730E0,5.071494102E0
2.781866348E1,-1.007700205E0,5.845599174E0,5.308509827E0
2.783843791E1,-6.162649393E-1,5.584642887E0,5.783738613E0
2.785837557E1,-3.181996346E-1,5.499652386E0,6.159612179E0
2.787828906E1,-2.224356979E-1,6.057476997E0,6.456480026E0
2.789816202E1,-4.079783559E-1,6.644031048E0,6.822777271E0
2.791803187E1,-5.827475786E-1,6.852317810E0,6.767713070E0
2.793790447E1,-5.365172029E-2,7.147989273E0,7.676273346E0
2.795772682E1,5.472670794E-1,7.492739201E0,9.750760078E0
2.797757661E1,4.323503375E-1,7.571744919E0,1.156668377E1
2.799737723E1,2.910984755E-1,7.292832375E0,1.264522457E1
2.801727442E1,6.442281008E-1,7.340713501E0,1.298877907E1
2.803719629E1,7.148540020E-1,7.490345001E0,1.284872437E1
2.805699619E1,8.501206040E-1,7.193476677E0,1.259016132E1
2.807687541E1,1.537226796E0,6.142467499E0,1.282238865E1
2.809681609E1,2.026820183E0,4.937038898E0,1.281161499E1
2.811665624E1,2.418255329E0,4.264297009E0,1.175222683E1
2.813645973E1,2.236303806E0,3.961443186E0,1.039118099E1
2.815639156E1,1.969361663E0,3.810615301E0,9.537685394E0
2.817626150E1,1.989711523E0,3.678939819E0,9.043304443E0
2.819609650E1,2.158495665E0,3.538884878E0,8.931978226E0
2.821598150E1,2.108219624E0,3.443120956E0,8.830228806E0
2.823607739E1,1.751498699E0,3.250396013E0,8.283177376E0
2.825600452E1,1.647355437E0,3.244410753E0,7.649938583E0
2.827572603E1,1.369639993E0,3.287504435E0,7.166330338E0
2.829560228E1,1.162550449E0,3.051685810E0,7.331522942E0
2.831544895E1,1.222402811E0,3.007395029E0,7.890545368E0
2.833532947E1,1.303802252E0,3.294686794E0,8.019826889E0
2.835521515E1,1.215220571E0,3.548461199E0,7.239350319E0
2.837501103E1,8.405442238E-1,3.817797422E0,6.484012604E0
2.839493838E1,1.051224828E0,4.072769165E0,6.592944145E0
2.841483739E1,1.655734658E0,4.150577545E0,7.197453499E0
2.843465458E1,1.895144582E0,4.149380207E0,7.853436470E0
2.845455510E1,1.744316459E0,4.220005989E0,7.702608585E0
2.847435395E1,1.392383814E0,4.623411655E0,7.117251396E0
2.849415333E1,1.011722207E0,5.014847279E0,7.047822475E0
2.851407083E1,8.261795640E-1,5.006467819E0,7.563751221E0
2.853401614E1,7.782976627E-1,4.728752136E0,8.247265816E0
2.855393004E1,5.879667401E-1,4.881974697E0,8.841002464E0
2.857403770E1,2.887043953E-1,5.091458321E0,8.596803665E0
2.859432749E1,2.096991539E-1,5.443390846E0,8.029402733E0
2.861459057E1,5.831785798E-1,5.733076572E0,8.428020477E0
2.863485338E1,7.962533236E-1,5.802505493E0,8.626730919E0
2.865511999E1,6.873219013E-1,5.748638153E0,8.436400414E0
2.867538624E1,1.977286637E-1,5.582248211E0,8.134743690E0
2.869565051E1,-1.446274668E-1,5.760608673E0,7.968353748E0
2.871591984E1,-2.930616140E-1,5.741456032E0,8.017432213E0
2.873618734E1,-1.841300875E-1,5.742653370E0,8.120379448E0
2.875645056E1,7.084141672E-2,5.801308155E0,7.892939568E0
2.877671645E1,1.378761828E-1,5.563095570E0,7.664302826E0
2.879698374E1,7.922076434E-2,5.248271465E0,8.012644768E0
2.881724916E1,2.707486749E-1,4.992103100E0,8.577651978E0
2.883751666E1,3.916506767E-1,4.868807316E0,8.456749916E0
2.885778728E1,1.761817634E-1,4.914294720E0,8.216142654E0
2.887805781E1,1.151322424E-1,4.984920502E0,7.958776951E0
2.889832614E1,-1.774023473E-2,4.893945217E0,7.096901417E0
2.891859150E1,-4.211458564E-1,4.874792099E0,7.027472496E0
2.893886103E1,-4.211458564E-1,4.576726913E0,8.071299553E0
2.895913124E1,2.001227438E-1,4.023690224E0,8.309512138E0
2.897939635E1,7.866769433E-1,3.701683760E0,7.487139702E0
2.899966025E1,8.848350048E-1,3.676545382E0,7.038246155E0
2.901992515E1,3.868624568E-1,3.681333780E0,7.353070259E0
2.904019046E1,-2.403914183E-1,3.656195641E0,8.088058472E0
2.906045176E1,-2.224356979E-1,3.297080994E0,8.860155106E0
2.908071406E1,-7.400155067E-2,3.215681553E0,8.818259239E0
2.910097994E1,-7.467433214E-1,3.513746977E0,8.769180298E0
2.912124525E1,-1.539190054E0,3.790265322E0,8.892476082E0
2.914151129E1,-2.076665163E0,3.996157646E0,8.896066666E0
2.916177801E1,-2.148488045E0,3.875255823E0,9.289896011E0
2.918204718E1,-1.998857141E0,3.792659521E0,9.774701118E0
2.920231697E1,-2.852353096E0,4.374425888E0,1.253988457E1
2.922258702E1,-3.920121193E0,5.994033337E0,1.131051540E1
2.924285150E1,-2.263404608E0,5.396705627E0,8.434005737E0
2.926311671E1,-1.972521901E0,5.238695145E0,7.769643307E0
2.928338656E1,-2.432188749E0,5.826446533E0,8.346621513E0
2.930365583E1,-1.773811698E0,5.475711346E0,7.088521957E0
2.932392926E1,-1.409908652E0,4.972949982E0,9.003801346E0
2.934420119E1,-1.328509331E0,5.126172543E0,1.056355667E1
2.936446874E1,-1.482928634E0,5.134551525E0,1.016374207E1
2.938473458E1,-9.023597836E-1,4.999285221E0,9.465862274E0
2.940500432E1,-5.109245777E-1,5.164478302E0,8.662642479E0
2.942528249E1,-9.993206859E-1,5.868343353E0,8.134743690E0
2.944555312E1,-1.030444026E0,5.912634373E0,8.444779396E0
2.946581838E1,-7.694872618E-1,5.679209232E0,7.428483963E0
2.948608728E1,-1.026852965E0,5.729485512E0,9.358127594E0
2.950635369E1,-1.062764406E0,5.715120792E0,1.072994614E1
2.952662213E1,-6.916790009E-1,5.420646667E0,9.627464294E0
2.954688879E1,-3.289730549E-1,5.433814049E0,7.481154442E0
2.956712129E1,-1.111843467E0,5.990442276E0,7.532627583E0
2.959423436E1,5.664198995E-1,6.994766712E0,6.677934647E0
2.959423436E1,7.878739834E-1,6.981599331E0,8.477099419E0
2.959423436E1,1.460615754E0,6.593755245E0,8.773967743E0
2.960732666E1,8.668792844E-1,7.034269333E0,6.914949894E0
2.962719921E1,3.497539163E-1,7.896144867E0,6.011178017E0
2.964707166E1,1.953345537E-1,8.006273270E0,5.526372910E0
2.966695937E1,6.430310011E-1,7.450842857E0,5.486869812E0
2.968683786E1,2.228666842E-1,7.086939812E0,5.653260231E0
2.970670015E1,-1.927034020E0,7.668705940E0,8.001871109E0
2.972657948E1,-7.635020018E-1,6.365118504E0,6.692298889E0
2.974644901E1,-7.946252227E-1,5.904254913E0,5.699944973E0
2.976632198E1,-1.655303836E0,5.754623890E0,5.352800369E0
2.978620630E1,-2.235872746E0,5.822854996E0,5.497643471E0
2.980606349E1,-1.965339780E0,5.644495010E0,6.045892239E0
2.982591708E1,-1.053188086E0,5.570277691E0,6.582170486E0
2.984585218E1,3.150395155E-1,6.154438019E0,6.932906151E0
2.986578916E1,6.645779610E-1,6.215487480E0,6.284104824E0
2.988566062E1,5.640257597E-1,6.310054302E0,6.479224205E0
2.990546031E1,-1.649773270E-1,6.593755245E0,8.329862595E0
2.992533140E1,-4.187517166E-1,6.499188423E0,9.653799057E0
2.994519624E1,-2.882733941E-1,5.837219715E0,1.058629990E1
2.996499843E1,-6.437970400E-1,5.150113583E0,1.162773323E1
2.998487776E1,-1.542781115E0,5.163281441E0,1.187911415E1
3.000475916E1,-1.820496678E0,5.903057575E0,1.082331562E1
3.002464760E1,-1.594254255E0,6.623681068E0,9.300668716E0
3.004451838E1,-1.983295321E0,6.100570679E0,8.691370964E0
3.006438687E1,-2.335227728E0,4.859230518E0,9.795050621E0
3.008426208E1,-2.990013599E0,3.650210381E0,1.216760349E1
3.010413536E1,-2.875097036E0,2.904448748E0,1.297202015E1
3.012408307E1,-2.306498766E0,2.734467745E0,1.089394188E1
3.014399583E1,-1.151346087E0,3.113932371E0,9.079215050E0
3.016379354E1,-6.270383596E-1,3.632254601E0,8.481887817E0
3.018362630E1,-4.223428965E-1,4.154168129E0,9.637040138E0
3.020357109E1,2.611722648E-1,4.544406891E0,1.027626514E1
3.022348474E1,1.044042587E0,5.013650417E0,1.061862087E1
3.024327323E1,1.291831732E0,5.402691364E0,1.114053440E1
3.026317323E1,1.227191091E0,5.839614391E0,1.103639126E1
3.028312416E1,1.524059296E0,6.306463242E0,1.095020294E1
3.030291895E1,2.267426968E0,6.638046265E0,1.075628090E1
3.032271796E1,2.705547094E0,6.910973072E0,1.043786621E1
3.034258864E1,2.652877092E0,7.076166153E0,1.013381577E1
3.036253338E1,2.443393230E0,7.080954075E0,9.297078133E0
3.038240989E1,1.464206815E0,7.047436714E0,8.462735176E0
3.040227698E1,-7.878975570E-2,6.560237885E0,8.556104660E0
3.042221114E1,-5.623976588E-1,5.164478302E0,1.069283772E1
3.044228151E1,1.040451407E0,2.939163208E0,1.120876598E1
3.046255572E1,8.812438846E-1,3.052882910E0,8.593213081E0
3.048282619E1,3.102512956E-1,3.435938597E0,6.852703571E0
3.050309286E1,1.809699535E-1,3.380874395E0,7.503898621E0
3.052336052E1,5.855726600E-1,3.067247391E0,8.920007706E0
3.054362812E1,1.108683228E0,2.841005325E0,9.364112854E0
3.056389494E1,1.711996078E0,2.841005325E0,9.672951698E0
3.058416166E1,1.701222539E0,3.213287354E0,8.548921585E0
3.060442864E1,1.141003489E0,3.688515902E0,7.567341805E0
3.062468515E1,5.233260989E-1,3.899196625E0,7.637968063E0
3.064494229E1,4.239709973E-1,3.754353762E0,8.096438408E0
3.066520989E1,4.335473776E-1,3.468258858E0,8.035387993E0
3.068547974E1,2.061080039E-1,3.933911324E0,7.274065018E0
3.070575015E1,-2.356032282E-1,4.376819611E0,6.242208481E0
3.072601687E1,-3.876284957E-1,4.711993694E0,5.691565514E0
3.074628307E1,-1.254746765E-1,4.607850075E0,6.069833279E0
3.076655364E1,1.079499498E-1,4.205641747E0,7.485942364E0
3.078682401E1,2.240637392E-1,3.993763685E0,8.477099419E0
3.080709015E1,-1.613861471E-1,4.129030228E0,9.116324425E0
3.082734630E1,-2.607412338E-1,3.893211365E0,1.086760712E1
3.084760052E1,-1.637802571E-1,3.321022034E0,1.338619900E1
3.086786588E1,-3.253819346E-1,3.295883894E0,1.328684425E1
3.088813411E1,-5.396537185E-1,3.857300043E0,1.034090519E1
3.090840187E1,-4.666337371E-1,4.473780632E0,7.672682762E0
3.092866906E1,-7.192111611E-1,4.824516296E0,7.157950878E0
3.094893724E1,-7.120288610E-1,4.896339417E0,7.744504929E0
3.096920578E1,-6.138707995E-1,5.007664680E0,7.673879623E0
3.098947348E1,-7.742754221E-1,5.504440308E0,6.542667389E0
3.100974187E1,-1.845634699E0,5.865949154E0,5.014035702E0
3.103000078E1,-2.744618654E0,5.711529732E0,4.602250576E0
3.105025895E1,-3.041486979E0,4.617426872E0,7.466790199E0
3.107052692E1,-2.257419348E0,3.682530642E0,1.120158386E1
3.109079484E1,-1.012488246E0,3.818994522E0,1.173666477E1
3.111106218E1,-8.532806635E-1,4.138607025E0,9.117521286E0
3.113133057E1,-1.436243773E0,5.062729359E0,7.906106949E0
3.115159948E1,-1.967733741E0,5.707938671E0,8.760800362E0
3.117186802E1,-1.079523087E0,5.818067074E0,1.029182625E1
3.119213708E1,2.300489843E-1,6.001215935E0,1.046899033E1
3.121240510E1,3.413745761E-1,6.131694317E0,9.523321152E0
3.123266296E1,-4.654366970E-1,6.576996326E0,9.637040138E0
3.125292192E1,-6.940731406E-1,6.681139469E0,1.030140305E1
3.127319015E1,-2.176474780E-1,6.052688599E0,1.110342598E1
3.129346161E1,6.645779610E-1,4.982526779E0,1.185876369E1
3.131373724E1,1.647355437E0,4.422307491E0,1.153436375E1
3.133400885E1,2.102234364E0,4.431883812E0,1.004882526E1
3.135427604E1,2.269821167E0,4.480963230E0,8.268813133E0
3.137454817E1,2.361994028E0,4.014113426E0,6.975999355E0
3.139482000E1,1.690449238E0,3.498185158E0,6.974802494E0
3.141509031E1,1.893492937E-1,3.383268356E0,8.739253044E0
3.143510692E1,-9.227095246E-1,3.549658298E0,1.054919243E1
3.145515567E1,-7.443491817E-1,3.449106216E0,1.057672405E1
3.147527140E1,4.670647383E-1,2.941557169E0,9.214482307E0
3.149513932E1,1.574335337E0,2.621944904E0,8.011447906E0
3.151500994E1,1.796986580E0,3.086400270E0,6.975999355E0
3.153489265E1,9.817960262E-1,4.148182869E0,6.563017368E0
3.155474609E1,3.904535770E-1,4.986117840E0,6.507953167E0
3.157459614E1,3.760889769E-1,5.425434589E0,6.863477230E0
3.159440578E1,9.638402462E-1,5.140537262E0,7.472774982E0
3.161435791E1,1.265496731E0,4.928659439E0,7.549386024E0
3.163432484E1,9.997517467E-1,5.218345165E0,6.882629395E0
3.165414421E1,5.077644587E-1,5.521198750E0,6.165596962E0
3.167400937E1,3.054630756E-1,5.493666649E0,6.039906979E0
3.169386213E1,5.736021399E-1,4.891550541E0,6.542667389E0
3.171373119E1,9.303228855E-1,4.343302250E0,7.159148216E0
3.173362479E1,6.765483618E-1,4.139803886E0,7.495519161E0
3.175345520E1,3.971812874E-2,4.415125370E0,7.551780701E0
3.177329656E1,-2.236327082E-1,4.805363178E0,7.620011806E0
3.179318036E1,2.887043953E-1,4.848457336E0,8.041373253E0
3.181306687E1,7.316126823E-1,4.923871040E0,8.357394218E0
3.183296322E1,1.157762170E0,5.036393642E0,8.366971016E0
3.185281838E1,1.312181592E0,5.478105068E0,8.527376175E0
3.187262093E1,7.735093832E-1,5.888693333E0,8.375350952E0
3.189244698E1,1.917434037E-1,6.184364319E0,8.572862625E0
3.191231427E1,-2.379973084E-1,5.934180737E0,9.374886513E0
3.193213755E1,-5.037422180E-1,5.853978634E0,1.023795891E1
3.195201968E1,-9.071479440E-1,5.722303391E0,1.079099560E1
3.197194026E1,-7.646990418E-1,5.791732311E0,1.010508728E1
3.199179854E1,-1.024458766E0,6.280128002E0,8.857761383E0
3.201167198E1,-1.965339780E0,6.459685802E0,7.591282845E0
3.203161374E1,-2.727859974E0,5.460149288E0,7.751687527E0
3.205152500E1,-2.614140272E0,3.915955544E0,9.535290718E0
3.207139750E1,-1.542781115E0,2.830231667E0,1.098252392E1
3.209126437E1,-5.947180390E-1,2.971483469E0,9.884830475E0
3.211106369E1,-8.879951239E-1,4.120651245E0,7.639164925E0
3.213089187E1,-2.185596704E0,5.360794067E0,6.657584667E0
3.215084463E1,-2.264601946E0,5.187222004E0,7.913289070E0
3.217072593E1,-1.590663195E0,4.246341228E0,9.688512802E0
3.219051437E1,-1.093887687E0,3.815403223E0,9.659784317E0
3.221045390E1,-1.180075169E0,4.263100147E0,8.466325760E0
3.223037020E1,-1.450608373E0,4.880777836E0,7.098098755E0
3.225015880E1,-1.492505074E0,5.066320419E0,6.445706367E0
3.226998718E1,-1.347662210E0,5.243483067E0,7.306385040E0
3.228985531E1,-9.298918843E-1,5.358400345E0,8.885293007E0
3.230979093E1,-3.134114146E-1,5.511622906E0,9.226451874E0
3.232966041E1,-1.613861471E-1,6.173590660E0,8.563286781E0
3.234947046E1,3.492993116E-2,7.051028252E0,8.165866852E0
3.236934645E1,4.000300169E-1,7.089333534E0,9.230044365E0
3.238920338E1,5.975431800E-1,6.326813221E0,1.204310989E1
3.240907067E1,4.658676982E-1,4.755087376E0,1.486575222E1
3.242896161E1,1.175717950E0,3.766324282E0,1.481188488E1
3.244883026E1,1.808957100E0,4.030872345E0,1.295526123E1
3.246868203E1,2.140539885E0,4.476174831E0,1.016613579E1
3.248854343E1,1.545606256E0,5.067517281E0,7.823510647E0
3.250841062E1,3.222217858E-1,5.263833046E0,8.078481674E0
3.252829036E1,1.462555230E-1,4.306193829E0,1.006319046E1
3.254814645E1,5.867697001E-1,2.613565683E0,1.184439945E1
3.256802073E1,1.312181592E0,1.867803931E0,1.205747414E1
3.258801833E1,1.434280634E0,2.138337135E0,9.666967392E0
3.260787927E1,5.161437988E-1,2.884099007E0,7.896530628E0
3.262762166E1,-4.175547361E-1,3.537688017E0,7.481154442E0
3.264748458E1,-3.995989561E-1,3.905181885E0,7.494321823E0
3.266735843E1,-1.295204461E-2,4.085936546E0,6.786866188E0
3.268723312E1,1.797729135E-1,4.205641747E0,5.909428596E0
3.270711140E1,1.294968426E-1,4.166138649E0,4.962562561E0
3.272698598E1,3.042660356E-1,3.897999763E0,4.271864891E0
3.274704885E1,5.759962201E-1,3.610707998E0,4.270668030E0
3.276698927E1,5.747992396E-1,3.502973557E0,4.897922039E0
3.278672604E1,-1.829330772E-1,3.552052498E0,6.018360138E0
3.280657244E1,-3.074262142E-1,3.738792181E0,6.606111526E0
3.282657390E1,-9.435139596E-2,4.442656994E0,6.693496227E0
3.284639739E1,-1.326569766E-1,4.826910019E0,7.003531456E0
3.286608942E1,6.964436918E-2,4.832895756E0,8.535755157E0
3.288600442E1,-7.998679578E-2,4.449839592E0,1.072994614E1
3.290585869E1,-6.952701807E-1,4.395972252E0,1.259016132E1
3.292569734E1,-1.435046792E0,4.543209553E0,1.300434017E1
3.294560859E1,-2.220310926E0,5.233907223E0,1.228371620E1
3.296545786E1,-2.414232969E0,5.752229214E0,1.213169098E1
3.298530645E1,-1.660091996E0,5.943757057E0,1.403859138E1
3.300517671E1,-1.092690706E0,5.596613407E0,1.440488815E1
3.302503557E1,-1.486519933E0,5.263833046E0,1.255903816E1
3.304492005E1,-3.063033581E0,4.872398376E0,9.862086296E0
3.306474739E1,-4.315147400E0,4.567150593E0,8.279586792E0
3.308464817E1,-3.894983292E0,4.105089188E0,7.239350319E0
3.310456651E1,-2.875097036E0,3.337780714E0,6.290090561E0
3.312446348E1,-2.612943172E0,3.531702757E0,5.691565514E0
3.314432036E1,-2.782924175E0,4.637776852E0,5.084661484E0
3.316420604E1,-2.605760813E0,5.523593426E0,3.797833443E0
3.318407390E1,-1.194439769E0,5.782155514E0,3.048480511E0
3.320386901E1,1.917434037E-1,6.288507938E0,3.014963388E0
3.322383140E1,5.113555789E-1,7.671099663E0,4.918271542E0
3.324370974E1,-1.494156867E-1,8.564098358E0,7.657120705E0
3.326348463E1,-1.059173346E0,9.622290611E0,9.078018188E0
3.328341192E1,-1.502081513E0,1.033573151E1,9.166600227E0
3.330334921E1,-1.063961387E0,1.006041050E1,8.972678185E0
3.332332635E1,-3.253819346E-1,9.442731857E0,8.841002464E0
3.334311494E1,5.049157888E-2,8.724503517E0,8.187413216E0
3.336280536E1,-7.096347213E-1,8.309126854E0,7.919274330E0
3.338270677E1,-1.492505074E0,7.442463398E0,7.873786449E0
3.340257479E1,-1.609815955E0,6.126905918E0,8.752421379E0
3.342243291E1,-8.437042832E-1,4.853245258E0,8.959509850E0
3.344231072E1,7.112628222E-1,4.336120129E0,7.512277603E0
3.346218687E1,1.301408052E0,4.342105389E0,6.088985920E0
3.348211921E1,5.161437988E-1,4.775437355E0,6.451692104E0
3.350203854E1,-5.408508182E-1,5.017241001E0,8.123970032E0
3.352191453E1,-9.035567641E-1,4.652141094E0,1.039956093E1
3.354171255E1,2.611722648E-1,3.858496904E0,1.126742172E1
3.356148994E1,1.558773756E0,3.641831160E0,9.609508514E0
3.358137104E1,1.932253242E0,3.912364244E0,7.202241898E0
3.360124416E1,1.163747430E0,4.421110630E0,6.187143803E0
3.362111302E1,3.612697870E-2,5.166872025E0,6.970014572E0
3.364078130E1,-1.949035376E-1,5.395508766E0,7.684652805E0
3.366064088E1,1.067529023E-1,5.335656166E0,7.301597118E0
3.368071661E1,6.801396012E-1,5.239892006E0,6.083000660E0
3.370066802E1,8.321648240E-1,5.353612423E0,5.389909267E0
3.372054026E1,5.520552993E-1,5.353612423E0,5.359982967E0
3.374040541E1,4.718529582E-1,5.099837780E0,5.526372910E0
3.376031713E1,6.178929806E-1,4.592288494E0,5.607771873E0
3.378019515E1,1.048830748E0,4.464204311E0,6.039906979E0
3.380002323E1,8.728644848E-1,4.474977493E0,6.481617928E0
3.381988932E1,2.312460393E-1,4.542012691E0,6.967619896E0
3.384003218E1,1.393580914E0,3.996157646E0,8.025812149E0
3.386031833E1,1.659325957E0,3.936305285E0,7.183089256E0
3.388024046E1,1.659325957E0,3.936305285E0,7.183089256E0
3.390014770E1,2.408224344E-1,4.934644699E0,8.265221596E0
3.392041781E1,-1.499687433E0,6.082615376E0,9.674149513E0
3.394069333E1,-4.237339497E0,7.681873322E0,1.047258091E1
3.396096494E1,-5.834202766E0,8.023032188E0,1.111300182E1
3.398122932E1,-5.810261726E0,6.943293571E0,1.263445187E1
3.400149750E1,-5.077667713E0,5.099837780E0,1.388656616E1
3.402175557E1,-3.762110710E0,3.832161903E0,1.509917736E1
3.404201000E1,-2.350789547E0,3.140267372E0,1.502615738E1
3.406227364E1,-1.223169088E0,2.918813229E0,1.280802441E1
3.408253755E1,-8.125810027E-1,2.862551928E0,1.045223141E1
3.410280124E1,-7.958223224E-1,2.795517206E0,9.088791847E0
3.412306640E1,-7.467433214E-1,2.722497225E0,8.582440376E0
3.414333276E1,-4.355103970E-1,2.515407801E0,8.056935310E0
3.416359791E1,-3.565052152E-1,2.497452021E0,6.582170486E0
3.418386640E1,-3.289730549E-1,2.752423525E0,4.841660500E0
3.420413812E1,1.390732378E-1,3.121114731E0,3.801424503E0
3.422439734E1,9.183523655E-1,3.348553896E0,3.885218143E0
3.424465724E1,7.938592434E-1,3.325810194E0,4.647738457E0
3.426492937E1,-6.138707995E-1,3.749565363E0,6.516332626E0
3.428519942E1,-1.048399806E0,4.800575256E0,8.151501656E0
3.430546932E1,-4.343134165E-1,5.846796036E0,8.456749916E0
3.432573682E1,4.826263785E-1,6.529114723E0,7.153162956E0
3.434600505E1,3.150395155E-1,6.345965862E0,7.094507694E0
3.436627734E1,-8.006104827E-1,6.377089024E0,1.004044628E1
3.438654750E1,-1.187257528E0,6.290901661E0,1.282598019E1
3.440681624E1,-1.907881379E0,6.626075745E0,1.231364346E1
3.442707786E1,-2.670401573E0,7.201856136E0,1.107349968E1
3.444736093E1,-1.888728380E0,7.373034000E0,1.034569359E1
3.446765218E1,-8.065957427E-1,6.725430489E0,9.589158058E0
3.448791932E1,-3.809008002E-2,5.618159771E0,1.067009449E1
3.450818322E1,5.329024792E-1,4.385199070E0,1.256981087E1
3.452845411E1,1.129032969E0,3.384465456E0,1.352864838E1
3.454872791E1,1.129032969E0,3.086400270E0,1.269190979E1
3.456899432E1,7.064746618E-1,3.434741735E0,1.120397758E1
3.458926140E1,4.658676982E-1,3.845329523E0,9.620282173E0
3.460953224E1,6.550015211E-1,3.937502146E0,8.672219276E0
3.462979739E1,9.494757056E-1,3.939896584E0,8.412459373E0
3.465006140E1,8.656821847E-1,3.926728964E0,8.296344757E0
3.467033057E1,3.940447569E-1,3.895605803E0,7.896530628E0
3.469059583E1,-4.043871760E-1,3.985384226E0,7.075354576E0
3.471086046E1,-8.137780428E-1,4.063192368E0,6.428947926E0
3.473112624E1,-9.765767455E-1,3.947078705E0,5.895063877E0
3.475139343E1,-8.125810027E-1,3.845329523E0,5.472505569E0
3.477166369E1,-7.646990418E-1,3.968625784E0,5.029597759E0
3.479193130E1,-7.024524808E-1,4.180503368E0,5.187608242E0
3.481221854E1,-7.060436010E-1,4.485751152E0,5.467717648E0
3.483250609E1,-3.493229151E-1,4.755087376E0,5.654457092E0
3.485277635E1,4.690043256E-2,4.769451618E0,5.746630192E0
3.487288942E1,7.663271427E-1,4.665308475E0,6.795245171E0
3.489289750E1,1.263102531E0,4.689249516E0,7.785204887E0
3.491281250E1,6.490162611E-1,4.983723640E0,8.529769897E0
3.493263203E1,-8.006104827E-1,5.978471756E0,9.228845596E0
3.495251526E1,-1.370406032E0,6.529114723E0,1.000692940E1
3.497239474E1,-1.204016209E0,6.166408539E0,1.095020294E1
3.499220880E1,-6.821026206E-1,5.941363335E0,1.151640797E1
3.501204411E1,-6.617528200E-1,6.185561180E0,1.151640797E1
3.503192698E1,-1.134587288E0,6.858303070E0,1.046899033E1
3.505177572E1,-2.079059124E0,7.270088196E0,9.516138077E0
3.507170338E1,-3.100142241E0,7.130033016E0,9.336581230E0
3.509164244E1,-3.505941868E0,5.959319115E0,1.003565788E1
3.511149057E1,-3.112112761E0,4.625806332E0,1.113933659E1
3.513138036E1,-2.015615702E0,3.932714224E0,1.172469425E1
3.515126796E1,-8.927833438E-1,3.882437944E0,1.031935787E1
3.517103015E1,-1.348859191E0,4.210429668E0,6.724618912E0
3.519103218E1,-1.982098222E0,4.919083118E0,4.478954315E0
3.521096130E1,-1.976112962E0,4.755087376E0,4.935030460E0
3.523069656E1,-1.162119389E0,4.112271786E0,6.418174744E0
3.525052140E1,-1.458245069E-1,3.783082962E0,7.074157715E0
3.527032046E1,-1.087159812E-1,3.859694242E0,6.342760563E0
3.529018963E1,-5.348655581E-1,4.138607025E0,5.280977726E0
3.531006791E1,-5.516242385E-1,4.376819611E0,4.972138882E0
3.532997250E1,-3.210483491E-2,4.304996490E0,5.519190311E0
3.534989838E1,8.561058044E-1,4.549194813E0,6.205100060E0
3.536981333E1,1.069180608E0,5.208769321E0,5.981251717E0
3.538968958E1,5.003698170E-3,6.393847466E0,6.111730099E0
3.540953369E1,-6.234471798E-1,7.796789646E0,6.985576153E0
3.542940864E1,-5.193039179E-1,8.667044640E0,8.533361435E0
3.544923687E1,-7.383639216E-1,8.787945747E0,9.793853760E0
3.546911453E1,-1.122616768E0,7.513089180E0,1.200480366E1
3.548898187E1,-8.042016625E-1,6.518341064E0,1.356336212E1
3.550885114E1,-1.721141577E0,6.557843685E0,1.337303066E1
3.552872046E1,-2.812850475E0,7.305999756E0,1.258896446E1
3.554860796E1,-1.827678919E0,7.683070183E0,1.133804703E1
3.556855307E1,-2.703176737E-1,7.317970276E0,9.335384369E0
3.558833156E1,7.124598622E-1,6.456094265E0,8.183822632E0
3.560812724E1,9.207465053E-1,5.226724625E0,9.974608421E0
3.562804198E1,8.237854838E-1,3.961443186E0,1.164329529E1
3.564791020E1,6.933071613E-1,3.109144211E0,1.108427334E1
3.566780807E1,7.196422219E-1,2.893675327E0,8.777559280E0
3.568774948E1,7.196422219E-1,2.983453989E0,7.021487713E0
3.570755114E1,8.896232247E-1,3.062459230E0,6.014769077E0
3.572735354E1,1.457024574E0,3.391647816E0,5.704732895E0
3.574722005E1,1.941829562E0,3.732806921E0,5.416244030E0
3.576709114E1,1.405551434E0,3.893211365E0,5.470111370E0
3.578696119E1,5.436759591E-1,4.053616524E0,5.787329674E0
3.580682770E1,2.994778454E-1,4.555180073E0,6.071030140E0
3.582681901E1,1.133821249E0,5.147719860E0,5.954916477E0
3.584676333E1,1.927464962E0,4.896339417E0,5.594604492E0
3.586659276E1,2.581053972E0,4.264297009E0,5.796905994E0
3.588646218E1,2.897075176E0,3.992566824E0,7.002334595E0
3.590632374E1,2.168071985E0,4.240355968E0,8.255645752E0
3.592616500E1,1.084742188E0,4.568347931E0,8.899658203E0
3.594601270E1,6.538044214E-1,4.816136837E0,8.964299202E0
3.596592614E1,1.040451407E0,4.850851059E0,8.627927780E0
3.598578510E1,1.460615754E0,4.397169590E0,8.708129883E0
3.600563166E1,1.532438755E0,4.006931305E0,9.629858017E0
3.602553796E1,8.261795640E-1,4.087133408E0,1.096456814E1
3.604540822E1,-2.643324137E-1,4.725161076E0,1.236750984E1
3.606520286E1,-1.060370326E0,5.339247227E0,1.218795300E1
3.608501208E1,-1.116631508E0,5.553519249E0,1.077543449E1
3.610494812E1,-7.898370624E-1,5.481696129E0,1.033372307E1
3.612488036E1,-1.745536774E-1,5.467331886E0,1.160020065E1
3.614473395E1,-3.325642347E-1,5.361991405E0,1.286907387E1
3.616457828E1,-1.967733741E0,5.352414608E0,1.336106110E1
3.618445270E1,-3.805204391E0,5.630130291E0,1.235553932E1
3.620433244E1,-3.896180153E0,5.693574429E0,1.080057240E1
3.622421536E1,-2.560272932E0,5.330868244E0,9.062457085E0
3.624410255E1,-9.658033252E-1,4.895142078E0,7.736125946E0
3.626397848E1,1.953345537E-1,4.709599018E0,6.610899448E0
3.628382192E1,-1.457790613E0,5.209966183E0,8.722495079E0
3.630368776E1,-2.385504007E0,5.312911987E0,8.712918282E0
3.632359828E1,-9.646062255E-1,4.513283253E0,6.626461029E0
3.634344224E1,-5.125761032E-2,3.234834433E0,6.797638893E0
3.636331588E1,-1.400332332E0,4.015310764E0,5.680791855E0
3.638315062E1,-1.785782218E0,5.016044140E0,3.919932604E0
3.640314276E1,-3.062291145E-1,4.864018917E0,3.596729279E0
3.642307510E1,8.297707438E-1,3.649013519E0,4.387979031E0
3.644263765E1,1.714390159E0,2.705738544E0,6.870658875E0
3.646243776E1,2.460152149E0,1.839074850E0,8.032994270E0
3.648248000E1,7.352038026E-1,3.117523432E0,7.701411724E0
3.650240921E1,-8.915862441E-1,4.613835812E0,7.379405022E0
3.652228020E1,-7.982164025E-1,5.342838764E0,6.688707352E0
3.654218624E1,3.018719554E-1,5.333261967E0,7.558962345E0
3.656202890E1,1.522407830E-1,5.985654354E0,9.786670685E0
3.658181390E1,-7.036494613E-1,6.876258850E0,9.784276962E0
3.660172145E1,-8.820098639E-1,7.412536621E0,9.237226486E0
3.662162640E1,-5.288802981E-1,7.587306023E0,9.037319183E0
3.664165598E1,-3.375642002E-3,7.337122917E0,8.794318199E0
3.666192369E1,-4.833924174E-1,7.345502377E0,9.336581230E0
3.668219416E1,-1.029247046E0,7.377822876E0,1.005361271E1
3.670246187E1,-1.215986729E0,7.392187119E0,1.047976303E1
3.672272984E1,-1.244715929E0,6.908579350E0,1.020204830E1
3.674299703E1,-1.010094166E0,6.146058559E0,1.024394417E1
3.676326494E1,-8.808128238E-1,5.664844513E0,1.073593235E1
3.678353619E1,-6.390088797E-1,4.774240017E0,1.094780922E1
3.680380531E1,-4.546632171E-1,3.882437944E0,1.088436604E1
3.682406046E1,-5.085304976E-1,3.542475939E0,1.070241451E1
3.684431635E1,-5.767623186E-1,3.204908133E0,9.813007355E0
3.686458526E1,-7.228022814E-1,3.146252632E0,9.133083344E0
3.688485239E1,-2.499678284E-1,3.304263115E0,8.863745689E0
3.690511791E1,1.223145425E-1,3.332992554E0,8.972678185E0
3.692538239E1,1.462555230E-1,3.140267372E0,9.677740097E0
3.694564541E1,-2.492253482E-2,3.091188431E0,9.376084328E0
3.696590796E1,-5.336684585E-1,3.441923857E0,8.315498352E0
3.698617171E1,-1.245912910E0,3.692107201E0,8.168260574E0
3.700644093E1,-1.746279597E0,3.858496904E0,5.854364395E0
3.702670156E1,-1.461381793E0,3.743580103E0,5.992024899E0
3.704695849E1,-1.650515676E0,4.265494347E0,6.725816250E0
3.706722526E1,-1.619392276E0,4.506101131E0,9.358127594E0
3.708749265E1,-8.053987622E-1,3.944684744E0,8.480690956E0
3.712881254E1,5.197349191E-1,6.381877422E0,7.239350319E0
3.712881254E1,3.964388371E-1,6.660789490E0,7.481154442E0
3.712881254E1,-4.905747175E-1,7.061801434E0,7.210620880E0
3.712881254E1,-6.665409803E-1,7.553788662E0,6.422962666E0
3.712881254E1,-7.998679578E-2,7.054619312E0,7.256109238E0
3.712881254E1,2.492017746E-1,7.394581318E0,7.440454483E0
3.713529141E1,3.976358771E-1,7.440069199E0,7.570932865E0
3.715514354E1,2.444135696E-1,7.590897083E0,7.592480183E0
3.717498958E1,3.732403368E-2,7.584912300E0,7.355463982E0
3.719487078E1,-1.817360073E-1,7.408945560E0,6.864674091E0
3.721474135E1,-6.473881602E-1,7.392187119E0,6.855097771E0
3.723459870E1,-7.060436010E-1,7.228191376E0,6.255375862E0
3.725446807E1,-3.170025945E-1,7.132427216E0,5.877108097E0
3.727439620E1,-1.170953363E-1,6.794859409E0,6.828762531E0
3.729425885E1,-1.549963474E0,6.909776211E0,7.144783497E0
3.731406271E1,-1.777402878E0,7.289240837E0,7.093310356E0
3.733393141E1,-1.243518829E0,7.118062496E0,7.156754017E0
3.735375937E1,-9.705914855E-1,7.358669758E0,6.760530472E0
3.737343911E1,-9.346800447E-1,7.216220856E0,7.174709320E0
3.739335630E1,-7.599108815E-1,6.893017769E0,8.218537331E0
3.741339495E1,-1.102267027E0,6.718248367E0,9.572400093E0
3.743331521E1,-1.139375567E0,6.435744762E0,1.054081345E1
3.745326943E1,-8.484925032E-1,6.129300117E0,9.797445297E0
3.747312260E1,-7.838518023E-1,5.974880695E0,8.520193100E0
3.749295661E1,-9.514387250E-1,6.034733295E0,7.646347046E0
3.751275271E1,-1.352450252E0,5.789337635E0,7.864210129E0
3.753263635E1,-1.624180555E0,5.199192524E0,9.118718147E0
3.755258687E1,-1.833664179E0,4.472583771E0,9.186949730E0
3.757266370E1,-2.900235176E0,3.696895361E0,5.631712914E0
3.759292698E1,-2.507602930E0,2.550122261E0,5.351603508E0
3.761319088E1,-2.025192022E0,1.527841926E0,7.289626598E0
3.763345422E1,-2.409444809E0,1.309978962E0,9.347353935E0
3.765372177E1,-2.793697596E0,1.760069489E0,9.753153801E0
3.767399286E1,-3.407783985E0,2.236495256E0,9.212087631E0
3.769426375E1,-3.244985104E0,2.629127502E0,8.688977242E0
3.771453500E1,-2.761377335E0,2.518998623E0,8.885293007E0
3.773480250E1,-2.515982151E0,3.039715290E0,1.006678104E1
3.775505557E1,-2.416627169E0,4.044039726E0,1.192220783E1
3.777530922E1,-1.686426997E0,5.426632404E0,1.233878136E1
3.779557344E1,-4.187517166E-1,6.509961605E0,1.120637226E1
3.781584562E1,1.237964511E0,6.603331566E0,9.888421059E0
3.783611828E1,2.697167873E0,5.893481255E0,9.845327377E0
3.785638281E1,3.462082386E0,5.278197765E0,1.035048199E1
3.787665437E1,2.409876108E0,5.473316669E0,1.029302311E1
3.789692615E1,5.887092277E-2,6.284916401E0,8.626730919E0
3.791718974E1,-1.356041431E0,6.418985844E0,9.566413879E0
3.793745213E1,-9.586209655E-1,4.423504829E0,1.272063923E1
3.795770568E1,5.879667401E-1,2.374155998E0,1.595386982E1
3.797796651E1,1.829306960E0,2.052149534E0,1.570129204E1
3.799823646E1,1.558773756E0,2.799108505E0,1.155830479E1
3.801849990E1,7.459772825E-1,4.078754425E0,8.923599243E0
3.803876344E1,4.766411781E-1,4.500115871E0,9.512547493E0
3.805902703E1,1.857581437E-1,3.923137665E0,1.092506504E1
3.807929161E1,6.725026667E-2,2.920010567E0,1.295645809E1
3.809955672E1,-1.290658265E-1,2.349017620E0,1.252432346E1
3.811982078E1,4.211223125E-2,2.414855480E0,1.015296936E1
3.814008500E1,-2.212386280E-1,2.753620386E0,8.429217339E0
3.816034047E1,-3.948107958E-1,2.910434008E0,7.795978546E0
3.818059745E1,-7.519860566E-2,2.474708080E0,8.140728951E0
3.820086422E1,-1.649773270E-1,2.128760815E0,8.668626785E0
3.822112917E1,-6.378117800E-1,2.293953657E0,8.680598259E0
3.824139963E1,-9.239066243E-1,2.572865963E0,7.190271378E0
3.826166979E1,-7.922312021E-1,3.046897650E0,6.025542736E0
3.828193516E1,-1.733566672E-1,3.419179916E0,5.569466591E0
3.830220234E1,7.328097820E-1,3.170193672E0,6.334381104E0
3.832246838E1,1.070377588E0,2.648280144E0,9.076821327E0
3.834273307E1,6.095136404E-1,2.477102280E0,1.107349968E1
3.836299750E1,-4.127665162E-1,2.513013363E0,1.150802803E1
3.838326182E1,-9.382712245E-1,2.368170738E0,1.089873028E1
3.840352698E1,-1.134587288E0,1.675078988E0,1.043547249E1
3.842379417E1,-1.192045689E0,1.168727160E0,9.629858017E0
3.844406443E1,-1.588268995E0,1.408136964E0,7.699017525E0
3.846433250E1,-2.988816738E0,2.700950146E0,5.807679653E0
3.848460427E1,-4.126013279E0,3.947078705E0,5.289357185E0
3.850487526E1,-3.666346788E0,3.457485437E0,6.396627426E0
3.852513932E1,-2.800879955E0,2.012646914E0,8.401684761E0
3.854540391E1,-2.465706110E0,1.359058022E0,1.054201031E1
3.856560000E1,-2.599775791E0,1.975538492E0,1.079817772E1
3.858559500E1,-3.393419504E0,3.349750996E0,9.341368675E0
3.860552031E1,-3.932091713E0,4.655732155E0,8.119181633E0
3.862537677E1,-3.106127501E0,4.710796833E0,9.052880287E0
3.864517458E1,-1.281824470E0,4.350484848E0,9.577188492E0
3.866504828E1,-8.836613595E-2,4.343302250E0,9.864480019E0
3.868492302E1,8.760011196E-2,4.881974697E0,1.139311218E1
3.870479031E1,2.204725891E-1,5.524790287E0,1.225378990E1
3.872471312E1,8.932143450E-1,6.038324356E0,1.230526257E1
3.874454786E1,2.197998285E0,6.256187439E0,1.132607746E1
3.876454995E1,1.952602983E0,6.256187439E0,1.171751213E1
3.878444802E1,-6.761173606E-1,5.948545933E0,1.642550659E1
3.880412068E1,-2.719480753E0,5.571475029E0,1.934870148E1
3.882399521E1,-1.985689521E0,5.311715126E0,1.686602020E1
3.884385203E1,-9.815394878E-4,4.672490597E0,1.206944466E1
3.886370568E1,1.302605152E0,4.283450127E0,8.086861610E0
3.888359667E1,1.668902278E0,3.838147163E0,5.729871273E0
3.890347713E1,1.905918121E0,3.306657314E0,4.036046505E0
3.892331890E1,1.792198300E0,2.809881687E0,3.463856697E0
3.894314703E1,7.172480822E-1,2.807487726E0,4.718364716E0
3.896300161E1,4.000300169E-1,2.614762783E0,6.243405342E0
3.898289469E1,1.035663128E0,2.392111778E0,7.154359818E0
3.900276453E1,1.516877055E0,2.414855480E0,7.780416489E0
3.902263146E1,1.585108876E0,2.497452021E0,8.592016220E0
3.904252568E1,1.012919188E0,2.678206444E0,9.064850807E0
3.906236677E1,-2.368002981E-1,3.076823711E0,9.348550797E0
3.908222187E1,-1.482928634E0,3.287504435E0,9.813007355E0
3.910214036E1,-1.243518829E0,3.000212669E0,9.388053894E0
3.912202333E1,-5.552153587E-1,2.722497225E0,8.477099419E0
3.914175786E1,1.282997876E-1,2.586033583E0,7.134009838E0
3.916161375E1,1.689994633E-1,2.952330828E0,5.999207497E0
3.918159219E1,-1.230805814E-1,3.634649038E0,5.972872257E0
3.920146266E1,-7.299846411E-1,4.081148148E0,7.172315598E0
3.922132906E1,-9.885472655E-1,4.243947029E0,8.025812149E0
3.924123125E1,-1.073537827E0,4.247538567E0,8.744041443E0
3.926109870E1,-1.144163847E0,4.066783905E0,8.667429924E0
3.928094021E1,-1.299780130E0,4.090724945E0,8.086861610E0
3.930083062E1,-2.271784067E0,4.434278011E0,8.593213081E0
3.932071531E1,-2.700327873E0,4.556377411E0,9.828568459E0
3.934060333E1,-2.594987392E0,4.325346470E0,1.048095989E1
3.936044125E1,-2.344804287E0,4.551588535E0,1.034569359E1
3.938027818E1,-2.742224455E0,5.338050365E0,9.298274994E0
3.940017026E1,-3.424542665E0,6.086206436E0,7.774431705E0
3.942003990E1,-3.492774487E0,5.931786537E0,7.539810181E0
3.943990021E1,-3.007969379E0,5.023226261E0,9.323412895E0
3.945978266E1,-2.278966427E0,4.366046429E0,9.987775803E0
3.947964911E1,-2.013221502E0,3.988975525E0,9.847721100E0
3.949950526E1,-2.307695627E0,3.978201866E0,1.065572929E1
3.951944562E1,-2.263404608E0,3.755550623E0,1.093703651E1
3.953938745E1,-1.697200537E0,3.425165176E0,1.023436832E1
3.955914146E1,-1.117828727E0,3.253987312E0,8.761997223E0
3.957892609E1,-8.772217035E-1,3.388056755E0,7.172315598E0
3.959889911E1,-1.093887687E0,3.646619320E0,5.941749096E0
3.961880937E1,-1.162119389E0,3.693304300E0,5.483279228E0
3.963867510E1,-1.032838225E0,3.449106216E0,6.081803322E0
3.965853609E1,-7.012554407E-1,3.085203171E0,7.927654266E0
3.967834719E1,5.288567767E-2,2.886492968E0,8.226916313E0
3.969826078E1,4.407296777E-1,3.619087219E0,7.481154442E0
3.971826812E1,4.072122574E-1,4.609047413E0,7.388981342E0
3.973812979E1,9.410963058E-1,5.888693333E0,8.967889786E0
3.975786115E1,1.656931877E0,7.509497643E0,1.025830936E1
3.977765609E1,1.698828578E0,7.993105888E0,1.036245251E1
3.979752333E1,9.877812862E-1,7.547803879E0,1.141226482E1
3.981739453E1,4.690043256E-2,7.273679256E0,1.309770966E1
3.983725297E1,-5.839445591E-1,6.982796192E0,1.417265987E1
3.985719646E1,-7.623049021E-1,6.244216919E0,1.380995369E1
3.987706453E1,-2.786970139E-1,5.735470772E0,1.120517540E1
3.989686500E1,7.232333422E-1,6.090994358E0,8.462735176E0
3.991674484E1,1.700025558E0,6.553055286E0,6.249390602E0
3.993662896E1,2.591827631E0,6.538690567E0,5.593407631E0
3.995648599E1,2.773779154E0,5.654071331E0,7.333917618E0
3.997641083E1,2.085475445E0,4.400760651E0,9.900390625E0
3.999629068E1,1.654537678E0,3.094779491E0,1.085084820E1
4.001609021E1,1.783819079E0,2.521393061E0,1.013142204E1
4.003596062E1,1.741922379E0,2.721300125E0,8.910430908E0
4.005590125E1,1.504906535E0,3.283913374E0,7.518262863E0
4.007576505E1,1.103894949E0,3.929122925E0,6.342760563E0
4.009557172E1,9.255347252E-1,4.413928032E0,5.637698650E0
4.011546286E1,1.069180608E0,4.215218067E0,5.413849831E0
4.013532760E1,9.051848054E-1,3.932714224E0,5.507220268E0
4.015518115E1,3.988329172E-1,3.930320024E0,5.513205051E0
4.017497297E1,-2.492253482E-2,4.135015488E0,5.932172775E0
4.019483182E1,1.438614279E-1,4.300208569E0,6.507953167E0
4.021476510E1,7.986474633E-1,4.600667477E0,6.408597946E0
4.023470146E1,1.610246778E0,5.087867260E0,5.919004917E0
4.025457875E1,1.573138356E0,5.400296688E0,6.331986904E0
4.027440625E1,1.181703210E0,5.309321404E0,8.691370964E0
4.029426302E1,1.085939288E0,5.044773102E0,1.129615116E1
4.031416984E1,8.297707438E-1,5.147719860E0,1.226336670E1
4.033399833E1,4.670647383E-1,5.774973392E0,1.156309319E1
4.035386078E1,5.029762387E-1,6.046703815E0,1.094661236E1
4.037386213E1,7.172480822E-1,6.356739044E0,1.024753475E1
4.039366719E1,2.096991539E-1,6.678745747E0,9.523321152E0
4.041342026E1,-8.748275638E-1,7.432886600E0,9.739987373E0
4.043335604E1,-1.824087739E0,7.886568546E0,9.634646416E0
4.045326437E1,-2.189187765E0,7.803972244E0,9.045698166E0
4.047307411E1,-2.134123325E0,7.042648792E0,7.959973812E0
4.049292349E1,-1.965339780E0,6.108950138E0,7.388981342E0
4.051279760E1,-1.940201640E0,5.475711346E0,7.496716022E0
4.053267724E1,-1.936610341E0,5.340444088E0,7.791190147E0
4.055260594E1,-2.131729364E0,5.667238712E0,7.323143959E0
4.057274166E1,-1.296189070E0,5.697165012E0,5.647274494E0
4.059301229E1,-8.209603429E-1,5.225527763E0,6.379868984E0
4.061327823E1,-4.199488163E-1,4.787407875E0,7.293217659E0
4.063354187E1,-2.212386280E-1,4.747905254E0,6.689905167E0
4.065380672E1,-2.990468740E-1,5.169266224E0,5.525175571E0
4.067407167E1,-8.281427026E-1,5.391917706E0,5.034385681E0
4.069433588E1,-6.473881602E-1,4.927462101E0,6.071030140E0
4.071460083E1,-1.625832170E-1,4.411534309E0,8.066511154E0
4.073486917E1,-3.660815954E-1,4.479765892E0,9.271940231E0
4.075512620E1,-5.157127380E-1,5.142930984E0,8.126363754E0
4.077538057E1,-3.888255358E-1,5.971289635E0,6.545062065E0
4.079564687E1,-6.114767194E-1,6.468064785E0,6.603716850E0
4.081591312E1,-1.180075169E0,6.618893147E0,8.536952019E0
4.083617870E1,-1.481731653E0,6.199925900E0,1.085803127E1
4.085644427E1,-8.987686038E-1,5.437405109E0,1.154393959E1
4.087670979E1,-3.972048759E-1,5.646889210E0,1.017571259E1
4.089697838E1,-3.912196159E-1,6.314842701E0,7.880969048E0
4.091724979E1,2.168814391E-1,6.413000584E0,6.598928928E0
4.093751797E1,1.437871695E0,6.156832218E0,7.077748775E0
4.095777380E1,2.123781204E0,5.953333855E0,8.072497368E0
4.097803318E1,2.092657804E0,5.764199734E0,9.058864594E0
4.099830583E1,1.173323870E0,5.244680882E0,1.032175350E1
4.101857526E1,4.287591577E-1,4.520465851E0,1.125904179E1
4.103884396E1,-8.956320584E-2,4.089527607E0,1.200959206E1
4.105911193E1,1.462555230E-1,4.006931305E0,1.177975941E1
4.107938010E1,4.323503375E-1,4.255917549E0,1.011226940E1
4.109964615E1,3.234188557E-1,4.598273754E0,8.854169846E0
4.111991177E1,3.772860765E-1,4.556377411E0,8.648278236E0
4.114018005E1,8.106179237E-1,4.077557564E0,9.134280205E0
4.116043573E1,8.836379647E-1,3.669363260E0,8.909234047E0
4.118069354E1,6.442281008E-1,3.796250582E0,7.854633808E0
4.120096495E1,3.928476572E-1,4.076360226E0,6.519923687E0
4.122123380E1,5.245231390E-1,3.992566824E0,6.018360138E0
4.124149854E1,8.968055248E-1,3.747171402E0,6.533091545E0
4.126176385E1,1.127835989E0,3.712456942E0,7.558962345E0
4.128202948E1,1.099106789E0,3.942290545E0,8.457946777E0
4.130229516E1,1.248737931E0,4.180503368E0,8.242478371E0
4.132256161E1,1.129032969E0,4.489342213E0,7.739717007E0
4.134283109E1,7.962533236E-1,4.877186298E0,8.031797409E0
4.136309010E1,8.261795640E-1,4.777831078E0,9.306654930E0
4.138336099E1,8.968055248E-1,4.415125370E0,1.056954193E1
4.140364390E1,1.257117271E0,4.252326488E0,1.079817772E1
4.142391427E1,1.046436667E0,4.685657978E0,9.786670685E0
4.144418375E1,1.666053683E-1,5.553519249E0,9.332989693E0
4.146444963E1,-1.793418974E-1,6.140073299E0,9.738790512E0
4.148471646E1,-4.331163764E-1,5.970092297E0,1.029661465E1
4.150498474E1,-5.336684585E-1,5.352414608E0,1.106272602E1
4.152525010E1,-9.322859645E-1,4.604259014E0,1.175701523E1
4.154551479E1,-1.425470352E0,4.097907066E0,1.166005421E1
4.156580255E1,-1.110646248E0,3.892014503E0,1.056714821E1
4.158585641E1,-7.527285218E-1,4.094316006E0,8.911627769E0
