"Time (s)","Acceleration x (m/s^2)","Acceleration y (m/s^2)","Acceleration z (m/s^2)"
2.372257000E-2,1.507179141E0,7.144071102E0,5.522634506E0
4.097241400E-2,1.854138494E0,7.328318596E0,5.728417397E0
6.097241400E-2,1.504786372E0,7.639385223E0,5.828916073E0
8.097241400E-2,5.428716540E-1,7.287640572E0,5.479563713E0
1.009724140E-1,1.959123611E-1,7.024429798E0,5.611168861E0
1.209724140E-1,-5.054837838E-2,7.333104134E0,5.979663849E0
1.409724140E-1,2.389831543E-1,7.491030216E0,6.216553211E0
1.609724140E-1,8.539385796E-1,7.589136124E0,6.558726788E0
1.809724140E-1,6.194419861E-1,7.067500591E0,7.367500782E0
2.009724140E-1,2.174477577E-1,6.883253574E0,7.487142086E0
2.209724140E-1,-1.366899908E-1,6.825825691E0,6.996613503E0
2.409724140E-1,-3.472583890E-1,6.935895443E0,6.534798622E0
2.609724140E-1,-3.831507266E-1,7.246962547E0,6.214160442E0
2.809724140E-1,-3.951148391E-1,7.713562965E0,5.936593056E0
3.009724140E-1,-9.379864931E-1,8.089236259E0,6.597012043E0
3.209724140E-1,-1.067198873E0,8.024629593E0,6.479763508E0
3.409724140E-1,-1.012163997E0,7.802097321E0,6.616154671E0
3.609724140E-1,-6.535396576E-1,7.596314430E0,7.075576782E0
3.809724140E-1,-6.490531564E-2,7.438388348E0,7.350750923E0
4.009724140E-1,3.586242795E-1,7.187141895E0,7.286144733E0
4.209724140E-1,3.514458239E-1,6.777969360E0,6.489335060E0
4.409724140E-1,4.136592150E-1,6.785147667E0,6.027520180E0
4.609724140E-1,4.567300081E-1,6.964609623E0,5.752345562E0
4.809724140E-1,4.256233275E-1,7.144071102E0,5.821737289E0
5.009724140E-1,4.878367186E-1,7.103393078E0,5.946164131E0
5.209724140E-1,3.227319419E-1,7.199106216E0,5.965306759E0
5.409724140E-1,-1.223330572E-1,7.218248844E0,5.714060307E0
5.609724140E-1,-4.908277392E-1,7.459923744E0,6.044270039E0
5.809724140E-1,-3.759722710E-1,7.847560883E0,6.324230194E0
6.009724140E-1,-1.390828192E-1,8.019844055E0,6.829115868E0
6.209724140E-1,3.080759197E-2,8.067700386E0,7.276573658E0
6.409724140E-1,3.969094455E-1,8.098807335E0,7.420143127E0
6.609724140E-1,1.004686356E0,8.311768532E0,7.587640762E0
6.809724140E-1,1.533500195E0,8.362017632E0,7.743174076E0
7.009724140E-1,1.569392562E0,8.172985077E0,6.860222340E0
7.209724140E-1,1.394716501E0,8.108378410E0,6.221338749E0
7.409724140E-1,9.879366755E-1,8.254341125E0,7.668996811E0
7.609724140E-1,8.371888399E-1,8.273483276E0,9.970592499E0
7.809724140E-1,1.461715579E0,7.849953651E0,1.130788136E1
8.009724140E-1,3.133999348E0,6.825825691E0,9.489635468E0
8.209724140E-1,2.877967358E0,6.208477497E0,8.164011955E0
8.409724140E-1,2.487937450E0,5.725426197E0,7.592426300E0
8.609724140E-1,2.119442701E0,5.950351715E0,7.238288403E0
8.809724140E-1,1.641177177E0,6.670292377E0,7.166503906E0
9.009724140E-1,8.659027219E-1,7.139285564E0,7.345965385E0
9.209724140E-1,1.011864901E0,7.218248844E0,7.018148899E0
9.409724140E-1,1.109970570E0,6.978966236E0,6.869793892E0
9.609724140E-1,1.629213095E0,5.524429321E0,7.365108013E0
9.809724140E-1,2.464009047E0,4.502694130E0,7.889136314E0
1.000972414E0,1.980958104E0,4.799404144E0,7.829315662E0
1.020972414E0,1.241575837E0,5.163113117E0,7.408178806E0
1.040972414E0,1.086042404E0,5.067399979E0,6.362515450E0
1.060972414E0,8.778668046E-1,4.816154003E0,4.685445786E0
1.080972414E0,2.700898647E-1,5.060221672E0,4.970191956E0
1.100972414E0,-1.295115203E-1,5.330610752E0,5.785845280E0
1.120972414E0,-1.558325738E-1,5.459823132E0,7.338787079E0
1.140972414E0,-9.361918271E-2,6.141777515E0,8.743074417E0
1.160972414E0,4.351946115E-1,6.866503716E0,7.704888821E0
1.180972414E0,1.801496387E0,6.844968319E0,5.123033047E0
1.200972414E0,1.626820326E0,7.191927433E0,4.398307323E0
1.220972414E0,1.447358608E0,7.203891754E0,4.362414837E0
1.240972414E0,7.103692293E-1,6.605686188E0,5.134997368E0
1.260972414E0,-2.778665423E-1,6.244369984E0,6.235695839E0
1.280972414E0,-1.028913736E0,6.186942101E0,6.843472958E0
1.300972414E0,-1.588834286E0,5.995815277E0,7.482356548E0
1.320972414E0,-8.688937426E-1,6.158228397E0,7.092326164E0
1.340972414E0,3.080759197E-2,6.538686752E0,6.477370739E0
1.360972414E0,5.907281041E-1,6.844968319E0,6.020341873E0
1.380972414E0,6.553342938E-1,6.801897526E0,6.391229153E0
1.400972414E0,2.078764737E-1,6.687041759E0,6.766902447E0
1.420972414E0,-6.008976102E-1,6.861718178E0,6.955935478E0
1.440972414E0,-3.520440459E-1,7.086643219E0,6.936792850E0
1.460972414E0,3.798605874E-2,7.280461788E0,6.525227547E0
1.480972414E0,1.241276711E-1,7.474280834E0,6.460621357E0
1.500972414E0,-2.730808854E-1,7.328318596E0,6.628118515E0
1.520972414E0,-8.569296002E-1,7.002894402E0,7.243073940E0
1.540972414E0,-1.349551916E0,6.823432922E0,8.094619751E0
1.560972414E0,-9.547362328E-1,6.768397808E0,7.817351341E0
1.580972414E0,-4.166502357E-1,6.861718178E0,7.843672752E0
1.600972414E0,-1.941177398E-1,6.978966236E0,8.183154106E0
1.620972414E0,-1.328016520E0,6.679863453E0,8.996713638E0
1.640972414E0,-2.242074728E0,6.332904339E0,1.126241779E1
1.660972414E0,-2.301895380E0,5.988636971E0,1.251147175E1
1.680972414E0,-1.158126116E0,5.761318684E0,9.496813774E0
1.700972414E0,-6.008976102E-1,5.689534187E0,7.922635555E0
1.720972414E0,2.629113793E-1,5.388038158E0,7.645068169E0
1.740972414E0,1.121635586E-1,5.574678421E0,8.333902359E0
1.760972414E0,-3.687937856E-1,5.548357487E0,9.448957443E0
1.780972414E0,-5.769693851E-1,5.397609711E0,1.062622643E1
1.800972414E0,-1.227517962E0,5.591428280E0,8.719146729E0
1.820972414E0,-1.497906923E0,5.665606022E0,7.255038261E0
1.840972414E0,-1.789831281E0,5.634499073E0,6.329015732E0
1.860972414E0,-1.880758643E0,5.565107346E0,5.929414749E0
1.880972414E0,-1.797009826E0,5.545964718E0,6.336194515E0
1.900972414E0,-1.751546144E0,5.440680504E0,6.874579430E0
1.920972414E0,-1.722832322E0,5.459823132E0,7.190432072E0
1.940972414E0,-1.359123230E0,5.459823132E0,6.556334019E0
1.960972414E0,-1.045663476E0,5.411966801E0,6.221338749E0
1.980972414E0,-9.068797827E-1,5.342574596E0,6.092126369E0
2.000972414E0,-8.090731502E-1,5.469394207E0,6.077769279E0
2.020972414E0,-6.798607111E-1,5.727818966E0,6.118447304E0
2.040972414E0,-8.829515576E-1,5.926423550E0,6.214160442E0
2.060972414E0,-1.153340459E0,6.184549332E0,5.706882000E0
2.080972414E0,-9.260223508E-1,6.320940018E0,5.788238049E0
2.100972414E0,-7.301099896E-1,6.454938412E0,5.982056618E0
2.120972414E0,-6.296114326E-1,6.545865536E0,6.116054535E0
2.140972414E0,-4.836492836E-1,6.703791618E0,6.192625046E0
2.160972414E0,-3.352942765E-1,6.823432922E0,6.017949104E0
2.180972414E0,-1.175474152E-1,7.074679375E0,6.453442574E0
2.200972414E0,-5.772684515E-2,7.321139812E0,7.221538544E0
2.220972414E0,-1.103689447E-1,7.450352192E0,7.623532772E0
2.240972414E0,-1.893320978E-1,7.397710323E0,7.874779224E0
2.260972414E0,-9.840483218E-2,7.421638489E0,7.489534855E0
2.280972414E0,-1.079761237E-1,7.522137165E0,6.080162525E0
2.300972414E0,-1.155733347E0,7.876275063E0,5.257031441E0
2.320972414E0,-1.447657704E0,8.098807335E0,6.934400082E0
2.340972414E0,-1.332802176E0,7.861917973E0,8.975178719E0
2.360972414E0,-7.660023570E-1,7.419245720E0,1.039412212E1
2.380972414E0,-2.991028305E-4,7.034001350E0,1.081765175E1
2.400972414E0,6.936194897E-1,6.584150791E0,1.069083214E1
2.420972414E0,1.086042404E0,6.371189594E0,9.908379555E0
2.440972414E0,1.121934772E0,6.715755939E0,7.810173035E0
2.460972414E0,1.095613718E0,6.679863453E0,8.094619751E0
2.480972414E0,1.016650558E0,6.483652115E0,8.814859390E0
2.500972414E0,8.371888399E-1,6.273083687E0,9.152247429E0
2.520972414E0,7.007979155E-1,6.141777515E0,8.606683731E0
2.540972414E0,4.351946115E-1,6.220441341E0,7.534998417E0
2.560972414E0,-4.932205677E-1,6.275476456E0,5.953342915E0
2.580972414E0,-5.315057039E-1,6.218048573E0,5.704489231E0
2.600972414E0,-2.300100774E-1,5.914459229E0,5.572884083E0
2.620972414E0,1.145563871E-1,5.591428280E0,5.563312531E0
2.640972414E0,4.256233275E-1,5.242076397E0,5.438885689E0
2.660972414E0,5.189434290E-1,5.091328144E0,5.448457241E0
2.680972414E0,-1.941177398E-1,5.383252621E0,5.898307800E0
2.700972414E0,-2.467598319E-1,5.600999832E0,6.029912949E0
2.720972414E0,1.073779166E-1,5.555535793E0,6.154339790E0
2.740972414E0,2.724826932E-1,5.612963676E0,5.936593056E0
2.760972414E0,3.514458239E-1,5.775675774E0,5.302495003E0
2.780972414E0,3.299104273E-1,6.098706722E0,4.848157883E0
2.800972414E0,-2.276172489E-1,6.742076874E0,5.505885124E0
2.820972414E0,-2.587239444E-1,6.943074226E0,6.156732559E0
2.840972414E0,-2.491526604E-1,7.045965195E0,6.778866768E0
2.860972414E0,-1.797607988E-1,7.172784805E0,7.207181931E0
2.880972414E0,-1.704886183E-2,7.301997185E0,7.365108013E0
2.900972414E0,-7.477570791E-3,7.376174927E0,7.422535896E0
2.920972414E0,-1.941177398E-1,7.483851910E0,7.267002583E0
2.940972414E0,-5.410770178E-1,7.560422421E0,7.905886173E0
2.960972414E0,-7.803592682E-1,7.392924786E0,8.570791245E0
2.980972414E0,-1.019342422E0,7.330711365E0,8.767003059E0
3.000972414E0,-1.138983607E0,7.299604416E0,8.283653259E0
3.020972414E0,-1.442872047E0,7.278069019E0,8.455936432E0
3.040972414E0,-1.648654819E0,7.462316513E0,9.087641716E0
3.060972414E0,-1.507478237E0,6.770790577E0,1.140838051E1
3.080972414E0,-1.538584948E0,6.258726597E0,1.272443295E1
3.100972414E0,-1.794616938E0,5.931209087E0,1.241575813E1
3.120972414E0,-1.995614052E0,5.782854080E0,1.024337482E1
3.140972414E0,-1.971685886E0,5.916851997E0,8.044370651E0
3.160972414E0,-1.701296926E0,5.828317642E0,7.180860519E0
3.180972414E0,-1.033699393E0,5.167898655E0,7.788637638E0
3.200972414E0,-1.136590719E0,5.036293507E0,7.982456207E0
3.220972414E0,-1.186840057E0,5.009972572E0,7.527820110E0
3.240972414E0,-1.368694544E0,5.074578762E0,6.841079712E0
3.260972414E0,-1.464407444E0,5.134399414E0,6.185446739E0
3.280972414E0,-1.380658627E0,5.155934811E0,5.773880959E0
3.300972414E0,-1.507478237E0,5.170291424E0,5.733202934E0
3.320972414E0,-1.569691658E0,4.947759151E0,5.644668579E0
3.340972414E0,-1.330409408E0,4.923830986E0,5.532206059E0
3.360972414E0,-1.050449133E0,4.895116806E0,5.402993679E0
3.380972414E0,-8.805587292E-1,4.995615482E0,5.395814896E0
3.400972414E0,-9.332008362E-1,5.088935375E0,5.527420521E0
3.420972414E0,-1.122233868E0,5.230112076E0,5.685346603E0
3.440972414E0,-1.301695466E0,5.816353798E0,5.580062389E0
3.460972414E0,-1.478764415E0,6.151049614E0,5.438885689E0
3.480972414E0,-1.639083505E0,6.454938412E0,5.584847927E0
3.500972414E0,-1.564906001E0,6.572186470E0,5.982056618E0
3.520972414E0,-1.505085468E0,6.699006081E0,6.412764549E0
3.540972414E0,-1.371087432E0,6.888039112E0,6.613761902E0
3.560972414E0,-1.304088354E0,7.278069019E0,7.271788120E0
3.580972414E0,-1.167697430E0,7.435995579E0,7.281359196E0
3.600972414E0,-1.158126116E0,7.603493214E0,7.070790768E0
3.620972414E0,-1.182054400E0,7.814061642E0,7.338787079E0
3.640972414E0,-1.000199914E0,7.909774303E0,8.487042427E0
3.660972414E0,-6.870391965E-1,7.797311783E0,1.006630611E1
3.680972414E0,1.405783277E-2,7.936095238E0,8.585148811E0
3.700972414E0,1.145563871E-1,8.015058517E0,8.190332413E0
3.720972414E0,1.384846121E-1,7.751848221E0,9.446564674E0
3.740972414E0,2.700898647E-1,7.184749126E0,1.131505966E1
3.760972414E0,5.237290859E-1,6.703791618E0,1.230808163E1
3.780972414E0,7.319046259E-1,6.402296066E0,1.134855938E1
3.800972414E0,1.088435173E0,6.256333828E0,9.298210144E0
3.820972414E0,1.667498231E0,6.120242119E0,7.173682213E0
3.840972414E0,1.590927958E0,6.034100533E0,7.456035137E0
3.860972414E0,1.275075316E0,5.897709846E0,8.161619186E0
3.880972414E0,9.448658228E-1,5.770890236E0,8.274081230E0
3.900972414E0,8.371888399E-1,5.909673691E0,7.719245911E0
3.920972414E0,8.347960114E-1,5.873781204E0,7.015756130E0
3.940972414E0,6.170491576E-1,5.452644825E0,6.582654953E0
3.960972414E0,3.227319419E-1,5.234897614E0,6.510870457E0
3.980972414E0,8.584251255E-2,5.163113117E0,6.288337708E0
4.000972414E0,6.191428751E-2,5.045864582E0,5.723631859E0
4.020972414E0,2.844468057E-1,4.986044407E0,5.467599869E0
4.040972414E0,5.667998791E-1,5.026721954E0,5.651846886E0
4.060972414E0,2.605185509E-1,4.739583492E0,5.704489231E0
4.080972414E0,1.073779166E-1,5.124827862E0,5.592026711E0
4.100972414E0,1.839482337E-1,5.471786976E0,5.448457241E0
4.120972414E0,2.093719784E-3,5.818746567E0,5.379065514E0
4.140972414E0,-2.419741899E-1,6.186942101E0,5.292923450E0
4.160972414E0,-1.462612897E-1,6.500401974E0,5.137390137E0
4.180972414E0,2.123630047E-2,6.955038071E0,5.883950710E0
4.200972414E0,5.712864175E-2,7.141678333E0,6.587440968E0
4.220972414E0,-1.725823283E-1,7.366603374E0,7.286144733E0
4.240972414E0,-4.668995142E-1,7.775776386E0,7.432106972E0
4.260972414E0,-7.755736113E-1,7.964809418E0,7.343572617E0
4.280972414E0,-9.523434043E-1,7.878667831E0,7.563712597E0
4.300972414E0,-7.468597889E-1,7.739883900E0,8.082655907E0
4.320972414E0,-3.544368446E-1,7.160820961E0,9.317352295E0
4.340972414E0,-8.210372925E-1,7.146463871E0,9.109176636E0
4.360972414E0,-1.172483087E0,7.007680416E0,8.164011955E0
4.380972414E0,-1.172483087E0,6.962216377E0,7.881958008E0
4.400972414E0,-9.786644578E-1,6.505187511E0,9.116354942E0
4.420972414E0,-8.282157183E-1,5.658427238E0,1.087986565E1
4.440972414E0,-1.603191137E0,5.177470207E0,1.178644657E1
4.460972414E0,-1.880758643E0,5.196612358E0,9.977771759E0
4.480972414E0,-2.005185366E0,5.165505886E0,8.520542145E0
4.500972414E0,-1.591227055E0,4.902295589E0,7.939385414E0
4.520972414E0,-7.731808424E-1,4.567300320E0,7.762316704E0
4.540972414E0,-4.908277392E-1,4.438087940E0,7.805387497E0
4.560972414E0,-8.712865710E-1,4.696512699E0,7.180860519E0
4.580972414E0,-1.136590719E0,4.801796913E0,6.886543751E0
4.600972414E0,-1.138983607E0,4.895116806E0,6.412764549E0
4.620972414E0,-9.523434043E-1,4.933402061E0,5.881557941E0
4.640972414E0,-7.253243923E-1,4.911866665E0,5.252245903E0
4.660972414E0,-5.961119533E-1,4.887938499E0,4.912764072E0
4.680972414E0,-5.075774789E-1,4.825725079E0,5.044369221E0
4.700972414E0,-5.937191248E-1,4.935794830E0,6.049055576E0
4.720972414E0,-6.415755749E-1,5.143970490E0,6.345765591E0
4.740972414E0,-8.377870321E-1,5.457430363E0,6.565905571E0
4.760972414E0,-9.571290612E-1,5.751747608E0,6.630511761E0
4.780972414E0,-1.043270707E0,6.065207005E0,6.427121639E0
4.800972414E0,-9.427721500E-1,6.148656845E0,6.474977970E0
4.820972414E0,-9.619147182E-1,6.299404621E0,7.156932354E0
4.840972414E0,-7.612167001E-1,6.387938976E0,7.542177200E0
4.860972414E0,-3.735794425E-1,6.569793701E0,7.862815380E0
4.880972414E0,-1.749751568E-1,6.751648426E0,8.187939644E0
4.900972414E0,-5.084747914E-3,6.998108864E0,8.412865639E0
4.920972414E0,-4.097708687E-2,7.254140854E0,8.893822670E0
4.940972414E0,-4.097708687E-2,7.254140854E0,8.893822670E0
4.960972414E0,2.602194622E-2,8.101200104E0,8.932107925E0
4.980972414E0,-6.969095767E-2,7.725526810E0,9.140283585E0
5.000972414E0,-2.730808854E-1,7.373782158E0,1.081047344E1
5.020972414E0,9.272187948E-3,6.782754898E0,1.242533016E1
5.040972414E0,5.356931686E-1,6.742076874E0,1.265025520E1
5.060972414E0,5.356931686E-1,6.742076874E0,1.265025520E1
5.080972414E0,1.851745605E0,5.591428280E0,8.546863556E0
5.100972414E0,1.370788217E0,5.938387394E0,7.767102242E0
5.120972414E0,9.113663435E-1,6.189334869E0,7.334001541E0
5.140972414E0,1.299003601E0,5.885745525E0,7.149754047E0
5.160972414E0,1.660319805E0,5.483751297E0,7.554141045E0
5.180972414E0,1.243968725E0,5.536393166E0,7.769495010E0
5.200972414E0,2.093719784E-3,6.014957905E0,7.731209755E0
5.220972414E0,-2.898306549E-1,5.510072231E0,7.558926582E0
5.240972414E0,-5.338985324E-1,4.957330227E0,6.723831654E0
5.260972414E0,-8.210372925E-1,4.304089546E0,6.025127411E0
5.280972414E0,-9.403793216E-1,3.691527128E0,5.733202934E0
5.300972414E0,-1.083948612E0,3.201297522E0,5.321637630E0
5.320972414E0,-7.205387354E-1,4.483551502E0,5.139782906E0
5.340972414E0,-1.223330572E-1,5.062614441E0,4.304986954E0
5.360972414E0,2.988037169E-1,5.134399414E0,3.893421650E0
5.380972414E0,2.892324328E-1,5.703890800E0,4.135096550E0
5.400972414E0,-1.342971772E-1,6.093921185E0,4.771587372E0
5.420972414E0,-5.410770178E-1,6.655935287E0,6.472585201E0
5.440972414E0,-1.944168471E-2,7.050751209E0,8.556434631E0
5.460972414E0,-8.883354068E-2,7.000501633E0,8.197511673E0
5.480972414E0,-8.162516356E-1,7.321139812E0,8.111370087E0
5.500972414E0,-1.284945726E0,7.541279793E0,8.144868851E0
5.520972414E0,-1.091127157E0,7.361817837E0,8.104190826E0
5.540972414E0,-7.588238716E-1,7.067500591E0,8.020442009E0
5.560972414E0,-8.736793399E-1,7.311568737E0,7.444071293E0
5.580972414E0,-8.282157183E-1,7.433602810E0,7.489534855E0
5.600972414E0,-4.740779996E-1,7.141678333E0,7.460821152E0
5.620972414E0,-3.281157911E-1,6.897610188E0,7.515855789E0
5.640972414E0,-7.253243923E-1,6.986145020E0,7.788637638E0
5.660972414E0,-1.466800332E0,7.179963589E0,8.286046028E0
5.680972414E0,-2.215753794E0,7.141678333E0,8.618648529E0
5.700972414E0,-3.081955671E0,7.321139812E0,8.841180801E0
5.720972414E0,-2.792423964E0,7.380960464E0,8.936893463E0
5.740972414E0,-2.390429735E0,7.237390995E0,9.492028236E0
5.760972414E0,-2.069791555E0,6.653542519E0,1.000169945E1
5.780972414E0,-2.234896421E0,5.885745525E0,1.043240738E1
5.800972414E0,-2.833101988E0,5.409573555E0,1.000169945E1
5.820972414E0,-3.096312523E0,5.605785370E0,7.872386456E0
5.840972414E0,-2.632104874E0,5.888138294E0,7.149754047E0
5.860972414E0,-1.773081541E0,5.562714577E0,6.716653347E0
5.880972414E0,-1.148554921E0,5.007579803E0,6.984649181E0
5.900972414E0,-1.160519004E0,4.555335999E0,7.310073376E0
5.920972414E0,-1.696511269E0,4.562514782E0,7.250252724E0
5.940972414E0,-2.309073925E0,5.500501156E0,6.087340832E0
5.960972414E0,-1.560120344E0,5.723033428E0,4.907978535E0
5.980972414E0,-9.164510965E-1,5.201398373E0,4.927121162E0
6.000972414E0,-8.901300430E-1,5.086542606E0,5.355136871E0
6.020972414E0,-1.048056364E0,5.218147755E0,5.469992638E0
6.040972414E0,-1.373480201E0,5.462215900E0,5.582455158E0
6.060972414E0,-2.000399828E0,5.660820007E0,5.434100151E0
6.080972414E0,-1.655833244E0,6.275476456E0,4.960620403E0
6.100972414E0,-9.667003751E-1,6.301797390E0,4.501198292E0
6.120972414E0,-7.277171612E-1,6.404688835E0,4.089632988E0
6.140972414E0,-1.064806104E0,6.574579239E0,4.168596268E0
6.160972414E0,-1.629512191E0,6.696613312E0,4.896014214E0
6.180972414E0,-2.033899307E0,6.730112553E0,6.111268997E0
6.200972414E0,-1.000199914E0,7.208677292E0,7.439285755E0
6.220972414E0,-2.659024298E-1,7.534101009E0,7.336394310E0
6.240972414E0,2.772683203E-1,7.768597603E0,7.154539585E0
6.260972414E0,2.820539773E-1,7.701598644E0,7.123433113E0
6.280972414E0,-3.017947674E-1,7.548458099E0,7.439285755E0
6.300972414E0,-9.738788009E-1,7.455138206E0,8.044370651E0
6.320972414E0,-3.855435550E-1,7.132106781E0,8.522934914E0
6.340972414E0,4.734797776E-1,7.160820961E0,7.609176159E0
6.360972414E0,6.361917257E-1,7.541279793E0,7.099504948E0
6.380972414E0,3.586242795E-1,8.050951004E0,7.015756130E0
6.400972414E0,3.610171080E-1,7.869096279E0,7.659425259E0
6.420972414E0,7.486543655E-1,7.371389389E0,8.910572052E0
6.440972414E0,1.815853238E0,6.859325409E0,1.093460083E1
6.460972414E0,1.815853238E0,6.859325409E0,1.093460083E1
6.480972414E0,2.562114954E0,6.507580280E0,1.037019444E1
6.500972414E0,1.935494423E0,6.419045925E0,9.322137833E0
6.520972414E0,1.129113197E0,6.457331181E0,8.424829483E0
6.540972414E0,5.356931686E-1,6.282654762E0,7.690532207E0
6.560972414E0,1.241276711E-1,6.081956863E0,7.231110096E0
6.580972414E0,1.648056656E-1,6.136991978E0,6.826723099E0
6.600972414E0,3.634099364E-1,5.890531063E0,6.565905571E0
6.620972414E0,2.413759828E-1,5.651248932E0,6.168696880E0
6.640972414E0,-5.533402413E-2,5.445466042E0,5.804987907E0
6.660972414E0,-3.448655605E-1,5.242076397E0,5.503491879E0
6.680972414E0,-4.429712892E-1,4.957330227E0,5.285745144E0
6.700972414E0,-9.601201117E-2,4.969294548E0,5.073082924E0
6.720972414E0,2.844468057E-1,5.024329185E0,4.941477776E0
6.740972414E0,3.873381615E-1,5.024329185E0,4.850550652E0
6.760972414E0,-2.691925503E-3,5.124827862E0,4.852943420E0
6.780972414E0,-6.248258352E-1,5.196612358E0,5.027619362E0
6.800972414E0,-1.000199914E0,5.383252621E0,5.247459888E0
6.820972414E0,-5.554339290E-1,6.297011852E0,5.840879917E0
6.840972414E0,1.815554202E-1,6.715755939E0,6.128018856E0
6.860972414E0,6.625127792E-1,6.971787930E0,6.446264267E0
6.880972414E0,6.720840335E-1,6.952645302E0,6.652047157E0
6.900972414E0,8.105687052E-2,6.916752815E0,6.855436802E0
6.920972414E0,-6.774678826E-1,7.045965195E0,6.678368092E0
6.940972414E0,-9.690931439E-1,7.572386265E0,6.302694798E0
6.960972414E0,-5.650052428E-1,7.806882858E0,6.419943333E0
6.980972414E0,-3.137588799E-1,7.720741272E0,6.781259537E0
7.000972414E0,-5.386841893E-1,7.502994537E0,7.295716286E0
7.020972414E0,-1.110269666E0,7.421638489E0,7.791030407E0
7.040972414E0,-1.533799291E0,7.421638489E0,8.070692062E0
7.060972414E0,-1.483550072E0,7.464709282E0,8.314759254E0
7.080972414E0,-1.246660590E0,7.567600727E0,8.357830048E0
7.100972414E0,-1.564906001E0,7.749455452E0,8.405686378E0
7.120972414E0,-1.837687731E0,8.015058517E0,8.721539497E0
7.140972414E0,-1.751546144E0,8.060522079E0,9.326923370E0
7.160972414E0,-1.476371527E0,7.742276669E0,1.031515884E1
7.180972414E0,-1.136590719E0,7.141678333E0,1.105663490E1
7.200972414E0,-9.284151793E-1,6.105885029E0,9.903594017E0
7.220972414E0,-1.227517962E0,6.031707764E0,8.235795975E0
7.240972414E0,-1.406979680E0,5.842674732E0,7.061219692E0
7.260972414E0,-1.215553880E0,5.426323414E0,7.085147858E0
7.280972414E0,-9.690931439E-1,4.797011375E0,7.958528042E0
7.300972414E0,-9.595218897E-1,4.320839405E0,8.951250076E0
7.320972414E0,-1.124626637E0,4.741976261E0,8.199904442E0
7.340972414E0,-1.071984529E0,5.311468124E0,6.637690067E0
7.360972414E0,-9.882357717E-1,5.651248932E0,5.149354458E0
7.380972414E0,-1.031306505E0,5.636891842E0,4.333701134E0
7.400972414E0,-1.411765337E0,5.455037594E0,4.455734730E0
7.420972414E0,-1.806581140E0,5.246861935E0,5.307280540E0
7.440972414E0,-1.938186288E0,5.134399414E0,6.228517532E0
7.460972414E0,-1.871187329E0,4.966901779E0,6.525227547E0
7.480972414E0,-2.129612207E0,5.222933769E0,6.068198204E0
7.500972414E0,-2.502892494E0,5.390431404E0,5.977271080E0
7.520972414E0,-2.660818815E0,5.529214859E0,6.264409542E0
7.540972414E0,-2.397608280E0,5.555535793E0,6.781259537E0
7.560972414E0,-1.861616015E0,5.679962635E0,6.960721016E0
7.580972414E0,-1.067198873E0,6.299404621E0,6.111268997E0
7.600972414E0,-9.858429432E-1,6.478866577E0,5.757131100E0
7.620972414E0,-1.012163997E0,6.565008163E0,5.699703693E0
7.640972414E0,-1.201196909E0,6.787540436E0,5.907878876E0
7.660972414E0,-1.146162033E0,7.144071102E0,6.451049805E0
7.680972414E0,-8.569296002E-1,7.373782158E0,7.010970116E0
7.700972414E0,-1.319043487E-1,7.565207958E0,8.211868286E0
7.720972414E0,1.217348501E-1,7.380960464E0,8.771788597E0
7.740972414E0,1.645065658E-2,6.957430840E0,8.929715157E0
7.760972414E0,-3.017947674E-1,6.811468601E0,8.901000977E0
7.780972414E0,-4.070789516E-1,7.022037029E0,8.920144081E0
7.800972414E0,-2.300100774E-1,7.165606499E0,9.367601395E0
7.820972414E0,-2.300100774E-1,7.165606499E0,9.367601395E0
7.840972414E0,1.760818362E0,5.756533146E0,1.181276703E1
7.860972414E0,1.679462433E0,5.591428280E0,1.172183990E1
7.880972414E0,1.389930844E0,5.926423550E0,1.052572727E1
7.900972414E0,1.251147151E0,6.366403580E0,8.834002495E0
7.920972414E0,1.425823212E0,6.596114635E0,7.523034573E0
7.940972414E0,1.818246126E0,6.483652115E0,7.381857872E0
7.960972414E0,1.739282966E0,5.041079044E0,9.121140480E0
7.980972414E0,9.113663435E-1,4.557728767E0,9.554242134E0
8.000972414E0,1.671984792E-1,4.344767570E0,8.843573570E0
8.020972414E0,-2.252244353E-1,4.196412563E0,7.365108013E0
8.040972414E0,-4.932205677E-1,4.416552544E0,5.728417397E0
8.060972414E0,-5.458626747E-1,4.722833633E0,4.706981182E0
8.080972414E0,7.414759398E-1,4.483551502E0,5.690132141E0
8.100972414E0,9.807581902E-1,4.249054909E0,6.716653347E0
8.120972414E0,6.074778438E-1,4.272983074E0,7.061219692E0
8.140972414E0,2.509472668E-1,4.390231133E0,6.611369133E0
8.160972414E0,5.952146277E-2,4.636692047E0,5.855237007E0
8.180972414E0,6.669992954E-2,4.995615482E0,5.099104881E0
8.200972414E0,3.442673683E-1,5.478965759E0,5.259424210E0
8.220972414E0,-3.858426586E-2,5.715855122E0,6.128018856E0
8.240972414E0,-3.376871049E-1,5.878567219E0,7.243073940E0
8.260972414E0,-5.721837282E-1,6.010172367E0,8.077870369E0
8.280972414E0,-7.851449251E-1,6.246762753E0,8.422436714E0
8.300972414E0,-7.875377536E-1,6.562615395E0,8.058727264E0
8.320972414E0,1.576570988E0,7.526922703E0,7.534998417E0
8.340972414E0,2.052443504E0,8.194519997E0,7.257431030E0
8.360972414E0,1.756032705E0,7.680063248E0,7.015756130E0
8.380972414E0,3.083750308E-1,7.232605457E0,7.051648140E0
8.400972414E0,-6.750751138E-1,6.833003998E0,7.324429989E0
8.420972414E0,-9.762716293E-1,6.287440777E0,7.345965385E0
8.440972414E0,-9.212366939E-1,6.041278839E0,7.575676441E0
8.460972414E0,-6.320042610E-1,6.139384747E0,7.889136314E0
8.480972414E0,-3.616153300E-1,6.622435570E0,7.788637638E0
8.500972414E0,-6.272186637E-1,6.813861370E0,7.276573658E0
8.520972414E0,-1.268195987E0,7.151249409E0,7.089933395E0
8.540972414E0,-1.844866276E0,7.431210041E0,7.680960655E0
8.560972414E0,-2.000399828E0,7.167999268E0,8.857930183E0
8.580972414E0,-1.959721804E0,6.383153439E0,1.148016453E1
8.600972414E0,-1.615155339E0,5.653641701E0,1.222433281E1
8.620972414E0,-1.179661512E0,4.995615482E0,1.194437218E1
8.640972414E0,-8.784649968E-1,4.718048096E0,1.057358456E1
8.660972414E0,-8.949156404E-1,4.947759151E0,8.836395264E0
8.680972414E0,-8.569296002E-1,5.029115200E0,7.757531166E0
8.700972414E0,-5.386841893E-1,4.615156651E0,9.190532684E0
8.720972414E0,-2.419741899E-1,4.409373760E0,9.819845200E0
8.740972414E0,-2.946162820E-1,4.488337040E0,9.245567322E0
8.760972414E0,-4.094717801E-1,4.691727161E0,7.860422611E0
8.780972414E0,-4.310071766E-1,4.880760193E0,6.482156754E0
8.800972414E0,-5.434698462E-1,5.170291424E0,5.678168297E0
8.820972414E0,-8.829515576E-1,5.136792183E0,5.840879917E0
8.840972414E0,-1.873580098E0,4.686941147E0,6.987041950E0
8.860972414E0,-1.923829436E0,4.538586140E0,6.841079712E0
8.880972414E0,-2.012363911E0,4.531407833E0,6.185446739E0
8.900972414E0,-2.041077614E0,4.624728203E0,5.819344521E0
8.920972414E0,-1.864008784E0,4.777868748E0,5.771488190E0
8.940972414E0,-1.445264935E0,5.005186558E0,6.082555294E0
8.960972414E0,-9.906286001E-1,5.840281963E0,6.558726788E0
8.980972414E0,-8.853443861E-1,6.151049614E0,6.620940208E0
9.000972414E0,-5.961119533E-1,6.256333828E0,6.458228111E0
9.020972414E0,-4.262215197E-1,6.301797390E0,6.460621357E0
9.040972414E0,-3.735794425E-1,6.282654762E0,6.668796539E0
9.060972414E0,-4.668995142E-1,6.471687794E0,7.209574699E0
9.080972414E0,1.863410622E-1,7.156035423E0,8.128119469E0
9.100972414E0,6.122635007E-1,7.407281399E0,8.058727264E0
9.120972414E0,7.247261405E-1,7.608278751E0,8.231010437E0
9.140972414E0,7.486543655E-1,7.440781116E0,8.865108490E0
9.160972414E0,8.419744968E-1,7.067500591E0,1.006869888E1
9.180972414E0,1.081256747E0,7.129714012E0,1.070279694E1
9.200972414E0,1.557428479E0,6.672685146E0,9.817452431E0
9.220972414E0,1.301396370E0,6.454938412E0,9.326923370E0
9.240972414E0,1.583749533E0,6.490830421E0,9.401101112E0
9.260972414E0,1.834995866E0,5.770890236E0,9.724132538E0
9.280972414E0,1.909173369E0,5.323431969E0,9.898808479E0
9.300972414E0,1.863709688E0,4.794618607E0,9.609276772E0
9.320972414E0,1.349252820E0,4.201198578E0,9.116354942E0
9.340972414E0,1.349252820E0,4.875974178E0,8.132905006E0
9.360972414E0,1.552642822E0,5.024329185E0,8.161619186E0
9.380972414E0,1.464108348E0,5.234897614E0,8.025228500E0
9.400972414E0,1.263111234E0,5.199005604E0,7.659425259E0
9.420972414E0,1.057328463E0,5.263611794E0,7.391428947E0
9.440972414E0,4.758726060E-1,4.904688358E0,7.401000500E0
9.460972414E0,-5.338985324E-1,4.694119930E0,7.637889862E0
9.480972414E0,-2.108674943E-1,4.696512699E0,7.604390144E0
9.500972414E0,2.629113793E-1,4.670191765E0,6.896114826E0
9.520972414E0,1.105184913E0,5.148756027E0,5.761917114E0
9.540972414E0,3.021536827E0,5.830710411E0,4.630411148E0
9.560972414E0,3.270390272E0,6.060421467E0,4.635196686E0
9.580972414E0,3.921238184E-1,4.830510616E0,5.934200287E0
9.600972414E0,3.825525343E-1,4.969294548E0,6.075376511E0
9.620972414E0,9.041878581E-1,5.407180786E0,6.154339790E0
9.640972414E0,1.028614640E0,5.495715618E0,6.099305153E0
9.660972414E0,4.686941206E-1,5.455037594E0,6.130411625E0
9.680972414E0,-3.687937856E-1,5.651248932E0,6.168696880E0
9.700972414E0,3.921238184E-1,6.062814236E0,7.185646534E0
9.720972414E0,1.002293587E0,6.588936329E0,7.542177200E0
9.740972414E0,1.538285851E0,6.713363171E0,7.369893551E0
9.760972414E0,1.629213095E0,6.603293419E0,6.809973240E0
9.780972414E0,1.243968725E0,6.586543560E0,6.132804394E0
9.800972414E0,9.687940478E-1,6.835396767E0,5.891129494E0
9.820972414E0,8.587242365E-1,7.225427151E0,5.879165173E0
9.840972414E0,1.997707844E0,7.668099403E0,7.456035137E0
9.860972414E0,2.088335991E0,7.931309700E0,9.173783302E0
9.880972414E0,1.655534148E0,7.902595997E0,9.836594582E0
9.900972414E0,1.528714538E0,7.498209000E0,9.257532120E0
9.920972414E0,1.595713615E0,7.112964630E0,8.601898193E0
9.940972414E0,2.234298229E0,7.074679375E0,8.475078583E0
9.960972414E0,2.538186550E0,6.833003998E0,9.783952713E0
9.980972414E0,1.686640859E0,6.105885029E0,9.688240051E0
1.000097241E1,1.057328463E0,5.426323414E0,8.097012520E0
1.002097241E1,7.247261405E-1,5.184648514E0,7.700103283E0
1.004097241E1,1.351645708E0,5.170291424E0,9.314959526E0
1.006097241E1,2.002493382E0,5.383252621E0,9.695418358E0
1.011719762E1,2.365903378E0,6.835396767E0,1.053529930E1
1.013719762E1,1.890030742E0,6.914360046E0,9.307781219E0
1.015719762E1,1.492822170E0,7.002894402E0,5.950950146E0
1.017719762E1,2.741576433E0,7.232605457E0,3.606282711E0
1.019719762E1,3.583850145E0,7.266105175E0,4.163810730E0
1.021719762E1,2.933002472E0,7.163213730E0,5.249852657E0
1.023719762E1,2.224726915E0,6.926324368E0,6.288337708E0
1.025719762E1,1.093220830E0,6.837790012E0,7.886743546E0
1.027719762E1,1.263111234E0,7.053143978E0,7.475177765E0
1.029719762E1,1.753639936E0,7.625028610E0,5.977271080E0
1.031719762E1,2.258226395E0,7.361817837E0,5.120640278E0
1.033719762E1,1.689033628E0,7.287640572E0,5.405386448E0
1.035719762E1,1.184148073E0,7.208677292E0,5.553741455E0
1.037719762E1,4.519443810E-1,7.572386265E0,5.950950146E0
1.039719762E1,3.155534863E-1,7.675277710E0,6.673582554E0
1.041719762E1,4.208376706E-1,7.708777428E0,6.297909260E0
1.043719762E1,4.878367186E-1,7.414460182E0,6.247660160E0
1.045719762E1,1.045364380E0,6.950252533E0,6.539584160E0
1.047719762E1,1.227218866E0,7.435995579E0,5.984449387E0
1.049719762E1,1.715354681E0,7.203891754E0,6.400800705E0
1.051719762E1,1.188933730E0,7.225427151E0,5.474778175E0
1.053719762E1,1.456630826E-1,8.407481194E0,4.218845367E0
1.055719762E1,4.755735025E-2,8.553443909E0,4.290630341E0
1.057719762E1,1.624128371E-1,8.560622215E0,5.565705299E0
1.059719762E1,8.344969153E-2,8.797511101E0,6.941578388E0
1.061719762E1,2.653042078E-1,8.555836678E0,8.085048676E0
1.063719762E1,5.476573110E-1,8.606085777E0,8.199904442E0
1.065719762E1,5.572285652E-1,8.744869232E0,7.858029366E0
1.067719762E1,7.821539044E-1,8.826225281E0,7.944170952E0
1.069719762E1,1.440180182E0,8.256733894E0,8.451150894E0
1.071719762E1,1.650748491E0,7.610671520E0,9.090034485E0
1.073719762E1,1.497607827E0,7.364210606E0,9.487242699E0
1.075719762E1,1.019043326E0,7.610671520E0,9.762416840E0
1.077719762E1,4.567300081E-1,7.261319637E0,1.008066273E1
1.079719762E1,-1.989033818E-1,6.897610188E0,1.057597733E1
1.081719762E1,-2.180459648E-1,6.574579239E0,1.068604660E1
1.083719762E1,1.121635586E-1,5.981458187E0,1.070279694E1
1.085719762E1,1.360917836E-1,5.679962635E0,1.050897789E1
1.087719762E1,1.815554202E-1,5.423930645E0,9.841380119E0
1.089719762E1,-3.616153300E-1,5.287539959E0,9.078069687E0
1.091719762E1,-1.048056364E0,5.266004562E0,8.628219604E0
1.093719762E1,-1.395015597E0,5.103292465E0,8.123333931E0
1.095719762E1,-1.378265858E0,4.921437740E0,7.259823799E0
1.097719762E1,-1.129412293E0,5.009972572E0,6.455835342E0
1.099719762E1,-8.784649968E-1,5.043471813E0,5.826523304E0
1.101719762E1,-8.925228715E-1,5.170291424E0,5.611168861E0
1.103719762E1,-9.690931439E-1,5.057828903E0,5.367101192E0
1.105719762E1,-1.182054400E0,5.000401020E0,5.505885124E0
1.107719762E1,-1.392622828E0,5.153541565E0,5.867201328E0
1.109719762E1,-1.387837172E0,5.330610752E0,6.209374905E0
1.111719762E1,-9.930213690E-1,5.560321808E0,6.278766632E0
1.113719762E1,-4.956133962E-1,5.924030781E0,6.281159401E0
1.115719762E1,-1.725823283E-1,6.129813194E0,6.072983742E0
1.117719762E1,1.576271951E-1,6.392724991E0,6.044270039E0
1.119719762E1,3.155534863E-1,6.576972008E0,6.259624004E0
1.121719762E1,2.485544533E-1,6.809075832E0,6.855436802E0
1.123719762E1,2.126621157E-1,6.708577156E0,7.970492363E0
1.125719762E1,-1.271187067E-1,7.443173885E0,9.235996246E0
1.127719762E1,-2.802593410E-1,8.206484795E0,8.472685814E0
1.129719762E1,-1.342971772E-1,8.644371033E0,8.577970505E0
1.131719762E1,-3.783650696E-1,9.086744308E0,9.125926018E0
1.133719762E1,-5.533402413E-2,8.218448639E0,1.047787094E1
1.135719762E1,2.365903407E-1,7.098607540E0,1.094656563E1
1.137719762E1,-3.017947674E-1,6.837790012E0,9.719346046E0
1.139719762E1,-8.282157183E-1,7.273283482E0,7.690532207E0
1.141719762E1,-6.152545214E-1,7.445566654E0,6.764509678E0
1.143719762E1,-2.012962103E-1,6.821040154E0,6.879364967E0
1.145719762E1,4.037888348E-2,6.390331745E0,7.372286797E0
1.147719762E1,-1.366899908E-1,6.196513176E0,6.800402164E0
1.149719762E1,-6.415755749E-1,6.234798431E0,5.501099110E0
1.151719762E1,-9.595218897E-1,6.320940018E0,5.125426292E0
1.153719762E1,-7.636095285E-1,6.237191200E0,4.369593143E0
1.155719762E1,-7.851449251E-1,5.177470207E0,4.494019985E0
1.157719762E1,-1.411765337E0,6.301797390E0,5.647061348E0
1.159719762E1,-1.170090318E0,5.390431404E0,5.757131100E0
1.161719762E1,-9.020941257E-1,5.050650597E0,5.268995285E0
1.163719762E1,-1.213161111E0,5.361717224E0,4.659124851E0
1.165719762E1,-1.500299811E0,5.608178139E0,3.685245991E0
1.167719762E1,-1.459621787E0,5.976672649E0,3.539283752E0
1.169719762E1,-1.100698471E0,7.048357964E0,3.532105207E0
1.171719762E1,-8.901300430E-1,7.703991413E0,3.386143208E0
1.173719762E1,-1.009771109E0,8.003094673E0,3.879064560E0
1.175719762E1,-1.241874933E0,8.302197456E0,4.757230282E0
1.177719762E1,-6.296114326E-1,7.931309700E0,6.151947021E0
1.179719762E1,-2.084746659E-1,7.648956776E0,7.032505512E0
1.181719762E1,-7.348956466E-1,8.450551987E0,6.398407936E0
1.183719762E1,-1.447657704E0,9.036793709E0,5.883950710E0
1.185719762E1,-1.785045743E0,9.077172279E0,5.582455158E0
1.187719762E1,-1.328016520E0,8.924330711E0,6.061019897E0
1.189719762E1,-8.425726891E-1,8.754440308E0,6.776473522E0
1.191719762E1,-8.425726891E-1,8.665905952E0,7.621140003E0
1.193719762E1,-1.217946768E0,8.708976746E0,7.649854183E0
1.195719762E1,-1.966900229E0,8.898010254E0,7.439285755E0
1.197719762E1,-2.481357098E0,9.213563919E0,7.372286797E0
1.199719762E1,-2.237289190E0,8.881259918E0,8.195118904E0
1.201719762E1,-1.483550072E0,8.082057953E0,9.123533249E0
1.203719762E1,-1.227517962E0,7.483851910E0,9.917950630E0
1.205719762E1,-9.906286001E-1,6.758826733E0,9.549455643E0
1.207719762E1,-1.024128079E0,6.239583969E0,8.427222252E0
1.209719762E1,-1.213161111E0,6.182156563E0,6.977470875E0
1.211719762E1,-1.246660590E0,6.174977779E0,6.027520180E0
1.213719762E1,-9.451649189E-1,6.419045925E0,5.826523304E0
1.215719762E1,-6.104688644E-1,6.220441341E0,5.874379635E0
1.217719762E1,-5.578267574E-1,6.041278839E0,5.290530682E0
1.219719762E1,-8.210372925E-1,6.012565136E0,4.336093903E0
1.221719762E1,-1.313659668E0,5.909673691E0,3.355036497E0
1.223719762E1,-1.775474429E0,5.758925915E0,2.775973320E0
1.225719762E1,-2.148754835E0,5.775675774E0,2.728116989E0
1.227719762E1,-2.258824587E0,5.751747608E0,2.792723179E0
1.229719762E1,-2.577069998E0,6.043671608E0,3.338286638E0
1.231719762E1,-2.816352367E0,6.364010811E0,3.950849295E0
1.233719762E1,-3.053241730E0,6.766005039E0,4.494019985E0
1.235719762E1,-3.122633457E0,7.077072144E0,4.788337231E0
1.237719762E1,-3.007778168E0,7.443173885E0,4.718945503E0
1.239719762E1,-2.852244616E0,8.019844055E0,4.479662895E0
1.241719762E1,-2.318645239E0,8.615656853E0,4.644767761E0
1.243719762E1,-1.864008784E0,9.029615402E0,5.025226593E0
1.245719762E1,-1.921436548E0,9.457631111E0,5.979663849E0
1.247719762E1,-1.923829436E0,9.845269203E0,7.221538544E0
1.249719762E1,-1.476371527E0,9.940981865E0,9.231210709E0
1.251719762E1,-8.736793399E-1,9.203991890E0,9.996913910E0
1.253719762E1,-7.013961077E-1,8.967401505E0,9.149854660E0
1.255719762E1,-8.377870321E-1,9.775876999E0,8.245368004E0
1.257719762E1,2.629113793E-1,9.388239861E0,8.420043945E0
1.259719762E1,1.229611754E0,8.067700386E0,9.666704178E0
1.261719762E1,2.028814554E0,6.938288212E0,1.000409222E1
1.263719762E1,1.834995866E0,6.567400932E0,8.386544228E0
1.265719762E1,6.720840335E-1,7.029215813E0,6.257231236E0
1.267719762E1,-1.606182158E-1,6.833003998E0,4.065704823E0
1.269719762E1,-4.740779996E-1,6.634399891E0,3.378964663E0
1.271719762E1,-6.678966284E-1,6.526722908E0,3.436392307E0
1.273719762E1,-1.170090318E0,6.766005039E0,4.360022068E0
1.275719762E1,-1.720439434E0,7.309175968E0,5.118247509E0
1.277719762E1,-1.761117458E0,7.239784241E0,5.513063431E0
1.279719762E1,-1.567298889E0,6.871289253E0,5.740381718E0
1.281719762E1,-1.105484009E0,6.548258305E0,5.276174068E0
1.283719762E1,-7.277171612E-1,6.244369984E0,4.910371304E0
1.285719762E1,-7.923234105E-1,6.177370548E0,4.120739460E0
1.287719762E1,-1.490728498E0,6.627221584E0,3.479463339E0
1.289719762E1,-2.096112728E0,7.048357964E0,3.551247835E0
1.291719762E1,-2.129612207E0,6.926324368E0,4.151846409E0
1.293719762E1,-1.983649969E0,6.900003433E0,4.836193562E0
1.295719762E1,-1.801795483E0,7.127321243E0,5.319244862E0
1.297719762E1,-1.916650891E0,7.792526245E0,5.589633465E0
1.299719762E1,-2.342573404E0,8.574978828E0,6.049055576E0
1.301719762E1,-2.694318295E0,9.146564484E0,7.688138962E0
1.303719762E1,-2.971885681E0,9.857233047E0,9.843772888E0
1.305719762E1,-3.448057413E0,9.976874352E0,1.137009525E1
1.307719762E1,-1.313659668E0,7.744669437E0,1.021226788E1
1.309719762E1,-6.966105103E-1,6.773183823E0,6.841079712E0
1.311719762E1,-1.629512191E0,8.204091072E0,3.022433996E0
1.313719762E1,-1.990828395E0,9.101100922E0,1.460219979E0
1.315719762E1,-3.517449379E0,9.101100922E0,4.429413795E0
1.317719762E1,-3.840181351E0,7.964809418E0,7.554141045E0
1.319719762E1,-3.139383316E0,6.189334869E0,9.819845200E0
1.321719762E1,-3.060420275E0,4.454837322E0,8.807681084E0
1.323719762E1,-3.522234917E0,4.622334957E0,6.137589931E0
1.325719762E1,-2.921636343E0,4.490729809E0,4.036991119E0
1.327719762E1,-2.263610125E0,4.313661098E0,3.364607811E0
1.329719762E1,-3.567698479E0,4.840082169E0,4.096811295E0
1.331719762E1,-4.282853603E0,5.122435093E0,5.965306759E0
1.333719762E1,-3.534198999E0,4.643870354E0,7.360322475E0
1.335719762E1,-2.991028309E0,4.744369030E0,7.783852100E0
1.337719762E1,-2.531606436E0,5.811567783E0,6.860222340E0
1.339719762E1,-2.371287346E0,6.395117760E0,5.237888813E0
1.341719762E1,-2.519642353E0,7.103393078E0,4.051347733E0
1.343719762E1,-2.467000246E0,7.177570820E0,3.654139280E0
1.345719762E1,-2.498106956E0,7.184749126E0,4.436592102E0
1.347719762E1,-1.931007862E0,7.101000309E0,5.491528034E0
1.349719762E1,-9.068797827E-1,7.043572426E0,6.259624004E0
1.351719762E1,8.344969153E-2,7.187141895E0,6.518048763E0
1.353719762E1,5.548357368E-1,7.359425068E0,6.350551128E0
1.355719762E1,-1.654038578E-1,7.584350586E0,5.783452511E0
1.357719762E1,-1.371087432E0,7.648956776E0,5.079962254E0
1.359719762E1,-2.210968018E0,8.053343773E0,5.168497086E0
1.361719762E1,-2.579462767E0,8.216055870E0,6.139982700E0
1.363719762E1,-2.833101988E0,8.484051704E0,7.544569969E0
1.365719762E1,-3.031706333E0,7.830811024E0,8.527720451E0
1.367719762E1,-4.024428368E0,8.330910683E0,8.046763420E0
1.369719762E1,-4.244568348E0,8.740083694E0,7.822137356E0
1.371719762E1,-3.778266907E0,8.613264084E0,8.365009308E0
1.373719762E1,-1.952543259E0,8.141878128E0,1.043719292E1
1.375719762E1,1.193420291E-1,7.325925827E0,1.139880848E1
1.377719762E1,1.363609791E0,6.478866577E0,1.120738316E1
1.379719762E1,3.921238184E-1,6.789933205E0,9.369994164E0
1.381719762E1,-6.439684033E-1,7.297211647E0,6.843472958E0
1.383719762E1,-5.386841893E-1,6.727719784E0,5.446064472E0
1.385719762E1,1.169492081E-1,6.141777515E0,5.259424210E0
1.387719762E1,-1.893320978E-1,6.452545166E0,5.812166214E0
1.389719762E1,-5.554339290E-1,7.115357399E0,6.707081795E0
1.391719762E1,-6.251249462E-2,6.694220543E0,7.566105366E0
1.393719762E1,3.897309899E-1,6.206084728E0,8.065905571E0
1.395719762E1,3.370888829E-1,5.888138294E0,8.281260490E0
1.397719762E1,3.825525343E-1,5.945566177E0,7.051648140E0
1.399719762E1,2.222333997E-1,6.483652115E0,5.295316696E0
1.401719762E1,4.277170449E-2,6.687041759E0,4.214059830E0
1.403719762E1,-7.686942816E-2,6.622435570E0,4.515555382E0
1.405719762E1,5.333003402E-1,6.026922226E0,5.548955917E0
1.407719762E1,9.544371367E-1,4.823332310E0,7.970492363E0
1.409719762E1,-8.901300430E-1,4.691727161E0,8.214261055E0
1.411719762E1,-2.950350285E0,5.493322372E0,6.585047722E0
1.413719762E1,-3.856930971E0,6.524330139E0,3.723531246E0
1.415719762E1,-3.072384357E0,6.766005039E0,1.936391711E0
1.417719762E1,-2.017149448E0,7.419245720E0,2.436192513E0
1.419719762E1,-1.560120344E0,7.861917973E0,4.233202457E0
1.421719762E1,-1.170090318E0,8.043772697E0,6.130411625E0
1.423719762E1,-1.024128079E0,7.591528893E0,7.082755089E0
1.425719761E1,-1.935793519E0,7.519744396E0,6.958328247E0
1.427719762E1,-2.373680115E0,8.354839325E0,6.506084919E0
1.429719762E1,-1.517049551E0,8.481658936E0,5.819344521E0
1.431719762E1,-7.875377536E-1,8.448159218E0,5.280959606E0
1.433719762E1,-1.354337573E0,8.802297592E0,5.206781864E0
1.435719762E1,-2.368894339E0,9.168100357E0,5.479563713E0
1.437719762E1,-2.926422119E0,9.032008171E0,6.027520180E0
1.439719762E1,-2.888136864E0,8.457730293E0,6.979863644E0
1.441719762E1,-2.232503414E0,7.352246761E0,8.092226982E0
1.443719762E1,-2.605783939E0,5.959922791E0,9.537491798E0
1.445719762E1,-3.629911900E0,4.744369030E0,1.048026371E1
1.447719762E1,-3.148954630E0,5.019543648E0,9.827023506E0
1.449719762E1,-1.277767301E0,5.569892883E0,7.369893551E0
1.451719762E1,-1.941177398E-1,6.507580280E0,4.683053017E0
1.453719762E1,-5.267201066E-1,7.258926392E0,3.998705626E0
1.455719762E1,-1.031306505E0,6.935895443E0,4.697410107E0
1.457719762E1,-1.375872970E0,6.440581322E0,5.821737289E0
1.459719762E1,-2.189432621E0,6.428617001E0,5.737988472E0
1.461719762E1,-2.340180635E0,6.450152397E0,5.211567879E0
1.463719762E1,-2.213361025E0,6.478866577E0,4.709373951E0
1.465719762E1,-1.509871125E0,6.521937370E0,4.649553299E0
1.467719762E1,-8.425726891E-1,6.423831463E0,4.642374992E0
1.469719762E1,-6.966105103E-1,6.306583405E0,4.936692238E0
1.471719762E1,-1.253839016E0,6.342475414E0,5.049154758E0
1.473719762E1,-1.854437590E0,6.608078957E0,5.027619362E0
1.475719762E1,-1.708475351E0,7.567600727E0,5.182853699E0
1.477719762E1,-5.985047817E-1,8.091629028E0,4.982155800E0
1.479719762E1,1.169492081E-1,8.711369514E0,5.309673309E0
1.481719762E1,4.686941206E-1,8.630014420E0,6.979863644E0
1.483719762E1,4.064807594E-1,8.318946838E0,8.360222816E0
1.485719762E1,-3.379862010E-2,8.723334312E0,8.068299294E0
1.487719762E1,-3.161516786E-1,9.601201057E0,7.774280548E0
1.489719762E1,1.935195327E-1,9.893125534E0,7.783852100E0
1.491719762E1,1.466501236E0,8.929117203E0,9.200103760E0
1.493719762E1,1.763211131E0,7.660920620E0,1.011176968E1
1.495719762E1,6.744768620E-1,6.947859764E0,1.032233810E1
1.497719762E1,-5.769693851E-1,6.620042801E0,9.336494446E0
1.499719762E1,-7.037889361E-1,6.182156563E0,7.975277901E0
1.501719762E1,-5.533402413E-2,5.873781204E0,7.025327206E0
1.503719762E1,8.180462122E-1,5.746961594E0,6.707081795E0
1.505719762E1,5.021936297E-1,6.105885029E0,6.460621357E0
1.507719762E1,1.528415531E-1,6.273083687E0,6.427121639E0
1.509719762E1,-1.465603895E-2,6.184549332E0,6.372086525E0
1.511719762E1,2.602194622E-2,5.983851433E0,5.900700569E0
1.513719762E1,3.107678294E-1,5.773283005E0,5.414957523E0
1.515719762E1,6.529414654E-1,5.423930645E0,5.182853699E0
1.517719762E1,8.754739761E-1,5.505286694E0,5.505885124E0
1.519719762E1,9.113663435E-1,5.672784328E0,5.335994720E0
1.521719762E1,6.529414654E-1,5.873781204E0,5.194818020E0
1.523719762E1,2.629113793E-1,5.835496426E0,5.022833824E0
1.525719762E1,-2.515454888E-1,5.711069584E0,4.745266438E0
1.527719762E1,-6.846463680E-1,6.421438694E0,4.082454681E0
1.529719762E1,-6.607181430E-1,7.294818878E0,3.522534132E0
1.531719762E1,-4.429712892E-1,8.046165466E0,3.754637718E0
1.533719762E1,-2.183450572E-2,8.242376328E0,5.340780258E0
1.535719762E1,6.191428751E-2,7.806882858E0,7.381857872E0
1.537719762E1,-4.453641176E-1,7.629814148E0,9.224032402E0
1.539719762E1,-7.612167001E-1,7.811668396E0,9.791131020E0
1.541719762E1,-4.477569461E-1,7.926524162E0,8.838788033E0
1.543719762E1,-4.405784607E-1,8.117949486E0,7.700103283E0
1.545719762E1,-7.636095285E-1,8.177770615E0,6.872186661E0
1.547719762E1,-1.237089276E0,8.362017632E0,7.298109055E0
1.549719762E1,-1.323230863E0,8.094021797E0,8.755039215E0
1.551719762E1,-1.208375454E0,7.445566654E0,1.036540890E1
1.553719762E1,-1.172483087E0,6.880860806E0,1.087747288E1
1.555719762E1,-1.261017561E0,6.383153439E0,1.018116093E1
1.557719762E1,-1.392622828E0,6.251548290E0,8.707182884E0
1.559719762E1,-1.155733347E0,6.160621166E0,7.238288403E0
1.561719762E1,-6.750751138E-1,5.957530022E0,6.790830612E0
1.563719762E1,-5.697908998E-1,5.586642742E0,7.379465103E0
1.565719762E1,-9.403793216E-1,5.163113117E0,8.257331848E0
1.567719762E1,-1.567298889E0,5.146363258E0,8.398508072E0
1.569719762E1,-1.914258122E0,5.184648514E0,7.278966427E0
1.571719762E1,-1.959721804E0,5.435894966E0,5.678168297E0
1.573719762E1,-1.708475351E0,5.794818401E0,4.470091820E0
1.575719762E1,-1.213161111E0,5.837889194E0,3.924528122E0
1.577719762E1,-1.165304661E0,5.830710411E0,4.240380764E0
1.579719762E1,-1.454836130E0,5.600999832E0,4.989334106E0
1.581719762E1,-1.560120344E0,5.584249973E0,5.802595139E0
1.583719762E1,-1.280160069E0,5.837889194E0,6.616154671E0
1.585719762E1,-9.332008362E-1,5.979065418E0,6.699903488E0
1.587719762E1,-1.160519004E0,6.294619083E0,5.606383324E0
1.589719762E1,-1.495514154E0,6.823432922E0,4.678267479E0
1.591719762E1,-1.639083505E0,7.163213730E0,4.589733124E0
1.593719762E1,-1.557727575E0,7.636992455E0,5.675775528E0
1.595719762E1,-1.194018483E0,7.737491131E0,6.979863644E0
1.597719762E1,-6.918248534E-1,8.275876045E0,8.027621269E0
1.599719762E1,-5.294119939E-2,8.443373680E0,8.333902359E0
1.601719762E1,-2.901297435E-2,8.292626381E0,7.977670670E0
1.603719762E1,-5.506483316E-1,8.574978828E0,7.312466145E0
1.605719762E1,-3.807578981E-1,8.866903305E0,7.415357590E0
1.607719762E1,3.155534863E-1,8.907581329E0,8.312366486E0
1.609719762E1,1.837388635E0,7.952845097E0,1.000887775E1
1.611719762E1,3.126821041E0,6.287440777E0,1.084397316E1
1.613719762E1,1.909173369E0,5.823532104E0,1.010937691E1
1.615719762E1,-3.379862010E-2,6.462116718E0,8.400900841E0
1.617719762E1,-9.212366939E-1,6.935895443E0,6.683153629E0
1.619719762E1,-3.137588799E-1,7.029215813E0,5.828916073E0
1.621719762E1,1.019043326E0,6.565008163E0,6.302694798E0
1.623719762E1,1.945065737E0,6.196513176E0,7.444071293E0
1.625719762E1,1.901994944E0,5.902495384E0,8.020442009E0
1.627719762E1,6.122635007E-1,5.852245808E0,7.578069210E0
1.629719762E1,-6.343970895E-1,5.938387394E0,6.618547440E0
1.631719762E1,-1.459621787E0,5.825924873E0,5.773880959E0
1.633719762E1,-7.420741320E-1,5.203791142E0,5.268995285E0
1.635719762E1,-1.486541033E-1,4.663012981E0,5.414957523E0
1.637719762E1,-2.515454888E-1,4.820939541E0,5.690132141E0
1.639719762E1,-5.054837838E-2,5.500501156E0,5.603990555E0
1.641719762E1,1.179362416E0,5.842674732E0,5.276174068E0
1.643719762E1,2.148156643E0,6.007779598E0,4.855336189E0
1.645719762E1,2.198405743E0,6.237191200E0,4.422235489E0
1.647719762E1,1.641177177E0,6.507580280E0,4.403092861E0
1.649719762E1,4.399802685E-1,6.598507404E0,4.678267479E0
1.651719762E1,-6.966105103E-1,6.672685146E0,5.099104881E0
1.653719762E1,-1.292124271E0,6.935895443E0,5.460421085E0
1.655719762E1,-1.653440475E0,7.074679375E0,5.871986866E0
1.657719762E1,-2.148754835E0,7.292426109E0,6.551548481E0
1.659719762E1,-2.572284460E0,7.258926392E0,7.575676441E0
1.661719762E1,-2.892922640E0,6.974180698E0,8.338687897E0
1.663719762E1,-3.160918713E0,7.053143978E0,8.606683731E0
1.665719762E1,-2.316252232E0,7.469494820E0,8.147261620E0
1.667719762E1,-8.330013752E-1,7.677670479E0,7.721638680E0
1.669719762E1,4.256233275E-1,8.115556717E0,7.836493969E0
1.671719762E1,1.557428479E0,8.105985641E0,8.616254807E0
1.673719762E1,1.413859129E0,7.380960464E0,9.688240051E0
1.675719762E1,4.710869491E-1,6.797111988E0,1.093250751E1
1.677719762E1,-4.142574072E-1,6.289833546E0,1.129113197E1
1.679719762E1,-4.884349108E-1,5.957530022E0,1.019073296E1
1.681719762E1,-2.252244353E-1,5.823532104E0,9.157032967E0
1.683719762E1,-1.342971772E-1,5.400002480E0,8.771788597E0
1.685719762E1,-4.334000051E-1,4.622334957E0,9.379565239E0
1.687719762E1,-1.052842021E0,3.942773581E0,9.726525307E0
1.689719762E1,-1.923829436E0,3.899702787E0,9.346066475E0
1.691719762E1,-2.452643156E0,4.624728203E0,7.836493969E0
1.693719762E1,-2.014756680E0,5.591428280E0,6.061019897E0
1.695719762E1,-8.829515576E-1,6.122634888E0,4.790730000E0
1.697719762E1,2.078764737E-1,5.967101574E0,4.462913513E0
1.699719762E1,3.131606579E-1,5.813961029E0,4.869693279E0
1.701719762E1,-5.315057039E-1,5.849853039E0,5.678168297E0
1.703719762E1,-1.272981644E0,5.787639618E0,6.159125328E0
1.705719762E1,-1.825723648E0,5.797211170E0,6.422336102E0
1.707719762E1,-1.895115495E0,5.921638012E0,6.216553211E0
1.709719762E1,-1.619940877E0,5.720640659E0,6.317051888E0
1.711719762E1,-1.390229940E0,5.636891842E0,6.728617191E0
1.713719762E1,-1.301695466E0,6.108277798E0,7.412964344E0
1.715719762E1,-8.210372925E-1,6.065207005E0,7.819744587E0
1.717719762E1,-3.257229924E-1,5.876173973E0,8.561220169E0
1.719719762E1,-6.942176819E-1,5.380859852E0,9.267103195E0
1.721719762E1,-1.392622828E0,6.256333828E0,8.312366486E0
1.723719762E1,-2.587239444E-1,7.230212688E0,7.015756130E0
1.725719762E1,3.993022740E-1,7.770990849E0,7.436892986E0
1.727719762E1,5.380859971E-1,8.137092590E0,8.207082748E0
1.729719762E1,1.334895968E0,7.089035988E0,8.441578865E0
1.731719762E1,1.069292665E0,6.610471725E0,8.345866203E0
1.733719762E1,1.009472013E0,6.225227356E0,8.807681084E0
1.735719762E1,1.294217944E0,5.991029739E0,8.231010437E0
1.737719762E1,1.028614640E0,5.979065418E0,8.350651741E0
1.739719762E1,8.228318691E-1,6.198905945E0,8.056334496E0
1.741719762E1,1.114756227E0,6.273083687E0,7.678567886E0
1.743719762E1,1.717747569E0,6.397510529E0,7.558926582E0
1.745719762E1,2.148156643E0,6.383153439E0,7.932207108E0
1.747719762E1,2.459223509E0,5.974279881E0,8.025228500E0
1.749719762E1,2.121835470E0,5.715855122E0,8.269295692E0
1.751719762E1,1.502393484E0,5.682355404E0,7.855636597E0
1.753719762E1,8.563314080E-1,5.557928562E0,7.362715244E0
1.755719762E1,7.866404206E-2,5.701498032E0,7.503891945E0
1.757719762E1,-4.764707983E-1,5.871388435E0,8.245368004E0
1.759719762E1,2.389831543E-1,5.419145107E0,8.850751877E0
1.761719762E1,8.682954907E-1,5.182255745E0,8.587541580E0
1.763719762E1,9.855438471E-1,5.380859852E0,7.508677483E0
1.765719762E1,6.266204119E-1,5.790032387E0,6.056233883E0
1.767719762E1,1.791625917E-1,5.907280922E0,5.228317261E0
1.769719762E1,-1.630110443E-1,5.694319725E0,5.367101192E0
1.771719762E1,-6.559324861E-1,5.545964718E0,6.577869415E0
1.773719762E1,-9.212366939E-1,5.644070625E0,7.951349735E0
1.775719762E1,-2.682952285E-1,6.129813194E0,7.317251682E0
1.777719762E1,5.045864582E-1,6.768397808E0,5.905486107E0
1.779719762E1,1.162612677E0,7.218248844E0,5.041976452E0
1.781719762E1,1.435394526E0,6.866503716E0,5.151747227E0
1.783719762E1,1.088435173E0,6.371189594E0,5.730810165E0
1.785719762E1,5.476573110E-1,6.466902256E0,6.501298904E0
1.787719762E1,3.466601670E-1,6.586543560E0,7.144968510E0
1.789719762E1,3.418745399E-1,6.574579239E0,7.238288403E0
1.791719762E1,5.979065299E-1,6.811468601E0,6.824330330E0
1.793719762E1,9.302098304E-2,6.854539394E0,6.742974281E0
1.795719762E1,-7.061817646E-1,6.718148708E0,7.154539585E0
1.797719762E1,-1.220339537E0,6.672685146E0,7.683353424E0
1.799719762E1,-1.524227977E0,6.651149750E0,8.307580948E0
1.801719762E1,-1.557727575E0,6.682256222E0,9.224032402E0
1.803719762E1,-1.045663476E0,6.935895443E0,1.011176968E1
1.805719762E1,-3.161516786E-1,6.701398849E0,1.092054367E1
1.807719762E1,9.272187948E-3,6.313761711E0,1.159502029E1
1.809719762E1,-9.122636169E-2,5.825924873E0,1.170269775E1
1.811719762E1,-5.889334679E-1,5.435894966E0,1.079133129E1
1.813719761E1,-5.315057039E-1,5.347360611E0,9.219246864E0
1.815719762E1,1.193420291E-1,4.907081127E0,7.747959614E0
1.817719762E1,2.629113793E-1,4.653441906E0,6.783652306E0
1.819719762E1,-2.491526604E-1,4.868795872E0,6.994220734E0
1.821719762E1,-8.473583460E-1,5.230112076E0,7.243073940E0
1.823719762E1,-1.088734269E0,5.675177097E0,7.336394310E0
1.825719762E1,-5.243272781E-1,5.801996708E0,6.955935478E0
1.827719762E1,3.945166469E-1,5.931209087E0,6.594619274E0
1.829719762E1,9.209375978E-1,5.507679462E0,6.252445698E0
1.831719762E1,3.059822023E-1,5.230112076E0,6.034698486E0
1.833719762E1,-6.296114326E-1,5.268397331E0,6.223731518E0
1.835719762E1,-8.545367718E-1,5.002793789E0,6.415157318E0
1.837719762E1,-1.462612897E-1,5.488536835E0,6.108876228E0
1.839719762E1,7.127620578E-1,5.660820007E0,5.730810165E0
1.841719762E1,7.773682475E-1,6.074778557E0,5.154139996E0
1.843719762E1,1.528415531E-1,6.708577156E0,5.345565796E0
1.845719762E1,-1.079761237E-1,6.701398849E0,6.101697922E0
1.847719762E1,-1.510469317E-1,7.031608582E0,7.037291527E0
1.849719762E1,2.078764737E-1,7.749455452E0,7.357929707E0
1.851719762E1,4.902295470E-1,8.158627510E0,7.487142086E0
1.853719762E1,3.514458239E-1,8.354839325E0,7.865208149E0
1.855719762E1,1.916351795E0,7.672884941E0,8.716753960E0
1.857719762E1,1.935494423E0,8.716156006E0,8.757431984E0
1.859719762E1,1.583749533E0,8.962615967E0,9.786345482E0
1.861719762E1,1.767996788E0,8.369195938E0,1.110209846E1
1.863719761E1,2.365903378E0,7.739883900E0,1.078415298E1
1.865719762E1,3.189034462E0,7.639385223E0,8.642576218E0
1.867719762E1,3.526422262E0,6.488437653E0,7.625925541E0
1.869719762E1,3.579064369E0,5.892923832E0,6.872186661E0
1.871719762E1,3.033500910E0,6.505187511E0,7.269395351E0
1.873719762E1,2.423331022E0,7.081857681E0,7.582854748E0
1.875719762E1,2.866003275E0,6.596114635E0,7.176074982E0
1.877719762E1,2.633899450E0,5.842674732E0,6.491727829E0
1.879719762E1,1.990529299E0,5.134399414E0,6.417550564E0
1.881719762E1,1.765604019E0,4.696512699E0,5.843272686E0
1.883719762E1,1.377966762E0,4.902295589E0,5.237888813E0
1.885719762E1,1.284646630E0,5.285147190E0,5.218746185E0
1.887719762E1,8.706883192E-1,5.801996708E0,4.790730000E0
1.889719762E1,1.181755304E0,5.443073273E0,5.056333542E0
1.891719762E1,1.086042404E0,5.388038158E0,4.996512890E0
1.893719762E1,1.229611754E0,5.505286694E0,4.328915119E0
1.895719762E1,9.017950296E-1,5.522036552E0,4.592125893E0
1.897719762E1,3.346960545E-1,5.691926956E0,4.951049328E0
1.899719762E1,5.261218548E-1,5.921638012E0,4.860121727E0
1.901719762E1,1.007079244E0,6.129813194E0,4.671088696E0
1.903719762E1,1.641177177E0,6.132206440E0,4.809872627E0
1.905719762E1,2.140978098E0,6.320940018E0,1.936391711E0
1.907719762E1,1.705783486E0,6.488437653E0,4.625625134E0
1.909719762E1,1.729711652E0,7.120142937E0,6.049055576E0
1.911719762E1,1.992922187E0,8.031807899E0,6.702296257E0
1.913719761E1,2.595614433E0,7.981558800E0,4.941477776E0
1.919829020E1,2.334796667E0,6.596114635E0,8.956035614E0
1.921829020E1,1.787139416E0,6.017350674E0,8.700003624E0
1.923829020E1,2.365903378E0,5.309075356E0,7.539783955E0
1.925829020E1,3.799204111E0,4.832903385E0,6.630511761E0
1.927829020E1,3.624528170E0,5.356931686E0,6.173482418E0
1.929829020E1,2.437688112E0,5.940780640E0,6.137589931E0
1.931829020E1,1.433001637E0,6.191727638E0,6.305087566E0
1.933829020E1,6.481558084E-1,6.385546207E0,7.489534855E0
1.935829020E1,6.505486369E-1,6.167799473E0,7.360322475E0
1.937829020E1,4.064807594E-1,6.053243160E0,6.589833736E0
1.939829020E1,9.927222729E-1,5.902495384E0,6.482156754E0
1.941829020E1,1.332503080E0,5.658427238E0,7.097112179E0
1.943829020E1,1.815853238E0,6.093921185E0,6.671189308E0
1.945829020E1,2.160120726E0,6.189334869E0,6.618547440E0
1.947829020E1,1.863709688E0,6.555436611E0,7.259823799E0
1.949829020E1,1.650748491E0,6.383153439E0,7.633104324E0
1.951829020E1,1.593320727E0,6.356832504E0,6.838686943E0
1.953829020E1,1.456929922E0,6.519544601E0,5.883950710E0
1.955829020E1,1.528714538E0,6.538686752E0,6.039484501E0
1.957829021E1,1.169791222E0,6.419045925E0,7.755138397E0
1.959829020E1,6.529414654E-1,6.174977779E0,9.006285667E0
1.961829020E1,-5.961119533E-1,6.084349632E0,9.492028236E0
1.963829020E1,-1.170090318E0,6.084349632E0,9.544670105E0
1.965829020E1,-8.186444640E-1,6.304190159E0,9.575777054E0
1.967829020E1,1.863410622E-1,6.500401974E0,9.312566757E0
1.969829020E1,8.826524615E-1,6.957430840E0,8.558827400E0
1.971829020E1,-5.267201066E-1,6.241976738E0,9.719346046E0
1.973829020E1,-2.411965132E0,5.825924873E0,1.198265743E1
1.975829020E1,-2.189432621E0,4.677370071E0,1.456900024E1
1.977829020E1,-6.607181430E-1,4.184448719E0,1.398275852E1
1.979829020E1,-3.496512175E-1,4.993222713E0,1.328196049E1
1.981829020E1,-1.229910851E0,5.246861935E0,1.238225937E1
1.983829020E1,-1.660618901E0,4.253840446E0,1.183430290E1
1.985829020E1,-1.698904037E0,3.875774384E0,1.085593700E1
1.987829020E1,-1.296909928E0,3.373281717E0,1.021705341E1
1.989829020E1,-1.007378340E0,2.859123945E0,9.379565239E0
1.991829020E1,-1.423729420E0,2.375773668E0,8.503792763E0
1.993829020E1,-2.818745136E0,1.854138494E0,8.391329765E0
1.995829020E1,-2.883351326E0,2.571985245E0,8.455936432E0
1.997829020E1,-1.596012712E0,3.043371201E0,9.030213356E0
1.999829020E1,-8.066803217E-1,2.009671926E0,9.702596664E0
2.001829020E1,-2.036890239E-1,1.124327540E0,9.212067604E0
2.003829020E1,-1.222732425E0,2.392822653E-1,7.757531166E0
2.005829020E1,-2.940778971E0,2.007279158E0,7.886743546E0
2.007829021E1,-3.486342669E0,3.512065411E0,9.760024071E0
2.009829020E1,-2.354537487E0,3.480958700E0,9.750452995E0
2.011829020E1,-1.820937991E0,2.201097727E0,7.678567886E0
2.013829020E1,-1.119840980E0,1.023828983E0,1.002084255E1
2.015829020E1,5.356931686E-1,-4.426721931E-1,1.291825104E1
2.017829020E1,5.356931686E-1,6.672984362E-1,1.022662449E1
2.019829020E1,4.516452923E-2,3.253640652E0,1.047787094E1
2.021829020E1,-7.875377536E-1,4.593621254E0,9.996913910E0
2.023829020E1,-2.725425005E0,3.681955814E0,7.578069210E0
2.025829020E1,-1.631905079E0,3.784847260E0,7.003791809E0
2.027829020E1,-5.267201066E-1,4.024129391E0,6.379265308E0
2.029829020E1,6.649056077E-1,4.342374802E0,7.032505512E0
2.031829020E1,1.992922187E0,4.086342812E0,9.767203331E0
2.033829020E1,2.691327333E0,3.279961586E0,1.100638580E1
2.035829020E1,1.930708766E0,3.763311863E0,9.961021423E0
2.037829020E1,6.888338327E-1,4.677370071E0,1.056640530E1
2.039829020E1,7.725825906E-1,4.761118889E0,8.271688461E0
2.041829020E1,1.169791222E0,6.471687794E0,6.132804394E0
2.043829020E1,1.978565216E0,8.127521515E0,4.943870544E0
2.045829020E1,3.519243956E0,6.780362129E0,4.161417484E0
2.047829020E1,2.813361168E0,4.825725079E0,7.130611420E0
2.049829020E1,9.520443082E-1,4.801796913E0,9.379565239E0
2.051829020E1,-5.506483316E-1,4.694119930E0,8.673683167E0
2.053829020E1,-7.707880139E-1,4.940580368E0,6.537191391E0
2.055829020E1,1.959123611E-1,4.730011940E0,5.699703693E0
2.057829021E1,1.473679662E0,4.438087940E0,5.025226593E0
2.059829020E1,1.444965720E0,4.512265205E0,6.185446739E0
2.061829020E1,-1.606182158E-1,5.541179180E0,7.058826923E0
2.063829020E1,-6.559324861E-1,5.981458187E0,7.113861561E0
2.065829020E1,-2.183450572E-2,5.998208046E0,6.848258495E0
2.067829020E1,9.975079298E-1,5.995815277E0,5.592026711E0
2.069829020E1,1.464108348E0,5.548357487E0,5.201996326E0
2.071829020E1,1.148255825E0,5.627320766E0,4.762016296E0
2.073829020E1,-2.228316069E-1,6.244369984E0,5.379065514E0
2.075829020E1,-9.068797827E-1,7.412067413E0,5.553741455E0
2.077829020E1,-4.286143482E-1,7.433602810E0,5.049154758E0
2.079829020E1,3.559323773E-2,7.280461788E0,5.247459888E0
2.081829020E1,3.825525343E-1,7.318747044E0,5.764309883E0
2.083829020E1,3.107678294E-1,7.065107822E0,6.077769279E0
2.085829020E1,-1.529013634E0,6.373582363E0,1.024576759E1
2.087829020E1,-8.805587292E-1,6.677470684E0,9.731310844E0
2.089829020E1,-1.576870084E0,6.620042801E0,9.106783867E0
2.091829020E1,-2.096112728E0,6.825825691E0,8.319544792E0
2.093829020E1,-2.356930256E0,6.883253574E0,7.812565804E0
2.095829020E1,-2.770888567E0,6.986145020E0,8.202297211E0
2.097829020E1,-3.376272678E0,6.880860806E0,1.006630611E1
2.099829020E1,-2.593819857E0,6.835396767E0,1.197069359E1
2.101829020E1,-9.403793216E-1,6.139384747E0,1.200180054E1
2.103829020E1,2.246262282E-1,5.490929604E0,1.083918762E1
2.105829020E1,1.959123611E-1,5.514857769E0,9.353244781E0
2.107829021E1,-2.515454888E-1,5.591428280E0,7.913064480E0
2.109829020E1,-5.578267574E-1,5.641677380E0,7.740781307E0
2.111829020E1,-9.954141974E-1,5.423930645E0,8.798110008E0
2.113829020E1,-8.210372925E-1,5.373681545E0,1.044676495E1
2.115829020E1,2.841476910E-2,5.017150879E0,1.027208805E1
2.117829020E1,4.351946115E-1,5.124827862E0,8.039585114E0
2.119829020E1,-4.336991161E-2,5.900102615E0,5.611168861E0
2.121829020E1,-8.210372925E-1,6.191727638E0,3.290430307E0
2.123829020E1,-1.512263894E0,5.852245808E0,2.618046999E0
2.125829020E1,-2.017149448E0,5.306682587E0,3.352643728E0
2.127829020E1,-1.892722726E0,5.459823132E0,4.941477776E0
2.129829020E1,-1.205982566E0,5.677569866E0,5.864808083E0
2.131829020E1,-1.055234790E0,5.529214859E0,6.620940208E0
2.133829020E1,-1.325623751E0,5.534000397E0,7.135396957E0
2.135829020E1,-1.569691658E0,5.584249973E0,6.697510719E0
2.137829020E1,-1.526620865E0,6.206084728E0,6.070590973E0
2.139829021E1,-9.499505758E-1,7.019644260E0,5.292923450E0
2.141829020E1,-9.840483218E-2,7.452745438E0,5.175675392E0
2.143829020E1,4.615156651E-1,7.625028610E0,5.666203976E0
2.145829020E1,1.671984792E-1,7.605885983E0,6.530013084E0
2.147829020E1,-4.621138871E-1,7.541279793E0,7.659425259E0
2.149829020E1,-5.626124144E-1,7.165606499E0,8.877073288E0
2.151829020E1,2.174477577E-1,7.055536747E0,9.934700966E0
2.153829020E1,5.739783049E-1,7.022037029E0,9.480064392E0
2.155829020E1,1.217348501E-1,7.632206917E0,9.195318222E0
2.157829021E1,1.432702541E-1,8.211270332E0,9.185747147E0
2.159829020E1,1.456929922E0,7.254140854E0,1.026969528E1
2.161829020E1,3.191427231E0,6.081956863E0,1.160219860E1
2.163829020E1,4.208376884E0,4.672584534E0,1.211186981E1
2.165829020E1,3.320639610E0,4.701298237E0,1.090140057E1
2.167829020E1,1.949851394E0,5.660820007E0,8.778966904E0
2.169829020E1,1.014257669E0,6.077171326E0,7.116254330E0
2.171829020E1,5.476573110E-1,6.230012894E0,6.297909260E0
2.173829020E1,9.041878581E-1,5.919245243E0,6.446264267E0
2.175829020E1,1.409073472E0,5.344967365E0,6.771687984E0
2.177829020E1,1.263111234E0,5.124827862E0,7.278966427E0
2.179829020E1,6.912266612E-1,5.021936417E0,7.144968510E0
2.181829020E1,3.227319419E-1,4.567300320E0,6.740581512E0
2.183829020E1,-7.208377868E-2,4.182055950E0,6.108876228E0
2.185829020E1,-4.716851711E-1,3.952344894E0,5.551348686E0
2.187829020E1,-6.391827464E-1,4.048057556E0,5.187639713E0
2.189829021E1,-4.262215197E-1,4.462016106E0,4.912764072E0
2.191829020E1,8.584251255E-2,4.852046013E0,4.752444744E0
2.193829020E1,3.777668774E-1,5.462215900E0,4.544269085E0
2.195829020E1,3.346960545E-1,5.907280922E0,4.752444744E0
2.197829020E1,1.576271951E-1,6.268298149E0,5.249852657E0
2.199829020E1,-1.199402362E-1,6.433403015E0,6.221338749E0
2.201829020E1,-4.501497746E-1,6.512365818E0,7.585247993E0
2.203829020E1,-5.291129351E-1,6.620042801E0,8.546863556E0
2.205829020E1,-2.946162820E-1,6.766005039E0,8.764610291E0
2.207829021E1,-2.183450572E-2,6.950252533E0,8.070692062E0
2.209829020E1,1.648056656E-1,7.098607540E0,6.989434719E0
2.211829020E1,7.148557901E-2,7.208677292E0,6.546762943E0
2.213829020E1,9.062815458E-2,7.220641613E0,6.948757172E0
2.215829020E1,2.362912335E-2,7.002894402E0,8.154440880E0
2.217829020E1,2.557329237E-1,6.648756981E0,9.484849930E0
2.219829020E1,3.227319419E-1,6.383153439E0,9.647562027E0
2.221829020E1,-6.490531564E-2,6.706184387E0,8.769395828E0
2.223829020E1,-5.769693851E-1,7.256533623E0,8.068299294E0
2.225829020E1,-8.829515576E-1,7.565207958E0,8.013263702E0
2.227829020E1,-6.176473498E-1,7.306783199E0,8.891429901E0
2.229829020E1,1.336989701E-1,6.423831463E0,1.095852947E1
2.231829020E1,8.706883192E-1,5.208576679E0,1.277468204E1
2.233829020E1,8.874381185E-1,4.098307133E0,1.314796257E1
2.235829020E1,-2.691925503E-3,4.191627026E0,1.167876911E1
2.237829020E1,-6.726822853E-1,5.316253662E0,9.360423088E0
2.239829021E1,-1.917249113E-1,5.376074314E0,8.073084831E0
2.241829020E1,7.031907439E-1,4.313661098E0,7.750352383E0
2.243829020E1,5.667998791E-1,3.689134359E0,8.274081230E0
2.245829020E1,-5.243272781E-1,3.875774384E0,8.716753960E0
2.247829020E1,-1.311266780E0,4.009772778E0,8.065905571E0
2.249829020E1,-1.639083505E0,4.509872437E0,6.896114826E0
2.251829020E1,-1.435693622E0,5.297111034E0,5.367101192E0
2.253829020E1,-7.827520967E-1,5.392824173E0,4.257130623E0
2.255829020E1,-2.084746659E-1,5.196612358E0,3.637389421E0
2.257829021E1,-3.927220106E-1,5.005186558E0,3.704388618E0
2.259829020E1,-1.217946768E0,4.849653244E0,4.671088696E0
2.261829020E1,-1.773081541E0,4.540979385E0,5.704489231E0
2.263829020E1,-2.165504456E0,4.682155609E0,7.015756130E0
2.265829020E1,-2.026720762E0,4.990829945E0,7.712067604E0
2.267829020E1,-1.043270707E0,5.333003521E0,7.544569969E0
2.269829020E1,-8.644071966E-2,5.833103180E0,7.427321434E0
2.271829020E1,6.505486369E-1,6.222834587E0,7.003791809E0
2.273829020E1,8.395816684E-1,6.483652115E0,7.068397999E0
2.275829020E1,6.696912646E-1,6.777969360E0,8.037192345E0
2.277829020E1,1.009472013E0,6.474080563E0,9.690632820E0
2.279829020E1,1.660319805E0,6.342475414E0,1.147298622E1
2.281829020E1,2.248655081E0,6.010172367E0,1.218126202E1
2.283829020E1,1.839781523E0,6.368796349E0,1.212144089E1
2.285829020E1,1.846959949E0,5.924030781E0,1.154955673E1
2.287829020E1,2.112264156E0,5.213362217E0,1.093011475E1
2.289829021E1,1.968993902E0,4.892724037E0,1.039412212E1
2.291829020E1,2.093121529E0,4.603192329E0,1.011894798E1
2.293829020E1,2.136192322E0,4.342374802E0,9.515956879E0
2.295829020E1,1.588535190E0,4.481158733E0,8.592327118E0
2.297829020E1,8.826524615E-1,4.849653244E0,7.755138397E0
2.299829020E1,5.811567903E-1,5.012365341E0,7.448856831E0
2.301829020E1,6.050850153E-1,5.129613400E0,7.408178806E0
2.303829020E1,6.242275834E-1,5.136792183E0,7.611568928E0
2.305829020E1,6.050850153E-1,4.976472855E0,7.695317745E0
2.307829021E1,5.620142221E-1,4.557728767E0,7.487142086E0
2.309829020E1,2.700898647E-1,4.294518471E0,6.939185619E0
2.311829020E1,-7.686942816E-2,4.323232174E0,6.513263226E0
2.313829020E1,-3.209373355E-1,4.215555191E0,6.288337708E0
2.315829020E1,-6.176473498E-1,4.294518471E0,6.324230194E0
2.317829020E1,-7.277171612E-1,4.426123619E0,6.443871498E0
2.319829020E1,-8.593224287E-1,4.701298237E0,6.388836384E0
2.321829021E1,-1.019342422E0,5.187041283E0,6.431907177E0
2.323829020E1,-1.162911773E0,5.622535229E0,6.496513367E0
2.325829020E1,-1.186840057E0,6.170192242E0,6.941578388E0
2.327829020E1,-9.595218897E-1,6.380760670E0,7.479963779E0
2.329829020E1,-7.731808424E-1,6.428617001E0,8.030014038E0
2.331829020E1,-4.788636267E-1,6.349654198E0,9.109176636E0
2.333829020E1,-1.465603895E-2,6.263512135E0,9.695418358E0
2.335829020E1,4.974080026E-1,6.285048008E0,9.417850494E0
2.337829020E1,7.965108156E-1,6.675077915E0,8.491828918E0
2.339829021E1,7.869395614E-1,7.069893837E0,7.848458290E0
2.341829020E1,5.093721151E-1,6.787540436E0,7.836493969E0
2.343829020E1,-2.946162820E-1,6.490830421E0,8.281260490E0
2.345829020E1,-8.805587292E-1,6.277869225E0,9.157032967E0
2.347829020E1,-9.140582681E-1,5.967101574E0,9.958628654E0
2.349829020E1,-7.205387354E-1,5.766104221E0,1.070758247E1
2.351829020E1,-6.128616929E-1,5.452644825E0,1.115713406E1
2.353829020E1,-6.463612318E-1,5.184648514E0,1.094656563E1
2.355829020E1,-5.338985324E-1,5.065007210E0,1.018116093E1
2.357829021E1,-1.055833027E-1,4.813760757E0,9.527920723E0
2.359829020E1,5.835496187E-1,4.691727161E0,8.843573570E0
2.361829020E1,1.088435173E0,4.777868748E0,8.175975800E0
2.363829020E1,9.927222729E-1,5.088935375E0,7.613961697E0
2.365829020E1,6.960122585E-1,5.404788017E0,6.963113785E0
2.367829020E1,4.304089844E-1,5.474180222E0,6.075376511E0
2.369829020E1,5.234299600E-2,5.356931686E0,5.156532764E0
2.371829021E1,-4.980062246E-1,5.323431969E0,4.510769844E0
2.373829020E1,-9.164510965E-1,5.179862976E0,4.082454681E0
2.375829020E1,-1.098305583E0,5.055436134E0,3.929313898E0
2.377829020E1,-1.103091240E0,5.167898655E0,4.450949192E0
2.379829020E1,-9.523434043E-1,5.301896572E0,5.022833824E0
2.381829020E1,-9.379864931E-1,5.471786976E0,5.814558983E0
2.383829020E1,-1.127019525E0,5.837889194E0,6.398407936E0
2.385829020E1,-1.203589797E0,6.220441341E0,6.776473522E0
2.387829020E1,-1.256231904E0,6.663113594E0,6.833901405E0
2.389829021E1,-9.451649189E-1,7.201498985E0,6.915257454E0
2.391829020E1,-2.443670183E-1,7.648956776E0,7.465606689E0
2.393829020E1,3.203391433E-1,7.981558800E0,8.475078583E0
2.395829020E1,9.089735150E-1,7.962416649E0,1.026251698E1
2.397829020E1,1.928315997E0,7.261319637E0,1.197308636E1
2.399829020E1,2.377867460E0,6.694220543E0,1.260000610E1
2.401829020E1,1.789532185E0,6.971787930E0,1.248036480E1
2.403829020E1,1.495215058E0,6.447759628E0,1.209272766E1
2.405829020E1,1.564606905E0,5.538786411E0,1.122413254E1
2.407829021E1,1.275075316E0,5.342574596E0,1.009023380E1
2.409829020E1,9.305089116E-1,5.545964718E0,9.106783867E0
2.411829020E1,8.730811477E-1,5.155934811E0,8.269295692E0
2.413829020E1,8.491529226E-1,4.610371113E0,7.709674358E0
2.415829020E1,4.399802685E-1,4.555335999E0,7.118647575E0
2.417829020E1,3.559323773E-2,4.739583492E0,6.687939167E0
2.419829020E1,3.538386524E-1,5.237290382E0,6.125626087E0
2.421829021E1,1.102792144E0,5.390431404E0,5.623133183E0
2.423829020E1,1.674676776E0,5.397609711E0,5.347958565E0
2.425829020E1,1.746461391E0,5.275575638E0,5.139782906E0
2.427829020E1,1.315753341E0,4.990829945E0,5.082355499E0
2.429829020E1,7.103692293E-1,4.840082169E0,5.182853699E0
2.431829020E1,1.265204996E-1,4.823332310E0,5.357530117E0
2.433829020E1,-2.300100774E-1,5.024329185E0,5.410171986E0
2.435829020E1,-1.247258782E-1,5.354538918E0,5.276174068E0
2.437829020E1,-2.108674943E-1,5.675177097E0,4.850550652E0
2.439829021E1,-5.913262963E-1,6.196513176E0,4.458127499E0
2.441829020E1,-9.762716293E-1,6.751648426E0,4.896014214E0
2.443829020E1,-9.762716293E-1,6.756433964E0,5.991627693E0
2.445829020E1,-8.829515576E-1,6.801897526E0,7.360322475E0
2.447829020E1,-6.487540603E-1,7.000501633E0,8.479864120E0
2.449829020E1,-2.802593410E-1,7.282855034E0,8.896215439E0
2.451829020E1,3.203391433E-1,7.488637447E0,8.436793327E0
2.453829020E1,6.266204119E-1,7.665706635E0,7.891529083E0
2.455829020E1,5.572285652E-1,7.828418255E0,7.652246952E0
2.457829021E1,3.562314808E-1,7.627421379E0,7.925028801E0
2.459829020E1,-2.659024298E-1,7.392924786E0,8.403293610E0
2.461829020E1,-1.272981644E0,7.352246761E0,9.037391663E0
2.463829020E1,-1.715653777E0,7.617849827E0,9.293423653E0
2.465829020E1,-1.500299811E0,7.634599686E0,9.494421005E0
2.467829020E1,-8.877372146E-1,6.938288212E0,1.025055313E1
2.469829020E1,-4.549354017E-1,6.227620125E0,1.093699455E1
2.471829021E1,-2.682952285E-1,5.723033428E0,1.112602711E1
2.473829020E1,-1.630110443E-1,5.548357487E0,1.020269680E1
2.475829020E1,4.995017126E-2,5.675177097E0,9.233603477E0
2.477829020E1,7.438687682E-1,5.321039200E0,8.223832130E0
2.479829020E1,1.078863859E0,4.959722996E0,7.625925541E0
2.481829020E1,8.922237158E-1,4.789832592E0,6.762116909E0
2.483829020E1,2.844468057E-1,4.852046013E0,5.603990555E0
2.485829020E1,-2.826521695E-1,5.230112076E0,4.671088696E0
2.487829020E1,-6.607181430E-1,5.612963676E0,3.867100477E0
2.489829021E1,-7.636095285E-1,5.871388435E0,3.374179125E0
2.491829020E1,-7.061817646E-1,5.885745525E0,3.127718210E0
2.493829020E1,-8.736793399E-1,5.706283569E0,3.390928745E0
2.495829020E1,-1.153340459E0,5.591428280E0,4.039383888E0
2.497829020E1,-1.363908887E0,5.562714577E0,5.025226593E0
2.499829020E1,-1.667797327E0,5.543571949E0,6.400800705E0
2.501829020E1,-1.919043779E0,5.584249973E0,7.319644451E0
2.503829020E1,-1.935793519E0,5.857031822E0,7.456035137E0
2.505829020E1,-1.562513232E0,6.246762753E0,6.678368092E0
2.507829021E1,-1.069591761E0,6.782754898E0,6.075376511E0
2.509829020E1,-6.798607111E-1,7.201498985E0,5.867201328E0
2.511829020E1,-2.659024298E-1,7.450352192E0,6.654439926E0
2.513829020E1,2.916252613E-1,7.586743355E0,8.245368004E0
2.515829020E1,9.640084505E-1,7.536494255E0,9.805487633E0
2.517829020E1,1.277468204E0,7.581957817E0,1.013330460E1
2.519829020E1,1.397109270E0,7.368996620E0,1.049940681E1
2.521829021E1,1.279860973E0,7.237390995E0,1.110449123E1
2.523829020E1,1.507179141E0,6.337689877E0,1.194437218E1
2.525829020E1,1.808674812E0,5.624927998E0,1.212383366E1
2.527829020E1,2.014457464E0,5.256433010E0,1.143709373E1
2.529829020E1,2.043171406E0,5.055436134E0,1.010459137E1
2.531829020E1,2.014457464E0,4.864010334E0,8.704790115E0
2.533829020E1,1.913959026E0,4.605585575E0,7.393822193E0
2.535829020E1,1.593320727E0,4.696512699E0,6.474977970E0
2.537829020E1,1.401894927E0,5.062614441E0,5.996413708E0
2.539829021E1,1.232004523E0,5.617749214E0,5.948556900E0
2.541829020E1,1.014257669E0,6.320940018E0,6.125626087E0
2.543829020E1,9.664012194E-1,6.411867142E0,6.118447304E0
2.545829020E1,1.088435173E0,6.246762753E0,5.982056618E0
2.547829020E1,1.373181105E0,5.830710411E0,5.733202934E0
2.549829020E1,1.320538998E0,5.459823132E0,5.517848969E0
2.551829020E1,7.989036441E-1,5.404788017E0,5.615954876E0
2.553829020E1,2.892324328E-1,5.510072231E0,5.860022545E0
2.555829020E1,9.272187948E-3,5.538786411E0,6.082555294E0
2.557829021E1,-3.065803945E-1,5.830710411E0,6.573083878E0
2.559829020E1,-2.419741899E-1,6.046064377E0,7.022934437E0
2.561829020E1,3.729812205E-1,6.349654198E0,7.585247993E0
2.563829020E1,9.137591720E-1,6.474080563E0,7.855636597E0
2.565829020E1,9.951151013E-1,6.572186470E0,7.621140003E0
2.567829020E1,4.519443810E-1,6.715755939E0,7.295716286E0
2.569829020E1,5.234299600E-2,6.823432922E0,7.429714203E0
2.571829021E1,1.408774406E-1,6.773183823E0,7.769495010E0
2.573829020E1,1.097707376E-1,6.787540436E0,7.992027760E0
2.575829020E1,1.025922745E-1,6.907181740E0,7.757531166E0
2.577829020E1,-3.831507266E-1,6.974180698E0,7.381857872E0
2.579829020E1,-1.318445325E0,7.053143978E0,7.783852100E0
2.581829020E1,-1.923829436E0,7.029215813E0,8.733503342E0
2.583829020E1,-2.000399828E0,6.971787930E0,9.681061745E0
2.585829020E1,-1.619940877E0,6.900003433E0,1.083918762E1
2.587829020E1,-7.636095285E-1,6.438188553E0,1.190130138E1
2.589829021E1,2.841476910E-2,5.713462353E0,1.237029457E1
2.591829020E1,3.323032558E-1,5.277968407E0,1.172423267E1
2.593829020E1,-1.510469317E-1,5.562714577E0,1.020030403E1
2.595829020E1,-1.654038578E-1,5.569892883E0,8.661719322E0
2.597829020E1,5.234299600E-2,5.105685234E0,7.642675400E0
2.599829020E1,-1.845464408E-1,5.112864017E0,6.879364967E0
2.601829020E1,-5.051847100E-1,5.194219589E0,6.553941250E0
2.603829020E1,-8.114659786E-1,4.959722996E0,6.608976364E0
2.605829020E1,-9.690931439E-1,4.947759151E0,6.580262184E0
2.607829021E1,-9.236295223E-1,4.603192329E0,6.063412666E0
2.609829020E1,-1.050449133E0,4.399802685E0,4.860121727E0
2.611829020E1,-1.584048629E0,4.651049137E0,4.053740501E0
2.613829020E1,-1.741974831E0,5.122435093E0,3.572783232E0
2.615829020E1,-1.318445325E0,5.098506927E0,3.644567966E0
2.617829020E1,-8.805587292E-1,5.249254704E0,4.383950233E0
2.619829020E1,-5.841478109E-1,5.538786411E0,5.659025669E0
2.621829021E1,-4.621138871E-1,5.711069584E0,6.900900364E0
2.623829020E1,-5.697908998E-1,6.301797390E0,7.601997375E0
2.625829020E1,-5.817549825E-1,6.799504757E0,7.530212879E0
2.627829020E1,-3.472583890E-1,7.495816231E0,7.434499741E0
2.629829020E1,4.782654345E-1,8.182556152E0,7.822137356E0
2.631829020E1,1.827817440E0,8.254341125E0,8.814859390E0
2.633829020E1,3.098107100E0,7.648956776E0,9.992128372E0
2.635829020E1,3.361317635E0,7.318747044E0,1.089661503E1
2.637829020E1,2.873181820E0,7.304390430E0,1.050897789E1
2.639829021E1,2.219941139E0,7.658527851E0,9.563813210E0
2.641829020E1,2.361117840E0,7.077072144E0,8.489435196E0
2.643829020E1,2.535793781E0,6.313761711E0,8.039585114E0
2.645829020E1,2.308475733E0,5.871388435E0,8.087441444E0
2.647829020E1,1.882852316E0,5.775675774E0,7.915457249E0
2.649829020E1,1.669891119E0,5.557928562E0,7.735995770E0
2.651829020E1,1.428215981E0,5.127220631E0,7.458428383E0
2.653829021E1,8.659027219E-1,5.103292465E0,7.575676441E0
2.655829020E1,8.898309469E-1,5.407180786E0,7.393822193E0
2.657829021E1,1.418644667E0,5.744568825E0,6.790830612E0
2.659829020E1,1.837388635E0,6.007779598E0,6.072983742E0
2.661829020E1,2.024028778E0,6.153442383E0,5.326423168E0
2.663829020E1,1.968993902E0,5.780461311E0,4.896014214E0
2.665829020E1,1.358824134E0,5.376074314E0,5.304887772E0
2.667829020E1,8.778668046E-1,5.060221672E0,5.840879917E0
2.669829020E1,3.849453330E-1,4.792225361E0,6.479763508E0
2.671829021E1,-7.477570791E-3,5.048257351E0,7.037291527E0
2.673829020E1,7.677969933E-1,5.703890800E0,7.300501823E0
2.675829020E1,2.152942181E0,5.632106304E0,5.898307800E0
2.677829020E1,2.901895761E0,6.113063812E0,4.223630905E0
2.679829020E1,2.954537868E0,7.146463871E0,2.976970434E0
2.681829020E1,2.617149830E0,7.613064289E0,3.266501904E0
2.683829020E1,1.856531262E0,7.565207958E0,4.924727917E0
2.685829020E1,1.330110312E0,7.175177574E0,6.537191391E0
2.687829020E1,1.263111234E0,6.746862411E0,7.716853142E0
2.689829021E1,1.203290701E0,6.586543560E0,8.489435196E0
2.691829020E1,9.137591720E-1,6.792325974E0,8.635397911E0
2.693829020E1,3.275175989E-1,7.177570820E0,8.302795410E0
2.695829020E1,-1.007976532E-1,7.457530975E0,7.982456207E0
2.697829020E1,-7.686942816E-2,7.514958382E0,7.735995770E0
2.699829020E1,3.969094455E-1,7.536494255E0,7.365108013E0
2.701829020E1,5.763711333E-1,7.481459141E0,7.458428383E0
2.703829021E1,2.557329237E-1,7.596314430E0,7.913064480E0
2.705829020E1,1.001994461E-1,7.419245720E0,8.539685249E0
2.707829021E1,4.280161560E-1,6.780362129E0,1.052094173E1
2.709829020E1,1.504487246E-1,6.332904339E0,1.227697468E1
2.711829020E1,-3.041875660E-1,5.833103180E0,1.162852001E1
2.713829020E1,-8.829515576E-1,5.888138294E0,9.843772888E0
2.715829020E1,-8.425726891E-1,5.866602898E0,8.408080101E0
2.717829020E1,-3.472583890E-1,5.036293507E0,8.482256889E0
2.719829020E1,-4.932205677E-1,4.586442947E0,9.113962173E0
2.721829021E1,-3.257229924E-1,4.526622295E0,7.910671711E0
2.723829020E1,-3.687937856E-1,4.615156651E0,6.326622963E0
2.725829020E1,-1.558325738E-1,4.859224796E0,5.850451469E0
2.727829020E1,2.916252613E-1,5.380859852E0,5.687739372E0
2.729829020E1,9.400802255E-1,6.014957905E0,6.250052929E0
2.731829020E1,1.406680584E0,6.093921185E0,6.029912949E0
2.733829020E1,8.826524615E-1,5.768496990E0,5.836094379E0
2.735829021E1,2.174477577E-1,5.261219025E0,5.962913990E0
2.737829020E1,2.653042078E-1,5.148756027E0,5.321637630E0
2.739829021E1,9.544371367E-1,5.328217983E0,5.534598827E0
2.741829020E1,1.165005565E0,5.416752338E0,6.120840549E0
2.743829020E1,9.927222729E-1,5.426323414E0,5.469992638E0
2.745829020E1,9.352945685E-1,5.658427238E0,5.419743061E0
2.747829020E1,1.284646630E0,6.268298149E0,5.209175110E0
2.749829020E1,1.557428479E0,6.945466995E0,5.455635548E0
2.751829020E1,1.497607827E0,7.445566654E0,6.695117950E0
2.753829021E1,1.571785331E0,7.794919014E0,7.283751965E0
2.755829020E1,1.351645708E0,8.091629028E0,7.872386456E0
2.757829021E1,1.337288737E0,8.347661018E0,8.616254807E0
2.759829020E1,2.234298229E0,7.797311783E0,1.014048290E1
2.761829020E1,1.813460469E0,8.206484795E0,8.798110008E0
2.763829020E1,1.899602056E0,8.785547256E0,8.264510155E0
2.765829020E1,2.614757061E0,8.797511101E0,9.391530037E0
2.767829020E1,3.509672642E0,7.794919014E0,1.085593700E1
2.769829020E1,3.885345697E0,7.175177574E0,1.048026371E1
2.771829021E1,3.196212769E0,6.517151356E0,8.226224899E0
2.773829020E1,2.633899450E0,6.514758587E0,6.551548481E0
2.775829020E1,3.330210924E0,6.325725555E0,7.125825882E0
2.777829020E1,3.839882135E0,6.316154480E0,8.403293610E0
2.779829020E1,3.576671600E0,6.352046967E0,8.494221687E0
2.781829020E1,2.320439816E0,5.950351715E0,7.209574699E0
2.783829020E1,1.832603097E0,5.519643784E0,6.908079147E0
2.785829021E1,2.133799553E0,4.787439823E0,7.534998417E0
2.787829020E1,1.830210209E0,4.339982033E0,6.833901405E0
2.789829021E1,1.334895968E0,4.354339123E0,5.962913990E0
2.791829020E1,1.019043326E0,4.708476543E0,5.120640278E0
2.793829020E1,1.399502158E0,5.206183910E0,4.697410107E0
2.795829020E1,1.724925995E0,5.294718266E0,4.738088131E0
2.797829020E1,1.832603097E0,5.541179180E0,5.204389095E0
2.799829020E1,1.578963876E0,5.847460270E0,4.929513931E0
2.801829020E1,1.148255825E0,5.967101574E0,2.826222658E0
2.803829021E1,1.083649516E0,6.077171326E0,4.058526516E0
2.805829020E1,9.281160831E-1,6.306583405E0,4.668695927E0
2.807829021E1,1.839781523E0,6.701398849E0,5.247459888E0
2.809829020E1,2.119442701E0,6.569793701E0,5.025226593E0
2.814801881E1,1.107577801E0,7.347461224E0,6.345765591E0
2.816801881E1,1.198505044E0,7.270890713E0,7.850851059E0
2.818801881E1,3.323032558E-1,7.397710323E0,7.025327206E0
2.820801881E1,-6.702894568E-1,7.421638489E0,5.030012131E0
2.822801881E1,-3.065803945E-1,7.072286606E0,5.532206059E0
2.824801881E1,4.755735025E-2,6.768397808E0,6.063412666E0
2.826801881E1,7.148557901E-2,6.794719219E0,6.489335060E0
2.828801881E1,2.126621157E-1,6.794719219E0,6.367300987E0
2.830801881E1,5.500500798E-1,6.687041759E0,6.063412666E0
2.832801881E1,2.653042078E-1,6.849753857E0,6.381658077E0
2.834801881E1,8.371888399E-1,6.316154480E0,7.733603001E0
2.836801881E1,9.305089116E-1,6.517151356E0,7.728816986E0
2.838801881E1,1.485643744E0,6.691827774E0,7.489534855E0
2.840801881E1,1.715354681E0,6.923931599E0,7.372286797E0
2.842801881E1,1.990529299E0,7.290033340E0,7.161718369E0
2.844801881E1,2.071586132E0,7.230212688E0,7.740781307E0
2.846801881E1,3.526422262E0,5.565107346E0,8.329116821E0
2.848801881E1,3.559921980E0,5.450251579E0,8.872286797E0
2.850801881E1,3.179463148E0,5.158327579E0,9.291030884E0
2.852801881E1,3.234498024E0,4.904688358E0,8.731110573E0
2.854801881E1,3.272783279E0,4.775475979E0,7.874779224E0
2.856801881E1,2.858824968E0,4.808975220E0,7.255038261E0
2.858801881E1,2.109871387E0,4.978865623E0,7.286144733E0
2.860801881E1,1.617249012E0,4.964509010E0,7.467999458E0
2.862801881E1,9.807581902E-1,4.739583492E0,7.917850018E0
2.864801881E1,6.649056077E-1,5.440680504E0,8.309973717E0
2.866801881E1,1.112363458E0,6.041278839E0,8.175975800E0
2.868801881E1,1.521536112E0,6.220441341E0,7.685746193E0
2.870801881E1,1.198505044E0,6.565008163E0,7.231110096E0
2.872801881E1,4.663013220E-1,6.675077915E0,7.010970116E0
2.874801881E1,6.669992954E-2,6.605686188E0,7.496713161E0
2.876801881E1,2.724826932E-1,6.541079998E0,7.898707390E0
2.878801881E1,8.467600942E-1,6.347260952E0,7.745566845E0
2.880801881E1,8.874381185E-1,6.368796349E0,7.020541668E0
2.882801881E1,4.663013220E-1,6.567400932E0,6.340980053E0
2.884801881E1,1.911267042E-1,6.612864494E0,6.331408501E0
2.886801881E1,2.318046987E-1,6.538686752E0,6.671189308E0
2.888801881E1,4.878367186E-1,6.622435570E0,7.101897717E0
2.890801881E1,7.414759398E-1,6.730112553E0,7.211967468E0
2.892801881E1,7.941179872E-1,6.888039112E0,7.171289444E0
2.894801881E1,7.749754190E-1,6.837790012E0,6.704689026E0
2.896801881E1,6.625127792E-1,6.926324368E0,6.285944939E0
2.898801881E1,4.328017831E-1,7.187141895E0,6.113661766E0
2.900801881E1,4.232304990E-1,7.440781116E0,6.305087566E0
2.902801881E1,4.184448719E-1,7.440781116E0,6.427121639E0
2.904801881E1,5.045864582E-1,7.522137165E0,7.054041386E0
2.906801881E1,8.922237158E-1,7.278069019E0,7.578069210E0
2.908801881E1,1.045364380E0,6.955038071E0,7.843672752E0
2.910801881E1,6.601199508E-1,7.151249409E0,7.738388538E0
2.912801881E1,1.959123611E-1,7.045965195E0,7.944170952E0
2.914801881E1,-7.208377868E-2,6.976573467E0,8.903393745E0
2.916801881E1,4.184448719E-1,6.677470684E0,1.014766216E1
2.918801881E1,1.062114120E0,5.926423550E0,1.090857887E1
2.920801881E1,1.248754263E0,5.512465000E0,1.165244770E1
2.922801881E1,7.414759398E-1,5.227719307E0,1.170509052E1
2.924801881E1,1.313061416E-1,5.146363258E0,1.077458096E1
2.926801881E1,-2.970091105E-1,5.333003521E0,1.001127052E1
2.928801881E1,-3.017947674E-1,5.794818401E0,1.029123116E1
2.930801881E1,5.787639618E-1,5.136792183E0,1.103270721E1
2.932801881E1,6.744768620E-1,4.639084816E0,1.126959610E1
2.934801881E1,-2.228316069E-1,4.502694130E0,1.083679485E1
2.936801881E1,-8.210372925E-1,4.361517429E0,8.979964256E0
2.938801881E1,-9.451649189E-1,4.167698860E0,6.972685337E0
2.940801881E1,-9.954141974E-1,4.174877167E0,5.769095421E0
2.942801881E1,-8.425726891E-1,4.249054909E0,5.032404900E0
2.944801881E1,-1.043270707E0,3.885345697E0,5.326423168E0
2.946801881E1,-1.560120344E0,3.672384501E0,6.130411625E0
2.948801881E1,-1.643869162E0,3.739383698E0,6.573083878E0
2.950801881E1,-1.217946768E0,4.098307133E0,6.029912949E0
2.952801881E1,-9.667003751E-1,4.780261517E0,5.682953835E0
2.954801881E1,-8.330013752E-1,5.208576679E0,5.326423168E0
2.956801881E1,-7.971090674E-1,5.402395248E0,5.268995285E0
2.958801881E1,-8.377870321E-1,5.749354839E0,5.850451469E0
2.960801881E1,-5.841478109E-1,6.012565136E0,6.494120598E0
2.962801881E1,-2.467598319E-1,6.218048573E0,7.317251682E0
2.964801881E1,3.011965454E-1,6.440581322E0,7.518248558E0
2.966801881E1,5.117649436E-1,6.385546207E0,6.984649181E0
2.968801881E1,-6.251249462E-2,6.756433964E0,6.206982136E0
2.970801881E1,-4.190430641E-1,7.278069019E0,6.029912949E0
2.972801881E1,-7.447660714E-2,7.304390430E0,6.534798622E0
2.974801881E1,5.117649436E-1,6.895217419E0,7.061219692E0
2.976801881E1,5.979065299E-1,6.744469643E0,7.305287361E0
2.978801881E1,4.950151742E-1,6.833003998E0,7.405786037E0
2.980801881E1,6.266204119E-1,6.976573467E0,7.307680130E0
2.982801881E1,7.749754190E-1,6.926324368E0,7.532605648E0
2.984801881E1,1.081256747E0,7.034001350E0,7.491927624E0
2.986801881E1,1.361217022E0,7.203891754E0,7.590033531E0
2.988801881E1,1.466501236E0,7.524529934E0,8.898608208E0
2.990801881E1,1.866102576E0,7.065107822E0,1.079611683E1
2.992801881E1,2.339582443E0,6.098706722E0,1.193001556E1
2.994801881E1,2.078764677E0,5.493322372E0,1.195394325E1
2.996801881E1,1.267896891E0,5.555535793E0,1.073390293E1
2.998801881E1,6.050850153E-1,5.835496426E0,9.358030319E0
3.000801881E1,2.509472668E-1,5.940780640E0,8.633005142E0
3.002801881E1,5.356931686E-1,6.053243160E0,8.616254807E0
3.004801881E1,1.145862937E0,5.897709846E0,8.735896111E0
3.006801881E1,1.215254784E0,5.672784328E0,8.379365921E0
3.008801881E1,5.715855360E-1,5.371288776E0,7.635497093E0
3.010801881E1,1.405783277E-2,5.208576679E0,7.056434155E0
3.012801881E1,-1.845464408E-1,4.964509010E0,6.661618233E0
3.014801881E1,-2.991028305E-4,4.921437740E0,6.812366009E0
3.016801881E1,5.141577721E-1,4.737190723E0,6.805187702E0
3.018801881E1,1.064507008E0,4.588835716E0,6.436692715E0
3.020801881E1,1.033400297E0,4.636692047E0,5.759523869E0
3.022801881E1,4.064807594E-1,4.753940582E0,5.328815937E0
3.024801881E1,-1.199402362E-1,4.694119930E0,5.276174068E0
3.026801881E1,-2.635096014E-1,4.660620213E0,5.570491314E0
3.028801881E1,-4.097708687E-2,4.615156651E0,5.984449387E0
3.030801881E1,2.724826932E-1,4.655834675E0,6.896114826E0
3.032801881E1,5.955137610E-1,4.753940582E0,7.659425259E0
3.034801881E1,8.659027219E-1,4.792225361E0,8.041977882E0
3.036801881E1,7.893323898E-1,4.818546772E0,7.743174076E0
3.038801881E1,4.088735580E-1,4.990829945E0,7.192824841E0
3.040801881E1,-1.226321608E-2,5.258825779E0,6.530013084E0
3.042801881E1,-1.247258782E-1,5.419145107E0,6.230910301E0
3.044801881E1,-8.404789865E-2,5.538786411E0,6.288337708E0
3.046801881E1,-2.108674943E-1,5.840281963E0,6.745367050E0
3.048801881E1,-9.122636169E-2,6.041278839E0,7.049255371E0
3.050801881E1,3.080759197E-2,6.225227356E0,6.972685337E0
3.052801881E1,1.166501082E-2,6.512365818E0,6.910471916E0
3.054801881E1,-1.390828192E-1,6.670292377E0,7.123433113E0
3.056801881E1,-1.701895148E-1,6.816254616E0,7.688138962E0
3.058801881E1,-1.845464408E-1,6.842575550E0,8.644968987E0
3.060801881E1,-1.031904742E-1,6.770790577E0,9.527920723E0
3.062801881E1,-8.165507019E-2,6.641578197E0,9.903594017E0
3.064801881E1,-1.366899908E-1,6.636792660E0,1.024098206E1
3.066801881E1,3.559323773E-2,6.375975132E0,1.059033394E1
3.068801881E1,1.884347759E-2,6.163013935E0,1.105902767E1
3.070801881E1,-1.944168471E-2,6.184549332E0,1.162852001E1
3.072801881E1,9.062815458E-2,6.089135647E0,1.209512043E1
3.074801881E1,3.083750308E-1,5.600999832E0,1.203290653E1
3.076801881E1,2.413759828E-1,5.184648514E0,1.138205910E1
3.078801881E1,7.387840003E-2,5.155934811E0,1.017398262E1
3.080801881E1,-3.424727321E-1,5.244469166E0,9.451350212E0
3.082801881E1,-6.104688644E-1,4.880760193E0,9.628418922E0
3.084801881E1,-3.305086195E-1,4.478765965E0,1.029362392E1
3.086801881E1,-2.922234535E-1,4.280161381E0,1.081286621E1
3.088801881E1,-3.113660514E-1,4.095914364E0,1.063579750E1
3.090801881E1,-5.554339290E-1,3.820739508E0,9.693025589E0
3.092801881E1,-9.690931439E-1,3.703491211E0,8.554041862E0
3.094801881E1,-1.452443361E0,4.079164505E0,7.549355507E0
3.096801881E1,-1.703689694E0,4.567300320E0,7.152146816E0
3.098801881E1,-1.540977836E0,4.777868748E0,7.056434155E0
3.100801881E1,-1.380658627E0,4.797011375E0,7.257431030E0
3.102801881E1,-1.306481123E0,5.062614441E0,7.233502865E0
3.104801881E1,-8.641080856E-1,5.199005604E0,7.020541668E0
3.106801881E1,-6.750751138E-1,5.072185993E0,6.561119556E0
3.108801881E1,-6.942176819E-1,5.605785370E0,6.309873104E0
3.110801881E1,-7.396813035E-1,5.555535793E0,6.211767673E0
3.112801881E1,-6.343970895E-1,5.577071190E0,6.259624004E0
3.114801881E1,-3.544368446E-1,5.541179180E0,5.883950710E0
3.116801881E1,-1.438684613E-1,5.354538918E0,5.615954876E0
3.118801881E1,-3.376871049E-1,5.148756027E0,5.295316696E0
3.120801881E1,-9.451649189E-1,5.210969448E0,5.230710506E0
3.122801881E1,-1.521835208E0,5.462215900E0,5.192425251E0
3.124801881E1,-1.426122308E0,5.952744484E0,5.417350292E0
3.126801881E1,-5.291129351E-1,6.445366859E0,5.627918720E0
3.128801881E1,3.442673683E-1,6.488437653E0,5.436492920E0
3.130801881E1,4.519443810E-1,6.818647385E0,5.089533806E0
3.132801881E1,-2.108674943E-1,7.000501633E0,5.125426292E0
3.134801881E1,-6.248258352E-1,6.871289253E0,5.840879917E0
3.136801881E1,-5.554339290E-1,6.739684105E0,6.659225464E0
3.138801881E1,-4.142574072E-1,6.816254616E0,7.125825882E0
3.140801881E1,-2.706880569E-1,7.246962547E0,7.314858913E0
3.142801881E1,-2.662015148E-2,7.445566654E0,7.252645493E0
3.144801881E1,1.695913076E-1,7.519744396E0,7.037291527E0
3.146801881E1,1.695913076E-1,7.613064289E0,7.015756130E0
3.148801881E1,1.360917836E-1,7.751848221E0,7.257431030E0
3.150801881E1,2.006980032E-1,7.806882858E0,7.982456207E0
3.152801881E1,4.495515525E-1,7.747062206E0,8.872286797E0
3.154801881E1,5.309075117E-1,7.416852951E0,9.700203896E0
3.156801881E1,4.495515525E-1,7.242177010E0,1.012612629E1
3.158801881E1,5.309075117E-1,6.833003998E0,1.040130138E1
3.160801881E1,7.247261405E-1,6.490830421E0,1.004716301E1
3.162801881E1,8.204390407E-1,6.536293983E0,9.054141998E0
3.164801881E1,8.132606149E-1,6.615257263E0,8.365009308E0
3.166801881E1,8.036893010E-1,6.557829380E0,8.097012520E0
3.168801881E1,8.467600942E-1,6.256333828E0,8.508578300E0
3.170801881E1,1.047757268E0,5.809175014E0,8.774181366E0
3.172801881E1,1.153041363E0,5.734997749E0,8.554041862E0
3.174801881E1,1.169791222E0,5.780461311E0,7.810173035E0
3.176801881E1,1.270289779E0,5.938387394E0,6.872186661E0
3.178801881E1,1.538285851E0,5.921638012E0,6.135197163E0
3.180801881E1,1.566999674E0,5.828317642E0,5.797809124E0
3.182801881E1,1.088435173E0,5.632106304E0,6.068198204E0
3.184801881E1,5.189434290E-1,5.318646431E0,6.367300987E0
3.186801881E1,6.430710852E-2,5.029115200E0,6.553941250E0
3.188801881E1,-2.276172489E-1,5.103292465E0,6.606583118E0
3.190801881E1,-1.031904742E-1,5.364109993E0,5.812166214E0
3.192801881E1,1.313061416E-1,5.749354839E0,5.190032482E0
3.194801881E1,4.088735580E-1,5.945566177E0,4.692624092E0
3.196801881E1,5.500500798E-1,5.787639618E0,4.580161572E0
3.198801881E1,7.866404206E-2,5.933601856E0,4.728516579E0
3.200801881E1,-4.716851711E-1,5.979065418E0,5.025226593E0
3.202801881E1,-7.348956466E-1,5.981458187E0,5.477170944E0
3.204801881E1,-8.090731502E-1,6.170192242E0,5.958128452E0
3.206801881E1,-5.147559643E-1,6.416653156E0,6.434299946E0
3.208801881E1,-5.084747914E-3,6.502794743E0,6.695117950E0
3.210801881E1,2.006980032E-1,6.675077915E0,6.771687984E0
3.212801881E1,2.964109182E-1,6.737291336E0,6.575476646E0
3.214801881E1,1.528415531E-1,6.849753857E0,6.675975323E0
3.216801881E1,1.169492081E-1,6.849753857E0,6.872186661E0
3.218801881E1,3.299104273E-1,6.629614353E0,6.941578388E0
3.220801881E1,3.634099364E-1,6.725327015E0,6.546762943E0
3.222801881E1,2.437688112E-1,6.969395161E0,5.828916073E0
3.224801881E1,6.191428751E-2,7.335496902E0,5.527420521E0
3.226801881E1,1.097707376E-1,7.512565613E0,5.501099110E0
3.228801881E1,3.753740489E-1,7.500601768E0,6.003592014E0
3.230801881E1,5.141577721E-1,7.651349545E0,6.577869415E0
3.232801881E1,6.122635007E-1,7.732705593E0,6.982256413E0
3.234801881E1,5.476573110E-1,7.821239948E0,7.384250641E0
3.236801881E1,3.083750308E-1,7.797311783E0,7.908278942E0
3.238801881E1,1.743769497E-1,7.613064289E0,8.532505989E0
3.240801881E1,1.217348501E-1,7.388139248E0,8.795717239E0
3.242801881E1,9.062815458E-2,7.371389389E0,8.692825317E0
3.244801881E1,-3.137588799E-1,7.483851910E0,8.618648529E0
3.246801881E1,-9.188438654E-1,7.632206917E0,9.417850494E0
3.248801881E1,-1.117448211E0,7.438388348E0,1.076022434E1
3.250801881E1,-6.990033388E-1,6.751648426E0,1.204726410E1
3.252801881E1,-1.941177398E-1,5.955137253E0,1.281536007E1
3.254801881E1,2.174477577E-1,5.163113117E0,1.279143143E1
3.256801881E1,6.909275055E-2,5.014758110E0,1.097049332E1
3.258801881E1,-1.821536273E-1,5.634499073E0,9.063713074E0
3.260801881E1,-2.662015148E-2,5.854638577E0,7.637889862E0
3.262801881E1,4.663013220E-1,5.612963676E0,7.106683254E0
3.264801881E1,6.457630396E-1,5.167898655E0,7.365108013E0
3.266801881E1,3.514458239E-1,4.617549419E0,7.977670670E0
3.268801881E1,-3.879363835E-1,4.557728767E0,8.147261620E0
3.270801881E1,-9.116654396E-1,4.696512699E0,7.611568928E0
3.272801881E1,-1.098305583E0,4.847260475E0,6.821937561E0
3.274801881E1,-1.028913736E0,5.031507969E0,6.084948063E0
3.276801881E1,-7.899305820E-1,5.237290382E0,5.613562107E0
3.278801881E1,-5.315057039E-1,5.187041283E0,5.460421085E0
3.280801881E1,-5.721837282E-1,5.261219025E0,5.563312531E0
3.282801881E1,-7.755736113E-1,5.548357487E0,5.400600910E0
3.284801881E1,-1.105484009E0,5.682355404E0,5.271388054E0
3.286801881E1,-1.452443361E0,5.876173973E0,5.204389095E0
3.288801881E1,-1.533799291E0,5.938387394E0,5.465207100E0
3.290801881E1,-1.375872970E0,5.758925915E0,5.958128452E0
3.292801881E1,-1.268195987E0,5.644070625E0,6.510870457E0
3.294801881E1,-1.282552958E0,5.691926956E0,6.508477688E0
3.296801881E1,-1.194018483E0,5.928816319E0,6.082555294E0
3.298801881E1,-1.249053478E0,6.222834587E0,5.644668579E0
3.300801881E1,-1.328016520E0,6.349654198E0,5.580062389E0
3.302801881E1,-1.308874011E0,6.356832504E0,5.848058701E0
3.304801881E1,-1.270588875E0,6.541079998E0,6.293123722E0
3.306801881E1,-1.308874011E0,6.787540436E0,6.630511761E0
3.308801881E1,-1.344766378E0,6.976573467E0,7.022934437E0
3.310801881E1,-1.390229940E0,7.002894402E0,7.377072334E0
3.312801881E1,-9.738788009E-1,7.139285564E0,7.752745152E0
3.314801881E1,-4.262215197E-1,7.258926392E0,7.886743546E0
3.316801881E1,-2.347957194E-1,7.536494255E0,8.008777618E0
3.318801881E1,-5.294119939E-2,7.658527851E0,7.956135273E0
3.320801881E1,1.815554202E-1,7.646564007E0,7.369893551E0
3.322801881E1,2.413759828E-1,7.818847179E0,7.384250641E0
3.324801881E1,1.887338907E-1,7.866703510E0,8.065905571E0
3.326801881E1,4.471587241E-1,7.694420338E0,9.331708908E0
3.328801881E1,1.222433209E0,7.273283482E0,1.023380375E1
3.330801881E1,1.483250976E0,7.218248844E0,1.047547817E1
3.332801881E1,1.255932808E0,7.328318596E0,1.019791126E1
3.334801881E1,1.172183990E0,7.122535706E0,9.621240616E0
3.336801881E1,7.965108156E-1,6.952645302E0,9.073284149E0
3.338801881E1,7.103692293E-1,6.921538830E0,8.953642845E0
3.340801881E1,1.026221752E0,6.565008163E0,8.735896111E0
3.342801881E1,1.330110312E0,6.354439735E0,8.453543663E0
3.344801881E1,1.337288737E0,6.294619083E0,8.120941162E0
3.346801881E1,1.265504122E0,6.036493301E0,7.645068169E0
3.348801881E1,9.017950296E-1,5.979065418E0,6.769295216E0
3.350801881E1,3.993022740E-1,6.189334869E0,6.092126369E0
3.352801881E1,2.629113793E-1,6.251548290E0,6.058627129E0
3.354801881E1,4.016951025E-1,6.103492260E0,6.467799664E0
3.356801881E1,5.356931686E-1,6.093921185E0,7.099504948E0
3.358801881E1,3.370888829E-1,6.136991978E0,7.082755089E0
3.360801881E1,-4.576273263E-2,6.029314995E0,6.597012043E0
3.362801881E1,-5.027918816E-1,5.967101574E0,6.238088608E0
3.364801881E1,-4.094717801E-1,5.811567783E0,6.075376511E0
3.366801881E1,2.174477577E-1,5.610570908E0,5.824130535E0
3.368801881E1,6.170491576E-1,5.653641701E0,5.491528034E0
3.370801881E1,7.534400225E-1,5.940780640E0,5.209175110E0
3.372801881E1,8.467600942E-1,5.792425632E0,4.778766155E0
3.374801881E1,6.888338327E-1,5.888138294E0,4.424628258E0
3.376801881E1,4.280161560E-1,5.895316601E0,4.175774574E0
3.378801881E1,3.849453330E-1,5.947958946E0,4.257130623E0
3.380801881E1,1.480558962E-1,6.012565136E0,4.620839596E0
3.382801881E1,-3.472583890E-1,6.241976738E0,5.209175110E0
3.384801881E1,-6.583253145E-1,6.414260387E0,5.910272121E0
3.386801881E1,-6.200401783E-1,6.538686752E0,6.415157318E0
3.388801881E1,-5.075774789E-1,6.830611229E0,6.702296257E0
3.390801881E1,-3.927220106E-1,7.304390430E0,6.520441532E0
3.392801881E1,-1.725823283E-1,7.615457058E0,6.240481377E0
3.394801881E1,-1.366899908E-1,7.919345856E0,6.116054535E0
3.396801881E1,-2.901297435E-2,7.964809418E0,6.226124287E0
3.398801881E1,1.145563871E-1,7.914559841E0,6.436692715E0
3.400801881E1,8.823533356E-2,7.993523121E0,6.656832695E0
3.402801881E1,-1.893320978E-1,8.237590790E0,6.628118515E0
3.404801881E1,-4.094717801E-1,8.484051704E0,6.350551128E0
3.406801881E1,-5.410770178E-1,8.764012337E0,6.539584160E0
3.408801881E1,-3.831507266E-1,8.706583977E0,7.166503906E0
3.410801881E1,-8.644071966E-2,8.603693008E0,7.599604607E0
3.412801881E1,7.866404206E-2,8.740083694E0,7.831708431E0
3.414801881E1,-8.404789865E-2,8.976973534E0,7.941778183E0
3.416801881E1,-1.749751568E-1,8.821439743E0,8.101798058E0
3.418801881E1,-5.410770178E-1,8.503194809E0,8.917751312E0
3.420801881E1,-9.930213690E-1,8.115556717E0,9.920343399E0
3.422801881E1,-1.069591761E0,7.474280834E0,1.057837009E1
3.424801881E1,-8.401798606E-1,6.696613312E0,1.039172935E1
3.426801881E1,-6.320042610E-1,6.077171326E0,9.130712509E0
3.428801881E1,-8.186444640E-1,6.244369984E0,7.506284714E0
3.430801881E1,-7.325028181E-1,6.189334869E0,6.336194515E0
3.432801881E1,-2.515454888E-1,5.806782246E0,5.982056618E0
3.434801881E1,3.131606579E-1,5.411966801E0,6.259624004E0
3.436801881E1,4.064807594E-1,5.139184952E0,6.532405853E0
3.438801881E1,-4.097708687E-2,5.469394207E0,6.759724140E0
3.440801881E1,-3.807578981E-1,5.620141983E0,6.814758778E0
3.442801881E1,-4.429712892E-1,5.584249973E0,6.498906136E0
3.444801881E1,-3.855435550E-1,5.773283005E0,5.479563713E0
3.446801881E1,-3.807578981E-1,5.897709846E0,4.345664978E0
3.448801881E1,-5.889334679E-1,6.136991978E0,3.532105207E0
3.450801881E1,-8.401798606E-1,6.184549332E0,3.477070332E0
3.452801881E1,-1.234696507E0,6.065207005E0,3.936492443E0
3.454801881E1,-1.600798368E0,6.091528416E0,4.314558506E0
3.456801881E1,-1.823330879E0,6.227620125E0,4.673481941E0
3.458801881E1,-1.574477315E0,6.421438694E0,5.216353416E0
3.460801881E1,-1.103091240E0,6.409474373E0,5.627918720E0
3.462801881E1,-7.564310431E-1,6.488437653E0,5.948556900E0
3.464801881E1,-7.085745931E-1,6.840182781E0,6.173482418E0
3.466801881E1,-6.918248534E-1,7.230212688E0,6.290730953E0
3.468801881E1,-6.511468887E-1,7.534101009E0,6.412764549E0
3.470801881E1,-6.870391965E-1,7.842775345E0,6.637690067E0
3.472801881E1,-5.147559643E-1,7.971987724E0,6.611369133E0
3.474801881E1,-3.951148391E-1,7.897810459E0,6.477370739E0
3.476801881E1,-5.051847100E-1,8.113163948E0,6.333801746E0
3.478801881E1,-4.884349108E-1,8.373981476E0,6.601797581E0
3.480801881E1,-2.515454888E-1,8.409873962E0,7.200003147E0
3.482801881E1,5.473581702E-2,8.448159218E0,7.968099594E0
3.484801881E1,2.365903407E-1,8.469695091E0,8.231010437E0
3.486801881E1,3.681955934E-1,8.443373680E0,7.927421570E0
3.488801881E1,-2.691925503E-3,8.854939461E0,7.580461979E0
3.490801881E1,-1.725823283E-1,8.986544609E0,7.609176159E0
3.492801881E1,1.217348501E-1,8.555836678E0,8.140083313E0
3.494801881E1,5.524429083E-1,7.876275063E0,9.159425735E0
3.496801881E1,8.754739761E-1,7.278069019E0,9.898808479E0
3.498801881E1,1.248754263E0,6.600900173E0,9.843772888E0
3.500801881E1,1.342074394E0,6.167799473E0,8.869894028E0
3.502801881E1,1.346860051E0,6.062814236E0,7.360322475E0
3.504801881E1,1.133898854E0,6.053243160E0,6.486942291E0
3.506801881E1,8.587242365E-1,6.174977779E0,6.309873104E0
3.508801881E1,8.970093727E-1,5.988636971E0,6.934400082E0
3.510801881E1,1.136291623E0,5.574678421E0,7.142575741E0
3.512801881E1,7.486543655E-1,5.711069584E0,6.731009960E0
3.514801881E1,1.911267042E-1,6.191727638E0,5.912664890E0
3.516801881E1,-7.447660714E-2,6.588936329E0,5.259424210E0
3.518801881E1,-1.704886183E-2,6.737291336E0,5.455635548E0
3.520801881E1,4.304089844E-1,6.770790577E0,6.015556335E0
3.522801881E1,1.023828983E0,6.466902256E0,6.458228111E0
3.524801881E1,1.133898854E0,6.208477497E0,6.673582554E0
3.526801881E1,6.433702111E-1,6.086742401E0,6.496513367E0
3.528801881E1,9.780662507E-2,6.113063812E0,5.766702652E0
3.530801881E1,-1.534397453E-1,6.167799473E0,4.843372345E0
3.532801881E1,7.627122104E-2,6.218048573E0,4.398307323E0
3.534801881E1,4.423730969E-1,6.251548290E0,4.489234447E0
3.536801881E1,4.926223755E-1,6.299404621E0,4.836193562E0
3.538801881E1,4.277170449E-2,6.610471725E0,5.166104317E0
3.540801881E1,-5.003990531E-1,6.883253574E0,5.450850010E0
3.542801881E1,-5.003990531E-1,6.904788971E0,5.757131100E0
3.544801881E1,-1.989033818E-1,6.981359005E0,6.202196121E0
3.546801881E1,1.887338907E-1,7.022037029E0,6.608976364E0
3.548801881E1,3.993022740E-1,7.258926392E0,6.747759819E0
3.550801881E1,6.050850153E-1,7.359425068E0,6.723831654E0
3.552801881E1,7.199404836E-1,7.361817837E0,6.374479294E0
3.554801881E1,4.974080026E-1,7.354639530E0,6.113661766E0
3.556801881E1,1.600200087E-1,7.400103092E0,6.123233318E0
3.558801881E1,-6.490531564E-2,7.577171803E0,6.247660160E0
3.560801881E1,-6.729813665E-2,7.835597038E0,6.329015732E0
3.562801881E1,-7.208377868E-2,7.842775345E0,6.434299946E0
3.564801881E1,-3.544368446E-1,8.000701904E0,6.817151546E0
3.566801881E1,-6.750751138E-1,8.082057953E0,7.386643410E0
3.568801881E1,-8.114659786E-1,7.998308659E0,7.915457249E0
3.570801881E1,-9.427721500E-1,8.235198021E0,8.113762856E0
3.572801881E1,-1.055234790E0,8.589336395E0,8.144868851E0
3.574801881E1,-1.148554921E0,8.835796356E0,8.692825317E0
3.576801881E1,-1.143769264E0,8.708976746E0,9.673882484E0
3.578801881E1,-8.688937426E-1,8.067700386E0,1.095135117E1
3.580801881E1,-5.841478109E-1,7.065107822E0,1.159741306E1
3.582801881E1,-5.793621540E-1,6.366403580E0,1.100638580E1
3.584801881E1,-6.367899179E-1,6.067600250E0,9.427422523E0
3.586801881E1,-5.697908998E-1,6.002993584E0,7.683353424E0
3.588801881E1,-4.336991161E-2,5.890531063E0,6.783652306E0
3.590801881E1,4.926223755E-1,5.567500114E0,6.807580471E0
3.592801881E1,4.423730969E-1,5.050650597E0,7.312466145E0
3.594801881E1,-2.347957194E-1,4.909473896E0,7.223931789E0
3.596801881E1,-9.068797827E-1,5.170291424E0,6.290730953E0
3.598801881E1,-1.225125194E0,5.361717224E0,5.173282623E0
3.600801881E1,-1.174875975E0,5.440680504E0,4.247559071E0
3.602801881E1,-6.535396576E-1,5.330610752E0,3.828815222E0
3.604801881E1,2.123630047E-2,5.203791142E0,3.690031528E0
3.606801881E1,1.025922745E-1,5.301896572E0,3.737888098E0
3.608801881E1,-1.534397453E-1,5.756533146E0,3.960420609E0
3.610801881E1,-2.874378264E-1,5.914459229E0,5.802595139E0
3.612801881E1,-5.243272781E-1,5.273182869E0,7.436892986E0
3.614801881E1,-1.043270707E0,5.342574596E0,7.896314621E0
3.616801881E1,-1.825723648E0,5.885745525E0,7.566105366E0
3.618801881E1,-1.713261008E0,6.335297108E0,6.831508636E0
3.620801881E1,-9.236295223E-1,6.507580280E0,6.218945980E0
3.622801881E1,-2.276172489E-1,6.708577156E0,6.185446739E0
3.624801881E1,-9.601201117E-2,6.974180698E0,6.407979012E0
3.626801881E1,-4.214358926E-1,7.280461788E0,7.183253765E0
3.628801881E1,-5.315057039E-1,7.234998226E0,7.281359196E0
3.630801881E1,-4.190430641E-1,7.424031258E0,7.161718369E0
3.632801881E1,-4.022932947E-1,7.632206917E0,7.003791809E0
3.634801881E1,-4.525425732E-1,7.823632717E0,7.140182972E0
3.636801881E1,-3.735794425E-1,8.084450722E0,7.465606689E0
3.638801881E1,-4.097708687E-2,8.290233612E0,7.714460373E0
3.640801881E1,4.806582630E-1,8.180163383E0,7.858029366E0
3.642801881E1,5.237290859E-1,8.239983559E0,8.451150894E0
3.644801881E1,6.242275834E-1,7.706384659E0,9.726525307E0
3.646801881E1,1.677069545E0,6.574579239E0,1.086311531E1
3.648801881E1,3.533600807E0,5.617749214E0,9.472886086E0
3.650801881E1,4.174877167E0,5.703890800E0,6.893722057E0
3.652801881E1,2.782254457E0,6.505187511E0,5.063511848E0
3.654801881E1,8.012964725E-1,6.945466995E0,5.611168861E0
3.656801881E1,4.160520434E-1,6.632007122E0,7.812565804E0
3.658801881E1,1.571785331E0,5.770890236E0,1.031515884E1
3.660801881E1,2.681756020E0,5.215754986E0,1.161894894E1
3.662801881E1,2.569293261E0,5.100899696E0,1.124566841E1
3.664801881E1,1.514357686E0,5.797211170E0,8.857930183E0
3.666801881E1,8.347960114E-1,6.084349632E0,6.958328247E0
3.668801881E1,2.820539773E-1,5.849853039E0,6.448657036E0
3.670801881E1,1.887338907E-1,5.524429321E0,6.939185619E0
3.672801881E1,4.591228366E-1,5.309075356E0,7.381857872E0
3.674801881E1,5.045864582E-1,5.663212776E0,7.233502865E0
3.676801881E1,6.505486369E-1,6.230012894E0,6.271588326E0
3.678801881E1,5.524429083E-1,6.194120407E0,5.651846886E0
3.680801881E1,1.983051747E-1,5.933601856E0,5.580062389E0
3.682801881E1,9.302098304E-2,5.498108387E0,5.850451469E0
3.684801881E1,1.167398334E0,4.280161381E0,6.510870457E0
3.686801881E1,2.164906263E0,3.208476067E0,6.594619274E0
3.688801881E1,2.487937450E0,2.930908680E0,6.482156754E0
3.690801881E1,1.923530340E0,3.454637766E0,5.438885689E0
3.692801881E1,1.136291623E0,4.818546772E0,4.541876316E0
3.694801881E1,3.275175989E-1,6.189334869E0,4.247559071E0
3.696801881E1,-1.095912814E0,8.036594391E0,4.194917202E0
3.698801881E1,-2.840280533E0,1.038604641E1,5.352744102E0
3.700801881E1,-2.359323025E0,1.013240719E1,7.310073376E0
3.702801881E1,-8.306085467E-1,8.833403587E0,9.166604042E0
3.704801881E1,-3.903291821E-1,8.342875481E0,1.068126106E1
3.706801881E1,2.006980032E-1,7.495816231E0,1.019073296E1
3.708801881E1,6.864410043E-1,6.828218460E0,7.884350777E0
3.710801881E1,6.553342938E-1,6.797111988E0,5.740381718E0
3.712801881E1,8.922237158E-1,6.572186470E0,4.223630905E0
3.714801881E1,1.325324655E0,6.230012894E0,3.917349815E0
3.716801881E1,1.184148073E0,6.196513176E0,4.893621445E0
3.718801881E1,8.922237158E-1,6.213263035E0,5.577669621E0
3.720801881E1,6.242275834E-1,6.179763794E0,5.620740414E0
3.722801881E1,1.265204996E-1,6.519544601E0,5.527420521E0
3.724801881E1,-3.592225015E-1,6.995716095E0,5.656632900E0
3.726801881E1,-4.956133962E-1,6.907181740E0,6.628118515E0
3.728801881E1,-6.415755749E-1,6.955038071E0,7.518248558E0
3.730801881E1,-6.176473498E-1,7.340282440E0,8.333902359E0
3.732801881E1,-3.257229924E-1,7.471887589E0,8.886644363E0
3.734801881E1,-6.011966988E-2,7.462316513E0,9.381958008E0
3.736801881E1,6.669992954E-2,7.397710323E0,9.776774406E0
3.738801881E1,-5.294119939E-2,7.443173885E0,9.618847847E0
3.740801881E1,-7.660023570E-1,8.189734459E0,9.164211273E0
3.742801881E1,-1.423729420E0,9.194420815E0,9.200103760E0
3.744801881E1,-1.153340459E0,9.122636795E0,1.024098206E1
3.746801881E1,-3.879363835E-1,7.727920055E0,1.217886925E1
3.748801881E1,1.528415531E-1,5.916851997E0,1.373659706E1
3.750801881E1,-2.611167729E-1,4.844867706E0,1.303789234E1
3.752801881E1,-1.141376376E0,4.304089546E0,1.061186886E1
3.754801881E1,-1.753939033E0,4.124628067E0,7.925028801E0
3.756801881E1,-2.055434704E0,4.184448719E0,5.635097504E0
3.758801881E1,-2.270788670E0,3.918845177E0,5.123033047E0
3.760801881E1,-1.648654819E0,3.933202267E0,5.190032482E0
3.762801881E1,-1.076770186E0,4.277768612E0,5.438885689E0
3.764801881E1,-6.128616929E-1,4.911866665E0,5.429314613E0
3.766801881E1,-1.510469317E-1,5.318646431E0,5.187639713E0
3.768801881E1,-1.654038578E-1,5.627320766E0,4.711766720E0
3.770801881E1,-5.865406394E-1,6.069993019E0,4.068097591E0
3.772801881E1,-9.427721500E-1,6.593721867E0,3.826422453E0
3.774801881E1,-6.894320250E-1,6.909574509E0,3.857529163E0
3.776801881E1,3.559323773E-2,6.837790012E0,4.649553299E0
3.778801881E1,7.342974544E-1,6.206084728E0,5.661418438E0
3.780801881E1,4.663013220E-1,5.864210129E0,6.336194515E0
3.782801881E1,-2.060818523E-1,6.203691959E0,6.226124287E0
3.784801881E1,-1.012163997E0,6.825825691E0,5.312066078E0
3.786801881E1,-1.313659668E0,7.184749126E0,4.257130623E0
3.788801881E1,-1.201196909E0,7.505387306E0,3.601497173E0
3.790801881E1,-8.377870321E-1,7.613064289E0,3.192324400E0
3.792801881E1,-5.075774789E-1,7.632206917E0,3.718745470E0
3.794801881E1,-4.118646085E-1,7.883453369E0,5.170889854E0
3.796801881E1,3.825525343E-1,8.680263519E0,6.618547440E0
3.798801881E1,1.863709688E0,8.883653641E0,7.657032490E0
3.800801881E1,2.772683144E0,8.618049622E0,8.970393181E0
3.802801881E1,2.607578516E0,8.113163948E0,1.020508957E1
3.804801881E1,1.724925995E0,7.373782158E0,1.135813046E1
3.806801881E1,3.586242795E-1,7.230212688E0,1.144187927E1
3.808801881E1,-2.180459648E-1,7.110571384E0,1.116909790E1
3.810801881E1,-9.361918271E-2,6.955038071E0,1.060708332E1
3.812801881E1,4.232304990E-1,6.677470684E0,1.043958569E1
3.814801881E1,7.797610760E-1,7.077072144E0,1.012134075E1
3.816801881E1,1.081256747E0,7.297211647E0,9.152247429E0
3.818801881E1,1.287039518E0,6.816254616E0,7.661818027E0
3.820801881E1,6.146563292E-1,6.289833546E0,5.917450428E0
3.822801881E1,-5.267201066E-1,6.416653156E0,4.690231323E0
3.824801881E1,-1.172483087E0,6.524330139E0,4.802694321E0
3.826801881E1,-9.332008362E-1,6.459723949E0,5.637490273E0
3.828801881E1,1.767697781E-1,6.151049614E0,6.472585201E0
3.830801881E1,9.472586513E-1,5.945566177E0,6.982256413E0
3.832801881E1,1.179362416E0,5.823532104E0,6.685546398E0
3.834801881E1,8.994022012E-1,5.658427238E0,5.682953835E0
3.836801881E1,4.830510616E-1,5.194219589E0,4.953442097E0
3.838801881E1,3.394817114E-1,5.110470772E0,5.018048286E0
3.840801881E1,1.052542806E0,5.526822090E0,5.814558983E0
3.842801881E1,2.260619164E0,6.067600250E0,6.384050846E0
3.844801881E1,2.346760750E0,5.560321808E0,5.711667538E0
3.846801881E1,1.366002679E0,5.366502762E0,5.271388054E0
3.848801881E1,8.344969153E-2,5.428716183E0,5.257031441E0
3.850801881E1,-8.425726891E-1,5.837889194E0,5.505885124E0
3.852801881E1,-1.021735311E0,6.507580280E0,5.134997368E0
3.854801881E1,-9.595218897E-1,6.868896484E0,4.419842720E0
3.856801881E1,-1.335195065E0,6.682256222E0,4.594518661E0
3.858801881E1,-2.009970903E0,6.478866577E0,5.022833824E0
3.860801881E1,-2.268395901E0,6.574579239E0,5.735595703E0
3.862801881E1,-1.907079697E0,6.663113594E0,6.594619274E0
3.864801881E1,-1.138983607E0,6.959823608E0,7.472784996E0
3.866801881E1,-6.032904387E-1,7.347461224E0,7.463213921E0
3.868801881E1,-2.539383173E-1,7.534101009E0,7.298109055E0
3.870801881E1,-4.118646085E-1,7.502994537E0,6.936792850E0
3.872801881E1,-9.140582681E-1,7.694420338E0,6.795616150E0
3.874801881E1,-8.090731502E-1,7.818847179E0,6.606583118E0
3.876801881E1,-4.621138871E-1,7.715955734E0,6.764509678E0
3.878801881E1,-4.118646085E-1,7.806882858E0,7.575676441E0
3.880801881E1,-5.626124144E-1,7.787740231E0,8.412865639E0
3.882801881E1,-1.019342422E0,7.651349545E0,9.142676353E0
3.884801881E1,-1.469193101E0,7.907381535E0,1.014766216E1
3.886801881E1,-1.217946768E0,7.632206917E0,1.105663490E1
3.888801881E1,-7.707880139E-1,6.859325409E0,1.159262753E1
3.890801881E1,-6.032904387E-1,6.548258305E0,1.147777176E1
3.892801881E1,-8.521439433E-1,6.500401974E0,1.075065327E1
3.894801881E1,-1.306481123E0,6.433403015E0,9.905986786E0
3.896801881E1,-1.514656782E0,5.991029739E0,9.755238533E0
3.898801881E1,-1.150947690E0,5.404788017E0,9.932307243E0
3.900801881E1,-4.621138871E-1,5.100899696E0,9.626026154E0
3.902801881E1,-2.778665423E-1,4.909473896E0,8.585148811E0
3.904801881E1,-5.578267574E-1,5.067399979E0,7.214360237E0
3.906801881E1,-1.112662554E0,5.273182869E0,6.405586243E0
3.908801881E1,-1.272981644E0,5.421537876E0,5.718846321E0
3.910801881E1,-1.098305583E0,5.356931686E0,5.692524910E0
3.912801881E1,-9.954141974E-1,5.196612358E0,6.056233883E0
3.914801881E1,-1.016949654E0,5.057828903E0,6.128018856E0
3.916801881E1,-1.191625714E0,5.065007210E0,5.994020939E0
3.918801881E1,-1.481157184E0,5.026721954E0,5.752345562E0
3.920801881E1,-1.643869162E0,5.129613400E0,5.905486107E0
3.922801881E1,-1.428515077E0,5.438287735E0,6.132804394E0
3.924801881E1,-9.044869542E-1,5.732604980E0,6.309873104E0
3.926801881E1,-4.142574072E-1,5.976672649E0,6.037091732E0
3.928801881E1,-9.122636169E-2,6.241976738E0,5.819344521E0
3.930801881E1,1.336989701E-1,6.371189594E0,5.788238049E0
3.932801881E1,3.346960545E-1,6.392724991E0,5.833701611E0
3.934801881E1,8.823533356E-2,6.629614353E0,5.891129494E0
3.936801881E1,-3.735794425E-1,7.034001350E0,5.965306759E0
3.938801881E1,-5.745765567E-1,7.208677292E0,6.419943333E0
3.940801881E1,-5.841478109E-1,7.476673603E0,7.094718933E0
3.942801881E1,-2.324029058E-1,7.919345856E0,7.750352383E0
3.944801881E1,5.739783049E-1,8.292626381E0,8.235795975E0
3.946801881E1,1.014257669E0,8.445766449E0,7.956135273E0
3.948801881E1,9.855438471E-1,8.627620697E0,8.070692062E0
3.950801881E1,5.428716540E-1,8.857332230E0,8.805288315E0
3.952801881E1,1.074078321E0,7.890631676E0,1.010937691E1
3.954801881E1,4.239483356E0,8.208877563E0,1.141555882E1
3.956801881E1,3.217748165E0,7.720741272E0,9.951450348E0
3.958801881E1,1.705783486E0,6.854539394E0,6.757331371E0
3.960801881E1,-6.200401783E-1,7.404888630E0,5.517848969E0
3.962801881E1,1.552343667E-1,6.593721867E0,5.589633465E0
3.964801881E1,1.167398334E0,6.282654762E0,7.946564198E0
3.966801881E1,2.054836512E0,5.689534187E0,8.877073288E0
3.968801881E1,1.507179141E0,5.354538918E0,7.836493969E0
3.970801881E1,1.102792144E0,5.151148796E0,6.848258495E0
3.972801881E1,1.435394526E0,5.050650597E0,6.159125328E0
3.974801881E1,1.121934772E0,5.445466042E0,5.572884083E0
3.976801881E1,1.380359530E0,5.598606586E0,6.659225464E0
3.978801881E1,1.411466241E0,5.770890236E0,5.546562672E0
3.980801881E1,1.909173369E0,5.947958946E0,4.699802876E0
3.982801881E1,1.590927958E0,6.380760670E0,4.654339314E0
3.984801881E1,1.614856124E0,6.198905945E0,4.718945503E0
3.986801881E1,1.566999674E0,5.988636971E0,5.190032482E0
3.988801881E1,1.023828983E0,5.744568825E0,4.912764072E0
3.990801881E1,1.093220830E0,6.022136211E0,4.733302116E0
3.992801881E1,1.483250976E0,6.320940018E0,5.273781300E0
3.994801881E1,1.672283888E0,6.399903297E0,5.592026711E0
3.996801881E1,1.574178219E0,6.548258305E0,4.754837513E0
3.998801881E1,1.562214136E0,6.359225273E0,4.616054058E0
4.000801881E1,1.377966762E0,6.428617001E0,5.115854740E0
4.002801881E1,1.260718465E0,6.971787930E0,5.895915031E0
4.004801881E1,9.735797048E-1,7.376174927E0,5.498706341E0
4.006801881E1,1.083649516E0,7.498209000E0,4.929513931E0
4.008801881E1,1.811067581E0,7.608278751E0,5.006083965E0
4.010801881E1,2.861217737E0,7.462316513E0,5.096712112E0
4.012801881E1,2.028814554E0,8.034200668E0,6.522834301E0
4.014801881E1,1.430608869E0,7.928916931E0,4.869693279E0
4.016801881E1,8.802596331E-1,8.046165466E0,4.575376034E0
4.021469135E1,3.040679455E0,7.467102051E0,6.881757736E0
4.023469135E1,1.985743642E0,7.474280834E0,7.209574699E0
4.025469135E1,1.916351795E0,6.816254616E0,5.800201893E0
4.027469135E1,2.854039192E0,6.706184387E0,4.781158924E0
4.029469135E1,3.193820000E0,7.019644260E0,4.230809689E0
4.031469135E1,3.428316593E0,7.299604416E0,4.704588413E0
4.033469135E1,2.370688915E0,7.170392036E0,6.314659119E0
4.035469135E1,1.610070586E0,7.053143978E0,6.537191391E0
4.037469135E1,1.057328463E0,7.390532017E0,5.345565796E0
4.039469135E1,7.989036441E-1,7.251748085E0,4.843372345E0
4.041469135E1,5.261218548E-1,7.330711365E0,5.417350292E0
4.043469135E1,6.194419861E-1,7.510172844E0,6.123233318E0
4.045469135E1,3.610171080E-1,7.534101009E0,6.697510719E0
4.047469135E1,2.174477577E-1,7.347461224E0,6.795616150E0
4.049469135E1,7.390831113E-1,7.112964630E0,6.027520180E0
4.051469135E1,1.155434251E0,7.077072144E0,5.414957523E0
4.053469135E1,1.945065737E0,7.299604416E0,5.441278458E0
4.055469135E1,2.229512453E0,7.479066372E0,5.037190914E0
4.057469135E1,1.418644667E0,7.467102051E0,4.726123810E0
4.059469135E1,1.042971611E0,7.359425068E0,4.905585289E0
4.061469135E1,1.093220830E0,7.955237865E0,5.922235966E0
4.063469135E1,1.349252820E0,8.304590225E0,6.513263226E0
4.065469135E1,1.464108348E0,8.161020279E0,6.458228111E0
4.067469135E1,1.689033628E0,8.098807335E0,5.869594097E0
4.069469135E1,1.983350873E0,8.027022362E0,5.601597786E0
4.071469135E1,2.105085611E0,8.053343773E0,6.010770321E0
4.073469135E1,2.071586132E0,8.335697174E0,7.185646534E0
4.075469135E1,1.844567180E0,8.328517914E0,7.913064480E0
4.077469135E1,1.629213095E0,7.859525204E0,8.546863556E0
4.079469135E1,1.523928881E0,7.644171238E0,9.917950630E0
4.081469135E1,1.765604019E0,7.359425068E0,1.082722378E1
4.083469135E1,1.899602056E0,6.749255180E0,1.091815090E1
4.085469135E1,1.710569143E0,5.967101574E0,1.079372406E1
4.087469135E1,1.248754263E0,5.526822090E0,1.074347496E1
4.089469135E1,6.936194897E-1,5.335396290E0,1.050658512E1
4.091469135E1,4.088735580E-1,5.395216942E0,1.005194855E1
4.093469135E1,7.821539044E-1,5.266004562E0,1.003759193E1
4.095469135E1,9.233304262E-1,5.177470207E0,1.000648499E1
4.097469135E1,9.879366755E-1,5.009972572E0,9.599705696E0
4.099469135E1,8.635098934E-1,5.158327579E0,9.046963692E0
4.101469135E1,6.266204119E-1,5.304289818E0,8.510971069E0
4.103469135E1,1.767697781E-1,5.380859852E0,8.403293610E0
4.105469135E1,-5.533402413E-2,5.220541000E0,7.905886173E0
4.107469135E1,-7.208377868E-2,4.933402061E0,7.458428383E0
4.109469135E1,5.234299600E-2,4.966901779E0,7.233502865E0
4.111469135E1,2.365903407E-1,4.737190723E0,6.661618233E0
4.113469135E1,-1.941177398E-1,4.746761799E0,6.407979012E0
4.115469135E1,-3.041875660E-1,4.797011375E0,6.068198204E0
4.117469135E1,-2.730808854E-1,4.907081127E0,5.778666496E0
4.119469135E1,-7.208377868E-2,5.189434052E0,5.838487148E0
4.121469135E1,3.798605874E-2,5.622535229E0,6.233303070E0
4.123469135E1,1.695913076E-1,5.646463394E0,6.494120598E0
4.125469135E1,2.676970363E-1,5.648856163E0,6.632904530E0
4.127469135E1,2.796611488E-1,5.823532104E0,6.391229153E0
4.129469135E1,3.131606579E-1,5.892923832E0,6.113661766E0
4.131469135E1,1.289133132E-1,6.122634888E0,6.343372822E0
4.133469135E1,1.600200087E-1,6.268298149E0,6.451049805E0
4.135469135E1,4.112663865E-1,6.533901215E0,6.711867332E0
4.137469135E1,5.955137610E-1,6.562615395E0,6.446264267E0
4.139469135E1,4.758726060E-1,6.608078957E0,6.113661766E0
4.141469135E1,2.796611488E-1,6.498009205E0,6.175875187E0
4.143469135E1,5.473581702E-2,6.689435005E0,6.044270039E0
4.145469135E1,1.743769497E-1,6.840182781E0,6.068198204E0
4.147469135E1,5.234299600E-2,7.182356358E0,5.950950146E0
4.149469135E1,2.362912335E-2,7.325925827E0,6.142375946E0
4.151469135E1,1.097707376E-1,7.505387306E0,6.702296257E0
4.153469135E1,3.059822023E-1,7.581957817E0,7.252645493E0
4.155469135E1,6.457630396E-1,7.450352192E0,7.420143127E0
4.157469135E1,9.687940478E-1,7.491030216E0,7.216753006E0
4.159469135E1,1.227218866E0,7.569993496E0,6.829115868E0
4.161469135E1,1.523928881E0,7.622635841E0,6.350551128E0
4.163469135E1,1.411466241E0,7.804490089E0,6.881757736E0
4.165469135E1,1.208076358E0,7.847560883E0,7.647460938E0
4.167469135E1,1.370788217E0,7.902595997E0,8.857930183E0
4.169469135E1,1.550249934E0,7.804490089E0,1.020508957E1
4.171469135E1,1.811067581E0,7.443173885E0,1.076979542E1
4.173469135E1,2.401795626E0,6.622435570E0,1.104706383E1
4.175469135E1,2.648256540E0,6.328118801E0,1.032473087E1
4.177469135E1,2.370688915E0,6.512365818E0,9.259924889E0
4.179469135E1,2.073979139E0,6.426224232E0,8.802895546E0
4.181469135E1,2.076371908E0,6.122634888E0,8.984749794E0
4.183469135E1,1.844567180E0,5.684748173E0,8.554041862E0
4.185469135E1,1.741675735E0,5.373681545E0,7.707281590E0
4.187469135E1,1.294217944E0,5.232504845E0,6.853044033E0
4.189469135E1,8.659027219E-1,5.199005604E0,5.924628735E0
4.191469135E1,3.275175989E-1,5.364109993E0,5.661418438E0
4.193469135E1,1.073779166E-1,5.385645390E0,6.510870457E0
4.195469135E1,9.541380405E-2,5.397609711E0,6.546762943E0
4.197469135E1,4.037888348E-2,5.196612358E0,6.443871498E0
4.199469135E1,-9.840483218E-2,5.196612358E0,6.113661766E0
4.201469135E1,6.430710852E-2,5.522036552E0,5.154139996E0
4.203469135E1,7.247261405E-1,6.433403015E0,5.134997368E0
4.205469135E1,4.710869491E-1,6.220441341E0,5.580062389E0
4.207469135E1,1.349252820E0,5.385645390E0,6.824330330E0
4.209469135E1,1.291825175E0,5.249254704E0,7.305287361E0
4.211469135E1,5.739783049E-1,5.792425632E0,6.656832695E0
