"Time (s)","Acceleration x (m/s^2)","Acceleration y (m/s^2)","Acceleration z (m/s^2)"
4.236533900E-2,-3.799500167E-1,6.592950344E0,8.632950783E0
6.236533900E-2,-4.519500136E-1,6.591000080E0,9.460950851E0
8.236533900E-2,-5.700000525E-1,6.568050385E0,9.567000389E0
1.023653390E-1,-1.309950113E0,6.534000397E0,9.691050529E0
1.223653390E-1,-1.381050110E0,6.589050293E0,1.042305088E1
1.423653390E-1,-2.085000038E0,6.720000267E0,1.032705021E1
1.623653390E-1,-2.053050041E0,6.724950314E0,1.028805065E1
1.823653390E-1,-2.031000137E0,6.699000359E0,1.101105022E1
2.023653390E-1,-2.095950127E0,6.661950111E0,1.093305016E1
2.223653390E-1,-2.208000183E0,6.589950085E0,1.084395027E1
2.423653390E-1,-2.329950094E0,6.511950493E0,1.079595089E1
2.623653390E-1,-2.437950134E0,5.767050266E0,1.065795040E1
2.823653390E-1,-2.568000078E0,5.824950218E0,9.184050560E0
3.023653390E-1,-3.442050219E0,5.778000355E0,8.377950668E0
3.223653390E-1,-4.269000053E0,4.234950066E0,7.707000256E0
3.423653390E-1,-4.393050194E0,3.241050243E0,9.382050514E0
3.623653390E-1,-5.341050148E0,2.452050209E0,1.025700092E1
3.823653390E-1,-5.449950218E0,2.332950115E0,1.025700092E1
4.023653390E-1,-5.545050144E0,2.373000145E0,7.456950188E0
4.223653390E-1,-6.298050404E0,3.283950090E0,5.548050404E0
4.423653390E-1,-5.404050350E0,4.179000378E0,5.545050144E0
4.623653390E-1,-5.301000118E0,4.996950150E0,8.254050255E0
4.823653390E-1,-5.245050430E0,5.080950260E0,1.186395073E1
5.023653390E-1,-5.179950237E0,5.862000465E0,1.394100094E1
5.223653390E-1,-4.222050190E0,6.724950314E0,1.483005047E1
5.423653390E-1,-2.437050104E0,6.802950382E0,1.386900043E1
5.623653390E-1,-2.302950144E0,7.609050274E0,1.231305027E1
5.823653390E-1,-6.760500073E-1,7.623000145E0,1.153395081E1
6.023653390E-1,1.279500127E-1,7.603950500E0,1.149705029E1
6.223653390E-1,1.150500029E-1,7.501050472E0,1.140405083E1
6.423653390E-1,7.800000161E-2,5.859000206E0,9.706050873E0
6.623653390E-1,1.090500057E-1,4.267950058E0,8.854949951E0
6.823653390E-1,9.859500527E-1,3.459000111E0,7.158000469E0
7.023653390E-1,1.081050038E0,2.598000050E0,7.087950230E0
7.223653390E-1,1.849950075E0,9.409500360E-1,7.153050423E0
7.423653390E-1,2.647950172E0,8.260500431E-1,7.251000404E0
7.623653390E-1,2.758950233E0,6.769500375E-1,8.229000092E0
7.823653390E-1,2.863950253E0,6.930000186E-1,8.335050583E0
8.023653390E-1,2.809950113E0,2.409000158E0,8.434950829E0
8.223653390E-1,2.782950163E0,4.300950050E0,9.250950813E0
8.423653390E-1,1.902000070E0,5.328000069E0,9.358050346E0
8.623653390E-1,1.050000072E0,6.145050526E0,1.322295094E1
8.823653390E-1,-5.770500302E-1,6.256950378E0,1.741095161E1
9.023653390E-1,-6.930000186E-1,6.184950352E0,1.900800133E1
9.223653390E-1,-7.680000067E-1,5.323950291E0,1.894305038E1
9.423653390E-1,-7.489500642E-1,4.494000435E0,1.742595100E1
9.623653390E-1,-7.759500146E-1,4.465050220E0,1.646295166E1
9.823653390E-1,-1.546950102E0,5.314050198E0,1.375995064E1
1.002365339E0,-1.681950092E0,5.317050457E0,1.221600056E1
1.022365339E0,-1.783950090E0,4.513950348E0,1.211700058E1
1.042365339E0,-1.893000126E0,3.730050087E0,9.784950256E0
1.062365339E0,-2.764050245E0,2.920950174E0,7.912950516E0
1.082365339E0,-2.842050076E0,2.131050110E0,6.225000381E0
1.102365339E0,-2.937000036E0,2.026050091E0,4.582050323E0
1.122365339E0,-3.033000231E0,1.018050075E0,3.778950214E0
1.142365339E0,-3.064950228E0,1.969500035E-1,3.006000042E0
1.162365339E0,-3.100050211E0,-5.740500093E-1,2.989950180E0
1.182365339E0,-3.133050203E0,-6.040500402E-1,4.663050175E0
1.202365339E0,-3.237000227E0,2.239500135E-1,4.684950352E0
1.222365339E0,-4.024050236E0,2.107050180E0,2.914950132E0
1.242365339E0,-4.854000092E0,3.765000105E0,2.215050220E0
1.262365339E0,-4.798950195E0,4.590000153E0,4.789050102E0
1.282365339E0,-4.708050251E0,4.659000397E0,7.363950253E0
1.302365339E0,-4.639950275E0,4.578000069E0,9.157050133E0
1.322365339E0,-3.865950108E0,3.796950102E0,1.282200050E1
1.342365339E0,-3.787050247E0,3.790950298E0,1.643400002E1
1.362365339E0,-3.679950237E0,3.886050224E0,1.740000153E1
1.382365339E0,-2.800950050E0,4.738950253E0,1.737795067E1
1.402365339E0,-2.719950199E0,5.583000183E0,1.650900078E1
1.422365339E0,-2.673000097E0,5.626950264E0,1.575495052E1
1.442365339E0,-2.719050169E0,5.698950291E0,1.564200115E1
1.462365339E0,-2.685000181E0,5.697000504E0,1.330605030E1
1.482365339E0,-2.539050102E0,5.566950321E0,1.166100025E1
1.502365339E0,-1.632000089E0,4.843950272E0,1.086300087E1
1.522365339E0,-7.549500465E-1,5.614950180E0,1.003200054E1
1.542365339E0,-6.730500460E-1,6.514050484E0,9.324000359E0
1.562365339E0,-5.839500427E-1,6.448950291E0,9.375000000E0
1.582365339E0,-4.639500082E-1,4.801950455E0,1.019700050E1
1.602365339E0,-3.529500067E-1,4.728000164E0,1.090695095E1
1.622365339E0,-2.970000207E-1,3.928950071E0,1.171395016E1
1.642365339E0,-2.719500065E-1,3.853050232E0,1.344495106E1
1.662365339E0,-3.559500277E-1,3.781050205E0,1.427505112E1
1.682365339E0,-2.119950056E0,4.621950150E0,1.420500088E1
1.702365339E0,-3.646950245E0,5.605050087E0,1.409505081E1
1.722365339E0,-3.772950172E0,4.846050262E0,1.420995045E1
1.742365339E0,-3.841050148E0,3.895950079E0,1.419600105E1
1.762365339E0,-3.766050100E0,3.076950073E0,1.262205029E1
1.782365339E0,-3.634050131E0,2.982000113E0,1.045905018E1
1.802365339E0,-2.947050095E0,2.932050228E0,8.895000458E0
1.822365339E0,-2.986050129E0,2.928000212E0,8.122950554E0
1.842365339E0,-3.898050070E0,2.124000072E0,7.312050343E0
1.862365339E0,-4.624950409E0,1.147050023E0,7.189050198E0
1.882365339E0,-4.645050049E0,2.980500162E-1,5.575050354E0
1.902365339E0,-4.549950123E0,1.830000132E-1,3.931950092E0
1.922365339E0,-4.459950447E0,1.090500057E-1,3.051000118E0
1.942365339E0,-4.381950378E0,1.290000081E-1,2.310000181E0
1.962365339E0,-3.556950092E0,1.609500051E-1,4.132050037E0
1.982365339E0,-1.321050048E0,1.830000132E-1,6.573000431E0
2.002365339E0,-1.210050106E0,2.725950241E0,5.593950272E0
2.022365339E0,-2.077050209E0,4.335000038E0,5.659950256E0
2.042365339E0,-2.155950069E0,5.125050068E0,8.072999954E0
2.062365339E0,-2.229000092E0,5.185950279E0,1.044195080E1
2.082365339E0,-2.173050165E0,5.173050404E0,1.137795067E1
2.102365339E0,-1.378950119E0,5.167950153E0,1.145505047E1
2.122365339E0,-1.330050111E0,6.076950073E0,1.303395081E1
2.142365339E0,-1.411950111E0,6.163050175E0,1.454505062E1
2.162365339E0,-2.161050081E0,6.279000282E0,1.464195061E1
2.182365339E0,-2.142000198E0,6.348000526E0,1.467495060E1
2.202365339E0,-2.232000113E0,6.369000435E0,1.465095043E1
2.222365339E0,-3.112950087E0,6.268050194E0,1.466505051E1
2.242365339E0,-3.028050184E0,5.353950024E0,1.391505051E1
2.262365339E0,-2.131050110E0,4.531050205E0,1.123800087E1
2.282365339E0,-1.204050064E0,3.787050247E0,8.794050217E0
2.302365339E0,-3.840000033E-1,3.838950157E0,7.161000252E0
2.322365339E0,-4.699500203E-1,4.629000187E0,5.257050037E0
2.342365339E0,-5.749500394E-1,4.557000160E0,6.258000374E0
2.362365339E0,-6.199500561E-1,3.090000153E0,1.038900089E1
2.382365339E0,-5.689499974E-1,2.977050066E0,1.189200020E1
2.402365339E0,-6.280500293E-1,2.866050243E0,1.179795074E1
2.422365339E0,-7.450500131E-1,2.856000185E0,1.169100094E1
2.442365339E0,-9.030000567E-1,2.908950090E0,1.086405087E1
2.462365339E0,-1.666050076E0,2.941050053E0,9.978000641E0
2.482365339E0,-1.603950024E0,2.940000057E0,9.181050301E0
2.502365339E0,-1.516050100E0,2.947050095E0,7.621050358E0
2.522365339E0,-6.360000372E-1,2.928000212E0,7.567950249E0
2.542365339E0,-5.599500537E-1,2.952000141E0,7.576950550E0
2.562365339E0,-5.059500337E-1,3.019050121E0,7.618950367E0
2.582365339E0,-5.080500245E-1,3.847950220E0,7.627950191E0
2.602365339E0,-1.417050123E0,3.931950092E0,7.605000496E0
2.622365339E0,-1.336950064E0,4.765050411E0,7.617000580E0
2.642365339E0,-4.459500313E-1,4.773000240E0,7.675050259E0
2.662365339E0,-5.040000081E-1,4.792050362E0,7.789950371E0
2.682365339E0,-1.368000031E0,4.812000275E0,9.460050583E0
2.702365339E0,-1.473000050E0,4.786050320E0,1.106100082E1
2.722365339E0,-1.534950018E0,3.817950249E0,1.194600010E1
2.742365339E0,-2.461950064E0,3.694950104E0,1.276395035E1
2.762365339E0,-2.569950104E0,2.938050032E0,1.360500050E1
2.782365339E0,-3.304050207E0,2.887050152E0,1.352700043E1
2.802365339E0,-3.268950224E0,2.812950134E0,1.176105022E1
2.822365339E0,-3.232950211E0,2.817000151E0,1.067400074E1
2.842365339E0,-3.241050243E0,2.961000204E0,9.871950150E0
2.862365339E0,-3.292050123E0,3.799050093E0,8.332950592E0
2.882365339E0,-3.304950237E0,3.775950193E0,8.365950584E0
2.902365339E0,-3.361950159E0,3.624000072E0,1.002300072E1
2.922365339E0,-3.459000111E0,2.863050222E0,1.017300034E1
2.942365339E0,-3.523950100E0,2.922000170E0,1.013505077E1
2.962365339E0,-3.466950178E0,3.033000231E0,9.220050812E0
2.982365339E0,-3.373950243E0,3.160950184E0,8.445000648E0
3.002365339E0,-2.602950096E0,3.292050123E0,8.412000656E0
3.022365339E0,-2.578050137E0,3.400950193E0,8.275950432E0
3.042365339E0,-2.494950056E0,3.424950123E0,7.551000595E0
3.062365339E0,-2.404050112E0,3.448050261E0,7.486950397E0
3.082365339E0,-2.296950102E0,3.436950207E0,7.561950207E0
3.102365339E0,-2.235000134E0,3.400950193E0,8.413949966E0
3.122365339E0,-1.326000094E0,3.325050116E0,8.391000748E0
3.142365339E0,-1.293000102E0,3.265950203E0,8.295000076E0
3.162365339E0,-1.248000026E0,3.246000051E0,8.242050171E0
3.182365339E0,-1.276950002E0,3.262950182E0,8.344050407E0
3.202365339E0,-1.360050082E0,3.361050129E0,9.168000221E0
3.222365339E0,-2.245950222E0,4.143000126E0,1.013295078E1
3.242365339E0,-2.260950089E0,4.914000034E0,1.093305016E1
3.262365339E0,-2.343000174E0,4.957950115E0,1.175805092E1
3.282365339E0,-2.415000200E0,4.980000019E0,1.255005074E1
3.302365339E0,-2.425050020E0,4.911000252E0,1.259400082E1
3.322365339E0,-2.341050148E0,4.788000107E0,1.256400013E1
3.342365339E0,-2.262000084E0,4.702950001E0,1.257705021E1
3.362365339E0,-1.374000072E0,4.743000031E0,1.265295029E1
3.382365339E0,-1.308000088E0,4.872000217E0,1.168905067E1
3.402365339E0,-1.312050104E0,4.981950283E0,1.100505066E1
3.422365339E0,-1.282950044E0,3.966000080E0,1.400295067E1
3.442365339E0,-1.357050061E0,2.247000217E0,1.494000053E1
3.462365339E0,-1.453950047E0,2.170050144E0,1.417005062E1
3.482365339E0,-1.554000020E0,3.126000166E0,1.136895084E1
3.502365339E0,-2.415000200E0,3.253950119E0,1.048005009E1
3.522365339E0,-1.630050063E0,4.038000107E0,8.937000275E0
3.542365339E0,-1.501050115E0,3.997050285E0,8.152950287E0
3.562365339E0,-1.384950042E0,3.901050091E0,8.151000023E0
3.582365339E0,-1.357950091E0,3.784050226E0,8.245050430E0
3.602365339E0,-1.404000044E0,3.768000126E0,8.331000328E0
3.622365339E0,-1.471950054E0,3.820050240E0,8.230050087E0
3.642365339E0,-1.435050011E0,3.930000305E0,8.160000801E0
3.662365339E0,-1.321050048E0,4.764000416E0,8.206950188E0
3.682365339E0,-1.236000061E0,4.846950054E0,9.184950829E0
3.702365339E0,-1.174050093E0,4.966950417E0,9.993000031E0
3.722365339E0,-1.057950020E0,5.038950443E0,1.011705017E1
3.742365339E0,-1.078950047E0,5.158950329E0,1.092105007E1
3.762365339E0,-1.228950024E0,5.218050480E0,1.173405075E1
3.782365339E0,-1.953000069E0,5.122950077E0,1.188495064E1
3.802365339E0,-2.827050209E0,4.251000404E0,1.268295097E1
3.822365339E0,-2.869950056E0,4.153050423E0,1.265895081E1
3.842365339E0,-3.831000090E0,4.048050404E0,1.181700039E1
3.862365339E0,-3.874950171E0,3.982950211E0,1.087800026E1
3.882365339E0,-3.975000143E0,3.850050211E0,9.100049973E0
3.902365339E0,-3.963000298E0,3.082050085E0,9.013950348E0
3.922365339E0,-3.844050169E0,3.012000084E0,8.146950722E0
3.942365339E0,-3.703950167E0,2.998050213E0,7.210950375E0
3.962365339E0,-3.039000034E0,3.079050064E0,5.683050156E0
3.982365339E0,-3.060000181E0,3.220050097E0,4.867950439E0
4.002365339E0,-2.991000175E0,3.982950211E0,5.584050179E0
4.022365339E0,-2.935050249E0,4.069050312E0,6.366000175E0
4.042365339E0,-2.106000185E0,4.156949997E0,6.424050331E0
4.062365339E0,-1.186050057E0,4.252950191E0,6.388950348E0
4.082365339E0,-3.349500299E-1,6.007050514E0,7.278000355E0
4.102365339E0,-3.709500134E-1,6.832050323E0,8.845950127E0
4.122365339E0,-4.120500088E-1,7.641000271E0,9.661050797E0
4.142365339E0,-3.840000033E-1,7.698000431E0,9.766050339E0
4.162365339E0,-3.280500174E-1,7.726050377E0,1.052100086E1
4.182365339E0,-2.860500216E-1,7.746000290E0,1.044195080E1
4.202365339E0,-3.340500295E-1,7.756950378E0,1.051500034E1
4.222365339E0,-3.670500219E-1,7.717950344E0,1.132500076E1
4.242365339E0,-3.480000198E-1,7.609050274E0,1.204905033E1
4.262365339E0,4.450500309E-1,6.129000187E0,1.040295029E1
4.282365339E0,1.278000116E0,5.191950321E0,9.355950356E0
4.302365339E0,2.038950205E0,4.427999973E0,8.515049934E0
4.322365339E0,1.999050140E0,3.567000151E0,8.414999962E0
4.342365339E0,1.950000048E0,3.472050190E0,8.320050240E0
4.362365339E0,1.885950089E0,2.611050129E0,7.507950306E0
4.382365339E0,1.075049996E0,2.620050192E0,6.469950199E0
4.402365339E0,9.850500226E-1,3.535950184E0,7.237950325E0
4.422365339E0,1.660500020E-1,3.547950268E0,9.046050072E0
4.442365339E0,1.350000054E-1,3.622950077E0,9.906000137E0
4.462365339E0,1.140000075E-1,5.109000206E0,9.822000504E0
4.482365339E0,-9.330000281E-1,6.100050449E0,9.757050514E0
4.502365339E0,-1.813050032E0,6.826050282E0,1.327905083E1
4.522365339E0,-1.765950084E0,6.954000473E0,1.217400074E1
4.542365339E0,-1.729050040E0,7.750950336E0,1.052295017E1
4.562365339E0,-9.700500369E-1,8.557950020E0,9.025950432E0
4.582365339E0,-8.929500580E-1,8.542950630E0,9.816000938E0
4.602365339E0,-2.700000070E-2,8.404050827E0,9.769950867E0
4.622365339E0,-1.459500045E-1,7.624050140E0,9.792000771E0
4.642365339E0,-1.888050079E0,6.759000301E0,9.825000763E0
4.662365339E0,-1.956000090E0,5.935050488E0,9.925950050E0
4.682365339E0,-1.188000083E0,4.396049976E0,1.001505089E1
4.702365339E0,-1.294050097E0,3.652950287E0,1.000005054E1
4.722365339E0,-1.378050089E0,4.563000202E0,9.106950760E0
4.742365339E0,-1.471050024E0,4.587000370E0,9.094050407E0
4.762365339E0,-1.501950026E0,4.650000095E0,9.210000038E0
4.782365339E0,-1.572000027E0,4.723950386E0,9.154050827E0
4.802365339E0,-1.624050021E0,4.726950169E0,8.386950493E0
4.822365339E0,-1.641000032E0,4.759050369E0,8.338950157E0
4.842365339E0,-1.603050113E0,4.687950134E0,8.347949982E0
4.862365339E0,-1.510950089E0,4.573950291E0,7.588050365E0
4.882365339E0,-6.750000119E-1,4.473000050E0,7.558050156E0
4.902365339E0,-6.340500116E-1,4.402050018E0,7.578000546E0
4.922365339E0,-5.560500026E-1,4.426949978E0,7.603050232E0
4.942365339E0,-4.639500082E-1,4.471050262E0,7.660050392E0
4.962365339E0,-4.290000200E-1,4.525950432E0,7.674000263E0
4.982365339E0,-3.790500164E-1,4.635000229E0,7.641000271E0
5.002365339E0,-3.679500222E-1,4.726950169E0,7.611000538E0
5.022365339E0,-3.670500219E-1,4.815000057E0,7.588050365E0
5.042365339E0,-3.180000186E-1,4.936050415E0,7.582050323E0
5.062365339E0,-2.560500205E-1,5.008050442E0,7.491000175E0
5.082365339E0,-2.040000111E-1,5.055000305E0,7.480950356E0
5.102365339E0,-2.059500068E-1,5.172000408E0,8.278050423E0
5.122365339E0,-2.440500110E-1,6.055050373E0,8.332950592E0
5.142365339E0,-2.869500220E-1,6.142950058E0,9.112950325E0
5.162365339E0,-3.630000055E-1,7.002000332E0,9.111000061E0
5.182365339E0,-4.200000167E-1,7.003950119E0,9.903000832E0
5.202365339E0,-4.669500291E-1,6.937950134E0,1.172895050E1
5.222365339E0,-4.909500182E-1,6.832950115E0,1.255695057E1
5.242365339E0,-4.879500270E-1,6.802950382E0,1.266495037E1
5.262365339E0,-4.440000355E-1,6.834000111E0,1.191900063E1
5.282365339E0,-4.500000179E-1,6.892050266E0,1.033200073E1
5.302365339E0,-3.690000176E-1,6.844050407E0,1.040400028E1
5.322365339E0,5.100000501E-1,6.010950089E0,1.124100018E1
5.342365339E0,6.070500016E-1,4.132050037E0,1.125795078E1
5.362365339E0,7.230000496E-1,4.054049969E0,1.126995087E1
5.382365339E0,8.260500431E-1,4.030950069E0,1.036800003E1
5.402365339E0,9.130500555E-1,4.093950272E0,9.499050140E0
5.422365339E0,9.420000315E-1,4.150950432E0,8.727000237E0
5.442365339E0,9.730500579E-1,4.213050365E0,7.945050240E0
5.462365339E0,9.910500646E-1,4.231050014E0,7.854000568E0
5.482365339E0,1.003050089E0,4.189050198E0,7.723050594E0
5.502365339E0,9.319500327E-1,4.159950256E0,7.654050350E0
5.522365339E0,7.740000486E-1,4.129050255E0,7.588950157E0
5.542365339E0,4.800000042E-2,4.144950390E0,7.480950356E0
5.562365339E0,8.100000024E-2,4.230000019E0,7.366050243E0
5.582365339E0,1.120500043E-1,5.145000458E0,7.282950401E0
5.602365339E0,1.540500075E-1,5.253000259E0,7.231050491E0
5.622365339E0,1.860000044E-1,5.394000053E0,7.209000111E0
5.642365339E0,2.050500065E-1,6.318000317E0,7.309050560E0
5.662365339E0,2.059500068E-1,6.231000423E0,8.815050125E0
5.682365339E0,1.999500096E-1,6.172950268E0,9.613050461E0
5.702365339E0,1.549500078E-1,6.090000153E0,9.685050011E0
5.722365339E0,6.105000153E-2,6.030000210E0,1.051095009E1
5.742365339E0,-7.120500207E-1,6.031050205E0,1.136205101E1
5.762365339E0,-7.189500332E-1,6.112950325E0,1.216395092E1
5.782365339E0,-7.819500566E-1,6.196950436E0,1.225005054E1
5.802365339E0,-1.536000013E0,6.250950336E0,1.311000061E1
5.822365339E0,-1.483950019E0,6.316050529E0,1.146795082E1
5.842365339E0,-2.353950024E0,5.460000038E0,1.068000031E1
5.862365339E0,-2.326050043E0,5.412000179E0,1.073400021E1
5.882365339E0,-2.347950220E0,5.338950157E0,1.075395012E1
5.902365339E0,-2.394000053E0,4.416000366E0,1.076805019E1
5.922365339E0,-2.338050127E0,4.465050220E0,9.913950920E0
5.942365339E0,-2.278050184E0,4.474050045E0,9.853950500E0
5.962365339E0,-2.254950047E0,4.441050053E0,9.792000771E0
5.982365339E0,-2.213999987E0,4.414050102E0,9.724050522E0
6.002365339E0,-2.200950146E0,4.396950245E0,9.684000015E0
6.022365339E0,-2.194050074E0,4.306950092E0,9.610950470E0
6.042365339E0,-2.160000086E0,4.237950325E0,8.866950035E0
6.062365339E0,-2.082000017E0,4.161000252E0,8.809050560E0
6.082365339E0,-2.038950205E0,4.123950005E0,7.972950459E0
6.102365339E0,-1.954050064E0,4.111950397E0,7.858950138E0
6.122365339E0,-1.825050116E0,4.135050297E0,7.738050461E0
6.142365339E0,-1.090050101E0,4.219950199E0,7.690950394E0
6.162365339E0,-1.081950068E0,4.341000080E0,7.618950367E0
6.182365339E0,-1.039050102E0,4.441950321E0,7.519050121E0
6.202365339E0,-9.589500427E-1,4.576050282E0,7.437000275E0
6.222365339E0,-9.229500294E-1,5.356050491E0,7.507050514E0
6.242365339E0,-9.499500394E-1,5.338950157E0,8.979000092E0
6.262365339E0,-1.032000065E0,5.289000034E0,9.762000084E0
6.282365339E0,-1.096050024E0,5.292000294E0,9.816000938E0
6.302365339E0,-1.165050030E0,5.376000404E0,9.885000229E0
6.322365339E0,-1.213050008E0,6.267000198E0,9.898050308E0
6.342365339E0,-1.273950100E0,6.307950497E0,1.000395012E1
6.362365339E0,-1.302000046E0,6.421950340E0,1.087305069E1
6.382365339E0,-1.300050020E0,6.472050190E0,1.171095085E1
6.402365339E0,-1.254000068E0,6.478950500E0,1.174995041E1
6.422365339E0,-1.255050063E0,6.483000278E0,1.170705032E1
6.442365339E0,-1.225050092E0,5.704050064E0,1.175100040E1
6.462365339E0,-1.086000085E0,4.944000244E0,1.182795048E1
6.482365339E0,-3.859500289E-1,4.825950146E0,1.182000065E1
6.502365339E0,-3.709500134E-1,4.750050068E0,1.019700050E1
6.522365339E0,-3.610500097E-1,4.651950359E0,1.007505035E1
6.542365339E0,-3.949500322E-1,4.537950039E0,9.982050896E0
6.562365339E0,-4.660500288E-1,4.411050320E0,9.901950836E0
6.582365339E0,-5.170500278E-1,3.672000170E0,9.781050682E0
6.602365339E0,-5.650500059E-1,3.643950224E0,7.183950424E0
6.622365339E0,-6.900000572E-1,3.675000191E0,8.047950745E0
6.642365339E0,-7.860000134E-1,3.661950111E0,8.886000633E0
6.662365339E0,-8.050500154E-1,3.597000122E0,8.935050011E0
6.682365339E0,-7.710000277E-1,3.631050110E0,8.170949936E0
6.746655578E0,-7.930500507E-1,4.311000347E0,1.087500095E1
6.766655578E0,1.039500013E-1,4.216950417E0,1.084800053E1
6.786655578E0,1.560000032E-1,3.448050261E0,1.003305054E1
6.806655578E0,1.620000005E-1,3.436050177E0,9.163050652E0
6.826655578E0,1.170000061E-1,3.531000137E0,9.142050743E0
6.846655578E0,9.105000645E-2,3.636000156E0,9.079050064E0
6.866655578E0,6.900000572E-2,4.408050060E0,8.263050079E0
6.886655578E0,5.205000192E-2,4.461000443E0,7.462050438E0
6.906655578E0,3.495000303E-2,4.591050148E0,7.354950428E0
6.926655578E0,4.050000105E-3,5.338050365E0,7.372950554E0
6.946655578E0,-1.905000024E-2,5.386950493E0,7.494000435E0
6.966655578E0,-6.195000187E-2,5.503050327E0,8.419050217E0
6.986655578E0,-1.740000099E-1,5.587050438E0,9.520050049E0
7.006655578E0,-2.359500080E-1,5.551050186E0,1.030800056E1
7.026655578E0,-3.760500252E-1,5.536950111E0,1.111695099E1
7.046655578E0,-1.168950081E0,5.532000065E0,1.115895081E1
7.066655578E0,-1.210050106E0,5.422050476E0,1.118895054E1
7.086655578E0,-1.999050140E0,5.302050114E0,1.041795063E1
7.106655578E0,-2.980950117E0,5.307000160E0,1.039605045E1
7.126655578E0,-3.037950039E0,5.320050240E0,1.027395058E1
7.146655578E0,-3.033000231E0,5.395050049E0,8.800050735E0
7.166655578E0,-2.988000154E0,6.181950092E0,8.046000481E0
7.186655578E0,-2.883000135E0,6.931950092E0,8.896950722E0
7.206655578E0,-3.672000170E0,6.874050140E0,9.829050064E0
7.226655578E0,-3.772950172E0,5.197950363E0,1.071600056E1
7.246655578E0,-2.926050186E0,4.407000065E0,1.067100048E1
7.266655578E0,-2.032950163E0,4.405950069E0,9.886950493E0
7.286655578E0,-2.047950029E0,4.435950279E0,9.772950172E0
7.306655578E0,-1.999050140E0,4.423950195E0,9.748050690E0
7.326655578E0,-1.141950011E0,4.375050068E0,9.810000420E0
7.346655578E0,-1.045950055E0,4.341000080E0,9.799950600E0
7.366655578E0,-9.469500184E-1,4.384950161E0,9.664050102E0
7.386655578E0,-9.229500294E-1,5.181000233E0,9.622050285E0
7.406655578E0,-9.649500251E-1,6.042000294E0,9.637950897E0
7.426655578E0,-1.122000098E0,6.063000202E0,9.673050880E0
7.446655578E0,-1.222050071E0,5.980050087E0,9.700050354E0
7.466655578E0,-1.228050113E0,5.842050076E0,9.757950783E0
7.486655578E0,-1.099050045E0,5.166000366E0,9.787050247E0
7.506655578E0,-9.510000348E-1,5.247000217E0,9.756000519E0
7.526655578E0,-2.209500074E-1,5.323950291E0,9.733950615E0
7.546655578E0,-1.990500093E-1,5.323050022E0,9.772950172E0
7.566655578E0,-1.830000132E-1,4.579950333E0,9.730050087E0
7.586655578E0,8.119500279E-1,3.820050240E0,9.624000549E0
7.606655578E0,9.510000348E-1,3.919950247E0,8.725950241E0
7.626655578E0,1.029000044E0,4.044000149E0,7.804950237E0
7.646655578E0,9.930000305E-1,5.521950245E0,7.782000542E0
7.666655578E0,8.700000644E-1,5.518050194E0,7.789050579E0
7.686655578E0,7.819500566E-1,5.428050041E0,9.487050056E0
7.706655578E0,7.870500088E-1,4.567950249E0,9.517050743E0
7.726655578E0,7.590000629E-1,3.649050236E0,8.782950401E0
7.746655578E0,6.259500384E-1,3.670050144E0,7.938000202E0
7.766655578E0,4.770000279E-1,3.709050179E0,7.230000496E0
7.786655578E0,3.760500252E-1,3.796950102E0,7.309050560E0
7.806655578E0,3.589500189E-1,4.483950138E0,7.372050285E0
7.826655578E0,3.510000110E-1,4.560000420E0,7.381950378E0
7.846655578E0,3.220500052E-1,4.687950134E0,7.413000584E0
7.866655578E0,2.670000196E-1,6.202050209E0,8.329950333E0
7.886655578E0,1.759500057E-1,6.978000164E0,9.307950020E0
7.906655578E0,4.395000264E-2,7.060950279E0,9.418950081E0
7.926655578E0,-6.540000439E-1,7.099050522E0,9.541050911E0
7.946655578E0,-6.690000296E-1,7.006050110E0,1.111605072E1
7.966655578E0,-7.230000496E-1,6.106950283E0,1.267305088E1
7.986655578E0,-8.430000544E-1,5.248950481E0,1.274505043E1
8.006655578E0,-9.610500336E-1,4.504950047E0,1.195500088E1
8.026655578E0,-1.902000070E0,4.426949978E0,1.101000023E1
8.046655578E0,-2.011950016E0,4.309950352E0,1.026600075E1
8.066655578E0,-2.172000170E0,3.534000158E0,1.021500015E1
8.086655578E0,-2.911050081E0,3.411000252E0,1.013295078E1
8.106655578E0,-3.708000183E0,3.400050163E0,8.347050667E0
8.126655578E0,-3.691050291E0,4.200000286E0,6.733050346E0
8.146655578E0,-3.577050209E0,5.014950275E0,5.884050369E0
8.166655578E0,-2.794050217E0,4.912950039E0,6.793950558E0
8.186655578E0,-1.186050057E0,4.099950314E0,9.469050407E0
8.206655578E0,-3.720000088E-1,3.339000225E0,1.132605076E1
8.226655578E0,-3.210000098E-1,3.414000273E0,1.134600067E1
8.246655578E0,-2.149500102E-1,3.549000263E0,1.038600063E1
8.266655578E0,-1.260000020E-1,4.386000156E0,1.041705036E1
8.286655578E0,-9.705000371E-2,5.142000198E0,1.042905045E1
8.306655578E0,-1.759500057E-1,5.172000408E0,1.039605045E1
8.326655578E0,-3.300000131E-1,5.286000252E0,1.037205029E1
8.346655578E0,-1.105949998E0,5.416050434E0,1.030395031E1
8.366655578E0,-1.195950031E0,5.542050362E0,1.024305058E1
8.386655578E0,-1.306950092E0,5.515050411E0,1.023705006E1
8.406655578E0,-1.335000038E0,4.747950077E0,1.101105022E1
8.426655578E0,-1.294950008E0,4.666050434E0,1.096500015E1
8.446655578E0,-1.168050051E0,3.904950142E0,1.084095097E1
8.466655578E0,-3.229500055E-1,3.922950268E0,1.072800064E1
8.486655578E0,-2.809500098E-1,3.901050091E0,1.060200024E1
8.506655578E0,-2.220000178E-1,3.874950171E0,9.823050499E0
8.526655578E0,-1.219500080E-1,3.856050253E0,9.823050499E0
8.546655578E0,-1.095000096E-2,3.877950191E0,9.858000755E0
8.566655578E0,7.180500627E-1,3.997050285E0,9.009000778E0
8.586655578E0,8.280000687E-1,4.050000191E0,8.137949944E0
8.606655578E0,1.482000113E0,3.973950148E0,9.052050591E0
8.626655578E0,1.381050110E0,3.168000221E0,1.079700089E1
8.646655578E0,6.250500083E-1,3.096000195E0,1.162695026E1
8.666655578E0,-1.189500093E-1,3.019950151E0,1.076205063E1
8.686655578E0,-1.189500093E-1,2.998050213E0,9.975000381E0
8.706655578E0,-1.590000093E-1,3.028950214E0,9.892050743E0
8.726655578E0,-2.629500031E-1,3.079050064E0,9.868050575E0
8.746655578E0,-2.569500208E-1,3.120000124E0,9.139950752E0
8.766655578E0,-2.310000062E-1,3.133050203E0,9.042000771E0
8.786655578E0,-1.969500035E-1,3.190950155E0,8.251049995E0
8.806655578E0,-1.819500029E-1,3.303000212E0,7.363950253E0
8.826655578E0,-1.530000120E-1,3.435000181E0,7.386000156E0
8.846655578E0,-1.030500084E-1,4.198050022E0,7.408050537E0
8.866655578E0,-4.500000179E-2,4.260000229E0,7.327050209E0
8.886655578E0,8.239500523E-1,4.336950302E0,7.338000298E0
8.906655578E0,8.260500431E-1,4.444050312E0,8.140049934E0
8.926655578E0,8.479500413E-1,4.554000378E0,8.269050598E0
8.946655578E0,7.750500441E-1,5.350050449E0,9.148050308E0
8.966655578E0,6.820500493E-1,5.284050465E0,9.277950287E0
8.986655578E0,5.830500126E-1,4.404000282E0,1.006995010E1
9.006655578E0,-4.099500179E-1,3.624000072E0,1.167795086E1
9.026655578E0,-1.302000046E0,3.495000124E0,1.328595066E1
9.046655578E0,-2.148000002E0,2.719050169E0,1.343205070E1
9.066655578E0,-2.254050016E0,2.605950117E0,1.344105053E1
9.086655578E0,-2.392950058E0,2.616000175E0,1.167405033E1
9.106655578E0,-2.437050104E0,2.643000126E0,9.778050423E0
9.126655578E0,-2.473050117E0,2.557050228E0,9.037950516E0
9.146655578E0,-2.596050024E0,1.699050069E0,1.064205074E1
9.166655578E0,-3.414000273E0,8.940000534E-1,1.216905022E1
9.186655578E0,-4.147050381E0,1.696950078E0,1.285800076E1
9.206655578E0,-4.174950123E0,1.759950042E0,1.110900021E1
9.226655578E0,-4.144050121E0,1.899000049E0,1.033395004E1
9.246655578E0,-4.047000408E0,2.053950071E0,1.024305058E1
9.266655578E0,-3.085950136E0,2.164050102E0,1.014795017E1
9.286655578E0,-3.000000238E0,2.223000050E0,9.331050873E0
9.306655578E0,-2.878050089E0,2.286000013E0,9.207000732E0
9.326655578E0,-2.761050224E0,2.349000216E0,9.163949966E0
9.346655578E0,-2.610000134E0,2.344050169E0,9.196950912E0
9.366655578E0,-2.470950127E0,2.308050156E0,9.198000908E0
9.386655578E0,-2.311050177E0,2.302950144E0,9.105000496E0
9.406655578E0,-2.203950167E0,2.299950123E0,8.296950340E0
9.426655578E0,-2.139000177E0,2.351999998E0,8.315999985E0
9.446655578E0,-2.206050158E0,2.374950171E0,9.240000725E0
9.466655578E0,-2.356050014E0,2.349000216E0,1.005495071E1
9.486655578E0,-3.070950031E0,2.328000069E0,1.083495045E1
9.506655578E0,-3.121050119E0,2.281949997E0,1.096500015E1
9.526655578E0,-3.169950247E0,2.254950047E0,1.182495022E1
9.546655578E0,-3.127050161E0,2.161950111E0,1.356405067E1
9.566655578E0,-3.031950235E0,1.450950027E0,1.453695107E1
9.586655578E0,-2.128950119E0,1.458000064E0,1.518195057E1
9.606655578E0,-1.339950085E0,1.564950109E0,1.341795063E1
9.626655578E0,-1.366050124E0,2.335950136E0,1.175400066E1
9.646655578E0,-1.432050109E0,2.401050091E0,1.175295067E1
9.666655578E0,-1.518000126E0,1.600950122E0,1.451505089E1
9.686655578E0,-1.569000125E0,6.979500055E-1,1.465095043E1
9.706655578E0,-1.465050101E0,6.109500527E-1,1.371300030E1
9.726655578E0,-1.368000031E0,5.740500093E-1,1.195695019E1
9.746655578E0,-1.276050091E0,6.499500275E-1,1.032900047E1
9.766655578E0,-1.204050064E0,7.830000520E-1,1.022400093E1
9.786655578E0,-1.096950054E0,8.860500455E-1,9.127950668E0
9.806655578E0,-1.024950027E0,9.670500755E-1,8.242050171E0
9.826655578E0,-1.020000100E0,9.810000658E-1,8.221050262E0
9.846655578E0,-9.990000725E-1,1.015950084E0,8.260950089E0
9.866655578E0,-1.000050068E0,1.150950074E0,7.461000443E0
9.886655578E0,-1.004999995E0,1.924950123E0,6.637950420E0
9.906655578E0,-9.679500461E-1,2.026950121E0,6.568950176E0
9.926655578E0,-1.669500023E-1,2.149049997E0,6.562950134E0
9.946655578E0,-4.095000029E-2,2.215950012E0,6.511050224E0
9.966655578E0,8.595000207E-2,2.155950069E0,7.275000572E0
9.986655578E0,8.805000782E-2,1.435950041E0,1.231095028E1
1.000665558E1,-7.699500322E-1,1.513050079E0,1.527705097E1
1.002665558E1,-8.610000610E-1,1.554000020E0,1.527495098E1
1.004665558E1,-8.890500665E-1,1.486050129E0,1.367805099E1
1.006665558E1,-8.479500413E-1,1.405950069E0,1.279305077E1
1.008665558E1,-9.190500379E-1,1.278000116E0,1.283295059E1
1.010665558E1,-1.695000052E0,4.210500121E-1,1.293495083E1
1.012665558E1,-1.767000079E0,3.559500277E-1,1.375005054E1
1.014665558E1,-2.536950111E0,3.709500134E-1,1.297605038E1
1.016665558E1,-3.322050095E0,1.141050100E0,1.132695007E1
1.018665558E1,-3.394050121E0,1.110000014E0,1.140105057E1
1.020665558E1,-3.349050045E0,3.180000186E-1,1.233495045E1
1.022665558E1,-3.198000193E0,2.610000074E-1,1.234200096E1
1.024665558E1,-3.070950031E0,2.320500165E-1,1.065600014E1
1.026665558E1,-2.988000154E0,3.040500283E-1,9.801000595E0
1.028665558E1,-2.111999989E0,4.219500124E-1,9.678000450E0
1.030665558E1,-2.007000208E0,4.369500279E-1,9.561000824E0
1.032665558E1,-1.312950015E0,4.270500243E-1,9.463050842E0
1.034665558E1,-1.303050041E0,4.789500237E-1,8.545050621E0
1.036665558E1,-1.219050050E0,5.779500008E-1,8.512949944E0
1.038665558E1,-1.106999993E0,1.375050068E0,8.431950569E0
1.040665558E1,-2.509500086E-1,1.399950027E0,7.546950340E0
1.042665558E1,-3.370500207E-1,1.482000113E0,7.485000134E0
1.044665558E1,-4.000500143E-1,2.257950068E0,7.386000156E0
1.046665558E1,-4.480500221E-1,2.293950081E0,7.375050545E0
1.048665558E1,-4.440000355E-1,2.314950228E0,7.392000198E0
1.050665558E1,-4.630500078E-1,2.403000116E0,7.462950230E0
1.052665558E1,-5.530500412E-1,2.496000051E0,8.247000694E0
1.054665558E1,-1.293000102E0,2.545050144E0,9.825000763E0
1.056665558E1,-1.294950008E0,2.548950195E0,1.080705070E1
1.058665558E1,-1.180950046E0,2.476050138E0,1.250205040E1
1.060665558E1,-1.051050067E0,2.317950010E0,1.352700043E1
1.062665558E1,-9.750000238E-1,2.191950083E0,1.444305038E1
1.064665558E1,-9.750000238E-1,2.101950169E0,1.591200066E1
1.066665558E1,-2.140500098E-1,1.975050092E0,1.598505116E1
1.068665558E1,-2.610000074E-1,1.948050141E0,1.520895100E1
1.070665558E1,-3.019500077E-1,2.047049999E0,1.364505100E1
1.072665558E1,-3.610500097E-1,2.782050133E0,1.293405056E1
1.074665558E1,-4.260000288E-1,2.679000139E0,1.300005054E1
1.076665558E1,-4.720500112E-1,1.717950106E0,1.381305027E1
1.078665558E1,-4.290000200E-1,8.700000644E-1,1.384800053E1
1.080665558E1,-3.289500177E-1,1.750500053E-1,1.210800076E1
1.082665558E1,-2.599500120E-1,2.050500065E-1,1.108095074E1
1.084665558E1,-1.900500059E-1,2.910000086E-1,1.029795074E1
1.086665558E1,-1.690500081E-1,9.850500226E-1,9.442950249E0
1.088665558E1,-1.740000099E-1,1.035000086E0,8.647050858E0
1.090665558E1,-1.789500117E-1,1.084950089E0,7.855950356E0
1.092665558E1,-1.930500120E-1,1.116000056E0,7.699950218E0
1.094665558E1,-1.849500090E-1,1.182000041E0,6.853950500E0
1.096665558E1,-1.680000126E-1,1.255950093E0,6.817050457E0
1.098665558E1,-1.090500057E-1,1.317000031E0,6.745050430E0
1.100665558E1,-2.595000155E-2,1.320000052E0,6.709050179E0
1.102665558E1,1.069500074E-1,1.317000031E0,6.748050213E0
1.104665558E1,1.920000017E-1,1.258050084E0,8.527050018E0
1.106665558E1,2.430000156E-1,1.228950024E0,1.007295036E1
1.108665558E1,9.559500217E-1,1.126049995E0,1.189695072E1
1.110665558E1,8.560500145E-1,1.030950069E0,1.269795036E1
1.112665558E1,5.805000290E-2,1.057950020E0,1.276995087E1
1.114665558E1,-1.618950129E0,1.812000036E0,1.281900024E1
1.116665558E1,-1.681050062E0,1.822950125E0,1.293795109E1
1.118665558E1,-1.810050130E0,1.791000128E0,1.304595089E1
1.120665558E1,-2.554050207E0,1.708950043E0,1.318095016E1
1.122665558E1,-3.390000105E0,1.720050097E0,1.245600033E1
1.124665558E1,-6.106950283E0,2.566950083E0,1.171605015E1
1.126665558E1,-6.888000488E0,2.665950060E0,1.431000042E1
1.128665558E1,-5.275950432E0,8.209500313E-1,1.595805073E1
1.130665558E1,-3.493950129E0,-3.299999982E-2,1.498305035E1
1.132665558E1,-3.487050056E0,7.600500584E-1,1.154400063E1
1.134665558E1,-4.251000404E0,1.576950073E0,8.862000465E0
1.136665558E1,-3.427950144E0,1.659000039E0,8.800950050E0
1.138665558E1,-3.310050249E0,1.573950052E0,8.836050034E0
1.140665558E1,-2.482950211E0,1.444950104E0,8.878050804E0
1.142665558E1,-2.329950094E0,1.321050048E0,8.782050133E0
1.144665558E1,-2.233950138E0,1.380000114E0,7.917000294E0
1.146665558E1,-2.142000198E0,2.172000170E0,7.774950504E0
1.148665558E1,-2.077050209E0,2.197050095E0,7.669050217E0
1.150665558E1,-1.278000116E0,2.233950138E0,7.590000153E0
1.152665558E1,-1.233000040E0,2.281050205E0,6.859050274E0
1.154665558E1,-1.207950115E0,2.364000082E0,6.826050282E0
1.156665558E1,-1.201050043E0,2.514000177E0,6.796050549E0
1.158665558E1,-1.161000013E0,2.656950235E0,6.897000313E0
1.160665558E1,-1.116000056E0,2.775000095E0,7.668000221E0
1.162665558E1,-1.138950109E0,3.544050217E0,7.708050251E0
1.164665558E1,-1.210950017E0,3.565950155E0,8.599050522E0
1.166665558E1,-1.338000059E0,3.634950161E0,9.427950859E0
1.168665558E1,-2.094000101E0,3.706050158E0,1.028505039E1
1.170665558E1,-2.109000206E0,3.715050220E0,1.134795094E1
1.172665558E1,-2.127000093E0,3.640050173E0,1.214295101E1
1.174665558E1,-2.062950134E0,2.839050055E0,1.225095081E1
1.176665558E1,-1.947000146E0,2.829000235E0,1.305900097E1
1.178665558E1,-1.849050045E0,2.824950218E0,1.307700062E1
1.180665558E1,-1.843950033E0,2.839950085E0,1.401300049E1
1.182665558E1,-1.947000146E0,2.857950211E0,1.411005020E1
1.184665558E1,-2.865000248E0,2.892000198E0,1.414800072E1
1.186665558E1,-2.833950043E0,2.857950211E0,1.261305046E1
1.188665558E1,-2.701950073E0,2.779950142E0,1.251600075E1
1.190665558E1,-2.017950058E0,1.909050107E0,1.237500095E1
1.192665558E1,-1.990950108E0,1.861950040E0,1.160805035E1
1.194665558E1,-1.894050121E0,1.113000035E0,1.077405071E1
1.196665558E1,-9.370500445E-1,1.117950082E0,9.889050484E0
1.198665558E1,-8.640000224E-1,1.080000043E0,9.865950584E0
1.200665558E1,-8.650500178E-1,1.003050089E0,9.949050903E0
1.202665558E1,-9.210000634E-1,9.180000424E-1,1.005405045E1
1.204665558E1,-9.040500522E-1,8.400000334E-1,9.969000816E0
1.206665558E1,-8.310000300E-1,8.500500321E-1,9.124950409E0
1.208665558E1,-7.180500627E-1,9.259500504E-1,8.353950500E0
1.210665558E1,-6.160500050E-1,1.009050012E0,8.325000763E0
1.212665558E1,-5.170500278E-1,1.105050087E0,8.377950668E0
1.214665558E1,-4.200000167E-1,1.149000049E0,8.413050652E0
1.216665558E1,3.090000153E-1,1.200000048E0,8.412000656E0
1.218665558E1,2.899500132E-1,1.240050077E0,8.467050552E0
1.220665558E1,2.419500053E-1,1.338000059E0,9.381000519E0
1.222665558E1,2.050500065E-1,1.455000043E0,9.433050156E0
1.224665558E1,1.530000120E-1,1.585950017E0,9.570000648E0
1.226665558E1,1.780500114E-1,2.433000088E0,1.035900021E1
1.228665558E1,2.059500068E-1,3.193950176E0,1.033695030E1
1.230665558E1,1.890000105E-1,3.193950176E0,1.041495037E1
1.232665558E1,1.710000038E-1,3.121050119E0,1.135605049E1
1.234665558E1,1.549500078E-1,3.004950047E0,1.135395050E1
1.236665558E1,1.339500099E-1,2.922000170E0,1.060395050E1
1.238665558E1,8.295000345E-2,2.830950022E0,1.071600056E1
1.240665558E1,4.500000179E-2,1.996050119E0,1.078605080E1
1.242665558E1,3.900000080E-2,1.962000132E0,1.090395069E1
1.244665558E1,-1.305000018E-2,1.936950088E0,1.091295052E1
1.246665558E1,-6.300000101E-2,1.863000035E0,1.086495018E1
1.248665558E1,-1.230000034E-1,1.801950097E0,1.082205009E1
1.250665558E1,-1.459500045E-1,1.714050055E0,1.081200027E1
1.252665558E1,-1.180500090E-1,1.717050076E0,1.071600056E1
1.254665558E1,-1.000500023E-1,2.578050137E0,1.060500050E1
1.256665558E1,-9.109500647E-1,2.626950026E0,1.060905075E1
1.258665558E1,-9.010500312E-1,2.713950157E0,1.068300056E1
1.260665558E1,-9.030000567E-1,2.734050035E0,1.075995064E1
1.262665558E1,-9.520500302E-1,2.668950081E0,1.082400036E1
1.264665558E1,-1.729950070E0,2.545950174E0,1.165500069E1
1.266665558E1,-1.780950069E0,1.683000088E0,1.341105080E1
1.268665558E1,-2.557950020E0,8.629500270E-1,1.437795067E1
1.270665558E1,-2.533050060E0,6.990000606E-1,1.447500038E1
1.272665558E1,-2.461950064E0,5.629500151E-1,1.369695091E1
1.274665558E1,-2.485950232E0,5.179499984E-1,1.290495014E1
1.276665558E1,-2.614950180E0,6.649500132E-1,1.210095024E1
1.278665558E1,-2.764950037E0,1.465950012E0,1.124895096E1
1.280665558E1,-2.851950169E0,1.560000062E0,1.031400013E1
1.282665558E1,-2.833950043E0,1.611000061E0,1.017900085E1
1.284665558E1,-2.737050056E0,1.621950030E0,1.002705002E1
1.286665558E1,-2.602050066E0,1.623000026E0,9.916950226E0
1.288665558E1,-2.467050076E0,1.648950100E0,9.801000595E0
1.290665558E1,-2.341950178E0,1.683000088E0,9.747000694E0
1.292665558E1,-2.211000204E0,1.777050138E0,9.723000526E0
1.294665558E1,-2.109000206E0,1.885950089E0,9.681000710E0
1.296665558E1,-1.990950108E0,2.026050091E0,9.625050545E0
1.298665558E1,-1.864950061E0,2.761050224E0,9.561000824E0
1.300665558E1,-1.762950063E0,2.782950163E0,9.483000755E0
1.302665558E1,-1.080000043E0,2.838000059E0,8.679000854E0
1.304665558E1,-1.033950090E0,2.886000156E0,8.676000595E0
1.306665558E1,-1.990500093E-1,2.941950083E0,8.655000687E0
1.308665558E1,-1.759500057E-1,2.995050192E0,8.649000168E0
1.310665558E1,6.870000362E-1,3.078000069E0,8.544000626E0
1.312665558E1,7.429500222E-1,3.181950092E0,8.521950722E0
1.314665558E1,8.950500488E-1,3.280050039E0,8.583000183E0
1.316665558E1,9.420000315E-1,3.367950201E0,9.358950615E0
1.318665558E1,9.030000567E-1,3.421050072E0,1.034805012E1
1.320665558E1,1.560000032E-1,3.469950199E0,1.154805088E1
1.322665558E1,1.110000089E-1,3.585000277E0,1.164705086E1
1.324665558E1,1.050000079E-3,4.323000431E0,1.075095081E1
1.326665558E1,-7.710000277E-1,4.434000015E0,1.067295074E1
1.328665558E1,-9.040500522E-1,5.289000034E0,1.056705093E1
1.330665558E1,-1.050000072E0,5.248950481E0,1.052595043E1
1.332665558E1,-1.132950068E0,5.199000359E0,1.048200035E1
1.334665558E1,-1.110000014E0,5.128050327E0,1.039800072E1
1.336665558E1,-1.059000015E0,5.089050293E0,1.028595066E1
1.338665558E1,-1.068000078E0,5.046000004E0,1.023705006E1
1.340665558E1,-1.105050087E0,5.019000053E0,1.034100056E1
1.342665558E1,-1.065000057E0,4.999950409E0,1.046295071E1
1.344665558E1,-1.110000014E0,4.989000320E0,1.137000084E1
1.346665558E1,-1.177050114E0,4.980000019E0,1.211595058E1
1.348665558E1,-1.216950059E0,4.945050240E0,1.221600056E1
1.350665558E1,-1.275000095E0,4.098000050E0,1.221495056E1
1.352665558E1,-1.309050083E0,4.014000416E0,1.133595085E1
1.354665558E1,-1.225950003E0,3.202050209E0,1.127700043E1
1.356665558E1,-3.229500055E-1,3.142950058E0,1.042800045E1
1.358665558E1,-2.599500120E-1,3.067950249E0,1.034895039E1
1.360665558E1,-1.530000120E-1,3.034050226E0,9.517050743E0
1.362665558E1,-9.300000221E-2,2.998950243E0,9.391050339E0
1.364665558E1,-3.405000269E-2,2.950950146E0,9.340050697E0
1.366665558E1,-2.998950243E0,2.916000128E0,1.580895042E1
1.368665558E1,3.750000298E-1,2.986950159E0,1.032105064E1
1.370665558E1,3.619500101E-1,2.238000154E0,9.511050224E0
1.372665558E1,3.529500067E-1,3.159000158E0,8.601000786E0
1.374665558E1,2.989500165E-1,3.273000240E0,7.768050194E0
1.376665558E1,2.700000107E-1,4.060050011E0,7.734000206E0
1.378665558E1,1.830000132E-1,4.108950138E0,7.806000233E0
1.380665558E1,9.705000371E-2,4.129050255E0,8.662950516E0
1.382665558E1,5.595000088E-2,4.069950104E0,8.626950264E0
1.384665558E1,4.305000231E-2,3.990000248E0,7.705050468E0
1.386665558E1,7.050000131E-3,3.991950274E0,7.653000355E0
1.388665558E1,0.000000000E0,4.065000057E0,7.591050148E0
1.390665558E1,-7.050000131E-3,4.171050072E0,7.588050365E0
1.392665558E1,-1.800000109E-2,4.264050007E0,7.635000229E0
1.394665558E1,-3.795000166E-2,4.390050411E0,7.717950344E0
1.396665558E1,-3.795000166E-2,4.540950298E0,7.819050312E0
1.398665558E1,-3.299999982E-2,5.329950333E0,8.779950142E0
1.400665558E1,-5.805000290E-2,5.344050407E0,8.872950554E0
1.402665558E1,-1.200000048E-1,5.385000229E0,9.673950195E0
1.404665558E1,-2.299500108E-1,5.463000298E0,1.054500008E1
1.406665558E1,-9.550500512E-1,5.545050144E0,1.139595032E1
1.408665558E1,-1.063950062E0,5.601000309E0,1.150395012E1
1.410665558E1,-1.894050121E0,5.611050129E0,1.237995052E1
1.412665558E1,-1.966050148E0,5.625000477E0,1.249800014E1
1.414665558E1,-1.969050050E0,6.405000210E0,1.153395081E1
1.416665558E1,-1.992000103E0,6.313950062E0,1.079505062E1
1.418665558E1,-2.068050146E0,5.445000172E0,1.082100010E1
1.420665558E1,-2.953950167E0,5.356950283E0,1.164495087E1
1.422665558E1,-2.995050192E0,4.518000126E0,1.175895023E1
1.424665558E1,-3.066000223E0,3.733050108E0,1.234905052E1
1.426665558E1,-3.094950199E0,3.747000217E0,1.150605011E1
1.428665558E1,-3.145050049E0,3.717000246E0,1.135695076E1
1.430665558E1,-3.126000166E0,3.643050194E0,1.053195095E1
1.432665558E1,-3.046050072E0,3.586950064E0,1.041195011E1
1.434665558E1,-2.943000078E0,3.511950254E0,9.537000656E0
1.436665558E1,-2.803050041E0,3.438000202E0,8.743050575E0
1.438665558E1,-2.713050127E0,3.369000196E0,7.809000492E0
1.440665558E1,-2.713050127E0,3.328050137E0,7.842000484E0
1.442665558E1,-2.668950081E0,3.316050053E0,8.608050346E0
1.444665558E1,-2.542050123E0,3.327000141E0,8.512949944E0
1.446665558E1,-2.428050041E0,3.337950230E0,7.738050461E0
1.453056317E1,-1.519950032E0,4.105950356E0,9.892950058E0
1.455056317E1,-1.582950115E0,4.059000015E0,1.068705082E1
1.457056317E1,-1.641000032E0,4.084949970E0,1.067205048E1
1.459056317E1,-1.741950035E0,4.840950012E0,1.071105003E1
1.461056317E1,-1.810950041E0,4.837050438E0,1.140900040E1
1.463056317E1,-1.876950145E0,4.876950264E0,1.133400059E1
1.465056317E1,-1.882050037E0,4.143000126E0,1.368600082E1
1.467056317E1,-1.821000099E0,4.190999985E0,1.356300068E1
1.469056317E1,-1.771050096E0,4.342050076E0,1.274400043E1
1.471056317E1,-1.762050033E0,5.056950092E0,1.265595055E1
1.473056317E1,-1.726050138E0,4.990950108E0,1.271295071E1
1.475056317E1,-1.651950121E0,4.878000259E0,1.271205044E1
1.477056317E1,-1.551000118E0,4.072950363E0,1.266000080E1
1.479056317E1,-7.710000277E-1,3.943050146E0,1.258200073E1
1.481056317E1,-7.890000343E-1,3.159000158E0,1.174800014E1
1.483056317E1,-7.159500122E-1,3.094950199E0,1.096395016E1
1.485056317E1,1.060500070E-1,2.274000168E0,1.013295078E1
1.487056317E1,1.339500099E-1,2.191050053E0,1.007205009E1
1.489056317E1,1.630500108E-1,1.365000010E0,1.077105045E1
1.491056317E1,1.909500062E-1,1.389000058E0,1.080195045E1
1.493056317E1,1.609500051E-1,1.435950041E0,1.069905090E1
1.495056317E1,1.039500013E-1,1.483050108E0,9.711000443E0
1.497056317E1,6.705000252E-2,1.500000119E0,8.854050636E0
1.499056317E1,4.695000127E-2,1.525950074E0,8.047950745E0
1.501056317E1,1.305000018E-2,1.612050056E0,7.165050507E0
1.503056317E1,-3.000000026E-3,1.666950107E0,7.981950283E0
1.505056317E1,-2.700000070E-2,1.711950064E0,8.877000809E0
1.507056317E1,-6.300000101E-2,1.764000058E0,8.958000183E0
1.509056317E1,-8.100000024E-2,1.840050101E0,8.886000633E0
1.511056317E1,-7.304999977E-2,1.941000104E0,8.056050301E0
1.513056317E1,-3.705000132E-2,1.993050098E0,8.062950134E0
1.515056317E1,-6.000000052E-3,2.014950037E0,8.893050194E0
1.517056317E1,4.050000105E-3,1.978950143E0,9.622950554E0
1.519056317E1,1.905000024E-2,2.016000032E0,9.712050438E0
1.521056317E1,4.095000029E-2,2.088000059E0,9.714000702E0
1.523056317E1,3.195000067E-2,2.083950043E0,9.721050262E0
1.525056317E1,1.605000161E-2,2.062950134E0,1.138800049E1
1.527056317E1,-2.805000171E-2,2.065050125E0,1.221600056E1
1.529056317E1,-9.900000691E-2,2.094000101E0,1.304700089E1
1.531056317E1,-1.999500096E-1,2.133000135E0,1.295505047E1
1.533056317E1,-9.960000515E-1,2.078999996E0,1.286205101E1
1.535056317E1,-1.113000035E0,1.954050064E0,1.282095051E1
1.537056317E1,-1.960950136E0,1.123950005E0,1.366005039E1
1.539056317E1,-2.044049978E0,9.919500351E-1,1.363800049E1
1.541056317E1,-2.125050068E0,8.389500380E-1,1.203900051E1
1.543056317E1,-2.199000120E0,7.000500560E-1,1.116105080E1
1.545056317E1,-3.004050255E0,-8.470500112E-1,1.040100002E1
1.547056317E1,-2.941050053E0,-1.741050124E0,1.207305050E1
1.549056317E1,-2.164950132E0,-2.472000122E0,1.355505085E1
1.551056317E1,-1.342050076E0,-2.479950190E0,1.350600052E1
1.553056317E1,-1.362000108E0,-2.412000179E0,1.110195065E1
1.555056317E1,-1.431000113E0,-2.320950031E0,1.006500053E1
1.557056317E1,-1.471950054E0,-1.500000119E0,9.934050560E0
1.559056317E1,-1.438950062E0,-1.437000036E0,9.832050323E0
1.561056317E1,-1.525950074E0,-6.640500426E-1,9.831000328E0
1.563056317E1,-1.575000048E0,-5.479500294E-1,9.834000587E0
1.565056317E1,-1.531950116E0,-4.249500334E-1,8.941050529E0
1.567056317E1,-1.438950062E0,3.109500110E-1,8.130000114E0
1.569056317E1,-1.317000031E0,1.158000112E0,7.323000431E0
1.571056317E1,-1.210950017E0,1.275000095E0,6.469950199E0
1.573056317E1,-1.216050029E0,1.980000138E0,6.468000412E0
1.575056317E1,-1.210950017E0,1.981950045E0,7.240050316E0
1.577056317E1,-1.135050058E0,1.903950095E0,8.887950897E0
1.579056317E1,-1.198050022E0,1.062000036E0,1.080195045E1
1.581056317E1,-1.327050090E0,9.769500494E-1,1.263705063E1
1.583056317E1,-5.719500184E-1,1.560000032E-1,1.350600052E1
1.585056317E1,-4.750500321E-1,-7.950000167E-1,1.530900097E1
1.587056317E1,-3.630000055E-1,-1.725000024E0,1.704405022E1
1.589056317E1,-3.510000110E-1,-2.557950020E0,1.782705116E1
1.591056317E1,-4.710000157E-1,-2.505000114E0,1.703805161E1
1.593056317E1,-1.156949997E0,-1.621950030E0,1.528995037E1
1.595056317E1,-1.137000084E0,-7.170000076E-1,1.278195095E1
1.597056317E1,-2.053050041E0,1.060500070E-1,1.046205044E1
1.599056317E1,-2.143050194E0,2.119500041E-1,9.523050308E0
1.601056317E1,-2.196000099E0,2.320500165E-1,9.586950302E0
1.603056317E1,-1.411050081E0,-5.290500522E-1,1.036605072E1
1.605056317E1,-5.929500461E-1,-6.690000296E-1,1.040100002E1
1.607056317E1,-5.010000467E-1,-8.190000653E-1,8.731050491E0
1.609056317E1,-4.120500088E-1,-9.000000358E-1,7.939950466E0
1.611056317E1,-3.180000186E-1,-9.640500546E-1,7.834950447E0
1.613056317E1,-1.930500120E-1,-9.840000272E-1,7.930950165E0
1.615056317E1,-7.905000448E-2,-9.690000415E-1,8.938050270E0
1.617056317E1,-6.195000187E-2,-9.240000248E-1,9.043950081E0
1.619056317E1,-1.395000052E-2,-8.520000577E-1,9.031050682E0
1.621056317E1,1.500000060E-2,-4.095000029E-2,8.961000443E0
1.623056317E1,4.200000316E-2,-1.695000008E-2,8.857050896E0
1.625056317E1,3.000000119E-2,3.105000220E-2,8.833050728E0
1.627056317E1,-1.050000079E-3,1.279500127E-1,8.938950539E0
1.629056317E1,-1.500000060E-2,2.590500116E-1,9.010950089E0
1.631056317E1,9.000000544E-3,3.750000298E-1,8.944050789E0
1.633056317E1,6.900000572E-2,4.800000191E-1,8.883000374E0
1.635056317E1,7.695000619E-2,5.520000458E-1,8.914050102E0
1.637056317E1,1.050000042E-1,6.199500561E-1,9.802950859E0
1.639056317E1,1.279500127E-1,6.190500259E-1,9.850050926E0
1.641056317E1,1.170000061E-1,5.989500284E-1,9.832950592E0
1.643056317E1,8.700000495E-2,5.820000172E-1,9.918000221E0
1.645056317E1,4.800000042E-2,5.790000558E-1,1.068300056E1
1.647056317E1,1.395000052E-2,5.700000525E-1,1.081200027E1
1.649056317E1,-1.095000096E-2,5.279999971E-1,1.093695068E1
1.651056317E1,-2.895000204E-2,4.639500082E-1,1.169805050E1
1.653056317E1,-5.295000225E-2,4.699500203E-1,1.177995014E1
1.655056317E1,-1.200000048E-1,5.130000114E-1,1.182405090E1
1.657056317E1,-2.089500129E-1,5.839500427E-1,1.265400028E1
1.659056317E1,-3.079500198E-1,5.929500461E-1,1.277205086E1
1.661056317E1,-1.063050032E0,4.819500148E-1,1.356600094E1
1.663056317E1,-1.855950117E0,-3.859500289E-1,1.445295048E1
1.665056317E1,-1.939950109E0,-4.930500090E-1,1.516695118E1
1.667056317E1,-2.808000088E0,-5.059500337E-1,1.424700069E1
1.669056317E1,-2.782950163E0,-4.549500346E-1,1.248300076E1
1.671056317E1,-2.713050127E0,-4.390500188E-1,1.088400078E1
1.673056317E1,-2.662950039E0,-1.341000080E0,1.086105061E1
1.675056317E1,-2.623050213E0,-2.122050047E0,1.186305046E1
1.677056317E1,-2.509950161E0,-2.221050024E0,1.262595081E1
1.679056317E1,-1.738950133E0,-2.224950075E0,1.259295082E1
1.681056317E1,-1.834050059E0,-2.098050117E0,1.011495018E1
1.683056317E1,-1.999950051E0,-5.860500336E-1,9.048000336E0
1.685056317E1,-2.740050077E0,-4.720500112E-1,8.964000702E0
1.687056317E1,-2.664000034E0,-3.390000165E-1,8.074049950E0
1.689056317E1,-2.524050236E0,-2.380500138E-1,7.996950150E0
1.691056317E1,-1.734000087E0,-1.639500111E-1,7.881000519E0
1.693056317E1,-1.681950092E0,-1.030500084E-1,7.780950546E0
1.695056317E1,-1.588950038E0,-4.200000316E-2,7.752000332E0
1.697056317E1,-8.719500303E-1,3.705000132E-2,7.767000198E0
1.699056317E1,-7.800000310E-1,1.429500133E-1,7.800000191E0
1.701056317E1,-7.450500131E-1,2.779500186E-1,7.810950279E0
1.703056317E1,-8.359500170E-1,3.420000076E-1,9.667950630E0
1.705056317E1,-9.210000634E-1,4.279500246E-1,1.070100021E1
1.707056317E1,-1.699950099E0,4.459500313E-1,1.161105061E1
1.709056317E1,-1.732950091E0,4.000500143E-1,1.319205093E1
1.711056317E1,-1.732050061E0,3.030000031E-1,1.405305099E1
1.713056317E1,-1.684050083E0,-5.329500437E-1,1.482705116E1
1.715056317E1,-8.779500127E-1,-5.260500312E-1,1.476705074E1
1.717056317E1,-7.980000377E-1,-4.240500331E-1,1.381200027E1
1.719056317E1,-7.050000429E-1,3.949500322E-1,1.286805058E1
1.721056317E1,-5.860500336E-1,1.246050000E0,1.191195011E1
1.723056317E1,-4.870500267E-1,1.336950064E0,1.108500099E1
1.725056317E1,-4.609500170E-1,1.287000060E0,1.098000050E1
1.727056317E1,-4.159500301E-1,3.229500055E-1,1.174695015E1
1.729056317E1,-3.160500228E-1,-1.290000081E0,1.260900021E1
1.731056317E1,-1.909500062E-1,-1.408950090E0,1.266795063E1
1.733056317E1,-1.319999993E-1,-1.482000113E0,1.183005047E1
1.735056317E1,-1.300500035E-1,-1.380000114E0,1.097295094E1
1.737056317E1,-1.759500057E-1,-5.839500427E-1,9.322950363E0
1.739056317E1,-1.990500093E-1,-4.500000179E-1,8.494050026E0
1.741056317E1,-1.699500084E-1,-3.349500299E-1,7.696050167E0
1.743056317E1,-1.369500011E-1,-2.050500065E-1,7.707000256E0
1.745056317E1,-1.290000081E-1,5.879999995E-1,7.792950153E0
1.747056317E1,-1.429500133E-1,6.870000362E-1,8.535000801E0
1.749056317E1,-1.759500057E-1,8.190000653E-1,8.539950371E0
1.751056317E1,-1.800000072E-1,9.340500236E-1,8.548950195E0
1.753056317E1,-1.450500041E-1,1.048050046E0,8.563050270E0
1.755056317E1,-1.249500066E-1,1.123050094E0,8.690999985E0
1.757056317E1,-8.595000207E-2,1.155000091E0,9.433050156E0
1.759056317E1,-6.105000153E-2,1.177050114E0,9.484950066E0
1.761056317E1,-1.339500099E-1,1.164000034E0,1.136100101E1
1.763056317E1,-9.880500436E-1,4.120500088E-1,1.311300087E1
1.765056317E1,-1.104000092E0,3.130500019E-1,1.400205040E1
1.767056317E1,-1.914000034E0,-5.020500422E-1,1.400205040E1
1.769056317E1,-1.954950094E0,-4.999500215E-1,1.308600044E1
1.771056317E1,-2.832000017E0,-4.320000112E-1,1.297905064E1
1.773056317E1,-2.929050207E0,-3.510000110E-1,1.224705029E1
1.775056317E1,-3.007050037E0,-2.560500205E-1,1.220295048E1
1.777056317E1,-3.112950087E0,-1.579500139E-1,1.039800072E1
1.779056317E1,-3.166050196E0,-1.069500074E-1,1.032795048E1
1.781056317E1,-3.145950079E0,-1.420500129E-1,1.036695004E1
1.783056317E1,-3.043950081E0,-1.969500035E-1,1.033995056E1
1.785056317E1,-2.944950104E0,-1.350000054E-1,9.310950279E0
1.787056317E1,-2.848050117E0,-2.205000073E-2,7.500000477E0
1.789056317E1,-2.758050203E0,9.019500613E-1,6.699000359E0
1.791056317E1,-2.647950172E0,1.686000109E0,6.796050549E0
1.793056317E1,-2.536950111E0,1.632000089E0,8.782050133E0
1.795056317E1,-2.400000095E0,7.939500213E-1,1.145100021E1
1.797056317E1,-1.552950025E0,7.690500617E-1,1.154100037E1
1.799056317E1,-1.471950054E0,7.440000176E-1,1.233900070E1
1.801056317E1,-6.810000539E-1,7.590000629E-1,1.346595097E1
1.803056317E1,-5.680500269E-1,8.779500127E-1,1.498500061E1
1.805056317E1,-4.570500255E-1,1.680000067E0,1.495605087E1
1.807056317E1,-3.970500231E-1,1.732950091E0,1.399500084E1
1.809056317E1,-4.050000310E-1,1.828050137E0,1.393395042E1
1.811056317E1,-3.529500067E-1,1.882950068E0,1.390800095E1
1.813056317E1,4.999500215E-1,1.765050054E0,1.288605022E1
1.815056317E1,6.100500226E-1,9.769500494E-1,1.119000053E1
1.817056317E1,7.489500642E-1,9.700500369E-1,9.378000259E0
1.819056317E1,8.460000157E-1,1.000950098E0,8.554050446E0
1.821056317E1,9.870000482E-1,1.012050033E0,1.010700035E1
1.823056317E1,1.006950021E0,9.130500555E-1,1.018305016E1
1.825056317E1,9.199500680E-1,1.630500108E-1,1.116705036E1
1.827056317E1,9.850500226E-1,2.295000106E-2,1.195395088E1
1.829056317E1,1.720950127E0,-7.410000563E-1,1.111800098E1
1.831056317E1,2.639999986E-1,7.304999977E-2,1.019400024E1
1.833056317E1,-6.180000305E-1,9.430500269E-1,1.042200089E1
1.835056317E1,-6.949500442E-1,9.280500412E-1,1.279905033E1
1.837056317E1,-7.840500474E-1,8.250000477E-1,1.386195087E1
1.839056317E1,-1.597050071E0,6.960000396E-1,1.292100048E1
1.841056317E1,-1.642050028E0,6.829500198E-1,1.047600079E1
1.843056317E1,-2.466000080E0,1.474950075E0,9.630000114E0
1.845056317E1,-5.017050266E0,2.350950003E0,9.730950356E0
1.847056317E1,-5.800950050E0,4.054049969E0,1.043505096E1
1.849056317E1,-5.752050400E0,3.151050091E0,1.036800003E1
1.851056317E1,-5.643000126E0,8.490000367E-1,8.854050636E0
1.853056317E1,-4.834050179E0,6.000000052E-3,7.857000351E0
1.855056317E1,-3.256950140E0,-1.663050056E0,8.839050293E0
1.857056317E1,-2.452950001E0,-2.463000059E0,1.081005096E1
1.859056317E1,-2.395950079E0,-2.515950203E0,1.092000008E1
1.861056317E1,-2.380950212E0,-6.199500561E-1,9.040950775E0
1.863056317E1,-3.184050083E0,2.760000229E-1,6.484050274E0
1.865056317E1,-3.157950163E0,1.293000102E0,6.460950375E0
1.867056317E1,-3.037050247E0,1.404000044E0,6.526950359E0
1.869056317E1,-2.146950006E0,6.529500484E-1,7.363950253E0
1.871056317E1,-1.345050097E0,5.820000172E-1,9.976950645E0
1.873056317E1,-4.519500136E-1,4.890000224E-1,1.290900040E1
1.875056317E1,-4.099500179E-1,4.810500145E-1,1.370100021E1
1.877056317E1,-3.570000231E-1,1.239000082E0,1.365600109E1
1.879056317E1,-2.509500086E-1,2.059950113E0,1.281795025E1
1.881056317E1,-1.969500035E-1,2.149049997E0,1.198695087E1
1.883056317E1,-9.730500579E-1,2.971950054E0,1.189005089E1
1.885056317E1,-8.970000148E-1,2.886000156E0,1.199505043E1
1.887056317E1,5.940000415E-1,2.026050091E0,1.277505016E1
1.889056317E1,1.405050039E0,1.192950010E0,1.194300079E1
1.891056317E1,2.203050137E0,4.780500233E-1,1.006905079E1
1.893056317E1,2.176950216E0,5.250000358E-1,9.991050720E0
1.895056317E1,2.086050034E0,6.289500594E-1,1.281300068E1
1.897056317E1,2.097000122E0,7.590000629E-1,1.292205048E1
1.899056317E1,1.986000061E0,7.530000210E-1,1.115400028E1
1.901056317E1,1.846050143E0,6.559500098E-1,1.108605099E1
1.903056317E1,1.055999994E0,6.090000272E-1,1.120095062E1
1.905056317E1,2.380500138E-1,5.340000391E-1,1.211700058E1
1.907056317E1,-6.540000439E-1,5.110500455E-1,1.309305096E1
1.909056317E1,-2.287050009E0,5.250000358E-1,1.405395031E1
1.911056317E1,-2.356050014E0,4.819500148E-1,1.419105053E1
1.913056317E1,-3.142050266E0,4.159500301E-1,1.414200020E1
1.915056317E1,-3.210000038E0,3.400500119E-1,1.237695026E1
1.917056317E1,-3.337050200E0,3.120000064E-1,1.149195099E1
1.919056317E1,-4.200000286E0,3.979500234E-1,1.059900093E1
1.921056317E1,-4.359000206E0,3.919500113E-1,9.868950844E0
1.923056317E1,-4.411950111E0,3.040500283E-1,9.769050598E0
1.925056317E1,-4.302000046E0,2.149500102E-1,7.965000153E0
1.927056317E1,-4.246950150E0,1.090500057E-1,5.575950146E0
1.929056317E1,-4.278000355E0,-7.210500240E-1,5.610000134E0
1.931056317E1,-4.215000153E0,-7.669500113E-1,7.384050369E0
1.933056317E1,-4.141950130E0,-7.260000110E-1,8.145000458E0
1.935056317E1,-4.192049980E0,6.405000389E-2,5.506950378E0
1.937056317E1,-3.354000092E0,1.099050045E0,2.595000029E0
1.939056317E1,-3.273000240E0,1.948050141E0,1.863000035E0
1.941056317E1,-3.279000044E0,2.071950197E0,4.791000366E0
1.943056317E1,-4.173000336E0,2.143949986E0,8.341950417E0
1.945056317E1,-4.114950180E0,2.083950043E0,1.192995071E1
1.947056317E1,-3.331050158E0,1.335000038E0,1.462095070E1
1.949056317E1,-2.466000080E0,5.539500117E-1,1.560900116E1
1.951056317E1,-2.367000103E0,5.140500069E-1,1.636005020E1
1.953056317E1,-1.558950067E0,4.890000224E-1,1.639995003E1
1.955056317E1,-1.612050056E0,4.489500225E-1,1.651500130E1
1.957056317E1,-1.738050103E0,3.979500234E-1,1.798095131E1
1.959056317E1,-1.738950133E0,3.139500022E-1,1.804605103E1
1.961056317E1,-8.119500279E-1,2.419500053E-1,1.600304985E1
1.963056317E1,-6.649500132E-1,1.990500093E-1,1.325895023E1
1.965056317E1,-5.170500278E-1,2.050500065E-1,1.046895027E1
1.967056317E1,-3.910500109E-1,2.260500044E-1,8.887950897E0
1.969056317E1,-3.190500140E-1,2.040000111E-1,9.787950516E0
1.971056317E1,-2.179500163E-1,1.350000054E-1,1.075605011E1
1.973056317E1,-1.660500020E-1,-7.650000453E-1,1.073895073E1
1.975056317E1,-1.429500133E-1,-8.490000367E-1,1.063995075E1
1.977056317E1,-1.189500093E-1,-8.839500546E-1,1.052400017E1
1.979056317E1,-1.339500099E-1,-9.490500689E-1,9.655050278E0
1.981056317E1,-1.770000011E-1,-9.180000424E-1,9.559950829E0
1.983056317E1,-3.160500228E-1,-7.939500213E-1,8.773950577E0
1.985056317E1,-1.072950006E0,-1.200000010E-2,8.710950851E0
1.987056317E1,-1.069050074E0,-3.000000119E-2,8.578950882E0
1.989056317E1,-1.012950063E0,-1.200000010E-2,8.431050301E0
1.991056317E1,-9.120000601E-1,-1.005000062E-2,8.337000847E0
1.993056317E1,-8.089500666E-1,1.305000018E-2,8.268000603E0
1.995056317E1,-8.040000200E-1,6.599999964E-2,8.140950203E0
1.997056317E1,-8.530500531E-1,8.370000124E-1,8.013000488E0
1.999056317E1,-9.160500169E-1,9.139500260E-1,7.963050365E0
2.001056317E1,-9.060000181E-1,1.015950084E0,9.012000084E0
2.003056317E1,-9.469500184E-1,1.066050053E0,9.991050720E0
2.005056317E1,-1.753050089E0,9.739500284E-1,1.077900028E1
2.007056317E1,-1.834950089E0,8.329500556E-1,1.233900070E1
2.009056317E1,-1.977000117E0,5.505000427E-2,1.318695068E1
2.011056317E1,-2.110949993E0,-1.995000057E-2,1.402695084E1
2.013056317E1,-2.248050213E0,-1.050000042E-1,1.398705101E1
2.015056317E1,-2.977050066E0,-1.039500013E-1,1.318395042E1
2.017056317E1,-3.970050097E0,-3.405000269E-2,1.154400063E1
2.019056317E1,-4.105950356E0,5.595000088E-2,1.150995064E1
2.021056317E1,-4.150950432E0,8.205000311E-2,1.234905052E1
2.023056317E1,-4.015050411E0,5.595000088E-2,1.229595089E1
2.025056317E1,-3.885000229E0,4.395000264E-2,1.143195057E1
2.027056317E1,-3.778050184E0,9.405000508E-2,1.062405014E1
2.029056317E1,-3.669000149E0,1.639500111E-1,1.052505016E1
2.031056317E1,-3.586050272E0,1.819500029E-1,1.051995087E1
2.033056317E1,-3.439050198E0,1.600500047E-1,1.044600010E1
2.035056317E1,-2.665050030E0,1.330500096E-1,9.655950546E0
2.037056317E1,-2.584050179E0,1.270500124E-1,9.612000465E0
2.039056317E1,-1.744950056E0,1.260000020E-1,9.553950310E0
2.041056317E1,-1.689000130E0,1.489500105E-1,9.504000664E0
2.043056317E1,-1.593000054E0,2.400000095E-1,9.454950333E0
2.045056317E1,-1.498050094E0,1.074000001E0,9.415950775E0
2.047056317E1,-1.438050032E0,1.123950005E0,9.379950523E0
2.049056317E1,-1.351950049E0,1.177950025E0,9.280050278E0
2.051056317E1,-1.270950079E0,1.252950072E0,9.159000397E0
2.053056317E1,-1.212000012E0,1.371000051E0,8.348999977E0
2.055056317E1,-1.144050002E0,1.471950054E0,8.388000488E0
2.057056317E1,-1.105949998E0,1.513050079E0,8.505000114E0
2.059056317E1,-1.123950005E0,1.566000104E0,1.011795044E1
2.061056317E1,-1.177950025E0,1.618950129E0,1.016895008E1
2.063056317E1,-1.234050035E0,1.630950093E0,1.093500042E1
2.065056317E1,-1.242000103E0,1.603950024E0,1.102800083E1
2.067056317E1,-1.194000006E0,1.500000119E0,1.116195011E1
2.069056317E1,-1.105050087E0,1.405050039E0,1.126200008E1
2.071056317E1,-1.074000001E0,1.357950091E0,1.138500023E1
2.073056317E1,-1.030050039E0,1.312050104E0,1.223295021E1
2.075056317E1,-9.660000205E-1,1.342950106E0,1.232400036E1
2.077056317E1,-9.769500494E-1,1.431000113E0,1.227900028E1
2.079056317E1,-1.104000092E0,2.286000013E0,1.220895100E1
2.081056317E1,-1.224000096E0,2.263950109E0,1.220505047E1
2.083056317E1,-1.279050112E0,6.670500040E-1,1.227000046E1
2.085056317E1,-1.180950046E0,5.460000038E-1,1.236105061E1
2.087056317E1,-4.219500124E-1,4.240500331E-1,1.242795086E1
2.089056317E1,-4.140000343E-1,3.330000043E-1,1.242405033E1
2.091056317E1,-4.030500054E-1,2.689500153E-1,1.237305069E1
2.093056317E1,-1.255950093E0,2.460000068E-1,1.145295048E1
2.095056317E1,-2.055000067E0,2.580000162E-1,1.133805084E1
2.097056317E1,-1.986000061E0,2.500500083E-1,1.037805080E1
2.099056317E1,-1.083000064E0,2.200500071E-1,9.580950737E0
2.101056317E1,-1.032000065E0,1.939500123E-1,9.466950417E0
2.103056317E1,-9.469500184E-1,1.840500087E-1,9.381000519E0
2.105056317E1,-8.340000510E-1,1.630500108E-1,9.385050774E0
2.107056317E1,-6.880500317E-1,1.360500008E-1,9.328050613E0
2.109056317E1,-5.269500017E-1,1.759500057E-1,8.527950287E0
2.111056317E1,2.939999998E-1,2.440500110E-1,7.681950569E0
2.113056317E1,3.109500110E-1,3.319500089E-1,7.566000462E0
2.115056317E1,3.870000243E-1,4.699500203E-1,6.811050415E0
2.117056317E1,3.979500234E-1,6.220500469E-1,7.638000488E0
2.119056317E1,3.480000198E-1,1.321950078E0,7.693950176E0
2.121056317E1,3.169500232E-1,1.285950065E0,8.482049942E0
2.123056317E1,2.650500238E-1,1.221000075E0,9.313050270E0
2.125056317E1,1.870500147E-1,1.165950060E0,1.010805035E1
2.127056317E1,8.805000782E-2,1.144950032E0,1.022295094E1
2.129056317E1,-2.805000171E-2,1.106999993E0,1.179000092E1
2.131056317E1,-8.590500355E-1,1.074000001E0,1.269405079E1
2.133056317E1,-1.621950030E0,1.086000085E0,1.347300053E1
2.135056317E1,-1.684050083E0,1.099050045E0,1.432395077E1
2.137056317E1,-1.734000087E0,1.090050101E0,1.436700058E1
2.139056317E1,-1.852950096E0,9.919500351E-1,1.449900055E1
2.141056317E1,-2.005050182E0,8.850000501E-1,1.634505081E1
2.143056317E1,-2.058000088E0,7.710000277E-1,1.634805107E1
2.145056317E1,-2.071950197E0,6.730500460E-1,1.456800079E1
2.147056317E1,-2.083050013E0,5.689499974E-1,1.368705082E1
2.149056317E1,-2.089950085E0,4.740000367E-1,1.359405041E1
2.151056317E1,-2.134950161E0,3.580500185E-1,1.364595032E1
2.153056317E1,-2.185950041E0,-3.880500197E-1,1.374000072E1
2.155056317E1,-2.265000105E0,-3.589500189E-1,1.372395039E1
2.157056317E1,-2.364000082E0,-2.610000074E-1,1.210800076E1
2.159056317E1,-2.457000017E0,-1.750500053E-1,1.036995029E1
2.161056317E1,-2.560050011E0,-9.900000691E-2,9.390000343E0
2.163056317E1,-2.673000097E0,-1.905000024E-2,9.424050331E0
2.165056317E1,-2.739000082E0,5.895000324E-2,1.021605015E1
2.167056317E1,-2.722050190E0,1.039500013E-1,1.019100094E1
2.169056317E1,-2.670000076E0,2.260500044E-1,8.311050415E0
2.171056317E1,-2.595000029E0,1.713000059E0,6.816000462E0
2.173056317E1,-1.690950036E0,2.478000164E0,5.091000080E0
2.175056317E1,-1.594050050E0,2.529000044E0,5.002050400E0
2.177056317E1,-1.477950096E0,2.587950230E0,5.034000397E0
2.179056317E1,-1.351950049E0,2.728950024E0,5.872050285E0
2.181056317E1,-4.638000011E0,5.457000256E0,9.274950027E0
2.183056317E1,-3.574950218E0,5.530950069E0,8.241000175E0
2.185056317E1,-6.570000052E-1,3.433050156E0,7.771050453E0
2.187056317E1,-5.730000138E-1,2.635950089E0,5.877000332E0
2.189056317E1,-1.393950105E0,2.671950102E0,7.875000477E0
2.191056317E1,-2.179050207E0,3.459000111E0,9.546000481E0
2.193056317E1,-2.182049990E0,3.459000111E0,9.607050896E0
2.195056317E1,-2.128950119E0,3.468000174E0,9.630000114E0
2.197056317E1,-2.049000025E0,3.547050238E0,8.752950668E0
2.199056317E1,-2.017950058E0,4.293000221E0,8.740050316E0
2.201056317E1,-1.977000117E0,4.318050385E0,8.749950409E0
2.203056317E1,-1.924950123E0,4.410000324E0,8.812050819E0
2.205056317E1,-1.906950116E0,4.461000443E0,8.920950890E0
2.207056317E1,-1.834950089E0,4.498050213E0,9.042000771E0
2.209056317E1,-1.831950068E0,4.557000160E0,9.135000229E0
2.211056317E1,-1.843050122E0,4.630950451E0,9.252000809E0
2.213056317E1,-1.852950096E0,4.707000256E0,9.382950783E0
2.215056317E1,-1.885050058E0,4.746000290E0,9.493050575E0
2.217056317E1,-1.885950089E0,4.773000240E0,9.637050629E0
2.219056317E1,-1.915050149E0,4.762950420E0,9.769950867E0
2.221056317E1,-1.954950094E0,4.756050110E0,1.048605061E1
2.223056317E1,-2.029950142E0,4.798950195E0,1.052700043E1
2.225056317E1,-2.047049999E0,4.767000198E0,1.049805069E1
2.227056317E1,-1.938000083E0,4.740000248E0,1.040295029E1
2.229056317E1,-1.836000085E0,4.684050083E0,1.030905056E1
2.231056317E1,-1.824000120E0,4.750050068E0,1.022505093E1
2.233056317E1,-1.729950070E0,4.744950294E0,1.020105076E1
2.235056317E1,-1.615050077E0,4.618950367E0,1.020495033E1
2.237056317E1,-8.580000401E-1,3.757050276E0,1.026105022E1
2.239056317E1,-9.630000591E-1,3.652950287E0,1.028295040E1
2.244752216E1,-2.527950048E0,5.134950161E0,9.156000137E0
2.246752216E1,-2.463000059E0,5.091000080E0,9.150000572E0
2.248752216E1,-2.463000059E0,5.086950302E0,9.276000023E0
2.250752216E1,-2.377050161E0,5.049000263E0,1.014900017E1
2.252752216E1,-2.290050030E0,4.294950008E0,1.162695026E1
2.254752216E1,-2.311050177E0,4.365000248E0,1.160895061E1
2.256752216E1,-2.310000181E0,4.471050262E0,1.156695080E1
2.258752216E1,-2.238000154E0,4.507050037E0,1.152900028E1
2.260752216E1,-2.088000059E0,4.483950138E0,1.154700089E1
2.262752216E1,-1.948050141E0,4.402050018E0,1.157295036E1
2.264752216E1,-1.198050022E0,4.359000206E0,1.164405060E1
2.266752216E1,-1.213950038E0,4.356000423E0,1.166505051E1
2.268752216E1,-1.263000011E0,4.231050014E0,1.166595078E1
2.270752216E1,-1.231950045E0,3.424950123E0,1.165005016E1
2.272752216E1,-1.243950009E0,2.614950180E0,1.160295010E1
2.274752216E1,-1.159950018E0,2.506050110E0,1.164195061E1
2.276752216E1,-3.600000143E-1,2.398050070E0,1.156800079E1
2.278752216E1,-3.889500201E-1,2.337000132E0,1.000905037E1
2.280752216E1,-3.739500046E-1,2.305950165E0,1.002105045E1
2.282752216E1,-4.380000234E-1,2.257050037E0,1.014705086E1
2.284752216E1,-4.890000224E-1,2.205000162E0,1.022700024E1
2.286752216E1,-5.680500269E-1,2.142000198E0,1.016400051E1
2.288752216E1,-5.760000348E-1,2.080049992E0,9.310050011E0
2.290752216E1,-5.800500512E-1,1.972950101E0,9.244950294E0
2.292752216E1,-5.879999995E-1,1.911000133E0,9.178050041E0
2.294752216E1,-5.710500479E-1,1.920000076E0,9.060000420E0
2.296752216E1,-5.170500278E-1,1.996950150E0,8.242950439E0
2.298752216E1,-3.870000243E-1,2.139000177E0,7.366950512E0
2.300752216E1,-3.070500195E-1,2.905950069E0,7.339050293E0
2.302752216E1,-2.569500208E-1,2.995050192E0,7.329000473E0
2.304752216E1,-2.290500104E-1,3.861000299E0,7.435950279E0
2.306752216E1,-1.750500053E-1,3.936000109E0,8.269050598E0
2.308752216E1,-7.395000011E-2,3.939000130E0,9.871050835E0
2.310752216E1,-3.705000132E-2,3.904950142E0,1.068405056E1
2.312752216E1,-1.200000010E-2,3.916050196E0,1.066095066E1
2.314752216E1,-6.795000285E-2,4.045950413E0,1.052895069E1
2.316752216E1,-1.698000073E0,4.771050453E0,1.055295086E1
2.318752216E1,-2.539950132E0,3.742950201E0,1.289400101E1
2.320752216E1,-3.487050056E0,2.917950153E0,1.297995090E1
2.322752216E1,-3.481050253E0,2.167050123E0,1.306800079E1
2.324752216E1,-3.510000229E0,1.258950114E0,1.313400078E1
2.326752216E1,-3.636000156E0,1.312950015E0,1.316505051E1
2.328752216E1,-4.410000324E0,1.363050103E0,1.226400089E1
2.330752216E1,-4.405050278E0,1.344000101E0,1.147695065E1
2.332752216E1,-4.405950069E0,5.419500470E-1,1.143195057E1
2.334752216E1,-4.405950069E0,5.010000467E-1,1.151595020E1
2.336752216E1,-4.390950203E0,4.810500145E-1,1.234500027E1
2.338752216E1,-4.378050327E0,5.500500202E-1,1.141905022E1
2.340752216E1,-4.300950050E0,6.960000396E-1,9.775950432E0
2.342752216E1,-3.415050268E0,1.498050094E0,9.705000877E0
2.344752216E1,-3.322950125E0,1.477950096E0,9.643050194E0
2.346752216E1,-2.487000227E0,1.435950041E0,9.562050819E0
2.348752216E1,-2.448000193E0,1.449000120E0,9.508050919E0
2.350752216E1,-2.391000032E0,1.450050116E0,9.511050224E0
2.352752216E1,-2.305950165E0,1.467000127E0,9.547950745E0
2.354752216E1,-2.199000120E0,1.510050058E0,9.577950478E0
2.356752216E1,-2.137050152E0,1.546050072E0,9.609000206E0
2.358752216E1,-2.077050209E0,1.635000110E0,9.622950554E0
2.360752216E1,-2.052000046E0,1.765950084E0,9.595050812E0
2.362752216E1,-2.082000017E0,1.870950103E0,9.603000641E0
2.364752216E1,-2.154000044E0,1.969950080E0,9.679950714E0
2.366752216E1,-2.284050226E0,2.080950022E0,1.053195095E1
2.368752216E1,-2.347050190E0,2.161050081E0,1.047495079E1
2.370752216E1,-2.361000061E0,2.203050137E0,1.036800003E1
2.372752216E1,-2.428050041E0,2.173950195E0,1.033995056E1
2.374752216E1,-2.458950043E0,2.083950043E0,1.045200062E1
2.376752216E1,-2.458050013E0,1.944000125E0,1.134195042E1
2.378752216E1,-2.431950092E0,1.215000033E0,1.137705040E1
2.380752216E1,-2.410950184E0,1.281000018E0,1.125600052E1
2.382752216E1,-2.428050041E0,1.384950042E0,1.048995018E1
2.384752216E1,-2.515950203E0,2.199000120E0,1.037895012E1
2.386752216E1,-2.628000021E0,2.232000113E0,1.026495075E1
2.388752216E1,-2.665950060E0,2.202000141E0,1.019100094E1
2.390752216E1,-2.586000204E0,1.398000121E0,1.030800056E1
2.392752216E1,-1.795950055E0,1.258950114E0,1.038195038E1
2.394752216E1,-1.738950133E0,1.158000112E0,1.037100029E1
2.396752216E1,-1.699050069E0,1.075049996E0,1.035495090E1
2.398752216E1,-1.710000038E0,9.799500704E-1,1.116000080E1
2.400752216E1,-1.785000086E0,2.350500077E-1,1.194105053E1
2.402752216E1,-1.855050087E0,2.260500044E-1,1.278600025E1
2.404752216E1,-1.836000085E0,2.059500068E-1,1.198200035E1
2.406752216E1,-9.079500437E-1,1.780500114E-1,1.107195091E1
2.408752216E1,-8.940000534E-1,2.029500157E-1,1.097505093E1
2.410752216E1,-8.940000534E-1,3.169500232E-1,1.088100052E1
2.412752216E1,-9.360000491E-1,1.110000014E0,1.080195045E1
2.414752216E1,-9.060000181E-1,1.200000048E0,9.955050468E0
2.416752216E1,-8.179500103E-1,1.315950036E0,9.054000854E0
2.418752216E1,-7.429500222E-1,2.061000109E0,8.179050446E0
2.420752216E1,-6.540000439E-1,2.085000038E0,8.104050636E0
2.422752216E1,-6.019500494E-1,2.118000031E0,8.041950226E0
2.424752216E1,-5.329500437E-1,2.193000078E0,8.061000824E0
2.426752216E1,-4.770000279E-1,2.274000168E0,8.086050034E0
2.428752216E1,-3.990000188E-1,2.269050121E0,8.163000107E0
2.430752216E1,-3.100500107E-1,2.191050053E0,9.120000839E0
2.432752216E1,-2.400000095E-1,2.145000219E0,9.100950241E0
2.434752216E1,-2.269500047E-1,2.101050138E0,9.184950829E0
2.436752216E1,-2.509500086E-1,2.041050196E0,1.009005070E1
2.438752216E1,-2.460000068E-1,1.966950059E0,1.081995010E1
2.440752216E1,-2.610000074E-1,1.894050121E0,1.080795097E1
2.442752216E1,-2.970000207E-1,1.915950060E0,1.081500053E1
2.444752216E1,-1.055999994E0,2.032950163E0,1.086000061E1
2.446752216E1,-1.086000085E0,2.179050207E0,1.094295025E1
2.448752216E1,-1.183950067E0,2.988000154E0,1.107405090E1
2.450752216E1,-1.279950023E0,3.039000034E0,1.118400097E1
2.452752216E1,-1.375950098E0,3.121950150E0,1.123800087E1
2.454752216E1,-1.464000106E0,3.151050091E0,1.131105042E1
2.456752216E1,-1.590000033E0,3.088050127E0,1.145205021E1
2.458752216E1,-2.323950052E0,2.239950180E0,1.223895073E1
2.460752216E1,-2.341950178E0,2.104050159E0,1.306605053E1
2.462752216E1,-2.392050028E0,1.329000115E0,1.310100079E1
2.464752216E1,-2.466000080E0,5.580000281E-1,1.319205093E1
2.466752216E1,-2.611950159E0,4.680000246E-1,1.403295040E1
2.468752216E1,-3.460050106E0,3.769500256E-1,1.405905056E1
2.470752216E1,-3.472950220E0,2.980500162E-1,1.326105022E1
2.472752216E1,-3.436950207E0,2.170500159E-1,1.222800064E1
2.474752216E1,-2.596050024E0,1.810500026E-1,1.056000042E1
2.476752216E1,-2.511000156E0,1.399500072E-1,9.628950119E0
2.478752216E1,-2.484000206E0,1.339500099E-1,9.748950005E0
2.480752216E1,-2.581950188E0,1.870500147E-1,9.804000854E0
2.482752216E1,-3.400050163E0,1.059000015E0,9.073050499E0
2.484752216E1,-3.361950159E0,1.888950109E0,7.453050137E0
2.486752216E1,-3.277950048E0,1.948050141E0,7.410000324E0
2.488752216E1,-2.499000072E0,2.004000187E0,7.480950356E0
2.490752216E1,-2.409000158E0,2.037000179E0,7.615950584E0
2.492752216E1,-2.269050121E0,2.070000172E0,7.729950428E0
2.494752216E1,-1.543950081E0,2.089050055E0,7.846050262E0
2.496752216E1,-1.521000028E0,2.125950098E0,8.827050209E0
2.498752216E1,-1.521000028E0,2.140050173E0,8.932050705E0
2.500752216E1,-1.515000105E0,2.140950203E0,9.750000000E0
2.502752216E1,-1.393950105E0,2.098050117E0,9.751049995E0
2.504752216E1,-6.730500460E-1,2.065050125E0,9.715050697E0
2.506752216E1,-6.930000186E-1,2.097000122E0,9.685950279E0
2.508752216E1,-7.270500064E-1,2.155050039E0,9.675000191E0
2.510752216E1,-7.470000386E-1,2.218050003E0,9.654000282E0
2.512752216E1,-7.980000377E-1,2.257950068E0,9.672000885E0
2.514752216E1,-7.990500331E-1,2.320950031E0,9.697050095E0
2.516752216E1,-8.389500380E-1,2.394000053E0,9.781949997E0
2.518752216E1,-9.379500151E-1,2.442000151E0,1.059105015E1
2.520752216E1,-1.068000078E0,2.536950111E0,1.070805073E1
2.522752216E1,-1.807050109E0,2.641950130E0,1.078995037E1
2.524752216E1,-1.810050130E0,2.740950108E0,1.087200069E1
2.526752216E1,-1.864050031E0,2.815050125E0,1.171995068E1
2.528752216E1,-1.930050135E0,2.757000208E0,1.252200031E1
2.530752216E1,-1.879950047E0,2.629950047E0,1.349205017E1
2.532752216E1,-1.780950069E0,1.905000091E0,1.343895054E1
2.534752216E1,-1.756950140E0,1.906950116E0,1.348800087E1
2.536752216E1,-1.804050088E0,1.888950109E0,1.360695076E1
2.538752216E1,-1.855950117E0,1.827000141E0,1.366605091E1
2.540752216E1,-1.930950046E0,1.707000136E0,1.356405067E1
2.542752216E1,-1.872000098E0,1.596000075E0,1.269300079E1
2.544752216E1,-1.770000100E0,1.474050045E0,1.185600090E1
2.546752216E1,-1.668000102E0,6.120000482E-1,1.100700092E1
2.548752216E1,-8.760000467E-1,6.499500275E-1,1.025400066E1
2.550752216E1,-7.879500389E-1,6.430500150E-1,1.019700050E1
2.552752216E1,-6.480000019E-1,6.649500132E-1,1.013505077E1
2.554752216E1,-5.550000072E-1,6.799500585E-1,1.006995010E1
2.556752216E1,-5.010000467E-1,6.940500140E-1,1.003200054E1
2.558752216E1,-4.249500334E-1,7.150500417E-1,1.002795029E1
2.560752216E1,-3.660000265E-1,8.470500112E-1,9.946950912E0
2.562752216E1,-3.490500152E-1,1.560000062E0,9.843000412E0
2.564752216E1,-2.959500253E-1,1.552050114E0,9.756000519E0
2.566752216E1,-1.890000105E-1,1.531050086E0,9.670050621E0
2.568752216E1,-1.090500057E-1,1.524000049E0,9.601050377E0
2.570752216E1,-1.005000062E-2,1.597050071E0,9.535050392E0
2.572752216E1,1.080000028E-1,1.683000088E0,9.439050674E0
2.574752216E1,8.920500278E-1,1.711950064E0,9.321000099E0
2.576752216E1,9.630000591E-1,9.010500312E-1,9.199950218E0
2.578752216E1,1.780050039E0,7.660500407E-1,8.497050285E0
2.580752216E1,1.852950096E0,6.000000052E-3,8.632950783E0
2.582752216E1,1.875000119E0,-1.350000054E-1,9.433950424E0
2.584752216E1,9.340500236E-1,-9.405000508E-2,9.502050400E0
2.586752216E1,1.950000064E-3,8.329500556E-1,9.508950233E0
2.588752216E1,-1.120500043E-1,9.420000315E-1,9.400950432E0
2.590752216E1,-9.829500318E-1,1.716000080E0,9.316950798E0
2.592752216E1,-1.051950097E0,2.536050081E0,9.352950096E0
2.594752216E1,-1.081950068E0,2.632050037E0,9.405000687E0
2.596752216E1,-1.069050074E0,2.725950241E0,9.472949982E0
2.598752216E1,-1.086000085E0,2.841000080E0,1.027095032E1
2.600752216E1,-1.180950046E0,3.654000282E0,1.110495090E1
2.602752216E1,-2.128050089E0,3.648000240E0,1.197405052E1
2.604752216E1,-2.215050220E0,3.574050188E0,1.363605022E1
2.606752216E1,-2.286000013E0,2.754000187E0,1.465200043E1
2.608752216E1,-2.371050119E0,1.110000014E0,1.622504997E1
2.610752216E1,-3.232050180E0,9.960000515E-1,1.622294998E1
2.612752216E1,-3.291000128E0,2.410500050E-1,1.538595104E1
2.614752216E1,-3.391950130E0,2.149500102E-1,1.533300114E1
2.616752216E1,-3.444000244E0,1.639500111E-1,1.518000031E1
2.618752216E1,-3.502050161E0,1.009500027E-1,1.351905060E1
2.620752216E1,-3.525000095E0,6.795000285E-2,1.167000103E1
2.622752216E1,-3.430050135E0,2.505000122E-2,1.006200027E1
2.624752216E1,-3.352950096E0,3.299999982E-2,9.151050568E0
2.626752216E1,-4.059000015E0,3.705000132E-2,9.150000572E0
2.628752216E1,-4.060050011E0,2.805000171E-2,9.259950638E0
2.630752216E1,-4.009050369E0,2.205000073E-2,9.363000870E0
2.632752216E1,-3.259050131E0,-1.200000010E-2,8.545050621E0
2.634752216E1,-3.136950254E0,-1.305000018E-2,8.425050735E0
2.636752216E1,-2.338950157E0,4.500000179E-2,7.692000389E0
2.638752216E1,-2.211000204E0,1.489500105E-1,7.666950226E0
2.640752216E1,-1.473000050E0,9.000000358E-1,7.624050140E0
2.642752216E1,-1.459050059E0,1.032000065E0,7.602000237E0
2.644752216E1,-1.459950089E0,1.792950034E0,7.633050442E0
2.646752216E1,-1.459950089E0,1.882050037E0,8.479949951E0
2.648752216E1,-1.453950047E0,1.993950129E0,9.277950287E0
2.650752216E1,-1.414950013E0,2.100000143E0,9.322050095E0
2.652752216E1,-1.327050090E0,2.143949986E0,9.361050606E0
2.654752216E1,-1.236000061E0,2.200050116E0,9.400950432E0
2.656752216E1,-1.186950088E0,2.253000021E0,9.454050064E0
2.658752216E1,-1.105050087E0,2.254950047E0,9.508050919E0
2.660752216E1,-9.880500436E-1,2.236950159E0,9.586950302E0
2.662752216E1,-9.090000391E-1,2.164050102E0,9.694950104E0
2.664752216E1,-8.560500145E-1,2.095050097E0,1.058595085E1
2.666752216E1,-8.140500188E-1,2.062050104E0,1.068000031E1
2.668752216E1,-8.460000157E-1,2.050950050E0,1.080000019E1
2.670752216E1,-9.610500336E-1,2.078999996E0,1.157100010E1
2.672752216E1,-1.689000130E0,2.065050125E0,1.242900085E1
2.674752216E1,-1.720950127E0,2.073000193E0,1.332195091E1
2.676752216E1,-1.785000086E0,2.046000004E0,1.431300068E1
2.678752216E1,-1.816950083E0,2.046000004E0,1.425000095E1
2.680752216E1,-1.944000125E0,2.136000156E0,1.337205029E1
2.682752216E1,-2.086950064E0,2.220000029E0,1.330005074E1
2.684752216E1,-2.182950020E0,1.308000088E0,1.325595093E1
2.686752216E1,-2.169000149E0,5.029500127E-1,1.321995068E1
2.688752216E1,-2.098950148E0,4.470000267E-1,1.242600060E1
2.690752216E1,-2.041949987E0,3.850500286E-1,1.230705070E1
2.692752216E1,-1.929000139E0,3.499500155E-1,1.149000072E1
2.694752216E1,-1.087950110E0,3.889500201E-1,9.946050644E0
2.696752216E1,-1.063050032E0,4.620000124E-1,9.840000153E0
2.698752216E1,-1.004999995E0,5.100000501E-1,9.054000854E0
2.700752216E1,-8.920500278E-1,5.190000534E-1,9.079950333E0
2.702752216E1,-7.680000067E-1,5.689499974E-1,9.151950836E0
2.704752216E1,-7.279500365E-1,6.120000482E-1,9.229050636E0
2.706752216E1,-7.090500593E-1,6.870000362E-1,1.008300018E1
2.708752216E1,-7.099500299E-1,8.170500398E-1,1.015395069E1
2.710752216E1,-6.570000052E-1,1.599000096E0,1.026705074E1
2.712752216E1,-5.719500184E-1,1.687050104E0,1.033500004E1
2.714752216E1,2.179500163E-1,2.569050074E0,1.038105011E1
2.716752216E1,1.072950006E0,2.641050100E0,1.037805080E1
2.718752216E1,1.183950067E0,2.664000034E0,1.036305046E1
2.720752216E1,1.311000109E0,1.875000119E0,1.032405090E1
2.722752216E1,1.371000051E0,1.084050059E0,1.020900059E1
2.724752216E1,1.441050053E0,1.055999994E0,9.427050591E0
2.726752216E1,1.425000072E0,1.098000050E0,9.289050102E0
2.728752216E1,5.790000558E-1,1.179000020E0,8.557950020E0
2.730752216E1,4.669500291E-1,2.017950058E0,8.482049942E0
2.732752216E1,3.550500274E-1,2.078999996E0,8.365950584E0
2.734752216E1,2.520000041E-1,2.197050095E0,8.346000671E0
2.736752216E1,1.740000099E-1,2.349000216E0,8.389950752E0
2.738752216E1,9.795000404E-2,3.132000208E0,9.174000740E0
2.740752216E1,-7.159500122E-1,3.210000038E0,9.250950813E0
2.742752216E1,-8.059500456E-1,3.261000156E0,1.012395000E1
2.744752216E1,-1.552950025E0,3.178950071E0,1.225905037E1
2.746752216E1,-1.651050091E0,2.254950047E0,1.435605049E1
2.748752216E1,-1.695000052E0,1.342050076E0,1.606694984E1
2.750752216E1,-1.702950120E0,1.305000067E0,1.513200092E1
2.752752216E1,-2.506050110E0,1.314000010E0,1.325100040E1
2.754752216E1,-2.581050158E0,1.449000120E0,1.234500027E1
2.756752216E1,-3.547050238E0,1.552950025E0,1.229205036E1
2.758752216E1,-3.531000137E0,1.519950032E0,1.229805088E1
2.760752216E1,-3.510000229E0,1.489050031E0,1.227405071E1
2.762752216E1,-3.493950129E0,1.606050134E0,1.141695023E1
2.764752216E1,-3.514050245E0,2.395950079E0,9.937050819E0
2.766752216E1,-3.625950098E0,2.470950127E0,9.139050484E0
2.768752216E1,-3.742050171E0,2.578050137E0,9.207000732E0
2.770752216E1,-3.763050079E0,2.640000105E0,9.286050797E0
2.772752216E1,-3.730050087E0,2.659950018E0,9.343050003E0
2.774752216E1,-2.940000057E0,2.644050121E0,9.315000534E0
2.776752216E1,-2.856000185E0,2.581950188E0,9.226050377E0
2.778752216E1,-1.936950088E0,2.491950035E0,9.162000656E0
2.780752216E1,-9.229500294E-1,2.430000067E0,9.031949997E0
2.782752216E1,-9.000000358E-1,2.434950113E0,8.266050339E0
2.784752216E1,-8.539500237E-1,2.490000010E0,8.131950378E0
2.786752216E1,-8.020500541E-1,2.604000092E0,7.384050369E0
2.788752216E1,-8.430000544E-1,2.752050161E0,8.200050354E0
2.790752216E1,-7.969500422E-1,3.517950058E0,8.202000618E0
2.792752216E1,-6.960000396E-1,3.463950157E0,8.185050011E0
2.794752216E1,-5.779500008E-1,3.393000126E0,8.101050377E0
2.796752216E1,-4.920000136E-1,3.385050058E0,8.138999939E0
2.798752216E1,-4.570500255E-1,3.418050051E0,8.284950256E0
2.800752216E1,-3.769500256E-1,3.451050282E0,9.097050667E0
2.802752216E1,-3.240000010E-1,3.451950073E0,9.142050743E0
2.804752216E1,-2.929500043E-1,3.397950172E0,1.004295063E1
2.806752216E1,-2.490000129E-1,3.355950117E0,1.085205078E1
2.808752216E1,-2.320500165E-1,3.352950096E0,1.091100025E1
2.810752216E1,-2.419500053E-1,3.352950096E0,1.100700092E1
2.812752216E1,-3.379500210E-1,3.357000113E0,1.186305046E1
2.814752216E1,-4.290000200E-1,3.267000198E0,1.358805084E1
2.816752216E1,-1.216950059E0,3.192000151E0,1.441995049E1
2.818752216E1,-1.267050028E0,3.088950157E0,1.446405029E1
2.820752216E1,-1.281000018E0,3.094950199E0,1.350705051E1
2.822752216E1,-1.288050056E0,3.127050161E0,1.267305088E1
2.824752216E1,-1.201050043E0,3.130050182E0,1.255095100E1
2.826752216E1,-1.110000014E0,2.323950052E0,1.245600033E1
2.828752216E1,-1.042950034E0,2.262000084E0,1.161000061E1
2.830752216E1,-2.950500250E-1,2.128050089E0,1.150995064E1
2.832752216E1,-2.779500186E-1,1.410000086E0,1.145205021E1
2.834752216E1,-2.440500110E-1,1.362000108E0,1.150800037E1
2.836752216E1,-2.290500104E-1,1.264950037E0,1.144395065E1
2.838752216E1,-2.299500108E-1,4.800000191E-1,1.068900013E1
2.840752216E1,-2.010000050E-1,4.279500246E-1,1.069995022E1
2.842752216E1,-1.489500105E-1,3.829500079E-1,1.070400047E1
2.844752216E1,-1.080000028E-1,3.580500185E-1,1.066005039E1
2.846752216E1,-5.295000225E-2,3.940500319E-1,9.850950241E0
2.848752216E1,7.920000553E-1,5.440500379E-1,8.302050591E0
2.850752216E1,8.140500188E-1,1.432050109E0,7.339950562E0
2.852752216E1,9.000000358E-1,1.567950130E0,7.312050343E0
2.854752216E1,9.270000458E-1,1.687050104E0,7.414950371E0
2.856752216E1,9.070500135E-1,1.828050137E0,8.187000275E0
2.858752216E1,7.920000553E-1,1.942950130E0,8.245050430E0
2.860752216E1,7.189500332E-1,2.028000116E0,9.061050415E0
2.862752216E1,7.549500465E-1,1.986000061E0,9.882000923E0
2.864752216E1,8.280000687E-1,1.917000055E0,9.955050468E0
2.866752216E1,8.689500690E-1,1.951050043E0,9.982950211E0
2.868752216E1,8.359500170E-1,2.056050062E0,9.937050819E0
2.870752216E1,7.459500432E-1,2.815950155E0,9.975000381E0
2.872752216E1,6.640500426E-1,2.944950104E0,1.006695080E1
2.874752216E1,5.920500159E-1,3.046950102E0,1.014795017E1
2.876752216E1,5.869500041E-1,3.838950157E0,1.020105076E1
2.878752216E1,5.730000138E-1,3.910050154E0,1.022205067E1
2.880752216E1,5.610000491E-1,4.717050076E0,1.018605042E1
2.882752216E1,6.289500594E-1,4.771950245E0,1.014705086E1
2.884752216E1,7.060500383E-1,4.795050144E0,1.017195034E1
2.886752216E1,7.879500389E-1,4.768950462E0,1.094505024E1
2.888752216E1,8.040000200E-1,4.639050007E0,1.173195076E1
2.890752216E1,7.620000243E-1,3.775050163E0,1.328895092E1
2.892752216E1,7.399500608E-1,3.673050165E0,1.408305073E1
2.894752216E1,6.660000086E-1,3.541950226E0,1.324005032E1
2.896752216E1,5.059500337E-1,3.403050184E0,1.246905041E1
2.898752216E1,-3.030000031E-1,3.259050131E0,1.249800014E1
2.900752216E1,-1.102050066E0,2.479050159E0,1.258995056E1
2.902752216E1,-1.048050046E0,1.767000079E0,1.331100082E1
2.904752216E1,-9.460500479E-1,1.695000052E0,1.250895023E1
2.906752216E1,-8.470500112E-1,1.699050069E0,1.151595020E1
2.908752216E1,-8.520000577E-1,1.780950069E0,1.065195084E1
2.910752216E1,-8.910000324E-1,1.897950053E0,1.054005051E1
2.912752216E1,-9.649500251E-1,2.040000200E0,9.892050743E0
2.914752216E1,-1.054949999E0,2.845950127E0,9.915000916E0
2.916752216E1,-1.134000063E0,2.866050243E0,9.841950417E0
2.918752216E1,-1.144950032E0,2.922000170E0,8.829000473E0
2.920752216E1,-1.093950033E0,3.052050114E0,8.761050224E0
2.922752216E1,-9.769500494E-1,3.163050175E0,8.683050156E0
2.924752216E1,-1.510500014E-1,3.259950161E0,8.563050270E0
2.926752216E1,-1.420500129E-1,3.358950138E0,8.458950043E0
2.928752216E1,-1.440000087E-1,3.469050169E0,8.319000244E0
2.930752216E1,-1.380000114E-1,3.538950205E0,8.206950188E0
2.932752216E1,-1.510500014E-1,3.589950085E0,8.224050522E0
2.934752216E1,-1.219500080E-1,3.592950106E0,8.269050598E0
2.936752216E1,-9.600000083E-2,3.631950140E0,8.209050179E0
2.938752216E1,-5.295000225E-2,3.688950062E0,8.113050461E0
2.940752216E1,-6.000000238E-2,3.762000084E0,8.146950722E0
2.942752216E1,-6.599999964E-2,3.837000132E0,8.944050789E0
2.944752216E1,-5.700000376E-2,3.919950247E0,9.001950264E0
2.946752216E1,-6.105000153E-2,4.015950203E0,8.983050346E0
2.948752216E1,-8.805000782E-2,4.116000175E0,8.956050873E0
2.950752216E1,-9.705000371E-2,4.168050289E0,9.088050842E0
2.952752216E1,-1.170000061E-1,4.219050407E0,9.907950401E0
2.954752216E1,-1.339500099E-1,4.219950199E0,1.067100048E1
2.956752216E1,-1.200000048E-1,4.141950130E0,1.081005096E1
2.958752216E1,-1.210500076E-1,4.090950012E0,1.162200069E1
2.960752216E1,-8.805000782E-2,4.085999966E0,1.169505024E1
2.962752216E1,-6.000000238E-2,4.186050415E0,1.171200085E1
2.964752216E1,-1.000500023E-1,4.975050449E0,1.157700062E1
2.966752216E1,-1.830000132E-1,5.037000179E0,1.147995090E1
2.968752216E1,-1.999500096E-1,4.167000294E0,1.155795097E1
2.970752216E1,-1.890000105E-1,3.295950174E0,1.315995026E1
2.972752216E1,-2.310000062E-1,2.446950197E0,1.321305084E1
2.974752216E1,-2.869500220E-1,1.624050021E0,1.317300034E1
2.976752216E1,-3.180000186E-1,2.380050182E0,1.161195087E1
2.978752216E1,-4.060500264E-1,2.454000235E0,1.074000072E1
2.980752216E1,-4.129500091E-1,2.488050222E0,1.066500092E1
2.982752216E1,-3.450000286E-1,2.404950142E0,1.067100048E1
2.984752216E1,-2.310000062E-1,2.304000139E0,1.060005093E1
2.986752216E1,-9.795000404E-2,2.260950089E0,9.822000504E0
2.988752216E1,-1.950000064E-3,2.206050158E0,9.715950012E0
2.990752216E1,8.895000070E-2,2.182950020E0,9.652950287E0
2.992752216E1,1.990500093E-1,2.143050194E0,9.709050179E0
2.994752216E1,2.710500062E-1,2.125050068E0,9.775050163E0
2.996752216E1,3.340500295E-1,2.178000212E0,9.739950180E0
2.998752216E1,4.129500091E-1,2.293050051E0,9.613050461E0
3.000752216E1,5.160000324E-1,2.425050020E0,8.748000145E0
3.002752216E1,5.680500269E-1,2.554950237E0,8.650950432E0
3.004752216E1,6.360000372E-1,2.662050009E0,8.656050682E0
3.006752216E1,6.799500585E-1,2.743950129E0,8.698050499E0
3.008752216E1,7.339500189E-1,2.824950218E0,8.754000664E0
3.010752216E1,7.639500499E-1,2.899950027E0,8.728050232E0
3.012752216E1,8.449500203E-1,2.998950243E0,8.662050247E0
3.014752216E1,9.090000391E-1,3.798000097E0,8.596050262E0
3.016752216E1,9.120000601E-1,3.861000299E0,8.635050774E0
3.018752216E1,8.659500480E-1,3.889950275E0,9.583950043E0
3.020752216E1,8.130000234E-1,3.877050161E0,9.645000458E0
3.022752216E1,7.890000343E-1,3.934950113E0,1.042095089E1
3.024752216E1,6.310500503E-1,4.027050018E0,1.123500061E1
3.026752216E1,5.190000534E-1,4.047000408E0,1.202595043E1
3.028752216E1,4.579500258E-1,3.997050285E0,1.292295074E1
3.030752216E1,4.309500158E-1,3.106050253E0,1.390905094E1
3.032752216E1,4.290000200E-1,3.075000048E0,1.468500042E1
3.034752216E1,4.969500303E-1,3.144000053E0,1.391595078E1
3.036752216E1,-2.950500250E-1,3.201000214E0,1.313805103E1
3.038752216E1,-3.559500277E-1,3.199950218E0,1.309500027E1
3.040752216E1,-4.909500182E-1,2.253000021E0,1.311495018E1
3.042752216E1,-1.279050112E0,2.142000198E0,1.317300034E1
3.044752216E1,-1.248000026E0,2.041949987E0,1.234305096E1
3.046752216E1,-1.237050056E0,2.050950050E0,1.149000072E1
3.048752216E1,-1.282050014E0,2.119050026E0,1.040700054E1
3.050752216E1,-1.309950113E0,2.187000036E0,9.673050880E0
3.052752216E1,-1.237950087E0,2.175000191E0,9.718050003E0
3.054752216E1,-1.153950095E0,2.137050152E0,9.745950699E0
3.056752216E1,-1.180050015E0,2.118000031E0,9.721950531E0
3.058752216E1,-1.189050078E0,2.160000086E0,8.965050697E0
3.060752216E1,-1.120050073E0,2.266050100E0,8.875050545E0
3.062752216E1,-9.910500646E-1,2.347950220E0,8.085000038E0
3.064752216E1,-1.999500096E-1,2.404050112E0,8.068950653E0
3.066752216E1,-2.190000117E-1,2.494050026E0,7.989000320E0
3.068752216E1,-2.470500171E-1,2.605950117E0,7.942950249E0
3.070752216E1,-2.190000117E-1,2.697000027E0,7.942950249E0
3.072752216E1,-1.980000138E-1,2.782950163E0,7.911000252E0
3.074752216E1,-1.759500057E-1,2.887950182E0,7.830000401E0
3.076752216E1,-2.689500153E-1,3.682050228E0,8.686950684E0
3.078752216E1,-3.400500119E-1,3.658950090E0,8.803050041E0
3.080752216E1,-4.080000222E-1,3.637050152E0,8.898000717E0
3.082752216E1,-4.489500225E-1,3.595950127E0,9.028950691E0
3.084752216E1,-4.860000312E-1,3.559950113E0,9.784950256E0
3.086752216E1,-5.490000248E-1,3.547050238E0,9.838050842E0
3.088752216E1,-6.660000086E-1,3.585000277E0,9.946950912E0
3.090752216E1,-7.350000143E-1,3.640050173E0,1.007205009E1
3.092752216E1,-8.119500279E-1,3.655950069E0,1.095900059E1
3.094752216E1,-8.940000534E-1,3.688050270E0,1.186995029E1
3.096752216E1,-9.829500318E-1,3.747000217E0,1.270995045E1
3.098752216E1,-1.029000044E0,3.787950277E0,1.281495094E1
3.100752216E1,-1.110000014E0,3.907050133E0,1.274805069E1
3.102752216E1,-1.189050078E0,3.934950113E0,1.194900036E1
3.104752216E1,-4.309500158E-1,3.061950207E0,1.194705009E1
3.106752216E1,-4.050000310E-1,1.417950034E0,1.288800049E1
3.108752216E1,-7.791000366E0,2.989950180E0,2.784900093E1
3.110752216E1,-1.057950020E0,2.164950132E0,1.052100086E1
3.112752216E1,-7.300500274E-1,2.176950216E0,7.615950584E0
3.114752216E1,1.699500084E-1,2.179050207E0,7.660050392E0
3.116752216E1,1.980000138E-1,2.118000031E0,8.613000870E0
3.118752216E1,1.530000120E-1,2.055000067E0,1.013400078E1
3.120752216E1,7.995000482E-2,1.999950051E0,1.088505077E1
3.122752216E1,1.230000034E-1,1.881000042E0,1.008405018E1
3.124752216E1,1.450500041E-1,1.846950054E0,8.319000244E0
3.126752216E1,9.405000508E-2,1.933050036E0,8.302950859E0
3.128752216E1,3.000000026E-3,2.799000025E0,8.305050850E0
3.130752216E1,-7.200000435E-2,2.823000193E0,8.320950508E0
3.132752216E1,-1.219500080E-1,2.887950182E0,8.293950081E0
3.134752216E1,-1.519500017E-1,2.985000134E0,8.185050011E0
3.136752216E1,-1.339500099E-1,3.060000181E0,8.204999924E0
3.138752216E1,-1.080000028E-1,3.103950262E0,9.139950752E0
3.140752216E1,-1.210500076E-1,3.163950205E0,9.223950386E0
3.142752216E1,-1.080000028E-1,3.172050238E0,9.289950371E0
3.144752216E1,-7.304999977E-2,3.166950226E0,9.385050774E0
3.146752216E1,-6.000000238E-2,3.133050203E0,9.490950584E0
3.148752216E1,-5.400000140E-2,3.117000103E0,9.534000397E0
3.150752216E1,-3.705000132E-2,3.153000116E0,9.591000557E0
3.152752216E1,-1.395000052E-2,3.259050131E0,9.616950035E0
3.154752216E1,1.605000161E-2,3.367050171E0,9.706950188E0
3.156752216E1,-4.950000439E-3,3.450000048E0,1.049295044E1
3.158752216E1,-2.595000155E-2,4.258049965E0,1.129395008E1
3.160752216E1,-5.895000324E-2,4.192950249E0,1.209495068E1
3.162752216E1,-9.795000404E-2,4.129950047E0,1.216305065E1
3.164752216E1,-1.000500023E-1,4.194000244E0,1.218495083E1
3.166752216E1,-8.595000207E-2,4.900950432E0,1.213995075E1
3.168752216E1,-1.210500076E-1,4.065000057E0,1.290105057E1
3.170752216E1,-9.180000424E-1,4.006950378E0,1.301295090E1
3.172752216E1,-1.032000065E0,3.073050261E0,1.307700062E1
3.174752216E1,-1.144050002E0,2.274000168E0,1.310400105E1
3.176752216E1,-1.284000039E0,2.188950062E0,1.308405018E1
3.178752216E1,-1.377000093E0,2.059950113E0,1.301205063E1
3.180752216E1,-1.444950104E0,1.984950066E0,1.130400085E1
3.182752216E1,-1.468950033E0,1.947000146E0,1.035195065E1
3.184752216E1,-1.504050016E0,1.930950046E0,1.023705006E1
3.186752216E1,-1.608000040E0,1.930950046E0,1.014000034E1
3.188752216E1,-2.440050125E0,1.896000147E0,1.007100010E1
3.190752216E1,-2.461950064E0,1.888950109E0,9.948000908E0
3.192752216E1,-2.478000164E0,1.900050044E0,9.091050148E0
3.194752216E1,-2.430000067E0,1.914000034E0,8.979000092E0
3.196752216E1,-2.362050056E0,1.984050035E0,8.893050194E0
3.198752216E1,-2.260050058E0,2.097000122E0,8.752950668E0
3.200752216E1,-2.164950132E0,2.211000204E0,8.023050308E0
3.202752216E1,-2.056950092E0,3.031950235E0,7.996950150E0
3.204752216E1,-1.338000059E0,2.992050171E0,8.089050293E0
3.206752216E1,-1.386000037E0,2.950050116E0,8.875050545E0
3.208752216E1,-1.396950126E0,2.934000254E0,8.971050262E0
3.210752216E1,-1.326000094E0,2.928000212E0,9.024000168E0
3.212752216E1,-1.263000011E0,2.940000057E0,9.060000420E0
3.214752216E1,-1.215000033E0,2.959050179E0,9.130050659E0
3.216752216E1,-1.180050015E0,2.980950117E0,9.225000381E0
3.218752216E1,-1.108050108E0,3.010050058E0,9.256950378E0
3.220752216E1,-1.012950063E0,3.076950073E0,9.301050186E0
3.222752216E1,-8.989500403E-1,3.130050182E0,8.428950310E0
3.224752216E1,-8.299500346E-1,3.238950253E0,9.226050377E0
3.226752216E1,-7.500000596E-1,3.322950125E0,9.238950729E0
3.228752216E1,-6.390000582E-1,3.420000076E0,9.256950378E0
3.230752216E1,-5.400000215E-1,3.559950113E0,9.258000374E0
3.232752216E1,-4.770000279E-1,3.694950104E0,9.214050293E0
3.238293705E1,-4.540500343E-1,3.685050249E0,9.544050217E0
3.240293705E1,-1.153950095E0,3.604950190E0,9.592950821E0
3.242293705E1,-1.041000009E0,3.550950050E0,9.673050880E0
3.244293705E1,-9.780000448E-1,3.589950085E0,9.687000275E0
3.246293705E1,-9.780000448E-1,3.706050158E0,9.661050797E0
3.248293705E1,-1.012950063E0,4.494000435E0,9.601050377E0
3.250293705E1,-1.069950104E0,4.486050129E0,9.606000900E0
3.252293705E1,-1.207950115E0,4.531050205E0,9.642000198E0
3.254293705E1,-1.989000082E0,4.494000435E0,9.693000793E0
3.256293705E1,-1.956000090E0,3.754050255E0,1.051200008E1
3.258293705E1,-1.944000125E0,3.699000120E0,1.053300095E1
3.260293705E1,-1.936950088E0,3.685950279E0,1.039995003E1
3.262293705E1,-2.022000074E0,3.721950293E0,1.024905014E1
3.264293705E1,-2.080950022E0,3.750000238E0,1.016595078E1
3.266293705E1,-2.148000002E0,3.850050211E0,1.009905052E1
3.268293705E1,-2.211000204E0,3.892950296E0,9.960000038E0
3.270293705E1,-2.307000160E0,4.032000065E0,8.494050026E0
3.272293705E1,-3.121050119E0,4.144950390E0,8.443950653E0
3.274293705E1,-4.875000000E0,4.990050316E0,1.011900043E1
3.276293705E1,-6.430050373E0,6.028950214E0,1.171605015E1
3.278293705E1,-5.677950382E0,6.046950340E0,1.171695042E1
3.280293705E1,-4.720950127E0,5.239050388E0,1.086105061E1
3.282293705E1,-3.084000111E0,4.501950264E0,1.012200069E1
3.284293705E1,-2.244000196E0,4.389000416E0,1.007295036E1
3.286293705E1,-4.309500158E-1,3.555000067E0,9.118050575E0
3.288293705E1,4.420500100E-1,3.472950220E0,9.054000854E0
3.290293705E1,4.920000136E-1,3.400950193E0,9.042000771E0
3.292293705E1,5.479500294E-1,3.397950172E0,9.079950333E0
3.294293705E1,6.619500518E-1,3.358950138E0,9.211950302E0
3.296293705E1,7.410000563E-1,3.376050234E0,9.342000008E0
3.298293705E1,7.380000353E-1,3.436050177E0,1.006800079E1
3.300293705E1,6.990000606E-1,3.517950058E0,1.081995010E1
3.302293705E1,6.619500518E-1,4.441950321E0,1.077900028E1
3.304293705E1,5.359500051E-1,4.444050312E0,1.082400036E1
3.306293705E1,4.669500291E-1,4.416000366E0,1.165995026E1
3.308293705E1,4.369500279E-1,4.309950352E0,1.239195061E1
3.310293705E1,3.679500222E-1,3.550050259E0,1.248195076E1
3.312293705E1,2.470500171E-1,3.631050110E0,1.258800030E1
3.314293705E1,-5.200500488E-1,3.751050234E0,1.179600048E1
3.316293705E1,-6.220500469E-1,4.492050171E0,1.100505066E1
3.318293705E1,-6.259500384E-1,4.437000275E0,1.106100082E1
3.320293705E1,-5.419500470E-1,2.913000107E0,1.188000011E1
3.322293705E1,-4.750500321E-1,1.885050058E0,1.268700027E1
3.324293705E1,-4.110000134E-1,1.780050039E0,1.266000080E1
3.326293705E1,-4.020000100E-1,1.807050109E0,1.254300022E1
3.328293705E1,-4.579500258E-1,1.854000092E0,1.178505039E1
3.330293705E1,-4.860000312E-1,1.951050043E0,1.171395016E1
3.332293705E1,-5.670000315E-1,2.055000067E0,1.090695095E1
3.334293705E1,-5.980500579E-1,2.131950140E0,1.009905052E1
3.336293705E1,-5.269500017E-1,2.185950041E0,9.310050011E0
3.338293705E1,-4.380000234E-1,2.230050087E0,9.249000549E0
3.340293705E1,-3.880500197E-1,2.271000147E0,8.476950645E0
3.342293705E1,-3.330000043E-1,2.310000181E0,8.460000038E0
3.344293705E1,-2.569500208E-1,2.413050175E0,8.416950226E0
3.346293705E1,-1.699500084E-1,2.548050165E0,8.323950768E0
3.348293705E1,-1.039500013E-1,3.237000227E0,8.170050621E0
3.350293705E1,-3.900000080E-2,3.258000135E0,8.152950287E0
3.352293705E1,4.800000042E-2,3.238050222E0,8.262000084E0
3.354293705E1,8.100000024E-2,3.220050097E0,9.112050056E0
3.356293705E1,1.009500027E-1,3.177000046E0,9.091050148E0
3.358293705E1,7.095000148E-2,3.222000122E0,9.048000336E0
3.360293705E1,4.005000368E-2,3.339000225E0,9.100950241E0
3.362293705E1,2.895000204E-2,4.240950108E0,9.919950485E0
3.364293705E1,2.895000204E-2,4.279950142E0,9.934950829E0
3.366293705E1,3.105000220E-2,4.390950203E0,1.002900028E1
3.368293705E1,-1.500000060E-2,4.525050163E0,1.164405060E1
3.370293705E1,-7.304999977E-2,4.675050259E0,1.253505039E1
3.372293705E1,-2.029500157E-1,4.736999989E0,1.333695030E1
3.374293705E1,-3.229500055E-1,4.686000347E0,1.413900089E1
3.376293705E1,-3.940500319E-1,4.651050091E0,1.405905056E1
3.378293705E1,-1.260000110E0,4.565999985E0,1.225800037E1
3.380293705E1,-1.311000109E0,4.420950413E0,1.060995007E1
3.382293705E1,-1.282050014E0,3.694050074E0,9.784050941E0
3.384293705E1,-2.101050138E0,3.661950111E0,9.784950256E0
3.386293705E1,-2.905950069E0,3.571950197E0,1.075395012E1
3.388293705E1,-2.889000177E0,3.505050182E0,1.159095097E1
3.390293705E1,-2.812950134E0,3.427950144E0,1.064505005E1
3.392293705E1,-2.005950212E0,3.361950159E0,9.832950592E0
3.394293705E1,-1.927050114E0,3.316950083E0,8.968950272E0
3.396293705E1,-1.860000134E0,3.310950041E0,9.030000687E0
3.398293705E1,-1.753950119E0,3.291000128E0,9.070050240E0
3.400293705E1,-9.469500184E-1,3.205950260E0,9.070050240E0
3.402293705E1,-8.620500565E-1,3.109050035E0,8.973000526E0
3.404293705E1,-7.810500264E-1,3.097050190E0,8.179950714E0
3.406293705E1,-6.919500232E-1,3.148050070E0,8.083950043E0
3.408293705E1,-6.070500016E-1,3.934050083E0,8.037000656E0
3.410293705E1,-5.509500504E-1,3.942000151E0,7.996050358E0
3.412293705E1,-5.590500236E-1,3.976950169E0,7.996950150E0
3.414293705E1,-5.860500336E-1,4.078050137E0,8.784000397E0
3.416293705E1,-6.460500360E-1,4.190999985E0,8.755949974E0
3.418293705E1,-6.810000539E-1,4.256999969E0,8.737950325E0
3.420293705E1,-7.020000219E-1,4.360050201E0,8.812950134E0
3.422293705E1,-7.530000210E-1,4.486950397E0,9.759000778E0
3.424293705E1,-8.430000544E-1,4.567049980E0,1.070205021E1
3.426293705E1,-9.330000281E-1,4.644000053E0,1.083105087E1
3.428293705E1,-9.610500336E-1,4.687050343E0,1.156605053E1
3.430293705E1,-9.469500184E-1,4.626000404E0,1.237605095E1
3.432293705E1,-9.400500655E-1,3.880050182E0,1.249305058E1
3.434293705E1,-8.620500565E-1,3.982950211E0,1.253895092E1
3.436293705E1,-8.359500170E-1,4.822950363E0,1.157295036E1
3.438293705E1,-1.630050063E0,4.957950115E0,1.071600056E1
3.440293705E1,-8.260500431E-1,5.005050182E0,1.077000046E1
3.442293705E1,-7.300500274E-1,4.221000195E0,1.084995079E1
3.444293705E1,-5.929500461E-1,3.297000170E0,1.082700062E1
3.446293705E1,-4.399500191E-1,2.518950224E0,9.922050476E0
3.448293705E1,3.570000231E-1,2.506950140E0,9.838950157E0
3.450293705E1,4.069500268E-1,2.529000044E0,9.769050598E0
3.452293705E1,3.619500101E-1,2.529000044E0,9.880950928E0
3.454293705E1,3.060000241E-1,2.523000002E0,1.063305092E1
3.456293705E1,2.430000156E-1,2.485950232E0,9.871950150E0
3.458293705E1,1.870500147E-1,2.500950098E0,8.956950188E0
3.460293705E1,1.099500060E-1,2.614950180E0,8.905050278E0
3.462293705E1,-4.950000439E-3,3.472950220E0,8.941050529E0
3.464293705E1,-7.800000161E-2,3.456000090E0,9.016050339E0
3.466293705E1,-8.100000024E-2,3.447000265E0,8.953950882E0
3.468293705E1,-1.500000060E-2,3.427950144E0,8.107950211E0
3.470293705E1,9.600000083E-2,3.388950109E0,8.190000534E0
3.472293705E1,2.050500065E-1,3.360000134E0,8.251049995E0
3.474293705E1,2.790000141E-1,3.318000078E0,8.971950531E0
3.476293705E1,3.109500110E-1,3.343950272E0,8.953050613E0
3.478293705E1,3.400500119E-1,3.379950047E0,9.032999992E0
3.480293705E1,3.580500185E-1,4.168950081E0,9.088050842E0
3.482293705E1,3.859500289E-1,4.186950207E0,9.183000565E0
3.484293705E1,3.700500131E-1,4.135950089E0,9.997050285E0
3.486293705E1,3.859500289E-1,4.063950062E0,1.086600018E1
3.488293705E1,3.799500167E-1,4.006950378E0,1.166295052E1
3.490293705E1,3.480000198E-1,3.982950211E0,1.177695084E1
3.492293705E1,3.289500177E-1,3.994950294E0,1.188795090E1
3.494293705E1,2.760000229E-1,4.071000099E0,1.195995045E1
3.496293705E1,1.570500135E-1,4.153950214E0,1.281495094E1
3.498293705E1,5.295000225E-2,4.216950417E0,1.287795067E1
3.500293705E1,-1.039500013E-1,4.111050129E0,1.198605061E1
3.502293705E1,-8.389500380E-1,3.405000210E0,1.123500061E1
3.504293705E1,-1.720050097E0,3.310950041E0,1.203300095E1
3.506293705E1,-1.747050047E0,3.168000221E0,1.207800102E1
3.508293705E1,-1.734000087E0,3.058050156E0,1.125000095E1
3.510293705E1,-1.641000032E0,2.995050192E0,1.044405079E1
3.512293705E1,-1.539000034E0,2.943000078E0,9.735000610E0
3.514293705E1,-1.488000035E0,2.820000172E0,9.805950165E0
3.516293705E1,-1.420050025E0,2.688000202E0,1.055895042E1
3.518293705E1,-1.321950078E0,2.557950020E0,1.047300053E1
3.520293705E1,-1.240950108E0,2.503950119E0,9.691950798E0
3.522293705E1,-1.159950018E0,2.512950182E0,8.908950806E0
3.524293705E1,-1.036949992E0,2.602050066E0,8.880000114E0
3.526293705E1,-2.290500104E-1,2.721000195E0,8.815050125E0
3.528293705E1,-2.479500175E-1,2.848050117E0,8.688000679E0
3.530293705E1,-2.449500114E-1,2.967000246E0,7.797000408E0
3.532293705E1,-2.170500159E-1,3.075000048E0,7.837950230E0
3.534293705E1,-1.960500032E-1,3.216000080E0,7.908000469E0
3.536293705E1,-2.029500157E-1,3.334050179E0,8.701050758E0
3.538293705E1,-2.590500116E-1,3.451050282E0,9.559950829E0
3.540293705E1,-2.989500165E-1,3.574050188E0,9.586050034E0
3.542293705E1,-2.749500275E-1,3.661050081E0,9.544050217E0
3.544293705E1,-2.449500114E-1,3.762000084E0,9.522000313E0
3.546293705E1,-2.670000196E-1,3.910050154E0,9.541050911E0
3.548293705E1,-3.040500283E-1,4.639950275E0,9.628050804E0
3.550293705E1,-3.499500155E-1,4.669050217E0,9.706050873E0
3.552293705E1,-4.230000079E-1,4.723950386E0,1.053405094E1
3.554293705E1,-5.389500260E-1,4.801950455E0,1.062705040E1
3.556293705E1,-6.289500594E-1,4.890000343E0,1.147695065E1
3.558293705E1,-6.460500360E-1,4.917000294E0,1.224405098E1
3.560293705E1,-6.450000405E-1,4.996050358E0,1.234200096E1
3.562293705E1,-7.120500207E-1,5.044050217E0,1.237800026E1
3.564293705E1,-7.630500197E-1,5.083050251E0,1.238205051E1
3.566293705E1,-6.439500451E-1,4.248000145E0,1.242600060E1
3.568293705E1,-5.130000114E-1,2.755950212E0,1.244595051E1
3.570293705E1,3.010500073E-1,1.933950067E0,1.159095097E1
3.572293705E1,4.320000112E-1,1.978950143E0,9.876000404E0
3.574293705E1,5.530500412E-1,2.086050034E0,9.085050583E0
3.576293705E1,1.276950002E0,2.848050117E0,9.109950066E0
3.578293705E1,1.239000082E0,2.947950125E0,9.178050041E0
3.580293705E1,1.126950026E0,3.718950272E0,9.150000572E0
3.582293705E1,3.210000098E-1,3.715050220E0,8.400000572E0
3.584293705E1,2.760000229E-1,3.663000107E0,8.485050201E0
3.586293705E1,2.260500044E-1,3.568950176E0,8.575950623E0
3.588293705E1,1.699500084E-1,2.848050117E0,8.698950768E0
3.590293705E1,1.660500020E-1,2.830050230E0,8.793000221E0
3.592293705E1,1.450500041E-1,2.898000240E0,8.690999985E0
3.594293705E1,1.620000005E-1,3.034950256E0,7.950000286E0
3.596293705E1,2.239500135E-1,3.148950100E0,7.876950264E0
3.598293705E1,3.520500064E-1,3.237000227E0,7.936050415E0
3.600293705E1,4.450500309E-1,3.327000141E0,8.743950844E0
3.602293705E1,5.239500403E-1,3.400950193E0,9.579000473E0
3.604293705E1,5.260500312E-1,4.254000187E0,9.646050453E0
3.606293705E1,5.029500127E-1,4.264050007E0,9.748050690E0
3.608293705E1,4.129500091E-1,4.234050274E0,1.132095051E1
3.610293705E1,3.270000219E-1,4.207050323E0,1.216200066E1
3.612293705E1,2.539499998E-1,4.111950397E0,1.295595074E1
3.614293705E1,1.800000072E-1,4.018949986E0,1.307400036E1
3.616293705E1,1.350000054E-1,3.966000080E0,1.319805050E1
3.618293705E1,4.305000231E-2,4.096050262E0,1.229595089E1
3.620293705E1,-9.400500655E-1,4.125000000E0,1.215300083E1
3.622293705E1,-1.012950063E0,3.247950077E0,1.214700031E1
3.624293705E1,-1.033950090E0,2.490000010E0,1.225905037E1
3.626293705E1,-1.069950104E0,2.380950212E0,1.231695080E1
3.628293705E1,-1.153050065E0,2.365950108E0,1.074300098E1
3.630293705E1,-1.234050035E0,2.458950043E0,9.883050919E0
3.632293705E1,-1.276950002E0,2.587050200E0,9.166050911E0
3.634293705E1,-1.306050062E0,2.632050037E0,9.225000381E0
3.636293705E1,-1.209000111E0,2.574000120E0,9.286050797E0
3.638293705E1,-5.760000348E-1,2.547000170E0,9.238950729E0
3.640293705E1,-6.400500536E-1,2.574000120E0,8.461050034E0
3.642293705E1,-6.559500098E-1,2.688000202E0,8.400000572E0
3.644293705E1,-5.899500251E-1,3.478050232E0,8.353050232E0
3.646293705E1,-5.820000172E-1,3.493050098E0,8.368050575E0
3.648293705E1,-5.800500512E-1,3.504000187E0,8.419950485E0
3.650293705E1,-4.789500237E-1,3.478050232E0,8.445000648E0
3.652293705E1,-3.960000277E-1,3.475050211E0,8.377950668E0
3.654293705E1,-3.589500189E-1,3.580950260E0,8.262000084E0
3.656293705E1,-3.679500222E-1,4.365000248E0,8.310000420E0
3.658293705E1,-4.500000179E-1,4.446000099E0,9.205050468E0
3.660293705E1,-4.999500215E-1,4.449000359E0,9.304950714E0
3.662293705E1,-4.830000103E-1,4.450950146E0,9.393000603E0
3.664293705E1,-4.860000312E-1,4.486050129E0,9.469050407E0
3.666293705E1,-5.850000381E-1,4.531949997E0,1.034595013E1
3.668293705E1,-6.540000439E-1,4.522050381E0,1.113795090E1
3.670293705E1,-6.810000539E-1,4.432950020E0,1.198695087E1
3.672293705E1,-6.390000582E-1,3.709050179E0,1.279005051E1
3.674293705E1,-5.710500479E-1,3.771000147E0,1.287705040E1
3.676293705E1,-5.380499959E-1,4.602000237E0,1.210005093E1
3.678293705E1,-6.559500098E-1,5.377950191E0,1.197000027E1
3.680293705E1,-6.919500232E-1,5.422050476E0,1.188900089E1
3.682293705E1,-5.779500008E-1,4.536000252E0,1.182405090E1
3.684293705E1,-4.750500321E-1,2.986050129E0,1.175595093E1
3.686293705E1,3.190500140E-1,2.193000078E0,1.162800026E1
3.688293705E1,4.549500346E-1,2.194050074E0,1.001100063E1
3.690293705E1,1.239000082E0,2.224050045E0,9.019950867E0
3.692293705E1,1.164000034E0,2.340000153E0,9.088950157E0
3.694293705E1,1.024049997E0,2.473050117E0,9.846000671E0
3.696293705E1,9.409500360E-1,2.512950182E0,9.849000931E0
3.698293705E1,8.670000434E-1,2.470050097E0,9.777000427E0
3.700293705E1,7.990500331E-1,2.463000059E0,8.880000114E0
3.702293705E1,6.630000472E-1,2.550000191E0,8.817000389E0
3.704293705E1,5.539500117E-1,3.346950054E0,8.712000847E0
3.706293705E1,4.669500291E-1,3.406050205E0,7.974000454E0
3.708293705E1,4.770000279E-1,3.444000244E0,7.884000301E0
3.710293705E1,5.050500035E-1,3.426000118E0,7.875000477E0
3.712293705E1,6.010500193E-1,3.418050051E0,7.960950375E0
3.714293705E1,7.099500299E-1,3.433050156E0,8.053050041E0
3.716293705E1,7.150500417E-1,3.492000103E0,8.905950546E0
3.718293705E1,7.300500274E-1,3.579000235E0,8.968950272E0
3.720293705E1,7.530000210E-1,3.634050131E0,9.816000938E0
3.722293705E1,7.069500089E-1,3.682950258E0,9.922050476E0
3.724293705E1,6.619500518E-1,3.721950293E0,1.067505074E1
3.726293705E1,6.049500108E-1,3.757950068E0,1.079505062E1
3.728293705E1,5.389500260E-1,3.793050289E0,1.158705044E1
3.730293705E1,4.339500070E-1,3.865950108E0,1.169295025E1
3.732293705E1,3.100500107E-1,3.900000095E0,1.242705059E1
3.734293705E1,-5.629500151E-1,3.918000221E0,1.248000050E1
3.736293705E1,-5.119500160E-1,3.835950136E0,1.258095074E1
3.738293705E1,-4.690500200E-1,3.813000202E0,1.259205055E1
3.740293705E1,-1.359000087E0,3.754950285E0,1.244205093E1
3.742293705E1,-1.435950041E0,3.684000254E0,1.165305042E1
3.744293705E1,-2.317950010E0,3.622050285E0,1.166295052E1
3.746293705E1,-2.329950094E0,2.808000088E0,1.171500015E1
3.748293705E1,-2.298000097E0,2.802000046E0,1.171500015E1
3.750293705E1,-2.254050016E0,2.773950100E0,1.081905079E1
3.752293705E1,-2.235000134E0,2.731950045E0,1.070205021E1
3.754293705E1,-2.221950054E0,2.664000034E0,1.059195042E1
3.756293705E1,-2.151000023E0,2.575950146E0,9.727050781E0
3.758293705E1,-2.082000017E0,2.515050173E0,9.657000542E0
3.760293705E1,-1.960050106E0,2.442000151E0,8.809050560E0
3.762293705E1,-1.051050067E0,2.415000200E0,8.740950584E0
3.764293705E1,-1.090950012E0,2.448000193E0,8.652000427E0
3.766293705E1,-1.098000050E0,2.521950006E0,8.539050102E0
3.768293705E1,-1.072050095E0,2.599950075E0,7.629000187E0
3.770293705E1,-1.029000044E0,2.665950060E0,7.558050156E0
3.772293705E1,-9.589500427E-1,2.728950024E0,6.808950424E0
3.774293705E1,-9.610500336E-1,2.758950233E0,6.922050476E0
3.776293705E1,-8.820000291E-1,2.794050217E0,7.816050529E0
3.778293705E1,-8.700000644E-1,2.820000172E0,9.412050247E0
3.780293705E1,-8.269500136E-1,2.901000023E0,9.556050301E0
3.782293705E1,-7.759500146E-1,3.714000225E0,9.669000626E0
3.784293705E1,-7.990500331E-1,3.700950146E0,1.055895042E1
3.786293705E1,-7.350000143E-1,3.697050095E0,1.142295074E1
3.788293705E1,-6.790500283E-1,3.619950056E0,1.290900040E1
3.790293705E1,-6.139500141E-1,3.483000278E0,1.295295048E1
3.792293705E1,-5.440500379E-1,3.361950159E0,1.302000046E1
3.794293705E1,-4.860000312E-1,3.234000206E0,1.308000088E1
3.796293705E1,-4.189500213E-1,3.214950085E0,1.305705070E1
3.798293705E1,-3.760500252E-1,3.277050257E0,1.215000057E1
3.800293705E1,-3.540000021E-1,3.367950201E0,1.136400032E1
3.802293705E1,-3.499500155E-1,3.375000238E0,1.135905075E1
3.804293705E1,-4.350000322E-1,2.512950182E0,1.219905090E1
3.806293705E1,-5.059500337E-1,2.383949995E0,1.226895046E1
3.808293705E1,-4.300500154E-1,1.504950047E0,1.239495087E1
3.810293705E1,-3.199500144E-1,1.420950055E0,1.159500027E1
3.812293705E1,-2.329500169E-1,1.425000072E0,1.078995037E1
3.814293705E1,-1.489500105E-1,1.473000050E0,1.006200027E1
3.816293705E1,-1.170000061E-1,1.555050015E0,9.994950294E0
3.818293705E1,-1.030500084E-1,1.651950121E0,9.201000214E0
3.820293705E1,-1.080000028E-1,1.711050034E0,9.070050240E0
3.822293705E1,-9.795000404E-2,1.743000031E0,8.968950272E0
3.824293705E1,-7.905000448E-2,1.824000120E0,8.866050720E0
3.826293705E1,-5.505000427E-2,1.918050051E0,8.766000748E0
3.828293705E1,-6.900000572E-2,2.662050009E0,8.752950668E0
3.830293705E1,-9.105000645E-2,2.665050030E0,8.800050735E0
3.832293705E1,-7.395000011E-2,2.646000147E0,8.878050804E0
3.834293705E1,-8.505000174E-2,2.644050121E0,8.989050865E0
3.836293705E1,-9.795000404E-2,2.646000147E0,9.120000839E0
3.838293705E1,-9.795000404E-2,2.686950207E0,9.192000389E0
3.840293705E1,-9.300000221E-2,2.725050211E0,9.324000359E0
3.842293705E1,-1.180500090E-1,2.740050077E0,1.083600044E1
3.844293705E1,-1.230000034E-1,2.715000153E0,1.091805077E1
3.846293705E1,-1.240500063E-1,2.713950157E0,1.104495049E1
3.848293705E1,-1.480500102E-1,2.790000200E0,1.111500072E1
3.850293705E1,-1.969500035E-1,2.881050110E0,1.113195038E1
3.852293705E1,-2.760000229E-1,2.878050089E0,1.194000053E1
3.854293705E1,-3.310500085E-1,2.818950176E0,1.281300068E1
3.856293705E1,-4.360500276E-1,2.704950094E0,1.291395092E1
3.858293705E1,-1.263000011E0,2.592000008E0,1.376805019E1
3.860293705E1,-2.008949995E0,2.559000015E0,1.365705109E1
3.862293705E1,-2.122950077E0,2.491050005E0,1.220700073E1
3.864293705E1,-2.992950201E0,2.385000229E0,1.227000046E1
3.866293705E1,-3.004050255E0,2.278050184E0,1.300905037E1
3.868293705E1,-3.058050156E0,2.227050066E0,1.213200092E1
3.870293705E1,-3.141000032E0,2.253000021E0,1.059495068E1
3.872293705E1,-3.112050056E0,2.233950138E0,8.955000877E0
3.874293705E1,-2.286000013E0,2.194050074E0,8.166000366E0
3.876293705E1,-2.194050074E0,2.115000010E0,8.113950729E0
3.878293705E1,-2.095950127E0,2.055000067E0,8.110950470E0
3.880293705E1,-1.960050106E0,1.992000103E0,8.143950462E0
3.882293705E1,-1.108950019E0,1.948050141E0,8.074950218E0
3.884293705E1,-3.370500207E-1,1.971000075E0,7.972950459E0
3.886293705E1,-3.340500295E-1,2.044950008E0,7.903950214E0
3.888293705E1,-3.820500076E-1,2.167950153E0,7.840050220E0
3.890293705E1,-4.720500112E-1,2.982000113E0,7.800000191E0
3.892293705E1,-5.260500312E-1,3.030000210E0,7.794000149E0
3.894293705E1,-6.570000052E-1,3.105000257E0,7.869000435E0
3.896293705E1,-7.249500155E-1,3.232950211E0,7.996950150E0
3.898293705E1,-7.750500441E-1,4.080000401E0,8.787000656E0
3.900293705E1,-8.370000124E-1,4.128000259E0,9.592950821E0
3.902293705E1,-8.809500337E-1,4.111950397E0,1.046595097E1
3.904293705E1,-8.850000501E-1,4.077000141E0,1.129800034E1
3.906293705E1,-8.080500364E-1,4.144050121E0,1.217895031E1
3.908293705E1,-7.710000277E-1,4.255949974E0,1.219905090E1
3.910293705E1,-7.870500088E-1,4.315950394E0,1.228095055E1
3.912293705E1,-7.429500222E-1,4.299000263E0,1.313895035E1
3.914293705E1,-7.150500417E-1,4.216950417E0,1.384605026E1
3.916293705E1,-7.440000176E-1,4.150950432E0,1.376400089E1
3.918293705E1,-1.468050122E0,4.140000343E0,1.364505100E1
3.920293705E1,-1.419000030E0,4.197000027E0,1.267605019E1
3.922293705E1,-1.426950097E0,4.270050049E0,1.189095020E1
3.924293705E1,-1.336950064E0,4.279050350E0,1.113900089E1
3.926293705E1,-1.282050014E0,3.486000061E0,1.192800045E1
3.928293705E1,-1.288950086E0,2.605050087E0,1.188600063E1
3.930293705E1,-1.254000068E0,2.493000031E0,1.097100067E1
3.932293705E1,-4.819500148E-1,1.785000086E0,1.017705059E1
3.934293705E1,-3.750000298E-1,1.933950067E0,8.703000069E0
3.936293705E1,-3.139500022E-1,2.707950115E0,8.656050682E0
3.938293705E1,-2.580000162E-1,2.755950212E0,8.667000771E0
3.940293705E1,-2.089500129E-1,2.733000040E0,8.667000771E0
3.942293705E1,-1.429500133E-1,2.671950102E0,8.629950523E0
3.944293705E1,-7.095000148E-2,2.538000107E0,8.512050629E0
3.946293705E1,-7.050000131E-3,2.415000200E0,7.834950447E0
3.948293705E1,3.195000067E-2,2.359050035E0,7.879950523E0
3.950293705E1,5.595000088E-2,2.416950226E0,7.828950405E0
3.952293705E1,1.240500063E-1,2.512950182E0,7.732950211E0
3.954293705E1,2.359500080E-1,2.629050016E0,7.593000412E0
3.956293705E1,3.460500240E-1,3.519000053E0,6.771000385E0
3.958293705E1,3.919500113E-1,3.541050196E0,6.820050240E0
3.960293705E1,4.330500066E-1,3.649950266E0,7.579050541E0
3.962293705E1,4.270500243E-1,3.799050093E0,8.463000298E0
3.964293705E1,3.970500231E-1,3.931050301E0,9.297000885E0
3.966293705E1,3.499500155E-1,4.036950111E0,1.005105019E1
3.968293705E1,2.890500128E-1,4.023000240E0,1.098105049E1
3.970293705E1,2.359500080E-1,3.982950211E0,1.260795021E1
3.972293705E1,1.330500096E-1,3.847950220E0,1.360800076E1
3.974293705E1,-7.320000529E-1,3.139050245E0,1.455705070E1
3.976293705E1,-1.627950072E0,3.064050198E0,1.563600063E1
3.978293705E1,-1.738050103E0,3.001050234E0,1.566000080E1
3.980293705E1,-1.756050110E0,2.974950075E0,1.367400074E1
3.982293705E1,-1.819050074E0,3.784950256E0,1.198995018E1
3.984293705E1,-1.884000063E0,3.819000244E0,1.042095089E1
3.986293705E1,-1.950000048E0,3.763050079E0,1.028895092E1
3.988293705E1,-2.703000069E0,2.950050116E0,1.117905045E1
3.990293705E1,-2.739000082E0,2.884050131E0,1.204500103E1
3.992293705E1,-2.791050196E0,2.779050112E0,1.207695103E1
3.994293705E1,-2.838000059E0,2.691000223E0,1.124205017E1
3.996293705E1,-2.881950140E0,2.623050213E0,1.115895081E1
3.998293705E1,-2.920950174E0,2.548950195E0,1.105500031E1
4.000293705E1,-2.955000162E0,2.488950014E0,9.550950050E0
4.002293705E1,-2.935050249E0,2.511000156E0,8.661000252E0
4.004293705E1,-2.821950197E0,2.613000154E0,7.824000359E0
4.006293705E1,-1.932000041E0,2.692950010E0,6.946050167E0
4.008293705E1,-1.846050143E0,2.769000053E0,6.994050503E0
4.010293705E1,-8.590500355E-1,2.827950239E0,7.080000401E0
4.012293705E1,-8.050500154E-1,2.896950245E0,7.117050171E0
4.014293705E1,-6.880500317E-1,2.955000162E0,7.222950459E0
4.016293705E1,-5.850000381E-1,3.019050121E0,7.336950302E0
4.018293705E1,-4.690500200E-1,3.096000195E0,7.372950554E0
4.020293705E1,-3.690000176E-1,3.187950134E0,8.182950020E0
4.022293705E1,-2.939999998E-1,3.297000170E0,8.250000000E0
4.024293705E1,-2.509500086E-1,4.129950047E0,8.224050522E0
4.026293705E1,-2.080500126E-1,4.132050037E0,8.187000275E0
4.028293705E1,-1.990500093E-1,4.185000420E0,9.115950584E0
4.030293705E1,-2.070000172E-1,4.198050022E0,9.997950554E0
4.032293705E1,-2.149500102E-1,4.231950283E0,1.008495045E1
4.034293705E1,-2.899500132E-1,4.276950359E0,1.116495037E1
4.036293705E1,-4.210500121E-1,4.291050434E0,1.125600052E1
4.038293705E1,-1.141950011E0,4.306050301E0,1.217295074E1
4.040293705E1,-1.225950003E0,4.311000347E0,1.228695011E1
4.042293705E1,-1.288050056E0,4.269000053E0,1.231500053E1
4.044293705E1,-1.339950085E0,4.182000160E0,1.222500038E1
4.046293705E1,-1.392000079E0,4.161000252E0,1.219395065E1
4.048293705E1,-1.477050066E0,4.261950016E0,1.214805031E1
4.050293705E1,-2.238000154E0,4.287000179E0,1.221795082E1
4.052293705E1,-2.131950140E0,3.424950123E0,1.304505062E1
4.054293705E1,-2.056050062E0,2.598000050E0,1.318800068E1
4.056293705E1,-1.969050050E0,1.788000107E0,1.320600033E1
4.058293705E1,-1.113000035E0,1.737000108E0,1.171800041E1
4.060293705E1,-2.970000207E-1,1.756950140E0,9.979050636E0
4.062293705E1,-2.659500241E-1,1.872000098E0,9.928950310E0
4.064293705E1,-2.520000041E-1,1.954050064E0,9.984000206E0
4.066293705E1,-2.269500047E-1,1.981950045E0,1.010400009E1
4.068293705E1,-1.560000032E-1,1.990950108E0,1.011000061E1
4.070293705E1,-5.805000290E-2,1.947000146E0,9.151950836E0
4.072293705E1,5.505000427E-2,1.905000091E0,8.400000572E0
4.074293705E1,1.469999999E-1,1.849950075E0,8.476950645E0
4.076293705E1,2.269500047E-1,1.870050073E0,9.298050880E0
4.078293705E1,3.190500140E-1,1.912050128E0,9.325050354E0
4.080293705E1,4.140000343E-1,1.990050077E0,9.220050812E0
4.082293705E1,4.909500182E-1,2.061000109E0,8.427000046E0
4.084293705E1,5.290500522E-1,2.152950048E0,7.675950527E0
4.086293705E1,5.749500394E-1,2.257950068E0,7.726050377E0
4.088293705E1,5.089499950E-1,2.355000019E0,8.512050629E0
4.090293705E1,4.669500291E-1,2.479050159E0,8.546999931E0
4.092293705E1,4.639500082E-1,3.316950083E0,8.568000793E0
4.094293705E1,4.129500091E-1,3.367950201E0,8.509950638E0
4.096293705E1,3.829500079E-1,3.394050121E0,9.400950432E0
4.098293705E1,3.660000265E-1,3.427050114E0,9.529050827E0
4.100293705E1,2.980500162E-1,3.469950199E0,1.037700081E1
4.102293705E1,2.380500138E-1,3.505950212E0,1.117995071E1
4.104293705E1,1.939500123E-1,3.484950066E0,1.192800045E1
4.106293705E1,1.380000114E-1,3.403050184E0,1.274595070E1
4.108293705E1,7.605000585E-2,3.301950216E0,1.363905048E1
4.110293705E1,-2.100000158E-2,3.178950071E0,1.372005081E1
4.112293705E1,-7.304999977E-2,3.085050106E0,1.382295036E1
4.114293705E1,-7.995000482E-2,3.078000069E0,1.381095028E1
4.116293705E1,-1.060500070E-1,3.180000067E0,1.226895046E1
4.118293705E1,-1.549500078E-1,3.226950169E0,1.149105072E1
4.120293705E1,-2.110500038E-1,2.434050083E0,1.251195049E1
4.122293705E1,-2.820000052E-1,1.600950122E0,1.340805054E1
4.124293705E1,-3.139500022E-1,1.528050065E0,1.341495037E1
4.126293705E1,-3.250500262E-1,1.506000042E0,1.173405075E1
4.128293705E1,-3.289500177E-1,1.581000090E0,9.978000641E0
4.130293705E1,-2.920500040E-1,1.639950037E0,9.915000916E0
4.132293705E1,-2.419500053E-1,1.606950045E0,9.925050735E0
4.134293705E1,-2.320500165E-1,1.497000098E0,1.003905010E1
4.136293705E1,-2.710500062E-1,1.386000037E0,1.067700005E1
4.138293705E1,-1.063950062E0,1.354050040E0,9.907050133E0
4.140293705E1,-1.116000056E0,1.402050018E0,9.769950867E0
4.142293705E1,-1.105949998E0,1.428000093E0,9.652950287E0
4.144293705E1,-1.051050067E0,1.429050088E0,8.944950104E0
4.146293705E1,-1.012950063E0,1.515000105E0,8.857950211E0
4.148293705E1,-9.840000272E-1,1.666950107E0,7.917000294E0
4.150293705E1,-9.829500318E-1,2.499000072E0,7.038000107E0
4.152293705E1,-3.292950153E0,5.031000137E0,1.048605061E1
4.154293705E1,-1.461000085E0,4.254000187E0,9.400950432E0
4.156293705E1,-4.420500100E-1,2.653950214E0,8.638950348E0
4.158293705E1,-3.810000122E-1,2.674950123E0,6.964950562E0
4.160293705E1,-1.204050064E0,2.796000242E0,6.999000549E0
4.162293705E1,-1.320000052E0,3.661950111E0,8.685000420E0
4.164293705E1,-1.309950113E0,3.580950260E0,9.546000481E0
4.166293705E1,-4.330500066E-1,2.887050152E0,9.646950722E0
4.168293705E1,-4.170000255E-1,2.926050186E0,9.592050552E0
4.170293705E1,-5.020500422E-1,3.736050129E0,9.487050056E0
4.172293705E1,-1.257000089E0,3.799050093E0,9.420000076E0
4.174293705E1,-1.323000073E0,3.880950212E0,9.537000656E0
4.176293705E1,-1.318950057E0,3.886050224E0,9.598950386E0
4.178293705E1,-1.258950114E0,3.949050188E0,6.850050449E0
4.180293705E1,-2.274000168E0,4.992000103E0,1.036200047E1
4.182293705E1,-1.344000101E0,3.220950127E0,1.161900043E1
4.184293705E1,-6.580500603E-1,3.214050055E0,1.087605095E1
