"Time (s)","Acceleration x (m/s^2)","Acceleration y (m/s^2)","Acceleration z (m/s^2)"
1.298073300E-2,9.326026440E-1,3.659822226E0,9.072985649E0
3.309088900E-2,8.781659007E-1,3.898506403E0,9.202198029E0
5.320099300E-2,5.700899959E-1,4.012763500E0,8.804988861E0
7.331109700E-2,5.419743061E-1,3.820739508E0,8.659625053E0
9.342125400E-2,3.960121572E-1,3.880560160E0,8.965906143E0
1.135313580E-1,4.737788737E-1,3.936791420E0,9.286544800E0
1.336414620E-1,5.808576941E-1,3.920041800E0,9.245866776E0
1.537516180E-1,7.250252366E-1,3.882952929E0,9.285347939E0
1.738617220E-1,7.501499057E-1,3.829712629E0,9.430113792E0
1.939718790E-1,4.719842672E-1,3.805186272E0,9.409774780E0
2.140819830E-1,2.452643216E-1,3.812962770E0,9.171091080E0
2.341920870E-1,2.829512656E-1,3.817748547E0,9.006584167E0
2.543022430E-1,3.631108403E-1,3.890131474E0,8.998807907E0
2.744123470E-1,3.649054468E-1,3.990629911E0,9.091529846E0
2.945225040E-1,4.378865361E-1,3.938585997E0,9.195617676E0
3.146326080E-1,5.395814776E-1,3.895515203E0,9.315856934E0
3.347427120E-1,5.282155871E-1,3.932604074E0,9.239884377E0
3.548528680E-1,4.785645306E-1,3.926621914E0,9.212367058E0
3.749629720E-1,5.222335458E-1,3.948157310E0,9.220742226E0
3.950731290E-1,4.881358147E-1,4.209573269E0,8.769695282E0
4.151832330E-1,5.599204898E-1,4.461417675E0,8.030911446E0
4.352933370E-1,6.251249313E-1,4.493122578E0,7.947162151E0
4.554034930E-1,5.922235847E-1,4.193421841E0,8.895915985E0
4.755135970E-1,5.312066078E-1,3.788436413E0,1.012941647E1
4.956237540E-1,4.713860750E-1,3.657429457E0,1.026580715E1
5.157338580E-1,3.738785386E-1,3.879363775E0,9.152546883E0
5.358440140E-1,4.965106845E-1,4.115056515E0,8.242675781E0
5.559541180E-1,8.081758618E-1,4.149752617E0,8.332406998E0
5.760642220E-1,8.548358679E-1,3.998406649E0,9.027522087E0
5.961743790E-1,4.378865361E-1,3.667598963E0,9.711270332E0
6.162844830E-1,-7.657032460E-2,3.390629768E0,1.002054310E1
6.363946390E-1,-3.637090325E-1,3.315854073E0,9.898509026E0
6.565047430E-1,-4.528416991E-1,3.350549936E0,9.584450722E0
6.766148990E-1,-3.355933726E-1,3.349951744E0,9.391230583E0
6.967250040E-1,-1.483550072E-1,3.400799274E0,9.460023880E0
7.168351080E-1,-9.571290575E-3,3.509672642E0,9.597013474E0
7.369452640E-1,-2.033899166E-2,3.558725595E0,9.425926208E0
7.570553680E-1,-1.369891018E-1,3.558725595E0,9.087940216E0
7.771655240E-1,-2.889333367E-1,3.694518089E0,8.860622406E0
7.972756290E-1,-3.625126183E-1,3.767499208E0,8.737990379E0
8.173857850E-1,-3.541377485E-1,3.630510092E0,8.913264275E0
8.374958890E-1,-2.667997181E-1,3.447459221E0,9.696315765E0
8.576060450E-1,-2.147558331E-1,3.316452265E0,1.022931671E1
8.777161490E-1,-3.397808075E-1,3.331407309E0,9.881160736E0
8.978263060E-1,-3.529413342E-1,3.437887907E0,9.148359299E0
9.179364100E-1,-2.165504545E-1,3.561716557E0,8.622536659E0
9.380465140E-1,-5.802594870E-2,3.628117323E0,8.660821915E0
9.581566700E-1,4.785645287E-3,3.593421459E0,9.131011009E0
9.782667740E-1,-1.226321608E-1,3.599403381E0,9.364311218E0
9.983769310E-1,-1.848455518E-1,3.632902861E0,9.208179474E0
1.018487035E0,-6.640082598E-2,3.648456335E0,9.058030128E0
1.038597191E0,9.152546525E-2,3.659822226E0,9.186644554E0
1.058707295E0,1.387837082E-1,3.638286829E0,9.476774216E0
1.078817452E0,1.351944804E-1,3.623929977E0,9.722636223E0
1.098927556E0,2.398804724E-1,3.600599766E0,9.658628464E0
1.119037712E0,3.930211067E-1,3.641277790E0,9.303294182E0
1.139147816E0,5.641079545E-1,3.751945972E0,8.974281311E0
1.159257972E0,7.483552694E-1,3.811766386E0,8.863015175E0
1.179368077E0,9.170492887E-1,3.845266104E0,8.847461700E0
1.199478233E0,9.607182741E-1,3.880560160E0,8.834300995E0
1.219588337E0,7.453642488E-1,3.865006685E0,8.937790871E0
1.239698493E0,4.929214716E-1,3.862015724E0,9.141778946E0
1.259808597E0,4.414757788E-1,3.848257065E0,9.141180992E0
1.279918754E0,5.569294691E-1,3.836292982E0,9.031708717E0
1.300028858E0,5.754738450E-1,3.909274101E0,8.973084450E0
1.320139014E0,4.791627228E-1,3.997808456E0,8.924630165E0
1.340249118E0,4.971089065E-1,3.948755503E0,9.016754150E0
1.360359222E0,4.588237405E-1,3.939782381E0,9.260223389E0
1.380469379E0,3.493520916E-1,3.923032761E0,9.392427444E0
1.400579535E0,3.738785386E-1,3.791427374E0,9.413962364E0
1.420689639E0,4.390829504E-1,3.697509289E0,9.524630547E0
1.440799795E0,3.391826153E-1,3.682554007E0,9.372686386E0
1.460909899E0,1.639083475E-1,3.679563046E0,9.081958771E0
1.481020004E0,1.040877849E-1,3.713660717E0,8.877371788E0
1.501130160E0,7.956135273E-2,3.787838221E0,8.965308189E0
1.521240264E0,1.465603858E-1,3.790829182E0,9.244669914E0
1.541350420E0,2.859423161E-1,3.816552162E0,9.250054359E0
1.561460577E0,3.637090325E-1,3.906881094E0,9.105288506E0
1.581570681E0,4.007977843E-1,3.854837179E0,9.107681274E0
1.601680837E0,2.769692242E-1,3.753740549E0,9.308678627E0
1.621790941E0,1.657029688E-1,3.661018610E0,9.501898766E0
1.641901097E0,9.391828626E-2,3.593421459E0,9.499505997E0
1.662011202E0,7.537391037E-2,3.571287870E0,9.486943245E0
1.682121358E0,1.190429255E-1,3.573680639E0,9.391230583E0
1.702231462E0,1.429711580E-1,3.544368505E0,9.340383530E0
1.722341618E0,1.106680483E-1,3.474976778E0,9.393025398E0
1.742451722E0,-3.050848842E-2,3.467200041E0,9.418149948E0
1.762561879E0,-2.195414752E-1,3.494119167E0,9.311669350E0
1.782671983E0,-2.907279432E-1,3.505485058E0,9.071190834E0
1.802782139E0,-2.147558331E-1,3.481556892E0,8.984451294E0
1.822892243E0,-2.171486616E-1,3.461816072E0,9.061619759E0
1.843002399E0,-3.505485058E-1,3.510869026E0,9.157930374E0
1.863112504E0,-2.889333367E-1,3.503092289E0,9.317052841E0
1.883222660E0,-1.597209126E-1,3.473780155E0,9.550353050E0
1.903332764E0,-7.238288224E-2,3.468994617E0,9.597611427E0
1.923442920E0,-2.273181453E-2,3.471387386E0,9.425328255E0
1.943553077E0,-4.486542568E-2,3.558127165E0,9.129815102E0
1.963663181E0,-1.615155302E-2,3.603590965E0,8.895915985E0
1.983773337E0,1.046859920E-1,3.550350666E0,8.927022934E0
2.003883441E0,9.092725813E-2,3.509074450E0,9.046664238E0
2.023993597E0,-7.178468257E-2,3.500101328E0,9.076574326E0
2.044103702E0,-2.428714931E-1,3.517449379E0,9.016754150E0
2.064213858E0,-1.651047617E-1,3.529413462E0,9.169894218E0
2.084323962E0,2.213360928E-2,3.566502094E0,9.476176262E0
2.104434118E0,1.806581169E-1,3.617349625E0,9.471988678E0
2.124544274E0,3.768695593E-1,3.696911097E0,9.241679192E0
2.144654379E0,5.096712112E-1,3.789034605E0,9.102895737E0
2.164764535E0,4.588237405E-1,3.833899975E0,9.090332985E0
2.184874639E0,3.122633696E-1,3.765704632E0,9.222537041E0
2.204984795E0,2.303091735E-1,3.711866140E0,9.429515839E0
2.225094899E0,2.685943544E-1,3.678964853E0,9.488140106E0
2.245205056E0,3.355933726E-1,3.672384501E0,9.350552559E0
2.265315160E0,3.409772217E-1,3.734597921E0,9.153742790E0
2.285425316E0,2.691925466E-1,3.805784464E0,9.070592880E0
2.305535420E0,3.876372576E-1,3.722035646E0,9.174081802E0
2.325645577E0,4.504488707E-1,3.641875982E0,9.320044518E0
2.345755733E0,3.050848842E-1,3.710669756E0,9.227920532E0
2.365865837E0,2.656033039E-1,3.783052683E0,8.992227554E0
2.385975993E0,2.913261652E-1,3.766302824E0,9.032307625E0
2.406086097E0,2.536391914E-1,3.690330744E0,9.353543282E0
2.426196254E0,1.525424421E-1,3.599403381E0,9.463613510E0
2.446306358E0,2.751746029E-2,3.584448338E0,9.324232101E0
2.466416514E0,-2.632104978E-2,3.608974695E0,9.210572243E0
2.486526670E0,4.007977992E-2,3.620938778E0,9.318249702E0
2.506636774E0,1.878365725E-1,3.672384501E0,9.445069313E0
2.526746931E0,3.308077157E-1,3.750749588E0,9.312865257E0
2.546857035E0,3.529413342E-1,3.799802303E0,9.093324661E0
2.566967191E0,3.553341627E-1,3.723830223E0,9.060422897E0
2.587077295E0,2.644068897E-1,3.607180119E0,9.262018204E0
2.607187452E0,2.512463741E-2,3.520440340E0,9.468399048E0
2.627297608E0,-1.609173268E-1,3.499503136E0,9.455837250E0
2.647407712E0,-1.776670814E-1,3.530609846E0,9.344570160E0
2.667517868E0,-1.286142170E-1,3.614956856E0,9.334401131E0
2.687627972E0,-2.931207791E-2,3.637688637E0,9.129815102E0
2.707738129E0,5.922235921E-2,3.723830223E0,9.128020287E0
2.727848285E0,1.477568001E-1,3.784847260E0,9.320642471E0
2.747958389E0,2.063809484E-1,3.763910055E0,9.333204269E0
2.768068545E0,2.207378894E-1,3.753142357E0,9.196813583E0
2.788178649E0,2.386840582E-1,3.786641836E0,9.187242508E0
2.808288806E0,3.326023519E-1,3.729812384E0,9.136993408E0
2.828398910E0,2.662015259E-1,3.755535126E0,9.056235313E0
2.848509066E0,1.328016520E-1,3.842873096E0,8.989834785E0
2.868619222E0,1.896311939E-1,3.774079561E0,9.061619759E0
2.888729327E0,3.708875179E-1,3.651447296E0,9.412167549E0
2.908839483E0,3.792623878E-1,3.690330744E0,9.565308571E0
2.928949587E0,2.338984162E-1,3.787838221E0,9.156135559E0
2.949059743E0,1.651047617E-1,3.842274904E0,8.679964066E0
2.969169899E0,2.590230405E-1,3.801596880E0,8.658429146E0
2.989280004E0,2.578266263E-1,3.717848301E0,8.935996056E0
3.009390160E0,-2.333002165E-2,3.784847260E0,9.110671997E0
3.029500264E0,-1.770688742E-1,3.898506403E0,9.059226990E0
3.049610420E0,1.782652885E-1,3.869194269E0,8.903693199E0
3.069720577E0,6.574280262E-1,3.757927895E0,9.009575844E0
3.089830681E0,6.185446382E-1,3.721437454E0,9.425328255E0
3.109940837E0,1.333998591E-1,3.651447296E0,9.533005714E0
3.130050941E0,-2.889333367E-1,3.609572887E0,9.279366493E0
3.150161097E0,-4.139583111E-1,3.649652719E0,8.976674080E0
3.170271254E0,-3.236292601E-1,3.707678795E0,8.855836868E0
3.190381358E0,-1.322034448E-1,3.691527128E0,9.257232666E0
3.210491514E0,1.154536903E-1,3.700500250E0,9.738189697E0
3.230601618E0,1.435693651E-1,3.818346739E0,9.594620705E0
3.250711774E0,1.070788130E-1,3.912863255E0,9.208179474E0
3.270821931E0,3.972085714E-1,3.909274101E0,9.210572243E0
3.290932035E0,6.598208547E-1,3.838685751E0,9.590433121E0
3.311042191E0,6.909275651E-1,3.691527128E0,9.737591743E0
3.331152295E0,3.924229145E-1,3.756731510E0,9.357730865E0
3.351262452E0,3.571287692E-1,3.946362734E0,8.671588898E0
3.371372608E0,6.281159520E-1,3.990031719E0,8.281558990E0
3.391482712E0,6.813562512E-1,3.876971006E0,8.746364594E0
3.411592868E0,4.025924206E-1,3.699303865E0,9.611968994E0
3.431703024E0,6.281159073E-2,3.532404423E0,9.957731247E0
3.451813129E0,-1.794617064E-2,3.509074450E0,9.665806770E0
3.471923285E0,2.279163599E-1,3.588635683E0,9.244669914E0
3.492033389E0,4.618147612E-1,3.658027649E0,9.056235313E0
3.512143545E0,4.408775866E-1,3.671188116E0,9.068199158E0
3.532253702E0,2.201396823E-1,3.716651678E0,9.031708717E0
3.552363806E0,1.435693540E-2,3.691527128E0,8.919246674E0
3.572473962E0,-3.469592705E-2,3.615555048E0,8.863015175E0
3.592584118E0,1.854437590E-2,3.609572887E0,9.031110764E0
3.612694222E0,1.034895778E-1,3.627519131E0,9.232108116E0
3.632804379E0,1.010967568E-1,3.629313707E0,9.268598557E0
3.652914535E0,9.272187948E-2,3.640679598E0,9.269196510E0
3.673024639E0,2.009970993E-1,3.664009571E0,9.354142189E0
3.693134795E0,3.649054468E-1,3.690928936E0,9.374481201E0
3.713244899E0,4.426721931E-1,3.730410576E0,9.260223389E0
3.733355056E0,4.809573591E-1,3.752544165E0,9.215956688E0
3.753465212E0,5.910272002E-1,3.735196114E0,9.296115875E0
3.773575316E0,5.659025311E-1,3.800998688E0,9.279366493E0
3.793685472E0,5.706881881E-1,3.766302824E0,9.189635277E0
3.813795577E0,5.874379873E-1,3.734597921E0,9.229117393E0
3.833905733E0,5.210371017E-1,3.839283943E0,9.075378418E0
3.854015889E0,4.839483798E-1,3.870390654E0,8.823533058E0
3.874125993E0,4.474578202E-1,3.796213150E0,8.910871506E0
3.894236149E0,4.348955154E-1,3.723232031E0,9.326624870E0
3.914346306E0,4.193421602E-1,3.689134359E0,9.579665184E0
3.934456410E0,3.649054468E-1,3.684946775E0,9.499505997E0
3.954566566E0,3.020938635E-1,3.685544968E0,9.269794464E0
3.974676722E0,2.913261652E-1,3.699303865E0,9.180064201E0
3.994786827E0,3.014956415E-1,3.714857101E0,9.122037888E0
4.014896983E0,2.949153781E-1,3.766302824E0,9.033503532E0
4.035007139E0,3.206382394E-1,3.788436413E0,9.065806389E0
4.055117243E0,3.415754437E-1,3.780061483E0,9.303893089E0
4.075227399E0,3.002992272E-1,3.701098442E0,9.332008362E0
4.095337556E0,1.010967568E-1,3.704089403E0,9.125029564E0
4.115447660E0,1.328016520E-1,3.755535126E0,9.053244591E0
4.135557816E0,2.273181528E-1,3.802793503E0,9.116056442E0
4.155667972E0,2.536391914E-1,3.861417532E0,9.188439369E0
4.175778077E0,4.241278172E-1,3.851248026E0,9.235696793E0
4.195888233E0,5.826523304E-1,3.848855257E0,9.232108116E0
4.215998337E0,5.216353536E-1,3.863810301E0,9.171091080E0
4.236108493E0,3.774677813E-1,3.815355778E0,9.214161873E0
4.256218649E0,3.511467278E-1,3.784249067E0,9.257830620E0
4.276328754E0,4.917250574E-1,3.835096598E0,9.063413620E0
4.296438910E0,6.269195080E-1,3.833301783E0,8.839685440E0
4.316549066E0,4.779663086E-1,3.833301783E0,8.758329391E0
4.336659170E0,2.027917206E-1,3.851248026E0,8.751749039E0
4.356769327E0,4.546362907E-2,3.739981890E0,8.944371223E0
4.376879483E0,-1.435693540E-2,3.651447296E0,9.312267303E0
4.396989587E0,3.649054468E-2,3.602992773E0,9.547960281E0
4.417099743E0,6.101697683E-2,3.564109325E0,9.449854851E0
4.437209899E0,2.392822644E-3,3.530609846E0,9.257830620E0
4.457320004E0,-1.280160099E-1,3.461217880E0,9.245866776E0
4.477430160E0,-2.003988922E-1,3.415156126E0,9.463015556E0
4.497540316E0,-7.178468257E-2,3.467798233E0,9.556933403E0
4.517650420E0,1.286142170E-1,3.641875982E0,9.354740143E0
4.537760577E0,2.769692242E-1,3.759722471E0,9.015557289E0
4.557870733E0,3.822534084E-1,3.785445452E0,9.061020851E0
4.577980837E0,4.061816335E-1,3.777070522E0,9.391230583E0
4.598090993E0,3.894318938E-1,3.763311863E0,9.556933403E0
4.618201149E0,4.115654826E-1,3.786641836E0,9.355937004E0
4.638311254E0,4.558327198E-1,3.818944931E0,9.112466812E0
4.658421410E0,4.426721931E-1,3.789034605E0,9.133403778E0
4.678531566E0,3.750749528E-1,3.748356581E0,9.341579437E0
4.698641670E0,3.631108403E-1,3.720839262E0,9.469595909E0
4.718751827E0,3.756731451E-1,3.727419376E0,9.442676544E0
4.738861983E0,3.690928817E-1,3.681357622E0,9.336195946E0
4.758972087E0,3.110669553E-1,3.621536970E0,9.142376900E0
4.779082243E0,2.739782035E-1,3.601796389E0,9.011968613E0
4.799192399E0,2.524427772E-1,3.540779352E0,9.159127235E0
4.819302504E0,1.531406492E-1,3.646063566E0,9.171091080E0
4.839412660E0,1.950150430E-1,3.752544165E0,8.927620888E0
4.859522816E0,4.612165689E-1,3.710669756E0,8.947959900E0
4.879632920E0,6.520441771E-1,3.691527128E0,9.158528328E0
4.899743077E0,6.448656917E-1,3.719642878E0,9.191430092E0
4.919853233E0,4.091726840E-1,3.775275946E0,9.061619759E0
4.939963337E0,2.679961324E-1,3.769293785E0,9.025727272E0
4.960073493E0,3.050848842E-1,3.691527128E0,9.189037323E0
4.980183649E0,3.326023519E-1,3.630510092E0,9.375079155E0
5.000293754E0,3.918247223E-1,3.669393539E0,9.293723106E0
5.020403910E0,5.066801906E-1,3.760320902E0,9.079565048E0
5.040514066E0,6.311069727E-1,3.824328899E0,8.950951576E0
5.060624170E0,5.844469070E-1,3.811766386E0,8.902496338E0
5.080734327E0,4.193421602E-1,3.766901016E0,9.006584167E0
5.100844483E0,3.355933726E-1,3.697509289E0,9.196813583E0
5.120954587E0,3.146561682E-1,3.699303865E0,9.270393372E0
5.141064743E0,3.403790295E-1,3.703491211E0,9.288937569E0
5.161174899E0,4.061816335E-1,3.710669756E0,9.367900848E0
5.181285056E0,3.672982752E-1,3.707678795E0,9.300901413E0
5.201395160E0,2.907279432E-1,3.672384501E0,9.230313301E0
5.221505316E0,2.536391914E-1,3.656831264E0,9.332606316E0
5.241615472E0,2.554338276E-1,3.662813187E0,9.376275063E0
5.261725577E0,3.373879790E-1,3.701696634E0,9.186644554E0
5.281835733E0,4.821537733E-1,3.677170277E0,9.112466812E0
5.301945889E0,4.109672904E-1,3.701098442E0,9.220144272E0
5.322055993E0,2.464607358E-1,3.750151396E0,9.126823425E0
5.342166149E0,3.391826153E-1,3.707678795E0,9.035896301E0
5.362276306E0,4.600201547E-1,3.652045488E0,9.192625999E0
5.382386410E0,4.522434771E-1,3.625126362E0,9.425328255E0
5.402496566E0,3.613162339E-1,3.615555048E0,9.460023880E0
5.422606722E0,2.883351147E-1,3.626920938E0,9.393623352E0
5.442716827E0,3.242274821E-1,3.623929977E0,9.339784622E0
5.462826983E0,2.991028428E-1,3.598206997E0,9.239884377E0
5.482937139E0,2.321037948E-1,3.584448338E0,9.144769669E0
5.503047295E0,2.578266263E-1,3.604189157E0,9.154341698E0
5.523157399E0,3.014956415E-1,3.632902861E0,9.193822861E0
5.543267556E0,2.913261652E-1,3.632304668E0,9.156135559E0
5.563377712E0,2.524427772E-1,3.625724554E0,9.121439934E0
5.583487816E0,2.997010350E-1,3.635295868E0,9.204590797E0
5.603597972E0,3.565305769E-1,3.664607763E0,9.278767586E0
5.623708129E0,3.672982752E-1,3.711866140E0,9.318847656E0
5.643818233E0,3.373879790E-1,3.714258909E0,9.282955170E0
5.663928389E0,2.961117923E-1,3.711866140E0,9.246464729E0
5.684038545E0,3.056831062E-1,3.711267948E0,9.256035805E0
5.704148649E0,2.997010350E-1,3.678366661E0,9.271589279E0
5.724258806E0,2.494517565E-1,3.637090445E0,9.297312737E0
5.744368962E0,2.105683982E-1,3.632902861E0,9.244669914E0
5.764479118E0,1.704886109E-1,3.674777269E0,9.177073479E0
5.784589222E0,1.728814393E-1,3.616153240E0,9.164510727E0
5.804699379E0,1.567298770E-1,3.632902861E0,9.150154114E0
5.824809535E0,2.853440940E-1,3.726821184E0,9.032905579E0
5.844919639E0,5.539384484E-1,3.751347780E0,9.030512810E0
5.865029795E0,5.994020700E-1,3.733401537E0,9.270393372E0
5.885139952E0,4.701896608E-1,3.679563046E0,9.473184586E0
5.905250056E0,4.115654826E-1,3.630510092E0,9.482157707E0
5.925360212E0,4.259224236E-1,3.607180119E0,9.382257462E0
5.945470368E0,4.444667995E-1,3.595216036E0,9.231510162E0
5.965580472E0,4.366901219E-1,3.600001574E0,9.117252350E0
5.985690629E0,3.798605800E-1,3.607778311E0,9.066405296E0
6.005800785E0,3.044866920E-1,3.634099483E0,8.979664803E0
6.025910941E0,3.738785386E-1,3.617349625E0,9.024530411E0
6.046021045E0,4.013960063E-1,3.583850145E0,9.194420815E0
6.066131202E0,2.811566591E-1,3.535395384E0,9.400801659E0
6.086241358E0,1.872383654E-1,3.544966698E0,9.461818695E0
6.106351462E0,2.003988922E-1,3.601796389E0,9.277571678E0
6.126461618E0,2.775674164E-1,3.646661758E0,9.049057007E0
6.146571774E0,3.409772217E-1,3.637090445E0,9.099306107E0
6.166681931E0,3.134597540E-1,3.607180119E0,9.304491043E0
6.186792035E0,2.243271172E-1,3.562912941E0,9.461818695E0
6.206902191E0,2.063809484E-1,3.548556089E0,9.509675026E0
6.227012347E0,2.757728100E-1,3.541975737E0,9.396016121E0
6.247122452E0,2.943171859E-1,3.562912941E0,9.265607834E0
6.267232608E0,2.482553422E-1,3.585644722E0,9.129216194E0
6.287342764E0,2.733799815E-1,3.556930780E0,9.196813583E0
6.307452920E0,2.841476798E-1,3.583850145E0,9.291928291E0
6.327563024E0,3.248256743E-1,3.573082447E0,9.239884377E0
6.347673181E0,4.169493318E-1,3.508476257E0,9.266803741E0
6.367783337E0,3.427718580E-1,3.588635683E0,9.323035240E0
6.387893441E0,3.026920557E-1,3.653840065E0,9.110074043E0
6.408003597E0,3.840480447E-1,3.587439299E0,9.019744873E0
6.428113754E0,3.553341627E-1,3.575475216E0,9.266205788E0
6.448223858E0,3.397808075E-1,3.546163082E0,9.517452240E0
6.468334014E0,3.643072546E-1,3.528815269E0,9.544969559E0
6.488444170E0,4.354937077E-1,3.555734396E0,9.392427444E0
6.508554274E0,5.318048596E-1,3.610171080E0,9.151947975E0
6.528664431E0,5.090730190E-1,3.718446493E0,8.910273552E0
6.548774587E0,4.402793646E-1,3.763311863E0,8.830712318E0
6.568884743E0,3.678964674E-1,3.751347780E0,8.883952141E0
6.588994847E0,3.517449200E-1,3.660420418E0,9.120841980E0
6.609105004E0,2.805584669E-1,3.564707518E0,9.450452805E0
6.629215160E0,1.645065546E-1,3.512065411E0,9.560523033E0
6.649325316E0,1.974078715E-1,3.532404423E0,9.483952522E0
6.669435420E0,3.200400174E-1,3.586242914E0,9.357730865E0
6.689545577E0,3.684946895E-1,3.622733593E0,9.277571678E0
6.709655733E0,4.025924206E-1,3.617947817E0,9.303893089E0
6.729765837E0,4.157529473E-1,3.613162279E0,9.368498802E0
6.749875993E0,4.097708762E-1,3.639483213E0,9.271589279E0
6.769986149E0,4.085744619E-1,3.655634880E0,9.108877182E0
6.790096254E0,4.229314029E-1,3.656233072E0,9.083752632E0
6.810206410E0,3.978067636E-1,3.675973892E0,9.140582085E0
6.830316566E0,3.798605800E-1,3.669991732E0,9.223134995E0
6.850426722E0,4.169493318E-1,3.665206194E0,9.256035805E0
6.870536827E0,4.516452849E-1,3.677768469E0,9.236295700E0
6.890646983E0,4.408775866E-1,3.639483213E0,9.156135559E0
6.910757139E0,2.829512656E-1,3.583251953E0,9.313464165E0
6.930867243E0,1.555334777E-1,3.560520172E0,9.544969559E0
6.950977399E0,1.926222295E-1,3.521636724E0,9.528818130E0
6.971087556E0,3.194418252E-1,3.510270834E0,9.457631111E0
6.991197712E0,3.086741269E-1,3.634697676E0,9.294919968E0
7.011307816E0,3.379862010E-1,3.702294827E0,8.956335068E0
7.031417972E0,4.289134443E-1,3.628715515E0,8.953344345E0
7.051528129E0,3.583251834E-1,3.614358664E0,9.308678627E0
7.071638233E0,2.410768867E-1,3.576073408E0,9.468399048E0
7.091748389E0,1.974078715E-1,3.558127165E0,9.363713264E0
7.111858545E0,2.961117923E-1,3.565903902E0,9.275776863E0
7.131968649E0,3.792623878E-1,3.588037491E0,9.224330902E0
7.152078806E0,3.385843933E-1,3.597608805E0,9.106484413E0
7.172188962E0,2.877369225E-1,3.619742393E0,9.114859581E0
7.192299118E0,3.092723191E-1,3.668795347E0,9.163313866E0
7.212409222E0,3.493520916E-1,3.676572084E0,9.165707588E0
7.232519379E0,3.780659735E-1,3.655634880E0,9.165108681E0
7.252629535E0,4.097708762E-1,3.653840065E0,9.271589279E0
7.272739639E0,4.582255483E-1,3.649054527E0,9.421140671E0
7.292849795E0,4.654040039E-1,3.671188116E0,9.417551994E0
7.312959952E0,4.205385745E-1,3.676572084E0,9.238688469E0
7.333070108E0,4.211367965E-1,3.685544968E0,9.101100922E0
7.353180212E0,4.301098585E-1,3.695116282E0,9.119047165E0
7.373290368E0,3.954139352E-1,3.672982693E0,9.158528328E0
7.393400524E0,3.655036688E-1,3.644867182E0,9.158528328E0
7.413510629E0,3.589234054E-1,3.645465374E0,9.198010445E0
7.433620785E0,5.102694035E-1,3.637688637E0,9.200403214E0
7.453730941E0,5.395814776E-1,3.690330744E0,9.133403778E0
7.473841097E0,3.708875179E-1,3.722035646E0,9.186046600E0
7.493951202E0,3.080759048E-1,3.712464333E0,9.377471924E0
7.514061358E0,3.948157430E-1,3.706482172E0,9.357730865E0
7.534171514E0,4.360919297E-1,3.698705673E0,9.242876053E0
7.554281618E0,3.930211067E-1,3.710669756E0,9.250652313E0
7.574391774E0,3.625126183E-1,3.724428415E0,9.296713829E0
7.594501931E0,4.540380836E-1,3.723232031E0,9.222537041E0
7.614612087E0,5.425725579E-1,3.701098442E0,9.080163956E0
7.634722191E0,4.103690982E-1,3.777668715E0,8.991030693E0
7.654832347E0,3.565305769E-1,3.785445452E0,8.953942299E0
7.674942504E0,4.534398913E-1,3.649054527E0,9.224929810E0
7.695052608E0,3.768695593E-1,3.583251953E0,9.593423843E0
7.715162764E0,2.805584669E-1,3.559921980E0,9.618548393E0
7.735272920E0,2.518445849E-1,3.588635683E0,9.436694145E0
7.755383077E0,2.973082066E-1,3.627519131E0,9.282955170E0
7.775493181E0,3.349951804E-1,3.634099483E0,9.179466248E0
7.795603337E0,3.391826153E-1,3.650849104E0,9.104690552E0
7.815713493E0,4.366901219E-1,3.671786308E0,9.055039406E0
7.835823597E0,5.324030519E-1,3.736990690E0,8.925827026E0
7.855933754E0,5.623133183E-1,3.772284985E0,8.830712318E0
7.876043910E0,5.766702294E-1,3.793222189E0,8.875576973E0
7.896154066E0,5.066801906E-1,3.790829182E0,8.971290588E0
7.916264170E0,4.695914388E-1,3.781856298E0,8.994620323E0
7.936374327E0,5.102694035E-1,3.781856298E0,9.069396019E0
7.956484483E0,5.228317380E-1,3.768695593E0,9.272188187E0
7.976594587E0,4.450650215E-1,3.747160196E0,9.406186104E0
7.996704743E0,4.019941986E-1,3.726821184E0,9.346963882E0
8.016814899E0,4.103690982E-1,3.752544165E0,9.325428009E0
8.036925056E0,4.223332107E-1,3.750749588E0,9.334999084E0
8.057035160E0,4.115654826E-1,3.754338741E0,9.223134995E0
8.077145316E0,4.402793646E-1,3.732205153E0,9.121439934E0
8.097255472E0,4.701896608E-1,3.736990690E0,9.086145401E0
8.117365577E0,4.606183469E-1,3.721437454E0,9.090332985E0
8.137475733E0,4.103690982E-1,3.668197155E0,9.159127235E0
8.157585889E0,3.708875179E-1,3.640081406E0,9.239884377E0
8.177696045E0,3.559323549E-1,3.667598963E0,9.241081238E0
8.197806149E0,4.145565331E-1,3.620340586E0,9.254839897E0
8.217916306E0,4.648058116E-1,3.633501291E0,9.293723106E0
8.238026462E0,5.419743061E-1,3.750151396E0,9.104091644E0
8.258136566E0,6.251249313E-1,3.765106440E0,8.876175880E0
8.278246722E0,5.162515044E-1,3.710669756E0,9.037093163E0
8.298356879E0,2.506481707E-1,3.647858143E0,9.370293617E0
8.318466983E0,1.112662554E-1,3.581457376E0,9.480961800E0
8.338577139E0,1.573280841E-1,3.584448338E0,9.516255379E0
8.358687295E0,4.402793646E-1,3.610171080E0,9.513264656E0
8.378797452E0,6.658028960E-1,3.714258909E0,9.400203705E0
8.398907556E0,7.082754970E-1,3.789034605E0,9.189037323E0
8.419017712E0,5.389832854E-1,3.842274904E0,9.022735596E0
8.439127868E0,4.163511395E-1,3.805186272E0,9.034700394E0
8.459238024E0,4.211367965E-1,3.720241070E0,9.128020287E0
8.479348129E0,4.360919297E-1,3.675375462E0,9.215956688E0
8.499458285E0,4.402793646E-1,3.686741590E0,9.256634712E0
8.519568441E0,4.061816335E-1,3.696312666E0,9.345169067E0
8.539678545E0,4.372883439E-1,3.663411379E0,9.333204269E0
8.559788702E0,4.313062727E-1,3.659822226E0,9.239286423E0
8.579898858E0,3.912265003E-1,3.659224033E0,9.199805260E0
8.600008962E0,3.266202807E-1,3.629911900E0,9.239286423E0
8.620119118E0,2.823530734E-1,3.604189157E0,9.212367058E0
8.640229274E0,2.835494876E-1,3.595814228E0,9.156734467E0
8.660339431E0,3.355933726E-1,3.594019651E0,9.206983566E0
8.680449535E0,3.182454109E-1,3.621536970E0,9.300901413E0
8.700559691E0,3.505485058E-1,3.627519131E0,9.266205788E0
8.720669847E0,4.193421602E-1,3.645465374E0,9.111868858E0
8.740780004E0,4.965106845E-1,3.681955814E0,9.065806389E0
8.760890108E0,4.570291340E-1,3.684348583E0,9.132207870E0
8.781000264E0,3.056831062E-1,3.680759430E0,9.206384659E0
8.801110420E0,2.608176768E-1,3.665804386E0,9.206384659E0
8.821220524E0,3.427718580E-1,3.614956856E0,9.177671432E0
8.841330681E0,3.457628787E-1,3.650849104E0,9.181859016E0
8.861440837E0,3.278166950E-1,3.765106440E0,9.034101486E0
8.881550941E0,4.767699242E-1,3.767499208E0,8.982656479E0
8.901661097E0,5.036891699E-1,3.692125320E0,9.224330902E0
8.921771254E0,2.745763958E-1,3.635295868E0,9.445667267E0
8.941881410E0,1.142572835E-1,3.582653761E0,9.443872452E0
8.961991514E0,1.435693651E-1,3.562314749E0,9.399007797E0
8.982101670E0,2.943171859E-1,3.554538012E0,9.373284340E0
9.002211827E0,3.990031779E-1,3.602992773E0,9.282955170E0
9.022321931E0,3.403790295E-1,3.637090445E0,9.083154678E0
9.042432087E0,3.140579760E-1,3.622135162E0,8.975478172E0
9.062542243E0,3.278166950E-1,3.637688637E0,8.980263710E0
9.082652347E0,3.134597540E-1,3.620938778E0,9.157930374E0
9.102762504E0,2.685943544E-1,3.548556089E0,9.309874535E0
9.122872660E0,2.602194548E-1,3.485146284E0,9.276374817E0
9.142982816E0,2.895315289E-1,3.433102369E0,9.231510162E0
9.163092920E0,2.943171859E-1,3.472583771E0,9.268598557E0
9.183203077E0,3.744767308E-1,3.523431301E0,9.193822861E0
9.203313233E0,3.882354796E-1,3.559921980E0,9.293125153E0
9.223423337E0,4.390829504E-1,3.530609846E0,9.431908607E0
9.243533493E0,4.283152521E-1,3.519842148E0,9.356534958E0
9.263643649E0,3.421736360E-1,3.556930780E0,9.087940216E0
9.283753754E0,2.967100143E-1,3.594617844E0,8.955737114E0
9.303863910E0,2.973082066E-1,3.619144201E0,8.983852386E0
9.323974066E0,3.415754437E-1,3.560520172E0,9.200403214E0
9.344084222E0,3.457628787E-1,3.485146284E0,9.489336014E0
9.364194327E0,2.291127741E-1,3.522234917E0,9.517452240E0
9.384304483E0,2.452643216E-1,3.571886063E0,9.314660072E0
9.404414639E0,4.462614357E-1,3.598206997E0,9.207581520E0
9.424524743E0,6.023930907E-1,3.614956856E0,9.160921097E0
9.444634899E0,4.671986103E-1,3.622135162E0,9.081958771E0
9.464745056E0,3.732803464E-1,3.574278831E0,9.154341698E0
9.484855160E0,4.384847581E-1,3.536591768E0,9.259027481E0
9.504965316E0,4.839483798E-1,3.538984776E0,9.229117393E0
9.525075472E0,4.049852192E-1,3.614358664E0,9.056235313E0
9.545185629E0,3.942175210E-1,3.720241070E0,8.827720642E0
9.565295733E0,5.503492355E-1,3.723232031E0,8.796015739E0
9.585405889E0,6.562315822E-1,3.649652719E0,9.179466248E0
9.605516045E0,5.850451589E-1,3.628117323E0,9.553344727E0
9.625626149E0,4.139583111E-1,3.702893019E0,9.571290970E0
9.645736306E0,3.397808075E-1,3.791427374E0,9.421739578E0
9.665846462E0,5.186443329E-1,3.799204111E0,9.387042999E0
9.685956566E0,7.639086246E-1,3.753740549E0,9.390632629E0
9.706066722E0,7.776673436E-1,3.793820381E0,9.311071396E0
9.726176879E0,6.538388133E-1,3.924229145E0,9.008378983E0
9.746286983E0,6.364908218E-1,4.026522160E0,8.717052460E0
9.766397139E0,6.933203340E-1,3.985246181E0,8.839685440E0
9.786507295E0,5.473581553E-1,3.890729666E0,9.148359299E0
9.806617452E0,2.542374134E-1,3.836891174E0,9.366106033E0
9.826727556E0,1.148554832E-1,3.823132277E0,9.412766457E0
9.846837712E0,1.178465188E-1,3.826721668E0,9.223134995E0
9.866947868E0,1.148554832E-1,3.842274904E0,9.125029564E0
9.887057972E0,7.058826834E-2,3.816552162E0,9.250652313E0
9.907168129E0,7.716853172E-2,3.792623997E0,9.370293617E0
9.927278285E0,2.183450609E-1,3.828516245E0,9.406186104E0
9.947388389E0,4.857429862E-1,3.828516245E0,9.440881729E0
9.967498545E0,6.634100676E-1,3.780659676E0,9.534799576E0
9.987608702E0,6.807580590E-1,3.716651678E0,9.635298729E0
1.000771881E1,6.358926296E-1,3.781856298E0,9.425926208E0
1.002782896E1,6.538388133E-1,3.956532240E0,8.895318031E0
1.004793912E1,8.129615188E-1,4.099503517E0,8.465806961E0
1.006804927E1,9.942178130E-1,4.113860130E0,8.455636978E0
1.008815938E1,9.523434043E-1,4.028914928E0,8.720642090E0
1.010826954E1,5.545366406E-1,3.934398651E0,8.845068932E0
1.012837969E1,2.207378894E-1,3.842274904E0,8.914461136E0
1.014848980E1,9.990034252E-2,3.854238987E0,9.029315948E0
1.016859995E1,2.931207791E-2,3.957130432E0,8.991030693E0
1.018871011E1,1.794617064E-2,4.061816216E0,8.965308189E0
1.020882021E1,1.202393398E-1,4.294518471E0,8.990432739E0
1.022893037E1,4.516452849E-1,4.435096741E0,8.626724243E0
1.024904052E1,1.104287624E0,4.013959885E0,9.107681274E0
1.026915063E1,1.285543919E0,3.555734396E0,1.144367409E1
1.028926079E1,7.387840152E-1,3.606581926E0,1.255992603E1
1.030937094E1,-3.589233849E-3,3.978665829E0,1.118943691E1
1.032948105E1,-7.178467698E-3,4.508676052E0,9.391230583E0
1.034959120E1,4.815555513E-1,5.036891460E0,8.874979019E0
1.036970136E1,7.136593461E-1,5.231906891E0,9.585647583E0
1.038981151E1,4.516452849E-1,4.956732273E0,1.084307575E1
1.040992162E1,3.206382394E-1,4.583451748E0,1.191326618E1
1.043003177E1,-5.431707501E-1,4.153940201E0,1.265982628E1
1.045014193E1,-9.379864931E-1,3.483949661E0,1.280219936E1
1.047025204E1,-1.004387259E0,3.111865759E0,1.262034512E1
1.049036219E1,-8.368897438E-1,2.789433002E0,1.202513027E1
1.051047235E1,-7.184450030E-1,2.632104874E0,1.091665554E1
1.053058245E1,-7.172485590E-1,2.696112871E0,9.476774216E0
1.055069261E1,-8.267202377E-1,2.957528830E0,8.325227737E0
1.057080276E1,-8.189435601E-1,3.005385160E0,8.018348694E0
1.059091287E1,-8.721838593E-1,2.763111830E0,8.754141808E0
1.061102302E1,-1.047458172E0,2.373680115E0,1.009591675E1
1.063113318E1,-1.101296663E0,2.045863390E0,1.094477081E1
1.065124329E1,-1.023529887E0,1.939382792E0,1.094118118E1
1.067135344E1,-8.985049129E-1,1.907079697E0,1.065822983E1
1.069146360E1,-7.579265833E-1,1.916052699E0,1.006540871E1
1.071157370E1,-6.717849374E-1,2.062014818E0,8.870791435E0
1.073168386E1,-5.018945336E-1,2.267199516E0,7.521239758E0
1.075179401E1,-1.932204217E-1,2.307877541E0,6.549155712E0
1.077190412E1,1.956132501E-1,2.249253273E0,5.813362598E0
1.079201427E1,2.213360965E-1,2.263011932E0,5.608776093E0
1.081212443E1,-8.315058798E-2,2.349153519E0,5.989234924E0
1.083223454E1,-4.492524564E-1,2.409572363E0,6.542575359E0
1.085234469E1,-5.611169338E-1,2.701496840E0,6.410371780E0
1.087245485E1,-5.539384484E-1,3.218944550E0,5.693721294E0
1.089256495E1,-4.253242314E-1,3.501297712E0,5.598008633E0
1.091267511E1,-1.668993831E-1,3.399004459E0,7.127022266E0
1.093278526E1,5.264209956E-2,3.209971666E0,9.350552559E0
1.095289537E1,2.333002090E-1,3.133401155E0,1.044526863E1
1.097300552E1,2.057827413E-1,3.058027267E0,1.082034397E1
1.099311568E1,-3.110669367E-2,3.205185890E0,1.065284634E1
1.101322579E1,-1.668993831E-1,3.547359467E0,1.038724327E1
1.103333594E1,7.178467698E-3,3.590430260E0,1.045484066E1
1.105344610E1,2.183450609E-1,3.506083488E0,1.120857906E1
1.107355620E1,-2.811566554E-2,3.684946775E0,1.222433281E1
1.109366636E1,-7.663014531E-1,4.213162422E0,1.318146133E1
1.111377651E1,-6.819544435E-1,4.527818680E0,1.307857037E1
1.113388662E1,3.140579760E-1,4.438087940E0,1.226082325E1
1.115399677E1,1.485942841E0,4.435096741E0,1.152622700E1
1.117410693E1,2.160718918E0,4.138985157E0,1.145085239E1
1.119421704E1,1.891526341E0,3.467200041E0,1.207179070E1
1.121432719E1,1.149751306E0,2.782852650E0,1.264367485E1
1.123443735E1,8.291130662E-1,2.224128723E0,1.284347534E1
1.125454745E1,9.122636318E-1,2.003988981E0,1.280937767E1
1.127465761E1,1.098305583E0,2.109871387E0,1.172901821E1
1.129476776E1,1.040877819E0,2.395215511E0,9.926026344E0
1.131487787E1,1.031904817E0,2.468196630E0,8.804988861E0
1.133498802E1,1.168295622E0,2.216950178E0,8.979664803E0
1.135509818E1,9.750752449E-1,2.031506538E0,9.998409271E0
1.137520829E1,4.941178858E-1,1.998605132E0,9.866206169E0
1.139531844E1,1.710868180E-1,2.102692842E0,8.447860718E0
1.141542860E1,2.255235314E-1,2.133799553E0,7.002595425E0
1.143553870E1,3.607180119E-1,2.166700840E0,5.767300606E0
1.145564886E1,3.559323549E-1,2.206182480E0,5.032704353E0
1.147575901E1,3.218346536E-1,2.216950178E0,4.858626366E0
1.149586912E1,1.292124242E-1,2.333002090E0,4.975874901E0
1.151597927E1,-7.298108935E-2,2.373680115E0,5.521438122E0
1.153608938E1,-1.668993831E-1,2.419741869E0,6.397211552E0
1.155619954E1,-9.332008660E-2,2.606980324E0,6.866204739E0
1.157630969E1,-6.640082598E-2,2.900100946E0,6.794419765E0
1.159641980E1,-3.409772366E-2,3.199203968E0,6.646663189E0
1.161652995E1,1.974078640E-2,3.506083488E0,6.808178425E0
1.163664011E1,2.554338276E-1,3.647858143E0,7.508079052E0
1.165675021E1,7.316055298E-1,3.462414265E0,8.338987350E0
1.167686037E1,9.846464992E-1,3.328416348E0,9.284152031E0
1.169697052E1,8.805587292E-1,3.393022537E0,1.046441174E1
1.171708063E1,5.072783828E-1,3.415754318E0,1.116491032E1
1.173719079E1,9.990034252E-2,3.360121250E0,1.105184937E1
1.175730094E1,-3.260220885E-1,3.522833109E0,1.104885864E1
1.177741105E1,-5.814558864E-1,3.804588079E0,1.087478065E1
1.179752120E1,-4.145565331E-1,4.225126743E0,9.559326172E0
1.181763136E1,2.015953064E-1,4.820939541E0,8.214560509E0
1.183774146E1,1.197607756E0,4.995615482E0,7.808378696E0
1.185785162E1,1.869392633E0,5.019543648E0,9.558130264E0
1.187796172E1,1.356730461E0,5.062614441E0,1.190369415E1
1.189807188E1,4.420739710E-1,4.651049137E0,1.277827072E1
1.191818204E1,4.606183618E-2,4.110869408E0,1.266521072E1
1.193829214E1,7.956135273E-2,3.746562004E0,1.257667542E1
1.195840230E1,2.285145670E-1,3.188436270E0,1.295414352E1
1.197851245E1,-6.340979785E-2,2.763111830E0,1.401775360E1
1.199862256E1,-7.393822074E-1,2.480160713E0,1.438026619E1
1.201873271E1,-1.274776220E0,2.328814745E0,1.281715488E1
1.203884287E1,-1.310668588E0,2.548356056E0,1.048774147E1
1.205895297E1,-1.156929731E0,2.702693224E0,8.746963501E0
1.207906313E1,-1.306481123E0,2.484348059E0,8.581858635E0
1.209917328E1,-1.086341500E0,1.863410592E0,9.922437668E0
1.211928339E1,-8.572286963E-1,1.648056626E0,1.052243805E1
1.213939354E1,-7.046862841E-1,1.677966833E0,9.795019150E0
1.215950365E1,-3.164508045E-1,1.694716692E0,8.855836868E0
1.217961381E1,1.441675574E-1,1.807179332E0,8.314460754E0
1.219972396E1,4.277170599E-1,1.956132531E0,8.020143509E0
1.221983407E1,4.265206456E-1,2.007578135E0,7.434499741E0
1.223994422E1,2.177468538E-1,2.138585329E0,6.754340172E0
1.226005438E1,1.525424421E-1,2.206182480E0,6.179464340E0
1.228016448E1,1.250249892E-1,2.253440619E0,5.965905190E0
1.230027464E1,6.819544733E-2,2.328216314E0,6.290730953E0
1.232038474E1,-4.307080805E-2,2.492722988E0,6.668198586E0
1.234049490E1,-2.596212626E-1,2.887538671E0,6.579664230E0
1.236060506E1,-4.959124923E-1,3.212364435E0,6.644868374E0
1.238071516E1,-5.509474277E-1,3.403790236E0,7.217351437E0
1.240082532E1,-1.914258152E-1,3.439682484E0,7.835297585E0
1.242093547E1,1.884347796E-1,3.295515060E0,8.721240044E0
1.244104558E1,2.434697002E-1,3.173480988E0,9.859027863E0
1.246115573E1,-2.991028316E-2,3.010170937E0,1.084128094E1
1.248126584E1,-2.667997181E-1,2.803789854E0,1.130309582E1
1.250137599E1,-5.030909777E-1,2.889931440E0,1.106740284E1
1.252148615E1,-5.096712112E-1,3.173480988E0,1.031306553E1
1.254159625E1,-2.105683982E-1,3.383451223E0,9.967302322E0
1.256170641E1,1.136590727E-2,3.439682484E0,1.071864891E1
1.258181657E1,8.434699476E-2,3.385843992E0,1.166201973E1
1.260192667E1,6.520441920E-2,3.583251953E0,1.188096237E1
1.262203683E1,5.988038778E-1,3.749552965E0,1.128754234E1
1.264214693E1,1.389631748E0,3.954139471E0,1.075274658E1
1.266225709E1,1.880758643E0,4.038486481E0,1.163151073E1
1.268236724E1,1.823330879E0,3.810570002E0,1.330170155E1
1.270247735E1,1.493121386E0,3.515056372E0,1.290867996E1
1.272258750E1,1.442872047E0,3.257827997E0,1.139222908E1
1.274269761E1,1.855035782E0,2.860619545E0,1.106740284E1
1.276280776E1,2.365305185E0,2.714059114E0,1.226620674E1
1.278291792E1,2.641676188E0,2.624328136E0,1.316411400E1
1.280302802E1,2.224726915E0,2.445464849E0,1.267657661E1
1.282313818E1,1.432104349E0,2.322832584E0,1.100818062E1
1.284324834E1,9.613165259E-1,2.268395901E0,9.427123070E0
1.286335844E1,8.584251404E-1,2.264806747E0,8.587242126E0
1.288346860E1,9.343972206E-1,2.336591244E0,8.059624672E0
1.290357870E1,9.505487680E-1,2.327019930E0,7.505088329E0
1.292368886E1,8.344969153E-1,2.233700037E0,6.960721016E0
1.294379901E1,6.819544435E-1,2.243271112E0,6.474977970E0
1.296390912E1,3.966103494E-1,2.295315027E0,5.900102615E0
1.298401927E1,8.195417374E-2,2.306082726E0,5.298307419E0
1.300412938E1,-6.699903309E-2,2.350948334E0,5.246263504E0
1.302423954E1,-1.399801224E-1,2.519043922E0,5.976672649E0
1.304434969E1,-2.512463629E-1,2.683550596E0,6.218348026E0
1.306445980E1,-3.302095234E-1,2.858824968E0,5.906682491E0
1.308456995E1,-8.494520187E-2,3.156731367E0,5.708078384E0
1.310468006E1,3.870390654E-1,3.545564890E0,5.955735683E0
1.312479021E1,8.566305041E-1,3.798007727E0,6.454041004E0
1.314490037E1,1.073779106E0,3.819543123E0,7.153343201E0
1.316501047E1,9.355936646E-1,3.641277790E0,7.945367813E0
1.318512063E1,9.104689956E-1,3.293122053E0,8.965906143E0
1.320523073E1,1.007378340E0,3.160918713E0,1.005224800E1
1.322534089E1,8.362914920E-1,3.273979664E0,1.046979523E1
1.324545105E1,4.689932466E-1,3.431307554E0,9.899106979E0
1.326556115E1,3.870390654E-1,3.602992773E0,9.742377281E0
1.328567131E1,5.174478889E-1,3.713660717E0,1.043150997E1
1.330578141E1,8.183453679E-1,3.863810301E0,1.077847004E1
1.332589157E1,1.046261668E0,4.075575352E0,1.041476059E1
1.334600172E1,1.055234790E0,4.079762459E0,1.022572803E1
1.336611183E1,9.858429432E-1,3.996612072E0,1.104586792E1
1.338622198E1,6.675975323E-1,4.013959885E0,1.197966671E1
1.340633209E1,3.110669553E-1,3.943371773E0,1.248275757E1
1.342644224E1,2.075773627E-1,3.781856298E0,1.232004547E1
1.344655240E1,3.517449200E-1,3.851248026E0,1.196112251E1
1.346666250E1,6.442674994E-1,3.763910055E0,1.202812099E1
1.348677266E1,1.007378340E0,3.263810158E0,1.279801178E1
1.350688276E1,1.204187989E0,2.662613392E0,1.382632732E1
1.352699292E1,9.553344250E-1,2.282752752E0,1.412901974E1
1.354710308E1,2.213360965E-1,2.103291035E0,1.239900875E1
1.356721318E1,-3.990031779E-1,2.288136721E0,1.001575756E1
1.358732334E1,-7.316055298E-1,2.425724030E0,8.254041672E0
1.360743344E1,-1.172483087E0,2.313859463E0,7.689335346E0
1.362754360E1,-1.485344648E0,2.118246317E0,8.967700958E0
1.364765370E1,-1.320239902E0,1.942373753E0,9.869794846E0
1.366776386E1,-7.262216806E-1,1.735992789E0,8.803792953E0
1.368787401E1,-9.092725813E-2,1.703091502E0,7.092924595E0
1.370798412E1,3.780659735E-1,1.634896040E0,6.815955162E0
1.372809427E1,4.528416991E-1,1.578664780E0,8.021339417E0
1.374820438E1,-1.196411345E-2,1.684547186E0,8.458627701E0
1.376831454E1,-2.404786795E-1,1.773679733E0,7.758727551E0
1.378842469E1,-1.908276081E-1,1.846062660E0,7.033103943E0
1.380853480E1,2.506481707E-1,2.048256159E0,6.794419765E0
1.382864495E1,7.704889178E-1,2.363510609E0,7.113263607E0
1.384875506E1,9.888339639E-1,2.589034081E0,7.581060410E0
1.386886521E1,8.141579032E-1,2.651845694E0,7.901698589E0
1.388897532E1,5.479564071E-1,2.623131752E0,8.227720261E0
1.390908547E1,3.290131092E-1,2.746362209E0,8.645866394E0
1.392919563E1,2.297109663E-1,2.912663460E0,8.882157326E0
1.394930573E1,3.140579760E-1,2.941975355E0,8.746364594E0
1.396941589E1,5.252245665E-1,2.977867842E0,8.894720078E0
1.398952599E1,5.832505226E-1,3.076571703E0,9.396016121E0
1.400963615E1,4.007977843E-1,3.090928555E0,9.742975235E0
1.402974625E1,8.913264424E-2,3.081955671E0,9.763314247E0
1.404985641E1,-3.589233849E-3,3.105883837E0,9.671789169E0
1.406996657E1,-4.785645381E-2,3.190829039E0,9.973284721E0
1.409007667E1,-3.595215976E-1,3.585046530E0,1.035553837E1
1.411018683E1,-4.426721931E-1,3.776472330E0,1.048893833E1
1.413029693E1,3.415754437E-1,3.399602890E0,1.106680489E1
1.415040709E1,1.238883972E0,3.052643538E0,1.240558910E1
1.417051719E1,1.618146300E0,3.210569859E0,1.367916870E1
1.419062735E1,9.014959335E-1,3.425325632E0,1.272204018E1
1.421073750E1,5.126622319E-1,3.479164124E0,1.115174961E1
1.423084761E1,5.718846321E-1,3.451646566E0,1.084786129E1
1.425095776E1,1.133001566E0,2.933600664E0,1.213460159E1
1.427106787E1,1.935793519E0,2.018345833E0,1.389093399E1
1.429117802E1,1.871785522E0,1.532602906E0,1.486541080E1
1.431128813E1,9.906286001E-1,1.622333765E0,1.387956810E1
1.433139828E1,4.235295951E-1,2.130210400E0,1.144666576E1
1.435150839E1,3.990031779E-1,2.261815548E0,9.696913719E0
1.437161854E1,6.987041831E-1,1.956132531E0,8.569893837E0
1.439172870E1,8.871390224E-1,1.600200176E0,8.057829857E0
1.441183881E1,8.500502706E-1,1.515853167E0,7.975277901E0
1.443194896E1,6.831508875E-1,1.563111424E0,7.629515171E0
1.445205907E1,5.994020700E-1,1.587039590E0,6.930810928E0
1.447216922E1,5.665007830E-1,1.664806366E0,6.336194515E0
1.449227933E1,4.881358147E-1,1.832303882E0,6.000002861E0
1.451238948E1,4.432703853E-1,1.900499344E0,5.775077343E0
1.453249964E1,3.314059377E-1,1.926222205E0,5.868397713E0
1.455260974E1,1.423729509E-1,2.063809633E0,6.276971817E0
1.457271990E1,7.716853172E-2,2.289333105E0,6.555137634E0
1.459283000E1,1.866401732E-1,2.526222467E0,7.043273449E0
1.461294016E1,2.338984162E-1,2.853441000E0,7.530810833E0
1.463305026E1,3.152543902E-1,3.182454109E0,7.749155998E0
1.465316042E1,4.133601189E-1,3.303889751E0,8.289934158E0
1.467327052E1,6.460621357E-1,3.093321562E0,9.072386742E0
1.469338068E1,8.135597110E-1,2.926422119E0,1.000678444E1
1.471349079E1,7.609176040E-1,2.983251572E0,1.077248764E1
1.473360094E1,4.085744619E-1,3.196212769E0,1.052782154E1
1.475371110E1,8.973085135E-2,3.390031576E0,9.829116821E0
1.477382120E1,3.002992272E-1,3.451048374E0,9.557532310E0
1.479393136E1,7.351947427E-1,3.501297712E0,9.696315765E0
1.481404146E1,8.512466550E-1,3.537189960E0,9.998409271E0
1.483415162E1,4.061816335E-1,3.550350666E0,1.034417248E1
1.485426172E1,-3.948157281E-2,3.436093330E0,1.060020447E1
1.487437188E1,1.555334777E-1,3.349951744E0,1.069232845E1
1.489448198E1,8.207381964E-1,3.399004459E0,1.096032429E1
1.491459214E1,8.721838593E-1,3.574278831E0,1.132582760E1
1.493470224E1,3.284149170E-1,3.559921980E0,1.121515942E1
1.495481240E1,8.554340899E-2,3.221337557E0,1.096451187E1
1.497492256E1,1.268195957E-1,2.829512835E0,1.148255730E1
1.499503266E1,3.116651475E-1,2.384447813E0,1.241456223E1
1.501514282E1,2.662015259E-1,2.037488461E0,1.336152172E1
1.503525292E1,-1.579262912E-1,1.734198213E0,1.396032524E1
1.505536308E1,-8.177471161E-1,1.470389485E0,1.378385448E1
1.507547318E1,-1.197009563E0,1.573879123E0,1.227517986E1
1.509558334E1,-1.321436286E0,2.011167526E0,1.044108200E1
1.511569344E1,-1.003789067E0,2.057827473E0,9.288937569E0
1.513580360E1,-3.996013701E-1,1.834696770E0,9.081359863E0
1.515591370E1,1.902294010E-1,1.625324726E0,9.728020668E0
1.517602386E1,2.554338276E-1,1.506880045E0,9.650852203E0
1.519613396E1,-5.443671346E-2,1.448255897E0,8.843274117E0
1.521624412E1,-1.680957973E-1,1.378265858E0,8.167900085E0
1.523635422E1,-1.561316848E-1,1.304686546E0,7.411170006E0
1.525646438E1,-2.117647976E-1,1.424327731E0,6.936792850E0
1.527657454E1,-6.400800496E-2,1.484148264E0,6.867999077E0
1.529668464E1,2.452643216E-2,1.588235974E0,6.803392887E0
1.531679480E1,-1.429711580E-1,1.949552298E0,6.912266254E0
1.533690490E1,-1.076770201E-1,2.307279348E0,7.145566463E0
1.535701506E1,4.606183618E-2,2.484348059E0,7.325626373E0
1.537712516E1,3.230310604E-2,2.554936409E0,7.239484787E0
1.539723532E1,-4.366901144E-2,2.507079840E0,7.558328629E0
1.541734542E1,1.190429255E-1,2.488535643E0,8.479565620E0
1.543745558E1,3.451646566E-1,2.625524759E0,9.165707588E0
1.545756568E1,3.655036688E-1,2.779263496E0,9.153144836E0
1.547767584E1,8.374879137E-3,2.911466837E0,9.105886459E0
1.549778594E1,-2.189432681E-1,2.967698336E0,9.238089561E0
1.551789610E1,-2.165504545E-1,3.029911757E0,9.572486877E0
1.553800620E1,-2.548356056E-1,3.114258766E0,9.878170013E0
1.555811636E1,-2.075773627E-1,3.258426189E0,1.028913784E1
1.557822646E1,-4.426721856E-2,3.412165165E0,1.057029438E1
1.559833662E1,3.349951804E-1,3.480360508E0,1.073898792E1
1.561844672E1,8.303094506E-1,3.631706476E0,1.098724365E1
1.563855688E1,8.703892231E-1,4.100101471E0,1.119242764E1
1.565866698E1,7.956135273E-1,4.377070904E0,1.085922718E1
1.567877714E1,1.066600680E0,4.386641979E0,1.069531918E1
1.569888724E1,1.289731383E0,4.111467361E0,1.177089310E1
1.571899740E1,1.403988719E0,3.637688637E0,1.374676609E1
1.573910756E1,1.185643673E0,3.212364435E0,1.463211060E1
1.575921766E1,8.961120844E-1,2.831307411E0,1.363310719E1
1.577932776E1,7.806583643E-1,2.444268227E0,1.155374432E1
1.579943792E1,6.945167780E-1,2.114656925E0,1.065763187E1
1.581954802E1,6.167500615E-1,1.945364833E0,1.058824062E1
1.583965818E1,2.548356056E-1,2.022533417E0,9.905089378E0
1.585976834E1,1.585244983E-1,1.860419631E0,9.177073479E0
1.587987844E1,5.036891699E-1,1.627119422E0,9.163313866E0
1.589998860E1,8.709874153E-1,1.682154298E0,9.491130829E0
1.592009870E1,8.123632669E-1,1.835294962E0,8.717052460E0
1.594020886E1,6.382854581E-1,2.072782516E0,7.646862984E0
1.596031896E1,5.700899959E-1,2.243869543E0,6.592226505E0
1.598042912E1,4.271188378E-1,2.447259426E0,5.560919762E0
1.600053922E1,6.604190469E-1,2.517249346E0,4.862813950E0
1.602064938E1,9.678967595E-1,2.583052158E0,4.938187599E0
1.604075948E1,1.140179992E0,2.680559635E0,6.121438503E0
1.606086959E1,9.200403094E-1,2.788834810E0,7.347161770E0
1.608097974E1,2.027917206E-1,2.877369165E0,8.160123825E0
1.610108985E1,-4.468596280E-1,2.849851847E0,9.037093163E0
1.612120000E1,-5.216353536E-1,2.667398930E0,9.875179291E0
1.614131011E1,-2.452643216E-1,2.572284460E0,1.030349445E1
1.616142026E1,8.374879137E-3,2.751147747E0,1.002891827E1
1.618153037E1,-1.860419661E-1,3.291327477E0,8.699705124E0
1.620164052E1,-5.054838061E-1,3.833899975E0,7.134200573E0
1.622175063E1,-4.803591371E-1,4.146761417E0,6.646663189E0
1.624186078E1,-1.752742529E-1,4.158127785E0,7.619345665E0
1.626197089E1,3.158525825E-1,3.726821184E0,9.311669350E0
1.628208104E1,6.017948985E-1,3.348755360E0,1.036570740E1
1.630219115E1,4.803591371E-1,3.416352510E0,1.044287586E1
1.632230131E1,2.494517565E-1,3.510869026E0,9.684949875E0
1.634241141E1,-3.888336942E-2,3.733401537E0,8.833703041E0
1.636252157E1,-1.848455518E-1,4.015754700E0,8.674580574E0
1.638263167E1,-1.914258152E-1,4.359723091E0,8.955139160E0
1.640274183E1,-3.284149170E-1,4.629513741E0,9.375079155E0
1.642285193E1,-1.710868180E-1,4.496113777E0,1.012104130E1
1.644296209E1,1.639083475E-1,4.407579422E0,1.141735363E1
1.646307219E1,2.165504545E-1,4.384847641E0,1.298345566E1
1.648318235E1,3.672982752E-1,3.508476257E0,1.401655674E1
1.650329245E1,5.294120312E-1,2.800200701E0,1.499103355E1
1.652340261E1,3.978067636E-1,2.509472847E0,1.544208050E1
1.654351271E1,1.447657645E-1,2.508874655E0,1.384427357E1
1.656362287E1,-3.649054468E-2,2.661417007E0,1.210708427E1
1.658373297E1,-2.691925466E-1,2.910270452E0,1.121994495E1
1.660384308E1,-7.633104324E-1,2.853441000E0,1.029571724E1
1.662395323E1,-1.118046403E0,2.377867460E0,9.906285286E0
1.664406334E1,-9.433703423E-1,1.932204247E0,1.022692394E1
1.666417349E1,-4.803591371E-1,1.660618901E0,1.017368412E1
1.668428360E1,-2.817548811E-1,1.540977836E0,9.440283775E0
1.670439375E1,-3.140579760E-1,1.572084427E0,8.149953842E0
1.672450386E1,-7.112665176E-1,1.957927108E0,6.652645111E0
1.674461401E1,-1.018146038E0,2.318047047E0,5.892923832E0
1.676472412E1,-9.427721500E-1,2.276172638E0,6.218348026E0
1.678483427E1,-8.021938205E-1,2.177468538E0,7.054041386E0
1.680494438E1,-5.449653864E-1,2.056631088E0,7.223333359E0
1.682505454E1,-3.176472187E-1,2.140379906E0,6.518647194E0
1.684516464E1,-2.081755698E-1,2.428116798E0,5.964110374E0
1.686527480E1,-1.818545163E-1,2.665006161E0,5.893522263E0
1.688538490E1,-2.129612118E-1,2.792423964E0,6.115456581E0
1.690549500E1,-1.070788130E-1,2.873181820E0,6.716054916E0
1.692560516E1,1.142572835E-1,2.905484915E0,7.363313675E0
1.694571526E1,2.506481707E-1,2.958725214E0,7.923832417E0
1.696582542E1,1.537388563E-1,3.104089260E0,8.385646820E0
1.698593552E1,-7.058826834E-2,3.223132133E0,8.561519623E0
1.700604568E1,-1.776670814E-1,3.330210924E0,8.761320114E0
1.702615578E1,-4.666004330E-2,3.325425386E0,9.347561836E0
1.704626594E1,1.106680483E-1,3.471985579E0,9.848259926E0
1.706637605E1,1.148554832E-1,3.834498405E0,9.900901794E0
1.708648620E1,4.546362907E-2,3.934996843E0,9.744770050E0
1.710659631E1,1.292124242E-1,3.828516245E0,9.945767403E0
1.712670646E1,4.510470629E-1,3.795016766E0,1.023709393E1
1.714681657E1,6.723831892E-1,4.044468403E0,1.039442158E1
1.716692667E1,8.835497499E-1,3.836292982E0,1.057627583E1
1.718703683E1,5.880361795E-1,3.424129248E0,1.135274696E1
1.720714693E1,1.794616925E-3,3.281157970E0,1.220279694E1
1.722725709E1,-3.738785386E-1,3.115455151E0,1.246002579E1
1.724736719E1,-1.471585929E-1,2.908475876E0,1.217049408E1
1.726747735E1,5.324030519E-1,2.751147747E0,1.217946720E1
1.728758745E1,1.085743308E0,2.664407969E0,1.269093323E1
1.730769756E1,1.063609719E0,2.547757864E0,1.299422359E1
1.732780771E1,6.957131624E-1,2.523231506E0,1.233559895E1
1.734791782E1,5.132604837E-1,2.605783939E0,1.133360481E1
1.736802797E1,5.521438122E-1,2.446661234E0,1.054935646E1
1.738813808E1,6.723831892E-1,2.213361025E0,1.041655540E1
1.740824823E1,8.141579032E-1,2.143370867E0,1.056490993E1
1.742835834E1,8.811569214E-1,2.079961061E0,1.024128056E1
1.744846849E1,8.560323119E-1,2.102692842E0,9.519845009E0
1.746857860E1,8.997012973E-1,2.098505497E0,8.740981102E0
1.748868870E1,8.327022791E-1,1.990230203E0,8.187042236E0
1.750879886E1,7.232306600E-1,1.964507341E0,7.775477409E0
1.752890896E1,4.642075896E-1,2.108076811E0,7.469195843E0
1.754901912E1,2.356930375E-1,2.213361025E0,6.865606308E0
1.756912922E1,1.286142170E-1,2.223530531E0,6.108277798E0
1.758923938E1,2.165504545E-1,2.262413740E0,6.143572330E0
1.760934948E1,4.660021961E-1,2.340180635E0,7.098308563E0
1.762945959E1,5.515456200E-1,2.370090723E0,7.543373585E0
1.764956974E1,3.744767308E-1,2.503490686E0,7.391428947E0
1.766967985E1,2.464607358E-1,2.667997360E0,7.242475986E0
1.768979000E1,1.525424421E-1,2.809772015E0,7.494918823E0
1.770990011E1,1.986042857E-1,2.868994236E0,8.016553879E0
1.773001026E1,2.919243574E-1,3.013760090E0,8.414958954E0
1.775012037E1,3.511467278E-1,3.212962627E0,8.504091263E0
1.777023047E1,4.019941986E-1,3.185445070E0,8.521439552E0
1.779034063E1,4.372883439E-1,3.102892876E0,9.156135559E0
1.781045073E1,3.487538993E-1,3.135195971E0,1.000917721E1
1.783056089E1,1.298106313E-1,3.158525944E0,1.070369434E1
1.785067099E1,-1.076770201E-1,3.146561861E0,1.050209904E1
1.787078110E1,-3.762713671E-1,3.263810158E0,1.024487019E1
1.789089125E1,-5.198407173E-1,3.434896946E0,1.067318535E1
1.791100136E1,-3.379862010E-1,3.499503136E0,1.138804150E1
1.793111151E1,-4.366901144E-2,3.648456335E0,1.206102276E1
1.795122162E1,1.872383654E-1,3.798605919E0,1.224467182E1
1.797133177E1,2.584248483E-1,3.790230989E0,1.219502068E1
1.799144188E1,2.398804724E-1,3.433700562E0,1.238106251E1
1.801155204E1,3.445664644E-1,2.662613392E0,1.264487171E1
1.803166214E1,4.648058116E-1,2.030309916E0,1.348953724E1
1.805177224E1,2.165504545E-1,1.679163337E0,1.425823212E1
1.807188240E1,-2.835494876E-1,1.563709617E0,1.316590881E1
1.809199250E1,-7.100701332E-1,1.654636860E0,1.077906799E1
1.811210266E1,-9.086744189E-1,1.792822361E0,9.235098839E0
1.813221276E1,-1.050449133E0,1.771885157E0,8.871390343E0
1.815232287E1,-1.225723386E0,1.445863128E0,9.923633575E0
1.817243302E1,-9.864411354E-1,9.894321561E-1,1.107577801E1
1.819254313E1,-6.424728632E-1,9.296116233E-1,1.101416302E1
1.821265329E1,-4.468596280E-1,1.039083242E0,9.868598938E0
1.823276339E1,-2.285145670E-1,1.149153113E0,8.623732567E0
1.825287349E1,-1.310070455E-1,1.280160069E0,7.965108395E0
1.827298365E1,-3.529413342E-1,1.362712502E0,7.433901787E0
1.829309375E1,-7.064808607E-1,1.386640668E0,6.848258495E0
1.831320391E1,-9.517452121E-1,1.430907965E0,6.540182590E0
1.833331401E1,-7.854440212E-1,1.601396561E0,7.077371120E0
1.835342412E1,-4.319044948E-1,1.849053741E0,7.825726509E0
1.837353427E1,-3.002992272E-1,2.108675003E0,8.029116631E0
1.839364438E1,-1.980060786E-1,2.164308071E0,7.707880020E0
1.841375454E1,-2.333002165E-2,2.100898266E0,7.873582840E0
1.843386464E1,1.561316848E-1,2.096710920E0,8.588438988E0
1.845397474E1,1.603191197E-1,2.266003132E0,9.081958771E0
1.847408490E1,1.525424421E-1,2.425125837E0,9.236893654E0
1.849419500E1,2.099701911E-1,2.507079840E0,9.320642471E0
1.851430516E1,3.092723191E-1,2.535793781E0,9.430712700E0
1.853441526E1,4.151547253E-1,2.520838737E0,9.445069313E0
1.855452537E1,4.169493318E-1,2.607578516E0,9.555138588E0
1.857463552E1,3.457628787E-1,2.708675146E0,9.775279045E0
1.859474563E1,2.003988922E-1,2.810968399E0,9.776474953E0
1.861485578E1,1.926222295E-1,2.964707375E0,9.556335449E0
1.863496589E1,2.667997181E-1,3.121437073E0,9.111269951E0
1.865507599E1,2.548356056E-1,3.172882795E0,8.888737679E0
1.867518615E1,2.135594189E-1,3.000001431E0,9.369096756E0
1.869529625E1,6.879365444E-2,2.858226538E0,9.963115692E0
1.871540636E1,-2.344966233E-1,2.967698336E0,9.799804688E0
1.873551651E1,-4.486542344E-1,3.052643538E0,9.080761909E0
1.875562662E1,-3.852444589E-1,3.052643538E0,8.634500504E0
1.877573677E1,-6.939185411E-2,2.947359324E0,8.936594009E0
1.879584688E1,1.639083475E-1,2.871985435E0,9.720842361E0
1.881595698E1,1.447657645E-1,2.927618504E0,9.885348320E0
1.883606714E1,-7.956135273E-2,3.046063185E0,9.302098274E0
1.885617724E1,-8.494520187E-2,3.161516905E0,8.651848793E0
1.887628740E1,-2.991028316E-2,3.212364435E0,8.499305725E0
1.889639750E1,-1.974078640E-2,3.203989506E0,8.656036377E0
1.891650761E1,-5.982056726E-3,3.177668571E0,9.075378418E0
1.893661776E1,2.075773627E-1,2.988037348E0,9.739984512E0
1.895672787E1,3.140579760E-1,2.927020311E0,1.014138031E1
1.897683797E1,3.050848842E-1,3.015554667E0,9.815957069E0
1.899694813E1,2.955136001E-1,3.126222849E0,9.372686386E0
1.901705823E1,3.708875179E-1,3.158525944E0,9.363115311E0
1.903716839E1,4.588237405E-1,3.136990547E0,9.473783493E0
1.905727849E1,4.923232496E-1,3.151347399E0,9.494122505E0
1.907738860E1,5.641079545E-1,3.215355396E0,9.506684303E0
1.909749875E1,6.215356588E-1,3.284747362E0,9.362516403E0
1.911760886E1,5.276173949E-1,3.364308596E0,9.114261627E0
1.913771896E1,2.895315289E-1,3.293122053E0,9.153144836E0
1.915782912E1,1.704886109E-1,3.227917671E0,9.394221306E0
1.917793922E1,1.830509305E-1,3.288934708E0,9.511469841E0
1.919804938E1,2.183450609E-1,3.307479143E0,9.490532875E0
1.921815948E1,9.690931439E-2,3.353540897E0,9.418747902E0
1.923826959E1,-6.041877344E-2,3.311068296E0,9.431908607E0
1.925837974E1,-1.112662554E-1,3.236890793E0,9.585647583E0
1.927848985E1,1.256231871E-2,3.210569859E0,9.808179855E0
1.929859995E1,1.447657645E-1,3.241078377E0,9.729815483E0
1.931871011E1,1.776670814E-1,3.279363394E0,9.407979965E0
1.933882021E1,1.387837082E-1,3.299702406E0,9.102297783E0
1.935893037E1,5.383851007E-3,3.314059258E0,8.956335068E0
1.937904047E1,2.512463741E-2,3.232105255E0,9.034101486E0
1.939915058E1,1.429711580E-1,3.144168854E0,9.364909172E0
1.941926073E1,1.160518974E-1,3.224926710E0,9.465408325E0
1.943937084E1,4.247260094E-2,3.202194929E0,9.333803177E0
1.945948094E1,4.546362907E-2,3.159124136E0,9.354740143E0
1.947959110E1,7.238288224E-2,3.218944550E0,9.460622787E0
1.949970120E1,2.105683982E-1,3.252444267E0,9.466604233E0
1.951981131E1,3.080759048E-1,3.303889751E0,9.454042435E0
1.953992146E1,3.463610709E-1,3.319443226E0,9.431908607E0
1.956003157E1,3.529413342E-1,3.303291559E0,9.357132912E0
1.958014167E1,3.559323549E-1,3.314657450E0,9.234500885E0
1.960025183E1,3.978067636E-1,3.318845034E0,9.185447693E0
1.962036193E1,3.906283081E-1,3.352942705E0,9.189037323E0
1.964047209E1,3.391826153E-1,3.384647608E0,9.174081802E0
1.966058219E1,2.614158690E-1,3.390031576E0,9.150752068E0
1.968069230E1,2.841476798E-1,3.388834953E0,9.038289070E0
1.970080245E1,3.068794906E-1,3.394817114E0,9.143573761E0
1.972091256E1,3.308077157E-1,3.382254839E0,9.366703987E0
1.974102266E1,2.847459018E-1,3.374478102E0,9.445667267E0
1.976113282E1,2.093719840E-1,3.349951744E0,9.475577354E0
1.978124292E1,1.794617027E-1,3.357728481E0,9.426525116E0
1.980135302E1,2.356930375E-1,3.375076294E0,9.364909172E0
1.982146318E1,2.679961324E-1,3.377469063E0,9.378668785E0
1.984157329E1,2.446661144E-1,3.408575773E0,9.451051712E0
1.986168344E1,2.057827413E-1,3.430709362E0,9.346963882E0
1.988179354E1,2.303091735E-1,3.409173965E0,9.080163956E0
1.990190365E1,2.416750938E-1,3.341576815E0,9.092127800E0
1.992201375E1,1.112662554E-1,3.346960783E0,9.334401131E0
1.994212391E1,1.794617064E-2,3.388834953E0,9.405587196E0
1.996223401E1,2.153540403E-2,3.361317635E0,9.379864693E0
1.998234412E1,-2.991028363E-3,3.330809116E0,9.415757179E0
2.000245427E1,-2.991028363E-3,3.331407309E0,9.506086349E0
2.002256438E1,1.016949583E-2,3.340978622E0,9.547362328E0
2.004267448E1,7.178468257E-2,3.344567776E0,9.439086914E0
2.006278464E1,1.106680483E-1,3.372085333E0,9.284152031E0
2.008289474E1,1.585244983E-1,3.394218922E0,9.180064201E0
2.010300490E1,1.471585929E-1,3.393620729E0,9.175278664E0
2.012311500E1,1.573280841E-1,3.370888948E0,9.202795982E0
2.014322511E1,1.710868180E-1,3.403790236E0,9.161520004E0
2.016333526E1,1.968096644E-1,3.392424345E0,9.198010445E0
2.018344537E1,1.357926875E-1,3.413959742E0,9.278169632E0
2.020355547E1,1.633101404E-1,3.460619688E0,9.329615593E0
2.022366563E1,4.348955154E-1,3.537189960E0,9.278169632E0
2.024377573E1,6.669993401E-1,3.612564087E0,9.285347939E0
2.026388584E1,6.675975323E-1,3.564707518E0,9.378069878E0
2.028399599E1,4.522434771E-1,3.465405464E0,9.621540070E0
2.030410610E1,1.680957973E-1,3.354737282E0,9.790233612E0
2.032421620E1,-6.580262445E-3,3.268595695E0,9.766903877E0
2.034432636E1,3.828516230E-2,3.259024382E0,9.497711182E0
2.036443646E1,1.004985496E-1,3.324826956E0,9.248259544E0
2.038454657E1,1.603191197E-1,3.349353552E0,9.162715912E0
2.040465672E1,1.591227055E-1,3.285943747E0,9.264410973E0
2.042476683E1,-2.871387079E-2,3.270390272E0,9.400203705E0
2.044487693E1,-1.519442350E-1,3.318845034E0,9.243474007E0
2.046498709E1,-2.333002165E-2,3.288336515E0,9.055039406E0
2.048509719E1,8.554340899E-2,3.301496983E0,9.226125717E0
2.050520730E1,5.982056609E-4,3.325425386E0,9.408578873E0
2.052531745E1,-9.272187948E-2,3.277568817E0,9.367302895E0
2.054542756E1,-5.084748194E-2,3.270988464E0,9.373882294E0
2.056553766E1,8.614161611E-2,3.301496983E0,9.491130829E0
2.058564782E1,1.651047617E-1,3.329612732E0,9.409774780E0
2.060575792E1,1.435693651E-1,3.336791277E0,9.214759827E0
2.062586802E1,4.725824669E-2,3.396611691E0,9.146564484E0
2.064597818E1,4.007977992E-2,3.421736479E0,9.024530411E0
2.066608828E1,1.142572835E-1,3.380460262E0,9.014361382E0
2.068619839E1,2.333002090E-1,3.343969584E0,9.241679192E0
2.070630855E1,2.362912297E-1,3.297907829E0,9.609575272E0
2.072641865E1,1.627119333E-1,3.299702406E0,9.768698692E0
2.074652875E1,6.939185411E-2,3.343371391E0,9.553942680E0
2.076663886E1,1.316052526E-1,3.378067255E0,9.283554077E0
2.078674901E1,2.560320199E-1,3.401397467E0,9.260223389E0
2.080685912E1,2.739782035E-1,3.384647608E0,9.452845573E0
2.082696922E1,2.093719840E-1,3.346362352E0,9.601201057E0
2.084707938E1,1.836491376E-1,3.342773199E0,9.565308571E0
2.086718948E1,2.117647976E-1,3.339782238E0,9.450452805E0
2.088729959E1,1.663011760E-1,3.365504980E0,9.266205788E0
2.090740974E1,2.273181528E-1,3.327818155E0,9.159725189E0
2.092751985E1,2.811566591E-1,3.290729284E0,9.239884377E0
2.094762995E1,1.244267747E-1,3.356531858E0,9.314660072E0
2.096774011E1,9.032905847E-2,3.349951744E0,9.219545364E0
2.098785021E1,1.519442350E-1,3.308077335E0,9.211769104E0
2.100796032E1,1.322034448E-1,3.303889751E0,9.437891006E0
2.102807042E1,7.776673883E-2,3.260818958E0,9.529416084E0
2.104818058E1,6.879365444E-2,3.255435228E0,9.535996437E0
2.106829068E1,1.513460279E-1,3.253042459E0,9.479166985E0
2.108840078E1,1.513460279E-1,3.256033421E0,9.459425926E0
2.110851094E1,1.256231815E-1,3.248854876E0,9.464211464E0
2.112862105E1,9.810572863E-2,3.283550978E0,9.390632629E0
2.114873115E1,1.333998591E-1,3.319443226E0,9.234500885E0
2.116884131E1,1.513460279E-1,3.311068296E0,9.187840462E0
2.118895141E1,1.022931710E-1,3.290729284E0,9.375079155E0
2.120906151E1,3.529413417E-2,3.287140131E0,9.509675026E0
2.122917162E1,-1.316052489E-2,3.290131092E0,9.468997002E0
2.124928177E1,3.529413417E-2,3.282354355E0,9.339784622E0
2.126939188E1,9.750752151E-2,3.281756163E0,9.392427444E0
2.128950198E1,7.298108935E-2,3.291327477E0,9.486345291E0
2.130961214E1,3.050848842E-2,3.285345554E0,9.427123070E0
2.132972224E1,-8.374879137E-3,3.291925669E0,9.212367058E0
2.134983235E1,5.144568533E-2,3.288336515E0,9.262616158E0
2.136994250E1,1.232303679E-1,3.281756163E0,9.410373688E0
2.139005261E1,8.015955985E-2,3.241676569E0,9.487542152E0
2.141016271E1,1.435693540E-2,3.239881754E0,9.500103951E0
2.143027287E1,2.033899166E-2,3.262015581E0,9.373284340E0
2.145038297E1,8.015955985E-2,3.253640652E0,9.251250267E0
2.147049308E1,1.028913707E-1,3.345165968E0,9.150752068E0
2.149060323E1,1.968096644E-1,3.309871912E0,9.172885895E0
2.151071334E1,1.381855011E-1,3.246462107E0,9.390632629E0
2.153082344E1,-7.298108935E-2,3.235694408E0,9.570094109E0
2.155093355E1,-1.447657645E-1,3.207578659E0,9.579067230E0
2.157104365E1,1.615155302E-2,3.232703447E0,9.503693581E0
2.159115381E1,2.392822653E-1,3.230310678E0,9.443872452E0
2.161126391E1,2.799602449E-1,3.219542980E0,9.505488396E0
2.163137401E1,1.944168359E-1,3.202793121E0,9.519247055E0
2.165148417E1,3.050848842E-2,3.251247883E0,9.440881729E0
2.167159427E1,-1.794617064E-2,3.272783279E0,9.203393936E0
2.169170438E1,1.244267747E-1,3.234498024E0,9.086145401E0
2.171181454E1,2.476571500E-1,3.191427231E0,9.361320496E0
2.173192464E1,1.549352705E-1,3.192025423E0,9.591031075E0
2.175203474E1,-1.794617064E-2,3.212962627E0,9.450452805E0
2.177214485E1,-3.589233849E-3,3.215953588E0,9.235098839E0
2.179225500E1,1.124626622E-1,3.235096216E0,9.154341698E0
2.181236511E1,1.884347796E-1,3.240479946E0,9.263215065E0
2.183247521E1,2.297109663E-1,3.224926710E0,9.525827408E0
2.185258532E1,2.045863420E-1,3.244667530E0,9.611968994E0
2.187269547E1,1.627119333E-1,3.240479946E0,9.440283775E0
2.189280558E1,1.698904037E-1,3.227917671E0,9.406186104E0
2.191291568E1,2.297109663E-1,3.247658491E0,9.449256897E0
2.193302584E1,2.081755698E-1,3.297309637E0,9.381659508E0
2.195313594E1,2.751746178E-1,3.255435228E0,9.367302895E0
2.197324604E1,3.212364316E-1,3.217149973E0,9.473184586E0
2.199335615E1,3.272185028E-1,3.278765202E0,9.354142189E0
2.201346631E1,3.858426511E-1,3.314059258E0,9.239286423E0
2.203357641E1,3.188436031E-1,3.326621771E0,9.253643036E0
2.205368651E1,2.015953064E-1,3.323032379E0,9.248259544E0
2.207379662E1,1.686939895E-1,3.282952785E0,9.243474007E0
2.209390677E1,2.069791555E-1,3.251247883E0,9.380462646E0
2.211401688E1,2.213360965E-1,3.257229805E0,9.571888924E0
2.213412698E1,1.998006850E-1,3.233899832E0,9.562317848E0
2.215423714E1,1.860419661E-1,3.231507063E0,9.473184586E0
2.217434724E1,2.189432681E-1,3.269193888E0,9.351749420E0
2.219445735E1,2.937189937E-1,3.295515060E0,9.379266739E0
2.221456745E1,3.672982752E-1,3.267997503E0,9.555737495E0
2.223467761E1,3.290131092E-1,3.257827997E0,9.640682220E0
2.225478771E1,3.720839322E-1,3.236890793E0,9.500103951E0
2.227489782E1,4.097708762E-1,3.279363394E0,9.294321060E0
2.229500792E1,3.481557071E-1,3.317648649E0,9.290732384E0
2.231511808E1,2.697907388E-1,3.303889751E0,9.393025398E0
2.233522818E1,3.134597540E-1,3.283550978E0,9.431310654E0
2.235533829E1,4.504488707E-1,3.290729284E0,9.404391289E0
2.237544839E1,4.677968323E-1,3.308077335E0,9.325428009E0
2.239555854E1,3.463610709E-1,3.288934708E0,9.317651749E0
2.241566865E1,2.111666054E-1,3.240479946E0,9.358329773E0
2.243577875E1,1.166501045E-1,3.242872953E0,9.331410408E0
2.245588886E1,1.040877849E-1,3.192623615E0,9.300303459E0
2.247599901E1,9.690931439E-2,3.165704250E0,9.351749420E0
2.249610912E1,3.290131316E-2,3.314657450E0,9.220144272E0
2.251621922E1,7.058826834E-2,3.329612732E0,9.041878700E0
2.253632933E1,1.471585929E-1,3.251247883E0,9.223134995E0
2.255643948E1,1.663011760E-1,3.237488985E0,9.551549911E0
2.257654959E1,1.746760458E-1,3.235096216E0,9.607781410E0
2.259665969E1,1.298106313E-1,3.275176048E0,9.367900848E0
2.261676985E1,1.429711580E-1,3.317050457E0,9.203991890E0
2.263687995E1,2.338984162E-1,3.312264681E0,9.211171150E0
2.265699006E1,2.548356056E-1,3.297907829E0,9.350552559E0
2.267710016E1,2.171486616E-1,3.294318676E0,9.385847092E0
2.269721032E1,2.392822653E-1,3.293720484E0,9.326025963E0
2.271732042E1,2.542374134E-1,3.299702406E0,9.340981483E0
2.273743052E1,2.093719840E-1,3.281157970E0,9.335597992E0
2.275754063E1,2.069791555E-1,3.290131092E0,9.359525681E0
2.277765079E1,2.829512656E-1,3.305086374E0,9.358927727E0
2.279776089E1,3.541377485E-1,3.302693367E0,9.404391289E0
2.281787099E1,3.690928817E-1,3.286541939E0,9.490532875E0
2.283798110E1,2.566302419E-1,3.290131092E0,9.499505997E0
2.285809120E1,2.153540403E-1,3.299104214E0,9.418149948E0
2.287820136E1,3.284149170E-1,3.306880951E0,9.397810936E0
2.289831146E1,4.654040039E-1,3.302693367E0,9.449854851E0
2.291842157E1,4.570291340E-1,3.305086374E0,9.463015556E0
2.293853167E1,3.714857101E-1,3.307479143E0,9.463015556E0
2.295864183E1,3.445664644E-1,3.251247883E0,9.418747902E0
2.297875193E1,2.715853751E-1,3.284747362E0,9.309276581E0
2.299886204E1,2.350948304E-1,3.392424345E0,9.072985649E0
2.301897214E1,3.595215976E-1,3.339184046E0,9.075976372E0
2.303908230E1,4.061816335E-1,3.242274761E0,9.400801659E0
2.305919240E1,2.751746178E-1,3.214757204E0,9.690931320E0
2.307930250E1,2.099701911E-1,3.205784082E0,9.620942116E0
2.309941261E1,2.093719840E-1,3.252444267E0,9.446864128E0
2.311952271E1,2.823530734E-1,3.256033421E0,9.291928291E0
2.313963287E1,3.696911037E-1,3.250051260E0,9.248259544E0
2.315974297E1,4.354937077E-1,3.256033421E0,9.255437851E0
2.317985308E1,3.433700502E-1,3.303291559E0,9.243474007E0
2.319996318E1,2.578266263E-1,3.294916868E0,9.293125153E0
2.322007328E1,1.872383654E-1,3.249453068E0,9.329615593E0
2.324018344E1,1.722832322E-1,3.206382275E0,9.357730865E0
2.326029354E1,1.950150430E-1,3.229114056E0,9.481559753E0
2.328040365E1,2.554338276E-1,3.247060299E0,9.529416084E0
2.330051375E1,2.769692242E-1,3.280559778E0,9.432506561E0
2.332062391E1,2.757728100E-1,3.303889751E0,9.332606316E0
2.334073401E1,2.817548811E-1,3.311666489E0,9.303294182E0
2.336084412E1,2.608176768E-1,3.299702406E0,9.318847656E0
2.338095422E1,3.062812984E-1,3.269193888E0,9.429515839E0
2.340106438E1,3.367897868E-1,3.235096216E0,9.602995872E0
2.342117448E1,2.356930375E-1,3.253042459E0,9.579665184E0
2.344128459E1,2.135594189E-1,3.271586657E0,9.336793900E0
2.346139469E1,2.859423161E-1,3.242872953E0,9.300303459E0
2.348150480E1,2.775674164E-1,3.309273720E0,9.296115875E0
2.350161495E1,2.703889608E-1,3.367897987E0,9.175876617E0
2.352172506E1,2.925225794E-1,3.302693367E0,9.232108116E0
2.354183516E1,1.980060786E-1,3.253640652E0,9.474979401E0
2.356194526E1,1.339980662E-1,3.202793121E0,9.600603104E0
2.358205537E1,1.507478207E-1,3.196212769E0,9.574879646E0
2.360216552E1,1.860419661E-1,3.222533941E0,9.551549911E0
2.362227563E1,1.782652885E-1,3.238685369E0,9.465408325E0
2.364238573E1,1.417747438E-1,3.239881754E0,9.250054359E0
2.366249584E1,2.129612118E-1,3.256033421E0,9.248259544E0
2.368260594E1,2.656033039E-1,3.328416348E0,9.360123634E0
2.370271610E1,2.267199457E-1,3.314657450E0,9.372686386E0
2.372282620E1,1.262213886E-1,3.234498024E0,9.327222824E0
2.374293631E1,3.050848842E-2,3.200400352E0,9.369096756E0
2.376304641E1,5.623133108E-2,3.207578659E0,9.482755661E0
2.378315651E1,1.429711580E-1,3.229114056E0,9.469595909E0
2.380326667E1,1.519442350E-1,3.268595695E0,9.356534958E0
2.382337677E1,1.633101404E-1,3.267997503E0,9.317651749E0
2.384348688E1,2.237289101E-1,3.272184849E0,9.351749420E0
2.386359698E1,2.769692242E-1,3.295515060E0,9.373284340E0
2.388370709E1,3.026920557E-1,3.285345554E0,9.366106033E0
2.390381724E1,2.446661144E-1,3.267997503E0,9.473184586E0
2.392392735E1,1.411765367E-1,3.281157970E0,9.515657425E0
2.394403745E1,1.447657645E-1,3.272184849E0,9.323633194E0
2.396414756E1,2.195414752E-1,3.220739365E0,9.281160355E0
2.398425766E1,2.362912297E-1,3.303889751E0,9.343374252E0
2.400436782E1,2.356930375E-1,3.299702406E0,9.333803177E0
2.402447792E1,2.099701911E-1,3.183052301E0,9.497113228E0
2.404458802E1,1.573280841E-1,3.168097258E0,9.681958199E0
2.406469813E1,1.734796464E-1,3.169293642E0,9.680762291E0
2.408480823E1,1.884347796E-1,3.189632654E0,9.505488396E0
2.410491839E1,2.548356056E-1,3.248854876E0,9.314062119E0
2.412502849E1,3.379862010E-1,3.269792080E0,9.175278664E0
2.414513860E1,3.768695593E-1,3.272184849E0,9.140582085E0
2.416524870E1,3.565305769E-1,3.304488182E0,9.199206352E0
2.418535881E1,3.248256743E-1,3.296113253E0,9.263215065E0
2.420546896E1,2.428714931E-1,3.272783279E0,9.329615593E0
2.422557907E1,1.304088384E-1,3.248256683E0,9.371489525E0
2.424568917E1,1.118644550E-1,3.244069338E0,9.382855415E0
2.426579927E1,1.716850251E-1,3.242274761E0,9.425328255E0
2.428590938E1,2.057827413E-1,3.233899832E0,9.527023315E0
2.430601954E1,1.399801224E-1,3.239881754E0,9.586245537E0
2.432612964E1,8.494520187E-2,3.250051260E0,9.522835732E0
2.434623974E1,1.561316848E-1,3.260220766E0,9.395418167E0
2.436634985E1,2.267199457E-1,3.284149170E0,9.334401131E0
2.438645995E1,2.117647976E-1,3.274577856E0,9.363115311E0
2.440657006E1,1.633101404E-1,3.245863914E0,9.421140671E0
2.442668021E1,1.585244983E-1,3.264408350E0,9.399605751E0
2.444679032E1,2.195414752E-1,3.276970625E0,9.245866776E0
2.446690042E1,2.685943544E-1,3.209971666E0,9.299705505E0
2.448701052E1,1.328016520E-1,3.269193888E0,9.394221306E0
2.450712063E1,1.124626622E-1,3.317050457E0,9.204590797E0
2.452723078E1,2.392822653E-1,3.277568817E0,9.158528328E0
2.454734089E1,2.877369225E-1,3.255435228E0,9.431310654E0
2.456745099E1,2.333002090E-1,3.237488985E0,9.614959717E0
2.458756110E1,1.728814393E-1,3.239881754E0,9.540184021E0
2.460767120E1,1.633101404E-1,3.273979664E0,9.430712700E0
2.462778131E1,2.368894368E-1,3.286541939E0,9.339186668E0
2.464789146E1,3.044866920E-1,3.286541939E0,9.281759262E0
2.466800157E1,2.715853751E-1,3.312862873E0,9.333204269E0
2.468811167E1,1.752742529E-1,3.297907829E0,9.350552559E0
2.470822177E1,1.046859920E-1,3.246462107E0,9.388239861E0
2.472833188E1,2.153540403E-2,3.224926710E0,9.516854286E0
2.474844204E1,-2.033899166E-2,3.219542980E0,9.561120987E0
2.476855214E1,-1.854437590E-2,3.223730326E0,9.460622787E0
2.478866224E1,-8.374879137E-3,3.294318676E0,9.352945328E0
2.480877235E1,4.187439755E-2,3.289532900E0,9.296713829E0
2.482888245E1,8.913264424E-2,3.272783279E0,9.347561836E0
2.484899256E1,7.956135273E-2,3.278167009E0,9.476176262E0
2.486910271E1,8.673982322E-2,3.278167009E0,9.516854286E0
2.488921282E1,1.615155339E-1,3.273979664E0,9.448060036E0
2.490932292E1,2.189432681E-1,3.259024382E0,9.452247620E0
2.492943302E1,1.752742529E-1,3.226721287E0,9.553344727E0
2.494954313E1,5.982056633E-2,3.236292601E0,9.446265221E0
2.496965323E1,6.879365444E-2,3.260818958E0,9.175876617E0
2.498976339E1,3.122633696E-1,3.165106058E0,8.201997757E0
2.500987349E1,1.339980662E-1,3.457030535E0,7.913662910E0
2.502998360E1,6.999006122E-2,3.146561861E0,1.139581776E1
2.505009370E1,-2.667997181E-1,3.157329559E0,1.062951660E1
