"Time (s)","Acceleration x (m/s^2)","Acceleration y (m/s^2)","Acceleration z (m/s^2)"
4.035028100E-2,-3.739981890E0,4.785645485E0,5.734997749E0
6.022022800E-2,-3.180061340E0,5.005784988E0,6.826723099E0
8.008470800E-2,-1.695314884E0,4.469792843E0,8.483154297E0
9.995465600E-2,-7.860422134E-1,4.115056515E0,8.593224525E0
1.197806970E-1,-1.920838356E0,4.800002098E0,8.186444283E0
1.396890830E-1,-3.002992392E0,5.249852657E0,8.363512993E0
1.595535620E-1,-2.676970243E0,5.044070244E0,8.401798248E0
1.794235100E-1,-2.251047850E0,5.158925533E0,8.042875290E0
1.992880930E-1,-1.992623091E0,5.259424210E0,7.783852100E0
2.191579890E-1,-1.853839397E0,5.297709465E0,8.114660263E0
2.390225200E-1,-1.901695848E0,5.633302689E0,9.129815102E0
2.588924160E-1,-2.284547329E0,5.786443233E0,9.900901794E0
2.787569990E-1,-2.830111027E0,5.944369793E0,1.036032391E1
2.986269470E-1,-3.261417150E0,6.049654007E0,1.103569794E1
3.184914780E-1,-3.567698479E0,5.819942951E0,1.273998642E1
3.383614260E-1,-3.414557934E0,5.197210789E0,1.437308788E1
3.582259060E-1,-3.270988464E0,4.890929699E0,1.354457283E1
3.780959060E-1,-3.060420275E0,5.058426857E0,1.075274658E1
3.979603850E-1,-3.065205812E0,5.542375565E0,8.377870560E0
4.178303330E-1,-3.031706333E0,5.733801365E0,7.808378696E0
4.376948640E-1,-2.614757061E0,5.173282623E0,8.741579056E0
4.575648120E-1,-2.246262312E0,4.421936035E0,9.737591743E0
4.774293430E-1,-1.858624935E0,3.531208038E0,9.646664619E0
4.972992910E-1,-2.332403898E0,3.248256683E0,8.181658745E0
5.171638220E-1,-3.242274761E0,3.842274904E0,6.050850391E0
5.370337700E-1,-3.605983734E0,4.790431023E0,4.963910580E0
5.568982490E-1,-2.950350285E0,5.106283665E0,6.141777515E0
5.767682490E-1,-1.503889084E0,4.277768612E0,7.884948730E0
5.966327280E-1,-6.179464459E-1,3.559921980E0,8.282156944E0
6.165027280E-1,-3.930211067E-1,3.440280676E0,7.846663475E0
6.363672080E-1,-9.104689956E-1,3.732205153E0,7.501499176E0
6.562372080E-1,-1.853839397E0,4.253840446E0,8.263014793E0
6.761016870E-1,-1.494317770E0,3.803989887E0,9.134600639E0
6.959716870E-1,-8.243274093E-1,3.123830080E0,9.038887978E0
7.158361660E-1,-1.130608678E0,3.233899832E0,8.143373489E0
7.357061660E-1,-1.527817249E0,3.827918053E0,7.429714203E0
7.555706450E-1,-1.570888042E0,4.277768612E0,7.870592117E0
7.754406450E-1,-1.465603828E0,4.306482315E0,9.335597992E0
7.953051240E-1,-1.121037364E0,4.024129391E0,1.066181946E1
8.151751240E-1,-1.030110121E0,3.775275946E0,1.124148083E1
8.350396030E-1,-9.008977413E-1,3.842274904E0,1.116012478E1
8.549095510E-1,-4.169493318E-1,4.038486481E0,1.025025368E1
8.747740830E-1,-7.238288224E-2,4.363910198E0,9.144171715E0
8.946440310E-1,3.290131316E-2,4.618147850E0,9.282955170E0
9.145085620E-1,4.785645306E-1,4.153341770E0,1.120798111E1
9.343785100E-1,7.082754970E-1,3.617349625E0,1.283091354E1
9.542429890E-1,6.843472719E-1,3.142972469E0,1.308515072E1
9.741129890E-1,9.511470050E-2,3.047259569E0,1.122712421E1
9.939774680E-1,-6.658028960E-1,3.521636724E0,8.636295319E0
1.013847416E0,-1.178465128E0,4.086342812E0,7.276573658E0
1.033711947E0,-9.726824164E-1,4.244269371E0,7.434499741E0
1.053581895E0,-9.631111473E-2,3.861417532E0,8.157731056E0
1.073446374E0,2.679961324E-1,3.545564890E0,8.229515076E0
1.093316374E0,2.243271172E-1,3.464209080E0,7.808378696E0
1.113180853E0,-2.398804724E-1,3.617349625E0,7.482356548E0
1.133050853E0,-8.530412912E-1,3.933202267E0,7.683353424E0
1.152915333E0,-9.678967595E-1,3.933202267E0,8.042875290E0
1.172785281E0,-8.051848412E-1,3.780061483E0,7.841877937E0
1.192649760E0,-6.801598072E-1,3.765704632E0,6.965506554E0
1.212519708E0,-6.753742099E-1,3.933202267E0,6.309275150E0
1.232384239E0,-4.217349887E-1,4.162913322E0,6.127420425E0
1.252254187E0,-1.441675574E-1,4.406980991E0,6.074778557E0
1.272118666E0,-2.590230405E-1,4.819144726E0,6.294918060E0
1.291988614E0,-7.328019142E-1,5.115854740E0,6.917650223E0
1.311853093E0,-1.331605792E0,5.134997368E0,7.534998417E0
1.331723041E0,-1.700100541E0,5.355136871E0,7.918448448E0
1.351587520E0,-1.728814363E0,5.757729530E0,8.344370842E0
1.371457520E0,-1.752742529E0,6.126224041E0,8.736793518E0
1.391321999E0,-1.791027784E0,6.308078766E0,9.206384659E0
1.411191947E0,-1.580459356E0,6.011368752E0,9.728020668E0
1.431056426E0,-1.546959877E0,5.752943993E0,1.063789082E1
1.450926322E0,-1.935195327E0,5.614160061E0,1.130848026E1
1.470790801E0,-2.609971285E0,5.407779217E0,1.100698376E1
1.490660749E0,-3.223132133E0,5.211567879E0,1.022632599E1
1.510525228E0,-3.227917671E0,4.642076015E0,1.036989498E1
1.530395176E0,-2.686541557E0,3.602992773E0,1.109312534E1
1.550259656E0,-2.662613392E0,2.961117983E0,1.114098263E1
1.570129603E0,-2.844467878E0,2.740978241E0,1.005404282E1
1.589994083E0,-2.533401012E0,2.525624275E0,8.612366676E0
1.609863978E0,-2.327618122E0,2.223530531E0,7.185646534E0
1.629728458E0,-2.815753937E0,2.290529490E0,6.591628075E0
1.649598406E0,-3.481556892E0,2.606980324E0,7.118647575E0
1.669462833E0,-2.614757061E0,2.635694027E0,7.856235027E0
1.689332781E0,-5.270192027E-1,2.280958176E0,7.668996811E0
1.709197260E0,8.997012973E-1,1.850250125E0,7.238288403E0
1.729067156E0,8.087740541E-1,1.658824325E0,7.046862602E0
1.748931635E0,2.530409992E-1,2.051247120E0,7.549355507E0
1.768801583E0,5.694918036E-1,2.434697151E0,8.473583221E0
1.788666010E0,8.949156404E-1,2.626122952E0,8.808578491E0
1.808535958E0,7.274180651E-1,2.266601324E0,8.535796165E0
1.828400385E0,5.790630579E-1,1.677966833E0,8.196015358E0
1.848270333E0,4.354937077E-1,9.547362328E-1,8.377870560E0
1.868134760E0,7.657032609E-1,4.666004181E-1,9.326025963E0
1.888004708E0,1.024128079E0,4.522434771E-1,1.101655579E1
1.907869135E0,5.647061467E-1,6.532405615E-1,1.194018459E1
1.927739083E0,8.183453679E-1,2.703889608E-1,1.300858021E1
1.947603510E0,1.833500385E0,-3.523431420E-1,1.486122322E1
1.967473406E0,1.914856315E0,-3.649054468E-2,1.486600876E1
1.987337885E0,1.191625714E0,2.554338276E-1,1.273519993E1
2.007207781E0,2.291127741E-1,6.963114142E-1,1.126062298E1
2.027072208E0,8.554340899E-2,1.093519926E0,1.081017494E1
2.046942103E0,3.349951804E-1,1.213161111E0,1.142812061E1
2.066806583E0,1.119840980E0,8.590233326E-1,1.243848991E1
2.086676478E0,1.076770186E0,1.366899967E0,1.273998642E1
2.106540906E0,5.455635786E-1,1.673181176E0,1.246241856E1
2.126410801E0,1.292124271E0,1.237089276E0,1.096869946E1
2.146275228E0,1.881356835E0,1.117448211E0,8.717651367E0
2.166145124E0,1.560718536E0,1.630110383E0,7.501499176E0
2.186009551E0,8.422735929E-1,2.175673962E0,7.381857872E0
2.205879447E0,6.652047038E-1,1.984248161E0,7.635497093E0
2.225743874E0,8.470591903E-1,1.768894196E0,7.367500782E0
2.245613770E0,7.274180651E-1,1.907677889E0,6.802794933E0
2.265478197E0,2.434697002E-1,2.362912416E0,6.960721016E0
2.285348093E0,-1.106680483E-1,2.659622431E0,7.539783955E0
2.305212520E0,1.333998591E-1,2.328814745E0,7.803592682E0
2.325082416E0,-1.974078640E-2,2.137388945E0,7.712067604E0
2.344946843E0,-8.673982322E-2,2.151745796E0,7.386643410E0
2.364816739E0,2.482553422E-1,1.826321840E0,7.324429989E0
2.384681166E0,6.125625968E-1,2.377269268E0,7.152146816E0
2.404551010E0,3.062812984E-1,3.018545866E0,7.123433113E0
2.424415437E0,-1.633101404E-1,3.253042459E0,8.038089752E0
2.444285333E0,-9.152546525E-2,3.023331404E0,9.416953087E0
2.464149760E0,1.525424421E-1,2.774477959E0,1.036032391E1
2.484019603E0,-5.700899959E-1,3.397209883E0,1.043210888E1
2.503884031E0,-1.030110121E0,4.057629108E0,9.431310654E0
2.523753874E0,-1.049252748E0,4.689932346E0,9.292527199E0
2.543618301E0,-5.988038778E-1,4.316053867E0,1.045603657E1
2.563488145E0,-2.638086975E-1,3.751347780E0,1.175833035E1
2.583352572E0,-8.338986635E-1,4.024129391E0,1.256291676E1
2.603222416E0,-1.460818172E0,4.469792843E0,1.223270798E1
2.623086843E0,-1.322034478E0,4.608576298E0,1.115533924E1
2.642956687E0,-7.710871100E-1,4.043272018E0,1.107876873E1
2.662821114E0,-9.631111026E-1,3.348755360E0,1.151904774E1
2.682690958E0,-1.719243050E0,2.889333248E0,1.107876873E1
2.702555333E0,-2.361117840E0,2.606980324E0,9.125029564E0
2.722425176E0,-2.399402857E0,2.578266382E0,7.329215527E0
2.742289603E0,-3.017349243E0,3.818346739E0,7.975875854E0
2.762159447E0,-1.786242127E0,3.296113253E0,9.891330719E0
2.782023822E0,-6.897311211E-1,2.602194548E0,1.028375340E1
2.801893718E0,-2.255235314E-1,2.420340061E0,9.235098839E0
2.821758041E0,-4.845465720E-2,2.237887383E0,7.678567886E0
2.841627937E0,-6.370890141E-1,2.449054003E0,6.917650223E0
2.861492364E0,-1.379462242E0,2.539981127E0,7.214360237E0
2.881362156E0,-1.523031592E0,2.425125837E0,7.966304779E0
2.901226583E0,-1.077966571E0,2.285743713E0,8.382656097E0
2.921096374E0,-8.626125455E-1,2.405983210E0,8.085946083E0
2.940960801E0,-7.956135273E-1,2.697907448E0,7.851449490E0
2.960830593E0,-8.291130662E-1,3.085544825E0,7.692924976E0
2.980695020E0,-1.202393413E0,3.808775425E0,7.080362320E0
3.000564864E0,-1.465603828E0,4.555934429E0,6.586842537E0
3.020429187E0,-1.844268084E0,5.350351334E0,6.989434719E0
3.040299031E0,-1.441675663E0,5.450850010E0,8.085946083E0
3.060163406E0,-2.542374134E-1,4.752145767E0,8.962317467E0
3.080148926E0,-6.275177598E-1,5.278566837E0,9.522237778E0
3.099897781E0,-9.487541914E-1,5.666802406E0,9.929615974E0
3.119690489E0,-5.509474277E-1,5.446064472E0,9.939187050E0
3.139631791E0,-2.973082066E-1,5.566303730E0,9.852447510E0
3.159501635E0,2.333002165E-2,5.604588985E0,1.003489971E1
3.179365958E0,6.460621357E-1,5.350351334E0,1.020718288E1
3.199235853E0,1.091127157E0,4.914857864E0,1.017368412E1
3.219100176E0,1.177268744E0,4.680361271E0,1.018325520E1
3.238970020E0,1.009771109E0,4.694717884E0,1.028375340E1
3.258834395E0,8.039883971E-1,4.694717884E0,1.007318497E1
3.278704187E0,6.843472719E-1,4.886143684E0,9.206384659E0
3.298568562E0,9.284151793E-1,5.283352375E0,8.468797684E0
3.318438353E0,1.272981644E0,5.508875847E0,7.884948730E0
3.338302728E0,1.272981644E0,5.178068161E0,7.142575741E0
3.358172520E0,8.853443861E-1,4.670789719E0,6.634698868E0
3.378036895E0,3.589234054E-1,4.287340164E0,6.505486488E0
3.397906687E0,2.338984162E-1,4.344767570E0,7.233502865E0
3.417771062E0,6.556333899E-1,4.627718925E0,8.377870560E0
3.437640853E0,1.091127157E0,4.819144726E0,8.971888542E0
3.457505228E0,1.296909928E0,4.733003139E0,8.449654579E0
3.477375020E0,1.388435364E0,4.546362877E0,7.415357590E0
3.497239343E0,1.508076429E0,4.268197536E0,6.577271461E0
3.517109187E0,1.603789330E0,4.091128349E0,6.208776474E0
3.536973510E0,1.651645780E0,3.995415688E0,5.801996708E0
3.556843301E0,1.354935765E0,4.618147850E0,5.523830891E0
3.576707676E0,9.714859724E-1,5.139782906E0,5.547759533E0
3.596577468E0,8.709874153E-1,5.355136871E0,5.778068542E0
3.616441791E0,3.302095234E-1,5.700301647E0,6.127420425E0
3.636311583E0,-8.051848412E-1,6.260222435E0,6.855436802E0
3.656175906E0,-1.369890928E0,6.193223000E0,7.334001541E0
3.676045697E0,-1.604387641E0,6.159723759E0,8.416155815E0
3.695910020E0,-1.551745534E0,5.863013744E0,1.006361389E1
3.715779812E0,-1.709671736E0,5.901299000E0,1.126540947E1
3.735644187E0,-1.494317770E0,6.087938786E0,1.166740322E1
3.755513978E0,-1.178465128E0,6.389434814E0,1.151904774E1
3.775378301E0,-1.044467092E0,6.351149559E0,1.067617607E1
3.795248093E0,-1.379462242E0,6.217151642E0,1.012104130E1
3.815112416E0,-1.365105271E0,5.547161102E0,1.045603657E1
3.834982156E0,-1.791027784E0,4.795216560E0,1.086281681E1
3.854846478E0,-2.198405743E0,4.162913322E0,1.025025368E1
3.874716270E0,-2.571686029E0,4.162913322E0,8.521439552E0
3.894580593E0,-3.385843992E0,4.579862595E0,6.826723099E0
3.914450385E0,-4.037290096E0,4.804787636E0,6.783652306E0
3.934314708E0,-2.858824968E0,3.875774384E0,8.310871124E0
3.954300176E0,-1.307677627E0,2.453839540E0,8.895318031E0
3.974048926E0,8.279166222E-1,1.433898926E0,8.325227737E0
3.993918666E0,1.886142492E0,2.036890268E0,6.975078106E0
4.013782989E0,8.422735929E-1,2.989831924E0,5.231906891E0
4.033652676E0,-1.959123492E0,3.760919094E0,5.667400360E0
4.053516947E0,-5.478367329E0,4.091128349E0,7.884948730E0
4.073386687E0,-5.157729149E0,3.564707518E0,8.837890625E0
4.093251010E0,-2.265404940E0,2.309672117E0,8.196015358E0
4.113120749E0,-8.673982024E-1,1.749751568E0,7.678567886E0
4.132985072E0,-1.374676585E0,3.224328518E0,8.507082939E0
4.152854812E0,-6.897311211E-1,3.947559118E0,9.182456970E0
4.172719135E0,6.077769399E-1,3.507279873E0,9.416953087E0
4.192588874E0,2.051845491E-1,3.957130432E0,9.694520950E0
4.212453197E0,-4.265206456E-1,4.431507587E0,9.728020668E0
4.232322937E0,-3.020938635E-1,4.900500774E0,9.704092026E0
4.252187208E0,-2.829512656E-1,5.450850010E0,9.823733330E0
4.272056999E0,-8.769695163E-1,6.226722717E0,9.991828918E0
4.291921270E0,-8.147560954E-1,6.221937180E0,1.037468052E1
4.311791010E0,1.004985452E0,5.130211830E0,1.097348499E1
4.331655333E0,2.144567251E0,4.570291042E0,1.167697430E1
4.351525072E0,2.197209358E0,5.067998409E0,1.128933716E1
4.371389395E0,1.780858278E0,5.705087185E0,9.862018585E0
4.391259135E0,3.158525825E-1,5.997011662E0,8.688937187E0
4.411123406E0,-1.604387641E0,6.288936138E0,8.234300613E0
4.430993145E0,-1.987837434E0,6.878168583E0,7.635497093E0
4.450857416E0,-5.802594870E-2,6.485147476E0,6.946363926E0
4.470727156E0,1.541576028E0,5.412564754E0,6.855436802E0
4.490591426E0,3.684946895E-1,5.585446358E0,7.075576782E0
4.510461218E0,-6.945167780E-1,5.182853699E0,6.658627033E0
4.530325489E0,-1.101894855E0,4.756931305E0,6.294918060E0
4.550195228E0,-8.961120844E-1,4.742574692E0,6.022136211E0
4.570059499E0,-1.154536963E0,4.852644444E0,5.983851433E0
4.589929239E0,-2.131406784E0,5.058426857E0,6.788437843E0
4.609793510E0,-2.480758905E0,4.847858906E0,7.616354465E0
4.629663249E0,-1.781456470E0,4.378267288E0,7.918448448E0
4.649527520E0,-1.073180914E0,4.225126743E0,7.668996811E0
4.669397260E0,-1.106680512E0,4.642076015E0,7.166503906E0
4.689261531E0,-1.441675663E0,5.015356064E0,6.682555676E0
4.709131270E0,-1.733600020E0,5.130211830E0,6.457630157E0
4.728995541E0,-1.825125456E0,5.130211830E0,6.744768620E0
4.748865281E0,-2.093121529E0,5.283352375E0,7.357929707E0
4.768729551E0,-2.696112871E0,5.695516109E0,8.310871124E0
4.788599291E0,-2.921636343E0,5.906084538E0,9.335597992E0
4.808463562E0,-2.864208698E0,5.829514027E0,9.751948357E0
4.828333249E0,-3.754338741E0,6.102295876E0,1.018325520E1
4.848197520E0,-4.396213531E0,6.298507214E0,1.032203865E1
4.868067260E0,-3.999004841E0,6.327221394E0,9.637093544E0
4.887931531E0,-4.338785648E0,7.131807804E0,9.656235695E0
4.907801270E0,-3.951148272E0,7.031309128E0,1.056610680E1
4.927665541E0,-3.227917671E0,5.930012703E0,1.089153004E1
4.947535281E0,-3.065205812E0,4.838287354E0,1.012104130E1
4.967399551E0,-3.720839262E0,4.272983074E0,7.899305820E0
4.987269239E0,-4.721637249E0,4.809573650E0,5.979065418E0
5.007133510E0,-4.759922504E0,5.240281582E0,6.433701992E0
5.027003197E0,-3.888336897E0,5.072783947E0,7.582854748E0
5.046867468E0,-3.127419233E0,4.747360229E0,8.033304214E0
5.066737208E0,-2.614757061E0,4.306482315E0,7.597211838E0
5.086601478E0,-2.370688915E0,4.086342812E0,6.357131481E0
5.106471166E0,-2.241476536E0,4.196412563E0,5.337191105E0
5.126335437E0,-1.997408748E0,4.330410957E0,5.552545071E0
5.146205124E0,-2.083550215E0,4.220340729E0,6.869793892E0
5.166069395E0,-2.279761791E0,3.708276987E0,7.702496052E0
5.185939135E0,-2.868994236E0,3.535993576E0,7.152146816E0
5.205803353E0,-3.146561861E0,3.813561201E0,5.921638012E0
5.225673041E0,-2.753540754E0,4.148556232E0,5.117051125E0
5.245537312E0,-2.571686029E0,4.737788677E0,5.442475319E0
5.265407051E0,-2.542972326E0,5.206781864E0,6.898507595E0
5.285271270E0,-2.380260229E0,5.182853699E0,7.980661869E0
5.305141010E0,-2.705684185E0,5.585446358E0,8.047660828E0
5.325005176E0,-2.810968399E0,6.226722717E0,7.846663475E0
5.344874968E0,-2.777468920E0,6.634100914E0,8.559724808E0
5.364739187E0,-2.672184706E0,6.547959328E0,9.943972588E0
5.384608926E0,-2.485544443E0,6.456433773E0,1.058524895E1
5.404472989E0,-2.380260229E0,6.595815659E0,1.006839943E1
5.424342833E0,-2.308475733E0,7.002595425E0,9.364311218E0
5.444207103E0,-1.628315806E0,6.959524632E0,9.527023315E0
5.464076791E0,-1.092323542E0,6.500102520E0,1.011625576E1
5.483941062E0,-1.226321578E0,5.973083496E0,1.096869946E1
5.503810749E0,-1.360319614E0,5.499304771E0,1.143290615E1
5.523675020E0,-9.918249846E-1,5.125426292E0,1.067617607E1
5.543544708E0,-7.519445419E-1,5.312066078E0,8.330014229E0
5.563408926E0,-4.552344978E-1,5.853442192E0,6.127420425E0
5.583278614E0,1.429711580E-1,5.762515068E0,5.782854080E0
5.603142885E0,-1.585244983E-1,5.307280540E0,6.841079712E0
5.623012572E0,-3.834498227E-1,4.441078663E0,8.076375008E0
5.642876843E0,-7.136593461E-1,3.751347780E0,7.827520847E0
5.662746478E0,-1.322034478E0,4.095914364E0,6.055635929E0
5.682610749E0,-9.248259664E-1,4.689932346E0,4.868197441E0
5.702480437E0,-3.403790295E-1,5.158925533E0,5.629115105E0
5.722344656E0,-2.973082066E-1,5.192425251E0,6.994220734E0
5.742214343E0,-5.653043389E-1,4.752145767E0,7.692924976E0
5.762078614E0,-7.471588850E-1,4.210769653E0,7.558926582E0
5.781948301E0,-1.121037364E0,4.162913322E0,6.543771744E0
5.801812520E0,-1.197607756E0,4.546362877E0,5.380261898E0
5.821682208E0,-9.391828775E-1,5.048855782E0,4.973481655E0
5.841546426E0,-8.530412912E-1,5.364708424E0,5.437689304E0
5.861416114E0,-1.116251707E0,5.436492920E0,6.132206440E0
5.881241791E0,-1.393819213E0,5.355136871E0,6.994220734E0
5.901149968E0,-1.724028707E0,5.465805054E0,7.721638680E0
5.921014239E0,-2.035693884E0,5.973083496E0,7.961519241E0
5.940883874E0,-1.872981906E0,6.408577442E0,8.330014229E0
5.960748145E0,-1.805384636E0,6.705885410E0,8.952746391E0
5.980617781E0,-2.059622049E0,6.887740135E0,9.814162254E0
6.000482051E0,-2.447259426E0,7.265805721E0,1.060917759E1
6.020351739E0,-2.456830740E0,7.558328629E0,1.098305607E1
6.040215958E0,-2.499901533E0,7.495516777E0,1.094477081E1
6.060085645E0,-3.084348440E0,7.194021225E0,1.060439205E1
6.079949864E0,-3.586841106E0,6.624529362E0,1.076231766E1
6.099819551E0,-3.811766386E0,5.848656654E0,1.098784161E1
6.119799499E0,-4.137788773E0,5.379065514E0,1.045125103E1
6.139553614E0,-4.156930923E0,5.307280540E0,9.388239861E0
6.159417781E0,-3.735196114E0,5.307280540E0,8.234300613E0
6.179287416E0,-3.471985579E0,5.240281582E0,7.467999458E0
6.199151583E0,-3.400201082E0,5.082355499E0,7.032505512E0
6.219021270E0,-3.280559778E0,4.857429981E0,6.841079712E0
6.238885489E0,-3.146561861E0,4.575077057E0,6.903293133E0
6.258755124E0,-2.734398127E0,4.392624378E0,6.936792850E0
6.278619291E0,-2.131406784E0,4.153341770E0,6.951149940E0
6.298488978E0,-1.925624013E0,3.870988846E0,6.759724140E0
6.318353197E0,-2.303689957E0,3.646063566E0,6.232704639E0
6.338222833E0,-3.108276606E0,3.502494097E0,5.576473236E0
6.358087051E0,-3.725624800E0,3.540779352E0,5.385047436E0
6.377956687E0,-3.649054527E0,3.669991732E0,5.619544029E0
6.397820906E0,-3.242274761E0,3.885345697E0,5.825924873E0
6.417690593E0,-3.184846878E0,4.086342812E0,6.041278839E0
6.437554760E0,-3.251846075E0,4.387838364E0,6.452844620E0
6.457424447E0,-2.935993433E0,4.651647091E0,6.735197544E0
6.477288614E0,-2.586043119E0,5.111069202E0,6.739983082E0
6.497158301E0,-2.777468920E0,5.886941910E0,6.582056999E0
6.517022468E0,-2.791825771E0,6.509674072E0,6.730412006E0
6.536892156E0,-2.864208698E0,6.614958286E0,6.970292568E0
6.556756322E0,-3.060420275E0,6.538387775E0,7.463213921E0
6.576626010E0,-2.931207657E0,6.461219311E0,8.583653450E0
6.596490176E0,-2.767897606E0,6.528816700E0,9.589237213E0
6.616359864E0,-2.327618122E0,6.863811970E0,9.958329201E0
6.636224031E0,-1.925624013E0,7.141379356E0,1.006361389E1
6.656093718E0,-1.771885157E0,7.165307522E0,9.771091461E0
6.675957885E0,-1.771885157E0,6.969096184E0,9.555737495E0
6.695827520E0,-1.776670814E0,6.624529362E0,1.024546814E1
6.715691687E0,-1.575673699E0,6.159723759E0,1.134676456E1
6.735561374E0,-1.322034478E0,5.839085579E0,1.156690502E1
6.755425541E0,-7.615157962E-1,5.848656654E0,1.006839943E1
6.775295176E0,-3.595215976E-1,6.107081413E0,7.856235027E0
6.795159395E0,-1.585244983E-1,6.049654007E0,6.529414654E0
6.815029031E0,-4.552344978E-1,5.585446358E0,6.270989895E0
6.834893018E0,-1.006181955E0,5.010570526E0,6.644270420E0
6.854762654E0,-1.259821177E0,4.493721008E0,6.922435760E0
6.874626820E0,-1.460818172E0,4.450650215E0,6.160920143E0
6.894496508E0,-1.432104349E0,4.967499733E0,5.164907455E0
6.914360674E0,-9.678967595E-1,5.364708424E0,5.547759533E0
6.934230310E0,-1.025324464E0,5.402993679E0,6.999006271E0
6.954094477E0,-1.168893814E0,5.034498692E0,7.645068169E0
6.973964112E0,-1.207179070E0,4.790431023E0,7.013363361E0
6.993828279E0,-1.240678549E0,4.934000492E0,6.146563053E0
7.013697914E0,-1.092323542E0,5.163711071E0,5.763711452E0
7.033562133E0,-9.104689956E-1,5.230710506E0,5.801996708E0
7.053431716E0,-9.631111026E-1,5.288137913E0,5.916851997E0
7.073295935E0,-1.259821177E0,5.393422127E0,5.888138294E0
7.093165518E0,-1.546959877E0,5.537590027E0,6.026922226E0
7.113029685E0,-1.781456470E0,5.810371399E0,6.404987812E0
7.132899320E0,-1.906481385E0,6.198009014E0,6.798008919E0
7.152763487E0,-1.930409670E0,6.619743824E0,7.448856831E0
7.172633122E0,-1.805384636E0,6.796812534E0,8.229515076E0
7.192497289E0,-1.767099500E0,6.863811970E0,8.688937187E0
7.212366924E0,-1.834696770E0,7.083951473E0,8.871390343E0
7.232231091E0,-1.906481385E0,7.399804115E0,9.153742790E0
7.252100727E0,-1.992623091E0,7.811967850E0,9.235098839E0
7.271964841E0,-1.959123492E0,7.993822098E0,9.081958771E0
7.291834477E0,-2.351546526E0,7.859824181E0,9.488738060E0
7.311698643E0,-2.926422119E0,7.308876991E0,1.053260708E1
7.331568279E0,-3.419343472E0,6.887740135E0,1.125105190E1
7.351432445E0,-3.548556089E0,6.475576401E0,1.113141060E1
7.371302029E0,-3.247060299E0,6.102295876E0,9.718449593E0
7.391166195E0,-2.955136061E0,5.949155331E0,7.745566845E0
7.411035831E0,-3.247060299E0,5.934798241E0,6.558128834E0
7.430899997E0,-3.999004841E0,5.992226124E0,6.653841496E0
7.450769581E0,-3.917648792E0,5.671587944E0,7.837092400E0
7.470633747E0,-3.055634499E0,5.039284706E0,8.420941353E0
7.490503331E0,-2.581257343E0,4.886143684E0,7.257431030E0
7.510367549E0,-2.227119684E0,4.895715237E0,5.064409256E0
7.530237133E0,-2.011765718E0,4.967499733E0,3.675973892E0
7.550101299E0,-2.385046005E0,5.058426857E0,4.475176334E0
7.569970883E0,-2.988635540E0,4.728217602E0,6.812366009E0
7.589835049E0,-2.676970243E0,3.894917011E0,7.764709473E0
7.609704685E0,-2.696112871E0,3.847060680E0,6.672984123E0
7.629684529E0,-2.955136061E0,4.579862595E0,5.370690346E0
7.649438591E0,-3.337987661E0,5.192425251E0,5.164907455E0
7.669302758E0,-3.175275564E0,5.470590591E0,6.127420425E0
7.689172289E0,-2.069193363E0,5.494519234E0,7.420143127E0
7.709036404E0,-1.647458434E0,5.585446358E0,8.062017441E0
7.728905987E0,-2.375474691E0,5.872584820E0,8.416155815E0
7.748770154E0,-2.825325251E0,6.231508255E0,9.369096756E0
7.768639685E0,-2.174477577E0,6.629314899E0,9.689735413E0
7.788503852E0,-1.575673699E0,7.012166977E0,8.296514511E0
7.808373435E0,-1.892124534E0,7.433303356E0,7.649854183E0
7.828237602E0,-2.145763636E0,7.127022266E0,9.723235130E0
7.848107185E0,-1.633101463E0,5.930012703E0,1.288834095E1
7.867971352E0,-1.896910191E0,5.480162144E0,1.295055389E1
7.887840935E0,-2.121835470E0,5.896512985E0,9.809376717E0
7.907705102E0,-2.188834429E0,6.135795593E0,7.415357590E0
7.927574685E0,-2.566900492E0,5.757729530E0,7.324429989E0
7.947438852E0,-2.873780012E0,5.240281582E0,8.057231903E0
7.967308435E0,-2.456830740E0,4.642076015E0,8.535796165E0
7.987172549E0,-2.002194405E0,4.536791801E0,8.636295319E0
8.007042133E0,-2.021337032E0,5.149354458E0,7.118647575E0
8.026906299E0,-2.284547329E0,5.431707382E0,2.569293261E0
8.046775883E0,-2.150549412E0,4.622933388E0,5.916851997E0
8.066640049E0,-3.261417150E0,4.651647091E0,1.025503922E1
8.086509633E0,-3.970290899E0,4.402195454E0,7.434499741E0
8.136791156E0,-2.456830740E0,6.064010620E0,6.237490654E0
8.156654593E0,-1.800599098E0,5.642873764E0,7.937591076E0
8.176523551E0,-1.432104349E0,5.144568920E0,8.569295883E0
8.196386989E0,-1.680957913E0,5.024927616E0,8.196015358E0
8.216255895E0,-2.337189436E0,5.465805054E0,7.578069210E0
8.236119333E0,-2.638685226E0,5.786443233E0,7.424928665E0
8.255988239E0,-2.016551256E0,5.843871117E0,7.832306862E0
8.275851728E0,-1.532602906E0,5.934798241E0,8.085946083E0
8.295720635E0,-1.436890006E0,5.920441628E0,7.999804497E0
8.315584072E0,-1.446461320E0,5.738586903E0,7.932805061E0
8.335452978E0,-1.757528186E0,5.896512985E0,8.114660263E0
8.355316416E0,-2.160120726E0,6.250650883E0,8.406583786E0
8.375185322E0,-2.710469961E0,6.691528320E0,8.799007416E0
8.395164541E0,-3.270988464E0,7.127022266E0,9.775876999E0
8.415033551E0,-3.017349243E0,6.921239376E0,1.102134132E1
8.434781468E0,-2.878565550E0,6.456433773E0,1.142333508E1
8.454650322E0,-3.467200041E0,6.044867992E0,1.061396313E1
8.474513708E0,-4.429712772E0,5.824728489E0,9.373882294E0
8.494382562E0,-4.908277512E0,5.767300606E0,9.139386177E0
8.514246051E0,-4.123431683E0,5.791228771E0,1.009711361E1
8.534114906E0,-2.442473650E0,5.547161102E0,1.063789082E1
8.553978291E0,-1.207179070E0,4.742574692E0,9.665806770E0
8.573847197E0,-1.188036442E0,4.000201225E0,7.530212879E0
8.593710687E0,-2.093121529E0,4.253840446E0,5.657829285E0
8.613579593E0,-3.725624800E0,5.225924492E0,6.007779598E0
8.633443031E0,-3.524627686E0,5.154139996E0,8.095517159E0
8.653311885E0,-1.637887120E0,4.210769653E0,9.000602722E0
8.673175374E0,2.811566554E-2,3.435495138E0,7.506284714E0
8.693044281E0,-1.345962733E-1,3.574278831E0,5.399404526E0
8.712907718E0,-1.930409670E0,4.387838364E0,4.609174728E0
8.732776624E0,-3.400201082E0,4.905286312E0,5.998208046E0
8.752640114E0,-2.950350285E0,4.210769653E0,8.358727455E0
8.772509020E0,-2.212762833E0,3.296113253E0,9.321240425E0
8.792372458E0,-2.490330219E0,3.229114056E0,8.521439552E0
8.812241364E0,-2.921636343E0,3.990629911E0,7.051648140E0
8.832104853E0,-2.892922640E0,4.670789719E0,5.983851433E0
8.851973760E0,-2.763111830E0,5.307280540E0,5.983851433E0
8.871837249E0,-1.863410592E0,5.312066078E0,6.672984123E0
8.891706156E0,-1.566102386E0,5.000999451E0,6.989434719E0
8.911569593E0,-2.504687071E0,4.919643402E0,7.147361279E0
8.931361572E0,-3.883551121E0,4.929214478E0,7.856235027E0
8.951301937E0,-5.617151260E0,5.187639713E0,1.022154045E1
8.971170843E0,-5.425725460E0,4.575077057E0,1.262513065E1
8.991034333E0,-3.960719585E0,3.593421459E0,1.343928814E1
9.010903291E0,-3.304488182E0,3.497708559E0,1.281177044E1
9.030766781E0,-2.595614433E0,4.105485439E0,1.200778198E1
9.050635687E0,-2.643470764E0,4.325624943E0,1.213699436E1
9.070499176E0,-3.768695593E0,4.263411522E0,1.311865044E1
9.090368135E0,-4.324428558E0,3.602992773E0,1.319043446E1
9.110231572E0,-4.448855400E0,2.812762976E0,1.156690502E1
9.130100478E0,-4.400999069E0,2.908475876E0,9.153742790E0
9.149963968E0,-4.046861172E0,4.004986763E0,7.314858913E0
9.169832926E0,-3.385843992E0,4.406980991E0,6.093921185E0
9.189696364E0,-3.261417150E0,4.253840446E0,5.332405090E0
9.209565270E0,-2.950350285E0,3.468994617E0,5.040481091E0
9.229428760E0,-2.672184706E0,3.300898790E0,5.145765305E0
9.249297666E0,-3.117847919E0,3.411566973E0,5.787639618E0
9.269161156E0,-3.811766386E0,3.090330362E0,6.543771744E0
9.289030062E0,-4.166502476E0,2.846262455E0,6.653841496E0
9.308893551E0,-3.859622955E0,2.951546669E0,5.878567219E0
9.328762458E0,-3.558127165E0,3.674777269E0,5.490331650E0
9.348625947E0,-2.926422119E0,3.985844374E0,5.825924873E0
9.368494853E0,-2.791825771E0,4.124628067E0,6.036493301E0
9.388358291E0,-3.146561861E0,4.416552544E0,6.275775433E0
9.408227249E0,-2.940778971E0,4.493721008E0,6.567699909E0
9.428090739E0,-2.787040234E0,4.167698860E0,6.404987812E0
9.447959645E0,-3.194418192E0,4.441078663E0,5.883352757E0
9.467823135E0,-4.290929317E0,4.867001057E0,6.984649181E0
9.487692093E0,-4.688137531E0,4.991427898E0,9.550951958E0
9.507555531E0,-3.184846878E0,5.058426857E0,1.121276665E1
9.527424489E0,-1.906481385E0,4.972285271E0,1.127976608E1
9.547287978E0,-2.227119684E0,4.934000492E0,1.068096161E1
9.567156885E0,-3.304488182E0,5.412564754E0,1.056610680E1
9.587020374E0,-3.917648792E0,5.063212872E0,1.116969585E1
9.606889281E0,-4.003790379E0,4.091128349E0,1.166261768E1
9.626752770E0,-4.176073551E0,3.760919094E0,1.129890823E1
9.646621676E0,-3.845266104E0,3.555136204E0,1.021675491E1
9.666485166E0,-3.629911900E0,3.478565931E0,9.091529846E0
9.686354072E0,-3.582055569E0,3.741776466E0,8.186444283E0
9.706217562E0,-3.639483213E0,4.119842529E0,7.827520847E0
9.726086520E0,-3.534198999E0,4.335196495E0,7.783852100E0
9.745949958E0,-2.830111027E0,4.028914928E0,7.794021606E0
9.765818916E0,-1.853839397E0,3.488137245E0,7.611568928E0
9.785682353E0,-1.020538807E0,2.989831924E0,7.214360237E0
9.805551312E0,-7.567301393E-1,2.654836655E0,6.562914371E0
9.825414749E0,-1.417747378E0,2.760120869E0,6.409773827E0
9.845283656E0,-2.361117840E0,3.047259569E0,6.917650223E0
9.865147145E0,-2.308475733E0,3.056830883E0,7.334001541E0
9.885016103E0,-1.963909149E0,3.099901676E0,7.133004189E0
9.904879541E0,-1.853839397E0,3.324826956E0,6.505486488E0
9.924748499E0,-1.690529227E0,3.574278831E0,5.897709846E0
9.944611989E0,-1.738385677E0,3.947559118E0,5.787639618E0
9.964480895E0,-1.829911113E0,4.503292084E0,6.696912289E0
9.984344385E0,-1.010967612E0,4.718646049E0,7.937591076E0
1.000421329E1,8.183453679E-1,3.214757204E0,8.487939835E0
1.002407678E1,9.379864931E-1,2.453839540E0,8.215158463E0
1.004394569E1,-2.111666054E-1,3.411566973E0,7.616354465E0
1.006380918E1,-5.892325640E-1,3.904488325E0,7.990232944E0
1.008367814E1,2.482553422E-1,3.531208038E0,1.022154045E1
1.010354157E1,2.379662037E0,2.659622431E0,1.268255806E1
1.012341053E1,4.630111694E0,1.179661512E0,1.361157131E1
1.014327397E1,5.161318302E0,3.373879790E-1,1.378864002E1
1.016314293E1,4.284946918E0,8.590233326E-1,1.409073448E1
1.018278293E1,3.365504980E0,1.467398524E0,1.401356602E1
1.020287532E1,3.385245800E0,1.663609982E0,1.322393417E1
1.022273881E1,3.964308977E0,1.802393675E0,1.262513065E1
1.024260772E1,4.754538536E0,1.735394597E0,1.249591827E1
1.026247121E1,4.859822750E0,6.484549642E-1,1.231406307E1
1.028234017E1,5.438885689E0,6.723831892E-1,1.152383423E1
1.030220366E1,6.052046776E0,1.280160069E0,1.024068260E1
1.032207256E1,5.812764645E0,1.270588875E0,9.115457535E0
1.034193605E1,5.419743061E0,1.117448211E0,9.034101486E0
1.036180496E1,5.094319344E0,7.633104324E-1,9.373882294E0
1.038166845E1,4.429114819E0,4.857429862E-1,9.460023880E0
1.040153735E1,3.643670797E0,6.532405615E-1,8.526225090E0
1.042140084E1,2.886940479E0,1.376471281E0,6.970292568E0
1.044126980E1,2.044068813E0,2.324028969E0,5.423332691E0
1.046113329E1,1.220339537E0,2.865405083E0,4.959125042E0
1.048100220E1,1.302293777E0,2.449054003E0,5.926423550E0
1.050086569E1,1.364507079E0,2.348555326E0,6.294918060E0
1.052073459E1,6.795616150E-1,2.731407166E0,6.304489613E0
1.054059808E1,8.087740541E-1,2.946761131E0,5.806782246E0
1.056046704E1,8.422735929E-1,3.665206194E0,5.255835056E0
1.058033053E1,5.790630579E-1,4.498506546E0,5.212764263E0
1.060019944E1,3.589234054E-1,4.603790760E0,5.322834015E0
1.062006293E1,8.554340899E-2,4.460221291E0,5.538187981E0
1.063993189E1,-5.126622319E-1,5.187639713E0,6.199205399E0
1.065979537E1,-8.769695163E-1,5.709873199E0,7.558926582E0
1.067966428E1,-3.690928817E-1,5.182853699E0,8.521439552E0
1.069952777E1,-4.743770957E-1,5.494519234E0,9.302098274E0
1.071939673E1,2.003988922E-1,5.858228207E0,1.049432182E1
1.073926022E1,1.699502230E0,5.044070244E0,1.190190029E1
1.075912912E1,1.546361685E0,4.436293125E0,1.316650677E1
1.077899261E1,1.477568001E-1,4.095914364E0,1.290269756E1
1.079886157E1,-1.293320656E0,3.952344894E0,1.165783215E1
1.081872501E1,-1.858624935E0,3.602992773E0,1.092562866E1
1.083859397E1,-1.470389485E0,3.090330362E0,1.134676456E1
1.085845746E1,-9.966106415E-1,2.985046148E0,1.199342537E1
1.087832636E1,-9.391828775E-1,3.300898790E0,1.165783215E1
1.089818985E1,-9.966106415E-1,3.540779352E0,1.043210888E1
1.091805881E1,-4.695914388E-1,3.291327477E0,9.211171150E0
1.093792225E1,-1.087537885E0,3.507279873E0,8.263014793E0
1.095779121E1,-1.613958836E0,3.583850145E0,7.808378696E0
1.097765470E1,-1.101894855E0,2.908475876E0,7.444071293E0
1.099752360E1,-1.255035520E0,2.750549555E0,6.218348026E0
1.101738709E1,-1.609173179E0,2.975475073E0,5.073980331E0
1.103725605E1,-1.365105271E0,2.937189817E0,6.256632805E0
1.105711954E1,-1.331605792E0,2.151745796E0,9.507881165E0
1.107698850E1,-1.446461320E0,1.448255897E0,1.172004509E1
1.109685199E1,-8.099704385E-1,2.079961061E0,1.110748291E1
1.111672090E1,2.434697002E-1,3.142972469E0,8.866603851E0
1.113658438E1,5.647061467E-1,4.220340729E0,7.534998417E0
1.115645329E1,9.906286001E-1,4.689932346E0,8.062017441E0
1.117631683E1,1.555932879E0,4.436293125E0,9.239884377E0
1.119618579E1,7.800601721E-1,4.177269936E0,9.259027481E0
1.121604923E1,-2.255235314E-1,4.277768612E0,7.975875854E0
1.123591819E1,-5.078766346E-1,4.900500774E0,6.865008354E0
1.125578168E1,1.764706671E-1,5.426921844E0,6.802794933E0
1.127565058E1,3.876372576E-1,6.001797199E0,7.113861561E0
1.129551407E1,4.067798555E-1,5.977869034E0,7.238288403E0
1.131538303E1,2.003988922E-1,5.647659779E0,7.865806103E0
1.133524647E1,-2.542374134E-1,5.772086620E0,8.291728973E0
1.135511548E1,-2.638086975E-1,6.020939827E0,7.918448448E0
1.137497892E1,3.732803464E-1,6.346364021E0,7.759923935E0
1.139496360E1,1.062413216E0,6.629314899E0,7.803592682E0
1.141471157E1,2.091925144E0,6.332006931E0,8.368298531E0
1.143458048E1,2.355733871E0,6.064010620E0,9.282955170E0
1.145444397E1,1.555932879E0,6.662814617E0,9.814162254E0
1.147431287E1,1.785643935E0,6.696314335E0,9.622735977E0
1.149417636E1,2.288136721E0,6.600601196E0,9.316454887E0
1.151404522E1,2.197209358E0,6.662814617E0,9.034101486E0
1.153390871E1,1.852642894E0,6.720242500E0,8.775078773E0
1.155377761E1,1.900499344E0,6.524031162E0,8.526225090E0
1.157364116E1,2.240280151E0,6.135795593E0,8.842676163E0
1.159351006E1,2.072782516E0,5.858228207E0,8.521439552E0
1.161337360E1,1.680359721E0,5.628517151E0,7.190432072E0
1.163324251E1,1.398006678E0,5.470590591E0,5.897709846E0
1.165310600E1,1.024128079E0,5.417350292E0,4.973481655E0
1.167297496E1,7.609176040E-1,5.359922886E0,5.035695076E0
1.169283845E1,5.982056856E-1,5.044070244E0,5.998208046E0
1.171270735E1,5.168496966E-1,4.622933388E0,7.381857872E0
1.173257084E1,6.508477330E-1,4.301696777E0,7.827520847E0
1.175243980E1,8.614161611E-1,4.296911240E0,6.932007313E0
1.177230329E1,6.604190469E-1,4.627718925E0,5.643472195E0
1.179217225E1,5.599204898E-1,5.034498692E0,5.054837704E0
1.181203574E1,6.939185858E-1,5.245067120E0,5.461617470E0
1.183190470E1,6.652047038E-1,5.585446358E0,5.945566177E0
1.185176819E1,5.503492355E-1,6.135795593E0,6.615556240E0
1.187163715E1,5.982056856E-1,6.533602238E0,7.310073376E0
1.189150058E1,6.508477330E-1,6.830312252E0,7.961519241E0
1.191136954E1,2.291127741E-1,7.289734364E0,8.674580574E0
1.193123303E1,-1.250249892E-1,7.395018578E0,9.436096191E0
1.195110199E1,-6.083751321E-1,7.649255753E0,1.031246758E1
1.197096548E1,-6.945167780E-1,8.070392609E0,1.090588760E1
1.199083444E1,-6.418746710E-1,8.175676346E0,1.031246758E1
1.201069793E1,-7.088736892E-1,7.883752346E0,9.584450722E0
1.203056688E1,-1.058823988E-1,6.581458569E0,1.047039413E1
1.205043037E1,1.038485050E0,4.067200184E0,1.194497108E1
1.207029933E1,3.290131316E-2,3.765704632E0,1.193539906E1
1.209016282E1,-1.944766641E0,5.556732178E0,8.842676163E0
1.211003178E1,-3.989433527E0,8.036892891E0,4.331607342E0
1.212989527E1,-3.591626883E0,7.654041290E0,4.159324169E0
1.214976423E1,-1.575673699E0,5.848656654E0,7.233502865E0
1.216962772E1,-2.160120726E0,5.599802971E0,7.678567886E0
1.218949668E1,-2.279761791E0,5.101497650E0,5.179264545E0
1.220936017E1,-2.054836512E0,5.134997368E0,2.526222467E0
1.222922912E1,-2.274976015E0,5.082355499E0,3.680759430E0
1.224909261E1,-2.452044964E0,4.579862595E0,6.807580471E0
1.226896157E1,-2.380260229E0,3.885345697E0,8.688937187E0
1.228882506E1,-1.618744493E0,3.459423304E0,8.406583786E0
1.230869397E1,-1.546959877E0,3.736990690E0,6.620342255E0
1.232855751E1,-2.054836512E0,4.330410957E0,4.523033142E0
1.234842647E1,-2.662613392E0,4.838287354E0,3.172882795E0
1.236828991E1,-3.280559778E0,5.369493961E0,4.753342152E0
1.238815886E1,-2.456830740E0,5.786443233E0,9.263813019E0
1.240802241E1,1.651645780E0,5.805585861E0,1.321914864E1
1.242789131E1,1.919641972E0,5.412564754E0,1.149033451E1
1.244775480E1,-2.883351326E0,6.231508255E0,7.918448448E0
1.246762376E1,-5.339583874E0,6.801598549E0,8.186444283E0
1.248748730E1,-3.759124279E0,6.538387775E0,1.110269737E1
1.250735626E1,-1.911267042E0,6.677171707E0,1.215613747E1
1.252721975E1,-1.326820135E0,6.844669342E0,1.118405342E1
1.254708866E1,-1.274178028E0,6.543173313E0,1.035075283E1
1.256695220E1,-1.116251707E0,5.571089268E0,1.043689442E1
1.258682116E1,-1.216750264E0,4.685146809E0,1.129412270E1
1.260668459E1,-1.077966571E0,4.100699902E0,1.104526901E1
1.262655360E1,-7.567301393E-1,4.263411522E0,9.129815102E0
1.264641709E1,-7.519445419E-1,4.862215519E0,7.664210796E0
1.266628605E1,-5.796613097E-1,4.890929699E0,7.606783390E0
1.268614954E1,-2.111666054E-1,4.484149456E0,6.869793892E0
1.270601850E1,1.525424421E-1,4.134199142E0,5.667400360E0
1.272588199E1,7.597211748E-2,4.977071285E0,5.672185898E0
1.274575095E1,4.977070987E-1,5.335994720E0,5.552545071E0
1.276561444E1,6.795616150E-1,5.201996326E0,5.667400360E0
1.278548340E1,4.546363056E-1,5.355136871E0,5.873781204E0
1.280534694E1,1.095912814E0,4.986642361E0,5.873781204E0
1.282521590E1,1.052842021E0,5.441278458E0,6.165705681E0
1.284507939E1,7.178468108E-1,5.676373482E0,6.069993019E0
1.286494834E1,2.195414752E-1,5.709873199E0,5.768496990E0
1.288481183E1,-1.202393398E-1,5.872584820E0,5.456831932E0
1.290468079E1,-3.786641955E-1,5.810371399E0,5.251049519E0
1.292454433E1,-3.409772366E-2,5.551946640E0,6.203990936E0
1.294441329E1,9.990034252E-2,5.776872158E0,8.306085587E0
1.296427678E1,-1.298106313E-1,5.748157978E0,1.013539886E1
1.298414574E1,-1.216750264E0,6.016154289E0,1.172004509E1
1.300400923E1,-2.370688915E0,6.873383045E0,1.261555958E1
1.302387819E1,-2.155334949E0,7.184450150E0,1.241456223E1
1.304374168E1,1.854437590E-2,6.107081413E0,1.183011532E1
1.306361064E1,2.338984162E-1,6.054439545E0,1.071924686E1
1.308347418E1,-6.562315822E-1,6.145366669E0,9.924830437E0
1.310334314E1,-1.441675574E-1,5.240281582E0,1.014496994E1
1.312320662E1,-8.673982322E-2,4.488935471E0,1.047039413E1
1.314307558E1,-3.020938635E-1,3.832703590E0,9.531808853E0
1.316293912E1,-1.278963685E0,3.861417532E0,8.148159027E0
1.318257912E1,-2.955136061E0,4.881358147E0,7.453642368E0
1.320267157E1,-4.990231514E0,5.982655048E0,7.070790768E0
1.322254053E1,-3.223132133E0,4.919643402E0,6.672984123E0
1.324240407E1,-1.049252748E0,3.957130432E0,6.682555676E0
1.326227303E1,-5.796613097E-1,4.124628067E0,6.333203316E0
1.328213652E1,-7.716853172E-2,3.904488325E0,5.840281963E0
1.330200548E1,1.375873014E-2,3.665206194E0,5.955137253E0
1.332186897E1,-1.384247899E0,4.287340164E0,7.401000500E0
1.334173798E1,-1.451246977E0,3.531208038E0,7.716853142E0
1.336160147E1,-2.111666054E-1,2.362912416E0,7.037291527E0
1.338147043E1,-5.982056609E-4,2.463410854E0,7.104290485E0
1.340133392E1,-1.202393413E0,3.698705673E0,7.520641804E0
1.342120287E1,-2.648256540E0,4.943571568E0,8.090731621E0
1.344106642E1,-3.199203968E0,5.412564754E0,8.033304214E0
1.346093537E1,-2.926422119E0,5.264209747E0,7.601997375E0
1.348079886E1,-2.576471806E0,4.953142643E0,6.836294174E0
1.350066787E1,-1.719243050E0,4.666004181E0,5.576473236E0
1.352053136E1,-2.969492912E0,5.652445316E0,6.371488571E0
1.354040032E1,-6.062814236E0,7.414160728E0,9.512666702E0
1.356026386E1,-4.554139614E0,6.725028038E0,1.147597694E1
1.358013282E1,-1.771885157E0,4.651647091E0,1.388913918E1
1.359999631E1,-3.438486099E0,4.847858906E0,1.415773296E1
1.361986527E1,-5.100301266E0,5.599802971E0,1.114576817E1
1.363972881E1,-3.328416348E0,5.642873764E0,8.904889107E0
1.365959777E1,-1.121037364E0,6.078367710E0,9.455238342E0
1.367946126E1,-1.355534077E0,6.394220352E0,1.130369377E1
1.369933022E1,-1.685743570E0,5.082355499E0,1.096391296E1
1.371919376E1,-1.800599098E0,4.258625984E0,9.182456970E0
1.373906272E1,-2.753540754E0,4.771288395E0,7.707281590E0
1.375892621E1,-2.686541557E0,5.010570526E0,7.276573658E0
1.377879522E1,-1.666600943E0,4.728217602E0,6.999006271E0
1.379865871E1,-7.088736892E-1,4.465006828E0,6.601199627E0
1.381852767E1,-4.935196638E-1,4.172484398E0,5.988636971E0
1.383839121E1,-8.291130662E-1,4.584648132E0,5.030909538E0
1.385826022E1,-1.355534077E0,4.776073933E0,4.231108665E0
1.387812371E1,-1.968694806E0,5.379065514E0,4.470390797E0
1.389799267E1,-2.274976015E0,5.254638672E0,5.303691387E0
1.391785616E1,-2.026122570E0,4.522434711E0,5.480760098E0
1.393772517E1,-1.825125456E0,4.201198578E0,4.949553490E0
1.395758866E1,-1.743171334E0,4.809573650E0,4.882554531E0
1.397745767E1,-2.040479422E0,5.551946640E0,5.619544029E0
1.399732116E1,-2.212762833E0,6.030511379E0,6.888936520E0
1.401719011E1,-1.863410592E0,6.317649841E0,7.861020565E0
1.403705366E1,-1.637887120E0,6.591030121E0,8.550153732E0
1.405692261E1,-2.270190477E0,6.524031162E0,9.134600639E0
1.407678616E1,-3.261417150E0,6.839883327E0,9.939187050E0
1.409665511E1,-3.381058455E0,7.323233604E0,1.076231766E1
1.411651866E1,-2.868994236E0,7.610970497E0,1.103569794E1
1.413638761E1,-2.303689957E0,7.452445984E0,1.102134132E1
1.415625110E1,-2.648256540E0,7.361518860E0,1.020718288E1
1.417612011E1,-3.424129248E0,7.131807804E0,9.196813583E0
1.419598360E1,-3.811766386E0,6.782455921E0,8.473583221E0
1.421585256E1,-3.845266104E0,6.260222435E0,8.148159027E0
1.423571610E1,-3.629911900E0,5.676373482E0,7.735995770E0
1.425558506E1,-3.471985579E0,5.235496044E0,6.692126751E0
1.427544860E1,-3.270988464E0,4.938786030E0,5.720640659E0
1.429531756E1,-3.357130051E0,5.316852093E0,3.996612072E0
1.431518110E1,-3.457628727E0,6.231508255E0,2.727817774E0
1.433505006E1,-2.662613392E0,6.241079807E0,4.039682865E0
1.435491360E1,-1.767099500E0,5.537590027E0,6.515058041E0
1.437478256E1,-1.604387641E0,5.297709465E0,7.731209755E0
1.439464610E1,-1.858624935E0,5.288137913E0,6.879364967E0
1.441451506E1,-2.117049932E0,5.302495003E0,5.730212212E0
1.443437860E1,-2.193620205E0,5.158925533E0,5.964708805E0
1.445424756E1,-2.160120726E0,4.867001057E0,6.826723099E0
1.447411110E1,-2.442473650E0,4.651647091E0,7.357929707E0
1.449398006E1,-2.825325251E0,4.704289436E0,7.420143127E0
1.451384355E1,-2.710469961E0,4.957928658E0,7.353144169E0
1.453371256E1,-2.475973129E0,5.288137913E0,7.099504948E0
1.455357605E1,-2.408974171E0,5.446064472E0,6.927221775E0
1.457344506E1,-1.997408748E0,5.441278458E0,7.267002583E0
1.459330860E1,-4.600201547E-1,5.077569485E0,8.162516594E0
1.461317756E1,4.725824669E-2,5.182853699E0,9.886545181E0
1.463304110E1,-1.561316729E0,6.107081413E0,1.076231766E1
1.465291006E1,-1.010967612E0,6.432505608E0,9.527023315E0
1.467277360E1,2.147558331E-1,6.226722717E0,8.057231903E0
1.469264256E1,1.651645780E0,5.776872158E0,7.592426300E0
1.471250610E1,1.517647743E0,7.064808846E0,9.249456406E0
1.473237506E1,-7.184450030E-1,8.965906143E0,1.082453156E1
1.475223860E1,-1.704886079E0,9.152546883E0,1.096869946E1
1.477210756E1,-8.195417374E-2,7.208378315E0,1.091127110E1
1.479197110E1,-7.232306600E-1,7.203592777E0,1.075274658E1
1.481184011E1,-1.283749342E0,7.428517818E0,1.008275604E1
1.483170366E1,-4.025924206E-1,6.634100914E0,9.134600639E0
1.485157261E1,-3.020938635E-1,6.494719028E0,7.530212879E0
1.487143616E1,-5.988038778E-1,6.634100914E0,6.285346985E0
1.489130511E1,-7.758727670E-1,6.145366669E0,6.117849350E0
1.491116866E1,-7.088736892E-1,5.504090309E0,5.792425632E0
1.493103761E1,-8.338986635E-1,5.082355499E0,4.652245522E0
1.495090116E1,-9.535398483E-1,5.316852093E0,3.963112593E0
1.497077011E1,-6.131607890E-1,5.465805054E0,4.087539196E0
1.499063366E1,-9.870393276E-1,5.518447399E0,4.906482697E0
1.501050267E1,-1.494317770E0,5.528018475E0,6.170491219E0
1.503036616E1,-9.391828775E-1,5.154139996E0,6.476772785E0
1.505023517E1,-8.003991842E-1,5.268995285E0,6.242276192E0
1.507021438E1,-1.087537885E0,5.700301647E0,5.979065418E0
1.508996782E1,-1.216750264E0,6.035296917E0,6.237490654E0
1.510983136E1,-8.817551732E-1,6.207580090E0,6.586842537E0
1.512970027E1,-1.001396298E0,6.274579048E0,6.682555676E0
1.514956381E1,-1.834696770E0,6.658029079E0,6.826723099E0
1.516943277E1,-2.265404940E0,7.127022266E0,7.487142086E0
1.518925782E1,-2.394617319E0,7.524230957E0,9.220742226E0
1.520916522E1,-2.289333105E0,7.654041290E0,1.068096161E1
1.522902876E1,-2.050050735E0,7.563114166E0,9.996614456E0
1.524889777E1,-2.839682341E0,8.003393173E0,8.377870560E0
1.526876126E1,-3.725624800E0,8.510671616E0,8.717651367E0
1.528863027E1,-3.701696634E0,8.108677864E0,1.111226845E1
1.530849381E1,-3.337987661E0,7.060023308E0,1.273519993E1
1.532836277E1,-2.935993433E0,5.992226124E0,1.209870911E1
1.534822631E1,-2.456830740E0,5.273781300E0,9.192028046E0
1.536809532E1,-2.523829699E0,5.402993679E0,5.768496990E0
1.538795886E1,-3.194418192E0,6.044867992E0,4.422534466E0
1.540782787E1,-4.156930923E0,6.629314899E0,5.993422508E0
1.542769136E1,-3.515056372E0,6.422934055E0,8.803792953E0
1.544756037E1,-1.542174220E0,5.393422127E0,9.479166985E0
1.546742392E1,-2.973082066E-1,4.642076015E0,6.769295216E0
1.548729287E1,-8.147560954E-1,5.101497650E0,3.110669374E0
1.550715642E1,-1.030110121E0,5.475376606E0,1.410568953E0
1.552702543E1,-8.530412912E-1,5.623731613E0,2.315654039E0
1.554688897E1,-3.499503136E-1,5.599802971E0,4.925625324E0
1.556675793E1,-3.834498227E-1,5.379065514E0,7.300501823E0
1.558662147E1,-1.432104349E0,5.230710506E0,7.769495010E0
1.560649048E1,-2.557329178E0,5.561518192E0,6.696912289E0
1.562635402E1,-2.974278450E0,6.327221394E0,5.964708805E0
1.564622303E1,-2.078764677E0,6.892525673E0,6.625127792E0
1.566608657E1,-4.695914388E-1,7.361518860E0,8.143373489E0
1.568595553E1,-1.298106313E-1,7.587042332E0,9.704092026E0
1.570581907E1,-8.817551732E-1,7.217949390E0,9.407382011E0
1.572568808E1,-1.470389485E0,7.131807804E0,7.539783955E0
1.574555162E1,-1.518245935E0,7.835896015E0,6.644270420E0
1.576542064E1,-6.610172391E-1,7.945965767E0,8.363512993E0
1.578528418E1,2.099701911E-1,7.299305439E0,1.103091240E1
1.580515319E1,-1.974078640E-2,6.748956203E0,1.141376400E1
1.582501673E1,-6.753742099E-1,6.178866386E0,8.861818314E0
1.584488569E1,-9.535398483E-1,6.044867992E0,6.046064377E0
1.586474928E1,-1.599601984E0,6.260222435E0,5.485546112E0
1.588461824E1,-2.571686029E0,6.083153248E0,7.525427341E0
1.590448178E1,-1.916052699E0,5.053641319E0,8.674580574E0
1.592435079E1,-1.623530149E0,4.747360229E0,7.477570534E0
1.594433006E1,-1.676172256E0,5.254638672E0,5.523830891E0
1.596408350E1,-1.197607756E0,5.532804012E0,4.499104977E0
1.598394704E1,-1.408176184E0,5.547161102E0,4.796412945E0
1.600381600E1,-2.710469961E0,5.369493961E0,6.132206440E0
1.602367954E1,-3.371487141E0,4.651647091E0,4.326821327E0
1.604354850E1,-1.800599098E0,4.613361835E0,5.657829285E0
1.606341204E1,-3.738785386E-1,5.681159019E0,7.324429989E0
1.608328105E1,-3.409772366E-2,6.245865345E0,6.543771744E0
1.612536192E1,-2.557329178E0,5.407779217E0,6.213562012E0
1.614522797E1,-3.357130051E0,6.379863262E0,8.129016876E0
1.616509396E1,-1.479960799E0,5.953940868E0,9.814162254E0
1.618496005E1,-7.908278704E-1,5.685945034E0,9.680164337E0
1.620482609E1,-1.566102386E0,5.891727448E0,8.325227737E0
1.622469213E1,-2.566900492E0,5.896512985E0,7.467999458E0
1.624455818E1,-2.998206854E0,6.064010620E0,8.023732185E0
1.626442422E1,-2.763111830E0,6.097510338E0,9.608379364E0
1.628429026E1,-2.542972326E0,5.733801365E0,1.119362450E1
1.630427203E1,-2.653042078E0,5.595017433E0,1.155254745E1
1.632413828E1,-3.227917671E0,5.843871117E0,1.056610680E1
1.634400448E1,-3.682554007E0,6.107081413E0,9.531808853E0
1.636387062E1,-3.586841106E0,6.087938786E0,9.182456970E0
1.638373672E1,-3.424129248E0,5.834300041E0,9.584450722E0
1.640360286E1,-3.117847919E0,5.221138954E0,1.025503922E1
1.642346896E1,-3.089133978E0,4.378267288E0,1.038425159E1
1.644333505E1,-3.189632654E0,3.904488325E0,9.340383530E0
1.646320114E1,-3.079562664E0,3.971487284E0,7.463213921E0
1.648306724E1,-3.069991350E0,4.441078663E0,6.237490654E0
1.650293333E1,-3.500699520E0,4.876572609E0,6.538986206E0
1.652279943E1,-3.266202927E0,4.771288395E0,7.238288403E0
1.654266552E1,-2.629113913E0,4.172484398E0,7.056434155E0
1.656241599E1,-1.863410592E0,3.679563046E0,5.700900078E0
1.658228187E1,-1.642672777E0,3.555136204E0,5.006981373E0
1.660214781E1,-2.184048891E0,3.531208038E0,5.322834015E0
1.662201380E1,-2.021337032E0,3.808775425E0,6.860222340E0
1.664187979E1,-1.422533035E0,2.918047190E0,8.478368759E0
1.666174578E1,-8.099704385E-1,1.831107497E0,8.760722160E0
1.668161182E1,-6.370890141E-1,2.343769789E0,8.339585304E0
1.670159354E1,-1.747956991E0,3.358326674E0,8.344370842E0
1.672134406E1,-2.590828657E0,4.320839405E0,8.770293236E0
1.674121005E1,-2.452044964E0,4.081557274E0,7.673782349E0
1.676107609E1,-4.839483798E-1,3.416352510E0,7.659425259E0
1.678094208E1,4.725824669E-2,4.129413605E0,8.828319550E0
1.680095396E1,8.075776696E-2,4.584648132E0,9.335597992E0
1.682079005E1,4.115654826E-1,4.397409916E0,9.383454323E0
1.684054057E1,3.445664644E-1,4.349553585E0,9.795019150E0
1.686040651E1,7.274180651E-1,3.847060680E0,1.107876873E1
1.688038823E1,1.828714728E0,2.118246317E0,1.245284748E1
1.690013870E1,2.374876499E0,1.764108539E0,1.444008636E1
1.692000474E1,2.187638044E0,1.941177368E0,1.496650696E1
1.693987073E1,2.034497499E0,1.922034740E0,1.432044506E1
1.695973677E1,1.914856315E0,1.740180254E0,1.294098282E1
1.697960276E1,1.345364571E0,1.079162955E0,1.120798111E1
1.699946885E1,1.004985452E0,4.522434771E-1,9.230313301E0
1.701933484E1,1.350150228E0,5.958128572E-1,7.482356548E0
1.703920094E1,1.948355794E0,1.409970760E0,7.783852100E0
1.705906698E1,2.365305185E0,1.572682738E0,9.665806770E0
1.707893302E1,2.335993052E0,2.410768867E-1,1.005882835E1
1.709879906E1,2.480160713E0,-8.793623447E-1,7.999804497E0
1.711866510E1,2.158924341E0,-2.213360928E-2,7.334001541E0
1.713853120E1,1.220339537E0,1.103091240E0,8.981459618E0
1.715839724E1,1.071984529E0,1.424327731E0,1.010189915E1
1.717826328E1,1.205982566E0,1.083948612E0,9.823733330E0
1.719812932E1,9.954141974E-1,3.134597540E-1,8.784649849E0
1.721799542E1,9.571290612E-1,-6.520441920E-2,7.875377655E0
1.723786146E1,1.253839016E0,-6.999006122E-2,7.635497093E0
1.725772755E1,1.752144337E0,6.005984545E-1,8.650651932E0
1.727759359E1,2.067996979E0,1.740180254E0,1.071924686E1
1.729745963E1,1.737787485E0,2.032104731E0,1.232363510E1
1.731732573E1,1.383649707E0,8.877372146E-1,1.280219936E1
1.733719177E1,1.124626637E0,2.315055877E-1,1.193539906E1
1.735705786E1,3.110669553E-1,1.601396561E0,1.021675491E1
1.737692390E1,-1.728814393E-1,3.205185890E0,9.120243073E0
1.739679000E1,5.551348329E-1,3.646063566E0,8.315656662E0
1.741665604E1,7.800601721E-1,3.142972469E0,8.550153732E0
1.743652208E1,-8.578268886E-1,1.821536183E0,9.641879082E0
1.745638818E1,-2.720041037E0,9.690931439E-1,1.118405342E1
1.747625422E1,-3.127419233E0,4.474578202E-1,1.088674450E1
1.749612031E1,-1.575673699E0,6.245267391E-1,9.867402077E0
1.751598635E1,-1.058824062E0,2.185245275E0,1.028853893E1
1.753585239E1,-1.916052699E0,2.046461582E0,1.037946606E1
1.755571849E1,-2.093121529E0,1.088734269E0,1.000618649E1
1.757570036E1,-2.222334146E0,8.925228715E-1,7.539783955E0
1.759545078E1,-4.190430641E0,2.123031855E0,6.132206440E0
1.761531687E1,-4.458426952E0,3.181257725E0,9.345169067E0
1.763518292E1,-1.628315806E0,1.864607096E0,1.240020561E1
1.765504896E1,9.990034252E-2,9.260223508E-1,1.224227905E1
1.767491500E1,3.493520916E-1,1.107876897E0,1.099741268E1
1.769478104E1,9.990034252E-2,2.516052961E0,9.675378799E0
1.771464708E1,-1.164108157E0,3.947559118E0,8.909674644E0
1.773451318E1,-2.332403898E0,3.976273060E0,8.468797684E0
1.775437922E1,-2.715255499E0,3.464209080E0,8.272585869E0
1.777424526E1,-2.600399971E0,3.703491211E0,8.559724808E0
1.779411130E1,-1.714457393E0,4.043272018E0,8.401798248E0
1.781397734E1,-8.913264275E-1,4.229912281E0,8.105088234E0
1.783384344E1,-4.313062727E-1,4.411766529E0,8.928817749E0
1.785370953E1,3.924229145E-1,3.957130432E0,1.028375340E1
1.787357557E1,8.039883971E-1,3.406781197E0,1.114576817E1
1.789344166E1,9.236295223E-1,3.181257725E0,1.154776192E1
1.791330771E1,7.178468108E-1,3.238685369E0,1.091605663E1
1.793317380E1,2.632105052E-1,3.569493294E0,1.019761181E1
1.795303984E1,2.099701911E-1,3.717848301E0,9.756733894E0
1.797290594E1,4.929214716E-1,3.832703590E0,9.775876999E0
1.799277198E1,5.694918036E-1,3.856631994E0,9.886545181E0
1.801263807E1,7.800601721E-1,3.693919897E0,9.498309135E0
1.803250411E1,1.220339537E0,3.646063566E0,8.703293800E0
1.805237021E1,1.450648785E0,3.770490170E0,7.324429989E0
1.807223625E1,1.296909928E0,4.115056515E0,5.940780640E0
1.809210234E1,8.231309652E-1,4.460221291E0,5.155336380E0
1.811196838E1,4.067798555E-1,4.876572609E0,5.164907455E0
1.813183448E1,6.029912829E-1,5.029713154E0,5.461617470E0
1.815170057E1,1.071984529E0,4.761716843E0,5.528616905E0
1.817156661E1,1.263410330E0,4.689932346E0,5.619544029E0
1.819143265E1,1.234696507E0,4.862215519E0,5.868995667E0
1.821129875E1,1.311864972E0,5.154139996E0,6.567699909E0
1.823116479E1,1.546361685E0,5.154139996E0,7.267002583E0
1.825103088E1,1.441077471E0,4.972285271E0,7.204789162E0
1.827089693E1,9.188438654E-1,4.962714195E0,6.467201233E0
1.829076302E1,5.072783828E-1,5.369493961E0,5.940780640E0
1.831062906E1,4.163511395E-1,5.796014786E0,5.940780640E0
1.833049515E1,4.977070987E-1,6.040082455E0,6.270989895E0
1.835036120E1,4.929214716E-1,5.987440586E0,6.572485447E0
1.837022729E1,2.679961324E-1,6.178866386E0,6.663413048E0
1.839009333E1,-6.759724021E-2,6.394220352E0,6.951149940E0
1.840995942E1,-1.776670814E-1,6.226722717E0,7.463213921E0
1.842982552E1,-3.451646566E-1,6.178866386E0,7.870592117E0
1.844980734E1,-7.908278704E-1,6.567101955E0,7.904091358E0
1.846955781E1,-1.164108157E0,7.074379921E0,8.243872643E0
1.848942385E1,-1.216750264E0,7.012166977E0,9.340383530E0
1.850928995E1,-1.360319614E0,6.303293228E0,1.047996521E1
1.852915594E1,-1.537388563E0,5.930012703E0,1.094477081E1
1.854902203E1,-1.738385677E0,6.006583214E0,1.075753212E1
1.856888802E1,-1.537388563E0,6.030511379E0,1.076231766E1
1.858875411E1,-7.471588850E-1,5.523232937E0,1.127019501E1
1.860862021E1,-4.408775866E-1,4.728217602E0,1.190668583E1
1.862848625E1,-1.168893814E0,4.349553585E0,1.184447193E1
1.864835234E1,-1.939980984E0,4.565505505E0,1.073838997E1
1.866821838E1,-2.073979139E0,4.943571568E0,9.421739578E0
1.868808442E1,-1.355534077E0,4.919643402E0,9.120243073E0
1.870795052E1,-2.015953064E-1,4.316053867E0,9.326025963E0
1.872781661E1,5.024927258E-1,3.727419376E0,9.215956688E0
1.874768265E1,6.221339107E-1,3.459423304E0,8.779864311E0
1.876754875E1,-8.673982322E-2,3.866203070E0,8.157731056E0
1.878741479E1,-5.802594870E-2,4.508078098E0,7.861020565E0
1.880728088E1,8.805587292E-1,4.421936035E0,7.209574699E0
1.882714698E1,7.417750359E-1,4.455435753E0,6.381059647E0
1.884701307E1,-7.238288224E-2,4.460221291E0,5.840281963E0
1.886687911E1,-9.152546525E-1,4.512863636E0,5.840281963E0
1.888674521E1,-1.427318692E0,4.608576298E0,6.428916454E0
1.890661125E1,-1.566102386E0,4.680361271E0,6.965506554E0
1.892647734E1,-1.422533035E0,4.843072891E0,7.200003147E0
1.894634344E1,-9.296116233E-1,4.934000492E0,7.118647575E0
1.896620948E1,-7.471588850E-1,5.197210789E0,6.687341213E0
1.898607557E1,-7.280163169E-1,5.662016392E0,6.448058605E0
1.900594161E1,-8.051848412E-1,5.987440586E0,6.538986206E0
1.902580771E1,-1.025324464E0,6.265007973E0,6.821937561E0
1.904567380E1,-5.318048596E-1,6.485147476E0,7.243073940E0
1.906553984E1,2.578266263E-1,6.739385128E0,7.827520847E0
1.908540588E1,5.886343718E-1,6.830312252E0,8.588438988E0
1.910527203E1,7.800601721E-1,7.040880680E0,9.589237213E0
1.912513812E1,1.364507079E0,6.935596466E0,1.099741268E1
1.914512000E1,1.756929994E0,6.260222435E0,1.208913803E1
1.916487042E1,1.196411371E0,6.212365627E0,1.230449200E1
1.918473651E1,4.354937077E-1,6.691528320E0,1.189232826E1
1.920460260E1,2.434697002E-1,6.887740135E0,1.161476135E1
1.922446859E1,4.929214716E-1,6.312864304E0,1.229013538E1
1.924433469E1,8.757730722E-1,5.455635548E0,1.244327641E1
1.926420073E1,1.326221943E0,5.120640278E0,1.076710415E1
1.928391292E1,1.364507079E0,5.518447399E0,8.038089752E0
1.930404844E1,9.858429432E-1,6.006583214E0,5.681757450E0
1.932391463E1,5.886343718E-1,6.116652966E0,4.173680782E0
1.934378088E1,-4.366901144E-2,6.260222435E0,3.498306751E0
1.936364708E1,-2.638086975E-1,6.236293793E0,3.431307554E0
1.938351323E1,1.764706671E-1,6.207580090E0,3.359523058E0
1.940337942E1,3.254238665E-1,6.092724800E0,3.158525944E0
1.942324552E1,8.075776696E-2,5.618945599E0,3.297309637E0
1.944311166E1,-3.212364316E-1,5.197210789E0,4.245465755E0
1.946297776E1,-6.370890141E-1,5.000999451E0,5.394618511E0
1.948284390E1,-3.116651475E-1,4.828716278E0,6.438487530E0
1.950271000E1,4.929214716E-1,4.493721008E0,6.807580471E0
1.952246052E1,7.082754970E-1,4.411766529E0,6.596413612E0
1.954244208E1,1.286142170E-1,4.205984116E0,6.577271461E0
1.956219255E1,-8.051848412E-1,4.091128349E0,5.873781204E0
1.958205854E1,3.254238665E-1,3.947559118E0,4.652245522E0
1.960192437E1,9.906286001E-1,5.461019516E0,6.031707764E0
1.962179052E1,1.321436286E0,6.250650883E0,8.076375008E0
1.964165656E1,1.972284079E0,5.484947681E0,1.017368412E1
1.966152255E1,1.742573142E0,5.082355499E0,1.198863983E1
1.968150432E1,-1.140179992E0,6.284150600E0,1.313779259E1
1.970125484E1,-4.381856441E0,7.165307522E0,1.287398434E1
1.972112088E1,-5.669793129E0,6.619743824E0,1.163390350E1
1.974098692E1,-4.578067780E0,5.666802406E0,1.038425159E1
1.976085297E1,-2.447259426E0,6.006583214E0,9.766305923E0
1.978071901E1,-1.757528186E0,6.605386734E0,8.641080856E0
1.980074844E1,-2.931207657E0,6.298507214E0,7.300501823E0
1.982045135E1,-4.563711166E0,5.571089268E0,6.060421467E0
1.984031739E1,-4.788636208E0,4.570291042E0,5.102694511E0
1.986018344E1,-3.625126362E0,4.009772778E0,5.816353798E0
1.988004948E1,-3.672982693E0,4.632504463E0,7.813164234E0
1.989991557E1,-3.084348440E0,4.646861553E0,8.857032776E0
1.991978167E1,-2.303689957E0,3.957130432E0,8.248658180E0
1.993964771E1,-2.164906263E0,3.248256683E0,7.133004189E0
1.995951375E1,-2.519043922E0,3.166900873E0,6.433701992E0
1.997937979E1,-2.423331022E0,3.933202267E0,6.208776474E0
1.999924588E1,-1.250249863E0,4.666004181E0,6.596413612E0
2.001911198E1,-1.250249892E-1,5.101497650E0,7.161718369E0
2.003897807E1,2.386840582E-1,5.087141037E0,7.592426300E0
2.005884416E1,3.493520916E-1,4.661218643E0,7.386643410E0
2.007871021E1,-3.738785386E-1,5.053641319E0,7.056434155E0
2.009857630E1,-1.417747378E0,5.652445316E0,7.808378696E0
2.011844239E1,-1.642672777E0,5.906084538E0,9.254241943E0
2.013830849E1,-1.087537885E0,5.953940868E0,1.036032391E1
2.015817458E1,-7.136593461E-1,5.930012703E0,1.111705399E1
2.017804068E1,-1.020538807E0,5.772086620E0,1.183490086E1
2.019790677E1,-1.901695848E0,5.700301647E0,1.254856014E1
2.021777286E1,-2.394617319E0,5.230710506E0,1.311865044E1
2.023763901E1,-1.580459356E0,4.766502857E0,1.232842064E1
2.025750505E1,8.183453679E-1,5.571089268E0,1.074317551E1
2.027737114E1,3.916452408E0,6.868597507E0,9.680164337E0
2.029723724E1,5.051248550E0,7.074379921E0,9.546165466E0
2.031710333E1,4.443471432E0,6.538387775E0,9.369096756E0
2.033696948E1,2.939582586E0,5.705087185E0,8.325227737E0
2.035683552E1,2.278565407E0,5.297709465E0,7.444071293E0
2.037681739E1,2.595016241E0,5.134997368E0,7.109076023E0
2.039656786E1,2.867797852E0,5.149354458E0,6.739983082E0
2.041643396E1,2.446661234E0,5.178068161E0,5.778068542E0
2.043630005E1,1.871785522E0,5.422136307E0,4.939982414E0
2.045616609E1,1.627717614E0,5.523232937E0,5.021338463E0
2.047603224E1,8.518448472E-1,5.379065514E0,5.773283005E0
2.049589828E1,4.307080805E-1,5.144568920E0,6.629913330E0
2.051576437E1,4.307080805E-1,4.804787636E0,7.032505512E0
2.053563047E1,4.785645306E-1,4.589433670E0,7.037291527E0
2.055549656E1,9.032905847E-2,4.780859470E0,6.951149940E0
2.057536265E1,-2.446661144E-1,4.957928658E0,6.826723099E0
2.059522870E1,-1.441675574E-1,4.819144726E0,6.615556240E0
2.061509484E1,-1.585244983E-1,4.694717884E0,6.558128834E0
2.063496094E1,-5.605186820E-1,4.742574692E0,6.610770702E0
2.065482703E1,-1.001396298E0,5.168497086E0,7.113861561E0
2.067469312E1,-1.006181955E0,5.614160061E0,7.966304779E0
2.069455922E1,-9.822536707E-1,5.867799282E0,8.693722725E0
2.071454109E1,-9.487541914E-1,5.973083496E0,8.952746391E0
2.073429156E1,-1.570888042E0,6.198009014E0,9.048459053E0
2.075415765E1,-2.160120726E0,6.562315941E0,8.962317467E0
2.077402380E1,-1.930409670E0,6.906882763E0,8.712865829E0
2.079388984E1,-1.499103427E0,7.165307522E0,8.693722725E0
2.081375594E1,-1.322034478E0,7.021738052E0,9.282955170E0
2.083373771E1,-1.714457393E0,6.562315941E0,1.034118080E1
2.085348828E1,-2.140978098E0,5.681159019E0,1.111226845E1
2.087335432E1,-2.236690998E0,4.809573650E0,1.002532864E1
2.089322042E1,-1.609173179E0,4.272983074E0,7.070790768E0
2.091308651E1,-7.758727670E-1,4.900500774E0,4.695914268E0
2.093295255E1,-1.144965649E0,6.078367710E0,5.648257732E0
2.095281864E1,-1.762313843E0,6.131010056E0,8.914461136E0
2.097268474E1,-1.111466169E0,5.206781864E0,9.977472305E0
2.099255083E1,-5.557330847E-1,4.349553585E0,8.349156380E0
2.101241692E1,-8.817551732E-1,4.052843571E0,6.256632805E0
2.103228307E1,-8.578268886E-1,4.186841488E0,4.877768993E0
2.105214917E1,-6.466603279E-1,4.416552544E0,4.422534466E0
2.107201521E1,-1.398604870E0,4.733003139E0,5.351547718E0
2.109188130E1,-1.810170293E0,4.460221291E0,6.491129398E0
2.111174745E1,-1.417747378E0,4.071985722E0,6.865008354E0
2.113161354E1,-1.341177106E0,4.378267288E0,7.458428383E0
2.115147963E1,-9.487541914E-1,4.924428940E0,8.334799767E0
2.117134573E1,1.429711580E-1,5.211567879E0,8.602795601E0
2.119121182E1,4.977070987E-1,5.623731613E0,8.014161110E0
2.121107797E1,2.871387303E-1,6.174080849E0,7.467999458E0
2.123094401E1,2.482553422E-1,6.365506649E0,7.789236069E0
2.125081015E1,3.828516304E-1,6.188437462E0,8.578866959E0
2.127067630E1,4.019941986E-1,6.355935097E0,9.010173798E0
2.129054239E1,7.944171429E-1,6.547959328E0,9.163313866E0
2.131040849E1,1.618146300E0,6.562315941E0,9.168100357E0
2.133027458E1,2.432304144E0,6.619743824E0,8.708079338E0
2.135014073E1,2.475374937E0,6.873383045E0,8.095517159E0
2.137000682E1,1.986641049E0,7.155735970E0,8.129016876E0
2.138987292E1,1.460219979E0,7.313662529E0,8.871390343E0
2.140973901E1,1.761715651E0,6.926024914E0,9.675378799E0
2.142960515E1,2.973082066E0,6.500102520E0,1.062831974E1
2.144947125E1,3.772883177E0,6.068796635E0,1.179183006E1
2.146933739E1,3.457030535E0,5.005784988E0,1.184925747E1
2.148920349E1,2.360519648E0,4.503292084E0,1.044167995E1
2.150906958E1,2.178066730E0,4.670789719E0,8.349156380E0
2.152893573E1,2.365305185E0,5.163711071E0,7.142575741E0
2.154880182E1,2.403590441E0,5.412564754E0,7.319644451E0
2.156866792E1,2.595016241E0,5.000999451E0,7.856235027E0
2.158853406E1,2.575873613E0,4.421936035E0,7.668996811E0
2.160840015E1,2.087139606E0,4.191627026E0,6.860222340E0
2.162826630E1,1.709073544E0,4.450650215E0,6.098706722E0
2.164813239E1,1.670788407E0,4.713860512E0,5.734997749E0
2.166799849E1,1.694716692E0,4.742574692E0,5.907280922E0
2.168786463E1,1.465005636E0,4.637290478E0,6.443273067E0
2.170773073E1,1.138983607E0,4.383052826E0,6.596413612E0
2.172759682E1,8.135597110E-1,4.239483356E0,6.486343861E0
2.174746297E1,3.302095234E-1,4.445864677E0,6.462415695E0
2.176732906E1,-2.931207791E-2,4.661218643E0,6.716054916E0
2.178719521E1,-3.403790295E-1,4.752145767E0,7.367500782E0
2.180706130E1,-2.925225794E-1,5.020142078E0,8.157731056E0
2.182692745E1,-2.446661144E-1,5.130211830E0,8.732007980E0
2.184679354E1,4.725824669E-2,5.316852093E0,8.813364029E0
2.186665963E1,5.551348329E-1,5.729015827E0,8.018946648E0
2.188652578E1,4.546363056E-1,6.787241459E0,6.850651264E0
2.190639187E1,5.024927258E-1,7.821538925E0,6.395416737E0
2.192625802E1,5.886343718E-1,8.319246292E0,7.228717327E0
2.194623984E1,5.264210105E-1,8.118248940E0,8.540582657E0
2.196599042E1,1.477568001E-1,7.960322857E0,9.684949875E0
2.198585651E1,-5.844469070E-1,7.907680511E0,1.040818024E1
2.200572265E1,-4.791627228E-1,7.759325504E0,1.008754253E1
2.202558870E1,6.161518395E-2,7.878966808E0,8.957531929E0
2.204545484E1,3.541377485E-1,7.778468132E0,8.224729538E0
2.206532088E1,6.652047038E-1,6.835097790E0,8.267800331E0
2.208518703E1,5.647061467E-1,5.671587944E0,8.339585304E0
2.210505312E1,-3.308077157E-1,5.125426292E0,7.951947689E0
2.212499640E1,-1.863410592E0,5.211567879E0,7.688138962E0
2.214478547E1,-2.700898647E0,5.192425251E0,8.081160545E0
2.216465161E1,-2.236690998E0,4.733003139E0,8.157731056E0
2.218451771E1,-1.733600020E0,4.445864677E0,7.592426300E0
2.220438380E1,-1.403390527E0,4.205984116E0,6.519843578E0
2.222424989E1,-1.149751306E0,4.009772778E0,5.428118229E0
2.224411599E1,-8.913264275E-1,4.311268330E0,4.853840828E0
2.226390515E1,-6.897311211E-1,4.689932346E0,5.289334297E0
2.228396385E1,-5.461617708E-1,4.560719967E0,6.586842537E0
2.230383015E1,-6.179464459E-1,4.368695736E0,7.827520847E0
2.232369640E1,-5.653043389E-1,4.091128349E0,8.210372925E0
2.234356255E1,-5.078766346E-1,4.143770695E0,8.004590034E0
2.236342885E1,-5.318048596E-1,4.498506546E0,7.798807144E0
2.238329500E1,-3.595215976E-1,4.838287354E0,7.625925541E0
2.240316120E1,-1.345962733E-1,5.082355499E0,7.314858913E0
2.242302739E1,-3.020938635E-1,5.259424210E0,7.645068169E0
2.244289344E1,-4.839483798E-1,5.163711071E0,8.645866394E0
2.246275963E1,-4.121637046E-1,5.201996326E0,9.302098274E0
2.248262578E1,-3.786641955E-1,5.614160061E0,9.617950439E0
2.250237635E1,-5.982056609E-4,5.791228771E0,9.498309135E0
2.252224234E1,5.407779217E-1,5.729015827E0,9.297312737E0
2.254222401E1,8.422735929E-1,5.781657696E0,9.924830437E0
2.256197453E1,8.997012973E-1,5.647659779E0,1.132283688E1
2.258184057E1,1.086341500E0,5.254638672E0,1.180618668E1
2.260170661E1,1.398006678E0,5.192425251E0,1.120798111E1
2.262157265E1,2.010569334E0,5.345565796E0,1.056610680E1
2.264143875E1,2.384447813E0,5.499304771E0,1.018325520E1
2.266130479E1,2.058425665E0,5.494519234E0,9.972686768E0
2.268117088E1,1.359721422E0,5.144568920E0,1.031246758E1
2.270103703E1,1.445863128E0,4.584648132E0,1.028853893E1
2.272090312E1,1.374078393E0,4.532006264E0,9.460023880E0
2.274076927E1,1.095912814E0,4.737788677E0,8.420941353E0
2.276063531E1,1.162911773E0,4.584648132E0,7.377072334E0
2.278050146E1,1.220339537E0,4.397409916E0,6.467201233E0
2.280048328E1,1.158126116E0,4.344767570E0,6.223133564E0
2.282023390E1,8.566305041E-1,4.177269936E0,6.812366009E0
2.284009989E1,4.725824669E-2,4.081557274E0,8.076375008E0
2.285996609E1,-2.829512656E-1,4.158127785E0,9.081958771E0
2.287983219E1,9.511470050E-2,4.244269371E0,8.789435387E0
2.289969828E1,3.445664644E-1,4.565505505E0,7.482356548E0
2.291956448E1,-3.888336942E-2,4.646861553E0,6.026922226E0
2.293943052E1,-3.260220885E-1,4.766502857E0,5.308476925E0
2.295929667E1,-4.504488707E-1,5.015356064E0,5.763711452E0
2.297916281E1,-5.557330847E-1,5.168497086E0,6.908079147E0
2.299902896E1,-7.088736892E-1,5.326423168E0,8.162516594E0
2.301889505E1,-8.434699774E-1,5.480162144E0,8.219944000E0
2.303876114E1,-1.240678549E0,5.652445316E0,7.305287361E0
2.305862729E1,-1.546959877E0,5.877370834E0,6.955935478E0
2.307849344E1,-2.030908108E0,6.432505608E0,7.923233986E0
2.309835958E1,-2.322832584E0,6.892525673E0,9.924830437E0
2.311822573E1,-1.834696770E0,6.485147476E0,1.084845924E1
2.313809187E1,-2.428116798E0,6.217151642E0,9.809376717E0
2.315795802E1,-3.672982693E0,6.446862221E0,8.535796165E0
2.317793995E1,-4.295714855E0,6.686742783E0,9.005388260E0
2.319769042E1,-3.682554007E0,6.418148518E0,1.064267731E1
2.321755651E1,-2.547757864E0,5.685945034E0,1.208913803E1
2.323738416E1,-1.590030670E0,4.522434711E0,1.174875927E1
2.325728875E1,-1.757528186E0,3.789632797E0,8.962317467E0
2.327715484E1,-2.566900492E0,4.201198578E0,6.079564095E0
2.329702099E1,-2.787040234E0,5.158925533E0,5.313262463E0
2.331688713E1,-2.385046005E0,5.729015827E0,6.778866768E0
2.333675328E1,-1.207179070E0,5.335994720E0,9.349954605E0
2.335661942E1,2.679961324E-1,4.325624943E0,1.053260708E1
2.337648557E1,3.589234054E-1,3.770490170E0,9.125029564E0
2.339635172E1,-7.615157962E-1,4.062414646E0,6.798008919E0
2.341621786E1,-1.661815286E0,4.742574692E0,5.499902725E0
2.343608401E1,-1.834696770E0,5.024927616E0,5.873781204E0
2.345595015E1,-9.152546525E-1,4.575077057E0,7.214360237E0
2.347581630E1,-1.680957973E-1,4.138985157E0,7.995018482E0
2.349568245E1,-7.956135273E-1,4.277768612E0,7.401000500E0
2.351554859E1,-1.814955950E0,4.416552544E0,6.562914371E0
2.353541474E1,-2.341975212E0,4.479363918E0,6.452844620E0
2.355528088E1,-2.428116798E0,4.656432629E0,6.869793892E0
2.357514703E1,-2.337189436E0,5.316852093E0,7.664210796E0
2.359501318E1,-1.513460279E0,5.757729530E0,9.158528328E0
2.361487937E1,-5.318048596E-1,5.810371399E0,1.056132126E1
2.363474552E1,-3.068794906E-1,5.843871117E0,1.098784161E1
2.365461161E1,-8.673982024E-1,5.863013744E0,1.031725311E1
2.367447781E1,-1.523031592E0,5.977869034E0,9.402596474E0
2.369434396E1,-1.747956991E0,6.035296917E0,9.292527199E0
2.371421010E1,-1.771885157E0,6.111867428E0,9.924830437E0
2.373407625E1,-1.585245013E0,5.819942951E0,1.038903809E1
2.375394239E1,-1.350748420E0,5.494519234E0,1.011147022E1
2.377380854E1,-1.389033556E0,5.307280540E0,9.163313866E0
2.379367463E1,-1.561316729E0,5.302495003E0,8.459226608E0
2.381354088E1,-2.279761791E0,5.359922886E0,8.986245155E0
2.383340703E1,-3.136990547E0,5.005784988E0,9.354740143E0
2.385327318E1,-3.170490026E0,4.694717884E0,8.382656097E0
2.387313932E1,-2.983849764E0,4.699503899E0,5.327619553E0
2.389300547E1,-2.102692842E0,4.857429981E0,3.048455954E0
2.391287161E1,-3.451646566E-1,4.804787636E0,5.600401402E0
2.393273776E1,-1.887338877E0,5.719444275E0,8.363512993E0
2.395260390E1,-3.577269793E0,5.628517151E0,7.123433113E0
2.400477131E1,-1.369890928E0,5.705087185E0,7.578069210E0
2.402463725E1,-2.021337032E0,6.164509296E0,9.608379364E0
2.404450319E1,-1.403390527E0,6.025725842E0,9.541379929E0
2.406436907E1,-1.283749342E0,6.020939827E0,7.846663475E0
2.408423506E1,-1.503889084E0,6.370292187E0,6.610770702E0
2.410410095E1,-1.111466169E0,6.605386734E0,6.414559364E0
2.412408261E1,-5.796613097E-1,6.547959328E0,6.922435760E0
2.414383308E1,-7.519445419E-1,6.562315941E0,7.496713161E0
2.416369892E1,-8.817551732E-1,6.643671989E0,7.625925541E0
2.418368069E1,-9.822536707E-1,6.653243542E0,7.539783955E0
2.420343105E1,-1.264606714E0,6.658029079E0,8.023732185E0
2.422329694E1,-1.307677627E0,6.519245148E0,9.091529846E0
2.424316277E1,-1.551745534E0,6.494719028E0,1.002532864E1
2.426302876E1,-1.810170293E0,6.619743824E0,1.023111153E1
2.428289475E1,-1.762313843E0,6.725028038E0,9.622735977E0
2.430276063E1,-1.781456470E0,6.643671989E0,8.976674080E0
2.432262662E1,-2.318047047E0,6.365506649E0,8.971888542E0
2.434249256E1,-2.681756020E0,5.968297958E0,9.182456970E0
2.436247423E1,-2.590828657E0,5.590231895E0,9.407382011E0
2.438222464E1,-2.710469961E0,5.096712112E0,9.953543663E0
2.440209053E1,-2.667398930E0,4.881358147E0,1.007318497E1
2.442195647E1,-2.365903378E0,4.666004181E0,9.943972588E0
2.444182246E1,-2.006979942E0,4.455435753E0,9.565308571E0
2.446168839E1,-1.719243050E0,4.229912281E0,9.105886459E0
2.448155433E1,-1.527817249E0,4.000201225E0,8.698508263E0
2.450142027E1,-1.049252748E0,3.808775425E0,8.440083504E0
2.452128621E1,-4.600201547E-1,3.497708559E0,8.148159027E0
2.454115220E1,-5.324030295E-2,3.464209080E0,7.755138397E0
2.456101813E1,4.642075896E-1,3.512065411E0,7.740781307E0
2.458088407E1,8.135597110E-1,3.411566973E0,7.573283672E0
2.460075006E1,4.929214716E-1,3.449851990E0,7.104290485E0
2.462061600E1,4.594219327E-1,3.583850145E0,6.960721016E0
2.464048194E1,5.694918036E-1,2.985046148E0,6.687341213E0
2.466034793E1,7.657032609E-1,2.482553482E0,6.759724140E0
2.468021386E1,5.838487148E-1,2.271386862E0,6.936792850E0
2.470007985E1,4.450650215E-1,2.099103689E0,7.539783955E0
2.471994579E1,5.503492355E-1,1.577468276E0,9.340383530E0
2.473981178E1,1.052842021E0,9.882357717E-1,1.111705399E1
2.475967772E1,1.833500385E0,1.357328653E0,1.195514011E1
2.477954371E1,2.312064886E0,2.079961061E0,1.189711380E1
2.479940964E1,1.991426587E0,2.280958176E0,1.179183006E1
2.481927563E1,1.527219057E0,2.223530531E0,1.239063358E1
2.483914162E1,1.465005636E0,1.835893154E0,1.240499115E1
2.485900756E1,1.441077471E0,1.045663476E0,1.079581738E1
2.487887350E1,1.024128079E0,4.953143001E-1,9.354740143E0
2.489873949E1,8.566305041E-1,3.086741269E-1,8.919246674E0
2.491860548E1,1.033699393E0,-1.417747438E-1,9.584450722E0
2.493847142E1,1.847857237E0,-2.757728100E-1,1.089631653E1
2.495833740E1,2.910868645E0,4.235295951E-1,1.144726372E1
2.497820334E1,2.796013355E0,1.227517962E0,1.179661560E1
2.499806933E1,2.077568293E0,1.558325768E0,1.315693569E1
2.501793532E1,1.378864050E0,1.103091240E0,1.504307747E1
2.503780126E1,1.589432478E0,-9.391828626E-2,1.488036537E1
2.505766720E1,8.327022791E-1,1.634896040E0,1.260598755E1
2.507753319E1,4.307080805E-1,3.233899832E0,9.857233047E0
2.509739912E1,5.982056856E-1,3.598206997E0,7.525427341E0
2.511726511E1,5.694918036E-1,4.076771736E0,6.294918060E0
2.513713105E1,4.402793646E-1,4.162913322E0,5.888138294E0
2.515699704E1,6.029912829E-1,4.091128349E0,5.609972477E0
2.517686298E1,8.614161611E-1,4.158127785E0,5.921638012E0
2.519672897E1,2.632105052E-1,3.555136204E0,5.375475883E0
2.521659490E1,1.716850251E-1,3.765704632E0,5.126622677E0
2.523646089E1,5.455635786E-1,3.411566973E0,5.236692429E0
2.525632683E1,3.541377485E-1,3.281756163E0,5.456831932E0
2.527619282E1,9.511470050E-2,3.803989887E0,5.586044312E0
2.529605876E1,4.259224236E-1,4.387838364E0,6.318846226E0
2.531592475E1,1.110269666E0,4.632504463E0,7.204789162E0
2.533579069E1,1.244267821E0,4.618147850E0,7.616354465E0
2.535565668E1,8.470591903E-1,4.450650215E0,7.506284714E0
2.537552261E1,5.312066078E-1,4.320839405E0,7.348358154E0
2.539538855E1,1.119840980E0,4.895715237E0,8.468797684E0
2.541525454E1,2.106282234E0,5.652445316E0,9.886545181E0
2.543512048E1,2.762513638E0,5.039284706E0,1.144726372E1
2.545498647E1,2.556730986E0,4.004986763E0,1.233320618E1
2.547485240E1,1.287338614E0,3.957130432E0,1.138983536E1
2.549471839E1,5.120640397E-1,5.072783947E0,9.987043381E0
2.551458433E1,6.508477330E-1,5.877370834E0,9.364311218E0
2.553445032E1,-6.993024349E-1,5.757729530E0,1.002054310E1
2.555431626E1,-1.168893814E0,5.571089268E0,1.178225899E1
2.557418220E1,4.881358147E-1,3.387638569E0,1.283569908E1
2.559404819E1,9.332008362E-1,1.280160069E0,1.300858021E1
2.561391412E1,5.216353536E-1,1.074377418E0,1.256291676E1
2.563378011E1,-3.888336942E-2,1.754537225E0,1.137547874E1
2.565364605E1,-4.648058116E-1,2.353341103E0,1.042253685E1
2.567351204E1,-3.164508045E-1,2.429911375E0,9.920044899E0
2.569337798E1,1.238285750E-1,1.845464468E0,9.790233612E0
2.571324397E1,3.493520916E-1,1.088734269E0,9.905687332E0
2.573310990E1,1.094716340E-1,8.207381964E-1,9.708877563E0
2.575297589E1,-2.542374134E-1,1.107876897E0,8.760722160E0
2.577284183E1,-2.829512656E-1,1.644467354E0,7.755138397E0
2.579270782E1,4.247260094E-2,1.965105653E0,7.276573658E0
2.581257376E1,4.067798555E-1,2.065604210E0,7.137789726E0
2.583243975E1,5.216353536E-1,2.094317913E0,6.677769661E0
2.585230569E1,1.908276081E-1,2.089532375E0,6.366703033E0
2.587217168E1,-3.834498227E-1,2.367697954E0,6.625127792E0
2.589203761E1,-7.758727670E-1,2.846262455E0,6.543771744E0
2.591190360E1,-8.386843204E-1,3.305684566E0,6.841079712E0
2.593188532E1,-4.695914388E-1,3.382853031E0,7.884948730E0
2.595163569E1,-4.845465720E-2,3.052045345E0,9.287740707E0
2.597150162E1,-1.489532143E-1,2.496910334E0,1.054696369E1
2.599136761E1,-1.235892892E0,2.348555326E0,1.117926693E1
2.601134918E1,-2.021337032E0,2.511267424E0,1.163390350E1
2.603109964E1,-1.441675663E0,2.477767944E0,1.207478142E1
2.605096553E1,-4.791627228E-1,2.568695068E0,1.235234833E1
2.607083147E1,4.725824669E-2,2.664407969E0,1.268734360E1
2.609069740E1,-2.877369225E-1,2.827120066E0,1.298405361E1
2.611056334E1,-6.801598072E-1,3.018545866E0,1.269212914E1
2.613042928E1,-4.121637046E-1,3.286541939E0,1.226142120E1
2.615029527E1,4.247260094E-2,3.013760090E0,1.240499115E1
2.617016115E1,3.206382394E-1,2.487339020E0,1.308515072E1
2.619002714E1,1.668993831E-1,2.549552441E0,1.286919880E1
2.620989308E1,3.158525825E-1,2.812762976E0,1.084845924E1
2.622975907E1,1.388435364E0,2.841476917E0,8.038089752E0
2.624962506E1,6.508477330E-1,4.876572609E0,6.165705681E0
2.626949100E1,-5.365904570E-1,5.283352375E0,5.136193752E0
2.628935694E1,-6.323033571E-1,3.631706476E0,5.322834015E0
2.630922293E1,-6.514459848E-1,3.080759048E0,6.127420425E0
2.632908886E1,-3.930211067E-1,3.425923824E0,6.113063812E0
2.634895485E1,5.503492355E-1,3.818346739E0,5.576473236E0
2.636882079E1,1.100698471E0,4.301696777E0,5.495117188E0
2.638880256E1,9.284151793E-1,4.368695736E0,6.381059647E0
2.640855293E1,1.024128079E0,3.727419376E0,7.525427341E0
2.642841886E1,9.092726111E-1,3.435495138E0,8.081160545E0
2.644828485E1,4.833501875E-1,3.885345697E0,7.568498135E0
2.646815074E1,1.854437590E-2,4.517649174E0,6.778866768E0
2.648801673E1,-1.393819153E-1,4.833501816E0,6.754938126E0
2.650776720E1,-5.365904570E-1,5.039284706E0,7.214360237E0
2.652786418E1,-7.860422134E-1,5.350351334E0,8.382656097E0
2.654773032E1,2.823530734E-1,5.340780258E0,9.637093544E0
2.656759642E1,1.812563092E-1,6.174080849E0,1.036032391E1
2.658746251E1,-5.270192027E-1,6.217151642E0,1.038425159E1
2.660732855E1,-1.393819213E0,6.020939827E0,1.004447079E1
2.662719454E1,-2.255833626E0,6.322435856E0,9.321240425E0
2.664706058E1,-2.562114954E0,6.576673031E0,9.158528328E0
2.666692662E1,-1.959123492E0,6.193223000E0,1.045603657E1
2.668679261E1,-1.513460279E0,5.585446358E0,1.183011532E1
2.670665860E1,-1.561316729E0,4.852644444E0,1.182532978E1
2.672652464E1,-2.059622049E0,4.115056515E0,1.101177025E1
2.674627506E1,-1.829911113E0,3.488137245E0,1.042732334E1
2.676614084E1,-1.264606714E0,3.219542980E0,9.053244591E0
2.678600668E1,-1.566102386E0,3.981058598E0,6.711269379E0
2.680587261E1,-1.930409670E0,5.063212872E0,5.552545071E0
2.682573850E1,-1.341177106E0,4.934000492E0,6.615556240E0
2.684560438E1,-1.680957973E-1,3.952344894E0,9.072386742E0
2.686547032E1,2.243271172E-1,3.367897987E0,1.055653572E1
2.688533626E1,-1.010967568E-1,3.253042459E0,9.574879646E0
2.690520225E1,-4.360919297E-1,3.387638569E0,7.621140003E0
2.692506824E1,-5.461617708E-1,3.636492252E0,6.869793892E0
2.694493412E1,8.554340899E-2,3.497708559E0,8.162516594E0
2.696480011E1,5.168496966E-1,2.970689297E0,9.661021233E0
2.698478178E1,-4.408775866E-1,2.803191662E0,9.282955170E0
2.700453220E1,-6.083751321E-1,2.472982168E0,7.472784996E0
2.702439813E1,5.790630579E-1,3.367897987E0,6.917650223E0
2.704426407E1,-3.690928817E-1,5.211567879E0,7.942376614E0
2.706413006E1,-1.345962733E-1,5.537590027E0,8.995817184E0
2.708399600E1,2.578266263E-1,5.211567879E0,8.808578491E0
2.710386199E1,1.138983607E0,4.737788677E0,8.200801849E0
2.712384371E1,7.034898400E-1,5.671587944E0,8.014161110E0
2.714359407E1,5.359922647E-1,5.690730572E0,7.980661869E0
2.716357574E1,5.886343718E-1,5.450850010E0,8.693722725E0
2.718332610E1,1.033699393E0,4.843072891E0,9.814162254E0
2.720319204E1,3.250649452E0,3.099901676E0,1.090110207E1
2.722305798E1,3.849453449E0,3.133401155E0,1.154776192E1
2.724292392E1,2.829512835E0,3.899702787E0,1.160519028E1
2.726278990E1,1.551147223E0,5.178068161E0,1.122233772E1
2.728265584E1,2.195414752E-1,6.293721676E0,1.110748291E1
2.730252178E1,1.190429255E-1,6.154938221E0,1.117926693E1
2.732238777E1,6.412764788E-1,5.374279499E0,1.029811001E1
2.734225371E1,6.508477330E-1,5.015356064E0,7.913662910E0
2.736211970E1,5.024927258E-1,5.436492920E0,5.797211170E0
2.738198569E1,1.716850251E-1,6.279364586E0,4.868197441E0
2.740185168E1,-6.993024349E-1,7.174878597E0,4.326821327E0
2.742171767E1,-1.312463164E0,6.456433773E0,4.111467361E0
2.744158360E1,5.204389244E-2,4.450650215E0,4.566103935E0
2.746144954E1,3.768695518E-2,4.450650215E0,4.896911621E0
2.748131553E1,-9.152546525E-2,5.067998409E0,5.892923832E0
2.750118152E1,2.530409992E-1,5.197210789E0,7.616354465E0
2.752104751E1,1.429711580E-1,5.053641319E0,8.229515076E0
2.754091350E1,-2.542374134E-1,4.737788677E0,7.434499741E0
2.756077949E1,-5.509474277E-1,4.599005222E0,6.160920143E0
2.758064548E1,-6.466603279E-1,5.005784988E0,5.045266628E0
2.760051147E1,-2.925225794E-1,5.383851051E0,4.470390797E0
2.762037746E1,-1.776670814E-1,5.417350292E0,4.767699242E0
2.764024345E1,-1.393819153E-1,5.221138954E0,6.050850391E0
2.766010944E1,1.716850251E-1,4.761716843E0,7.549355507E0
2.767997543E1,-2.973082066E-1,4.723432064E0,9.388239861E0
2.769984142E1,-1.006181955E0,5.106283665E0,1.051346493E1
2.771970740E1,-1.178465128E0,5.426921844E0,1.032203865E1
2.773957339E1,-1.441675663E0,5.695516109E0,9.728020668E0
2.775943938E1,-1.427318692E0,5.839085579E0,9.349954605E0
2.777930537E1,-1.609173179E0,5.915655613E0,1.013539886E1
2.779917136E1,-1.849053741E0,6.140581131E0,1.204606724E1
2.781903735E1,-1.911267042E0,5.819942951E0,1.240020561E1
2.783890334E1,-2.471187592E0,5.652445316E0,1.071924686E1
2.785888511E1,-2.418545485E0,5.628517151E0,1.003489971E1
2.787863553E1,-1.661815286E0,4.656432629E0,1.162433243E1
2.789850152E1,-1.844268084E0,3.406781197E0,1.280698490E1
2.791836751E1,-3.060420275E0,3.281756163E0,1.149512005E1
2.793823345E1,-3.318845034E0,3.693919897E0,9.426525116E0
2.795809944E1,-3.122633457E0,4.000201225E0,8.172087669E0
2.797796537E1,-3.199203968E0,4.268197536E0,8.330014229E0
2.799783136E1,-2.480758905E0,4.057629108E0,9.201599121E0
2.801769735E1,-1.800599098E0,3.583850145E0,9.225527763E0
2.803756334E1,-1.360319614E0,3.631706476E0,7.880163193E0
2.805742933E1,-4.935196638E-1,3.655634880E0,5.950351715E0
2.807729532E1,-6.945167780E-1,3.842274904E0,4.868197441E0
2.809716131E1,-1.508674622E0,3.933202267E0,5.653043270E0
2.811702730E1,-1.762313843E0,3.722633839E0,7.611568928E0
2.813689329E1,-1.494317770E0,3.262613773E0,8.377870560E0
2.815675928E1,-1.484746456E0,3.300898790E0,7.372286797E0
2.817662532E1,-1.513460279E0,3.703491211E0,6.055635929E0
2.819649131E1,-1.479960799E0,4.038486481E0,5.404190063E0
2.821635730E1,-1.551745534E0,4.383052826E0,5.485546112E0
2.823622329E1,-1.398604870E0,4.503292084E0,6.122634888E0
2.825608933E1,-5.982056609E-4,4.814359188E0,6.831508636E0
2.827595532E1,9.523434043E-1,5.292923450E0,7.099504948E0
2.829582131E1,-9.152546525E-1,5.316852093E0,6.783652306E0
2.831568730E1,-2.983849764E0,4.838287354E0,7.985447407E0
2.833555329E1,-2.787040234E0,4.637290478E0,1.025025368E1
2.835541933E1,-1.302891970E0,5.034498692E0,1.135155106E1
2.837528532E1,-1.974078640E-2,5.920441628E0,1.183968639E1
2.839515136E1,6.699903607E-1,6.092724800E0,1.325264835E1
2.841501735E1,3.828516304E-1,5.388636589E0,1.493779373E1
2.843488334E1,2.679961324E-1,4.809573650E0,1.519681644E1
2.845474933E1,1.333998591E-1,4.929214478E0,1.350150204E1
2.847461537E1,4.402793646E-1,5.197210789E0,1.052303600E1
2.849448136E1,8.901300430E-1,5.379065514E0,7.942376614E0
2.851434735E1,8.279166222E-1,5.369493961E0,6.946363926E0
2.853421339E1,4.498506486E-1,5.096712112E0,7.961519241E0
2.855407938E1,2.003988922E-1,4.555934429E0,8.808578491E0
2.857394543E1,4.187439568E-3,4.143770695E0,7.649854183E0
2.859381142E1,1.621137410E-1,4.560719967E0,4.916054249E0
2.861367740E1,6.077769399E-1,5.178068161E0,2.818745136E0
2.863354345E1,7.274180651E-1,5.450850010E0,3.695116282E0
2.865340944E1,5.934200287E-1,5.211567879E0,6.012565136E0
2.867327543E1,9.990034252E-2,4.857429981E0,7.444071293E0
2.869314147E1,-6.466603279E-1,4.771288395E0,7.635497093E0
2.871300746E1,-9.678967595E-1,4.756931305E0,7.176074982E0
2.873298923E1,-5.413761139E-1,4.814359188E0,6.754938126E0
2.875273964E1,-1.633101404E-1,5.144568920E0,6.615556240E0
2.877260563E1,-1.393819153E-1,5.547161102E0,6.946363926E0
2.879247168E1,-1.058823988E-1,5.776872158E0,7.506284714E0
2.881233761E1,-2.638086975E-1,5.886941910E0,8.100302696E0
2.883220365E1,-4.600201547E-1,6.001797199E0,8.712865829E0
2.885206959E1,-5.174478889E-1,6.102295876E0,9.421739578E0
2.887193563E1,-7.615157962E-1,6.178866386E0,1.005882835E1
2.889180162E1,-1.001396298E0,6.236293793E0,1.031246758E1
2.891166767E1,-1.255035520E0,6.451648235E0,1.047996521E1
2.893153365E1,-1.345962763E0,6.500102520E0,1.079581738E1
2.895139964E1,-1.073180914E0,6.164509296E0,1.152861977E1
2.897126563E1,-8.003991842E-1,5.724229813E0,1.211785221E1
2.899113168E1,-4.887340367E-1,5.144568920E0,1.201256752E1
2.901099767E1,-1.106680483E-1,4.699503899E0,1.086281681E1
2.903086365E1,-3.451646566E-1,4.661218643E0,9.230313301E0
2.905072970E1,-9.631111026E-1,4.838287354E0,8.416155815E0
2.907059569E1,-1.154536963E0,4.828716278E0,8.703293800E0
2.909046173E1,-9.248259664E-1,4.622933388E0,8.947959900E0
2.911032777E1,-7.956135273E-1,4.484149456E0,8.540582657E0
2.913019376E1,-6.370890141E-1,4.244269371E0,7.664210796E0
2.915005980E1,-3.738785386E-1,4.119842529E0,6.548557281E0
2.916992579E1,-2.446661144E-1,4.186841488E0,5.528616905E0
2.918979183E1,-2.350948304E-1,4.296911240E0,5.380261898E0
2.920965782E1,-3.738785386E-1,4.320839405E0,6.663413048E0
2.922952386E1,-5.748756528E-1,4.158127785E0,7.688138962E0
2.924938990E1,-8.721838593E-1,3.957130432E0,7.429714203E0
2.926925589E1,-1.106680512E0,4.057629108E0,6.572485447E0
2.928912194E1,-1.092323542E0,4.311268330E0,6.074778557E0
2.930898798E1,-1.188036442E0,4.575077057E0,5.993422508E0
2.932885397E1,-1.087537885E0,4.780859470E0,6.180062771E0
2.934872001E1,-6.658028960E-1,5.024927616E0,6.701697826E0
2.936858605E1,-4.791627228E-1,5.441278458E0,7.099504948E0
2.938856782E1,-4.695914388E-1,5.762515068E0,7.314858913E0
2.940831824E1,-5.222335458E-1,5.987440586E0,7.822735310E0
2.942829996E1,-6.179464459E-1,5.920441628E0,8.459226608E0
2.944805048E1,-5.653043389E-1,5.752943993E0,9.891330719E0
2.946783944E1,-1.393819153E-1,5.575874805E0,1.111705399E1
2.948789798E1,2.811566554E-2,5.819942951E0,1.028853893E1
2.950776412E1,1.573280841E-1,6.303293228E0,8.808578491E0
2.952763032E1,3.876372576E-1,6.820741177E0,8.952746391E0
2.954749636E1,6.843472719E-1,6.538387775E0,1.066181946E1
2.956736246E1,8.135597110E-1,5.595017433E0,1.244806194E1
2.958722855E1,6.173482537E-1,4.996213913E0,1.324786282E1
2.960709459E1,5.120640397E-1,4.847858906E0,1.178225899E1
2.962696058E1,6.221339107E-1,5.259424210E0,8.454441071E0
2.964682673E1,6.221339107E-1,5.843871117E0,5.926423550E0
2.966669282E1,3.637090325E-1,6.020939827E0,5.744568825E0
2.968655886E1,6.640082598E-2,5.532804012E0,6.739983082E0
2.970630933E1,9.990034252E-2,4.704289436E0,7.635497093E0
2.972617517E1,3.206382394E-1,4.387838364E0,7.832306862E0
2.974604105E1,7.704889178E-1,4.790431023E0,7.233502865E0
2.976590704E1,1.374078393E0,5.192425251E0,6.146563053E0
2.978588865E1,1.345364571E0,5.316852093E0,5.744568825E0
2.980563912E1,1.009771109E0,5.178068161E0,6.361917019E0
2.982550506E1,7.034898400E-1,4.876572609E0,7.075576782E0
2.984537105E1,5.647061467E-1,4.651647091E0,7.439285755E0
2.986523699E1,4.785645306E-1,4.627718925E0,7.214360237E0
2.988510298E1,6.460621357E-1,4.618147850E0,6.677769661E0
2.990496902E1,8.566305041E-1,4.733003139E0,6.275775433E0
2.992483506E1,8.805587292E-1,4.895715237E0,6.122634888E0
2.994470105E1,6.317051649E-1,4.943571568E0,6.314060688E0
2.996468272E1,2.338984162E-1,5.034498692E0,6.663413048E0
2.998443324E1,-2.590230405E-1,5.335994720E0,7.152146816E0
3.000429923E1,-7.663014531E-1,5.575874805E0,7.731209755E0
3.002416522E1,-7.184450030E-1,5.618945599E0,8.588438988E0
3.004403126E1,-4.552344978E-1,5.671587944E0,9.852447510E0
3.006389730E1,-3.212364316E-1,5.757729530E0,1.083888817E1
3.008376329E1,-4.743770957E-1,6.006583214E0,1.102134132E1
3.010362928E1,-4.648058116E-1,6.131010056E0,1.101177025E1
3.012353386E1,-3.403790295E-1,6.193223000E0,1.133240795E1
3.014336142E1,-3.068794906E-1,5.930012703E0,1.196471119E1
3.016322746E1,-2.255235314E-1,5.436492920E0,1.243370438E1
3.018309350E1,-4.552344978E-1,4.929214478E0,1.227099228E1
3.020295949E1,-8.961120844E-1,4.282554150E0,1.100698376E1
3.022282553E1,-1.479960799E0,3.885345697E0,9.273384094E0
3.024269157E1,-1.680957913E0,3.823132277E0,7.597211838E0
3.026255761E1,-1.436890006E0,4.272983074E0,6.629913330E0
3.028242365E1,-1.312463164E0,4.651647091E0,7.228717327E0
3.030228964E1,-9.870393276E-1,4.363910198E0,8.866603851E0
3.032215569E1,-7.860422134E-1,4.052843571E0,9.345169067E0
3.034202173E1,-5.030909777E-1,4.081557274E0,8.090731621E0
3.036188777E1,6.364908218E-1,3.794418573E0,6.208776474E0
3.038175386E1,-8.195417374E-2,5.015356064E0,6.376274109E0
3.040161990E1,-9.152546525E-2,5.901299000E0,6.519843578E0
3.042148595E1,5.551348329E-1,4.594219685E0,7.228717327E0
3.044135199E1,2.823530734E-1,4.004986763E0,9.163313866E0
3.046121808E1,7.597211748E-2,3.123830080E0,9.168100357E0
3.048108412E1,-4.983053207E-1,2.199602127E0,8.291728973E0
3.050095017E1,-2.279761791E0,2.865405083E0,8.588438988E0
3.052081621E1,-2.322832584E0,3.257827997E0,8.559724808E0
3.054068225E1,-9.678967595E-1,3.286541939E0,8.794221878E0
3.056054829E1,-1.757528186E0,4.009772778E0,9.464810371E0
3.058041438E1,-1.825125456E0,3.665206194E0,8.425726891E0
3.060028042E1,-1.235892892E0,3.397209883E0,8.497511864E0
3.062014647E1,-2.432902336E0,4.670789719E0,9.684949875E0
3.064001256E1,-2.542972326E0,4.977071285E0,9.967901230E0
3.065999438E1,-1.087537885E0,4.014558315E0,1.103569794E1
3.067974480E1,-8.530412912E-1,3.765704632E0,1.163868904E1
3.069961084E1,-1.680957913E0,4.560719967E0,1.142812061E1
3.071947694E1,-2.136192322E0,5.216353416E0,1.101177025E1
3.073934293E1,-1.747956991E0,5.278566837E0,1.117926693E1
3.075920897E1,-7.375875711E-1,4.828716278E0,1.148554897E1
3.077907501E1,-4.366901144E-2,4.474578381E0,1.159561825E1
3.079894105E1,-5.324030295E-2,4.081557274E0,1.121755219E1
3.081880709E1,-2.063809484E-1,3.918845177E0,9.795019150E0
3.083867319E1,-9.152546525E-2,4.186841488E0,7.649854183E0
3.085853923E1,6.161518395E-2,4.627718925E0,6.376274109E0
3.087840522E1,1.621137410E-1,4.737788677E0,6.314060688E0
3.089827131E1,1.429711580E-1,4.508078098E0,6.692126751E0
3.091813740E1,-2.207378894E-1,4.287340164E0,6.960721016E0
3.093800345E1,-4.121637046E-1,4.038486481E0,6.591628075E0
3.095786949E1,-1.537388563E-1,4.100699902E0,5.868995667E0
3.097773558E1,2.632105052E-1,4.460221291E0,5.509474277E0
3.099760162E1,2.679961324E-1,4.847858906E0,6.361917019E0
3.101746772E1,5.120640397E-1,4.689932346E0,7.472784996E0
3.103733376E1,7.609176040E-1,4.124628067E0,7.688138962E0
3.105719985E1,6.640082598E-2,4.067200184E0,7.257431030E0
3.107706589E1,-7.232306600E-1,4.441078663E0,6.912864685E0
3.109693199E1,-4.265206456E-1,4.704289436E0,6.414559364E0
3.111679803E1,-2.638086975E-1,5.000999451E0,5.945566177E0
3.113666412E1,-5.461617708E-1,4.996213913E0,6.122634888E0
3.115653017E1,-7.423732281E-1,5.091926575E0,7.338787079E0
3.117639626E1,-1.144965649E0,5.762515068E0,9.158528328E0
3.119626230E1,-1.202393413E0,6.379863262E0,1.000139999E1
3.121612839E1,-7.615157962E-1,6.446862221E0,9.378668785E0
3.123599449E1,-1.077966571E0,6.466004848E0,8.401798248E0
3.125586053E1,-1.814955950E0,6.648457527E0,8.114660263E0
3.127572657E1,-2.394617319E0,7.045666218E0,8.866603851E0
3.129559267E1,-2.523829699E0,7.404589653E0,1.007318497E1
3.131545876E1,-2.054836512E0,7.189235687E0,1.030289650E1
3.133532480E1,-2.150549412E0,6.610172749E0,9.723235130E0
3.135519089E1,-2.969492912E0,6.121438503E0,9.550951958E0
3.137505694E1,-3.309273720E0,5.628517151E0,1.006361389E1
3.139492303E1,-2.624328136E0,4.943571568E0,1.027896786E1
3.141478907E1,-2.054836512E0,4.555934429E0,9.598808289E0
3.143465517E1,-1.834696770E0,4.756931305E0,8.574081421E0
3.145452126E1,-1.834696770E0,5.039284706E0,7.928019524E0
3.147438730E1,-2.394617319E0,5.144568920E0,8.105088234E0
3.149425339E1,-2.595614433E0,4.661218643E0,8.813364029E0
3.151411944E1,-2.054836512E0,4.014558315E0,8.641080856E0
3.153410126E1,-1.623530149E0,3.765704632E0,7.171289444E0
3.155385178E1,-7.710871100E-1,3.483351469E0,5.562116146E0
3.157371782E1,-1.106680483E-1,3.914059639E0,4.872983456E0
3.159358392E1,-9.966106415E-1,5.082355499E0,4.609174728E0
3.161344996E1,-1.613958836E0,4.996213913E0,4.987838745E0
3.163331600E1,-2.509472847E0,4.996213913E0,5.499902725E0
3.165318204E1,-2.820539713E0,4.445864677E0,5.681757450E0
3.167304813E1,-2.447259426E0,4.119842529E0,6.314060688E0
3.169291418E1,-2.528615236E0,4.761716843E0,7.061219692E0
3.171278027E1,-2.547757864E0,5.475376606E0,7.923233986E0
3.173264636E1,-2.322832584E0,5.896512985E0,8.617152214E0
3.175251240E1,-1.819741607E0,5.977869034E0,8.693722725E0
3.177237845E1,-1.460818172E0,5.987440586E0,8.468797684E0
3.179224454E1,-1.844268084E0,6.221937180E0,8.521439552E0
3.181211063E1,-2.217548370E0,6.567101955E0,9.139386177E0
3.183197668E1,-1.825125456E0,6.322435856E0,1.006839943E1
3.185184277E1,-1.441675663E0,6.068796635E0,1.064746284E1
3.187170886E1,-2.385046005E0,6.485147476E0,1.058524895E1
3.189157496E1,-3.089133978E0,6.576673031E0,1.121755219E1
3.191144100E1,-2.633899450E0,6.102295876E0,1.214656639E1
3.193130709E1,-1.887338877E0,5.829514027E0,1.198863983E1
3.195117319E1,-9.535398483E-1,5.350351334E0,1.081017494E1
3.197103923E1,-5.509474277E-1,5.106283665E0,9.244669914E0
3.199090532E1,-9.774680734E-1,5.379065514E0,8.248658180E0
3.201077142E1,-1.250249863E0,5.383851051E0,8.215158463E0
3.203063751E1,-1.020538807E0,5.020142078E0,8.133802414E0
3.205050360E1,-3.786641955E-1,4.862215519E0,7.482356548E0
3.207036970E1,1.764706671E-1,4.943571568E0,6.759724140E0
3.209023574E1,8.075776696E-2,4.991427898E0,5.912066460E0
3.211010183E1,-4.408775866E-1,4.972285271E0,5.432903767E0
3.212996792E1,-1.130608678E0,4.795216560E0,5.423332691E0
3.214983402E1,-1.849053741E0,4.771288395E0,5.969494343E0
3.216970006E1,-2.011765718E0,4.742574692E0,6.841079712E0
3.218956615E1,-1.800599098E0,4.594219685E0,7.113861561E0
3.220943225E1,-1.633101463E0,4.402195454E0,6.175277233E0
3.222941412E1,-1.887338877E0,4.622933388E0,5.351547718E0
3.224916459E1,-1.825125456E0,4.694717884E0,5.562116146E0
3.226903069E1,-1.978266120E0,4.575077057E0,5.778068542E0
3.228889678E1,-4.061218262E0,4.953142643E0,2.919243574E0
3.230876277E1,-2.662613392E0,4.847858906E0,5.442475319E0
3.232862886E1,-1.863410592E0,5.796014786E0,8.727222443E0
3.234849490E1,-3.366701365E0,6.451648235E0,7.726424217E0
3.239533546E1,-2.021337032E0,5.896512985E0,9.168100357E0
3.241520150E1,-1.384247899E0,6.514459610E0,1.040818024E1
3.243518332E1,-1.733600020E0,6.399005890E0,9.278169632E0
3.245493379E1,-2.724826813E0,6.552744865E0,7.822735310E0
3.247479988E1,-3.242274761E0,6.768098831E0,8.004590034E0
3.249466598E1,-3.194418192E0,6.456433773E0,9.886545181E0
3.251453202E1,-3.122633457E0,6.040082455E0,1.211306667E1
3.253439812E1,-3.290131092E0,5.958726406E0,1.275912857E1
3.255426416E1,-3.725624800E0,6.121438503E0,1.112662506E1
3.257413025E1,-3.941577196E0,6.634100914E0,8.986245155E0
3.259399634E1,-3.586841106E0,6.777669907E0,8.693722725E0
3.261397812E1,-2.834896564E0,5.934798241E0,1.013061333E1
3.263384436E1,-2.825325251E0,4.819144726E0,1.074796104E1
3.265371062E1,-3.692125320E0,4.532006264E0,9.661021233E0
3.267357676E1,-4.156930923E0,5.000999451E0,7.851449490E0
3.269344291E1,-3.927220106E0,5.528018475E0,6.572485447E0
3.271330905E1,-3.596412420E0,5.848656654E0,6.510272026E0
3.273317520E1,-2.523829699E0,5.537590027E0,6.682555676E0
3.275304129E1,-1.738385677E0,4.756931305E0,6.860222340E0
3.277290744E1,-1.733600020E0,4.239483356E0,6.774080753E0
3.279277358E1,-1.901695848E0,4.028914928E0,6.668198586E0
3.281263968E1,-2.064407825E0,3.789632797E0,6.381059647E0
3.283250577E1,-2.600399971E0,3.794418573E0,6.457630157E0
3.285225629E1,-3.026920557E0,3.559921980E0,7.085147858E0
3.287212223E1,-2.902493954E0,2.903690338E0,6.725626469E0
3.289198812E1,-4.262215137E0,2.204387903E0,4.939982414E0
3.291185416E1,-3.290131092E0,2.348555326E0,3.402593851E0
3.293172015E1,1.627717614E0,2.333600283E0,4.331607342E0
3.295158619E1,2.973082066E0,4.747360229E0,1.010189915E1
3.297156791E1,2.291127741E-1,5.350351334E0,1.211785221E1
3.299131843E1,9.284151793E-1,4.967499733E0,1.089153004E1
3.301118447E1,1.201196909E0,4.632504463E0,9.230313301E0
3.303105046E1,1.095912814E0,5.245067120E0,7.439285755E0
3.305091650E1,1.890928149E0,5.163711071E0,7.578069210E0
3.307078259E1,2.987439156E0,4.062414646E0,9.536594391E0
3.309064869E1,2.776870728E0,3.257827997E0,1.148076344E1
3.311051473E1,1.024128079E0,3.732205153E0,1.275912857E1
3.313038077E1,2.099701911E-1,4.594219685E0,1.332921886E1
3.315024681E1,2.518445730E0,3.741776466E0,1.286441231E1
3.317011291E1,3.691527128E0,2.989831924E0,1.195992565E1
3.318997900E1,2.953939438E0,2.702693224E0,1.075274658E1
3.320984509E1,2.489732027E0,2.166102648E0,1.014496994E1
3.322971114E1,1.828714728E0,2.065604210E0,9.641879082E0
3.324957723E1,1.536790371E0,2.702693224E0,1.006839943E1
3.326944327E1,1.723430514E0,2.951546669E0,1.035075283E1
3.328930942E1,1.756929994E0,2.985046148E0,9.967901230E0
3.330917546E1,1.608574986E0,2.750549555E0,9.053244591E0
3.332904155E1,1.148554921E0,2.382055044E0,7.966304779E0
3.334890759E1,6.699903607E-1,2.314457655E0,7.401000500E0
3.336877369E1,4.642075896E-1,2.678765059E0,7.152146816E0
3.338863978E1,7.465606928E-1,2.788834810E0,7.128218651E0
3.340850588E1,4.737788737E-1,2.606980324E0,7.491927624E0
3.342814134E1,8.554340899E-2,2.563909531E0,7.798807144E0
3.344823770E1,3.302095234E-1,2.563909531E0,7.252645493E0
3.346810384E1,6.939185858E-1,2.932404041E0,7.027719975E0
3.348796999E1,1.000199914E0,3.612564087E0,7.731209755E0
3.350783614E1,1.957927108E0,4.110270977E0,8.052446365E0
3.352770218E1,2.542374134E0,4.253840446E0,7.702496052E0
3.354756832E1,1.747358680E0,4.344767570E0,7.089933395E0
3.356743447E1,-3.888336942E-2,5.374279499E0,7.759923935E0
3.358730051E1,-8.434699774E-1,5.834300041E0,8.631509781E0
3.360716660E1,-1.298106313E-1,5.245067120E0,8.621937752E0
3.362703275E1,-5.270192027E-1,5.398207664E0,8.650651932E0
3.364689884E1,-1.719243050E0,5.709873199E0,9.881759644E0
3.366688067E1,-1.010967612E0,6.016154289E0,1.183011532E1
3.368663114E1,-4.360919297E-1,5.944369793E0,1.227099228E1
3.370649723E1,-1.020538807E0,5.638088226E0,1.172961617E1
3.372636327E1,-1.221535921E0,4.704289436E0,1.068574810E1
3.374622931E1,-1.613958836E0,3.813561201E0,1.105962658E1
3.376609535E1,-1.877767563E0,3.123830080E0,1.234277725E1
3.378596145E1,-1.887338877E0,2.717050076E0,1.210349560E1
3.380582749E1,-2.734398127E0,2.879761934E0,1.062353420E1
3.382569358E1,-3.309273720E0,3.195614576E0,8.784649849E0
3.384555968E1,-3.419343472E0,3.579064369E0,7.678567886E0
3.386542567E1,-3.146561861E0,3.746562004E0,7.932805061E0
3.388529176E1,-2.289333105E0,3.416352510E0,8.425726891E0
3.390515785E1,-1.613958836E0,3.142972469E0,7.846663475E0
3.392502390E1,-1.020538807E0,3.119044304E0,6.807580471E0
3.394488999E1,-8.386843204E-1,3.574278831E0,6.672984123E0
3.396475608E1,-1.412961721E0,3.933202267E0,7.568498135E0
3.398462212E1,-1.274178028E0,3.636492252E0,7.573283672E0
3.400448822E1,-1.508674622E0,3.286541939E0,6.774080753E0
3.402435431E1,-2.523829699E0,3.238685369E0,6.223133564E0
3.404422035E1,-3.007778168E0,3.468994617E0,6.620342255E0
3.406408645E1,-1.992623091E0,3.665206194E0,7.180860519E0
3.408395254E1,-8.769695163E-1,3.732205153E0,7.683353424E0
3.410381858E1,-1.130608678E0,4.095914364E0,7.951947689E0
3.412368468E1,-2.231905222E0,4.924428940E0,8.148159027E0
3.414355072E1,-2.801397085E0,5.561518192E0,8.296514511E0
3.416341681E1,-2.006979942E0,6.016154289E0,1.023111153E1
3.418328285E1,-9.678967595E-1,5.925227165E0,1.066660500E1
3.420314895E1,1.477568001E-1,4.642076015E0,9.421739578E0
3.422301504E1,-1.968096644E-1,3.818346739E0,8.991030693E0
3.424288114E1,-2.935993433E0,4.205984116E0,9.838089943E0
3.426274718E1,-5.196014404E0,3.914059639E0,1.250070381E1
3.428261327E1,-2.528615236E0,2.439482689E0,1.513460350E1
3.430247936E1,5.046463013E0,-2.518445849E-1,1.105962658E1
3.432234541E1,7.670791149E0,-4.432703853E-1,1.197428226E1
3.434221145E1,4.721039295E0,3.075973511E0,1.169611740E1
3.436207754E1,1.225125194E0,6.121438503E0,7.884948730E0
3.438194364E1,2.499303341E0,4.148556232E0,7.295716286E0
3.440180973E1,6.795616150E-1,3.353540897E0,7.735995770E0
3.442167582E1,-5.796613097E-1,2.568695068E0,8.967103004E0
3.444154187E1,-6.849454641E-1,2.520838737E0,9.493523598E0
3.446140796E1,-1.135394335E0,3.736990690E0,7.697710514E0
3.448127400E1,-1.590030670E0,5.087141037E0,6.888936520E0
3.450114009E1,5.682953820E-2,4.465006828E0,6.596413612E0
3.452100619E1,1.100698471E0,3.435495138E0,6.845865726E0
3.454087223E1,6.412764788E-1,3.569493294E0,8.310871124E0
3.456073832E1,1.764706671E-1,3.353540897E0,8.531010628E0
3.458060436E1,-5.605186820E-1,4.004986763E0,7.985447407E0
3.460047046E1,-3.978067636E-1,4.263411522E0,7.300501823E0
3.462033655E1,3.445664644E-1,4.177269936E0,7.046862602E0
3.464020259E1,2.099701911E-1,4.694717884E0,7.185646534E0
3.466006869E1,1.429711580E-1,4.977071285E0,7.520641804E0
3.467993473E1,1.333998591E-1,5.048855782E0,8.794221878E0
3.469980082E1,2.051845491E-1,4.795216560E0,9.862018585E0
3.471966692E1,-4.121637046E-1,4.895715237E0,1.023589706E1
3.473953296E1,-1.288534999E0,5.547161102E0,1.017846966E1
3.475939905E1,-1.456032634E0,6.260222435E0,1.024068260E1
3.477926515E1,-9.918249846E-1,6.892525673E0,1.017846966E1
3.479924697E1,-4.169493318E-1,7.404589653E0,9.565308571E0
3.481899744E1,3.876372576E-1,6.825526714E0,9.613164902E0
3.483897921E1,3.254238665E-1,5.235496044E0,1.072403336E1
3.485872973E1,-8.147560954E-1,3.803989887E0,1.063310528E1
3.487859572E1,-2.145763636E0,3.799204111E0,8.698508263E0
3.489846171E1,-2.681756020E0,4.957928658E0,6.323632240E0
3.491832780E1,-1.532602906E0,5.489733219E0,7.142575741E0
3.493819390E1,-8.291130662E-1,5.067998409E0,9.775876999E0
3.495805989E1,-1.523031592E0,4.000201225E0,1.015454102E1
3.497792598E1,-2.586043119E0,3.018545866E0,8.995817184E0
3.499779197E1,-2.998206854E0,2.654836655E0,8.090731621E0
3.501765801E1,-2.964707375E0,2.587837696E0,7.803592682E0
3.503752416E1,-1.671386600E0,3.746562004E0,9.201599121E0
3.505739025E1,1.493719578E0,4.728217602E0,9.239884377E0
3.507725629E1,3.916452408E0,3.713062525E0,7.094718933E0
3.509712233E1,1.302293777E0,3.329612732E0,5.562116146E0
3.511698838E1,-2.164906263E0,4.220340729E0,5.452046394E0
3.513685447E1,-2.509472847E0,4.441078663E0,5.557330608E0
3.515672051E1,-5.270192027E-1,5.182853699E0,6.788437843E0
3.517658660E1,1.210768223E0,5.364708424E0,7.755138397E0
3.519663181E1,1.919641972E0,4.737788677E0,7.783852100E0
3.521631900E1,1.287338614E0,4.809573650E0,7.606783390E0
3.523630072E1,-4.265206456E-1,5.915655613E0,7.305287361E0
3.525605124E1,9.511470050E-2,5.987440586E0,7.971090317E0
3.527591723E1,1.575075507E0,6.073582172E0,9.369096756E0
3.529578327E1,2.264208317E0,5.786443233E0,9.872187614E0
3.531564931E1,1.465005636E0,5.848656654E0,9.632308006E0
3.533551535E1,8.518448472E-1,6.131010056E0,9.723235130E0
3.535538145E1,2.168495417E0,5.810371399E0,1.064267731E1
3.537524749E1,3.792025566E0,5.523232937E0,1.116491032E1
3.539511353E1,4.007379532E0,5.063212872E0,1.047039413E1
3.541509530E1,2.891726255E0,4.555934429E0,9.278169632E0
3.543484582E1,1.905285001E0,4.479363918E0,8.152944565E0
3.545471181E1,2.211566210E0,4.881358147E0,7.118647575E0
3.547457791E1,2.638087034E0,5.149354458E0,6.725626469E0
3.549444400E1,2.106282234E0,4.766502857E0,6.932007313E0
3.551430999E1,1.307079315E0,4.272983074E0,7.113861561E0
3.553417608E1,9.284151793E-1,4.095914364E0,7.353144169E0
3.555404218E1,1.205982566E0,4.445864677E0,6.884150982E0
3.557386968E1,2.029711723E0,4.685146809E0,6.084349632E0
3.559369723E1,2.422732830E0,4.599005222E0,6.471987247E0
3.561375593E1,2.254637241E0,4.498506546E0,7.104290485E0
3.563362218E1,1.972284079E0,4.392624378E0,7.573283672E0
3.565348832E1,1.819143414E0,4.301696777E0,7.290930748E0
3.567335457E1,1.780858278E0,4.210769653E0,7.003791809E0
3.569322072E1,1.933998942E0,4.220340729E0,6.908079147E0
3.571308686E1,1.709073544E0,4.555934429E0,6.874579430E0
3.573295301E1,1.215553880E0,4.977071285E0,7.219145775E0
3.575281910E1,9.092726111E-1,5.235496044E0,8.162516594E0
3.577268520E1,1.421934843E0,5.235496044E0,9.101100922E0
3.579255134E1,2.063211441E0,5.297709465E0,1.032682419E1
3.581234041E1,2.044068813E0,5.513661385E0,1.101655579E1
3.583216780E1,1.737787485E0,5.504090309E0,1.068096161E1
3.585203379E1,1.024128079E0,5.901299000E0,1.059003448E1
3.587189978E1,1.220339537E0,6.543173313E0,1.078624630E1
3.589176577E1,2.499303341E0,7.217949390E0,1.127019501E1
3.591163181E1,2.700300455E0,7.179664135E0,1.224227905E1
3.593149780E1,1.282552958E0,5.939583778E0,1.283569908E1
3.595136384E1,-8.673982322E-2,4.632504463E0,1.259641647E1
3.597122994E1,-1.063609719E0,4.095914364E0,1.160997581E1
3.599109598E1,-1.312463164E0,3.698705673E0,1.020718288E1
3.601096202E1,-1.460818172E0,3.928416491E0,8.559724808E0
3.603082812E1,-1.752742529E0,4.666004181E0,6.634698868E0
3.605069416E1,-2.385046005E0,4.972285271E0,5.442475319E0
3.607056020E1,-2.361117840E0,4.503292084E0,5.490331650E0
3.609042629E1,-1.283749342E0,3.550350666E0,6.860222340E0
3.611029238E1,-5.222335458E-1,2.717050076E0,7.956733704E0
3.613015848E1,-7.184450030E-1,2.429911375E0,7.563712597E0
3.615002447E1,-9.631111026E-1,2.697907448E0,6.390631199E0
3.616989056E1,-9.631111026E-1,2.889333248E0,4.825126648E0
3.618975666E1,-7.956135273E-1,3.114258766E0,4.144967079E0
3.620962275E1,-5.509474277E-1,3.238685369E0,4.671986103E0
3.622948884E1,-5.653043389E-1,3.329612732E0,5.638686657E0
3.624935488E1,-1.020538807E0,3.574278831E0,6.098706722E0
3.626922098E1,-1.121037364E0,4.028914928E0,6.069993019E0
3.628912562E1,-8.913264275E-1,4.469792843E0,6.687341213E0
3.630895322E1,-6.466603279E-1,4.747360229E0,7.856235027E0
3.632881931E1,-1.872383654E-1,4.857429981E0,8.799007416E0
3.634868530E1,-1.250249892E-1,5.087141037E0,9.747162819E0
3.636855145E1,-1.010967568E-1,5.518447399E0,1.059482002E1
3.638841754E1,5.694918036E-1,5.738586903E0,1.163390350E1
3.640828358E1,1.043270707E0,5.705087185E0,1.240977669E1
3.642792358E1,1.148554921E0,5.590231895E0,1.218006516E1
3.644801577E1,1.038485050E0,5.853442192E0,1.221835041E1
3.646799765E1,1.694716692E0,5.671587944E0,1.306600761E1
3.648774812E1,2.709871531E0,5.312066078E0,1.380778313E1
3.650761421E1,3.231507063E0,4.800002098E0,1.348714447E1
3.652748030E1,2.992224693E0,4.239483356E0,1.212263775E1
3.654734629E1,2.091925144E0,3.971487284E0,9.766305923E0
3.656721239E1,1.613360643E0,3.966701746E0,6.194419384E0
3.658707843E1,1.666002750E0,4.086342812E0,3.287738323E0
3.660694452E1,8.374879360E-1,4.833501816E0,3.048455954E0
3.662681062E1,1.229910851E0,4.153341770E0,5.073980331E0
3.664667671E1,2.192423820E0,3.047259569E0,7.051648140E0
3.666654280E1,2.796013355E0,3.008974552E0,7.156932354E0
3.668640890E1,2.834298372E0,4.474578381E0,6.404987812E0
3.670627499E1,3.385245800E0,5.005784988E0,5.375475883E0
3.672614108E1,3.610171080E0,4.205984116E0,4.849055290E0
3.674600718E1,3.178864956E0,4.095914364E0,5.117051125E0
3.676587327E1,2.781656265E0,3.971487284E0,6.002993584E0
3.678573937E1,2.091925144E0,3.890131474E0,6.774080753E0
3.680560546E1,1.771286964E0,4.062414646E0,7.075576782E0
3.682547155E1,1.914856315E0,4.335196495E0,7.501499176E0
3.684533765E1,1.780858278E0,4.713860512E0,8.789435387E0
3.686520379E1,2.024926186E0,4.656432629E0,1.042253685E1
3.688506988E1,2.316850424E0,4.162913322E0,1.176311588E1
3.690493598E1,2.063211441E0,4.100699902E0,1.258684540E1
3.692480207E1,1.560718536E0,4.637290478E0,1.277348518E1
3.694466817E1,1.249053478E0,4.943571568E0,1.162433243E1
3.696453431E1,1.225125194E0,5.149354458E0,9.862018585E0
3.698440041E1,6.939185858E-1,5.633302689E0,8.732007980E0
3.700426650E1,1.052842021E0,5.087141037E0,8.641080856E0
3.702413259E1,1.685145378E0,4.009772778E0,9.038887978E0
3.704399874E1,5.886343718E-1,3.348755360E0,9.991828918E0
3.706386483E1,-2.442473650E0,2.611765862E0,1.115055370E1
3.708373093E1,-4.152145386E0,1.869392633E0,1.091605663E1
3.710359707E1,-3.725624800E0,2.353341103E0,9.349954605E0
3.712346317E1,-3.515056372E0,3.655634880E0,8.306085587E0
3.714332931E1,-2.006979942E0,2.372483730E0,7.176074982E0
3.716319541E1,-1.714457393E0,1.261017561E0,8.200801849E0
3.718306155E1,-1.618744493E0,3.326023519E-1,9.852447510E0
3.720292765E1,-1.173679471E0,-7.477571070E-2,1.060917759E1
3.722279374E1,-6.658028960E-1,-4.606183618E-2,1.006839943E1
3.724265988E1,-6.227321029E-1,9.750752151E-2,8.124231339E0
3.726252603E1,-9.822536707E-1,6.771687865E-1,6.999006271E0
3.728239212E1,-4.360919297E-1,5.623133183E-1,7.357929707E0
3.730225822E1,1.860419661E-1,2.943171859E-1,8.531010628E0
3.732212436E1,1.429711580E-1,4.486542568E-2,9.464810371E0
3.734199051E1,3.110669553E-1,-1.034895778E-1,1.047517967E1
3.736185660E1,1.094716340E-1,4.007977992E-2,1.195992565E1
3.738172275E1,5.204389244E-2,1.166501045E-1,1.277348518E1
3.740158884E1,1.860419661E-1,1.022931710E-1,1.255813122E1
3.742145499E1,7.597211748E-2,7.345965505E-1,1.185404301E1
3.744132114E1,3.158525825E-1,1.520040631E0,1.163390350E1
3.746118723E1,1.186840057E0,1.654038668E0,1.202692509E1
3.748105338E1,2.302493572E0,1.179661512E0,1.177747345E1
3.750091947E1,2.096710920E0,1.572682738E0,1.007318497E1
3.752078562E1,7.704889178E-1,2.980260611E0,8.924032211E0
3.754065176E1,5.359922647E-1,3.392424345E0,1.054217815E1
3.756051791E1,1.445863128E0,2.587837696E0,1.300858021E1
3.758038400E1,2.139781713E0,2.070389748E0,1.343450260E1
3.760025015E1,1.201196909E0,2.903690338E0,1.180618668E1
3.762011629E1,-4.121637046E-1,3.813561201E0,9.924830437E0
3.763998238E1,-9.008977413E-1,3.387638569E0,8.924032211E0
3.765984853E1,1.477568001E-1,2.573480844E0,8.459226608E0
3.767971462E1,7.417750359E-1,2.755335331E0,7.089933395E0
3.769958077E1,4.929214716E-1,3.229114056E0,6.515058041E0
3.771944692E1,-3.355933726E-1,4.038486481E0,7.985447407E0
3.773931306E1,5.216353536E-1,3.736990690E0,8.210372925E0
3.775917916E1,8.135597110E-1,3.856631994E0,7.726424217E0
3.777904530E1,7.848458290E-1,4.000201225E0,7.410571575E0
3.779891145E1,7.848458290E-1,4.124628067E0,7.314858913E0
3.781877759E1,6.412764788E-1,3.990629911E0,7.511070251E0
3.783864369E1,6.747759581E-1,3.660420418E0,7.769495010E0
3.785850983E1,7.752745152E-1,3.397209883E0,7.942376614E0
3.787837598E1,7.513462901E-1,3.540779352E0,7.875377655E0
3.789824212E1,7.082754970E-1,3.813561201E0,7.861020565E0
3.791810827E1,2.632105052E-1,4.043272018E0,8.272585869E0
3.793797442E1,5.682953820E-2,4.172484398E0,8.535796165E0
3.795784056E1,-3.116651475E-1,4.292125702E0,8.593224525E0
3.797770666E1,-8.961120844E-1,4.651647091E0,9.024530411E0
3.799757280E1,-9.918249846E-1,5.115854740E0,9.464810371E0
3.801743895E1,-9.343972206E-1,5.590231895E0,1.003968525E1
3.803742082E1,-5.748756528E-1,5.633302689E0,9.896116257E0
3.805717140E1,-1.403390527E0,6.255436420E0,9.125029564E0
3.807703749E1,-1.379462242E0,5.896512985E0,8.847461700E0
3.809690369E1,-1.010967612E0,5.288137913E0,9.665806770E0
3.811676973E1,-7.088736892E-1,4.589433670E0,1.042732334E1
3.813663588E1,-1.546959877E0,3.674777269E0,9.522237778E0
3.815650197E1,-2.921636343E0,2.764906645E0,7.176074982E0
3.817636812E1,-3.850051641E0,2.764906645E0,5.878567219E0
3.819640843E1,-4.286143780E0,4.177269936E0,6.869793892E0
3.821610067E1,-4.817350388E0,5.824728489E0,9.010173798E0
3.823596671E1,-5.956932068E0,6.528816700E0,9.321240425E0
3.825583280E1,-3.873979807E0,3.933202267E0,6.452844620E0
3.827569890E1,-1.503889084E0,3.186043262E0,4.916054249E0
3.829556504E1,-2.428116798E0,4.551148891E0,4.226323128E0
3.831543114E1,-2.883351326E0,4.426722050E0,3.570091486E0
3.833529728E1,-2.107478619E0,3.923630953E0,4.896911621E0
3.835516338E1,-1.240678549E0,3.832703590E0,8.224729538E0
3.837502952E1,-1.116251707E0,3.799204111E0,1.007318497E1
3.839489567E1,-1.757528186E0,4.038486481E0,8.971888542E0
3.841476181E1,-2.174477577E0,4.441078663E0,7.764709473E0
3.843462796E1,-2.341975212E0,4.421936035E0,7.439285755E0
3.845449405E1,-2.418545485E0,4.359124660E0,8.119445801E0
3.847436020E1,-2.294118643E0,4.239483356E0,8.545368195E0
3.849422634E1,-2.289333105E0,4.460221291E0,8.760722160E0
3.851409244E1,-2.341975212E0,4.838287354E0,9.158528328E0
3.853395864E1,-2.519043922E0,5.072783947E0,9.641879082E0
3.855370936E1,-2.533401012E0,4.991427898E0,1.046560764E1
3.857380650E1,-1.810170293E0,4.780859470E0,1.137547874E1
3.859367280E1,-8.673982024E-1,4.493721008E0,1.176311588E1
3.861353905E1,-1.097109199E0,4.881358147E0,1.145204926E1
3.863340525E1,-1.652244091E0,5.633302689E0,1.099262714E1
3.865327155E1,-1.106680512E0,5.518447399E0,1.139940739E1
3.867313775E1,-6.275177598E-1,4.943571568E0,1.212742329E1
3.869300395E1,-5.653043389E-1,4.465006828E0,1.224227905E1
3.871287020E1,-7.956135273E-1,3.995415688E0,1.086281681E1
3.873273629E1,-1.015753269E0,3.445066452E0,7.745566845E0
3.875260249E1,-3.978067636E-1,3.416352510E0,4.575675011E0
3.877243009E1,9.092726111E-1,3.961916208E0,3.235096216E0
3.879221916E1,2.173281193E0,3.799204111E0,3.886542082E0
3.881208520E1,1.402792215E0,3.416352510E0,5.950351715E0
3.883195119E1,-3.834498227E-1,3.866203070E0,7.032505512E0
3.885181728E1,-8.817551732E-1,4.517649174E0,6.970292568E0
3.887168338E1,-4.025924206E-1,4.953142643E0,6.610770702E0
3.889154947E1,9.511470050E-2,5.364708424E0,7.142575741E0
3.891141556E1,1.764706671E-1,5.417350292E0,8.014161110E0
3.893128166E1,-4.360919297E-1,5.024927616E0,8.363512993E0
3.895114780E1,-1.389033556E0,4.368695736E0,8.119445801E0
3.897101390E1,-2.179263115E0,4.115056515E0,8.052446365E0
3.899088004E1,-2.212762833E0,4.378267288E0,8.181658745E0
3.901074614E1,-1.173679471E0,4.742574692E0,8.564510345E0
3.903061228E1,-3.260220885E-1,5.091926575E0,8.808578491E0
3.905047843E1,-6.083751321E-1,5.398207664E0,8.645866394E0
3.907034457E1,-1.077966571E0,5.335994720E0,8.363512993E0
3.909032640E1,-1.733600020E0,5.302495003E0,8.162516594E0
3.911007697E1,-2.318047047E0,5.523232937E0,8.315656662E0
3.912994312E1,-2.475973129E0,5.719444275E0,9.201599121E0
3.914980926E1,-2.394617319E0,6.016154289E0,1.046560764E1
3.916967535E1,-2.054836512E0,5.968297958E0,1.110269737E1
3.918954150E1,-1.939980984E0,5.690730572E0,1.083888817E1
3.920940759E1,-2.284547329E0,5.906084538E0,1.093998528E1
3.922927374E1,-2.609971285E0,5.843871117E0,1.140897846E1
3.924913989E1,-2.643470764E0,5.441278458E0,1.236192036E1
3.926912171E1,-2.069193363E0,4.694717884E0,1.245763302E1
3.928887233E1,-1.800599098E0,4.272983074E0,1.122233772E1
3.930873838E1,-1.733600020E0,4.115056515E0,9.359525681E0
3.932860452E1,-1.623530149E0,4.110270977E0,7.601997375E0
3.934847062E1,-1.800599098E0,4.296911240E0,6.821937561E0
3.936833676E1,-1.983051777E0,3.990629911E0,6.783652306E0
3.938820285E1,-2.351546526E0,3.421138287E0,7.367500782E0
3.940806900E1,-2.370688915E0,2.697907448E0,7.975875854E0
3.942770900E1,-2.117049932E0,2.396411896E0,7.582854748E0
3.944780129E1,-1.676172256E0,2.463410854E0,6.285346985E0
3.946766744E1,-1.331605792E0,2.970689297E0,5.442475319E0
3.948753358E1,-1.173679471E0,3.305684566E0,5.696114540E0
3.950739968E1,-1.762313843E0,3.305684566E0,5.643472195E0
3.952726582E1,-1.954337835E0,3.300898790E0,7.056434155E0
3.954713197E1,-5.892325640E-1,2.501696110E0,8.272585869E0
3.956699812E1,-7.184450030E-1,2.554338217E0,7.783852100E0
3.958686426E1,-2.581257343E0,3.305684566E0,8.076375008E0
3.960673041E1,-3.203989506E0,3.382853031E0,9.230313301E0
3.962659655E1,-2.236690998E0,3.281756163E0,1.040339470E1
3.964646270E1,-1.868196249E0,3.598206997E0,1.168654537E1
3.966632884E1,-1.882553220E0,3.866203070E0,1.277827072E1
3.968619499E1,-1.250249863E0,3.851846218E0,1.324786282E1
3.970609968E1,-6.705885530E-1,4.076771736E0,1.263470173E1
3.972592733E1,-1.077966571E0,4.387838364E0,1.113141060E1
3.974579348E1,-2.251047850E0,4.948357105E0,1.060439205E1
3.976565963E1,-2.327618122E0,4.890929699E0,1.189711380E1
3.978552572E1,-1.312463164E0,4.110270977E0,1.336750412E1
3.980539187E1,-9.583254457E-1,3.674777269E0,1.342971706E1
3.982525801E1,-1.015753269E0,3.636492252E0,1.147597694E1
3.984512416E1,-5.557330847E-1,3.808775425E0,8.871390343E0
3.986499025E1,-2.159522474E-1,4.048057556E0,7.391428947E0
3.988485640E1,-9.104689956E-1,3.899702787E0,7.448856831E0
3.990472259E1,-1.302891970E0,3.353540897E0,8.239086151E0
3.992458869E1,-1.537388563E0,3.248256683E0,8.617152214E0
3.994445483E1,-1.460818172E0,3.367897987E0,8.176873207E0
3.996443681E1,-1.058824062E0,3.650849104E0,7.051648140E0
3.998418733E1,-1.044467092E0,4.086342812E0,6.538986206E0
4.000405348E1,-1.484746456E0,4.038486481E0,6.884150982E0
4.002391963E1,-1.369890928E0,3.540779352E0,7.070790768E0
4.004378572E1,-9.918249846E-1,3.166900873E0,6.668198586E0
4.006365187E1,-1.460818172E0,3.296113253E0,5.959922791E0
4.008351796E1,-2.188834429E0,3.641277790E0,5.528616905E0
4.010338410E1,-2.356332064E0,3.564707518E0,5.294120312E0
4.012325030E1,-2.313261271E0,3.367897987E0,5.562116146E0
4.014311640E1,-1.901695848E0,3.004188776E0,7.429714203E0
4.016298254E1,-1.618744493E0,3.440280676E0,6.884150982E0
4.018284864E1,-1.221535921E0,4.215555191E0,6.778866768E0
4.020271478E1,-7.519445419E-1,4.733003139E0,8.119445801E0
4.022258093E1,-9.583254457E-1,4.962714195E0,8.631509781E0
4.024244707E1,-1.245464206E0,4.752145767E0,7.204789162E0
4.030030265E1,-2.279761791E0,5.891727448E0,6.304489613E0
4.032016880E1,-8.195417523E-1,6.006583214E0,8.545368195E0
4.034003489E1,-7.184450030E-1,6.202794552E0,9.139386177E0
4.035990104E1,-2.246262312E0,6.384648800E0,8.181658745E0
4.037976708E1,-3.792623997E0,6.475576401E0,7.386643410E0
4.039963322E1,-4.018147469E0,6.413362980E0,7.511070251E0
4.041949932E1,-3.141776085E0,6.605386734E0,8.277371407E0
4.043936541E1,-2.045265198E0,6.887740135E0,9.613164902E0
4.045923156E1,-1.757528186E0,6.648457527E0,1.049432182E1
4.047909765E1,-2.480758905E0,6.629314899E0,1.018325520E1
4.049896380E1,-3.117847919E0,6.815955162E0,9.555737495E0
4.051882989E1,-3.132204771E0,6.696314335E0,8.981459618E0
4.053869598E1,-3.347558975E0,6.748956203E0,8.602795601E0
4.055856208E1,-3.620340586E0,6.562315941E0,8.947959900E0
4.057842822E1,-3.941577196E0,6.169294834E0,9.536594391E0
4.059829432E1,-4.290929317E0,5.867799282E0,9.546165466E0
4.061816046E1,-4.381856441E0,5.446064472E0,9.010173798E0
4.063802656E1,-4.558925152E0,5.149354458E0,8.645866394E0
4.065789265E1,-4.702494621E0,4.776073933E0,8.497511864E0
4.067775880E1,-4.377070904E0,4.363910198E0,8.004590034E0
4.069762489E1,-4.109074593E0,4.134199142E0,6.979863644E0
4.071749104E1,-3.922434568E0,3.995415688E0,6.409773827E0
4.073735713E1,-3.941577196E0,4.048057556E0,6.299703598E0
4.075722322E1,-4.305285931E0,4.575077057E0,6.304489613E0
4.077708932E1,-2.907279491E0,4.119842529E0,7.472784996E0
4.079695546E1,-2.088335991E0,3.090330362E0,8.353941917E0
4.081682156E1,-1.987837434E0,2.980260611E0,6.951149940E0
4.083668765E1,-9.726824164E-1,3.138186932E0,6.132206440E0
4.085655380E1,-1.618744493E0,3.339184046E0,5.260620594E0
4.087641989E1,-1.810170293E0,3.080759048E0,5.145765305E0
4.089640176E1,-4.456632137E-1,2.563909531E0,6.017350674E0
4.091615228E1,1.333998591E-1,1.869392633E0,6.750152588E0
4.093601838E1,1.067198873E0,1.438684583E0,7.267002583E0
4.095588447E1,1.445863128E0,1.496112347E0,7.654639721E0
4.097575051E1,1.191625714E0,2.123031855E0,8.909674644E0
4.099561661E1,1.277767301E0,2.132603168E0,9.598808289E0
4.101548270E1,1.316650629E0,1.491326690E0,9.900901794E0
4.103534880E1,1.713859200E0,1.563111424E0,1.121755219E1
4.105521489E1,2.714657307E0,1.591825247E0,1.337228966E1
4.107508098E1,3.365504980E0,1.443470240E0,1.457886982E1
4.109494713E1,3.557528973E0,1.319043517E0,1.465544033E1
4.111481317E1,3.260220766E0,5.814558864E-1,1.398963737E1
4.113467926E1,2.992224693E0,-4.576273263E-1,1.311386490E1
4.115454536E1,3.279363394E0,-1.075573802E0,1.236192036E1
4.117441150E1,4.601397991E0,-5.437689424E-1,1.220399380E1
4.119427760E1,6.253043652E0,3.230310678E-1,1.149033451E1
4.121414369E1,6.574280262E0,6.484549642E-1,1.090110207E1
4.123400984E1,5.089533806E0,-6.999006122E-2,1.104526901E1
4.125387593E1,3.370290756E0,-9.750752449E-1,1.247198963E1
4.127374203E1,1.953141451E0,-5.341976285E-1,1.333400440E1
4.129360812E1,7.226324677E-1,7.298108935E-1,1.307079411E1
4.131347421E1,1.296909928E0,7.010970116E-1,1.196471119E1
4.133334031E1,1.292124271E0,5.575276613E-1,1.071446133E1
4.135320640E1,6.161518395E-2,1.093519926E0,9.503094673E0
4.137307255E1,-3.212364316E-1,1.941177368E0,7.827520847E0
4.139282322E1,3.972085714E-1,2.396411896E0,6.203990936E0
4.141292031E1,7.848458290E-1,3.162115097E0,5.552545071E0
4.143278661E1,7.369893789E-1,3.914059639E0,5.332405090E0
4.145265286E1,6.747759581E-1,4.354339123E0,5.121836662E0
4.147251900E1,6.699903607E-1,4.713860512E0,4.949553490E0
4.149238525E1,8.949156404E-1,4.728217602E0,4.729413986E0
4.151225140E1,1.210768223E0,4.780859470E0,4.700700283E0
4.153211755E1,1.402792215E0,4.948357105E0,4.777270317E0
4.155198369E1,1.186840057E0,5.034498692E0,5.045266628E0
4.157184984E1,6.652047038E-1,5.067998409E0,5.581258774E0
4.159171593E1,6.269195080E-1,5.091926575E0,6.304489613E0
4.161158208E1,8.470591903E-1,5.259424210E0,6.744768620E0
4.163140963E1,7.657032609E-1,5.618945599E0,6.620342255E0
4.165119869E1,1.477568001E-1,6.524031162E0,6.658627033E0
4.167118025E1,-3.260220885E-1,6.926024914E0,7.233502865E0
4.169093078E1,-3.260220885E-1,6.839883327E0,7.735995770E0
4.171079671E1,-4.360919297E-1,7.543971539E0,8.468797684E0
4.173066275E1,-7.519445419E-1,7.912466049E0,9.469595909E0
4.175052874E1,-1.331605792E0,7.485945702E0,9.574879646E0
4.177039478E1,-2.155334949E0,7.299305439E0,9.259027481E0
4.179026088E1,-2.710469961E0,7.150950432E0,9.235098839E0
4.181012687E1,-2.791825771E0,6.973881721E0,9.881759644E0
4.182999301E1,-2.356332064E0,6.006583214E0,1.091605663E1
4.184985911E1,-2.437688112E0,5.015356064E0,1.160519028E1
4.186972515E1,-2.931207657E0,4.565505505E0,1.132762241E1
