"Time (s)","Acceleration x (m/s^2)","Acceleration y (m/s^2)","Acceleration z (m/s^2)"
8.399283000E-3,-2.405983210E0,7.244569778E0,8.931210518E0
2.717589800E-2,-2.547458887E0,7.506583691E0,9.788140297E0
4.595214800E-2,-2.458625317E0,7.832306862E0,1.009352398E1
6.472938700E-2,-2.283949137E0,8.069195747E0,1.014975548E1
8.350511600E-2,-2.352144718E0,8.070392609E0,1.029571724E1
1.022808980E-1,-2.528316259E0,8.203493118E0,1.020957565E1
1.210581890E-1,-3.035594702E0,7.621738434E0,9.861420631E0
1.398352210E-1,-3.764807224E0,6.780063152E0,1.021675491E1
1.586126680E-1,-4.024428368E0,5.566303730E0,1.078534889E1
1.773892830E-1,-3.722932816E0,4.819443703E0,1.058195877E1
1.961648040E-1,-3.216551781E0,4.802694321E0,9.337093353E0
2.149405330E-1,-2.829811811E0,4.910371304E0,7.471887589E0
2.337164710E-1,-2.826222658E0,5.008476734E0,6.502495766E0
2.524939710E-1,-2.560619354E0,4.782355309E0,6.538387775E0
2.712712100E-1,-2.175075769E0,4.599005222E0,6.624529362E0
2.900498560E-1,-2.047059774E0,4.475774765E0,6.531209469E0
3.088285020E-1,-1.893620014E0,4.401597023E0,6.574280262E0
3.276054290E-1,-1.642373681E0,4.487739086E0,6.485745907E0
3.463829810E-1,-1.422233939E0,4.742574692E0,6.152844429E0
3.651617830E-1,-1.281954765E0,4.921138763E0,6.075077534E0
3.839404290E-1,-1.205384374E0,4.992923737E0,6.334698677E0
4.027186060E-1,-1.055832982E0,5.040780067E0,6.432804585E0
4.214953770E-1,-7.313064337E-1,5.208277702E0,6.412465572E0
4.402737100E-1,-5.901299119E-1,5.390431404E0,6.363412857E0
4.590517830E-1,-5.518447161E-1,5.787639618E0,6.439982891E0
4.778291790E-1,-6.535396576E-1,5.997310638E0,6.742974281E0
4.966065750E-1,-6.595217586E-1,6.127719879E0,7.189534664E0
5.153855330E-1,-7.911269665E-1,6.292824268E0,7.431210041E0
5.341641270E-1,-7.683951855E-1,6.447161674E0,7.625327587E0
5.529425640E-1,-7.636095285E-1,6.343073845E0,8.164011955E0
5.717195960E-1,-7.923234105E-1,6.148058891E0,9.048459053E0
5.904991270E-1,-6.619145870E-1,6.186343670E0,9.772586823E0
6.092777210E-1,-5.291129351E-1,6.501298904E0,9.940383911E0
6.280545430E-1,-4.597210586E-1,7.657630444E0,9.098708153E0
6.468328250E-1,-4.621138871E-1,8.288438797E0,8.136494637E0
6.656104290E-1,-1.794617027E-1,8.404490471E0,8.607880592E0
6.843891790E-1,-7.058826834E-2,7.508976460E0,9.851848602E0
7.031674080E-1,2.512463741E-2,6.146862507E0,1.087986565E1
7.219467310E-1,1.986042857E-1,4.979763031E0,1.130369377E1
7.407267830E-1,3.197409213E-1,4.900799751E0,1.097109222E1
7.595063660E-1,4.142574072E-1,5.333003521E0,9.605089188E0
7.782833460E-1,3.628117442E-1,5.526822090E0,8.457132339E0
7.970600640E-1,4.549354017E-1,5.100600719E0,8.064410210E0
8.158382930E-1,6.523432732E-1,4.578666210E0,7.869395256E0
8.346154810E-1,8.306085467E-1,4.217350006E0,7.400103092E0
8.533924600E-1,1.015154958E0,3.945465326E0,6.636493683E0
8.721690750E-1,9.804590940E-1,3.758825302E0,6.039185047E0
8.909454810E-1,8.258228898E-1,3.792324781E0,5.697908878E0
9.097237620E-1,6.176473498E-1,4.017250061E0,5.394020557E0
9.285012620E-1,4.274179339E-1,4.124927044E0,5.134099960E0
9.472786060E-1,4.788636267E-1,4.225724697E0,4.954638481E0
9.660560020E-1,8.126623631E-1,4.578666210E0,5.075475693E0
9.848335540E-1,9.385846853E-1,5.319543839E0,5.268098354E0
1.003611627E0,1.085743308E0,5.949454308E0,5.961418629E0
1.022388971E0,1.208973646E0,6.473781586E0,6.628118515E0
1.041167721E0,1.287936807E0,7.018447876E0,7.370193005E0
1.059947616E0,1.295115232E0,7.426424026E0,7.791628838E0
1.078727200E0,1.236491084E0,7.475477219E0,8.130212784E0
1.097505533E0,1.066600680E0,7.335496902E0,9.053244591E0
1.116283241E0,9.230313301E-1,7.020840645E0,1.017488003E1
1.135061002E0,7.432705164E-1,6.533602238E0,1.106441212E1
1.153836471E0,7.025925517E-1,6.401698112E0,1.105005455E1
1.172611262E0,3.783650696E-1,6.628118515E0,1.056161976E1
1.191388658E0,4.785645381E-2,6.920042992E0,1.020837975E1
1.210166783E0,-4.178466499E-1,7.054340363E0,9.770194054E0
1.228944023E0,-1.012762189E0,6.575476646E0,9.649356842E0
1.247720898E0,-1.450947881E0,6.071488380E0,9.776176453E0
1.266498710E0,-1.649552107E0,5.400002480E0,9.806086540E0
1.285277304E0,-1.569392562E0,5.087440014E0,9.313164711E0
1.304054127E0,-1.540678620E0,5.437091351E0,8.392526627E0
1.322831002E0,-1.665105462E0,5.796014786E0,7.268497944E0
1.341609491E0,-1.712961912E0,5.828317642E0,6.708278179E0
1.360387929E0,-1.340578914E0,5.602196217E0,6.228218079E0
1.379165481E0,-8.126623631E-1,5.290830135E0,5.501697540E0
1.397942408E0,-6.762714982E-1,5.280062199E0,5.069493771E0
1.416720325E0,-8.799605370E-1,5.626124382E0,5.757729530E0
1.435498033E0,-5.745765567E-1,5.530411243E0,6.252146244E0
1.454275846E0,-3.867399693E-1,5.461019516E0,5.597410202E0
1.473054752E0,-2.994019389E-1,5.242973328E0,5.034798145E0
1.491832877E0,-1.483550072E-1,4.898406982E0,5.122136116E0
1.510611731E0,-5.264209956E-2,4.661218643E0,5.670391560E0
1.529389127E0,9.571290761E-2,4.492524624E0,5.549553871E0
1.548165168E0,1.663011760E-1,4.407579422E0,4.948656559E0
1.566942512E0,2.488535494E-1,4.649254322E0,4.740181446E0
1.585722564E0,3.975076675E-1,5.155635357E0,4.849354267E0
1.604500689E0,3.113660514E-1,5.635695457E0,4.857728958E0
1.623278866E0,-2.862414122E-1,6.006882191E0,4.935495853E0
1.642055846E0,-8.294121623E-1,6.413661957E0,5.889334679E0
1.660835429E0,-8.536394835E-1,6.641279221E0,6.655636311E0
1.679614491E0,-1.091725349E0,6.541976929E0,7.124928474E0
1.698392981E0,-1.569392562E0,6.249753475E0,8.610273361E0
1.717171002E0,-1.940280080E0,6.073881149E0,1.022393322E1
1.735949179E0,-1.747657895E0,5.837889194E0,1.120558834E1
1.754725325E0,-1.155135155E0,6.104988098E0,1.153729343E1
1.773502043E0,-7.468597889E-1,6.414858341E0,1.086431217E1
1.792279648E0,-5.063810945E-1,6.460621357E0,1.002532864E1
1.811057877E0,-7.899305820E-1,5.743372440E0,9.723533630E0
1.829834804E0,-1.102493048E0,4.773980141E0,1.084516907E1
1.848611887E0,-9.433703423E-1,3.770789385E0,1.259282780E1
1.867390793E0,2.572284341E-1,3.472583771E0,1.291376495E1
1.886170221E0,1.313061476E0,3.585046530E0,1.123789120E1
1.904948762E0,1.738086581E0,3.891626835E0,9.929615974E0
1.923725012E0,1.705783486E0,3.914358854E0,9.927223206E0
1.942503606E0,1.793121457E0,3.626920938E0,1.039053345E1
1.961283189E0,1.980060697E0,3.171088219E0,1.046471119E1
1.980060168E0,1.851745605E0,2.755634308E0,1.019402313E1
1.998836627E0,1.409073472E0,2.480160713E0,9.790533066E0
2.017613502E0,8.859425783E-1,2.304288149E0,9.340682030E0
2.036391210E0,5.542375445E-1,2.166700840E0,8.939585686E0
2.055169023E0,3.412763178E-1,2.075773716E0,8.521739006E0
2.073944960E0,1.627119333E-1,2.097309113E0,8.229814529E0
2.092721627E0,-1.256231815E-1,2.231307030E0,7.983054638E0
2.111498710E0,-1.674975902E-1,2.598904610E0,7.367800236E0
2.130275950E0,-9.930214286E-2,3.042773008E0,6.953542709E0
2.149053658E0,-4.860421121E-1,3.605385542E0,7.564011574E0
2.167829804E0,-1.112064362E0,4.144069672E0,8.628219604E0
2.186605846E0,-1.622034669E0,4.415954113E0,9.220742226E0
2.205382877E0,-1.849352837E0,4.565505505E0,9.618249893E0
2.224158866E0,-2.233700037E0,4.447061062E0,1.031605625E1
2.242936471E0,-2.481357098E0,4.208974838E0,1.135992527E1
2.261715846E0,-2.468196630E0,4.183551311E0,1.230209923E1
2.280493762E0,-2.390429735E0,4.496113777E0,1.245882893E1
2.299272564E0,-2.557030201E0,4.599005222E0,1.180768204E1
2.318050846E0,-2.692224503E0,4.491328239E0,1.113858986E1
2.336828502E0,-3.087339401E0,4.014857292E0,1.089422226E1
2.355605481E0,-3.260818958E0,3.540779352E0,1.073988533E1
2.374381210E0,-3.272783279E0,3.228515863E0,1.035314560E1
2.393158398E0,-3.126821041E0,3.147160053E0,9.758230209E0
2.411936210E0,-3.053540707E0,3.053540707E0,9.086744308E0
2.430712773E0,-2.936292410E0,2.972184896E0,8.251349449E0
2.449490116E0,-2.705385208E0,2.900400162E0,7.464709282E0
2.468268762E0,-2.347358942E0,2.825026274E0,6.666403770E0
2.487045689E0,-1.840977907E0,2.742473841E0,5.678766251E0
2.505822668E0,-1.332203984E0,2.685046196E0,4.817050934E0
2.524599543E0,-9.864411354E-1,2.659921408E0,4.392025948E0
2.543376262E0,-7.097710371E-1,2.699403048E0,4.200301170E0
2.562153085E0,-4.573282301E-1,2.760420084E0,3.835395575E0
2.580930689E0,-2.739782035E-1,2.882453918E0,3.454637766E0
2.599709179E0,-2.033899277E-1,3.043969393E0,3.522833109E0
2.618486158E0,-5.231308341E-1,3.332603693E0,4.123730659E0
2.637263971E0,-1.042672515E0,3.556332588E0,5.574678421E0
2.656041418E0,-1.047458172E0,3.773182154E0,8.240582466E0
2.674818814E0,-4.310071766E-1,4.274777889E0,1.053170967E1
2.693595116E0,-4.070789516E-1,4.794319153E0,1.120798111E1
2.712372096E0,-1.353739381E0,5.571089268E0,1.166411304E1
2.731149335E0,-2.632404089E0,6.163611889E0,1.270558929E1
2.749925377E0,-3.955036640E0,6.295217037E0,1.442453289E1
2.768700950E0,-4.298706055E0,6.396912098E0,1.584527111E1
2.787478137E0,-3.482155085E0,6.565905571E0,1.585484314E1
2.806255377E0,-2.057827473E0,6.574280262E0,1.432642746E1
2.825034231E0,-1.638784409E0,6.109773636E0,1.257727432E1
2.843811523E0,-2.175075769E0,4.876871586E0,1.218245792E1
2.862589752E0,-2.698206663E0,3.041576624E0,1.308365536E1
2.881367721E0,-2.215753794E0,1.448554993E0,1.324188042E1
2.900144075E0,-1.201795220E0,8.919246197E-1,1.141376400E1
2.918921471E0,-5.937191248E-1,9.314061999E-1,8.829515457E0
2.937700325E0,-4.274179339E-1,1.223330617E0,7.062715054E0
2.956477096E0,-5.315057039E-1,1.618445396E0,6.224628925E0
2.975251887E0,-7.731808424E-1,2.038684845E0,5.754140377E0
2.994028762E0,-9.170492887E-1,2.365305185E0,5.347360611E0
3.012806366E0,-8.401798606E-1,2.707777977E0,5.143671513E0
3.031582668E0,-4.872384965E-1,3.113660574E0,5.045565605E0
3.050358189E0,-8.374879509E-2,3.379263878E0,5.055137157E0
3.069134856E0,1.794617027E-1,3.551547050E0,5.530411243E0
3.087912304E0,1.447657645E-1,3.733700514E0,6.583851337E0
3.106690273E0,-6.699903309E-2,3.745664835E0,7.733004570E0
3.125466523E0,-1.579262912E-1,3.595814228E0,7.719843864E0
3.144242668E0,-4.274179339E-1,3.528815269E0,7.741379261E0
3.163019596E0,-7.528418303E-1,3.691826344E0,8.332705498E0
3.181795012E0,-1.089332461E0,3.828217030E0,8.763712883E0
3.200570273E0,-1.222134113E0,4.024428368E0,8.983852386E0
3.219346783E0,-8.751748800E-1,4.247260094E0,9.087940216E0
3.238122929E0,-5.303093195E-1,4.387240410E0,8.640183449E0
3.256897929E0,-1.019940615E0,4.298706055E0,8.335098267E0
3.275673971E0,-2.224128723E0,4.201497555E0,9.129815102E0
3.294449596E0,-3.649951935E0,3.983750582E0,1.086431217E1
3.313225793E0,-4.754538536E0,3.507279873E0,1.261077309E1
3.332002408E0,-5.391627789E0,2.923131943E0,1.387867069E1
3.350778814E0,-6.271288872E0,2.685046196E0,1.426870060E1
3.369555533E0,-7.226623535E0,2.231307030E0,1.303938770E1
3.388334439E0,-6.383751869E0,1.455733418E0,1.186630630E1
3.407111835E0,-4.652843475E0,5.075774789E-1,1.112662506E1
3.425888346E0,-3.350549936E0,7.776673883E-2,1.011625576E1
3.444665168E0,-2.578565598E0,3.508476317E-1,9.242277145E0
3.463442043E0,-2.237289190E0,1.061815023E0,8.736195564E0
3.482219908E0,-2.343769789E0,1.890030742E0,8.211868286E0
3.500995898E0,-2.714956284E0,2.561815739E0,7.717451096E0
3.519773866E0,-2.778366089E0,2.914757013E0,7.585845947E0
3.538552096E0,-2.808276415E0,2.987738132E0,7.788039684E0
3.557329856E0,-2.741277456E0,3.094517946E0,7.719843864E0
3.576106314E0,-2.771187782E0,3.236890793E0,7.379764080E0
3.594882668E0,-2.785544634E0,3.295515060E0,6.959524632E0
3.613660377E0,-2.464607239E0,3.236890793E0,6.549155712E0
3.632438450E0,-2.000399828E0,3.028416157E0,6.334698677E0
3.651215689E0,-1.778764486E0,2.809472799E0,6.398108482E0
3.669992721E0,-1.671087503E0,2.752045155E0,6.564708710E0
3.688771314E0,-1.340578914E0,2.775973320E0,6.443572044E0
3.707549023E0,-9.541380405E-1,2.933899641E0,6.334698677E0
3.726325533E0,-7.648059130E-1,3.245265722E0,6.692724705E0
3.745102408E0,-9.026923180E-1,3.451048374E0,7.930412292E0
3.763879491E0,-8.318049908E-1,3.593421459E0,9.920044899E0
3.782656471E0,-5.805585980E-1,3.393620729E0,1.139342499E1
3.801434335E0,-1.167099237E0,2.917150021E0,1.261914825E1
3.820211679E0,-2.736491680E0,2.297109842E0,1.419811249E1
3.838989075E0,-3.568296671E0,1.972882271E0,1.599123383E1
3.857765793E0,-2.632404089E0,2.091326952E0,1.631097412E1
3.876542304E0,-1.311864972E0,2.600100994E0,1.503500175E1
3.895319752E0,-1.089332461E0,2.951845884E0,1.350030518E1
3.914171939E0,-1.578963876E0,3.248854876E0,1.266012573E1
3.932987721E0,-2.525923491E0,3.034398317E0,1.270080376E1
3.951790221E0,-2.547458887E0,2.522035122E0,1.269482136E1
3.970595325E0,-1.468894005E0,2.243271112E0,1.146999550E1
3.989398918E0,-3.029911816E-1,2.232503414E0,9.487840652E0
4.008204023E0,3.616153300E-1,2.388036966E0,7.904091358E0
4.027007616E0,2.380858511E-1,2.516052961E0,7.568797112E0
4.045812773E0,-4.142574072E-1,2.474178553E0,8.026124954E0
4.064616366E0,-8.006982803E-1,2.281556368E0,8.436793327E0
4.083421471E0,-4.968098104E-1,2.072184324E0,8.010572433E0
4.102225116E0,-2.476571500E-1,1.898405671E0,7.083054066E0
4.121030221E0,-8.006982803E-1,1.946262121E0,6.765706062E0
4.139833814E0,-1.446162224E0,2.038684845E0,7.229016304E0
4.158638971E0,-1.629213095E0,1.855334878E0,7.630113125E0
4.177442564E0,-1.299900889E0,1.574178219E0,7.224230766E0
4.196247721E0,-9.672985673E-1,1.576570988E0,6.900900364E0
4.215051314E0,-9.014959335E-1,1.866102576E0,6.910471916E0
4.233856418E0,-8.512466550E-1,2.349751949E0,6.733402729E0
4.252660064E0,-5.733801126E-1,3.081058264E0,6.720242500E0
4.271465168E0,-6.332007051E-1,3.724129438E0,6.853044033E0
4.290268814E0,-1.210170031E0,4.299902439E0,7.361817837E0
4.309073918E0,-2.042274237E0,4.522434711E0,8.439186096E0
4.327877512E0,-2.860918522E0,4.217350006E0,9.814460754E0
4.346682668E0,-3.434298754E0,3.684647799E0,1.082004452E1
4.365486262E0,-3.336193085E0,3.210569859E0,1.173829079E1
4.384291471E0,-2.955435038E0,3.253640652E0,1.235354519E1
4.403095012E0,-2.771187782E0,3.562314749E0,1.222911835E1
4.421900221E0,-3.021237612E0,3.611367464E0,1.172991562E1
4.440703762E0,-3.761218071E0,3.600599766E0,1.178136158E1
4.459508971E0,-4.634897232E0,3.285943747E0,1.218724346E1
4.478312564E0,-4.906782150E0,2.919542789E0,1.246122169E1
4.497115429E0,-4.395615101E0,2.732902527E0,1.178614712E1
4.515896939E0,-3.780360699E0,2.657528639E0,1.053529930E1
4.534674856E0,-3.473780155E0,2.578565598E0,9.613464355E0
4.553454596E0,-3.336193085E0,2.450250387E0,9.102297783E0
4.572232460E0,-3.079861879E0,2.291127682E0,8.518149376E0
4.591010012E0,-2.676671267E0,2.094916344E0,7.833503246E0
4.609788241E0,-2.207378864E0,1.919941068E0,7.165606499E0
4.628566575E0,-1.638784409E0,1.783550143E0,6.551548481E0
4.647343502E0,-9.900303483E-1,1.704586983E0,5.931508064E0
4.666123398E0,-5.458626747E-1,1.639980793E0,5.638088226E0
4.684902043E0,-2.560320199E-1,1.654337764E0,5.464608669E0
4.703681627E0,-1.938186288E-1,1.818246126E0,5.251348495E0
4.722462148E0,-2.093719840E-1,2.048256159E0,5.179563522E0
4.741243189E0,-9.810572863E-2,2.349751949E0,5.410770416E0
4.760021731E0,1.088734269E-1,2.685046196E0,5.829514027E0
4.778800012E0,2.850449979E-1,2.947060108E0,6.747759819E0
4.797579023E0,5.865406394E-1,3.489333630E0,7.669594765E0
4.816357564E0,6.499504447E-1,3.919144392E0,8.009375572E0
4.835133137E0,-1.196411322E-3,3.767200232E0,9.111868858E0
4.853911783E0,-5.817549825E-1,3.229712248E0,1.140538883E1
4.872689752E0,-2.500499785E-1,2.717349291E0,1.317577839E1
4.891467825E0,4.704887569E-1,2.405983210E0,1.340339565E1
4.910245221E0,7.791628838E-1,2.563012123E0,1.318295765E1
4.929024387E0,1.157527924E0,3.314657450E0,1.295683575E1
4.947803241E0,7.851449251E-1,3.611367464E0,1.291974640E1
4.966581835E0,-3.831507266E-1,3.780360699E0,1.353141212E1
4.985360585E0,-1.675873160E0,3.458226919E0,1.392413425E1
5.004141627E0,-2.692224503E0,3.157927752E0,1.434676647E1
5.022920950E0,-3.556332588E0,2.899203777E0,1.496082401E1
5.041701158E0,-3.600599766E0,2.588136673E0,1.474158192E1
5.060480012E0,-3.037987471E0,2.323430777E0,1.332802200E1
5.079259179E0,-2.752045155E0,2.220539331E0,1.173589802E1
5.098037564E0,-2.937488794E0,2.306680918E0,1.043360424E1
5.116816627E0,-2.972184896E0,2.276770830E0,9.570393562E0
5.135593502E0,-2.536691189E0,2.030309916E0,8.933603287E0
5.154371939E0,-1.912762642E0,1.637588024E0,8.152048111E0
5.173149231E0,-1.207777262E0,1.226919770E0,7.421638489E0
5.191928137E0,-5.315057039E-1,8.560323119E-1,6.733402729E0
5.210707043E0,-2.632104978E-2,6.607181430E-1,6.222236156E0
5.229486314E0,1.316052526E-1,8.389834166E-1,6.321538448E0
5.248263450E0,8.374879137E-3,1.113260746E0,6.161219120E0
5.267042773E0,-7.896314561E-2,1.454537034E0,5.947061539E0
5.285819335E0,4.785645381E-2,1.776371717E0,5.941079617E0
5.304596418E0,3.209373355E-1,2.092523336E0,5.987739563E0
5.323372096E0,5.925226808E-1,2.431107759E0,6.114559174E0
5.342148293E0,7.121638656E-1,2.820240498E0,6.241378784E0
5.360922512E0,6.786643267E-1,3.223730326E0,6.549155712E0
5.379698450E0,5.063810945E-1,3.629313707E0,6.862615108E0
5.398475533E0,3.029911816E-1,4.072285175E0,7.203891754E0
5.417252825E0,1.962114573E-1,4.389633179E0,7.759325504E0
5.436029856E0,-8.494520187E-2,4.411168575E0,9.284450531E0
5.454807981E0,-3.819543123E-1,4.315455437E0,1.160907841E1
5.473585377E0,-1.137188911E0,4.184747696E0,1.317577839E1
5.492365325E0,-1.927119493E0,4.073481560E0,1.355773354E1
5.511142356E0,-1.848156333E0,4.078267097E0,1.364866066E1
5.529919856E0,-1.572981834E0,4.106980801E0,1.318415356E1
5.548696679E0,-1.601695657E0,4.047160625E0,1.215853024E1
5.567473971E0,-2.189432621E0,3.873680830E0,1.189382362E1
5.586250533E0,-2.719742060E0,3.287140131E0,1.250189972E1
5.605028971E0,-2.819044113E0,2.539083958E0,1.258445263E1
5.623806314E0,-2.364108801E0,2.276770830E0,1.202901840E1
5.642584596E0,-1.566999674E0,2.458625317E0,1.010309505E1
5.661360846E0,-1.188634634E0,2.685046196E0,8.208278656E0
5.680137616E0,-1.258026481E0,3.159124136E0,7.782057285E0
5.698915741E0,-1.668694735E0,3.336193085E0,7.839485168E0
5.717694283E0,-2.085345030E0,3.250051260E0,8.010572433E0
5.736470793E0,-2.291127682E0,3.099303484E0,7.984251022E0
5.755247773E0,-2.152343988E0,3.096910715E0,7.351050377E0
5.774024960E0,-1.965703845E0,3.178266764E0,6.626922131E0
5.792802512E0,-1.811067581E0,3.270390272E0,6.125326633E0
5.811577460E0,-1.849352837E0,3.489333630E0,6.328716755E0
5.830355064E0,-1.643570065E0,3.743271828E0,6.382555485E0
5.849132877E0,-1.359721422E0,4.077070713E0,5.975775242E0
5.867910846E0,-8.883354068E-1,4.555934429E0,5.846263885E0
5.886687460E0,-5.183451772E-1,4.789533615E0,6.241378784E0
5.905465116E0,-3.867399693E-1,4.905585289E0,7.312765121E0
5.924241835E0,-1.603191197E-1,5.064708233E0,8.177172661E0
5.943019491E0,3.257229924E-1,5.286044121E0,8.286046028E0
5.961796002E0,4.968098104E-1,5.518447399E0,7.947162151E0
5.980572929E0,-1.674975902E-1,5.415555954E0,8.359026909E0
5.999348189E0,-1.019940615E0,5.058726311E0,1.030887794E1
6.018126314E0,-1.115653515E0,4.682754040E0,1.232722378E1
6.036901939E0,-5.614160299E-1,4.522434711E0,1.273071384E1
6.055679908E0,3.580260873E-1,4.880460739E0,1.139462185E1
6.074456002E0,4.202394783E-1,5.355735302E0,9.909276962E0
6.093232825E0,1.160518974E-1,5.587839127E0,9.648159981E0
6.112009960E0,-4.812564552E-1,4.878067970E0,9.927223206E0
6.130788918E0,-8.991031051E-1,3.959822416E0,9.745069504E0
6.149565325E0,-9.936196208E-1,3.142374277E0,9.559625626E0
6.168343293E0,-1.194616675E0,2.848954439E0,1.114696407E1
6.187119908E0,-9.457631707E-1,3.196212769E0,1.034955597E1
6.205898241E0,-2.700599432E0,3.920340776E0,1.128455162E1
6.224674231E0,-1.027119160E0,4.212564468E0,7.148856640E0
6.243451210E0,-1.613659739E0,4.398007870E0,7.313961506E0
6.262228085E0,-1.004387259E0,4.122534275E0,6.595815659E0
6.281006314E0,-5.374878049E-1,3.956233025E0,6.513263226E0
6.299784491E0,-3.017947674E-1,3.950251102E0,6.426822662E0
6.318562460E0,-5.470590591E-1,3.858127356E0,5.998507500E0
6.337339127E0,-5.434698462E-1,3.937090635E0,5.682355404E0
6.356116887E0,-5.099703074E-1,3.949054718E0,5.240580559E0
6.374893033E0,-6.607181430E-1,4.167997837E0,4.992923737E0
6.393667825E0,-5.554339290E-1,4.275974274E0,4.976173878E0
6.412441575E0,-2.033899166E-2,4.438685894E0,5.499304771E0
6.431218346E0,5.530411601E-1,4.930710316E0,5.432305813E0
6.449995377E0,6.702894568E-1,5.271687508E0,5.376074314E0
6.468772304E0,3.472583890E-1,5.729015827E0,6.328716755E0
6.487547616E0,-6.221338734E-2,6.186343670E0,7.773682594E0
6.506325429E0,-4.417748749E-1,6.424429893E0,8.815158844E0
6.525100846E0,-1.005583763E0,6.386144638E0,9.383752823E0
6.543876783E0,-1.122832060E0,6.346662998E0,1.019641590E1
6.562652460E0,-9.876375198E-1,6.191129684E0,1.107876873E1
6.581430950E0,-7.731808424E-1,5.805585861E0,1.198235893E1
6.600207512E0,-8.763712645E-1,5.898008823E0,1.239422321E1
6.618985689E0,-8.644071817E-1,6.018846035E0,1.227338600E1
6.637762252E0,-2.333002090E-1,6.219843388E0,1.192134190E1
6.656538710E0,-3.053839803E-1,6.096612930E0,1.102732277E1
6.675315377E0,-1.336989641E0,5.646463394E0,1.086072254E1
6.694092148E0,-2.347358942E0,5.131707191E0,1.101775169E1
6.712867564E0,-2.947060108E0,4.505684853E0,1.111226845E1
6.731644127E0,-3.212962627E0,4.062713623E0,1.079731274E1
6.750419648E0,-2.979363203E0,3.932304859E0,9.765408516E0
6.769195741E0,-2.991327524E0,4.249652863E0,8.441578865E0
6.787970898E0,-3.094517946E0,4.594219685E0,7.138089180E0
6.806748450E0,-2.941078186E0,4.771587372E0,6.568298340E0
6.825525481E0,-2.766402006E0,4.670789719E0,6.665207386E0
6.844303450E0,-2.257628202E0,4.465006828E0,6.811169624E0
6.863081158E0,-1.722533226E0,4.476971149E0,6.896114826E0
6.881857460E0,-1.558624864E0,4.646861553E0,7.039983273E0
6.900633554E0,-1.392024517E0,4.752145767E0,6.880561352E0
6.919411002E0,-1.234098315E0,4.813461781E0,6.719046116E0
6.938187252E0,-1.269990563E0,4.825426102E0,6.711867332E0
6.956964543E0,-1.158724308E0,4.834997177E0,6.646064758E0
6.975741158E0,-1.068993568E0,5.070690155E0,6.434000969E0
6.994518762E0,-9.852447510E-1,5.378467083E0,6.143272877E0
7.013297096E0,-9.732806087E-1,5.684748173E0,5.909972668E0
7.032075116E0,-1.135992527E0,6.057131290E0,5.877370834E0
7.050850741E0,-1.108475089E0,6.430411816E0,6.374180317E0
7.069627043E0,-9.960124493E-1,6.628118515E0,7.074679375E0
7.088403554E0,-9.768698215E-1,6.660421848E0,7.878966808E0
7.107181627E0,-1.167099237E0,6.604190350E0,8.324331284E0
7.125956783E0,-1.537089467E0,6.580262184E0,8.607880592E0
7.144732981E0,-1.708176255E0,6.535995007E0,9.077172279E0
7.163509752E0,-1.632802367E0,6.478567123E0,9.372985840E0
7.182287512E0,-1.748854280E0,6.457031727E0,9.511769295E0
7.201065533E0,-1.262812138E0,6.486942291E0,9.743872643E0
7.219843502E0,-9.349954724E-1,6.587440968E0,9.939187050E0
7.238619596E0,-9.816554785E-1,5.905187130E0,9.084351540E0
7.257395898E0,-1.599302888E0,5.796014786E0,8.965906143E0
7.276171523E0,-1.854138494E0,5.146064281E0,1.076500988E1
7.294950221E0,-1.488036633E0,4.756931305E0,1.018804073E1
7.324181734E0,-2.822633505E0,5.315954685E0,6.854240417E0
7.342958349E0,-3.229712248E0,5.321936607E0,7.526922703E0
7.361733974E0,-3.326621771E0,5.429912567E0,7.710272789E0
7.380510068E0,-3.283550978E0,5.548357487E0,7.750950813E0
7.399285849E0,-3.177070379E0,5.635695457E0,7.530511856E0
7.418062099E0,-2.850150824E0,5.769693375E0,7.468298435E0
7.436838453E0,-2.525923491E0,5.669195175E0,7.480262756E0
7.455615693E0,-2.164308071E0,5.559125423E0,7.371389389E0
7.474392411E0,-2.169093609E0,5.271687508E0,7.486244678E0
7.493169807E0,-2.659921408E0,5.293222904E0,8.088338852E0
7.511946786E0,-2.903989315E0,5.361717224E0,8.330312729E0
7.530726057E0,-3.049951553E0,4.719842434E0,7.525726318E0
7.549503870E0,-3.367299557E0,4.220939159E0,7.637291908E0
7.568283088E0,-3.098107100E0,3.876073599E0,8.349455833E0
7.587061995E0,-2.429911375E0,3.933501244E0,8.508578300E0
7.605838818E0,-2.658725023E0,4.421936035E0,7.857431412E0
7.624616265E0,-3.494119167E0,4.961816788E0,7.347461224E0
7.643393870E0,-3.937090635E0,5.074279308E0,7.089035988E0
7.662170640E0,-3.625724554E0,4.888835907E0,6.417251110E0
7.680948609E0,-3.401995659E0,4.676771641E0,5.681159019E0
7.699724495E0,-3.850949049E0,4.462614059E0,5.246562958E0
7.718501630E0,-4.555934429E0,4.399204254E0,5.187938690E0
7.737277568E0,-5.097011566E0,4.338187218E0,5.382056236E0
7.756056109E0,-4.831408024E0,3.809074640E0,5.513661385E0
7.774835172E0,-4.275974274E0,3.202194929E0,5.920740604E0
7.793611682E0,-3.903591156E0,2.871686220E0,6.728617191E0
7.812386943E0,-3.521636724E0,2.702992201E0,7.481459141E0
7.831162984E0,-3.430709362E0,2.657528639E0,7.949554920E0
7.849939755E0,-3.874877214E0,2.645564556E0,9.067601204E0
7.868717099E0,-4.350151539E0,2.766402006E0,1.119960594E1
7.887493818E0,-5.047958374E0,3.104089260E0,1.266132164E1
7.906268922E0,-5.947061539E0,3.472583771E0,1.304058456E1
7.925043297E0,-6.110970020E0,3.614956856E0,1.290897942E1
7.943819963E0,-6.078666687E0,3.396013498E0,1.295922852E1
7.962594911E0,-5.384449005E0,3.174677372E0,1.220877934E1
7.981371578E0,-4.698307037E0,3.009273529E0,1.052812099E1
8.000146682E0,-3.837788343E0,3.047558784E0,8.940781593E0
8.018922255E0,-3.189034462E0,3.270390272E0,8.772088051E0
8.037697724E0,-2.729313374E0,3.625724554E0,9.109476089E0
8.056472620E0,-1.715354681E0,4.329812527E0,8.536095619E0
8.075249755E0,-2.048256159E0,4.953442097E0,8.082356453E0
8.094027620E0,-2.427518606E0,5.597410202E0,8.051250458E0
8.112804078E0,-1.450947881E0,6.515655994E0,9.310771942E0
8.131581734E0,-1.519442350E-1,7.328318596E0,1.039890766E1
8.150357620E0,9.565308690E-1,8.108677864E0,1.113380337E1
8.169133870E0,2.500499785E-1,8.417651176E0,1.265534019E1
8.187909859E0,-1.280160099E-1,8.132605553E0,1.526232052E1
8.206685172E0,6.176473498E-1,7.610970497E0,1.803111458E1
8.225460120E0,5.742774159E-2,6.812366009E0,1.889312935E1
8.244236474E0,-1.636391640E0,6.680760860E0,1.945095634E1
8.263011995E0,-4.492524624E0,6.880561352E0,2.101765633E1
8.281788661E0,-9.251849174E0,5.651248932E0,2.287089729E1
8.300564755E0,-1.366062450E1,3.423531055E0,2.426770782E1
8.319342307E0,-1.478704548E1,4.944169819E-1,2.130030823E1
8.338116838E0,-1.362592888E1,-1.551446438E0,1.440778351E1
8.356892151E0,-1.076381397E1,-1.540678620E0,7.852645874E0
8.375668401E0,-6.482156754E0,-6.200401783E-1,2.662314177E0
8.394445588E0,-2.781955481E0,5.638088584E-1,-1.494018674E0
8.413221370E0,-7.528418303E-1,8.739784956E-1,-4.013660908E0
8.431998245E0,-1.627119333E-1,5.925226808E-1,-4.552345276E0
8.450772515E0,-1.011565804E0,-2.297109663E-1,-3.479762316E0
8.469548818E0,-2.607279301E0,-1.495215058E0,-1.839781523E0
8.488324547E0,-4.280759811E0,-2.496910334E0,-9.661021233E-1
8.507100380E0,-6.556334019E0,-2.398804665E0,7.935197949E-1
8.525875640E0,-8.939585686E0,-1.229312658E0,4.837389946E0
8.544653505E0,-1.145683479E1,1.339980662E-1,9.718748093E0
8.563430484E0,-1.225185013E1,1.165902853E0,1.357089329E1
8.582206265E0,-8.345866203E0,2.705385208E0,1.286949730E1
8.600983401E0,-3.931108475E0,5.107779026E0,8.719446182E0
8.619761213E0,-4.254438877E0,6.914061069E0,9.377771378E0
8.638538818E0,-7.226623535E0,6.608976364E0,1.299870968E1
8.657316474E0,-9.286844254E0,5.077868938E0,1.609921074E1
8.676093974E0,-6.617351055E0,4.857728958E0,1.584646797E1
8.694873505E0,-2.651546478E0,5.900401592E0,1.230329609E1
8.713650276E0,-1.473679662E0,6.225825310E0,9.684052467E0
8.732427880E0,-1.861316919E0,5.761318684E0,9.606286049E0
8.751206057E0,-1.982453585E0,4.813461781E0,9.062815666E0
8.769984286E0,-6.990033388E-1,4.195515633E0,7.890930653E0
8.788762620E0,3.095714331E0,4.118945122E0,7.095018387E0
8.807541370E0,6.880561352E0,5.577071190E0,9.280861855E0
8.826317463E0,7.614559650E0,7.290033340E0,1.230927753E1
8.845093818E0,5.352146149E0,8.203493118E0,1.217767239E1
8.863870588E0,3.067897797E0,8.418847084E0,1.077577782E1
8.882649443E0,1.074975610E0,8.052446365E0,1.030528927E1
8.901425849E0,-1.061815023E0,7.476673603E0,1.221715450E1
8.920203818E0,-4.303491592E0,9.548857689E0,1.523240948E1
8.938979547E0,-1.394686604E1,1.297358513E1,1.846571159E1
8.957756890E0,-2.448934364E1,1.458724499E1,2.136491585E1
8.976533661E0,-2.592922401E1,1.087747288E1,1.952034760E1
8.995310484E0,-1.934058762E1,5.514857769E0,1.596610928E1
9.014087776E0,-1.141256714E1,6.451647878E-1,1.207837009E1
9.032864443E0,-6.071488380E0,-1.485643744E0,9.127422333E0
9.051640953E0,-5.037190914E0,-2.573779821E0,7.035197735E0
9.070417776E0,-5.045565605E0,-3.996911049E0,4.807479858E0
9.089194963E0,-3.768396616E0,-5.301597595E0,2.736491680E0
9.107972828E0,-2.417947292E0,-6.169594288E0,4.166502357E-1
9.126750901E0,-2.957827806E0,-6.408876419E0,-2.729313374E0
9.145529286E0,-5.228616714E0,-5.173581600E0,-6.319145679E0
9.164306838E0,-7.640881062E0,-3.396013498E0,-9.601499557E0
9.183084182E0,-7.365406990E0,-2.323430777E0,-1.015573788E1
9.201860640E0,-5.541179180E0,-1.812264085E0,-5.379663467E0
9.220638140E0,-4.752145767E0,2.097309113E0,5.530411601E-1
9.239415276E0,-7.761718273E0,6.582654953E0,3.949054718E0
9.258192880E0,-1.255214977E1,8.991030693E0,7.576274872E0
9.276970432E0,-1.481575966E1,9.404091835E0,1.481815243E1
9.295748453E0,-1.552224064E1,8.314759254E0,2.209622192E1
9.314524390E0,-1.397797298E1,7.016055107E0,2.484946251E1
9.333301682E0,-6.987041950E0,6.137290955E0,2.002313995E1
9.352078349E0,-2.567797899E0,6.678368092E0,1.352423382E1
9.370855901E0,-4.888835907E0,6.838686943E0,1.165214920E1
9.389632099E0,-6.189933300E0,6.041578293E0,1.112423229E1
9.408409703E0,-4.473381996E0,4.579862595E0,1.018804073E1
9.427186005E0,-1.299900889E0,2.671885490E0,8.816354752E0
9.445961943E0,3.264408350E0,1.673480392E0,6.788437843E0
9.464737307E0,7.093822002E0,1.594517231E0,6.372983932E0
9.483514234E0,9.511769295E0,1.708176255E0,8.245368004E0
9.502289286E0,1.093848991E1,2.433500528E0,1.050299549E1
9.521067932E0,1.090259743E1,2.920739174E0,1.130130100E1
9.539845068E0,8.309973717E0,3.047558784E0,1.282403374E1
9.558621995E0,4.570291042E0,4.360919476E0,1.727468491E1
9.577399703E0,-1.307079315E0,6.856633186E0,2.192633057E1
9.596177880E0,-9.988240242E0,9.017352104E0,2.509622383E1
9.614955588E0,-1.599123383E1,9.178867340E0,2.651576424E1
9.633734078E0,-1.449512100E1,6.770491600E0,2.512254333E1
9.652512568E0,-1.060588741E1,4.086641788E0,2.144387817E1
9.671290640E0,-9.098708153E0,1.984846354E0,1.670728683E1
9.690067203E0,-8.072785378E0,7.058826834E-2,1.018684387E1
9.708844651E0,-5.555535793E0,-2.049452543E0,3.083451033E0
9.727620953E0,-2.449054003E0,-3.015255690E0,-3.558725595E0
9.746398140E0,-3.856930971E0,-3.558725595E0,-5.918347836E0
9.765174547E0,-4.540380955E0,-4.461417675E0,-4.900799751E0
9.783951578E0,-3.789932013E0,-4.890032291E0,-3.934697628E0
9.802728870E0,-4.165605068E0,-4.572684288E0,-3.326621771E0
9.821506995E0,-6.855436802E0,-2.938685417E0,-2.117648125E0
9.840283661E0,-1.063340473E1,-9.194421172E-1,-1.055832982E0
9.859060224E0,-1.180050373E1,3.604189157E-1,-3.305086195E-1
9.877836682E0,-1.065015411E1,1.260419369E0,1.534696579E0
9.896613765E0,-8.985049248E0,2.756830692E0,4.545166492E0
9.915390797E0,-7.755736351E0,4.299902439E0,6.987041950E0
9.934168140E0,-9.860223770E0,5.549553871E0,1.135513973E1
9.952944599E0,-1.308724403E1,6.334698677E0,1.933699799E1
9.971723922E0,-1.620928001E1,5.821139336E0,2.732992363E1
9.990501005E0,-1.483729458E1,4.959424019E0,2.892803001E1
1.000927882E1,-9.319147110E0,4.503292084E0,2.513809776E1
1.002805403E1,-3.446262836E0,4.799104691E0,1.971536255E1
1.004683126E1,-2.608475685E0,5.059922695E0,1.650598907E1
1.006560809E1,-2.933899641E0,5.059922695E0,1.388584900E1
1.008438554E1,-1.157527924E0,4.575077057E0,1.129531956E1
1.010316382E1,1.446162224E0,3.787539244E0,1.011505985E1
1.012194330E1,3.949054718E0,3.108874798E0,1.032562828E1
1.014072095E1,6.771687984E0,3.048755169E0,1.101775169E1
1.015949757E1,8.606683731E0,2.754437923E0,1.199551868E1
1.017827293E1,8.427222252E0,2.364108801E0,1.176820087E1
1.019704960E1,7.171588421E0,2.072184324E0,9.495018959E0
1.021582783E1,5.447858810E0,2.149951220E0,7.699504852E0
1.023460715E1,3.703790426E0,3.212962627E0,8.327919960E0
1.025338470E1,-7.432705164E-1,5.505286694E0,1.190459156E1
1.027216111E1,-8.192725182E0,8.214261055E0,1.756301880E1
1.029093882E1,-1.405573940E1,9.487840652E0,2.254397774E1
1.030971679E1,-1.514507198E1,7.762914658E0,2.176481628E1
1.032849283E1,-1.255693531E1,4.997709274E0,1.786840248E1
1.034726996E1,-8.599505424E0,2.576172590E0,1.431924915E1
1.036604819E1,-5.991328716E0,1.364507079E0,1.098185921E1
1.038482689E1,-5.575874805E0,1.010369420E0,8.159226418E0
1.040360528E1,-5.749354839E0,5.123631358E-1,5.324329376E0
1.042238465E1,-5.729015827E0,-4.130610228E-1,2.822633505E0
1.044116288E1,-5.131707191E0,-1.309472203E0,1.244866014E0
1.045993939E1,-4.721039295E0,-1.537089467E0,4.704887569E-1
1.047871616E1,-4.555934429E0,-1.101296663E0,-3.999004960E-1
1.049749189E1,-5.028815746E0,-1.304088384E-1,-7.289136052E-1
1.051626783E1,-4.974977493E0,8.775677085E-1,-1.220339537E-1
1.053504455E1,-3.760021687E0,1.633998752E0,1.651944876E0
1.055382002E1,-1.963011861E0,2.719742060E0,3.824627876E0
1.057259757E1,-2.021935135E-1,4.834997177E0,5.175974369E0
1.059137621E1,-3.951148391E-1,6.069095612E0,5.231009483E0
1.061015684E1,-1.572981834E0,6.454638958E0,5.542375565E0
1.062893543E1,-2.327019930E0,6.891329288E0,7.549654484E0
1.064771382E1,-3.242872953E0,6.811169624E0,9.432806015E0
1.066649132E1,-4.529613495E0,6.653243542E0,1.095194912E1
1.068526897E1,-5.574678421E0,6.690331936E0,1.170000553E1
1.070404673E1,-5.446662426E0,6.839883327E0,1.111705399E1
1.072282512E1,-4.462614059E0,6.553941250E0,9.374181747E0
1.074160173E1,-2.650350094E0,5.907579899E0,7.565207958E0
1.076037876E1,-1.304686546E0,5.143671513E0,6.886543751E0
1.077915559E1,-7.061817646E-1,4.459024906E0,7.255337238E0
1.079793397E1,-6.260222197E-1,4.112963200E0,7.901698589E0
1.081671137E1,-4.130610228E-1,3.817449331E0,7.985447407E0
1.083548804E1,3.412763178E-1,3.623331785E0,8.259724617E0
1.085426559E1,1.080957651E0,3.831806421E0,9.108279228E0
1.087304387E1,8.042874932E-1,4.109373569E0,9.634999275E0
1.089182231E1,-3.747758567E-1,4.380061626E0,1.004806042E1
1.091059991E1,-1.478465319E0,4.437489510E0,1.046590710E1
1.092937632E1,-1.156331539E0,4.236492634E0,1.051376343E1
1.094815371E1,1.375873089E-1,4.413561344E0,1.069681454E1
1.096692996E1,1.494018674E0,4.788337231E0,1.013420200E1
1.098570882E1,1.602892041E0,4.983352184E0,9.617053032E0
1.100448705E1,3.927220106E-1,4.731806755E0,1.071117115E1
1.102326574E1,-1.088136077E0,3.965804338E0,1.232722378E1
1.104204252E1,-1.122832060E0,3.238087177E0,1.293529987E1
1.106081929E1,-2.488535494E-1,3.020041227E0,1.243131161E1
1.107959611E1,2.763710022E-1,3.093321562E0,1.142812061E1
1.109837246E1,4.106681943E-1,3.177070379E0,1.074347496E1
1.111714908E1,4.058825374E-1,3.364906788E0,1.027418232E1
1.113592575E1,1.495514214E-1,3.672683716E0,9.552447319E0
1.115470288E1,-1.042672515E0,3.929912090E0,9.091529846E0
1.117348147E1,-2.155933142E0,3.999304056E0,9.640981674E0
1.119225897E1,-2.510071039E0,3.871287823E0,1.001336479E1
1.121103814E1,-2.492124796E0,3.927519321E0,9.730711937E0
1.122981481E1,-2.537887573E0,4.122534275E0,9.429216385E0
1.124859257E1,-2.380858421E0,4.414757729E0,9.133403778E0
1.126737038E1,-2.297109842E0,4.607379913E0,8.968298912E0
1.128614882E1,-2.041077614E0,4.448257446E0,9.108279228E0
1.130492778E1,-1.945065737E0,4.006482601E0,9.256634712E0
1.132370533E1,-2.523231506E0,3.719343662E0,8.605487823E0
1.134248189E1,-2.670689106E0,3.731307745E0,7.305586815E0
1.136125976E1,-2.625225544E0,3.660719633E0,6.672386169E0
1.138003741E1,-3.411566973E0,3.391227961E0,7.664809227E0
1.139881538E1,-3.940679789E0,3.561118364E0,8.902496338E0
1.141759252E1,-3.873680830E0,4.224528313E0,8.784051895E0
1.143637116E1,-4.166801453E0,5.225027561E0,7.939983845E0
1.145514887E1,-5.073082924E0,5.689534187E0,7.172784805E0
1.147392653E1,-6.183950901E0,5.705087185E0,7.250551701E0
1.149270512E1,-6.029613972E0,5.556732178E0,7.365406990E0
1.151148444E1,-4.431507587E0,5.507679462E0,6.703492641E0
1.153026376E1,-3.277568817E0,5.483751297E0,5.959025860E0
1.154904194E1,-3.324228764E0,5.374877930E0,5.908776283E0
1.156781939E1,-3.813860178E0,5.158028126E0,6.369394779E0
1.158659606E1,-3.781557083E0,4.831408024E0,6.751348972E0
1.160537345E1,-3.241676569E0,4.433900356E0,7.104589462E0
1.162415179E1,-2.717349291E0,4.073481560E0,7.452745438E0
1.164292809E1,-2.318645239E0,3.989732742E0,7.607381344E0
1.166170637E1,-1.892423630E0,4.049553394E0,7.024429798E0
1.168048283E1,-1.286740422E0,4.134498596E0,5.967400551E0
1.169926153E1,-9.625129104E-1,4.216153622E0,5.361717224E0
1.171803856E1,-5.374878049E-1,4.474578381E0,5.517251015E0
1.173681642E1,-1.615155339E-1,4.703093052E0,6.046363831E0
1.175559371E1,-3.828516230E-2,4.746163845E0,6.996613503E0
1.177437100E1,-4.785645381E-2,4.844568729E0,8.469096184E0
1.179314897E1,-3.293122053E-1,4.951049328E0,9.923633575E0
1.181192710E1,-1.176670551E0,4.918745995E0,1.131206894E1
1.183070476E1,-2.303091764E0,4.921138763E0,1.264098263E1
1.184948366E1,-2.815454960E0,4.960620403E0,1.347398472E1
1.186826127E1,-2.423929453E0,4.882853508E0,1.341655636E1
1.188703934E1,-1.568196177E0,4.988137722E0,1.287308693E1
1.190581793E1,-1.083350420E0,4.779962540E0,1.234397411E1
1.192459892E1,-1.089332461E0,4.686343193E0,1.257129192E1
1.194337778E1,-1.892423630E0,4.130908966E0,1.307886982E1
1.196215559E1,-2.238485575E0,3.597010612E0,1.318176079E1
1.198093153E1,-1.498804331E0,3.520440340E0,1.220518970E1
1.199970866E1,-8.030911088E-1,3.585046530E0,1.064536858E1
1.201848715E1,-6.224330068E-1,3.672683716E0,9.666106224E0
1.203726590E1,-6.774678826E-1,3.799503326E0,9.486644745E0
1.205604351E1,-7.995018363E-1,3.756432533E0,9.305986404E0
1.207482095E1,-9.361918569E-1,3.551547050E0,8.770891190E0
1.209359783E1,-8.365905881E-1,3.238087177E0,7.896913052E0
1.211237533E1,-5.650052428E-1,2.999702215E0,7.188338280E0
1.213115387E1,-6.284150481E-1,2.686242580E0,6.836294174E0
1.214993137E1,-7.313064337E-1,2.427518606E0,6.742974281E0
1.216870986E1,-7.061817646E-1,2.128415823E0,6.689135551E0
1.218748897E1,-4.142574072E-1,1.733300924E0,6.522834301E0
1.220626564E1,-5.383851007E-2,1.526321769E0,6.149255276E0
1.222504226E1,6.020939946E-1,1.724925995E0,5.417948723E0
1.224393783E1,9.972088337E-1,2.023131609E0,4.698307037E0
1.226271064E1,1.249651670E0,2.379662037E0,4.395615101E0
1.228151330E1,1.633998752E0,2.963809967E0,4.595416069E0
1.230031840E1,1.659123421E0,3.591028690E0,5.271687508E0
1.231912200E1,1.669891119E0,4.135694981E0,5.817550182E0
1.233792715E1,1.752443433E0,4.368097782E0,6.714260101E0
1.235673080E1,1.297508121E0,4.326223373E0,8.333902359E0
1.237553595E1,8.413762450E-1,4.470989227E0,9.495018959E0
1.239433955E1,1.507478207E-1,4.589433670E0,1.037348461E1
1.241314470E1,-1.983649969E0,4.577469826E0,1.282762337E1
1.243194835E1,-4.042374611E0,4.444668293E0,1.591586018E1
1.245075351E1,-4.129712582E0,4.344169617E0,1.742064667E1
1.246955710E1,-3.252444267E0,3.892823458E0,1.682453346E1
1.248836226E1,-2.589333296E0,3.559921980E0,1.566700649E1
1.250716590E1,-2.327019930E0,3.241676569E0,1.470808220E1
1.252597106E1,-2.127219439E0,3.082254648E0,1.382004642E1
1.254477470E1,-1.905584097E0,3.238087177E0,1.242174053E1
1.256357986E1,-1.793121457E0,3.472583771E0,1.064417267E1
1.258238351E1,-2.043470621E0,3.486940861E0,8.944371223E0
1.260118866E1,-2.053041935E0,3.581457376E0,7.625327587E0
1.261999226E1,-1.953440547E0,3.740879059E0,6.597012043E0
1.263879746E1,-1.867298961E0,3.846163273E0,5.611767292E0
1.265760106E1,-1.595713615E0,3.978965044E0,4.695914268E0
1.267640626E1,-1.323829174E0,4.059124470E0,3.965804338E0
1.269520986E1,-1.163509965E0,4.061517239E0,3.568296671E0
1.271401507E1,-8.246265054E-1,3.970590115E0,3.736093521E0
1.273281871E1,-6.056832075E-1,3.742075443E0,4.278367043E0
1.275162387E1,-4.166502357E-1,3.390031576E0,4.680361271E0
1.277042752E1,-1.160518974E-1,3.065505028E0,5.288437366E0
1.278923272E1,4.274179339E-1,2.911167860E0,5.985346794E0
1.280803632E1,1.003190875E0,2.959024191E0,6.015256882E0
1.282684153E1,1.156331539E0,3.232105255E0,6.552744865E0
1.284564512E1,1.704586983E0,3.818645954E0,7.268497944E0
1.286443522E1,2.203789711E0,4.451846600E0,7.538887024E0
1.288321444E1,1.885245085E0,5.012066364E0,8.062017441E0
1.290198897E1,1.207777262E0,5.233402252E0,9.388538361E0
1.292076382E1,3.245265782E-1,4.948656559E0,1.176939774E1
1.293954074E1,1.567298770E-1,4.610969067E0,1.386072445E1
1.295831856E1,8.126623631E-1,4.640879631E0,1.357926846E1
1.297709850E1,2.279163599E0,5.252544880E0,1.198953724E1
1.299587642E1,3.461816072E0,5.658427238E0,1.130608654E1
1.301465283E1,3.384049416E0,5.788836002E0,1.205175018E1
1.303343048E1,1.742872238E0,5.427519798E0,1.357687569E1
1.305220720E1,-4.142574072E-1,4.850550652E0,1.526471329E1
1.307098548E1,-1.975275040E0,4.216153622E0,1.612911987E1
1.308976283E1,-2.577368975E0,3.804288864E0,1.556291866E1
1.310854043E1,-2.476571321E0,3.606581926E0,1.398515129E1
1.312731627E1,-2.602493763E0,3.552743435E0,1.253539944E1
1.314609434E1,-2.819044113E0,3.613760471E0,1.144008541E1
1.316487100E1,-2.931506872E0,3.586242914E0,1.041565800E1
1.318365038E1,-2.899203777E0,3.468994617E0,9.434001923E0
1.320243147E1,-2.903989315E0,3.269193888E0,8.441578865E0
1.322120866E1,-2.585743904E0,3.066701412E0,7.559226036E0
1.323998590E1,-2.277967215E0,2.785544634E0,6.766902447E0
1.325876351E1,-2.005185366E0,2.590529680E0,6.191129684E0
1.327754064E1,-1.720140338E0,2.420340061E0,5.699105263E0
1.329631819E1,-1.143171072E0,2.166700840E0,5.417948723E0
1.331509517E1,-4.944169819E-1,1.990828395E0,5.378467083E0
1.333387335E1,5.264209956E-2,1.931905150E0,5.496912003E0
1.335265033E1,5.685944557E-1,2.161915302E0,5.784050465E0
1.337142658E1,7.073782086E-1,2.602493763E0,6.037988663E0
1.339020278E1,5.961119533E-1,3.375674486E0,5.675177097E0
1.340898121E1,4.202394783E-1,4.354937077E0,5.335396290E0
1.342775798E1,3.831507266E-1,5.152046204E0,5.106582642E0
1.344653517E1,5.697908998E-1,5.567500114E0,5.093421936E0
1.346531231E1,5.925226808E-1,5.823532104E0,5.790032387E0
1.348408804E1,2.261217386E-1,6.078666687E0,6.910471916E0
1.350286356E1,-2.117647976E-1,6.237789631E0,8.052446365E0
1.352163944E1,-1.136590764E-1,6.207879066E0,8.770891190E0
1.354041668E1,1.483550072E-1,6.246164322E0,9.068798065E0
1.355919387E1,1.160518974E-1,6.398108482E0,9.344271660E0
1.357796845E1,-2.500499785E-1,6.477370739E0,9.804889679E0
1.359674444E1,-6.978068948E-1,6.640082836E0,1.063579750E1
1.361552121E1,-1.606481314E0,6.570691109E0,1.140180016E1
1.363429647E1,-2.288734913E0,6.811169624E0,1.225185013E1
1.365307319E1,-3.226123095E0,6.705885410E0,1.285155106E1
1.367184934E1,-4.140480518E0,6.181558132E0,1.342014599E1
1.369062626E1,-4.395615101E0,5.606981754E0,1.331845093E1
1.370940397E1,-4.295116425E0,5.089832783E0,1.217647648E1
1.372818069E1,-3.649951935E0,4.725824833E0,1.053290653E1
1.374695502E1,-2.664707184E0,4.399204254E0,8.734998703E0
1.376573215E1,-1.782353759E0,4.219742775E0,7.464709282E0
1.378451158E1,-1.180259824E0,4.079463482E0,7.111767769E0
1.380328986E1,-4.262215197E-1,4.055535316E0,6.697510719E0
1.382206705E1,4.692923427E-1,4.019642830E0,6.102594852E0
1.384084455E1,1.329811215E0,4.002892971E0,5.675177097E0
1.385962080E1,1.817049742E0,3.799503326E0,5.441876888E0
1.387839762E1,2.063809633E0,3.490530014E0,5.770890236E0
1.389717476E1,2.116451740E0,3.003291607E0,6.917650223E0
1.391595377E1,1.843370795E0,2.761616468E0,7.914859295E0
1.393473330E1,8.608179688E-1,2.803490877E0,8.010572433E0
1.395351064E1,-6.460621208E-2,3.104089260E0,7.942376614E0
1.397228564E1,-8.018946648E-1,3.386442184E0,8.386544228E0
1.399106080E1,-9.158528447E-1,3.275176048E0,8.749356270E0
1.400983830E1,-4.585246444E-1,3.008077145E0,8.411668777E0
1.402861507E1,-4.262215197E-1,2.936292410E0,8.084749222E0
1.404739231E1,-1.053440213E0,3.057130098E0,8.442775726E0
1.406616762E1,-2.019542217E0,3.135195971E0,9.211171150E0
1.408494340E1,-2.122433662E0,3.189034462E0,9.317950249E0
1.410371861E1,-1.223330617E0,3.053540707E0,8.633005142E0
1.412249444E1,-6.367899179E-1,3.041576624E0,8.095517159E0
1.414127147E1,-8.656035662E-1,3.378067255E0,8.115856171E0
1.416004892E1,-1.415055513E0,3.879662752E0,7.912466049E0
1.417882371E1,-1.448554993E0,4.000500202E0,7.594220638E0
1.419760017E1,-1.626820326E0,3.847359657E0,8.512166977E0
1.421637705E1,-7.217351198E-1,4.047160625E0,8.282456398E0
1.423515340E1,-2.874078989E0,3.995714664E0,9.678070068E0
1.425392798E1,-3.864109516E0,5.202295303E0,1.127019501E1
1.427270215E1,-2.777169704E0,5.195116997E0,8.165207863E0
1.429147663E1,-2.258824587E0,5.620141983E0,7.974679470E0
1.431025054E1,-1.440180182E0,5.061119080E0,6.845865726E0
1.432902564E1,-8.751748800E-1,5.082654476E0,6.346662998E0
1.434779976E1,-9.756734371E-1,5.013262749E0,7.367800236E0
1.436657413E1,-1.553839207E0,5.022833824E0,8.859425545E0
1.438534996E1,-1.531107426E0,4.955834866E0,9.343074799E0
1.440412611E1,-1.007976532E0,4.806283474E0,9.242277145E0
1.442289991E1,-1.010369420E0,4.880460739E0,8.729017258E0
1.444167522E1,-1.428215981E0,5.248955727E0,8.323134422E0
1.446045075E1,-1.611266971E0,5.673980713E0,8.014161110E0
1.447922522E1,-1.461715579E0,5.854638577E0,7.869395256E0
1.449800158E1,-1.229312658E0,5.788836002E0,7.930412292E0
1.451677502E1,-1.028315544E0,5.666802406E0,7.200302601E0
1.453554825E1,-9.098708034E-1,5.804389477E0,6.648457527E0
1.455432215E1,-8.608179688E-1,5.786443233E0,6.971488953E0
1.457309731E1,-1.068993568E0,5.542375565E0,7.206284523E0
1.459187200E1,-1.468894005E0,5.584249973E0,5.065904617E0
1.461064741E1,-2.132004976E0,6.122933865E0,5.233402252E0
1.462942226E1,-1.776371717E0,5.512465000E0,8.333902359E0
1.464819726E1,-1.933101535E0,5.306383133E0,8.939585686E0
1.466697304E1,-1.721336842E0,5.268098354E0,7.322336197E0
1.468479338E1,-1.394417405E0,5.691926956E0,6.879364967E0
1.470357120E1,-1.584945917E0,5.990132332E0,7.523333549E0
1.472234750E1,-1.870888233E0,6.304788589E0,8.185546875E0
1.474112276E1,-1.429412484E0,6.218647003E0,8.084749222E0
1.475989791E1,-1.041476011E0,6.333502293E0,8.107481003E0
1.477867349E1,-9.481559992E-1,6.671189308E0,8.327919960E0
1.479745026E1,-5.566303730E-1,6.656832695E0,8.702695847E0
1.481622776E1,-6.571289301E-1,6.641279221E0,9.232706070E0
1.483500276E1,-8.138588071E-1,6.608976364E0,9.405288696E0
1.485377786E1,-1.165902853E0,6.664011002E0,9.129815102E0
1.487255312E1,-1.771586061E0,6.794419765E0,8.998209953E0
1.489133031E1,-2.356930256E0,7.018447876E0,9.062815666E0
1.491010646E1,-2.484946251E0,7.207480907E0,9.375378609E0
1.492888208E1,-2.874078989E0,7.136892796E0,9.523733139E0
1.494765536E1,-3.104089260E0,7.044768810E0,9.449555397E0
1.496643067E1,-2.868097067E0,6.717849731E0,9.152546883E0
1.498520698E1,-2.628814697E0,6.014060497E0,9.214759827E0
1.500398453E1,-2.489732027E0,5.161617756E0,9.685248375E0
1.502276255E1,-2.336591244E0,4.473381996E0,9.902098656E0
1.504154047E1,-2.086541414E0,3.963411570E0,9.540482521E0
1.506031875E1,-1.790728688E0,3.681058645E0,8.913264275E0
1.507909463E1,-1.661516190E0,3.500101328E0,8.274081230E0
1.509787031E1,-1.754836321E0,3.379263878E0,7.831110477E0
1.511664698E1,-1.931905150E0,3.329014540E0,7.827520847E0
1.513542260E1,-2.018345833E0,3.291925669E0,8.108677864E0
1.515419896E1,-1.976471543E0,3.361317635E0,7.995018482E0
1.517297291E1,-2.003988981E0,3.718147278E0,7.577471256E0
1.519174802E1,-2.360519648E0,4.089034557E0,7.196712971E0
1.521052411E1,-2.512463808E0,4.262813568E0,7.394121170E0
1.522930067E1,-2.147558212E0,4.325026989E0,7.906484127E0
1.524807630E1,-1.876870275E0,4.346562386E0,8.119445801E0
1.526685208E1,-1.834995866E0,4.395615101E0,8.225028992E0
1.528562520E1,-1.528714538E0,4.486542225E0,8.398508072E0
1.530439968E1,-1.132403374E0,4.571487427E0,8.370990753E0
1.532317343E1,-8.066803217E-1,4.607379913E0,8.050053596E0
1.534194770E1,-5.554339290E-1,4.742574692E0,7.796414375E0
1.536072291E1,-5.841478109E-1,4.882853508E0,7.588238716E0
1.537949922E1,-5.650052428E-1,5.082654476E0,7.464709282E0
1.539827448E1,-5.279164910E-1,5.288437366E0,7.502994537E0
1.541705067E1,-6.415755749E-1,5.518447399E0,7.817949772E0
1.543582510E1,-7.707880139E-1,5.629713535E0,8.330312729E0
1.545459927E1,-1.006780148E0,5.657230854E0,9.066405296E0
1.547337146E1,-1.041476011E0,5.782854080E0,9.439984322E0
1.549214515E1,-1.114457130E0,5.819942951E0,9.260522842E0
1.551091859E1,-1.033101201E0,5.761318684E0,9.662516594E0
1.552969442E1,-7.528418303E-1,5.665606022E0,1.034477043E1
1.554846989E1,-4.034897089E-1,5.581857204E0,1.055204868E1
1.556724609E1,3.029911816E-1,5.918347836E0,1.025623608E1
1.558602015E1,3.819543123E-1,6.201897144E0,9.375378609E0
1.560479510E1,1.794617027E-1,6.558726788E0,8.530113220E0
1.562356979E1,-4.405784607E-1,6.252146244E0,8.895318031E0
1.564234468E1,-6.260222197E-1,5.336592674E0,1.041805077E1
1.566112000E1,-3.628117442E-1,4.386044025E0,1.142572784E1
1.567989541E1,1.890329868E-1,4.142873287E0,1.082602692E1
1.569867062E1,4.058825374E-1,4.473381996E0,8.874979019E0
1.571744864E1,3.221337497E-1,4.939085007E0,7.352246761E0
1.573622432E1,2.021935135E-1,5.006083965E0,6.771687984E0
1.575500067E1,4.238287210E-1,4.785944462E0,6.942774773E0
1.577377557E1,6.044868231E-1,4.353740692E0,6.823133945E0
1.579255020E1,5.638088584E-1,4.016053677E0,6.643671989E0
1.581132422E1,3.125624657E-1,3.989732742E0,6.675975323E0
1.583010020E1,-1.148554832E-1,4.229313850E0,6.912864685E0
1.584887437E1,-4.094717801E-1,4.443471432E0,6.880561352E0
1.586764974E1,-2.874378264E-1,4.658825874E0,6.689135551E0
1.588642489E1,-1.531406492E-1,4.890032291E0,6.684350014E0
1.590520010E1,-1.220339537E-1,5.278865814E0,6.556334019E0
1.592397442E1,-2.404786795E-1,5.752943993E0,6.502495766E0
1.594274896E1,-5.829514265E-1,6.024828434E0,7.310372353E0
1.596152437E1,-5.913262963E-1,5.938686848E0,8.623434067E0
1.598030010E1,-2.620140910E-1,5.520840168E0,9.541679382E0
1.599907458E1,-1.411765367E-1,5.154438972E0,9.963115692E0
1.601785078E1,-4.178466499E-1,5.032404900E0,1.054367352E1
1.603662640E1,-9.397810698E-1,4.837389946E0,1.101894855E1
1.605540276E1,-1.632802367E0,4.737788677E0,1.132403278E1
1.607417724E1,-2.716152906E0,4.565505505E0,1.138146114E1
1.609295307E1,-3.360121250E0,4.328616142E0,1.088106155E1
1.611172849E1,-3.921537161E0,3.632902861E0,1.039531898E1
1.613050448E1,-4.199104786E0,3.209373474E0,1.102493000E1
1.614927906E1,-4.579862595E0,3.118446112E0,1.162104225E1
1.616805370E1,-4.346562386E0,3.102892876E0,1.109192944E1
1.618682646E1,-3.530011654E0,2.963809967E0,9.763015747E0
1.620560052E1,-2.524427891E0,2.880061150E0,8.672486305E0
1.622437494E1,-1.575374603E0,2.950649500E0,7.784450054E0
1.624314948E1,-6.044868231E-1,3.116053343E0,6.806384087E0
1.626192520E1,1.986042857E-1,3.355335474E0,5.954239845E0
1.628070198E1,5.147559643E-1,3.564707518E0,5.185545921E0
1.629947625E1,3.903291821E-1,3.721736431E0,5.002494812E0
1.631825156E1,-5.862415582E-2,3.855734587E0,5.550750256E0
1.633702599E1,-5.602195859E-1,3.923929930E0,6.207879066E0
1.635580224E1,-8.464609981E-1,3.914358854E0,6.690331936E0
1.637457750E1,-9.062815905E-1,3.940679789E0,7.098607540E0
1.639335453E1,-8.102695942E-1,4.048357010E0,7.323532581E0
1.641212817E1,-7.013961077E-1,4.142873287E0,7.715058327E0
1.643090359E1,-6.260222197E-1,4.322634220E0,8.204689980E0
1.644967880E1,-4.716851711E-1,4.607379913E0,8.581559181E0
1.646845541E1,-5.673980713E-1,4.949852943E0,8.737391472E0
1.648723146E1,-8.679963946E-1,5.262115955E0,9.117850304E0
1.650600765E1,-9.768698215E-1,5.492125988E0,9.377771378E0
1.652478250E1,-8.883354068E-1,5.496912003E0,9.533304214E0
1.654356109E1,-1.052243710E0,5.303990364E0,1.004207802E1
1.656233786E1,-1.406680584E0,5.068297386E0,1.107637596E1
1.658111307E1,-1.559821248E0,4.793122768E0,1.210588837E1
1.659988786E1,-1.192223907E0,4.728217602E0,1.239063358E1
1.661866328E1,-8.341978192E-1,4.980959415E0,1.153968620E1
1.663743911E1,-9.002995491E-1,5.346164227E0,1.052812099E1
1.665621802E1,-1.874477386E0,5.219045162E0,1.048146057E1
1.667499489E1,-2.787937403E0,4.419543266E0,1.137787151E1
1.669377099E1,-2.908775091E0,3.380460262E0,1.225185013E1
1.671254510E1,-2.280359983E0,2.747259617E0,1.148794174E1
1.673132088E1,-1.718943954E0,2.833401203E0,9.524930000E0
1.675009588E1,-1.386042476E0,3.368496180E0,7.820342541E0
1.676887166E1,-1.326221943E0,3.830610037E0,6.748956203E0
1.678764698E1,-1.495215058E0,4.102195263E0,6.488138676E0
1.680642213E1,-1.644766450E0,4.106980801E0,6.638886452E0
1.682519484E1,-1.472483277E0,3.850949049E0,6.653243542E0
1.684396906E1,-1.248455167E0,3.658326626E0,6.619743824E0
1.686274286E1,-1.303490162E0,3.714558125E0,6.812366009E0
1.688151843E1,-1.545464277E0,3.804288864E0,7.080661297E0
1.690029359E1,-1.681855202E0,4.005286217E0,7.424031258E0
1.691906802E1,-1.880459547E0,4.160819530E0,7.497012615E0
1.693784276E1,-1.931905150E0,4.334598064E0,7.456334591E0
1.695661776E1,-1.807478428E0,4.444668293E0,7.426424026E0
1.697539172E1,-1.772782445E0,4.541577339E0,7.334300518E0
1.699416640E1,-1.785943031E0,4.674378872E0,7.208677292E0
1.701294104E1,-1.803889155E0,4.978566647E0,7.191927433E0
1.703171750E1,-1.867298961E0,5.308775902E0,7.101000309E0
1.705049099E1,-1.929512382E0,5.612963676E0,7.134500027E0
1.706926713E1,-1.757229090E0,5.658427238E0,7.291229725E0
1.708804156E1,-1.359721422E0,5.474180222E0,7.525726318E0
1.710681677E1,-1.121635556E0,5.312365532E0,7.993822098E0
1.712558932E1,-1.158724308E0,5.305186749E0,8.487042427E0
1.714436401E1,-1.479661703E0,5.283651352E0,9.418449402E0
1.716313687E1,-1.922333837E0,5.129314423E0,1.061785126E1
1.718191177E1,-1.687837243E0,5.102993488E0,1.149033451E1
1.720068656E1,-1.357328653E0,5.119743347E0,1.164736366E1
1.721946031E1,-1.322632670E0,5.275276661E0,1.120199966E1
1.723823244E1,-1.789532185E0,5.337789059E0,1.093131161E1
1.725700802E1,-2.341377020E0,5.089832783E0,1.125583744E1
1.727578265E1,-2.615654230E0,4.639683247E0,1.165214920E1
1.729455770E1,-2.688635349E0,4.438685894E0,1.173230839E1
1.731333260E1,-2.662314177E0,4.688735962E0,1.101655579E1
1.733210713E1,-2.536691189E0,4.886443138E0,9.506983757E0
1.735088109E1,-2.328216314E0,5.019244671E0,8.027321815E0
1.736965489E1,-2.112862349E0,5.196313381E0,6.912864685E0
1.738842807E1,-1.845763564E0,5.202295303E0,6.616154671E0
1.740720307E1,-1.582553029E0,4.929513931E0,7.537690639E0
1.742597703E1,-9.661021233E-1,4.616951466E0,8.021339417E0
1.744475073E1,-3.699901998E-1,4.563112736E0,7.474280834E0
1.746352437E1,-3.352942765E-1,4.796711922E0,6.514459610E0
1.748229843E1,-6.224330068E-1,5.000102043E0,5.842674732E0
1.750107307E1,-6.762714982E-1,5.033601761E0,5.556732178E0
1.751984849E1,-3.675973713E-1,4.778766155E0,5.228616714E0
1.753862406E1,1.818545163E-1,4.620540619E0,5.013262749E0
1.755740015E1,7.193422914E-1,4.711467743E0,4.681557655E0
1.757617510E1,9.254241586E-1,5.079065323E0,4.362115860E0
1.759495015E1,9.445667267E-1,5.742176056E0,4.767699242E0
1.761372338E1,8.811569214E-1,6.288038731E0,6.237789631E0
1.763249828E1,4.381856322E-1,6.606583118E0,7.631309509E0
1.765127192E1,-3.349951655E-2,6.323931217E0,9.201599121E0
1.767004646E1,1.842473447E-1,5.467001438E0,1.190219879E1
1.768882161E1,6.499504447E-1,4.818247318E0,1.322273827E1
1.770759625E1,2.934198678E-1,4.801497936E0,1.311356544E1
1.772637015E1,2.045863420E-1,5.505286694E0,1.285274792E1
1.774514458E1,6.726822853E-1,6.228218079E0,1.156122208E1
1.776391958E1,1.400399446E0,6.922435760E0,9.666106224E0
1.778269484E1,1.718943954E0,7.175177574E0,8.689236641E0
1.780146968E1,1.472483277E0,6.598208427E0,8.886942863E0
1.782024437E1,1.048654556E0,5.434698582E0,9.457930565E0
1.783901859E1,9.134600163E-1,4.633700848E0,9.749855042E0
1.785779364E1,1.193420291E0,4.498506546E0,8.903693199E0
1.787656672E1,1.455733418E0,4.541577339E0,7.354639530E0
1.789534120E1,1.195813060E0,4.627718925E0,6.444768906E0
1.791411698E1,4.752743840E-1,4.652843475E0,6.368198395E0
1.793289130E1,-7.896314561E-2,4.480560303E0,6.265306950E0
1.795166599E1,8.614161611E-2,4.151247978E0,5.615356445E0
1.797044047E1,1.088734269E-1,3.864109516E0,4.907978535E0
1.798921328E1,-1.555334777E-1,3.855734587E0,5.220241547E0
1.800798593E1,-3.436691463E-1,4.010071754E0,5.691926956E0
1.802675901E1,-2.021935135E-1,4.116552353E0,5.694319725E0
1.804553333E1,1.543370634E-1,4.409972191E0,5.420341492E0
1.806430744E1,7.657032460E-2,4.867300510E0,5.022833824E0
1.808308182E1,-4.633102715E-1,5.356931686E0,5.562714577E0
1.810185547E1,-7.313064337E-1,5.727818966E0,7.170392036E0
1.812062968E1,-7.516453862E-1,5.968596935E0,8.004590034E0
1.813940380E1,-6.188437343E-1,6.189933300E0,7.566404343E0
1.815818010E1,-7.301099896E-1,6.357430458E0,7.394121170E0
1.817695515E1,-1.070189953E0,6.227021694E0,8.806783676E0
1.819572994E1,-1.381256819E0,5.849853039E0,1.078415298E1
1.821450359E1,-1.347757339E0,5.446662426E0,1.198953724E1
1.823327744E1,-1.231705427E0,5.423930645E0,1.211665535E1
1.825205187E1,-1.531107426E0,5.400002480E0,1.221715450E1
1.827082593E1,-1.628016710E0,5.507679462E0,1.258445263E1
1.828959984E1,-1.945065737E0,5.563910961E0,1.227936745E1
1.830837349E1,-1.964507341E0,5.566303730E0,1.188784218E1
1.832714718E1,-2.141576290E0,5.461019516E0,1.170000553E1
1.834592125E1,-1.943869352E0,5.238187790E0,1.127856922E1
1.836469437E1,-1.443769336E0,5.081458092E0,1.041326523E1
1.838346927E1,-1.028315544E0,5.026422977E0,9.339486122E0
1.840224166E1,-7.217351198E-1,5.079065323E0,8.067999840E0
1.842101604E1,-5.015954375E-1,5.190331459E0,6.653243542E0
1.843979062E1,-4.633102715E-1,5.051547527E0,5.860620975E0
1.845856484E1,-3.448655605E-1,4.869693279E0,6.145665646E0
1.847733833E1,-4.645066857E-1,4.633700848E0,6.519245148E0
1.849611218E1,-7.097710371E-1,4.438685894E0,6.788437843E0
1.851488500E1,-7.480561733E-1,4.336990833E0,6.461817741E0
1.853365833E1,-6.020939946E-1,4.264009953E0,5.900401592E0
1.855243229E1,-3.580260873E-1,4.268795490E0,5.475376606E0
1.857120713E1,-1.423729509E-1,4.327419758E0,5.500501156E0
1.858998109E1,-2.273181453E-2,4.551148891E0,5.670391560E0
1.860875666E1,5.503492057E-2,4.898406982E0,5.520840168E0
1.862753026E1,1.818545163E-1,5.478965759E0,5.259723186E0
1.864630557E1,2.850449979E-1,6.103791237E0,5.883352757E0
1.866507896E1,5.982056633E-2,6.576673031E0,6.638886452E0
1.868385323E1,-1.830509305E-1,6.686742783E0,7.236194611E0
1.870262734E1,-2.922234535E-1,6.368198395E0,8.276473999E0
1.872140427E1,-3.747758567E-1,5.996114254E0,9.691230774E0
1.874017989E1,-5.279164910E-1,5.872584820E0,1.022632599E1
1.875895599E1,-5.757729411E-1,6.032006741E0,9.509376526E0
1.877773078E1,-2.910270393E-1,6.546762943E0,9.262915611E0
1.879650698E1,-1.220339537E-1,6.776473522E0,9.651749611E0
1.881528130E1,4.357928336E-1,7.032804966E0,9.378967285E0
1.883405666E1,4.058825374E-1,6.746563435E0,9.047262192E0
1.885283161E1,2.560320199E-1,5.816353798E0,9.684052467E0
1.887160755E1,3.951148391E-1,4.730610371E0,1.059033394E1
1.889038203E1,8.991031051E-1,4.126123428E0,1.080568790E1
1.890915901E1,1.029511929E0,4.182354927E0,1.005763149E1
1.892793422E1,7.971090674E-1,4.597808838E0,9.058030128E0
1.894670958E1,4.573282301E-1,4.882853508E0,8.103892326E0
1.896548244E1,1.459621787E-1,4.907978535E0,7.413263798E0
1.898425776E1,5.982056633E-2,4.613361835E0,7.122535706E0
1.900303370E1,1.962114573E-1,4.319045067E0,7.569993496E0
1.902180958E1,2.814557552E-1,4.265206337E0,7.639684677E0
1.904058588E1,2.141576260E-1,4.478167534E0,7.037590504E0
1.905936307E1,2.213360965E-1,4.906782150E0,6.480959892E0
1.907813974E1,2.033899277E-1,5.265705109E0,6.099005699E0
1.909691599E1,5.742774159E-2,5.359324455E0,6.174379826E0
1.911569229E1,5.383851007E-2,5.271687508E0,6.531209469E0
1.913446937E1,4.357928336E-1,5.083850861E0,6.623332977E0
1.915324390E1,4.920241535E-1,5.120939732E0,6.964310169E0
1.917201922E1,2.333002090E-1,5.306383133E0,7.674380302E0
1.919079323E1,2.321037948E-1,5.256134033E0,8.805587769E0
1.920956984E1,4.142574072E-1,4.905585289E0,1.033998489E1
1.922834442E1,5.805585980E-1,4.691128731E0,1.123430252E1
1.924711989E1,6.870391965E-1,4.885246754E0,1.067288589E1
1.926589515E1,6.296114326E-1,5.296812057E0,9.697213173E0
1.928467026E1,-9.332008660E-2,5.538786411E0,9.560821533E0
1.930344422E1,-9.684949517E-1,5.441876888E0,1.070638561E1
1.932221994E1,-1.586142302E0,5.183153152E0,1.137428284E1
1.934099468E1,-1.779960990E0,4.573880672E0,1.143171024E1
1.935977078E1,-1.758425593E0,4.254438877E0,1.138744259E1
1.937854505E1,-1.602892041E0,4.025625229E0,1.101057339E1
1.939732057E1,-1.124028444E0,4.050749779E0,1.041805077E1
1.941609416E1,-6.152545214E-1,4.297509670E0,9.557232857E0
1.943486948E1,-4.118646085E-1,4.549952030E0,8.581559181E0
1.945364416E1,-1.794617027E-1,4.634897232E0,8.009375572E0
1.947241864E1,8.374879137E-3,4.559523582E0,7.627720356E0
1.949119302E1,7.657032460E-2,4.553541660E0,7.306783199E0
1.950996812E1,-5.982056633E-2,4.843372345E0,7.098607540E0
1.952874286E1,-3.999004960E-1,5.095814705E0,6.742974281E0
1.954751843E1,-5.482555032E-1,5.144867897E0,6.400501251E0
1.956629370E1,-4.585246444E-1,4.988137722E0,6.157629967E0
1.958506942E1,-2.177468538E-1,4.705485821E0,6.271288872E0
1.960384547E1,7.178468257E-2,4.432703972E0,6.666403770E0
1.962274083E1,2.874378264E-1,4.292723656E0,7.085446835E0
1.964154364E1,4.345964193E-1,4.444668293E0,7.090232372E0
1.966034875E1,5.410770178E-1,4.863711357E0,6.887740135E0
1.967915229E1,3.723830283E-1,5.324329376E0,7.138089180E0
1.969795734E1,1.304088384E-1,5.591428280E0,7.798807144E0
1.971676088E1,-1.507478207E-1,5.593821049E0,8.538488388E0
1.973556599E1,-5.039882660E-1,5.528018475E0,9.450752258E0
1.975436953E1,-8.054839373E-1,5.534000397E0,9.910472870E0
1.977317463E1,-8.799605370E-1,5.662016392E0,9.560821533E0
1.979197817E1,-7.396813035E-1,5.868995667E0,9.136993408E0
1.981078323E1,-5.530411601E-1,5.944668770E0,9.255437851E0
1.982958682E1,1.447657645E-1,5.874977589E0,9.776176453E0
1.984839187E1,6.774678826E-1,5.876173973E0,9.516554832E0
1.986719547E1,7.205387354E-1,6.053542137E0,8.957531929E0
1.988600052E1,3.472583890E-1,6.230610847E0,8.563612938E0
1.990480411E1,-2.093719840E-1,5.788836002E0,8.868997574E0
1.992360916E1,-2.560320199E-1,4.896014214E0,9.759426117E0
1.994241271E1,-1.555334684E-2,4.045963764E0,1.035912704E1
1.996121781E1,4.716851711E-1,3.776771545E0,9.741479874E0
1.998002135E1,6.487540603E-1,4.002892971E0,8.390133858E0
1.999882646E1,4.405784607E-1,4.421936035E0,7.489833832E0
2.001763000E1,3.532404304E-1,4.661218643E0,7.045965195E0
2.003643510E1,5.159524083E-1,4.581058979E0,6.647261143E0
2.005523864E1,6.379863620E-1,4.331008911E0,6.477370739E0
2.007404375E1,5.793621540E-1,4.217350006E0,6.516852379E0
2.009284734E1,3.759722710E-1,4.260420799E0,6.519245148E0
2.011165239E1,8.494520187E-2,4.344169617E0,6.545566559E0
2.013045599E1,5.383851007E-2,4.371686935E0,6.489335060E0
2.014926109E1,2.093719840E-1,4.357329845E0,6.156433582E0
2.016806463E1,2.620140910E-1,4.476971149E0,5.999703884E0
2.018686974E1,6.340979785E-2,4.825426102E0,6.314359665E0
2.020567328E1,-2.249253243E-1,5.172385216E0,6.758527756E0
2.022447838E1,-3.544368446E-1,5.313561916E0,7.435995579E0
2.024328192E1,-2.656033039E-1,5.169992447E0,9.077172279E0
2.026208708E1,-7.178467698E-3,5.220241547E0,1.031127071E1
2.028089062E1,-3.173480928E-1,5.476572990E0,1.068485069E1
2.029969573E1,-9.026923180E-1,5.801996708E0,1.126421261E1
2.031849927E1,-9.505487680E-1,5.560321808E0,1.199791145E1
2.033730437E1,-7.935197949E-1,5.160421371E0,1.229013538E1
2.035610791E1,-9.002995491E-1,5.070690155E0,1.230449200E1
2.037491307E1,-1.320239902E0,5.071886539E0,1.210349560E1
2.039371661E1,-1.431805253E0,5.294419289E0,1.105364418E1
2.041252172E1,-1.891227245E0,5.320740223E0,9.239884377E0
2.043132526E1,-1.879263043E0,5.350949764E0,8.312366486E0
2.045013036E1,-2.081755638E0,4.821836948E0,8.097909927E0
2.046893390E1,-1.806282043E0,4.075874329E0,8.958727837E0
2.048773906E1,-1.224527001E0,3.646063566E0,9.418449402E0
2.050654260E1,-1.019940615E0,3.803092480E0,8.566005707E0
2.052534770E1,-1.070189953E0,4.237689018E0,7.558029652E0
2.054415125E1,-1.098903775E0,4.673182487E0,6.943971157E0
2.056295573E1,-1.015154958E0,4.797908306E0,6.570691109E0
2.058173744E1,-7.971090674E-1,4.554738045E0,6.927221775E0
2.060051093E1,-7.217351198E-1,4.272384644E0,7.619345665E0
2.061928593E1,-7.420741320E-1,4.150051594E0,7.809575081E0
2.063805906E1,-7.695915699E-1,4.242474556E0,7.497012615E0
2.065683489E1,-7.540382147E-1,4.388436794E0,6.904489517E0
2.067560797E1,-7.791628838E-1,4.427918434E0,6.902096748E0
2.069438370E1,-7.504490018E-1,4.302295208E0,7.272087097E0
2.071315932E1,-8.006982803E-1,4.247260094E0,7.435995579E0
2.073193620E1,-9.098708034E-1,4.425525665E0,7.499405384E0
2.075071146E1,-7.755736113E-1,4.666004181E0,7.491030216E0
2.076948666E1,-5.745765567E-1,4.973781109E0,7.141678333E0
2.078826062E1,-7.540382147E-1,5.337789059E0,7.419245720E0
2.080703614E1,-1.017547846E0,5.604588985E0,8.571988106E0
2.082580880E1,-8.979067206E-1,5.633302689E0,9.588339806E0
2.084458260E1,-6.607181430E-1,5.545964718E0,9.816853523E0
2.086335625E1,-5.446662307E-1,5.523232937E0,9.747462273E0
2.088213093E1,-5.590232015E-1,5.404788017E0,9.963115692E0
2.090090385E1,-4.010969102E-1,5.128118038E0,1.119482040E1
2.091967744E1,-7.058826834E-2,5.075475693E0,1.203739357E1
2.093845166E1,-8.494520187E-2,5.498108387E0,1.105484104E1
2.095722500E1,-1.028913707E-1,6.207879066E0,9.534501076E0
2.097599713E1,8.733802289E-2,6.316752911E0,9.000602722E0
2.099477015E1,-2.632104978E-2,5.536393166E0,9.515357971E0
2.101354234E1,-3.735794425E-1,4.394418716E0,1.074945641E1
2.103231640E1,-2.021935135E-1,3.406781197E0,1.131326580E1
2.105109083E1,5.398806334E-1,2.913560629E0,1.055922699E1
2.106986526E1,1.097707391E0,3.027219772E0,8.714659691E0
2.108863932E1,1.248455167E0,3.430709362E0,7.239784241E0
2.110741375E1,1.137188911E0,3.606581926E0,7.166802883E0
2.112618651E1,9.972088337E-1,3.470191002E0,8.085946083E0
2.114496083E1,1.040279627E0,3.221337557E0,7.971090317E0
2.116373526E1,8.389834166E-1,3.240479946E0,7.361817837E0
2.118251177E1,4.190430641E-1,3.379263878E0,7.197909832E0
2.120128656E1,2.177468538E-1,3.367299557E0,7.479066372E0
2.122006073E1,1.100698411E-1,3.289532900E0,7.567600727E0
2.123883375E1,-1.411765367E-1,3.363710403E0,7.353443146E0
2.125760770E1,-3.891327679E-1,3.574278831E0,7.126124859E0
2.127638140E1,-7.791628838E-1,3.969393730E0,6.915257454E0
2.129515562E1,-1.011565804E0,4.260420799E0,6.954739094E0
2.131392916E1,-9.397810698E-1,4.453042984E0,6.999006271E0
2.133270385E1,-1.057029366E0,4.800301552E0,6.903293133E0
2.135147833E1,-1.119242787E0,5.245366573E0,7.197909832E0
2.137025234E1,-1.266401410E0,5.744568825E0,7.668398380E0
2.138902458E1,-1.734497309E0,6.039185047E0,8.005785942E0
2.140779755E1,-2.248056889E0,6.166004658E0,8.883354187E0
2.142657093E1,-1.529910922E0,5.411966801E0,1.044437218E1
2.144534625E1,-2.300698996E0,4.933103085E0,1.221356487E1
2.146412000E1,-1.641177177E0,5.128118038E0,1.172752285E1
2.148289531E1,-2.635993242E0,5.493322372E0,1.241216946E1
2.150167015E1,-2.206182480E0,5.317151070E0,1.275224876E1
2.152044557E1,-1.435394526E0,5.062315464E0,1.231286716E1
2.153921916E1,-1.811067581E0,5.049154758E0,1.259522057E1
2.155799239E1,-9.744769931E-1,4.934299469E0,9.994221687E0
2.157676739E1,-1.005583763E0,4.382454872E0,1.002652550E1
2.159554239E1,-1.490429401E0,3.835395575E0,9.394520760E0
2.161431635E1,-1.857727647E0,3.637688637E0,9.286844254E0
2.163309286E1,-2.288734913E0,3.342175007E0,8.821140289E0
2.165186797E1,-2.080559254E0,3.521636724E0,8.144868851E0
2.167064323E1,-2.106880426E0,3.550350666E0,7.456334591E0
2.168941770E1,-2.021935225E0,3.818645954E0,7.452745438E0
2.170819146E1,-1.872084618E0,3.923929930E0,7.966304779E0
2.172696479E1,-1.741675735E0,4.055535316E0,8.254939079E0
2.174573989E1,-1.502393484E0,4.087838173E0,8.124231339E0
2.176451437E1,-1.066600680E0,4.035196304E0,7.910073280E0
2.178329026E1,-6.643074155E-1,4.063910007E0,7.871788502E0
2.180206401E1,-3.891327679E-1,4.280759811E0,7.703094482E0
2.182083870E1,-1.387837082E-1,4.413561344E0,7.260122776E0
2.183961276E1,-2.991028316E-2,4.490131855E0,7.156035423E0
2.185838765E1,-1.256231815E-1,4.493721008E0,7.209873676E0
2.187716208E1,-2.608176768E-1,4.454239368E0,7.001399040E0
2.189593791E1,-3.448655605E-1,4.534399033E0,6.631708145E0
2.191471302E1,-6.451647878E-1,4.717449665E0,6.503692150E0
2.193348724E1,-9.062815905E-1,4.787140846E0,6.684350014E0
2.195226130E1,-9.182456732E-1,4.850550652E0,7.066304207E0
2.197103651E1,-8.512466550E-1,5.051547527E0,7.270890713E0
2.198981125E1,-6.894320250E-1,5.280062199E0,7.224230766E0
2.200858687E1,-5.374878049E-1,5.467001438E0,7.240980625E0
2.202736224E1,-4.872384965E-1,5.729015827E0,7.378567696E0
2.204613770E1,-4.992026389E-1,5.972186089E0,7.465905666E0
2.206491172E1,-5.853442550E-1,5.955436230E0,8.140083313E0
2.208368708E1,-4.525425732E-1,5.543571949E0,9.568000793E0
2.210246229E1,-1.686939895E-1,5.158028126E0,1.045633602E1
2.212123729E1,-1.555334684E-2,5.053940296E0,1.056999493E1
2.214001161E1,-6.101697683E-2,5.201098919E0,1.058076286E1
2.215878937E1,-3.948157281E-2,5.739783287E0,1.023828983E1
2.217756401E1,-2.715853751E-1,5.998507500E0,9.717552185E0
2.219633854E1,-5.482555032E-1,6.043971062E0,9.608678818E0
2.221511146E1,-8.006982803E-1,5.535196781E0,9.967901230E0
2.223388604E1,-1.036690354E0,4.878067970E0,1.050419235E1
2.225265968E1,-1.295115232E0,4.386044025E0,1.073749256E1
2.227143380E1,-1.624427438E0,4.203890324E0,1.038933659E1
2.229020708E1,-1.894816399E0,4.357329845E0,9.611071587E0
2.230898130E1,-1.706979871E0,4.426722050E0,8.868997574E0
2.232775583E1,-1.553839207E0,4.435096741E0,8.400900841E0
2.234653135E1,-1.635195136E0,4.456632137E0,7.928019524E0
2.236530567E1,-1.559821248E0,4.357329845E0,7.591827869E0
2.238407994E1,-1.561017632E0,4.231706619E0,7.447959423E0
2.240285234E1,-1.827817440E0,4.152444363E0,7.403692245E0
2.242162536E1,-2.001596212E0,4.207479477E0,7.122535706E0
2.244039745E1,-1.958226204E0,4.197908401E0,6.885347366E0
2.245917244E1,-2.047059774E0,4.134498596E0,6.820741177E0
2.247794567E1,-2.212164640E0,4.158426762E0,6.966702938E0
2.249671963E1,-2.349751949E0,4.253242016E0,6.887740135E0
2.251549323E1,-2.527119875E0,4.455435753E0,6.704689026E0
2.253426765E1,-2.656332254E0,4.674378872E0,6.882954121E0
2.255304125E1,-2.622832775E0,4.646861553E0,7.068696976E0
2.257181500E1,-2.410768747E0,4.594219685E0,7.211070061E0
2.259058922E1,-2.048256159E0,4.606183529E0,7.401299477E0
2.260936416E1,-2.012363911E0,4.785944462E0,7.538887024E0
2.262813817E1,-2.226521492E0,4.979763031E0,7.683951855E0
2.264691333E1,-2.254039049E0,5.087440014E0,7.748558044E0
2.266568896E1,-2.196611166E0,5.193920612E0,7.901698589E0
2.268446521E1,-2.319841623E0,5.455037594E0,7.948358536E0
2.270324093E1,-2.297109842E0,5.682355404E0,7.650452137E0
2.272201630E1,-2.014756680E0,5.653641701E0,7.179963589E0
2.274079187E1,-1.924726725E0,5.628517151E0,7.330711365E0
2.275956745E1,-1.982453585E0,5.550750256E0,7.809575081E0
2.277834146E1,-1.982453585E0,5.504090309E0,8.258528709E0
2.279711666E1,-2.048256159E0,5.639284611E0,8.265707016E0
2.281589083E1,-1.998006940E0,5.560321808E0,7.840681553E0
2.283466625E1,-1.863709688E0,5.354538918E0,7.549654484E0
2.285344130E1,-2.014756680E0,5.312365532E0,7.581060410E0
2.287221744E1,-2.155933142E0,5.053940296E0,7.685148239E0
2.289099213E1,-2.012363911E0,4.784748077E0,7.969893932E0
2.290976718E1,-2.008774519E0,4.497310162E0,8.120641708E0
2.292854026E1,-2.106880426E0,4.247260094E0,8.320741653E0
2.294731468E1,-2.109273195E0,4.191926003E0,8.075178146E0
2.296608979E1,-2.181057930E0,4.356133461E0,7.487441063E0
2.298486604E1,-2.240878344E0,4.476971149E0,6.916453838E0
2.300364161E1,-2.514856577E0,4.728217602E0,6.839883327E0
2.302241625E1,-2.997309446E0,4.918745995E0,7.093822002E0
2.304119005E1,-3.281157970E0,4.949852943E0,7.269694328E0
2.305996437E1,-3.259622574E0,5.086243629E0,7.244569778E0
2.307873770E1,-3.398406267E0,5.427519798E0,7.067500591E0
2.309751354E1,-3.543172121E0,5.763711452E0,6.875775814E0
2.311628776E1,-3.657130241E0,5.812764645E0,7.152445793E0
2.313506370E1,-3.640081406E0,5.603392601E0,7.709076405E0
2.315383802E1,-3.416352510E0,5.314758301E0,8.100302696E0
2.317261338E1,-3.172284603E0,5.187938690E0,7.837092400E0
2.319138901E1,-3.036791086E0,5.140082359E0,7.331907749E0
2.321016687E1,-3.169891834E0,5.276473045E0,7.138089180E0
2.322894396E1,-3.363710403E0,5.531607628E0,7.061518669E0
2.324772020E1,-3.238087177E0,5.663212776E0,7.147660255E0
2.326649531E1,-3.287140131E0,5.750551224E0,7.178767204E0
2.328527067E1,-3.343371391E0,5.766104221E0,7.096214771E0
2.330404531E1,-2.907578707E0,5.574678421E0,7.359425068E0
2.332282078E1,-2.608475685E0,5.373681545E0,7.606184959E0
2.334159620E1,-2.368894339E0,5.303990364E0,7.532904625E0
2.336037067E1,-2.195414782E0,5.365306377E0,7.385746002E0
2.337914500E1,-2.281556368E0,5.488536835E0,7.233801842E0
2.339791989E1,-2.508874655E0,5.635695457E0,7.118946552E0
2.341669427E1,-2.784348249E0,5.718247890E0,5.950650692E0
2.343546916E1,-3.404388428E0,5.945865154E0,7.301997185E0
2.345424229E1,-3.378067255E0,5.822335720E0,8.973084450E0
2.347301698E1,-2.848954439E0,5.663212776E0,8.159226418E0
2.348633468E1,-2.221735716E0,4.951049328E0,7.219445229E0
2.350222891E1,-2.455035925E0,5.352146149E0,7.914859295E0
2.352100302E1,-2.441875458E0,5.750551224E0,8.236992836E0
2.353977818E1,-2.360519648E0,5.975775242E0,8.191529274E0
2.355855443E1,-1.922333837E0,6.018846035E0,8.365009308E0
2.357733146E1,-1.738086581E0,5.889334679E0,8.467900276E0
2.359610714E1,-1.683051586E0,5.845067501E0,8.222636223E0
2.361488078E1,-1.943869352E0,5.793622017E0,8.065607071E0
2.363365542E1,-2.313859463E0,5.693123341E0,8.244171143E0
2.365243146E1,-2.735295296E0,5.529214859E0,8.015357971E0
2.367120599E1,-3.079861879E0,5.737390518E0,7.747361660E0
2.368997990E1,-3.094517946E0,5.938686848E0,7.389335632E0
2.370875427E1,-3.014059305E0,6.473781586E0,6.534798622E0
2.372753203E1,-3.239283562E0,6.594619274E0,6.120541096E0
2.374630828E1,-3.413959742E0,6.327520370E0,7.246962547E0
2.376508271E1,-3.933501244E0,6.392126560E0,8.313563347E0
2.378385813E1,-4.377668858E0,6.495316982E0,8.260921478E0
2.380263469E1,-4.572684288E0,6.570691109E0,8.056035995E0
2.382141068E1,-4.738985062E0,6.845865726E0,7.886145115E0
2.384018688E1,-4.721039295E0,7.030412197E0,7.619345665E0
2.385896308E1,-4.368097782E0,7.108178616E0,7.239784241E0
2.387773958E1,-4.053142548E0,7.092625618E0,7.212266445E0
2.389651328E1,-3.696611881E0,6.966702938E0,7.718647480E0
2.391528771E1,-3.215355396E0,6.733402729E0,8.406883240E0
2.393406396E1,-2.645564556E0,6.546762943E0,8.788837433E0
2.395283907E1,-1.994417667E0,6.465406895E0,8.931210518E0
2.397161344E1,-1.206580877E0,6.423233509E0,9.052047729E0
2.399038698E1,-4.920241535E-1,6.488138676E0,9.399306297E0
2.400916203E1,-3.125624657E-1,6.562315941E0,9.839884758E0
2.402793766E1,-1.651047617E-1,6.711867332E0,1.020359421E1
2.404671240E1,-3.589233849E-3,6.331109524E0,9.764211655E0
2.406548620E1,3.400799036E-1,5.639284611E0,8.945567131E0
2.408426125E1,3.819543123E-1,4.662415028E0,8.603095055E0
2.410303563E1,3.110669367E-2,3.810271025E0,8.858229637E0
2.412181042E1,-1.244267747E-1,3.411566973E0,9.037691116E0
2.414058396E1,1.316052526E-1,3.574278831E0,8.275278091E0
2.415935870E1,4.549354017E-1,4.022035599E0,6.732206345E0
2.417813344E1,5.901299119E-1,4.261617184E0,5.444269657E0
2.419690808E1,5.482555032E-1,4.248456478E0,5.278865814E0
2.421568157E1,4.286143482E-1,3.976572037E0,5.421537876E0
2.423445693E1,2.787638307E-1,3.607778311E0,5.495715618E0
2.425323188E1,-1.220339537E-1,3.283550978E0,5.667998791E0
2.427200677E1,-5.303093195E-1,3.004487991E0,5.829514027E0
2.429078130E1,-7.468597889E-1,2.777169704E0,5.963811398E0
2.430955511E1,-7.073782086E-1,2.592922449E0,5.755336761E0
2.432833005E1,-7.037889361E-1,2.410768747E0,5.492125988E0
2.434710339E1,-5.901299119E-1,2.455035925E0,5.440680504E0
2.436587724E1,-4.657031000E-1,2.619243383E0,5.303990364E0
2.438464974E1,-6.942176819E-1,2.970988512E0,5.229813099E0
2.440342354E1,-1.006780148E0,3.612564087E0,5.421537876E0
2.442219610E1,-7.791628838E-1,3.947858334E0,6.276074886E0
2.444096922E1,-2.862414122E-1,4.230510235E0,8.131409645E0
2.445974328E1,-1.052841991E-1,4.689932346E0,1.066092205E1
2.447851787E1,-5.578267574E-1,5.100600719E0,1.409522057E1
2.449729287E1,-1.275972724E0,5.973382473E0,1.719931030E1
2.451606526E1,-2.232503414E0,6.903293133E0,1.798086548E1
2.453483761E1,-3.750450373E0,7.234998226E0,1.785404587E1
2.455361151E1,-5.426323414E0,6.887740135E0,1.837957001E1
2.457238516E1,-6.206682682E0,6.268896103E0,1.905105591E1
2.459115865E1,-5.222634315E0,5.507679462E0,1.744696808E1
2.460993479E1,-3.724129438E0,4.758127689E0,1.381406403E1
2.462870870E1,-3.084647417E0,4.548755646E0,1.080449200E1
2.464748266E1,-3.800699711E0,4.450650215E0,8.915657043E0
2.466625662E1,-5.070690155E0,4.273581028E0,7.908876896E0
2.468503099E1,-5.762515068E0,3.969393730E0,7.132106781E0
2.470380532E1,-5.276473045E0,3.516851187E0,6.382555485E0
2.472257865E1,-4.346562386E0,2.961417198E0,5.870192051E0
2.474135094E1,-3.663112402E0,2.519642353E0,5.205884933E0
2.476012443E1,-3.297907829E0,2.444268227E0,4.613361835E0
2.477889969E1,-3.005684376E0,2.518445730E0,4.486542225E0
2.479767464E1,-2.674278498E0,2.598904610E0,4.905585289E0
2.481644880E1,-2.204986095E0,2.620440006E0,5.024030209E0
2.483522391E1,-1.675873160E0,2.518445730E0,4.849354267E0
2.485399844E1,-1.335793257E0,2.365305185E0,4.957031250E0
2.487277406E1,-1.261615753E0,2.245664120E0,5.535196781E0
2.489154990E1,-1.352542996E0,2.177468538E0,6.253343105E0
2.491032547E1,-1.577767372E0,2.262413740E0,6.916453838E0
2.492909943E1,-1.602892041E0,2.476571321E0,7.547261715E0
2.494787266E1,-1.744068623E0,2.869293451E0,8.161619186E0
2.496664495E1,-2.667099953E0,3.301496983E0,8.883354187E0
2.498541860E1,-4.074677944E0,3.743271828E0,9.941579819E0
2.500419339E1,-5.673980713E0,4.181158543E0,1.139103222E1
2.502296792E1,-6.380162239E0,4.526023865E0,1.233320618E1
2.504174209E1,-5.986543179E0,4.724628448E0,1.160190010E1
2.506051641E1,-5.124528885E0,4.942674160E0,1.014018440E1
2.507929094E1,-4.352544308E0,5.199902534E0,9.244669914E0
2.509806547E1,-3.582653761E0,5.330311775E0,8.774480820E0
2.511684021E1,-2.553440809E0,5.299204826E0,8.557631493E0
2.513561386E1,-1.736890078E0,4.989334106E0,8.428419113E0
2.515439011E1,-1.879263043E0,4.600201607E0,9.012566566E0
2.517316490E1,-2.663510799E0,4.020839214E0,9.847063065E0
2.519193782E1,-3.445066452E0,3.358924866E0,1.118524933E1
2.521071084E1,-3.315854073E0,2.941078186E0,1.234636688E1
2.522948589E1,-2.579761982E0,2.898007393E0,1.139462185E1
2.524826115E1,-1.879263043E0,3.248854876E0,9.270093918E0
2.526703563E1,-1.399203062E0,3.540779352E0,7.744968891E0
2.528580901E1,-8.464609981E-1,3.655933857E0,7.002595425E0
2.530458292E1,-5.482555032E-1,3.594617844E0,7.034001350E0
2.532335823E1,-5.542375445E-1,3.604189157E0,6.926024914E0
2.534213209E1,-8.258228898E-1,3.870091438E0,6.473781586E0
2.536090599E1,-1.274776220E0,4.327419758E0,6.126523495E0
2.537968240E1,-1.915155411E0,4.819443703E0,6.307181358E0
2.539845599E1,-2.257628202E0,5.093421936E0,6.565905571E0
2.541722761E1,-2.295913219E0,5.077868938E0,6.259325027E0
2.543600000E1,-2.336591244E0,5.076672554E0,6.076273918E0
2.545477401E1,-2.145165443E0,5.124528885E0,6.643671989E0
2.547354677E1,-1.724925995E0,4.960620403E0,7.209873676E0
2.549232104E1,-1.066600680E0,4.807479858E0,7.890930653E0
2.551109636E1,-4.357928336E-1,4.854139805E0,8.309973717E0
2.552987162E1,-5.662016869E-1,4.806283474E0,9.014959335E0
2.554864542E1,-1.238883972E0,4.761716843E0,1.057119179E1
2.556741818E1,-2.215753794E0,4.651647091E0,1.193210888E1
2.558619198E1,-3.245265722E0,4.527220249E0,1.266491127E1
2.560508302E1,-4.169194221E0,4.693521500E0,1.318415356E1
2.562385427E1,-5.043172836E0,4.935495853E0,1.321914864E1
2.564265672E1,-5.476572990E0,5.290830135E0,1.266969681E1
2.566146162E1,-6.053542137E0,5.431109428E0,1.162941742E1
2.568026505E1,-6.496513367E0,5.284847736E0,1.039771175E1
2.569907000E1,-6.489335060E0,4.606183529E0,9.335896492E0
2.571787339E1,-5.645267010E0,3.648755312E0,8.568398476E0
2.573667834E1,-4.254438877E0,2.848954439E0,8.045268059E0
2.575548172E1,-3.071486950E0,2.405983210E0,7.756932735E0
2.577428667E1,-2.092523336E0,2.216950178E0,7.318747044E0
2.579309011E1,-8.811569214E-1,2.183450699E0,6.401698112E0
2.581189505E1,-2.392822644E-3,2.161915302E0,5.420341492E0
2.583069844E1,3.915255964E-1,2.227717876E0,4.980959415E0
2.584950339E1,3.340978622E-1,2.297109842E0,5.032404900E0
2.586830682E1,5.623133108E-2,2.392822742E0,5.329114914E0
2.588711172E1,-2.009970993E-1,2.414358139E0,5.587839127E0
2.590591516E1,-3.125624657E-1,2.475374937E0,5.609374523E0
2.592472011E1,-4.046861231E-1,2.748456001E0,5.319543839E0
2.594352349E1,-5.338985324E-1,3.084647417E0,5.137689114E0
2.596232844E1,-5.913262963E-1,3.467798233E0,5.396413326E0
2.598113188E1,-5.338985324E-1,3.908376694E0,5.750551224E0
2.599993688E1,-2.392822690E-2,4.522434711E0,6.032006741E0
2.601874021E1,3.831507266E-1,5.242973328E0,6.539584160E0
2.603754521E1,6.460621208E-2,5.925526142E0,7.268497944E0
2.605634860E1,-1.368096352E0,6.376573086E0,8.671290398E0
2.607515360E1,-3.190230846E0,6.372983932E0,1.126421261E1
2.609395693E1,-4.108177185E0,5.953043461E0,1.379970741E1
2.611276193E1,-3.931108475E0,5.063511848E0,1.420768356E1
2.613156495E1,-3.460619688E0,4.983352184E0,1.375424385E1
2.615034490E1,-3.284747362E0,5.311169147E0,1.326700497E1
2.616911568E1,-2.480160713E0,5.746961594E0,1.277378464E1
2.618788875E1,-1.572981834E0,5.980561256E0,1.173470116E1
2.620666198E1,-1.180259824E0,6.055934906E0,1.033759212E1
2.622543438E1,-1.197009563E0,5.863013744E0,9.727123260E0
2.624420735E1,-1.323829174E0,5.361717224E0,1.040130138E1
2.626298287E1,-1.248455167E0,4.750949383E0,1.115773201E1
2.628175865E1,-7.528418303E-1,4.368097782E0,1.102493000E1
2.630053266E1,-4.426721856E-2,4.024428368E0,1.007557774E1
2.631930615E1,4.513461590E-1,3.634099483E0,9.127422333E0
2.633808000E1,1.854437590E-1,3.251247883E0,9.135796547E0
2.635685328E1,-4.465605319E-1,2.892025232E0,9.335896492E0
2.637562563E1,-9.409775138E-1,2.525923491E0,9.048459053E0
2.639439740E1,-1.188634634E0,2.395215511E0,8.628219604E0
2.641317005E1,-1.243669510E0,2.350948334E0,8.126624107E0
2.643194224E1,-1.237687469E0,2.304288149E0,7.902894974E0
2.645071500E1,-1.183848977E0,2.250449657E0,7.791628838E0
2.646948818E1,-1.201795220E0,2.214557409E0,7.462316513E0
2.648826094E1,-1.618445396E0,2.322234392E0,7.474280834E0
2.650703417E1,-1.954637051E0,2.540280342E0,7.523333549E0
2.652580776E1,-2.236092806E0,2.784348249E0,6.958328247E0
2.654458177E1,-2.462214470E0,3.045166016E0,6.604190350E0
2.656335552E1,-2.092523336E0,3.248854876E0,6.803991318E0
2.658212870E1,-1.220937729E0,3.289532900E0,7.352246761E0
2.660090058E1,-4.980062246E-1,3.540779352E0,7.677969456E0
2.661967255E1,-2.524427772E-1,4.303491592E0,7.395317554E0
2.663844547E1,7.896314561E-2,5.520840168E0,6.643671989E0
2.665721891E1,3.185445070E-1,6.683153629E0,6.482156754E0
2.667599255E1,1.328016520E-1,7.389335632E0,7.191927433E0
2.669476563E1,-5.315057039E-1,7.268497944E0,8.543273926E0
2.671353854E1,-1.360917926E0,6.853044033E0,1.057837009E1
2.673231078E1,-2.675474882E0,6.435197353E0,1.258445263E1
2.675108438E1,-3.721736431E0,6.136094570E0,1.338066387E1
2.676985646E1,-3.937090635E0,5.884549141E0,1.288983631E1
2.678862907E1,-3.696611881E0,5.518447399E0,1.177777195E1
2.680740188E1,-3.413959742E0,5.074279308E0,1.087866879E1
2.682617537E1,-3.398406267E0,4.474578381E0,1.055324554E1
2.684494714E1,-3.218944550E0,3.959822416E0,1.047906780E1
2.686372104E1,-2.802294493E0,3.719343662E0,9.765408516E0
2.688249302E1,-2.232503414E0,3.647259951E0,8.211868286E0
2.690126672E1,-1.980060697E0,3.722932816E0,6.683153629E0
2.692004068E1,-2.147558212E0,3.867698669E0,5.695516109E0
2.693881401E1,-2.090130568E0,3.779164314E0,5.277669430E0
2.695758693E1,-1.738086581E0,3.500101328E0,5.431109428E0
2.697636042E1,-1.423430324E0,3.290729284E0,5.694319725E0
2.699513453E1,-1.188634634E0,3.212962627E0,5.766104221E0
2.701390917E1,-1.289133191E0,3.281157970E0,5.987739563E0
2.703268474E1,-1.668694735E0,3.419941664E0,6.365805626E0
2.705145922E1,-1.998006940E0,3.565903902E0,6.729813576E0
2.707023271E1,-1.946262121E0,3.623331785E0,6.613761902E0
2.708900464E1,-1.660319805E0,3.585046530E0,6.181558132E0
2.710777750E1,-1.502393484E0,3.726522207E0,5.863013744E0
2.712655052E1,-1.467697620E0,4.044767380E0,5.623731613E0
2.714532151E1,-1.380060434E0,4.546362877E0,5.629713535E0
2.716409401E1,-1.368096352E0,5.236991405E0,6.316752911E0
2.718286651E1,-1.347757339E0,5.961418629E0,7.556832790E0
2.720163990E1,-1.422233939E0,6.302395821E0,9.435198784E0
2.722041282E1,-1.553839207E0,6.262914181E0,1.136830044E1
2.723918573E1,-1.668694735E0,6.065506458E0,1.305135155E1
2.725795625E1,-2.098505497E0,6.078666687E0,1.384995651E1
2.727672792E1,-2.390429735E0,6.065506458E0,1.358405399E1
2.729549917E1,-1.817049742E0,6.061916828E0,1.318804169E1
2.731427193E1,-9.158528447E-1,6.124130249E0,1.267328644E1
2.733304391E1,-2.751746178E-1,6.084649086E0,1.179930782E1
2.735181604E1,-4.226323068E-1,5.713462353E0,1.110269737E1
2.737058844E1,-1.363310695E0,5.187938690E0,1.108714390E1
2.738936068E1,-2.574976206E0,4.491328239E0,1.119003487E1
2.740813401E1,-2.383251429E0,3.688236952E0,1.079133129E1
2.742690802E1,-1.076171994E0,3.151945591E0,9.372985840E0
2.744568021E1,-1.076770201E-1,3.027219772E0,7.779664516E0
2.746445339E1,2.416750938E-1,3.193820000E0,7.252944469E0
2.748322646E1,-3.828516230E-2,3.337389469E0,7.421638489E0
2.750199990E1,-4.525425732E-1,3.323032379E0,7.435995579E0
2.752077235E1,-6.032904387E-1,3.223730326E0,7.000202656E0
2.753954568E1,-4.716851711E-1,3.138785124E0,6.398108482E0
2.755831735E1,-3.233301640E-1,3.142374277E0,6.058327675E0
2.757708964E1,-3.053839803E-1,3.317050457E0,5.830710411E0
2.759586157E1,-7.181459069E-1,3.592225075E0,5.834300041E0
2.761463407E1,-1.133599758E0,3.967000723E0,6.399304867E0
2.763340453E1,-1.335793257E0,4.141676903E0,7.117750168E0
2.765217427E1,-1.593320727E0,4.240081787E0,8.065607071E0
2.767094526E1,-1.636391640E0,4.390829563E0,8.582756042E0
2.768971735E1,-1.687837243E0,4.666004181E0,8.502595901E0
2.770848974E1,-2.023131609E0,4.820640087E0,9.369396210E0
2.772726354E1,-2.494517565E0,4.606183529E0,1.168086243E1
2.774603651E1,-2.215753794E0,4.381258488E0,1.297597790E1
2.776480870E1,-2.055434704E0,4.120141506E0,1.225304699E1
2.778358188E1,-2.297109842E0,4.124927044E0,1.140299606E1
2.780235448E1,-2.752045155E0,4.387240410E0,1.132642555E1
2.782112552E1,-3.221337557E0,4.301098824E0,1.150857925E1
2.783989745E1,-3.246462107E0,4.110570431E0,1.145324516E1
2.785866797E1,-3.174677372E0,3.931108475E0,1.045035362E1
2.787743953E1,-3.342175007E0,3.782753468E0,9.169296265E0
2.789621130E1,-3.880859137E0,3.625724554E0,8.773283958E0
2.791498427E1,-4.240081787E0,3.306282759E0,8.700303078E0
2.793375667E1,-3.777967930E0,3.138785124E0,8.640183449E0
2.795253000E1,-2.906382322E0,3.133999348E0,8.318348885E0
2.797130125E1,-2.164308071E0,3.235694408E0,7.630113125E0
2.799007365E1,-1.630409479E0,3.398406267E0,6.636493683E0
2.800884365E1,-1.259222865E0,3.585046530E0,6.004489422E0
2.802761578E1,-9.014959335E-1,3.642474174E0,5.859424591E0
2.804638693E1,-7.719843984E-1,3.637688637E0,5.739783287E0
2.806516110E1,-9.732806087E-1,3.652344704E0,5.761318684E0
2.808393198E1,-1.281954765E0,3.588635683E0,6.149255276E0
2.810270365E1,-1.433001637E0,3.403192043E0,6.514459610E0
2.812147532E1,-1.423430324E0,3.169891834E0,6.685546398E0
2.814024948E1,-1.247258782E0,3.099303484E0,6.634100914E0
2.815902058E1,-1.119242787E0,3.148356438E0,6.253343105E0
2.817779380E1,-9.218349457E-1,3.361317635E0,6.097809315E0
2.819656474E1,-7.289136052E-1,3.675076485E0,5.957829475E0
2.821533641E1,-4.585246444E-1,4.103391647E0,5.884549141E0
2.823410823E1,-2.799602449E-1,4.444668293E0,6.400501251E0
2.825288058E1,-3.508476317E-1,4.444668293E0,7.785646915E0
2.827165240E1,-6.320042610E-1,4.258028030E0,1.035434151E1
2.829042604E1,-6.643074155E-1,4.425525665E0,1.260957718E1
2.830919906E1,-1.084546804E0,4.376472473E0,1.327298737E1
2.832797287E1,-1.450947881E0,4.023231983E0,1.291137218E1
2.834674683E1,-4.345964193E-1,4.079463482E0,1.259761333E1
2.836551870E1,6.008976102E-1,4.269991875E0,1.245882893E1
2.838429052E1,7.947162390E-1,4.424329281E0,1.257607746E1
2.840306448E1,1.399801224E-1,4.164408684E0,1.276780224E1
2.842183740E1,-1.273579836E0,3.356531858E0,1.349910927E1
2.844061089E1,-2.772384167E0,2.385644197E0,1.522642803E1
2.845938380E1,-3.260818958E0,1.797907114E0,1.586441422E1
2.847815662E1,-2.988934517E0,1.846959949E0,1.408445358E1
2.849692896E1,-2.878864765E0,2.128415823E0,1.166770267E1
2.851570188E1,-3.317050457E0,2.282752752E0,1.032084274E1
2.853447250E1,-3.632902861E0,2.254039049E0,1.011864853E1
2.855324490E1,-3.437887907E0,1.897209287E0,1.061545849E1
2.857201610E1,-3.149552822E0,1.377667665E0,1.112901783E1
2.859078813E1,-2.716152906E0,9.972088337E-1,1.030289650E1
2.860955985E1,-2.450250387E0,8.246265054E-1,8.469096184E0
2.862833417E1,-2.420340061E0,8.943174481E-1,6.763313293E0
2.864710604E1,-2.250449657E0,1.173081279E0,5.403591633E0
2.866587943E1,-1.930708766E0,1.655534148E0,4.201497555E0
2.868465235E1,-1.433001637E0,2.079362869E0,3.011666298E0
2.870342610E1,-8.787640929E-1,2.477767944E0,2.321038008E0
2.872219792E1,-3.317050338E-1,2.927917719E0,2.443071842E0
2.874097000E1,7.298108935E-2,3.424727440E0,3.387638569E0
2.875974146E1,2.946162820E-1,3.745664835E0,4.398007870E0
2.877851438E1,3.364906907E-1,4.252045631E0,5.150849819E0
2.879728516E1,3.173480928E-1,4.898406982E0,5.271687508E0
2.881605818E1,2.380858511E-1,5.355735302E0,5.651248932E0
2.883483021E1,1.423729509E-1,5.317151070E0,7.181159973E0
2.885360292E1,1.782652885E-1,5.184349537E0,9.145368576E0
2.887237490E1,-1.196411322E-3,5.168796062E0,1.011027431E1
2.889114823E1,-7.468597889E-1,4.953442097E0,1.101894855E1
2.890991995E1,-1.896012783E0,4.445864677E0,1.333520031E1
2.892869203E1,-2.664707184E0,4.010071754E0,1.538555050E1
2.894746401E1,-3.240479946E0,4.053142548E0,1.584527111E1
2.896623802E1,-4.517649174E0,4.368097782E0,1.461476231E1
2.898501021E1,-6.090631008E0,4.807479858E0,1.368215942E1
2.900378339E1,-6.819544315E0,4.721039295E0,1.283001614E1
2.902255479E1,-6.662814617E0,4.176373005E0,1.176820087E1
2.904132672E1,-5.965007782E0,3.461816072E0,1.085115147E1
2.906009834E1,-4.876871586E0,2.931506872E0,9.844670296E0
2.907887037E1,-3.694219112E0,2.607279301E0,8.253742218E0
2.909764141E1,-2.584547520E0,2.502892494E0,6.535995007E0
2.911641568E1,-1.760818362E0,2.554637194E0,5.178367138E0
2.913519026E1,-1.146760225E0,2.652743101E0,4.582255363E0
2.915396464E1,-5.386841893E-1,2.814258575E0,4.740181446E0
2.917273870E1,6.699903309E-2,3.048755169E0,5.268098354E0
2.919151219E1,5.709872842E-1,2.963809967E0,5.620141983E0
2.921028526E1,7.683951855E-1,2.920739174E0,6.146862507E0
2.922906005E1,7.683951855E-1,2.833401203E0,7.404888630E0
2.924783224E1,6.643074155E-1,3.009273529E0,8.355437279E0
2.926660396E1,2.751746178E-1,3.314657450E0,7.983054638E0
2.928537537E1,-1.782652885E-1,3.754039526E0,7.430013180E0
2.930414657E1,-3.568296731E-1,3.995714664E0,7.042376041E0
2.932291839E1,-4.010969102E-1,3.967000723E0,6.959524632E0
2.934169110E1,-5.159524083E-1,3.933501244E0,7.055536747E0
2.936046292E1,-6.990033388E-1,4.008875370E0,7.031608582E0
2.937923636E1,-9.373882413E-1,4.136891365E0,6.906882763E0
2.939800844E1,-1.291526079E0,4.354937077E0,6.817151546E0
2.941678068E1,-1.739282966E0,4.491328239E0,7.001399040E0
2.943555167E1,-1.978864312E0,4.579862595E0,7.785646915E0
2.945432443E1,-2.038684845E0,4.590630054E0,8.531310081E0
2.947309521E1,-2.160718918E0,4.548755646E0,9.026923180E0
2.949186657E1,-2.354537487E0,4.470989227E0,9.945169449E0
2.951063849E1,-2.477767944E0,4.359723091E0,1.113500023E1
2.952941094E1,-2.619243383E0,4.261617184E0,1.195843029E1
2.954818302E1,-2.671885490E0,4.479363918E0,1.237268734E1
2.956695677E1,-2.973381281E0,4.794319153E0,1.253539944E1
2.958573000E1,-3.278765202E0,4.931906700E0,1.264337540E1
2.960450412E1,-3.340978622E0,4.752145767E0,1.293888950E1
2.962327636E1,-3.253640652E0,4.335794449E0,1.333878994E1
2.964204948E1,-3.197409153E0,3.922733545E0,1.330050468E1
2.966082151E1,-3.178266764E0,3.532404423E0,1.293290710E1
2.967959292E1,-2.850150824E0,3.214159012E0,1.225304699E1
2.969836490E1,-2.261217356E0,2.972184896E0,1.109551907E1
2.971713646E1,-1.833799481E0,2.868097067E0,1.008395290E1
2.973590755E1,-1.551446438E0,2.841775894E0,9.544072151E0
2.975467995E1,-1.508375525E0,2.754437923E0,9.190832138E0
2.977345130E1,-1.411466241E0,2.661117792E0,8.882157326E0
2.979222464E1,-1.146760225E0,2.597707987E0,8.417651176E0
2.981099698E1,-9.780662656E-1,2.626421928E0,7.810771465E0
2.982976922E1,-1.010369420E0,2.700599432E0,7.340282440E0
2.984854089E1,-1.228116274E0,2.810669184E0,7.221837997E0
2.986731282E1,-1.498804331E0,2.842972517E0,7.227819920E0
2.988608297E1,-1.586142302E0,2.808276415E0,7.047161579E0
2.990485604E1,-1.517946839E0,2.670689106E0,6.784848690E0
2.992362886E1,-1.158724308E0,2.452643156E0,6.362216473E0
2.994240110E1,-9.601200819E-1,2.271985054E0,6.060720444E0
2.996117250E1,-7.827520967E-1,2.183450699E0,5.879763603E0
2.997994474E1,-5.123631358E-1,2.112862349E0,5.635695457E0
2.999871641E1,-2.213360965E-1,2.176272154E0,5.440680504E0
3.001748880E1,3.708875179E-2,2.340180635E0,5.274080276E0
3.003625985E1,1.639083475E-1,2.506481647E0,5.356931686E0
3.005503250E1,8.973085135E-2,2.702992201E0,5.853442192E0
3.007380302E1,-2.763710022E-1,2.991327524E0,6.520441532E0
3.009257422E1,-9.972088337E-1,3.362514019E0,7.066304207E0
3.011134479E1,-1.806282043E0,3.636492252E0,7.894520283E0
3.013011729E1,-2.519642353E0,3.709772348E0,9.538089752E0
3.014889000E1,-2.914757013E0,3.630510092E0,1.155404282E1
3.016766433E1,-3.247658491E0,3.630510092E0,1.290060425E1
3.018643516E1,-3.744468451E0,3.804288864E0,1.364507103E1
3.020520526E1,-4.195515633E0,4.060320854E0,1.402104378E1
3.022397615E1,-3.965804338E0,4.369294167E0,1.403061485E1
3.024274922E1,-3.719343662E0,4.449453831E0,1.374317646E1
3.026152130E1,-3.440280676E0,4.754538536E0,1.324786282E1
3.028029396E1,-3.632902861E0,5.024030209E0,1.276780224E1
3.029906547E1,-4.358526230E0,5.055137157E0,1.263858986E1
3.031783880E1,-5.077868938E0,4.860121727E0,1.267448235E1
3.033661021E1,-5.462215900E0,4.386044025E0,1.297717476E1
3.035538162E1,-5.323132992E0,3.661916018E0,1.330648708E1
3.037415203E1,-4.767699242E0,2.959024191E0,1.293529987E1
3.039292396E1,-4.295116425E0,2.542673111E0,1.214417267E1
3.041169568E1,-4.159623146E0,2.443071842E0,1.132044411E1
3.043046870E1,-4.259224415E0,2.368894339E0,1.031246758E1
3.044924063E1,-4.380061626E0,2.245664120E0,9.300004005E0
3.046801313E1,-4.313062668E0,2.086541414E0,8.381758690E0
3.048678490E1,-4.136891365E0,2.032702923E0,7.437191963E0
3.050555750E1,-4.151247978E0,2.076970100E0,6.400501251E0
3.052432964E1,-4.114159584E0,2.172683001E0,5.343770981E0
3.054310125E1,-3.914358854E0,2.243271112E0,4.286741734E0
3.056187266E1,-3.442673683E0,2.244467735E0,3.281157970E0
3.058064693E1,-2.857329369E0,2.226521492E0,2.360519648E0
3.059941735E1,-2.301895380E0,2.146361828E0,1.613659739E0
3.061818860E1,-1.869691849E0,2.172683001E0,1.340578914E0
3.063695875E1,-1.472483277E0,2.298306227E0,1.380060434E0
3.065573037E1,-1.153938770E0,2.488535643E0,1.480858088E0
3.067450209E1,-7.779664397E-1,2.787937403E0,1.678265929E0
3.069327422E1,-3.496512175E-1,3.404388428E0,2.263610125E0
3.071204505E1,-7.815557122E-1,4.057928085E0,3.232105255E0
3.073081792E1,-1.885245085E0,4.619344234E0,4.638486862E0
3.074959000E1,-2.853740215E0,5.014459133E0,6.104988098E0
3.076836386E1,-3.130410194E0,4.983352184E0,7.674380302E0
3.078713630E1,-2.635993242E0,4.613361835E0,9.526125908E0
3.080590766E1,-1.867298961E0,4.370490551E0,1.132642555E1
3.082467880E1,-1.418644667E0,4.244867325E0,1.309801197E1
3.084345104E1,-1.244866014E0,4.347758770E0,1.434796238E1
3.086222318E1,-1.252044439E0,4.717449665E0,1.462792301E1
3.088099417E1,-1.510768414E0,5.016851902E0,1.479661655E1
3.089976578E1,-1.340578914E0,4.740181446E0,1.527548027E1
3.091853813E1,-1.639083475E-1,4.515256405E0,1.541187191E1
3.093730875E1,9.876375198E-1,4.613361835E0,1.379970741E1
3.095608203E1,1.543071508E0,5.142475128E0,1.142213917E1
3.097485365E1,1.689033628E0,5.695516109E0,1.035793114E1
3.099362526E1,1.479661703E0,5.694319725E0,1.073988533E1
3.101239542E1,2.033899277E-1,5.299204826E0,1.172513008E1
3.103116724E1,-8.066803217E-1,4.527220249E0,1.302622700E1
3.104993797E1,-5.937191248E-1,3.222533941E0,1.371565914E1
3.106870969E1,7.058826834E-2,2.380858421E0,1.310877991E1
3.108748136E1,2.464607358E-1,2.182254314E0,1.135274696E1
3.110625391E1,-3.580260873E-1,2.218146563E0,9.860223770E0
3.112502469E1,-1.191027522E0,2.206182480E0,1.007438183E1
3.114379714E1,-2.036292076E0,2.076970100E0,1.048146057E1
3.116257021E1,-2.565404892E0,1.894816399E0,1.031725311E1
3.118134370E1,-2.421536446E0,1.775175333E0,8.845068932E0
3.120011630E1,-2.601297379E0,1.759621978E0,7.073482990E0
3.121888828E1,-2.584547520E0,1.807478428E0,6.692724705E0
3.123766078E1,-2.215753794E0,1.691426516E0,6.558726788E0
3.125643474E1,-2.135594130E0,1.686640859E0,6.399304867E0
3.127538641E1,-3.084647417E0,2.143969059E0,7.464709282E0
3.129411011E1,-2.432304144E0,2.546262503E0,5.776872158E0
3.131291422E1,-1.696212173E0,2.772384167E0,4.971388340E0
3.133171839E1,-1.572981834E0,3.108874798E0,5.396413326E0
3.135052255E1,-1.844567180E0,3.745664835E0,5.459823132E0
3.136932667E1,-1.593320727E0,4.169194221E0,5.213063240E0
3.138813084E1,-1.130010486E0,4.552345276E0,5.866602898E0
3.140693500E1,-9.864411354E-1,5.092225552E0,6.508477688E0
3.142573912E1,-1.401595831E0,5.751747608E0,6.630511761E0
3.144454328E1,-2.295913219E0,6.237789631E0,6.611369133E0
3.146334740E1,-2.854936600E0,6.792026997E0,7.912466049E0
3.148215157E1,-1.791925073E0,6.361020088E0,9.090332985E0
3.150095573E1,-1.706979871E0,5.836692810E0,9.562018394E0
3.151975990E1,-1.706979871E0,5.718247890E0,9.081958771E0
3.153856401E1,-1.909173369E0,5.901597977E0,9.960722923E0
3.155736818E1,-2.137987137E0,5.804389477E0,1.132044411E1
3.157617235E1,-2.246860504E0,5.575874805E0,1.200509071E1
3.159497651E1,-2.254039049E0,5.996114254E0,1.193450165E1
3.161378068E1,-2.079362869E0,5.861817360E0,1.094955635E1
3.163258479E1,-1.916351795E0,5.896812439E0,1.014616585E1
3.165138896E1,-1.957029819E0,5.647659779E0,9.408877373E0
3.167019313E1,-2.516052961E0,5.342574596E0,9.866206169E0
3.168899729E1,-2.814258575E0,4.636094093E0,1.098066330E1
3.170780141E1,-2.226521492E0,3.944268942E0,1.109432220E1
3.172660563E1,-1.508375525E0,3.809074640E0,9.782157898E0
3.174540974E1,-1.319043517E0,4.018446445E0,8.158029556E0
3.176421391E1,-1.582553029E0,4.222135544E0,7.893323898E0
3.178301808E1,-1.708176255E0,4.089034557E0,8.034500122E0
3.180182224E1,-1.581356645E0,3.995714664E0,7.711469173E0
3.182062636E1,-1.211366415E0,3.974179268E0,6.914061069E0
3.183943058E1,-9.852447510E-1,4.071088791E0,6.512066841E0
3.185823469E1,-9.098708034E-1,4.240081787E0,6.516852379E0
3.187702292E1,-8.186444640E-1,4.407579422E0,6.855436802E0
3.189579365E1,-7.241279483E-1,4.508078098E0,7.035197735E0
3.191456469E1,-6.583253145E-1,4.579862595E0,7.104589462E0
3.193333495E1,-6.834499836E-1,4.675575256E0,6.943971157E0
3.195210365E1,-8.751748800E-1,4.806283474E0,6.622136593E0
3.197087328E1,-1.088136077E0,4.991727352E0,6.436393738E0
3.198964266E1,-1.157527924E0,5.027619362E0,6.259325027E0
3.200841224E1,-1.249651670E0,5.092225552E0,6.154040813E0
3.202718282E1,-1.532303810E0,5.281258583E0,6.177968979E0
3.204595485E1,-1.683051586E0,5.372485161E0,6.369394779E0
3.206472646E1,-1.570588946E0,5.168796062E0,6.552744865E0
3.208349625E1,-1.398006678E0,5.026422977E0,6.689135551E0
3.210226604E1,-1.576570988E0,5.132903576E0,6.868597507E0
3.212103380E1,-1.781157374E0,5.155635357E0,6.989434719E0
3.213980261E1,-1.942672849E0,5.092225552E0,7.385746002E0
3.215857240E1,-1.890030742E0,4.994120121E0,7.844270706E0
3.217734282E1,-1.885245085E0,5.010869503E0,8.027321815E0
3.219611401E1,-2.044667006E0,5.013262749E0,8.185546875E0
3.221488432E1,-2.035095692E0,5.033601761E0,8.153244019E0
3.223365354E1,-2.000399828E0,5.144867897E0,7.061518669E0
3.225242443E1,-2.193022013E0,5.675177097E0,7.267301559E0
3.227119490E1,-2.038684845E0,5.565107346E0,8.381758690E0
3.228996547E1,-2.179861546E0,5.821139336E0,9.564411163E0
3.231732874E1,-1.370489120E0,6.252146244E0,6.474977970E0
3.233407959E1,-1.063011408E0,6.368198395E0,6.255735874E0
3.235288475E1,-1.253240824E0,6.674778938E0,6.711867332E0
3.237168839E1,-1.224527001E0,6.753741741E0,7.103393078E0
3.239049360E1,-1.128814101E0,6.892525673E0,7.151249409E0
3.240929719E1,-1.053440213E0,6.880561352E0,7.134500027E0
3.242810240E1,-1.106082320E0,6.793223381E0,7.556832790E0
3.244690600E1,-1.583749533E0,6.454638958E0,8.654540062E0
3.246571120E1,-2.513660192E0,6.057131290E0,9.845867157E0
3.248451480E1,-3.372085333E0,6.309574127E0,1.047787094E1
3.250332001E1,-3.714558125E0,6.127719879E0,1.133599758E1
3.252212360E1,-3.853341818E0,5.866602898E0,1.178495026E1
3.254092881E1,-3.920340776E0,6.124130249E0,1.040489006E1
3.255973245E1,-3.710968733E0,6.557530403E0,7.960322857E0
3.257853766E1,-3.375674486E0,7.203891754E0,6.662814617E0
3.259734126E1,-3.162713289E0,7.330711365E0,7.147660255E0
3.261614647E1,-2.889632463E0,7.029215813E0,8.928817749E0
3.263495011E1,-2.467000246E0,7.014858723E0,1.005763149E1
3.265375532E1,-2.419143677E0,7.217051983E0,9.658927917E0
3.267265313E1,-2.630011082E0,7.202695370E0,9.000602722E0
3.269185266E1,-3.210569859E0,6.343073845E0,9.152546883E0
3.271105402E1,-3.283550978E0,5.353342533E0,9.244669914E0
3.273025079E1,-2.680260420E0,4.357329845E0,9.474679947E0
3.274944329E1,-1.696212173E0,3.610171080E0,9.606286049E0
3.276863204E1,-1.274776220E0,3.258426189E0,9.163313866E0
3.278781751E1,-1.299900889E0,3.218944550E0,8.726624489E0
3.280700001E1,-1.606481314E0,3.323032379E0,8.857032776E0
3.282617975E1,-1.661516190E0,3.445066452E0,8.749356270E0
3.284535688E1,-1.631605983E0,3.464209080E0,7.712665558E0
3.286453178E1,-1.608874083E0,3.238087177E0,6.807580471E0
3.288370464E1,-1.254437327E0,2.936292410E0,6.685546398E0
3.290287579E1,-1.003190875E0,2.726920605E0,7.260122776E0
3.292204537E1,-1.031904817E0,2.819044113E0,7.966304779E0
3.294121344E1,-9.672985673E-1,2.994916677E0,8.266902924E0
3.296038011E1,-5.195416212E-1,3.198605776E0,8.160422325E0
3.297954537E1,-1.794617027E-1,3.593421459E0,8.142476082E0
3.299870980E1,-2.141576260E-1,3.872484446E0,8.582756042E0
3.301787324E1,-3.828516230E-2,3.940679789E0,9.830313683E0
3.303703579E1,4.680959284E-1,3.884448528E0,1.062742233E1
3.305619730E1,5.638088584E-1,3.701397419E0,1.046949673E1
3.307535803E1,5.745765567E-1,3.655933857E0,1.023350430E1
3.309451798E1,8.126623631E-1,3.693022728E0,1.009113121E1
3.311367730E1,5.554339290E-1,3.896412611E0,1.031246758E1
3.313261907E1,3.460619748E-1,4.627718925E0,1.087866879E1
3.315139662E1,3.281157911E-1,5.202295303E0,1.030289650E1
3.317017397E1,-5.877370834E-1,5.001298428E0,1.041206837E1
3.318895240E1,-9.672985673E-1,4.006482601E0,1.113858986E1
3.320773058E1,-1.722832322E-1,3.332603693E0,1.082363415E1
3.322650844E1,5.506483316E-1,3.330210924E0,9.077172279E0
3.324528438E1,6.212365627E-1,3.583850145E0,7.574779034E0
3.326406115E1,4.692923427E-1,3.840181351E0,7.498209000E0
3.328283938E1,2.009970993E-1,3.764807224E0,7.859824181E0
3.330161751E1,-2.321037948E-1,3.549154282E0,7.516155243E0
3.332039501E1,-2.994019389E-1,3.387638569E0,6.608976364E0
3.333917412E1,-1.064806059E-1,3.263211966E0,6.170790672E0
3.335795339E1,6.460621208E-2,3.100499868E0,6.357430458E0
3.337673423E1,-2.201396823E-1,3.099303484E0,6.752545357E0
3.339551120E1,-5.494518876E-1,3.266801119E0,7.310372353E0
3.341429027E1,-5.398806334E-1,3.270390272E0,7.656434059E0
3.343306824E1,-1.076770201E-1,3.132802963E0,7.758129120E0
3.345184672E1,-1.208375469E-1,3.122035265E0,7.985447407E0
3.347062282E1,-2.620140910E-1,3.178266764E0,8.440382957E0
3.348940074E1,-3.149552941E-1,3.351746321E0,8.691629410E0
3.350817730E1,-4.692923427E-1,3.611367464E0,8.913264275E0
3.352695657E1,-5.685944557E-1,3.834199190E0,9.378967285E0
3.354573636E1,-3.125624657E-1,3.766003847E0,1.041087246E1
3.356451647E1,-1.004985496E-1,3.702594042E0,1.145803165E1
3.358329313E1,-3.077768087E-1,3.850949049E0,1.212503052E1
3.360207157E1,-3.939184248E-1,4.091427803E0,1.218006516E1
3.362084922E1,-3.269194067E-1,4.729413986E0,1.134078312E1
3.363962860E1,-7.516453862E-1,5.068297386E0,1.088584709E1
3.365840688E1,-1.183848977E0,5.189135075E0,1.131326580E1
3.367718641E1,-1.858924150E0,4.614558697E0,1.186271763E1
3.369596553E1,-2.315055847E0,3.806681633E0,1.252343559E1
3.371474386E1,-2.191825628E0,3.283550978E0,1.249950695E1
3.373352100E1,-1.553839207E0,3.172284603E0,1.116969585E1
3.375229964E1,-9.553344250E-1,3.346960783E0,9.528518677E0
3.377107745E1,-5.626124144E-1,3.664308786E0,8.540881157E0
3.378985641E1,-7.432705164E-1,3.804288864E0,8.253742218E0
3.380863350E1,-1.092921734E0,3.730111361E0,8.420043945E0
3.382741313E1,-1.348953724E0,3.581457376E0,8.642576218E0
3.384618865E1,-1.005583763E0,3.368496180E0,9.010173798E0
3.386496469E1,-4.322035909E-1,3.138785124E0,8.816354752E0
3.388374079E1,-2.739782035E-1,3.085843801E0,8.350651741E0
3.390251777E1,-1.830509305E-1,3.159124136E0,7.742575645E0
3.392129605E1,2.201396823E-1,3.208176851E0,7.176374435E0
3.394007506E1,7.109674215E-1,3.218944550E0,6.679564476E0
3.395885198E1,9.278169870E-1,3.253640652E0,6.451947212E0
3.397763089E1,8.584251404E-1,3.324228764E0,6.754938126E0
3.399640954E1,9.720842242E-1,3.540779352E0,7.073482990E0
3.401518735E1,1.572981834E0,4.080659866E0,7.250551701E0
3.403396506E1,2.225325108E0,4.802694321E0,7.507780075E0
3.405274350E1,2.545065880E0,5.444269657E0,7.468298435E0
3.407152329E1,2.467000246E0,6.003293037E0,7.733004570E0
3.409030266E1,1.067797065E0,6.194718838E0,8.962317467E0
3.410908042E1,-8.255238086E-2,6.089434624E0,1.016770172E1
3.412785912E1,-4.501497746E-1,5.893223286E0,1.066810036E1
3.414663641E1,-5.195416212E-1,5.835496426E0,1.037228775E1
3.416541480E1,-3.245265782E-1,6.207879066E0,9.716355324E0
3.418419292E1,-2.297109663E-1,6.450750828E0,8.934800148E0
3.420297167E1,-1.351944804E-1,6.684350014E0,8.699107170E0
3.422174943E1,-5.961119533E-1,5.957829475E0,9.104690552E0
3.424053126E1,-9.696913958E-1,4.675575256E0,1.047308540E1
3.425931178E1,-7.372884750E-1,3.477369547E0,1.158275700E1
3.427809105E1,3.077768087E-1,3.081058264E0,1.101177025E1
3.429687079E1,8.991031051E-1,3.409173965E0,9.303593636E0
3.431564964E1,9.002995491E-1,3.933501244E0,8.197511673E0
3.433442568E1,7.648059130E-1,4.290330887E0,7.843074322E0
3.435320454E1,9.134600163E-1,4.652843475E0,7.285247803E0
3.437198355E1,1.031904817E0,4.929513931E0,6.266503334E0
3.439076397E1,1.015154958E0,4.960620403E0,5.402395248E0
3.440954209E1,1.067797065E0,4.779962540E0,5.544768333E0
3.442832079E1,1.057029366E0,4.481756687E0,6.551548481E0
3.444709907E1,9.074779749E-1,4.243670940E0,7.373782158E0
3.446587881E1,5.817549825E-1,4.178765774E0,7.316354275E0
3.448465808E1,3.556332588E-1,4.368097782E0,6.786045074E0
3.450343574E1,2.922234535E-1,4.706682205E0,6.308377743E0
3.452221386E1,4.010969102E-1,5.106582642E0,6.350252151E0
3.454099397E1,6.460621208E-2,5.711069584E0,6.692724705E0
3.455977292E1,-6.355935335E-1,6.240182400E0,7.467102051E0
3.457855209E1,-1.126421213E0,6.351448536E0,8.457132339E0
3.459733001E1,-1.198205948E0,5.990132332E0,8.880961418E0
3.461610938E1,-1.194616675E0,5.573482037E0,9.223134995E0
3.463488803E1,-1.354935765E0,5.307579517E0,9.903294563E0
3.465366730E1,-1.413859129E0,5.271687508E0,1.085713387E1
3.467244652E1,-1.303490162E0,5.344967365E0,1.133839035E1
3.469122589E1,-1.061815023E0,5.428716183E0,1.092891788E1
3.471000318E1,-6.439684033E-1,5.714658737E0,9.990633011E0
3.472878074E1,-3.496512175E-1,5.895616055E0,8.983852386E0
3.474756032E1,-2.117647976E-1,6.168397903E0,8.644968987E0
3.476634042E1,-4.716851711E-1,6.339484692E0,8.588737488E0
3.478512016E1,-1.006780148E0,6.236593246E0,8.871390343E0
3.480390100E1,-1.181456208E0,6.126523495E0,9.479466438E0
3.482268178E1,-1.358525038E0,6.018846035E0,9.402895927E0
3.484146256E1,-1.673480392E0,5.913562298E0,8.047660828E0
3.486024324E1,-2.152343988E0,5.764907837E0,7.016055107E0
3.487902422E1,-2.567797899E0,5.495715618E0,7.323532581E0
3.489780448E1,-2.347358942E0,5.252544880E0,7.461120129E0
3.491658516E1,-1.739282966E0,5.044369221E0,6.630511761E0
3.493536402E1,-1.043868899E0,5.000102043E0,5.362913609E0
3.495414350E1,-5.673980713E-1,5.015655518E0,4.523631096E0
3.497292152E1,-4.537389874E-1,4.894817829E0,5.179563522E0
3.499170053E1,-3.305086195E-1,4.644468784E0,6.029613972E0
3.501048027E1,-4.905286431E-2,4.481756687E0,6.261717796E0
3.502925860E1,9.930214286E-2,4.389633179E0,6.328716755E0
3.504803626E1,2.488535494E-1,4.402793884E0,6.821937561E0
3.506681636E1,8.234301209E-1,4.615755081E0,7.208677292E0
3.508559527E1,9.577272534E-1,5.181956768E0,7.501798153E0
3.510437391E1,8.030911088E-1,6.142076492E0,7.664809227E0
3.512315344E1,5.937191248E-1,7.018447876E0,7.967501163E0
3.514193235E1,8.751748800E-1,7.349853992E0,8.173583031E0
3.516071120E1,1.214955688E0,7.091429234E0,8.508578300E0
3.517949110E1,1.601695657E0,6.558726788E0,9.411270142E0
3.519827120E1,2.001596212E0,6.041578293E0,1.010548782E1
3.521705105E1,2.461018085E0,5.987739563E0,1.004686451E1
3.523582990E1,2.318645239E0,6.283253193E0,9.417252541E0
3.525460995E1,2.081755638E0,6.479763508E0,8.373383522E0
3.527338839E1,2.469393015E0,6.760920525E0,7.462316513E0
3.529216719E1,1.873281002E0,6.458228111E0,7.061518669E0
3.531094464E1,1.082154036E0,6.430411816E0,8.256134987E0
3.532972272E1,-6.819544733E-2,6.125326633E0,9.170493126E0
3.534850063E1,-6.990033388E-1,5.906383514E0,9.338289261E0
3.536728016E1,-1.830509305E-1,5.866602898E0,8.757730484E0
3.538605808E1,1.150349498E0,5.667998791E0,7.530511856E0
3.540483719E1,2.181057930E0,5.282454967E0,6.734599113E0
3.542361678E1,2.687438965E0,5.009673119E0,7.016055107E0
3.544239600E1,2.484946251E0,4.787140846E0,7.279265404E0
3.546117501E1,1.906780601E0,4.728217602E0,6.632904530E0
3.547995464E1,1.474876046E0,4.791926384E0,5.550750256E0
3.549873313E1,1.304686546E0,4.791926384E0,4.645665169E0
3.551751152E1,1.225723386E0,4.818247318E0,4.521238327E0
3.553628975E1,9.732806087E-1,4.833800793E0,5.014459133E0
3.555506923E1,7.025925517E-1,4.767699242E0,5.672784328E0
3.557384725E1,4.238287210E-1,4.897210598E0,6.790830612E0
3.559262522E1,1.722832322E-1,5.431109428E0,7.176374435E0
3.561140251E1,1.603191197E-1,6.012864113E0,6.656832695E0
3.563018100E1,4.908277392E-1,6.451947212E0,6.066702843E0
3.564895709E1,5.338985324E-1,6.786045074E0,6.177968979E0
3.566773391E1,3.293122053E-1,7.020840645E0,8.082356453E0
3.568651074E1,4.022932947E-1,7.408477783E0,1.011266708E1
3.570529022E1,5.219344497E-1,7.705487251E0,1.033041382E1
3.572406917E1,2.464607358E-1,7.789236069E0,9.942776680E0
3.574284745E1,-5.458626747E-1,7.467102051E0,1.038574791E1
3.576162449E1,-1.113260746E0,6.912864685E0,1.170000553E1
3.578040282E1,-1.116850019E0,6.526423931E0,1.254616737E1
3.579918058E1,-8.353942037E-1,6.497709751E0,1.186989594E1
3.581795751E1,-4.369892478E-1,6.620940208E0,9.350254059E0
3.583673532E1,-2.153540403E-1,6.748956203E0,7.389335632E0
3.585551355E1,-4.992026389E-1,6.484549522E0,7.138089180E0
3.587429105E1,-1.126421213E0,5.796014786E0,8.354241371E0
3.589306923E1,-1.491625786E0,5.001298428E0,9.851848602E0
3.591184527E1,-1.394417405E0,4.711467743E0,1.031486034E1
3.593062277E1,-1.035493970E0,4.935495853E0,8.757730484E0
3.594940022E1,-6.559324861E-1,5.269294739E0,6.498906136E0
3.596817923E1,-6.200401783E-1,5.482554913E0,4.814658165E0
3.598695709E1,-6.906284094E-1,5.580660820E0,4.473381996E0
3.600573433E1,-6.164509058E-1,5.498108387E0,5.003691196E0
3.602451032E1,-3.747758567E-1,5.320740223E0,5.211866856E0
3.604328803E1,-2.596212626E-1,5.238187790E0,5.021637440E0
3.606206568E1,-3.137588799E-1,5.213063240E0,4.957031250E0
3.608084402E1,-5.542375445E-1,5.219045162E0,5.378467083E0
3.609962193E1,-5.709872842E-1,5.214259624E0,5.990132332E0
3.611840209E1,-4.190430641E-1,5.217848778E0,6.372983932E0
3.613718079E1,-3.891327679E-1,5.499304771E0,6.371787548E0
3.615595985E1,-5.398806334E-1,6.055934906E0,6.685546398E0
3.617473735E1,-8.330013752E-1,6.602993965E0,7.450352192E0
3.619351574E1,-1.060618639E0,6.835097790E0,8.627022743E0
3.621229412E1,-5.745765567E-1,6.727420807E0,9.918848038E0
3.623107235E1,-4.082753658E-1,6.530013084E0,1.014377308E1
3.624985027E1,-1.273579836E0,6.524031162E0,1.059870911E1
3.626862943E1,-1.462911963E0,6.266503334E0,1.204576874E1
3.628740782E1,-9.254241586E-1,6.176772594E0,1.176461124E1
3.630618756E1,-4.345964193E-1,6.924828529E0,9.539286613E0
3.632496464E1,-5.566303730E-1,7.555636406E0,7.447959423E0
3.634374266E1,-5.135595798E-1,7.453941822E0,7.762914658E0
3.636252193E1,-6.798607111E-1,6.579065800E0,9.291629791E0
3.638129917E1,-6.212365627E-1,5.456233978E0,1.000139999E1
3.640007699E1,-7.178467698E-3,4.970191956E0,9.491430283E0
3.641885495E1,3.891327679E-1,5.019244671E0,7.839485168E0
3.643763225E1,3.472583890E-1,5.191527843E0,6.653243542E0
3.645640975E1,2.033899166E-2,5.417948723E0,6.414858341E0
3.647518850E1,-1.124626622E-1,5.416752338E0,6.664011002E0
3.649396756E1,2.404786795E-1,5.013262749E0,6.292824268E0
3.651274527E1,3.400799036E-1,4.604987144E0,5.739783287E0
3.653152673E1,3.352942765E-1,4.573880672E0,5.433502197E0
3.655030735E1,2.488535494E-1,4.669593334E0,5.317151070E0
3.656908730E1,1.842473447E-1,4.733003139E0,5.635695457E0
3.658786615E1,1.423729509E-1,4.799104691E0,5.947061539E0
3.660664501E1,2.991028316E-2,5.000102043E0,6.179165363E0
3.662542313E1,-3.257229924E-1,5.462215900E0,6.047560215E0
3.664420261E1,-6.080760360E-1,5.886941910E0,5.915955067E0
3.666298032E1,-7.707880139E-1,6.192326069E0,6.438786507E0
3.668176048E1,-9.182456732E-1,6.362216473E0,6.922435760E0
3.670053949E1,-6.870391965E-1,6.443572044E0,7.520940781E0
3.671931860E1,-3.831507266E-1,6.503692150E0,7.516155243E0
3.673809839E1,-2.117647976E-1,6.728617191E0,7.604988575E0
3.675688001E1,-3.589234129E-2,7.014858723E0,7.968697548E0
3.677565923E1,1.543370634E-1,7.169195652E0,8.478668213E0
3.679443933E1,2.081755698E-1,6.979863644E0,9.479466438E0
3.681321850E1,2.751746029E-2,6.640082836E0,1.084756279E1
3.683199870E1,-2.751746029E-2,6.228218079E0,1.153131104E1
3.685077829E1,-4.187439755E-2,6.213861465E0,1.094207859E1
3.686955881E1,-7.899305820E-1,6.192326069E0,9.917651176E0
3.688833834E1,-1.411466241E0,6.142076492E0,9.583553314E0
3.690711787E1,-1.818246126E0,5.434698582E0,9.669695854E0
3.692589657E1,-1.765604019E0,4.673182487E0,1.048504925E1
3.694467402E1,-1.255633712E0,4.232903481E0,1.026221848E1
3.696345162E1,-7.863413692E-1,4.374079704E0,8.969495773E0
3.698222969E1,-9.577272534E-1,4.776372910E0,7.584649563E0
3.700100876E1,-1.494018674E0,5.065904617E0,6.783652306E0
3.701978995E1,-1.651944876E0,4.897210598E0,6.995417118E0
3.703856730E1,-1.409073472E0,4.281956196E0,7.843074322E0
3.705734657E1,-5.925226808E-1,3.984946966E0,7.783253670E0
3.707612542E1,-1.782652885E-1,4.071088791E0,6.574280262E0
3.709490516E1,-2.333002090E-1,4.532006264E0,6.022435665E0
3.711368454E1,-5.853442550E-1,4.879264355E0,6.243771553E0
3.713246266E1,-8.030911088E-1,4.958227634E0,6.906882763E0
3.715124193E1,-7.277171612E-1,4.963013172E0,7.096214771E0
3.717002412E1,-9.326026440E-1,5.162814140E0,6.577869415E0
3.718880443E1,-1.169492126E0,5.477769375E0,6.346662998E0
3.720758339E1,-1.348953724E0,5.824728489E0,6.540780544E0
3.722636105E1,-1.763211131E0,6.303592205E0,7.083054066E0
3.724513808E1,-2.105684042E0,6.789634228E0,7.697112083E0
3.726391501E1,-3.478565931E0,7.613363266E0,7.674380302E0
3.728269298E1,-4.800301552E0,8.606683731E0,7.179963589E0
3.730146990E1,-4.510470867E0,8.059624672E0,7.077072144E0
3.732024839E1,-2.773580551E0,6.787241459E0,7.609774113E0
3.733902792E1,-1.498804331E0,5.830710411E0,7.810771465E0
3.735780938E1,-1.425823212E0,5.828317642E0,8.014161110E0
3.737659084E1,-3.412763178E-1,5.394020557E0,8.725427628E0
3.739537360E1,2.616850615E0,4.657629490E0,1.129172993E1
3.741415579E1,4.729413986E0,4.549952030E0,1.264935780E1
3.743293792E1,5.064708233E0,4.954638481E0,1.224945736E1
3.745171756E1,5.061119080E0,5.177170753E0,1.194287682E1
3.747049719E1,4.766502857E0,4.718646049E0,1.296520996E1
3.748927683E1,4.073481560E0,4.189533234E0,1.346560955E1
3.750805641E1,3.663112402E0,4.060320854E0,1.187468147E1
3.752683350E1,2.533101797E0,4.554738045E0,9.575179100E0
3.754561074E1,8.823533654E-1,5.275276661E0,7.420442104E0
3.756438985E1,-2.548356056E-1,6.137290955E0,5.858228207E0
3.758317209E1,-7.432705164E-1,6.387341022E0,5.644070625E0
3.760195334E1,-7.612167001E-1,6.005685806E0,6.420840263E0
3.762073334E1,1.148554832E-1,5.262115955E0,6.463014126E0
3.763951225E1,8.656035662E-1,4.533202648E0,5.863013744E0
3.765829360E1,1.132403374E0,4.121337891E0,5.981757641E0
3.767707490E1,9.337990284E-1,4.199104786E0,5.988935947E0
3.769585631E1,3.269194067E-1,4.408775806E0,5.893223286E0
3.771463610E1,0.000000000E0,4.619344234E0,5.907579899E0
3.773341709E1,-1.746760458E-1,4.614558697E0,6.210271835E0
3.775219824E1,-1.579262912E-1,4.431507587E0,6.530013084E0
3.777097870E1,7.417750359E-2,4.448257446E0,6.628118515E0
3.778975959E1,8.853443712E-2,4.820640087E0,6.353841305E0
3.780854141E1,-1.591227055E-1,5.382056236E0,6.179165363E0
3.782732204E1,-4.034897089E-1,5.851049423E0,6.939185619E0
3.784622162E1,-8.614161611E-2,6.053542137E0,7.687541008E0
3.786502511E1,3.580260873E-1,6.174379826E0,7.833503246E0
3.788383042E1,3.628117442E-1,6.589833736E0,7.184749126E0
3.790263423E1,-2.667997181E-1,7.022037029E0,7.002595425E0
3.792143954E1,-9.409775138E-1,7.080661297E0,7.889734268E0
3.794024334E1,-1.645962834E0,6.813562393E0,9.422038078E0
3.795904865E1,-2.437089920E0,6.445965290E0,1.018205833E1
3.797785240E1,-2.877668381E0,6.079863071E0,1.052572727E1
3.799665772E1,-2.501696110E0,6.033203125E0,1.090618610E1
3.801546152E1,-2.276770830E0,6.174379826E0,1.063699436E1
3.803426683E1,-2.670689106E0,6.438786507E0,1.009113121E1
3.805307063E1,-3.533600807E0,6.539584160E0,9.767801285E0
3.807187594E1,-3.958626032E0,6.121737480E0,9.906884193E0
3.809067975E1,-3.807878017E0,5.446662426E0,1.055444145E1
3.810948506E1,-3.260818958E0,5.097011566E0,1.065374374E1
3.812828886E1,-2.606082916E0,5.144867897E0,9.207581520E0
3.814709417E1,-1.953440547E0,5.290830135E0,7.571189880E0
3.816589798E1,-1.767996788E0,5.372485161E0,6.766902447E0
3.818470329E1,-1.472483277E0,5.105386257E0,6.643671989E0
3.820350709E1,-7.995018363E-1,4.901996136E0,6.568298340E0
3.822231240E1,-4.429712892E-1,4.806283474E0,6.315556049E0
3.824111620E1,-2.009970993E-1,4.761716843E0,6.470192432E0
3.825992152E1,-1.339980662E-1,4.811069012E0,6.599404812E0
3.827872532E1,-4.561318159E-1,4.948656559E0,6.598208427E0
3.829753063E1,-1.019940615E0,5.219045162E0,6.387341022E0
3.831633443E1,-7.791628838E-1,5.321936607E0,5.840281963E0
3.833513980E1,-4.381856322E-1,5.319543839E0,5.654838085E0
3.835394360E1,-5.614160299E-1,5.410770416E0,6.119344711E0
3.837274897E1,-7.683951855E-1,5.604588985E0,6.662814617E0
3.839155272E1,-6.858428121E-1,5.774479389E0,7.622934818E0
3.841035808E1,-5.685944557E-1,5.980561256E0,8.757730484E0
3.842916183E1,-6.678966284E-1,6.272485256E0,9.012566566E0
3.844796725E1,-8.548358679E-1,6.358626842E0,8.823533058E0
3.846677100E1,-1.046261668E0,6.079863071E0,9.350254059E0
3.848557636E1,-1.157527924E0,5.667998791E0,1.051854897E1
3.850438011E1,-1.042672515E0,5.496912003E0,1.121157074E1
3.852318553E1,-6.750751138E-1,5.846263885E0,1.062024403E1
3.854198928E1,-3.580260873E-1,6.255735874E0,9.361021042E0
3.856079464E1,-5.024927482E-2,6.437590122E0,9.135796547E0
3.857959839E1,1.028913707E-1,6.090631008E0,9.554840088E0
3.859840381E1,1.172483116E-1,5.113760948E0,1.003250694E1
3.861720756E1,1.268195957E-1,4.382454872E0,1.066092205E1
3.863601292E1,-1.387837082E-1,4.191926003E0,1.040130138E1
3.865481672E1,-4.094717801E-1,4.435096741E0,9.317950249E0
3.867362209E1,-5.099703074E-1,4.799104691E0,8.012965202E0
3.869242584E1,-4.274179339E-1,5.098207951E0,7.434799194E0
3.871123126E1,-8.614161611E-2,5.401198864E0,7.003791809E0
3.873003501E1,-5.982056633E-2,5.457430363E0,6.308377743E0
3.874884037E1,2.093719840E-1,5.439484119E0,5.914758682E0
3.876764417E1,6.858428121E-1,5.173581600E0,6.078666687E0
3.878644954E1,9.158528447E-1,4.813461781E0,6.635297298E0
3.880525329E1,9.361918569E-1,4.654039860E0,6.978667259E0
3.882405870E1,8.775677085E-1,4.545166492E0,7.106982231E0
3.884286245E1,1.068993568E0,4.152444363E0,7.217051983E0
3.886166787E1,1.141974568E0,4.047160625E0,7.166802883E0
3.888047162E1,4.980062246E-1,4.335794449E0,6.769295216E0
3.889927704E1,1.136590764E-1,4.848157883E0,6.155237198E0
3.891808032E1,1.423729509E-1,5.394020557E0,5.782854080E0
3.893686376E1,-1.674975827E-2,5.605785370E0,6.448358059E0
3.895564334E1,1.734796464E-1,5.699105263E0,7.942376614E0
3.897442350E1,5.982056633E-2,5.984150410E0,8.324331284E0
3.899320381E1,-2.321037948E-1,6.302395821E0,8.056035995E0
3.901198433E1,-2.628814697E0,7.158428192E0,1.107278633E1
3.903076469E1,-1.125224829E0,7.023233414E0,9.332307816E0
3.904954475E1,-7.564310431E-1,6.215057850E0,1.012821960E1
3.906832407E1,-9.960124493E-1,6.088238239E0,1.124387360E1
3.908710391E1,-2.392822653E-1,5.990132332E0,1.046710396E1
3.910588282E1,-3.376871049E-1,5.434698582E0,1.010309505E1
3.912466225E1,-9.924231768E-1,5.348556995E0,1.067527866E1
3.914344183E1,-1.723729610E0,5.000102043E0,1.096152020E1
3.916222334E1,-1.795514345E0,4.509274483E0,1.070279694E1
3.918100261E1,-2.312663078E0,4.301098824E0,1.082363415E1
3.919978209E1,-2.044667006E0,4.776372910E0,8.824729919E0
3.921856022E1,-2.166700840E0,5.203492165E0,7.205088139E0
3.923733777E1,-2.230110645E0,5.391627789E0,6.801598549E0
3.925611516E1,-2.214557409E0,5.211866856E0,7.286444187E0
3.927489313E1,-1.778764486E0,4.676771641E0,7.643273830E0
3.929367120E1,-1.320239902E0,4.539184570E0,7.439584732E0
3.931245022E1,-1.316650629E0,4.873282433E0,6.975078106E0
