"Time (s)","Acceleration x (m/s^2)","Acceleration y (m/s^2)","Acceleration z (m/s^2)"
1.202944200E-2,6.634100676E-1,3.968496323E0,8.982057571E0
3.213902500E-2,8.650053740E-1,4.004388809E0,8.144570351E0
5.224855600E-2,1.144367456E0,3.984049797E0,8.230113029E0
7.235808800E-2,5.569294691E-1,3.973880291E0,8.487341881E0
9.246767100E-2,8.249256015E-1,3.683750391E0,9.367302895E0
1.125772020E-1,7.639086246E-1,3.564109325E0,9.421739578E0
1.326867860E-1,5.090730190E-1,3.619742393E0,9.593423843E0
1.527963170E-1,5.718846321E-1,3.529413462E0,9.534201622E0
1.729058480E-1,4.785645306E-1,3.597010612E0,9.364311218E0
1.930154310E-1,2.434697002E-1,3.643670797E0,9.188439369E0
2.131249630E-1,1.154536903E-1,3.624528170E0,9.126823425E0
2.332345460E-1,1.268195957E-1,3.633501291E0,9.168100357E0
2.533440770E-1,1.782652885E-1,3.644268990E0,9.259625435E0
2.734536080E-1,2.733799815E-1,3.605983734E0,9.296713829E0
2.935631920E-1,3.499503136E-1,3.624528170E0,9.371489525E0
3.136727230E-1,4.073780477E-1,3.649652719E0,9.487542152E0
3.337822540E-1,4.456632137E-1,3.634697676E0,9.489934921E0
3.538918380E-1,3.858426511E-1,3.631706476E0,9.408578873E0
3.740013690E-1,2.201396823E-1,3.586841106E0,9.494122505E0
3.941109520E-1,1.884347796E-1,3.471985579E0,9.653244972E0
4.142204830E-1,1.549352705E-1,3.459423304E0,9.762716293E0
4.343300150E-1,1.950150430E-1,3.547359467E0,9.560523033E0
4.544395980E-1,2.512463629E-1,3.670589924E0,9.247661591E0
4.745491290E-1,3.409772217E-1,3.746562004E0,9.081359863E0
4.946586610E-1,3.116651475E-1,3.742374659E0,9.090931892E0
5.147682440E-1,2.859423161E-1,3.729214191E0,9.197412491E0
5.348777750E-1,3.098705411E-1,3.758526087E0,9.322437286E0
5.549873060E-1,4.624129832E-1,3.746562004E0,9.315856934E0
5.750968900E-1,5.485545993E-1,3.719642878E0,9.131608963E0
5.952064210E-1,4.067798555E-1,3.748356581E0,9.008976936E0
6.153159520E-1,3.002992272E-1,3.719044685E0,8.906683922E0
6.354255360E-1,2.141576260E-1,3.677170277E0,8.955737114E0
6.555350670E-1,1.208375469E-1,3.647259951E0,9.078369141E0
6.756445980E-1,8.554340899E-2,3.668795347E0,9.104690552E0
6.957541810E-1,1.465603858E-1,3.725624800E0,9.113064766E0
7.158637130E-1,2.219343036E-1,3.684946775E0,9.171091080E0
7.359732440E-1,2.847459018E-1,3.652045488E0,9.308079720E0
7.560828270E-1,2.871387303E-1,3.663411379E0,9.369096756E0
7.761923580E-1,5.264209956E-2,3.675375462E0,9.284152031E0
7.963018900E-1,-2.542374134E-1,3.656831264E0,9.200403214E0
8.164114730E-1,-3.326023519E-1,3.623929977E0,9.211769104E0
8.365210040E-1,-1.680957973E-1,3.643072367E0,9.268000603E0
8.566305360E-1,8.793623000E-2,3.626322746E0,9.212965012E0
8.767401190E-1,3.577269912E-1,3.500699520E0,8.826524734E0
8.968496500E-1,2.925225794E-1,3.504288673E0,8.382656097E0
9.169591810E-1,-3.828516230E-2,3.543770313E0,8.408976555E0
9.370687130E-1,-1.537388563E-1,3.640679598E0,9.125627518E0
9.571782960E-1,1.208375469E-1,3.622733593E0,9.811170578E0
9.772878270E-1,3.391826153E-1,3.498904943E0,1.014855862E1
9.973973580E-1,2.500499785E-1,3.442075491E0,1.021256733E1
1.017506942E0,5.623133108E-2,3.373281717E0,9.853643417E0
1.037616473E0,-8.673982322E-2,3.337987661E0,9.293125153E0
1.057726004E0,-1.040877849E-1,3.406781197E0,8.920442581E0
1.077835536E0,-5.563312769E-2,3.418147087E0,8.951549530E0
1.097945119E0,3.768695518E-2,3.414557934E0,9.193224907E0
1.118054650E0,6.819544733E-2,3.402593851E0,9.440881729E0
1.138164181E0,1.016949639E-1,3.428316593E0,9.454640388E0
1.158273765E0,1.728814393E-1,3.473780155E0,9.309276581E0
1.178383296E0,2.129612118E-1,3.511467218E0,9.236893654E0
1.198492827E0,2.189432681E-1,3.492324591E0,9.259027481E0
1.218602358E0,1.214357466E-1,3.473780155E0,9.309276581E0
1.238711942E0,8.374879509E-2,3.457628727E0,9.397810936E0
1.258821473E0,1.286142170E-1,3.418147087E0,9.430113792E0
1.278931004E0,1.507478207E-1,3.415754318E0,9.363713264E0
1.299040588E0,1.417747438E-1,3.438486099E0,9.272188187E0
1.319150119E0,1.698904037E-1,3.410968781E0,9.259625435E0
1.339259650E0,1.339980662E-1,3.439682484E0,9.245268822E0
1.359369181E0,1.232303679E-1,3.525225878E0,9.125029564E0
1.379478765E0,2.350948304E-1,3.535395384E0,9.025128365E0
1.399588296E0,2.985046208E-1,3.506681681E0,9.095717430E0
1.419697827E0,2.697907388E-1,3.452843189E0,9.300901413E0
1.439807358E0,2.398804724E-1,3.407379389E0,9.359525681E0
1.459916942E0,1.734796464E-1,3.417548895E0,9.245268822E0
1.480026473E0,1.028913707E-1,3.422932863E0,9.115457535E0
1.500136004E0,1.316052526E-1,3.431905985E0,9.215956688E0
1.520245536E0,2.691925466E-1,3.419941664E0,9.397212982E0
1.540355067E0,3.918247223E-1,3.415156126E0,9.492327690E0
1.560464650E0,4.127618968E-1,3.439084291E0,9.491130829E0
1.580574181E0,3.804588020E-1,3.478565931E0,9.379266739E0
1.600683713E0,2.961117923E-1,3.476771355E0,9.307481766E0
1.620793244E0,2.273181528E-1,3.474976778E0,9.242277145E0
1.640902827E0,2.243271172E-1,3.468396425E0,9.203393936E0
1.661012358E0,2.763710022E-1,3.449851990E0,9.247062683E0
1.681121890E0,2.943171859E-1,3.455235958E0,9.296115875E0
1.701231421E0,2.626122832E-1,3.436093330E0,9.330213547E0
1.721341004E0,2.333002090E-1,3.428914785E0,9.313464165E0
1.741450536E0,2.374876440E-1,3.418147087E0,9.348159790E0
1.761560067E0,2.488535494E-1,3.382254839E0,9.440881729E0
1.781669598E0,2.344966233E-1,3.332603693E0,9.543174744E0
1.801779129E0,1.734796464E-1,3.300300598E0,9.566504478E0
1.821888713E0,1.250249892E-1,3.285943747E0,9.516854286E0
1.841998244E0,1.136590764E-1,3.288934708E0,9.377471924E0
1.862107775E0,8.315058798E-2,3.311068296E0,9.253643036E0
1.882217306E0,6.999006122E-2,3.286541939E0,9.253643036E0
1.902326838E0,7.657032460E-2,3.248256683E0,9.403194427E0
1.922436421E0,4.965107143E-2,3.260818958E0,9.505488396E0
1.942545952E0,3.110669367E-2,3.283550978E0,9.449256897E0
1.962655483E0,1.292124242E-1,3.290729284E0,9.293723106E0
1.982765015E0,1.537388563E-1,3.326023579E0,9.147761345E0
2.002874546E0,9.511470050E-2,3.361317635E0,9.055637360E0
2.022984129E0,9.451649338E-2,3.352942705E0,9.050851822E0
2.043093661E0,1.106680483E-1,3.339184046E0,9.179466248E0
2.063203192E0,1.686939895E-1,3.267399311E0,9.306883812E0
2.083312723E0,1.369891018E-1,3.210569859E0,9.326624870E0
2.103422254E0,-2.033899166E-2,3.266801119E0,9.482755661E0
2.123531838E0,1.974078640E-2,3.211766243E0,9.672985077E0
2.143641369E0,8.973085135E-2,3.133401155E0,9.622735977E0
2.163750900E0,1.501496136E-1,3.168097258E0,9.378069878E0
2.183860431E0,2.524427772E-1,3.172882795E0,9.179466248E0
2.203969963E0,2.841476798E-1,3.148954630E0,9.037093163E0
2.224079546E0,1.710868180E-1,3.083152056E0,8.913264275E0
2.244189077E0,-2.871387303E-1,2.761915445E0,9.533005714E0
2.264298608E0,-1.244267747E-1,2.909672260E0,1.041176987E1
2.284408140E0,3.535395563E-1,3.090330362E0,1.034776115E1
2.304517671E0,5.533402562E-1,3.127419233E0,9.741181374E0
2.324627254E0,6.430711150E-1,3.071786165E0,9.265008926E0
2.344736786E0,4.139583111E-1,3.146561861E0,8.951549530E0
2.364846317E0,2.727817893E-1,3.223132133E0,8.864809990E0
2.384955848E0,3.062812984E-1,3.211766243E0,8.957531929E0
2.405065379E0,1.136590764E-1,3.367299557E0,9.323633194E0
2.425174911E0,2.937189937E-1,3.248854876E0,9.578469276E0
2.445284494E0,6.059823632E-1,3.219542980E0,9.481559753E0
2.465394025E0,6.897311211E-1,3.395415306E0,9.221938133E0
2.485503556E0,7.184450030E-1,3.483351469E0,8.986844063E0
2.505613088E0,6.885347366E-1,3.534198999E0,8.558527946E0
2.525722619E0,2.919243574E-1,3.618546009E0,8.339585304E0
2.545832202E0,-8.835497499E-1,3.746562004E0,8.632705688E0
2.565941733E0,-4.199403822E-1,3.522833109E0,9.219545364E0
2.586051265E0,7.369893789E-1,2.981456995E0,9.637093544E0
2.606160796E0,8.183453679E-1,3.370888948E0,1.018505001E1
2.626270327E0,6.927221417E-1,3.422334671E0,1.041655540E1
2.646379858E0,5.682953596E-1,3.311068296E0,1.013659477E1
2.666489390E0,3.505485058E-1,3.312264681E0,9.723833084E0
2.686598973E0,4.965107143E-2,3.279363394E0,9.500701904E0
2.706708504E0,-2.877369225E-1,3.284747362E0,9.312267303E0
2.726818036E0,-3.182454109E-1,3.248256683E0,9.150154114E0
2.746927567E0,-1.094716340E-1,3.218944550E0,9.157930374E0
2.767037098E0,9.092725813E-2,3.358326674E0,9.411569595E0
2.787146629E0,3.936193287E-1,3.289532900E0,9.652647018E0
2.807256161E0,5.389832854E-1,3.327219963E0,9.793225288E0
2.827365744E0,4.420739710E-1,3.314657450E0,9.795618057E0
2.847475275E0,2.632105052E-1,3.280559778E0,9.644271851E0
2.867584806E0,4.576273263E-1,3.381058455E0,9.427721024E0
2.887694338E0,7.812566161E-1,3.475574970E0,9.198608398E0
2.907803869E0,6.508477330E-1,3.598805189E0,9.385847092E0
2.927913400E0,5.772684813E-1,3.429512978E0,9.299106598E0
2.948022983E0,4.546363056E-1,3.472583771E0,9.071788788E0
2.968132515E0,3.529413342E-1,3.762115479E0,9.041280746E0
2.988242046E0,4.773681164E-1,3.822534084E0,9.340981483E0
3.008351577E0,3.696911037E-1,3.843471289E0,9.672387123E0
3.028461108E0,4.504488707E-1,3.906282902E0,9.448060036E0
3.048570640E0,-3.954139352E-1,3.162115097E0,8.604590416E0
3.068680171E0,-3.906283081E-1,3.876372576E0,8.228917122E0
3.088789754E0,-2.392822653E-1,4.916054249E0,9.020342827E0
3.108899286E0,6.334998012E-1,4.304687977E0,8.970691681E0
3.129008817E0,8.745766878E-1,4.146163464E0,8.660223007E0
3.149118348E0,5.096712112E-1,4.286741734E0,8.940781593E0
3.169227879E0,2.141576260E-1,4.025924206E0,9.311669350E0
3.189337411E0,-1.525424421E-1,3.673580885E0,9.351749420E0
3.209446942E0,1.758724600E-1,3.702893019E0,9.088538170E0
3.229556473E0,8.231309652E-1,3.907479286E0,8.750552177E0
3.249666056E0,9.068797827E-1,3.903890133E0,8.577073097E0
3.269775588E0,4.175475538E-1,3.951148272E0,8.593822479E0
3.289885119E0,-1.663011760E-1,3.878765583E0,8.700303078E0
3.309994650E0,-4.331009090E-1,3.693321705E0,9.171091080E0
3.330104181E0,-1.579262912E-1,3.637688637E0,9.741181374E0
3.350213713E0,-3.768695518E-2,3.689732552E0,9.903892517E0
3.370323244E0,-6.562315822E-1,3.330809116E0,9.822537422E0
3.390432775E0,-5.994020700E-1,3.202194929E0,9.702297211E0
3.410542358E0,2.793620527E-1,3.748356581E0,9.408578873E0
3.430651890E0,7.567301393E-1,3.735196114E0,9.002995491E0
3.450761421E0,8.207381964E-1,3.538984776E0,8.502895355E0
3.470870952E0,3.230310678E-1,3.382853031E0,8.885746956E0
3.490980483E0,-1.489532143E-1,3.326621771E0,9.495318413E0
3.511090015E0,-1.447657645E-1,3.557528973E0,9.722636223E0
3.531199546E0,5.826523304E-1,3.994817495E0,9.021539688E0
3.551309077E0,1.399801254E0,3.840480328E0,7.996214867E0
3.571418661E0,9.996016622E-1,3.943371773E0,7.901100159E0
3.591528192E0,4.366901219E-1,3.421138287E0,8.953344345E0
3.611637723E0,-6.424728632E-1,2.980260611E0,1.063071251E1
3.631747254E0,-4.510470629E-1,3.044268608E0,1.075095177E1
3.651856786E0,-5.228317380E-1,3.114856958E0,1.006540871E1
3.671966317E0,-9.445667267E-1,4.226323128E0,9.322437286E0
3.692075848E0,4.977070987E-1,3.744169235E0,8.755337715E0
3.712185379E0,7.429714203E-1,3.506083488E0,8.599205971E0
3.732294911E0,1.830509305E-1,3.611367464E0,8.786444664E0
3.752404442E0,-7.417750359E-2,3.479164124E0,9.337990761E0
3.772514025E0,-1.674975902E-1,3.305684566E0,9.727422714E0
3.792623556E0,-2.087737769E-1,3.308675528E0,9.796813965E0
3.812733088E0,2.931207791E-2,3.364308596E0,9.754940033E0
3.832842619E0,3.062812984E-1,3.442673683E0,9.433105469E0
3.852952150E0,5.904290080E-1,3.580260992E0,8.778668404E0
3.873061681E0,7.345965505E-1,3.534198999E0,8.283951759E0
3.893171213E0,4.719842672E-1,3.398406267E0,7.479365349E0
3.913280744E0,1.836491376E-1,3.204587698E0,7.616354465E0
3.933390275E0,-3.996013701E-1,2.791825771E0,1.118106174E1
3.953499858E0,7.268198729E-1,2.466402054E0,1.189890862E1
3.973609390E0,8.117650747E-1,2.740978241E0,1.077129078E1
3.993718921E0,7.268198729E-1,3.034697294E0,9.259625435E0
4.013828452E0,7.304090858E-1,3.010769129E0,9.497113228E0
4.033937983E0,8.255237937E-1,3.081357241E0,1.039202881E1
4.054047515E0,7.639086246E-1,3.195016384E0,9.781859398E0
4.074157046E0,4.905286431E-1,3.253640652E0,8.660821915E0
4.094266577E0,1.884347796E-1,3.302693367E0,8.849854469E0
4.114376108E0,9.511470050E-2,3.336193085E0,9.421140671E0
4.134485640E0,1.627119333E-1,3.290131092E0,9.324830055E0
4.154595171E0,2.751746029E-2,3.204587698E0,8.883354187E0
4.174704754E0,-1.208375469E-1,3.214159012E0,8.866005898E0
4.194814286E0,-2.327020019E-1,3.351746321E0,9.182456970E0
4.214923817E0,-3.068794906E-1,3.461217880E0,9.343972206E0
4.235033348E0,-2.446661144E-1,3.497708559E0,9.400203705E0
4.255142879E0,-4.211367965E-1,3.564109325E0,9.684949875E0
4.275252411E0,-6.227321029E-1,3.544966698E0,9.687342644E0
4.295361942E0,-5.754738450E-1,3.608974695E0,9.318249702E0
4.315471473E0,-6.574280262E-1,3.726222992E0,9.258428574E0
4.335581004E0,-6.113662124E-1,3.714258909E0,9.469595909E0
4.355690536E0,-5.276173949E-1,3.672982693E0,9.674779892E0
4.375800067E0,-5.551348329E-1,3.599403381E0,9.656235695E0
4.395909650E0,-7.220342159E-1,3.568894863E0,9.515657425E0
4.416019181E0,-8.392825127E-1,3.551547050E0,9.577272415E0
4.436128713E0,-7.806583643E-1,3.626322746E0,9.547960281E0
4.456238244E0,-7.585247755E-1,3.725624800E0,9.103493690E0
4.476347775E0,-5.856433511E-1,3.803989887E0,8.690134048E0
4.496457306E0,-3.056831062E-1,3.855435371E0,8.778069496E0
4.516566838E0,-1.998006850E-1,3.881756544E0,9.000003815E0
4.536676369E0,-4.223332107E-1,3.899104595E0,9.177073479E0
4.556785900E0,-5.563312769E-1,3.904488325E0,9.237491608E0
4.576895431E0,-6.125625968E-1,4.185046673E0,8.832506180E0
4.597004963E0,-5.048855543E-1,4.657629490E0,8.478368759E0
4.617114494E0,-5.539384484E-1,5.130809784E0,8.420941353E0
4.637224077E0,-7.016952634E-1,5.022534847E0,8.677571297E0
4.657333608E0,-5.503492355E-1,4.317250252E0,9.963713646E0
4.677443140E0,-8.775677085E-1,3.820739508E0,1.088853931E1
4.697552671E0,-1.489532143E-1,2.963510752E0,1.211486149E1
4.717662202E0,-2.129612118E-1,2.748156786E0,1.277468204E1
4.737771733E0,-2.554338276E-1,2.842075109E0,1.141735363E1
4.757881265E0,-2.309073806E-1,2.818745136E0,9.271589279E0
4.777990796E0,-3.349951804E-1,2.941377163E0,7.782057285E0
4.798100327E0,-6.508477330E-1,3.183052301E0,7.225128174E0
4.818209858E0,-1.135394335E0,3.468396425E0,7.583453178E0
4.838319390E0,-1.387837172E0,3.706482172E0,8.396414757E0
4.858428973E0,-1.328614831E0,3.930809498E0,8.545368195E0
4.878538452E0,-1.333400369E0,3.894318819E0,8.888737679E0
4.898648036E0,-1.109671474E0,3.370888948E0,1.029093170E1
4.918757567E0,-8.488538265E-1,2.961117983E0,1.130668545E1
4.938867098E0,-7.244270444E-1,2.827120066E0,1.156570816E1
4.958976629E0,-1.079162955E0,2.916252613E0,1.097109222E1
4.979086161E0,-1.631306887E0,3.096910715E0,9.363713264E0
4.999195692E0,-1.983649969E0,3.541975737E0,7.680960655E0
5.019305223E0,-1.653440475E0,3.982254982E0,6.358926296E0
5.039414754E0,-9.708877802E-1,4.305884361E0,5.859424591E0
5.059524286E0,-2.775674164E-1,4.337589264E0,6.248258114E0
5.079633817E0,8.135596663E-2,4.354339123E0,7.561319351E0
5.099743348E0,1.788634956E-1,4.241876125E0,9.283554077E0
5.119852931E0,8.853443712E-2,4.016951084E0,1.001635551E1
5.139962411E0,-1.561316848E-1,3.858426571E0,9.588638306E0
5.160071994E0,-2.147558331E-1,3.843471289E0,8.994620323E0
5.180181525E0,-2.751746029E-2,3.866801500E0,8.889934540E0
5.200291056E0,3.230310604E-2,3.933800459E0,8.935996056E0
5.220400588E0,-1.214357466E-1,3.991826296E0,8.645866394E0
5.240510119E0,-2.225325108E-1,4.089931965E0,8.088338852E0
5.260619650E0,-1.920240223E-1,4.174877167E0,7.828717709E0
5.280729181E0,-8.853443712E-2,4.222135544E0,7.902894974E0
5.300838713E0,-7.238288224E-2,4.200600147E0,7.991429329E0
5.320948244E0,-1.651047617E-1,4.171288013E0,8.065607071E0
5.341057775E0,-3.068794906E-1,4.235296249E0,8.114660263E0
5.361167306E0,-4.917250574E-1,4.383651257E0,8.036892891E0
5.381276890E0,-5.312066078E-1,4.467400074E0,7.876574039E0
5.401386421E0,-3.050848842E-1,4.463212490E0,8.271389961E0
5.421495900E0,0.000000000E0,4.420141697E0,9.364311218E0
5.441605483E0,2.985046208E-1,4.445864677E0,1.036451149E1
5.461715015E0,4.073780477E-1,4.417150497E0,1.061396313E1
5.481824546E0,1.100698411E-1,4.629513741E0,1.034477043E1
5.501934077E0,-3.146561682E-1,5.072783947E0,9.991230965E0
5.522043608E0,-1.794617064E-2,5.011766911E0,1.039980507E1
5.542153140E0,4.558327198E-1,4.985445976E0,1.145862961E1
5.562262671E0,1.381256819E0,4.242474556E0,1.255932808E1
5.582372202E0,2.791227579E0,2.627319336E0,1.315932846E1
5.602481733E0,2.709871531E0,1.418345571E0,1.300618744E1
5.622591265E0,8.590233326E-1,1.214357495E0,1.203948689E1
5.642700796E0,-5.874379873E-1,1.816750646E0,9.552745819E0
5.662810379E0,-1.357328653E0,2.749353170E0,6.442076683E0
5.682919911E0,-1.874178290E0,3.762115479E0,4.250251293E0
5.703029442E0,-1.388435364E0,4.130609989E0,4.470989227E0
5.723138973E0,6.071787477E-1,3.203989506E0,7.819146156E0
5.743248504E0,2.225923300E0,2.388036966E0,1.219202995E1
5.763358036E0,2.106282234E0,1.978266120E0,1.427079391E1
5.783467567E0,3.385843933E-1,1.539781332E0,1.291705513E1
5.803577098E0,-1.569093466E0,1.597209096E0,9.795019150E0
5.823686629E0,-2.180459738E0,2.179861546E0,7.692924976E0
5.843796161E0,-1.503290772E0,2.933600664E0,6.741179466E0
5.863905692E0,-5.228317380E-1,3.586841106E0,6.211169243E0
5.884015223E0,1.423729509E-1,3.868596077E0,6.362515450E0
5.904124806E0,3.008974493E-1,3.840480328E0,7.138986588E0
5.924234286E0,-2.057827413E-1,3.588635683E0,7.439285755E0
5.944343869E0,-1.149751306E0,3.108276606E0,7.834101200E0
5.964453400E0,-1.529611826E0,2.667398930E0,9.190832138E0
5.984562931E0,-1.815554142E0,2.721835852E0,1.076112175E1
6.004672463E0,-1.826920033E0,2.887538671E0,1.151246834E1
6.024781994E0,-1.640878081E0,2.937788010E0,1.108175945E1
6.044891525E0,-1.336391449E0,3.077768087E0,9.984052658E0
6.065001056E0,-1.058225870E0,3.175873756E0,8.891729355E0
6.085110588E0,-1.028913736E0,3.221337557E0,8.381459236E0
6.105220119E0,-1.222134113E0,3.285345554E0,8.135597229E0
6.125329650E0,-1.413560033E0,3.311068296E0,7.563114166E0
6.145439181E0,-1.539183140E0,3.313461065E0,7.220940590E0
6.165548713E0,-1.520040631E0,3.393620729E0,6.980462074E0
6.185658296E0,-1.729412556E0,3.422932863E0,7.593024254E0
6.205767827E0,-1.659422517E0,3.297907829E0,9.089735031E0
6.225877358E0,-1.722832322E0,3.259622574E0,1.037049294E1
6.245986890E0,-2.397608280E0,3.985246181E0,1.098724365E1
6.266096421E0,-3.325425386E0,5.013561726E0,1.002951622E1
6.286205952E0,-2.832503796E0,4.245465755E0,1.031545830E1
6.306315483E0,-1.004985452E0,2.284547329E0,1.487797260E1
6.326425015E0,-2.967100143E-1,9.493523836E-1,1.854916191E1
6.346534546E0,-7.304090858E-1,2.494517565E-1,1.676949883E1
6.366644077E0,-1.384846091E0,4.510470629E-1,1.221177006E1
6.386753608E0,-1.701895118E0,1.357328653E0,9.023932457E0
6.406863140E0,-1.589432478E0,2.178066730E0,7.232904434E0
6.426972671E0,-1.469791293E0,2.723032236E0,6.748956203E0
6.447082254E0,-9.032905698E-1,2.709871531E0,8.062017441E0
6.467191786E0,5.982056609E-4,2.285743713E0,1.009830952E1
6.487301317E0,4.378865361E-1,1.878963947E0,1.140120125E1
6.507410848E0,2.506481707E-1,1.725823283E0,1.090289593E1
6.527520379E0,-8.530412912E-1,2.133799553E0,8.771489143E0
6.547629911E0,-1.609771490E0,2.515454769E0,6.912864685E0
6.567739442E0,-1.633101463E0,2.775674343E0,6.311667919E0
6.587848973E0,-1.068993568E0,3.003590584E0,6.570092678E0
6.607958504E0,-4.019941986E-1,3.231507063E0,7.116254330E0
6.628068036E0,-6.580262631E-2,3.438486099E0,7.394420147E0
6.648177567E0,-5.204389244E-2,3.568296671E0,7.676175117E0
6.668287098E0,-2.327020019E-1,3.586841106E0,8.115856171E0
6.688396629E0,-4.199403822E-1,3.579064369E0,8.339585304E0
6.708506161E0,-6.323033571E-1,3.638885021E0,8.551349640E0
6.728615744E0,-6.089733839E-1,3.668197155E0,8.821739197E0
6.748725275E0,-3.840480447E-1,3.687937975E0,9.031708717E0
6.768834806E0,-1.184447184E-1,3.802195072E0,9.268000603E0
6.788944338E0,-7.178468257E-2,3.829712629E0,9.221340179E0
6.809053869E0,-1.046859920E-1,3.878167391E0,8.916254997E0
6.829163400E0,-5.264209956E-2,3.999603033E0,8.802596092E0
6.849272931E0,5.623133108E-2,4.081557274E0,8.854042053E0
6.869382463E0,5.144568533E-2,4.141975880E0,8.786444664E0
6.889491994E0,-7.178467698E-3,4.314857483E0,8.569295883E0
6.909601525E0,-1.549352705E-1,4.586442947E0,8.263612747E0
6.929711056E0,8.973085135E-2,4.399802685E0,8.397012711E0
6.949820588E0,5.886343718E-1,4.059423447E0,9.757930756E0
6.969930171E0,2.691925503E-2,4.692923546E0,1.088435173E1
6.990039702E0,-4.145565331E-1,5.286941528E0,1.119900799E1
7.010149233E0,3.942175210E-1,4.899304390E0,1.218664551E1
7.030258765E0,2.429313183E0,3.338585854E0,1.324188042E1
7.050368296E0,3.754936934E0,1.943570137E0,1.311625767E1
7.070477827E0,3.058027267E0,1.272981644E0,1.296550941E1
7.090587358E0,1.114457130E0,1.433300734E0,1.254078388E1
7.110696890E0,-6.927221417E-1,2.057827473E0,1.042792130E1
7.130806421E0,-1.615753531E0,2.700300455E0,7.909475327E0
7.150915952E0,-1.018146038E0,3.212364435E0,6.168098450E0
7.171025483E0,5.575276613E-1,3.539582968E0,5.769095421E0
7.191135015E0,2.352742910E0,3.478565931E0,6.803991318E0
7.211244598E0,3.299104214E0,3.169891834E0,8.624331474E0
7.231354129E0,2.553141832E0,2.698505640E0,1.009472084E1
7.251463661E0,7.549355626E-1,2.312663078E0,1.057567787E1
7.271573192E0,-7.453642488E-1,2.247458696E0,1.057328510E1
7.291682723E0,-1.125823021E0,2.459821701E0,1.031904793E1
7.311792254E0,-5.527420044E-1,2.878565550E0,9.252447128E0
7.331901786E0,5.742774159E-2,3.314657450E0,7.906484127E0
7.352011317E0,5.784648657E-1,3.575475216E0,7.216753006E0
7.372120848E0,7.884350419E-1,3.695714474E0,7.576872826E0
7.392230379E0,7.932206988E-1,3.554538012E0,8.395217896E0
7.412339911E0,3.786641955E-1,3.369094372E0,9.037691116E0
7.432449442E0,-1.004985496E-1,3.257827997E0,9.307481766E0
7.452558973E0,-4.749752879E-1,3.257827997E0,9.240483284E0
7.472668504E0,-4.797609448E-1,3.347558975E0,8.943773270E0
7.492778088E0,-2.721835673E-1,3.570091486E0,8.678768158E0
7.512887619E0,-8.494520187E-2,3.777668715E0,8.626125336E0
7.532997150E0,4.187439568E-3,3.871587038E0,8.590831757E0
7.553106681E0,4.546362907E-2,3.906282902E0,8.506484032E0
7.573216213E0,7.776673418E-3,3.985246181E0,8.660821915E0
7.593325744E0,-7.836493850E-2,4.094119549E0,8.849854469E0
7.613435275E0,-1.286142170E-1,4.180261135E0,8.804390907E0
7.633544806E0,-2.434697002E-1,4.341178417E0,8.583653450E0
7.653654338E0,-4.319044948E-1,4.686343193E0,8.439485550E0
7.673763869E0,-9.696913958E-1,5.076971531E0,8.516654015E0
7.693873400E0,-1.629512191E0,5.399404526E0,9.407979965E0
7.713982983E0,-1.095314622E0,4.504488468E0,1.149452209E1
7.734092515E0,9.332008362E-1,2.723630428E0,1.487019634E1
7.754202046E0,2.194218397E0,2.042872429E0,1.763151360E1
7.774311577E0,1.421336651E0,2.125424623E0,1.591167259E1
7.794421108E0,2.291127741E-1,2.141576290E0,1.125045395E1
7.814530640E0,-1.052841991E-1,2.108675003E0,7.750352383E0
7.834640171E0,-1.788634956E-1,2.484946251E0,6.431907177E0
7.854749702E0,-4.468596280E-1,3.016152859E0,6.283552170E0
7.874859233E0,-1.079761267E0,3.400201082E0,7.417750359E0
7.894968765E0,-1.322034478E0,3.452843189E0,8.598010063E0
7.915078296E0,-9.816554785E-1,3.272783279E0,8.861818314E0
7.935187827E0,-4.666004330E-2,2.812164783E0,8.592626572E0
7.955297411E0,5.766702294E-1,2.502294302E0,8.657232285E0
7.975406942E0,3.074777126E-1,2.400599241E0,9.580862045E0
7.995516473E0,-6.269195080E-1,2.487937450E0,1.003430176E1
8.015626004E0,-1.389033556E0,2.810370207E0,9.149555206E0
8.035735536E0,-1.447059512E0,3.064607620E0,8.135597229E0
8.055845067E0,-9.128618240E-1,3.241676569E0,7.462615490E0
8.075954598E0,-3.314059377E-1,3.435495138E0,7.740182877E0
8.096064129E0,-1.088734269E-1,3.486940861E0,8.451449394E0
8.116173661E0,-1.435693651E-1,3.464209080E0,8.689535141E0
8.136283192E0,-6.580262445E-3,3.510270834E0,8.971888542E0
8.156392723E0,1.064806059E-1,3.681357622E0,8.962915421E0
8.176502254E0,-5.383851007E-2,3.839283943E0,8.273183823E0
8.196611786E0,-1.812563092E-1,3.876372576E0,7.622336388E0
8.216721369E0,-2.015953064E-1,3.860221148E0,7.896314621E0
8.236830900E0,-2.404786795E-1,3.859622955E0,8.666205406E0
8.256940431E0,-2.895315289E-1,3.890729666E0,9.014361382E0
8.277049963E0,-1.369891018E-1,3.933800459E0,8.917451859E0
8.297159494E0,-1.058823988E-1,4.089931965E0,8.545368195E0
8.317269025E0,-2.488535494E-1,4.291527271E0,8.330014229E0
8.337378556E0,-1.920240223E-1,4.439284325E0,8.096115112E0
8.357488088E0,-3.948157281E-2,4.477569580E0,8.155936241E0
8.377597619E0,1.926222295E-1,4.472185612E0,8.894122124E0
8.397707150E0,2.231307179E-1,4.808975220E0,1.000439167E1
8.417816681E0,-2.243271172E-1,5.385645390E0,1.004985523E1
8.437926265E0,-7.986045480E-1,5.672185898E0,9.309874535E0
8.458035796E0,-4.911268353E-1,5.375475883E0,9.449256897E0
8.478145327E0,1.097109199E0,4.556532383E0,1.148016453E1
8.498254858E0,2.458625317E0,3.574877024E0,1.423908901E1
8.518364390E0,2.672184706E0,2.212164640E0,1.491027641E1
8.538473921E0,1.825125456E0,9.409775138E-1,1.396810246E1
8.558583452E0,6.879364848E-1,6.705885530E-1,1.329392433E1
8.578692983E0,-2.817548811E-1,1.296909928E0,1.213161087E1
8.598802515E0,-1.097707391E0,1.869990945E0,9.533603668E0
8.618912046E0,-1.097109199E0,2.333002090E0,6.735795975E0
8.639021577E0,-1.280160099E-1,2.958725214E0,5.148158073E0
8.659131108E0,1.542174220E0,3.241078377E0,5.819344521E0
8.679240692E0,3.416352510E0,2.892922640E0,7.660621643E0
8.699350223E0,3.763311863E0,2.658426046E0,9.438488960E0
8.719459754E0,2.151147604E0,2.533999205E0,1.041356373E1
8.739569286E0,9.272187948E-2,2.400001049E0,1.041835022E1
8.759678817E0,-1.202393413E0,2.466402054E0,9.840482712E0
8.779788348E0,-1.389033556E0,2.769692183E0,8.787042618E0
8.799897879E0,-7.710871100E-1,3.187239647E0,7.834101200E0
8.820007411E0,-3.768695518E-2,3.696312666E0,7.216753006E0
8.840116942E0,2.691925466E-1,4.146761417E0,6.814758778E0
8.860226473E0,1.812563092E-1,4.298107624E0,6.978667259E0
8.880336056E0,-5.862415582E-2,4.107878208E0,7.850253105E0
8.900445588E0,-1.854437590E-1,3.887140274E0,8.760123253E0
8.920555119E0,-1.555334777E-1,3.867997885E0,9.294321060E0
8.940664650E0,-1.256231871E-2,4.034298897E0,9.082556725E0
8.960774181E0,1.112662554E-1,4.182055950E0,8.207980156E0
8.980883713E0,2.602194548E-1,4.240081787E0,7.853842258E0
9.000993244E0,3.517449200E-1,4.321437836E0,8.352746010E0
9.021102775E0,1.890329868E-1,4.429712772E0,8.898308754E0
9.041212306E0,-1.280160099E-1,4.457828522E0,8.941379547E0
9.061321838E0,-2.392822653E-1,4.421338081E0,9.050253868E0
9.081431421E0,-2.584248483E-1,4.281357765E0,9.518050194E0
9.101540952E0,-2.261217386E-1,4.395017147E0,9.351150513E0
9.121650483E0,-4.426721856E-2,4.749154568E0,8.804988861E0
9.141760015E0,-1.794617027E-1,5.111069202E0,8.353343964E0
9.161869546E0,-1.029511929E0,5.927021503E0,8.242077827E0
9.181979077E0,-1.592423439E0,6.008975983E0,9.270991325E0
9.202088608E0,-5.916253924E-1,4.865804672E0,1.177149105E1
9.222198140E0,6.550351977E-1,3.799204111E0,1.478943825E1
9.242307671E0,1.300499082E0,2.824128866E0,1.628136253E1
9.262417202E0,7.357929349E-1,2.309073925E0,1.417986679E1
9.282526733E0,2.213360928E-2,2.218744755E0,1.045663452E1
9.302636317E0,-2.398804724E-1,2.054238319E0,7.355536938E0
9.322745848E0,-6.376872063E-1,2.352742910E0,5.551348686E0
9.342855379E0,-1.137188911E0,3.194418192E0,5.621338367E0
9.362964911E0,-1.686939955E0,3.961916208E0,6.943373203E0
9.383074442E0,-1.618744493E0,4.275974274E0,7.914859295E0
9.403183973E0,-3.583251834E-1,4.004388809E0,7.996214867E0
9.423293504E0,1.329213023E0,3.299702406E0,7.861020565E0
9.443403036E0,1.981855392E0,2.866601467E0,8.645866394E0
9.463512567E0,6.287141442E-1,2.835494757E0,9.957731247E0
9.483622150E0,-1.485344648E0,2.830111027E0,9.830313683E0
9.503731681E0,-2.858226538E0,2.851646423E0,8.889934540E0
9.523841213E0,-2.784049034E0,2.964108944E0,8.592626572E0
9.543950744E0,-1.336989641E0,3.162115097E0,9.038887978E0
9.564060275E0,-1.555334777E-1,3.356531858E0,9.416355133E0
9.584169806E0,3.726821244E-1,3.483351469E0,9.391230583E0
9.604279338E0,1.615155339E-1,3.635894060E0,8.912068367E0
9.624388869E0,-4.121637046E-1,3.914657831E0,8.315656662E0
9.644498400E0,-6.879364848E-1,4.101297855E0,8.117053032E0
9.664607931E0,-7.016952634E-1,4.103690624E0,8.123034477E0
9.684717463E0,-7.381857634E-1,4.097110748E0,8.218747139E0
9.704827046E0,-7.351947427E-1,4.163511276E0,8.433503151E0
9.724936577E0,-6.083751321E-1,4.176671982E0,8.814560890E0
9.745046108E0,-4.378865361E-1,4.152145386E0,9.238089561E0
9.765155640E0,-4.624129832E-1,4.256831646E0,9.270393372E0
9.785265171E0,-3.158525825E-1,4.332803726E0,9.175278664E0
9.805374702E0,-1.962114573E-1,4.381856441E0,9.224929810E0
9.825484233E0,-1.268195957E-1,4.344169617E0,9.425926208E0
9.845593765E0,1.890329868E-1,4.269991875E0,9.729815483E0
9.865703296E0,4.923232496E-1,4.198207378E0,9.943972588E0
9.885812827E0,4.528416991E-1,4.150949001E0,9.860821724E0
9.905922411E0,-9.511470050E-2,4.711467743E0,9.177671432E0
9.926031942E0,-7.507480979E-1,5.085944653E0,8.377870560E0
9.946141473E0,-3.050848842E-2,4.533800602E0,8.651249886E0
9.966251004E0,8.703892231E-1,4.488935471E0,9.829116821E0
9.986360536E0,1.688734531E0,3.433102369E0,1.174875927E1
1.000647007E1,2.529213428E0,1.780260086E0,1.398544979E1
1.002657960E1,2.190629244E0,1.360917926E0,1.423250866E1
1.004668913E1,1.058824062E0,1.679163337E0,1.184028435E1
1.006679866E1,-5.443671346E-2,2.204986095E0,8.839685440E0
1.008690819E1,-6.669993401E-1,3.042474031E0,6.617351055E0
1.010701778E1,-7.004988194E-1,3.923630953E0,5.596213818E0
1.012712731E1,5.425725579E-1,4.039084435E0,6.212365627E0
1.014723684E1,2.310868502E0,3.488137245E0,7.833503246E0
1.016734637E1,3.136990547E0,3.053839922E0,9.539586067E0
1.018745590E1,2.459821701E0,2.635694027E0,1.076171970E1
1.020756543E1,6.460621357E-1,2.390429735E0,1.113799095E1
1.022767496E1,-7.824530005E-1,2.433500528E0,1.042612648E1
1.024778449E1,-1.168893814E0,2.667997360E0,8.977870941E0
1.026789402E1,-5.533402562E-1,3.094517946E0,7.867002487E0
1.028800356E1,3.278166950E-1,3.600001574E0,7.381857872E0
1.030811314E1,7.363911867E-1,3.882354736E0,7.422535896E0
1.032822267E1,6.687939167E-1,3.847060680E0,8.028517723E0
1.034833220E1,2.769692242E-1,3.659822226E0,9.041878700E0
1.036844173E1,-9.571290575E-3,3.470191002E0,9.629316330E0
1.038855126E1,-1.250249892E-1,3.385245800E0,9.501300812E0
1.040866080E1,-7.238288224E-2,3.555734396E0,9.049057007E0
1.042877033E1,1.106680483E-1,3.855435371E0,8.660223007E0
1.044887986E1,3.176472187E-1,4.035495281E0,8.387441635E0
1.046898939E1,4.121637046E-1,4.112663746E0,8.163114548E0
1.048909892E1,2.745763958E-1,4.144368649E0,8.108079910E0
1.050920850E1,-5.084748194E-2,4.164707661E0,8.335397720E0
1.052931804E1,-3.397808075E-1,4.268795490E0,8.742177963E0
1.054942757E1,-3.343969584E-1,4.372285366E0,8.879166603E0
1.056953710E1,-4.307080805E-2,4.374678135E0,8.937192917E0
1.058964663E1,3.708875179E-1,4.288536549E0,9.171689034E0
1.060975616E1,4.414757788E-1,4.290330887E0,9.354740143E0
1.062986569E1,6.101697683E-2,4.294518471E0,9.595218658E0
1.064997522E1,-4.630111754E-1,4.286741734E0,9.903892517E0
1.067008481E1,-1.051645517E0,4.620540619E0,9.778867722E0
1.069019429E1,-1.512263894E0,5.112265587E0,9.222537041E0
1.071030387E1,-1.374078393E0,5.209773064E0,8.681758881E0
1.073041340E1,-2.733799815E-1,4.279563427E0,9.902098656E0
1.075052293E1,1.194018483E0,3.010769129E0,1.320658684E1
1.077063246E1,1.651047587E0,2.428116798E0,1.492941856E1
1.079074199E1,7.226324677E-1,2.233101845E0,1.236431313E1
1.081085152E1,-2.009970993E-1,2.241476536E0,8.909674644E0
1.083096106E1,-7.579265833E-1,2.666202545E0,7.208976269E0
1.085107059E1,-1.429113269E0,3.135195971E0,7.319046497E0
1.087118012E1,-1.501496196E0,2.968894720E0,8.813364029E0
1.089128970E1,-5.479564071E-1,2.729612350E0,1.035793114E1
1.091139923E1,4.839483798E-1,2.689532757E0,1.087777138E1
1.093150876E1,1.254437327E0,2.443071842E0,1.035434151E1
1.095161830E1,1.107876897E0,2.436491728E0,9.527023315E0
1.097172783E1,8.434699476E-2,2.622533560E0,8.722436905E0
1.099183736E1,-7.429714203E-1,2.702095032E0,7.914260864E0
1.101194689E1,-1.298704505E0,2.903092146E0,7.134200573E0
1.103205642E1,-1.115055323E0,3.126222849E0,7.027719975E0
1.105216595E1,-3.948157430E-1,3.366701365E0,7.594819069E0
1.107227554E1,5.623133108E-2,3.555136204E0,8.202595711E0
1.109238507E1,8.315058798E-2,3.608974695E0,8.400003433E0
1.111249460E1,-2.602194548E-1,3.667598963E0,8.622536659E0
1.113260413E1,-4.013960063E-1,3.723830223E0,8.940183640E0
1.115271366E1,-2.398804724E-1,3.821337700E0,9.087940216E0
1.117282319E1,1.794617064E-2,3.957130432E0,8.989834785E0
1.119293272E1,1.836491376E-1,4.007379532E0,8.730812073E0
1.121304225E1,2.458625287E-1,4.046263218E0,8.612964630E0
1.123315179E1,2.303091735E-1,4.140779495E0,8.673981667E0
1.125326132E1,2.392822690E-2,4.175475597E0,8.909674644E0
1.127337090E1,-1.118644550E-1,4.226323128E0,8.982057571E0
1.129348043E1,-1.621137410E-1,4.372883320E0,9.037093163E0
1.131358996E1,-7.776673418E-3,4.427918434E0,9.159725189E0
1.133369949E1,1.597209126E-1,4.449453831E0,9.172885895E0
1.135380902E1,3.116651475E-1,4.435096741E0,9.214759827E0
1.137391856E1,2.793620527E-1,4.346562386E0,9.479166985E0
1.139402809E1,-3.230310678E-1,4.778466702E0,9.431310654E0
1.141413762E1,-7.160521746E-1,4.837689400E0,9.124430656E0
1.143424720E1,3.768695593E-1,4.165904045E0,9.902696609E0
1.145435673E1,1.667797327E0,3.987040758E0,1.175354481E1
1.147446626E1,2.530410051E0,2.901895761E0,1.337587833E1
1.149457580E1,2.170888424E0,1.271785259E0,1.338305664E1
1.151468533E1,8.195417523E-1,5.294120312E-1,1.262871933E1
1.153479486E1,-3.816552162E-1,5.485545993E-1,1.240738392E1
1.155490439E1,-1.012762189E0,1.323829174E0,1.201854992E1
1.157501392E1,-1.240080357E0,2.094916344E0,1.013898754E1
1.159512345E1,-9.385846853E-1,2.821736097E0,7.694121361E0
1.161523298E1,1.447657645E-1,3.377469063E0,6.461817741E0
1.163534257E1,1.956730723E0,3.180061340E0,7.150950432E0
1.165545210E1,3.711267948E0,2.575275421E0,9.141778946E0
1.167556163E1,3.474976778E0,2.212762833E0,1.155254745E1
1.169567116E1,1.231107235E0,1.958525300E0,1.195872974E1
1.171578069E1,-8.991031051E-1,1.920240164E0,1.012941647E1
1.173589022E1,-1.710868239E0,2.125424623E0,8.311469078E0
1.175599975E1,-1.012762189E0,2.518445730E0,7.338787079E0
1.177610929E1,5.742774159E-2,3.008974552E0,7.051050186E0
1.179621882E1,5.736792088E-1,3.426522017E0,7.027122021E0
1.181632840E1,6.239284873E-1,3.658625841E0,7.200601578E0
1.183643793E1,2.327020019E-1,3.744767427E0,7.802994728E0
1.185654746E1,-2.033899166E-2,3.688536167E0,8.546564102E0
1.187665699E1,-8.793623000E-2,3.630510092E0,8.858827591E0
1.189676652E1,2.392822690E-2,3.664607763E0,8.879764557E0
1.191687606E1,2.769692242E-1,3.784249067E0,8.715856552E0
1.193698559E1,3.774677813E-1,3.921238184E0,8.615956306E0
1.195709512E1,4.175475538E-1,4.022933006E0,8.437690735E0
1.197720470E1,3.182454109E-1,4.085744858E0,8.238488197E0
1.199731423E1,2.333002090E-1,4.052245140E0,8.230711937E0
1.201742376E1,1.465603858E-1,4.114458561E0,8.320442200E0
1.203753330E1,-3.170489892E-2,4.321437836E0,8.082356453E0
1.205764283E1,-3.254238665E-1,4.506881237E0,7.790432453E0
1.207775236E1,-6.113662124E-1,4.570291042E0,8.044071198E0
1.209786189E1,-6.502495408E-1,4.472185612E0,8.790034294E0
1.211797142E1,-3.230310678E-1,4.264608383E0,9.747760773E0
1.213808095E1,-1.369891018E-1,4.282554150E0,1.073539925E1
1.215819048E1,-5.629115105E-1,4.722833633E0,1.068156052E1
1.217830007E1,-1.054038405E0,4.731806755E0,9.942177773E0
1.219840960E1,-5.862415433E-1,4.615755081E0,9.790832520E0
1.221851913E1,-1.274178028E-1,4.567898273E0,1.077188969E1
1.223862866E1,7.722834945E-1,3.348755360E0,1.289133167E1
1.225873819E1,1.372882009E0,2.191227436E0,1.516451359E1
1.227884772E1,9.056833982E-1,1.790429592E0,1.505683613E1
1.229895725E1,-2.039881349E-1,1.934597135E0,1.151186943E1
1.231906679E1,-9.373882413E-1,2.343171597E0,7.529016495E0
1.233917637E1,-1.313659668E0,2.761915445E0,5.137390137E0
1.235928590E1,-1.308874011E0,2.931805849E0,5.633901119E0
1.237939543E1,-5.611169338E-1,2.772683144E0,8.376673698E0
1.239950496E1,5.503492057E-2,2.729014158E0,1.058106136E1
1.241961449E1,6.287141442E-1,2.443071842E0,1.111346436E1
1.243972402E1,9.014959335E-1,2.161915302E0,1.061456108E1
1.245983356E1,3.379862010E-1,2.364108801E0,9.795019150E0
1.247994309E1,-4.187439680E-1,2.568695068E0,8.830712318E0
1.250005262E1,-8.518448472E-1,2.775076151E0,7.965706348E0
1.252016215E1,-8.416753411E-1,3.001796007E0,7.512865067E0
1.254027173E1,-4.929214716E-1,3.197409153E0,7.621140003E0
1.256038126E1,-1.381855011E-1,3.365504980E0,8.189435959E0
1.258049080E1,5.144568533E-2,3.488735437E0,8.615358353E0
1.260060033E1,6.400800496E-2,3.560520172E0,8.627920151E0
1.262070986E1,-1.794617064E-2,3.652643681E0,8.505886078E0
1.264081939E1,-1.770688742E-1,3.855435371E0,8.353343964E0
1.266092892E1,-2.285145670E-1,3.971487284E0,8.243872643E0
1.268103845E1,-1.531406492E-1,4.034897327E0,8.275577545E0
1.270114804E1,-1.076770201E-2,4.139583111E0,8.324031830E0
1.272125757E1,1.310070455E-1,4.240081787E0,8.401200294E0
1.274136710E1,1.908276081E-1,4.326223373E0,8.353343964E0
1.276147663E1,9.631111473E-2,4.420739651E0,8.279764175E0
1.278158616E1,2.392822644E-3,4.424329281E0,8.446663857E0
1.280169569E1,-6.520441920E-2,4.463810444E0,8.741579056E0
1.282180522E1,-1.854437590E-2,4.498506546E0,8.859425545E0
1.284191475E1,1.573280841E-1,4.427320004E0,9.136395454E0
1.286202429E1,3.966103494E-1,4.278964996E0,9.679565430E0
1.288213387E1,5.736792088E-1,4.077968121E0,1.039442158E1
1.290224340E1,4.588237405E-1,4.532006264E0,1.089811039E1
1.292235293E1,-2.656033039E-1,5.327021599E0,1.035553837E1
1.294246246E1,-1.728814393E-1,4.940580368E0,1.061276627E1
1.296257199E1,1.035493970E0,4.348356724E0,1.191745281E1
1.298268152E1,2.775076151E0,3.399602890E0,1.332981682E1
1.300279106E1,3.950550079E0,2.265404940E0,1.322991657E1
1.302290059E1,3.034099102E0,1.885544300E0,1.138684464E1
1.304301012E1,8.518448472E-1,1.919043779E0,9.428917885E0
1.306311965E1,-1.288534999E0,2.016551256E0,7.816154957E0
1.308322923E1,-2.948555708E0,2.501696110E0,6.851249218E0
1.310333876E1,-3.121437073E0,2.966501951E0,7.013363361E0
1.312344830E1,-7.465606928E-1,2.761317253E0,7.932207108E0
1.314355783E1,2.168495417E0,2.508874655E0,8.961120605E0
1.316366736E1,3.653241873E0,2.455035925E0,1.031486034E1
1.318377689E1,2.493919373E0,2.411965132E0,1.115832996E1
1.320388642E1,7.836493850E-2,2.253440619E0,1.064985561E1
1.322399595E1,-1.474576950E0,2.279761791E0,9.592227936E0
1.324410548E1,-1.864008784E0,2.711068153E0,8.581260681E0
1.326421502E1,-8.428717852E-1,3.178266764E0,7.852047443E0
1.328432460E1,2.955136001E-1,3.600599766E0,7.386643410E0
1.330443413E1,9.146564603E-1,3.912265062E0,7.292127132E0
1.332454366E1,9.475577474E-1,3.920639992E0,7.847859859E0
1.334465319E1,5.318048596E-1,3.597608805E0,8.842078209E0
1.336476272E1,-9.571290575E-3,3.391826153E0,9.417551994E0
1.338487225E1,-4.719842672E-1,3.416950703E0,9.577870369E0
1.340498179E1,-3.631108403E-1,3.505485058E0,9.385248184E0
1.342509132E1,1.345962733E-1,3.725624800E0,8.876175880E0
1.344520085E1,4.145565331E-1,3.970889091E0,8.327621460E0
1.346531043E1,3.248256743E-1,4.154538155E0,7.884350777E0
1.348541996E1,1.794617064E-2,4.226921082E0,7.667799950E0
1.350552949E1,-3.702892959E-1,4.305285931E0,7.971688747E0
1.352563902E1,-2.919243574E-1,4.323232174E0,8.730812073E0
1.354574856E1,-6.101697683E-2,4.403990269E0,9.319445610E0
1.356585809E1,9.092725813E-2,4.417748928E0,9.516854286E0
1.358596762E1,2.715853751E-1,4.389633179E0,9.717252731E0
1.360607715E1,1.818545163E-1,4.345366001E0,9.811170578E0
1.362618668E1,-1.782652885E-1,4.627718925E0,9.641280174E0
1.364629626E1,-8.709874153E-1,5.201996326E0,9.132207870E0
1.366640580E1,-9.170492887E-1,4.996811867E0,8.882756233E0
1.368651533E1,-6.759724021E-1,4.758127689E0,9.316454887E0
1.370662486E1,-1.304088384E-1,4.420141697E0,1.075992489E1
1.372673439E1,8.614161611E-1,3.148356438E0,1.323290730E1
1.374684392E1,1.588235974E0,2.087737799E0,1.507478237E1
1.376695345E1,1.197009563E0,1.805384636E0,1.370369530E1
1.378706298E1,3.409772366E-2,2.366501570E0,1.013180923E1
1.380717252E1,-8.159525394E-1,2.842075109E0,6.955935478E0
1.382728205E1,-1.003789067E0,3.183650494E0,5.459823132E0
1.384739163E1,-5.234299302E-1,3.387040377E0,6.571289062E0
1.386750116E1,3.804588020E-1,3.172284603E0,9.231510162E0
1.388761069E1,1.096511006E0,2.906083107E0,1.123131084E1
1.390772022E1,1.203589797E0,2.714657307E0,1.112662506E1
1.392782975E1,5.096712112E-1,2.711666346E0,9.970891953E0
1.394793929E1,-1.214357466E-1,2.930011272E0,8.890532494E0
1.396804882E1,-4.486542344E-1,3.141776085E0,7.925028801E0
1.398815835E1,-4.648058116E-1,3.332603693E0,7.244868755E0
1.400826788E1,2.213360928E-2,3.476771355E0,6.949355125E0
1.402837746E1,1.172483116E-1,3.628117323E0,7.335197926E0
1.404848699E1,3.122633696E-1,3.572484255E0,8.215756416E0
1.406859652E1,1.758724600E-1,3.503092289E0,8.858827591E0
1.408870606E1,1.363908947E-1,3.661018610E0,9.239884377E0
1.410881559E1,7.878368497E-1,3.811766386E0,8.833105087E0
1.412892512E1,9.284151793E-1,4.066602230E0,8.621339798E0
1.414903465E1,1.273579836E0,4.234099865E0,8.617751122E0
1.416914418E1,1.259222865E0,4.150351048E0,8.135597229E0
1.418925371E1,7.178468108E-1,4.228715897E0,8.105687141E0
1.420936324E1,3.146561682E-1,4.169493675E0,8.275577545E0
1.422947278E1,5.443671346E-2,4.194019794E0,8.824729919E0
1.424958236E1,1.268195957E-1,4.371088982E0,9.336793900E0
1.426969189E1,1.980060786E-1,4.573282242E0,9.361320496E0
1.428980142E1,2.931207716E-1,4.673182487E0,8.999405861E0
1.430991095E1,4.331009090E-1,4.752744198E0,8.788239479E0
1.433002048E1,6.071787477E-1,4.817948341E0,8.923434258E0
1.435013002E1,6.281159520E-1,4.887938499E0,9.229117393E0
1.437023955E1,1.680957973E-1,5.282155991E0,9.302098274E0
1.439034908E1,-1.328016520E-1,5.365904808E0,9.190233231E0
1.441045866E1,5.006981492E-1,4.532006264E0,9.930811882E0
1.443056819E1,1.737787485E0,3.855435371E0,1.195753288E1
1.445067772E1,2.057229280E0,3.342175007E0,1.378505135E1
1.447078725E1,1.691127419E0,2.333002090E0,1.353619766E1
1.449089679E1,1.311864972E0,1.636690736E0,1.157288647E1
1.451100632E1,8.656035662E-1,1.546959877E0,9.824331284E0
1.453111585E1,4.217349887E-1,1.876571178E0,8.670392990E0
1.455122538E1,5.982056633E-2,2.455035925E0,7.865806103E0
1.457133491E1,-2.261217386E-1,3.062214851E0,6.896713257E0
1.459144449E1,-1.818545163E-1,3.464807272E0,6.567101955E0
1.461155397E1,7.986045480E-1,3.209971666E0,7.421937466E0
1.463166356E1,2.006381750E0,2.631506681E0,8.828319550E0
1.465177309E1,2.354537487E0,2.199602127E0,1.094058323E1
1.467188262E1,1.552343726E0,1.840678811E0,1.276211929E1
1.469199215E1,-2.530409992E-1,1.802393675E0,1.276511097E1
1.471210168E1,-1.238883972E0,2.085345030E0,1.068634605E1
1.473221121E1,-1.168893814E0,2.703889608E0,8.233104706E0
1.475232074E1,-3.487538993E-1,3.419941664E0,6.456433773E0
1.477243028E1,5.653043389E-1,3.947559118E0,5.723631859E0
1.479253981E1,9.828519225E-1,4.132404804E0,6.333801746E0
1.481264939E1,7.830511928E-1,4.054637909E0,7.844270706E0
1.483275892E1,1.052841991E-1,3.868596077E0,8.949754715E0
1.485286845E1,-3.355933726E-1,3.630510092E0,9.307481766E0
1.487297798E1,-2.548356056E-1,3.533600807E0,9.376275063E0
1.489308752E1,1.214357466E-1,3.575475216E0,9.474381447E0
1.491319705E1,3.834498227E-1,3.671786308E0,9.525827408E0
1.493330658E1,3.619144261E-1,3.869194269E0,9.333204269E0
1.495341611E1,1.136590764E-1,4.093521118E0,8.705088615E0
1.497352564E1,1.136590727E-2,4.219144344E0,8.151748657E0
1.499363522E1,9.272187948E-2,4.257429600E0,7.987840176E0
1.501374475E1,7.597211748E-2,4.286143780E0,8.261219978E0
1.503385429E1,-2.452643216E-2,4.320241451E0,8.854640007E0
1.505396382E1,-1.034895778E-1,4.359723091E0,9.154939651E0
1.507407335E1,3.589233849E-3,4.300500393E0,9.229715347E0
1.509418288E1,2.165504545E-1,4.232903481E0,9.390632629E0
1.511429241E1,2.973082066E-1,4.118646145E0,9.687940598E0
1.513440194E1,1.884347796E-1,4.024129391E0,9.964311600E0
1.515451147E1,-4.313062727E-1,4.546362877E0,9.758528709E0
1.517462100E1,-1.188634634E0,4.747958183E0,9.218947411E0
1.519473059E1,-8.721838593E-1,4.230510235E0,9.597611427E0
1.521484012E1,-2.213360965E-1,4.296911240E0,1.042851925E1
1.523494965E1,4.594219327E-1,3.528217077E0,1.148375416E1
1.525505918E1,1.494317770E0,2.084148407E0,1.344646645E1
1.527516871E1,1.409372568E0,1.576271892E0,1.444128323E1
1.529527824E1,-4.486542568E-2,2.072782516E0,1.180558872E1
1.531538778E1,-1.517647743E0,2.868396044E0,7.616952896E0
1.533549731E1,-2.173281193E0,3.688536167E0,5.071587563E0
1.535560684E1,-1.316650629E0,3.828516245E0,5.730212212E0
1.537571642E1,6.586244106E-1,2.934198856E0,8.936594009E0
1.539582595E1,2.102094650E0,2.231307030E0,1.228594780E1
1.541593548E1,1.537986755E0,2.109273195E0,1.337288761E1
1.543604502E1,-1.860419661E-1,2.300698996E0,1.142752266E1
1.545615455E1,-1.403988719E0,2.523231506E0,8.683553696E0
1.547626408E1,-1.549950838E0,2.776870728E0,6.912266254E0
1.549637361E1,-8.961120844E-1,3.088535786E0,6.483951092E0
1.551648314E1,9.750752151E-2,3.242872953E0,7.199405193E0
1.553659267E1,6.436693072E-1,3.438486099E0,8.008777618E0
1.555670225E1,5.138586760E-1,3.623331785E0,8.354539871E0
1.557681179E1,4.127619043E-2,3.559323788E0,8.366504669E0
1.559692132E1,-2.847459018E-1,3.567100286E0,8.197810173E0
1.561703085E1,-2.925225794E-1,3.738785267E0,8.179265976E0
1.563714038E1,3.589233849E-3,3.791427374E0,8.355736732E0
1.565724991E1,2.225325108E-1,3.879961967E0,8.615956306E0
1.567735944E1,2.685943544E-1,3.985844374E0,8.796614647E0
1.569746897E1,1.405783296E-1,4.035495281E0,8.795417786E0
1.571757856E1,1.196411322E-3,4.068994999E0,8.777471542E0
1.573768809E1,-6.580262445E-3,4.068994999E0,8.882756233E0
1.575779762E1,-6.460621208E-2,4.235894203E0,9.111269951E0
1.577790715E1,-1.627119333E-1,4.354339123E0,9.064012527E0
1.579801668E1,5.084748194E-2,4.244269371E0,8.825327873E0
1.581812621E1,2.697907388E-1,4.204787731E0,9.129815102E0
1.583823574E1,8.913264424E-2,4.284946918E0,9.672387123E0
1.585834528E1,-3.044866920E-1,4.467998028E0,9.784252167E0
1.587845481E1,-3.565305769E-1,4.617549419E0,9.660423279E0
1.589856439E1,8.147560954E-1,3.798605919E0,1.086760235E1
1.591867392E1,2.420938253E0,2.656033039E0,1.376949787E1
1.593878345E1,2.417349100E0,1.823330879E0,1.549771404E1
1.595889298E1,1.253839016E0,1.417747378E0,1.413918877E1
1.597900252E1,3.146561682E-1,1.514656782E0,1.121815109E1
1.599911205E1,5.922235921E-2,1.616351724E0,8.200202942E0
1.601922158E1,2.386840582E-1,2.009970903E0,6.361917019E0
1.603933111E1,2.703889608E-1,3.106482029E0,5.394618511E0
1.605944064E1,1.130608693E-1,4.029513359E0,5.050650597E0
1.607955022E1,1.188036442E0,3.728017569E0,6.304489613E0
1.609965975E1,2.852244616E0,2.798406124E0,8.590232849E0
1.611976929E1,3.566502094E0,2.174477577E0,1.189352512E1
1.613987882E1,2.359323025E0,1.827518344E0,1.465663719E1
1.615998835E1,-6.999006122E-2,1.984846354E0,1.430907917E1
1.618009788E1,-1.249053478E0,2.432902336E0,1.103210926E1
1.620020741E1,-1.058824062E0,3.094517946E0,7.737192154E0
1.622031694E1,-4.725824669E-2,3.859622955E0,5.985645771E0
1.624042652E1,1.021137118E0,4.274179459E0,6.122634888E0
1.626053606E1,1.275374413E0,4.247858524E0,7.616952896E0
1.628064559E1,6.358926296E-1,3.992424488E0,8.957531929E0
1.630075512E1,-1.872383654E-1,3.724428415E0,9.641280174E0
1.632086465E1,-5.036891699E-1,3.614358664E0,9.617950439E0
1.634097418E1,-4.612165689E-1,3.732205153E0,8.812766075E0
1.636108371E1,-2.003988922E-1,3.909872293E0,8.030911446E0
1.638119324E1,-1.974078640E-2,4.091726780E0,7.914859295E0
1.640130283E1,1.130608693E-1,4.163511276E0,8.054839134E0
1.642141236E1,1.668993831E-1,4.110869408E0,8.406583786E0
1.644152189E1,1.274178028E-1,4.099503517E0,8.763114929E0
1.646163142E1,2.650051117E-1,4.036691666E0,8.851051331E0
1.648174095E1,4.534398913E-1,3.982254982E0,8.740981102E0
1.650185048E1,5.222335458E-1,4.102494240E0,8.542376518E0
1.652196002E1,4.707878530E-1,4.053441525E0,8.471190453E0
1.654206955E1,1.136590764E-1,4.106681824E0,8.824729919E0
1.656217913E1,-7.375875711E-1,4.721039295E0,8.994022369E0
1.658228866E1,-1.625324726E0,5.380859852E0,8.781061172E0
1.660239819E1,-1.360917926E0,4.971687317E0,9.331410408E0
1.662250772E1,4.468596280E-1,3.558127165E0,1.221057415E1
1.664261725E1,2.195414782E0,2.519043922E0,1.617727661E1
1.666272679E1,2.385046005E0,1.854437590E0,1.662353706E1
1.668283632E1,1.336391449E0,1.536192179E0,1.296311665E1
1.670294585E1,4.869394004E-1,1.570289850E0,9.183054924E0
1.672305543E1,3.888336942E-2,2.029113531E0,7.128817081E0
1.674316496E1,-5.467599630E-1,2.743371248E0,5.621338367E0
1.676327449E1,-1.814955950E0,3.541975737E0,5.217549801E0
1.678338402E1,-2.797807932E0,3.829712629E0,7.158727169E0
1.680349356E1,-2.228914261E0,3.400201082E0,9.745368004E0
1.682360309E1,-4.450650215E-1,2.635095835E0,1.078265667E1
1.684371262E1,1.271785259E0,2.093719721E0,1.045065308E1
1.686382220E1,1.346560955E0,2.231905222E0,9.951749802E0
1.688393173E1,-3.930211067E-1,2.587837696E0,9.524630547E0
1.690404126E1,-1.779063582E0,2.596212626E0,9.199805260E0
1.692415080E1,-2.317448616E0,2.685345173E0,8.719446182E0
1.694426033E1,-2.030908108E0,3.017947674E0,8.362915039E0
1.696436986E1,-9.146564603E-1,3.112463951E0,8.525029182E0
1.698447939E1,-1.214357466E-1,3.247060299E0,9.028717995E0
1.700458892E1,8.434699476E-2,3.448057413E0,9.296713829E0
1.702469845E1,4.307080805E-2,3.536591768E0,9.247062683E0
1.704480804E1,3.110669367E-2,3.571886063E0,9.071788788E0
1.706491757E1,6.699903309E-2,3.631108284E0,8.734400749E0
1.708502710E1,1.345962733E-1,3.682554007E0,8.344370842E0
1.710513663E1,2.291127741E-1,3.787240028E0,8.098507881E0
1.712524616E1,3.439682424E-1,3.870390654E0,8.064410210E0
1.714535569E1,4.803591371E-1,3.811766386E0,8.185248375E0
1.716546522E1,4.594219327E-1,3.875774384E0,8.353343964E0
1.718557481E1,3.768695593E-1,4.005585194E0,8.335995674E0
1.720568434E1,1.477568001E-1,4.160520554E0,8.181060791E0
1.722579387E1,4.187439568E-3,4.293322086E0,8.200202942E0
1.724590340E1,5.443671346E-2,4.337589264E0,8.604590416E0
1.726601293E1,2.093719840E-1,4.283750534E0,9.094520569E0
1.728612246E1,2.853440940E-1,4.237689018E0,9.395418167E0
1.730623199E1,1.758724600E-1,4.232305050E0,9.546764374E0
1.732634152E1,7.597211748E-2,4.362713814E0,9.696913719E0
1.734645111E1,-9.631111473E-2,4.556532383E0,9.766903877E0
1.736656064E1,4.205385745E-1,4.077369690E0,1.024786091E1
1.738667017E1,8.973084688E-1,4.526023865E0,1.125464153E1
1.740677970E1,1.295115232E0,4.532604218E0,1.199821091E1
1.742688923E1,2.507079840E0,2.850450039E0,1.272323608E1
1.744699876E1,3.116053343E0,1.379462242E0,1.316590881E1
1.746710835E1,2.190030813E0,1.043270707E0,1.269751358E1
1.748721788E1,5.300102234E-1,1.731207132E0,1.092084217E1
1.750732741E1,-7.328019142E-1,2.502294302E0,8.818747520E0
1.752743694E1,-1.016351461E0,3.120240688E0,6.961319447E0
1.754754647E1,3.529413417E-2,3.276970625E0,6.234499454E0
1.756765600E1,1.730608940E0,3.150749207E0,7.112665176E0
1.758776554E1,2.383251429E0,3.240479946E0,8.507680893E0
1.760787507E1,1.363908887E0,3.192623615E0,9.634101868E0
1.762798465E1,-4.127619043E-2,2.740380049E0,1.033340454E1
1.764809418E1,-9.996016622E-1,2.560918331E0,1.061157036E1
1.766820371E1,-1.407577872E0,2.825923443E0,1.013300610E1
1.768831324E1,-9.038887620E-1,3.200400352E0,8.957531929E0
1.770842278E1,-4.546362907E-2,3.577269793E0,7.778468132E0
1.772853231E1,7.692924738E-1,3.786043644E0,7.741977692E0
1.774864184E1,1.267597795E0,3.798007727E0,8.729017258E0
1.776875142E1,1.083350420E0,3.713062525E0,9.602995872E0
1.778886095E1,4.767699242E-1,3.658625841E0,9.460622787E0
1.780897048E1,2.703889608E-1,3.640679598E0,8.620741844E0
1.782908002E1,5.467599630E-1,3.806980848E0,7.883154392E0
1.784918955E1,6.993024349E-1,4.045066833E0,7.737192154E0
1.786929908E1,4.313062727E-1,4.060021877E0,8.062616348E0
1.788940866E1,2.410768867E-1,3.961317778E0,8.510073662E0
1.790951819E1,5.413761139E-1,3.973880291E0,8.501698494E0
1.792962772E1,8.147560954E-1,4.052843571E0,8.098507881E0
1.794973725E1,8.727820516E-1,4.176073551E0,7.811967850E0
1.796984679E1,6.311069727E-1,4.295714855E0,7.947760582E0
1.798995632E1,4.875376225E-1,4.288536549E0,8.465208054E0
1.801006585E1,5.515456200E-1,4.241876125E0,8.763712883E0
1.803017538E1,6.640082598E-1,4.285545349E0,8.844470978E0
1.805028496E1,5.868397355E-1,4.432105541E0,9.018548965E0
1.807039449E1,1.794617064E-2,4.778466702E0,9.512067795E0
1.809050402E1,-5.036891699E-1,4.688137531E0,1.024905777E1
1.811061356E1,-9.206385016E-1,5.147559643E0,1.023769188E1
1.813072309E1,-1.074377418E0,5.519643784E0,9.437891006E0
1.815083262E1,6.173482537E-1,4.127020836E0,1.044347477E1
1.817094220E1,2.280359983E0,2.871985435E0,1.361276817E1
1.819105173E1,2.098505497E0,1.910070658E0,1.535653782E1
1.821116126E1,4.450650215E-1,1.545763373E0,1.339741421E1
1.823127080E1,-8.416753411E-1,2.246262312E0,9.564111710E0
1.825138033E1,-1.374676585E0,3.110071182E0,6.106483459E0
1.827148986E1,-9.661021233E-1,3.689134359E0,4.919643402E0
1.829159939E1,2.955136001E-1,3.609572887E0,7.328019142E0
1.831170892E1,1.335195065E0,3.108874798E0,1.021496010E1
1.833181850E1,1.110867858E0,2.864806890E0,1.150947666E1
1.835192804E1,2.979064286E-1,2.642274380E0,1.098425198E1
1.837203757E1,-3.553341627E-1,2.620738983E0,9.509077072E0
1.839214710E1,-5.712863803E-1,2.799004316E0,8.394619942E0
1.841225663E1,-5.030909777E-1,3.078366280E0,7.895716667E0
1.843236616E1,-9.810572863E-2,3.321237803E0,7.670791149E0
1.845247574E1,3.900300860E-1,3.523431301E0,7.779066563E0
1.847258528E1,4.839483798E-1,3.641277790E0,8.097909927E0
1.849269481E1,8.315058798E-2,3.615555048E0,8.352147102E0
1.851280434E1,-1.986042857E-1,3.583850145E0,8.493324280E0
1.853291387E1,-1.519442350E-1,3.638286829E0,8.593822479E0
1.855302340E1,1.435693540E-2,3.815355778E0,8.680562019E0
1.857313293E1,3.649054468E-2,4.036093712E0,8.606983185E0
1.859324252E1,1.884347796E-1,4.078566074E0,8.468199730E0
1.861335205E1,4.037888348E-1,3.984647989E0,8.593822479E0
1.863346158E1,4.827519655E-1,3.955335855E0,9.112466812E0
1.865357111E1,4.552344978E-1,3.943371773E0,9.549755096E0
1.867368064E1,2.871387303E-1,3.957728624E0,9.312865257E0
1.869379017E1,2.871387303E-1,4.039682865E0,8.525029182E0
1.871389970E1,5.162515044E-1,4.090530396E0,8.246265411E0
1.873400929E1,7.734799385E-1,4.138386726E0,8.659625053E0
1.875411882E1,7.549355626E-1,4.162314892E0,9.369096756E0
1.877422835E1,6.059823632E-1,4.092324734E0,9.436694145E0
1.879433788E1,6.329016089E-1,4.060619831E0,9.016156197E0
1.881444741E1,5.132604837E-1,4.210769653E0,8.752346992E0
1.883455694E1,-6.819544733E-2,4.930410862E0,9.092725754E0
1.885466647E1,2.009970993E-1,5.075176716E0,9.453444481E0
1.887477606E1,1.417747378E0,4.746761799E0,1.023828983E1
1.889488559E1,3.376272678E0,3.611965895E0,1.233918858E1
1.891499512E1,4.679762840E0,1.823330879E0,1.511665726E1
1.893510465E1,3.412165165E0,7.692924738E-1,1.567179203E1
1.895521418E1,1.171286702E0,8.925228715E-1,1.343809223E1
1.897532371E1,-5.054838061E-1,1.451246977E0,1.044826031E1
1.899543330E1,-1.088734269E0,2.102094650E0,7.691728592E0
1.901554283E1,-1.038485050E0,2.807977438E0,5.829514027E0
1.903565236E1,-2.374876440E-1,3.269792080E0,5.676373482E0
1.905576189E1,1.079761267E0,3.218944550E0,7.058826923E0
1.907587142E1,2.069791555E0,2.901297569E0,8.551349640E0
1.909598095E1,1.848455548E0,2.549552441E0,1.029511929E1
1.911609048E1,7.902296782E-1,2.079961061E0,1.177208900E1
1.913620007E1,-4.707878530E-1,1.935793519E0,1.196710396E1
1.915630960E1,-1.034895778E0,2.216950178E0,1.065763187E1
1.917641913E1,-7.866404653E-1,2.817548752E0,8.831908226E0
1.919652866E1,-1.860419661E-1,3.349353552E0,7.548757076E0
1.921663819E1,1.645065546E-1,3.683750391E0,7.007380962E0
1.923674772E1,1.214357466E-1,3.784847260E0,7.344769001E0
1.925685731E1,-1.190429255E-1,3.628715515E0,8.352746010E0
1.927696684E1,-3.248256743E-1,3.525824070E0,9.034700394E0
1.929707637E1,-2.063809484E-1,3.458825111E0,9.179466248E0
1.931718590E1,1.633101404E-1,3.443271875E0,8.840283394E0
1.933729543E1,4.055834413E-1,3.535993576E0,8.614161491E0
1.935740496E1,4.893322289E-1,3.675973892E0,8.505886078E0
1.937751449E1,3.702892959E-1,3.754338741E0,8.381459236E0
1.939762408E1,2.608176768E-1,3.771686792E0,8.254639626E0
1.941773361E1,2.392822653E-1,3.847658873E0,8.249256134E0
1.943784314E1,2.201396823E-1,3.979264021E0,8.311469078E0
1.945795267E1,-2.153540403E-2,4.161716938E0,8.206783295E0
1.947806220E1,-1.142572835E-1,4.226323128E0,8.064410210E0
1.949817173E1,8.434699476E-2,4.191029072E0,8.252246857E0
1.951828132E1,3.882354796E-1,4.159922123E0,8.995817184E0
1.953839085E1,6.149554253E-1,4.134199142E0,9.937990189E0
1.955850038E1,5.784648657E-1,4.236492634E0,1.059781170E1
1.957860991E1,3.194418252E-1,4.310071945E0,1.071506023E1
1.959871944E1,-1.842473447E-1,4.734199524E0,9.466604233E0
1.961882897E1,-1.072582722E0,5.611767292E0,7.978867054E0
1.963893856E1,-1.022333503E0,5.363512039E0,7.906484127E0
1.965904809E1,1.322034448E-1,4.998606682E0,9.516854286E0
1.967915762E1,1.011565804E0,4.192823410E0,1.131864929E1
1.969926715E1,2.106282234E0,2.682952404E0,1.346142197E1
1.971937668E1,2.078166485E0,1.857428551E0,1.454118347E1
1.973948621E1,7.806583643E-1,1.917249203E0,1.217886925E1
1.975959580E1,-7.369893789E-1,2.343769789E0,8.804390907E0
1.977970533E1,-1.736590981E0,2.793620348E0,6.659823418E0
1.979981486E1,-1.979462504E0,3.356531858E0,6.332605362E0
1.981992439E1,-8.907282352E-1,3.297907829E0,8.159524918E0
1.984003392E1,5.353940725E-1,2.920439959E0,1.016171932E1
1.986014345E1,1.407577872E0,2.553141832E0,1.121336555E1
1.988025304E1,1.353739381E0,2.414956331E0,1.116730309E1
1.990036257E1,6.759724021E-2,2.781058073E0,9.820742607E0
1.992047210E1,-8.261220455E-1,2.947957516E0,8.465208054E0
1.994058163E1,-9.942178130E-1,3.080759048E0,7.493722439E0
1.996069116E1,-2.757728100E-1,3.249453068E0,7.564908981E0
1.998080069E1,8.404789567E-1,3.377469063E0,8.274978638E0
2.000091028E1,1.240678549E0,3.557528973E0,8.581260681E0
2.002101981E1,1.087537885E0,3.611367464E0,8.636295319E0
2.004112934E1,6.299105883E-1,3.588635683E0,8.525029182E0
2.006123887E1,1.543370634E-1,3.616153240E0,8.216354370E0
2.008134840E1,7.357929647E-2,3.719044685E0,8.059026718E0
2.010145793E1,3.014956415E-1,3.793222189E0,8.164310455E0
2.012156746E1,4.630111754E-1,3.859622955E0,8.369495392E0
2.014167705E1,4.342973232E-1,3.899702787E0,8.593224525E0
2.016178658E1,4.049852192E-1,3.912265062E0,8.754141808E0
2.018189611E1,4.749752879E-1,3.973282099E0,8.873783112E0
2.020200564E1,4.426721931E-1,4.133601189E0,8.781061172E0
2.022211517E1,3.439682424E-1,4.215555191E0,8.784051895E0
2.024222475E1,2.626122832E-1,4.252045631E0,9.139984131E0
2.026233429E1,2.500499785E-1,4.278367043E0,9.636494637E0
2.028244382E1,3.188436031E-1,4.348356724E0,9.792626381E0
2.030255335E1,9.182456732E-1,4.498506546E0,9.446265221E0
2.032266288E1,1.565504193E0,4.636094093E0,9.225527763E0
2.034277241E1,1.484746456E0,5.018945694E0,9.637691498E0
2.036288199E1,1.006181955E0,4.595416069E0,1.041356373E1
2.038299152E1,9.948160052E-1,3.827319860E0,1.134556866E1
2.040310106E1,3.876372576E-1,4.852644444E0,1.077248764E1
2.042321059E1,4.689932466E-1,4.496113777E0,1.000618649E1
2.044332012E1,2.333600283E0,2.577069998E0,1.183430290E1
2.046342970E1,3.193820000E0,1.777867198E0,1.458006668E1
2.048353923E1,1.746162295E0,1.654636860E0,1.461236954E1
2.050364876E1,-3.260220885E-1,1.940579176E0,1.095553875E1
2.052375830E1,-1.282552958E0,2.418545485E0,7.396214962E0
2.054386783E1,-1.055234790E0,3.106482029E0,5.484349728E0
2.056397736E1,4.067798331E-2,3.463012457E0,5.548955917E0
2.058408694E1,1.264008522E0,3.466601849E0,7.055835724E0
2.060419647E1,1.769492388E0,3.394218922E0,8.035696983E0
2.062430600E1,1.252044439E0,3.123231649E0,8.614161491E0
2.064441554E1,1.992024779E-1,2.918645382E0,9.259625435E0
2.066452507E1,-4.181457460E-1,2.924627542E0,9.783653259E0
2.068463460E1,-5.802595019E-1,3.116053343E0,9.515657425E0
2.070474418E1,-3.960121572E-1,3.346362352E0,8.337790489E0
2.072485371E1,-1.076770201E-2,3.601198196E0,7.512266636E0
2.074496324E1,4.055834413E-1,3.831507206E0,7.727022648E0
2.076507278E1,3.541377485E-1,3.872783422E0,8.396414757E0
2.078518231E1,-5.024927482E-2,3.689732552E0,8.708678246E0
2.080529184E1,-2.159522474E-1,3.525225878E0,8.753543854E0
2.082540142E1,-1.794616925E-3,3.591626883E0,8.808578491E0
2.084551095E1,1.968096644E-1,3.748356581E0,8.663812637E0
2.086562048E1,2.949153781E-1,3.865604877E0,8.462217331E0
2.088573002E1,2.769692242E-1,3.967299938E0,8.062017441E0
2.090583955E1,2.171486616E-1,3.988835335E0,7.780860901E0
2.092594908E1,1.076770201E-1,3.985844374E0,7.902894974E0
2.094605866E1,1.256231871E-2,4.066003799E0,7.868797302E0
2.096616819E1,9.690931439E-2,4.157529354E0,7.685148239E0
2.098627772E1,2.685943544E-1,4.239483356E0,7.816753387E0
2.100638725E1,2.267199457E-1,4.241876125E0,8.408378601E0
2.102649679E1,1.196411345E-2,4.045066833E0,9.000003815E0
2.104660637E1,-3.445664644E-1,3.953541279E0,9.337990761E0
2.106671590E1,-6.209374666E-1,4.283152580E0,9.334999084E0
2.108682543E1,-9.750752449E-1,4.845465660E0,9.387042999E0
2.110693496E1,-7.178468108E-1,4.396213531E0,1.074616623E1
2.112704449E1,2.057827413E-1,3.934996843E0,1.302233887E1
2.114715403E1,1.031904817E0,3.528815269E0,1.519621849E1
2.116726361E1,1.707877159E0,2.708076954E0,1.529910946E1
2.118737314E1,1.802991867E0,2.210369825E0,1.260359478E1
2.120748267E1,1.607378602E0,2.140379906E0,1.083948612E1
2.122759220E1,1.001994491E0,2.555534601E0,1.062054348E1
2.124770173E1,4.785645287E-3,2.780459881E0,9.868000984E0
2.126781132E1,-5.772684813E-1,2.792423964E0,8.903693199E0
2.128792085E1,-4.235295951E-1,2.988037348E0,8.933603287E0
2.130803038E1,3.457628787E-1,2.870789051E0,9.598808289E0
2.132813991E1,1.106680512E0,2.575873613E0,9.934401512E0
2.134824944E1,1.506281853E0,2.298904419E0,9.864411354E0
2.136835902E1,1.242473125E0,2.145763636E0,9.534201622E0
2.138846856E1,1.244267747E-1,2.349153519E0,8.421539307E0
2.140857809E1,-6.179464459E-1,2.593221426E0,7.347760201E0
2.142868762E1,-7.734799385E-1,2.806781054E0,6.533602238E0
2.144879715E1,-3.290131092E-1,3.029313564E0,6.245266914E0
2.146890673E1,5.641079545E-1,3.183052301E0,6.880561352E0
2.148901626E1,1.020538807E0,3.381058455E0,7.814958572E0
2.150912580E1,9.517452121E-1,3.473181963E0,8.439485550E0
2.152923533E1,6.029912829E-1,3.493520975E0,8.651848793E0
2.154934486E1,3.397808075E-1,3.569493294E0,8.691927910E0
2.156945439E1,4.354937077E-1,3.699303865E0,8.632705688E0
2.158956397E1,6.245267391E-1,3.852444410E0,8.398209572E0
2.160967350E1,7.531409264E-1,3.999603033E0,8.208578110E0
2.162978304E1,8.261220455E-1,4.096512318E0,8.339585304E0
2.164989257E1,8.476574421E-1,4.176073551E0,8.603393555E0
2.167000210E1,6.574280262E-1,4.199403763E0,8.611768723E0
2.169011168E1,5.539384484E-1,3.853640795E0,8.626125336E0
2.171022121E1,3.236292601E-1,3.617349625E0,8.805587769E0
2.173033074E1,3.780659735E-1,3.751347780E0,9.227322578E0
2.175044028E1,9.912267923E-1,3.880560160E0,9.279366493E0
2.177054981E1,1.463809252E0,4.043272018E0,9.022735596E0
2.179065939E1,1.390828133E0,3.930809498E0,9.340981483E0
2.181076892E1,1.089930773E0,3.892524242E0,1.027238750E1
2.183087845E1,2.955136001E-1,4.759324074E0,1.077368355E1
2.185098798E1,5.952146053E-1,4.610969067E0,1.080658531E1
2.187109757E1,3.242274761E0,3.725624800E0,1.223390388E1
2.189120710E1,4.313062668E0,4.210171223E0,1.350868034E1
2.191131663E1,2.946162939E0,3.674179077E0,1.305942822E1
2.193142616E1,1.617548108E0,2.204387903E0,1.247139168E1
2.195153569E1,6.963114142E-1,1.846660852E0,1.196650600E1
2.197164522E1,-3.768695518E-2,2.145165443E0,1.037827015E1
2.199175481E1,-4.432703853E-1,2.536391973E0,8.625527382E0
2.201186434E1,8.973085135E-2,2.943171740E0,7.465008259E0
2.203197387E1,1.182652593E0,3.272184849E0,6.955337048E0
2.205208340E1,2.088335991E0,3.211168051E0,7.691130161E0
2.207219293E1,2.123031855E0,2.976671457E0,8.909076691E0
2.209230252E1,1.051645517E0,2.757728100E0,9.573084831E0
2.211241205E1,6.281159073E-2,2.490928411E0,9.464211464E0
2.213252158E1,-2.901297510E-1,2.660220623E0,8.901300430E0
2.215263111E1,-2.811566554E-2,3.029911757E0,7.956135273E0
2.217273942E1,4.259224236E-1,3.288934708E0,7.310073376E0
2.219284895E1,5.383850932E-1,3.436691523E0,7.240681171E0
2.221295848E1,4.354937077E-1,3.543770313E0,7.610970497E0
2.223306801E1,3.529413342E-1,3.604189157E0,8.187641144E0
2.225317754E1,4.139583111E-1,3.558127165E0,8.483154297E0
2.227328713E1,5.676971674E-1,3.513859987E0,8.338987350E0
2.229339666E1,8.763712645E-1,3.518645763E0,8.207980156E0
2.231350619E1,1.144965649E0,3.552743435E0,8.429315567E0
2.233361572E1,1.243669510E0,3.688536167E0,8.557332039E0
2.235372525E1,1.281954765E0,3.926023722E0,8.588438988E0
2.237383484E1,1.380658627E0,4.150351048E0,8.611768723E0
2.239394437E1,1.342971683E0,4.263411522E0,8.709874153E0
2.241405390E1,1.018744230E0,4.278964996E0,8.972486496E0
2.243416343E1,7.118647099E-1,4.305285931E0,9.382855415E0
2.245427296E1,6.346961856E-1,4.342374802E0,9.513264656E0
2.247438254E1,7.938188910E-1,4.338187218E0,9.495318413E0
2.249449208E1,9.230313301E-1,4.317250252E0,9.698708534E0
2.251460161E1,7.531409264E-1,4.350749969E0,9.769894600E0
2.253471114E1,-8.913264424E-2,4.953142643E0,9.257232666E0
2.255482072E1,-8.745766878E-1,5.021338463E0,9.148359299E0
2.257493025E1,-7.453642488E-1,4.762913704E0,1.028435135E1
2.259503978E1,-2.261217386E-1,4.505086899E0,1.136112213E1
2.261514932E1,8.614161611E-1,2.989233732E0,1.381197071E1
2.263525885E1,1.574477315E0,1.905883193E0,1.664028740E1
2.265536843E1,7.854440212E-1,1.712662816E0,1.553300858E1
2.267547796E1,-1.357926875E-1,1.988435626E0,1.061575794E1
2.269558749E1,-5.210371017E-1,2.572882652E0,5.962913990E0
2.271569702E1,-5.276173949E-1,3.217748165E0,3.850649834E0
2.273580655E1,-2.656033039E-1,3.214757204E0,5.475376606E0
2.275591614E1,3.224328458E-1,2.669193745E0,9.181260109E0
2.277602567E1,5.760720372E-1,2.419143677E0,1.161894894E1
2.279613520E1,8.410771489E-1,2.239681959E0,1.163270760E1
2.281624473E1,9.565308690E-1,2.115853310E0,1.040758228E1
2.283635432E1,6.478567123E-1,2.356332064E0,9.377471924E0
2.285646385E1,1.657029688E-1,2.685943365E0,8.630910873E0
2.287657338E1,-1.214357466E-1,2.958127022E0,7.971090317E0
2.289668291E1,-8.793623000E-2,3.159722328E0,7.269993305E0
2.291679249E1,1.998006850E-1,3.415156126E0,7.078567505E0
2.293690202E1,4.456632137E-1,3.577269793E0,7.685746193E0
2.295701155E1,2.428714931E-1,3.662214994E0,8.229515076E0
2.297712108E1,-1.202393398E-1,3.620340586E0,8.423334122E0
2.299723062E1,-2.482553422E-1,3.617947817E0,8.500502586E0
2.301734020E1,-1.040877849E-1,3.890131474E0,8.447860718E0
2.303744973E1,1.226321608E-1,4.110270977E0,8.148159027E0
2.305755926E1,1.710868180E-1,4.169493675E0,8.091329575E0
2.307766879E1,2.775674164E-1,4.201198578E0,8.536993027E0
2.309777838E1,2.937189937E-1,4.173680782E0,8.949156761E0
2.311788791E1,1.627119333E-1,4.165904045E0,8.910871506E0
2.313799744E1,1.471585929E-1,4.307679176E0,8.633303642E0
2.315810697E1,2.656033039E-1,4.392025948E0,8.391629219E0
2.317821650E1,3.792623878E-1,4.367499352E0,8.370692253E0
2.319832608E1,4.839483798E-1,4.545166492E0,8.493922234E0
2.321843562E1,3.451646566E-1,4.705485821E0,8.432905197E0
2.323854515E1,2.488535494E-1,4.662415028E0,8.880363464E0
2.325865468E1,5.736792088E-1,4.448855400E0,9.745368004E0
2.327876426E1,5.413761139E-1,4.840680122E0,1.039561844E1
2.329887379E1,4.348955154E-1,5.139782906E0,1.039801121E1
2.331898332E1,1.103689432E0,4.731806755E0,1.009053326E1
2.333909286E1,1.420738459E0,5.350949764E0,1.032622623E1
2.335920244E1,1.956132531E0,5.079364300E0,1.107218838E1
2.337931197E1,2.790031195E0,3.095116138E0,1.154477119E1
2.339942150E1,2.948555708E0,1.594816327E0,1.183968639E1
2.341953103E1,1.858624935E0,1.428515077E0,1.297926807E1
2.343964056E1,1.034895778E-1,2.107478619E0,1.237986660E1
2.345975015E1,-1.008574724E0,2.571087837E0,9.861420631E0
2.347985968E1,-6.861419082E-1,2.866601467E0,7.747959614E0
2.349996921E1,8.769695163E-1,3.194418192E0,7.055835724E0
2.352007874E1,2.447857618E0,3.273979664E0,7.953144073E0
2.354018833E1,2.593819857E0,3.161516905E0,9.061619759E0
2.356029786E1,8.679963946E-1,2.770888567E0,9.208179474E0
2.358040739E1,-7.208378315E-1,2.386840582E0,9.334401131E0
2.360051692E1,-1.438086390E0,2.431705952E0,9.228518486E0
2.362062650E1,-1.406979680E0,2.755335331E0,8.142177582E0
2.364073603E1,-7.764709592E-1,3.183650494E0,6.994220734E0
2.366084557E1,-6.460621208E-2,3.470191002E0,6.550352097E0
2.368095510E1,2.793620527E-1,3.689732552E0,7.029514790E0
2.370106468E1,1.866401732E-1,3.836891174E0,7.995616913E0
2.372117421E1,-1.692921966E-1,3.838087559E0,8.635098457E0
2.374128374E1,-2.057827413E-1,3.688536167E0,8.863613129E0
2.376139327E1,2.482553422E-1,3.656233072E0,8.766105652E0
2.378150286E1,7.244270444E-1,3.818346739E0,8.592626572E0
2.380161239E1,1.018146038E0,4.000201225E0,8.867202759E0
2.382172192E1,7.537391186E-1,4.121636868E0,8.934800148E0
2.384183145E1,2.201396823E-1,4.286741734E0,8.327022552E0
2.386194103E1,-2.057827413E-1,4.795814991E0,7.801199913E0
2.388205056E1,-4.319044948E-1,5.158925533E0,8.260024071E0
2.390216010E1,4.175475538E-1,4.114458561E0,9.729815483E0
2.392226963E1,1.228116274E0,3.706482172E0,1.139581776E1
2.394237921E1,9.391828775E-1,4.308875561E0,1.166321564E1
2.396248874E1,-1.453639716E-1,4.475774765E0,9.493523598E0
2.398259827E1,-8.368897438E-1,4.552345276E0,8.379066467E0
2.400270780E1,-7.118647099E-1,4.482953072E0,9.628120422E0
2.402281739E1,7.298108935E-2,3.468396425E0,1.250309658E1
2.404292692E1,7.220342159E-1,2.234298229E0,1.548455334E1
2.406303645E1,6.921239495E-1,1.398604870E0,1.621257019E1
2.408314598E1,9.032905847E-2,1.308874011E0,1.364387512E1
2.410325556E1,-3.702892959E-1,1.535593987E0,1.032263660E1
2.412336510E1,-9.080761671E-1,1.876571178E0,7.010372162E0
2.414347463E1,-1.843669891E0,2.737987280E0,4.931607246E0
2.416358416E1,-2.609971285E0,3.421736479E0,5.101497650E0
2.418369374E1,-2.190629244E0,3.520440340E0,7.651648521E0
2.420380327E1,-1.176072359E0,3.340380430E0,9.530612946E0
2.422391280E1,5.383851007E-2,2.747558594E0,1.026042366E1
2.424402234E1,7.555337548E-1,2.261815548E0,1.065763187E1
2.426413192E1,6.161518395E-2,2.337189436E0,1.097348499E1
2.428424145E1,-1.418943882E0,2.513660192E0,1.015274620E1
2.430435098E1,-1.969891191E0,2.623729944E0,8.916254997E0
2.432446051E1,-1.380060434E0,2.950948477E0,8.195417404E0
2.434457010E1,-3.074777126E-1,3.410968781E0,7.825128078E0
2.436467963E1,3.852444589E-1,3.642474174E0,7.721040249E0
2.438478916E1,5.030909777E-1,3.705883980E0,8.001599312E0
2.440489869E1,1.884347796E-1,3.650250912E0,8.420941353E0
2.442500827E1,-1.788634956E-1,3.580859184E0,8.523832321E0
2.444511780E1,-4.965106845E-1,3.746562004E0,8.179265976E0
2.446522734E1,-6.113662124E-1,3.892524242E0,7.525427341E0
2.448533687E1,-4.378865361E-1,3.916452408E0,7.225128174E0
2.450544645E1,-1.292124242E-1,3.922434568E0,7.188039303E0
2.452555598E1,1.471585929E-1,3.954139471E0,7.442276478E0
2.454566551E1,2.081755698E-1,4.038486481E0,7.853842258E0
2.456577510E1,-1.262213886E-1,4.231706619E0,8.464012146E0
2.458588463E1,-4.630111754E-1,4.264608383E0,8.737990379E0
2.460599416E1,-4.163511395E-1,4.229313850E0,8.771489143E0
2.462610369E1,2.392822644E-3,4.143770695E0,9.126823425E0
2.464621327E1,1.788634956E-1,4.688735962E0,1.000678444E1
2.466632280E1,-6.364908218E-1,6.162714481E0,9.567103386E0
2.468643234E1,-2.685943544E-1,5.331208706E0,8.566903114E0
2.470654192E1,2.197209358E0,2.959921598E0,1.080598736E1
2.472665145E1,3.423531055E0,1.990230203E0,1.538824272E1
2.474676098E1,1.868196249E0,1.969891191E0,1.767937088E1
2.476687051E1,-1.998006850E-1,2.014756680E0,1.562632847E1
2.478698010E1,-1.280160099E-1,2.003390789E0,1.178644657E1
2.480708963E1,8.440681696E-1,2.701496840E0,8.310871124E0
2.482719916E1,1.786242127E0,3.641277790E0,6.918248653E0
2.484730869E1,2.880360365E0,4.015754700E0,6.854240417E0
2.486741827E1,3.354139090E0,4.095315933E0,7.343572617E0
2.488752780E1,2.849253654E0,3.745365620E0,8.588438988E0
2.490763734E1,1.437488198E0,3.235694408E0,9.537791252E0
2.492774692E1,-5.144568533E-2,3.000599623E0,1.001635551E1
2.494785645E1,-6.400800347E-1,2.891726255E0,1.028913784E1
2.496796598E1,-3.074777126E-1,2.838485956E0,1.047517967E1
2.498807551E1,2.650051117E-1,3.064009428E0,1.013360405E1
2.500818510E1,5.330012441E-1,3.447459221E0,8.727820396E0
2.502829463E1,4.396811724E-1,3.648456335E0,7.325626373E0
2.504840416E1,2.602194548E-1,3.662813187E0,6.612565517E0
2.506851374E1,-4.007977992E-2,3.562314749E0,6.733402729E0
2.508862327E1,-1.758724600E-1,3.503690481E0,7.418946743E0
2.510873280E1,-2.279163599E-1,3.681357622E0,8.054839134E0
2.512884234E1,-1.016949583E-2,3.773481369E0,8.206783295E0
2.514895192E1,2.123630047E-1,3.893720627E0,7.987242222E0
2.516906145E1,3.978067636E-1,4.051646709E0,7.600203037E0
2.518917098E1,4.372883439E-1,4.212564468E0,7.378866673E0
2.520928056E1,4.588237405E-1,4.289134502E0,7.603792191E0
2.522939010E1,5.467599630E-1,4.324428558E0,8.252246857E0
2.524949963E1,5.024927258E-1,4.381856441E0,8.713463783E0
2.526960921E1,2.919243574E-1,4.497310162E0,8.706285477E0
2.528971874E1,2.093719840E-1,4.486542225E0,8.401798248E0
2.530982827E1,1.417747438E-1,4.453042984E0,8.441878319E0
2.532993786E1,2.033899166E-2,4.427320004E0,8.861220360E0
2.535004739E1,-1.100698411E-1,4.390231133E0,9.231510162E0
2.537015692E1,-1.818545163E-1,4.508078098E0,9.360123634E0
2.539026645E1,-6.652047038E-1,4.750949383E0,8.915059090E0
2.541037603E1,-1.284945726E0,4.689334393E0,8.607581139E0
2.543048556E1,-1.869990945E0,4.753940582E0,9.206983566E0
2.545059510E1,-1.623530149E0,3.836292982E0,1.079282665E1
2.547070468E1,2.207378894E-1,2.316252232E0,1.387896919E1
2.549081421E1,1.603191137E0,1.604387641E0,1.664327812E1
2.551092374E1,1.093519926E0,1.709073544E0,1.527398491E1
2.553103333E1,-3.930211067E-1,2.392224550E0,1.073240757E1
2.555114286E1,-1.373480201E0,3.132204771E0,6.669394970E0
2.557125239E1,-1.596012712E0,3.768097401E0,4.672584534E0
2.559136197E1,-6.263213158E-1,3.899104595E0,5.989234924E0
2.561147150E1,8.500502706E-1,3.453441381E0,8.910871506E0
2.563158103E1,1.655833244E0,2.940778971E0,1.129172993E1
2.565169062E1,1.176072359E0,2.610569477E0,1.218963718E1
2.567180015E1,-3.373879790E-1,2.763111830E0,1.120678520E1
2.569190968E1,-1.226919770E0,2.879163742E0,9.384052277E0
2.571201926E1,-1.292124271E0,2.949752092E0,8.207980156E0
2.573212879E1,-5.928218365E-1,3.102892876E0,7.740182877E0
2.575223832E1,2.650051117E-1,3.379862070E0,8.092526436E0
2.577234791E1,7.136593461E-1,3.605385542E0,8.486743927E0
2.579245744E1,5.802595019E-1,3.731008768E0,8.436494827E0
2.581256697E1,1.357926875E-1,3.749552965E0,8.431110382E0
2.583267655E1,-9.810572863E-2,3.647858143E0,8.562715530E0
2.585278608E1,-4.905286431E-2,3.637688637E0,8.786444664E0
2.587289562E1,1.196411327E-1,3.771088600E0,8.704490662E0
2.589300520E1,1.573280841E-1,3.899104595E0,8.356334686E0
2.591311473E1,1.764706671E-1,3.949353695E0,8.175676346E0
2.593322426E1,3.230310678E-1,3.891327858E0,8.276175499E0
2.595333385E1,5.246263742E-1,3.754338741E0,8.581858635E0
2.597344338E1,6.000002623E-1,3.863810301E0,8.874979019E0
2.599355291E1,5.192425251E-1,4.147958279E0,8.925228119E0
2.601366249E1,2.362912297E-1,4.320241451E0,8.342576027E0
2.603377202E1,8.853443712E-2,4.381856441E0,8.027321815E0
2.605388155E1,4.085744619E-1,4.369294167E0,8.549555779E0
2.607399114E1,6.275177598E-1,4.454239368E0,9.460023880E0
2.609410067E1,5.515456200E-1,4.452444553E0,9.893723488E0
2.611421025E1,6.574280262E-1,4.310669899E0,1.031127071E1
2.613431978E1,6.275177598E-1,4.796412945E0,1.071864891E1
2.615442932E1,-9.810572863E-2,5.739185333E0,1.064746284E1
2.617453890E1,4.055834413E-1,5.223531723E0,1.101476097E1
2.619464843E1,1.855035782E0,4.243072987E0,1.231944752E1
2.621475796E1,3.000001431E0,2.984447956E0,1.389332676E1
2.623486754E1,3.314657450E0,1.734796405E0,1.376411438E1
2.625497708E1,1.929811478E0,2.132004976E0,1.106979561E1
2.627508661E1,5.341976285E-1,2.507678032E0,8.182855606E0
2.629519619E1,-5.850451589E-1,2.840280533E0,6.510870457E0
2.631530572E1,-1.071984529E0,3.333800077E0,6.183053493E0
2.633541525E1,-1.519442350E-1,3.389433384E0,6.771090031E0
2.635552484E1,1.398604870E0,3.277568817E0,7.383652687E0
2.637563437E1,2.258226395E0,3.423531055E0,7.905886173E0
2.639574395E1,1.645065546E0,3.407379389E0,8.650651932E0
2.641585348E1,3.906283081E-1,3.072384357E0,9.601201057E0
2.643596301E1,-4.755735099E-1,2.822932482E0,1.000498962E1
2.645607260E1,-7.124629617E-1,2.935993433E0,9.883553505E0
2.647618213E1,-1.369891018E-1,3.273979664E0,9.208778381E0
2.649629166E1,4.360919297E-1,3.759722471E0,8.331210136E0
2.651640124E1,7.573283911E-1,4.086342812E0,7.841279984E0
2.653651077E1,6.209374666E-1,4.210171223E0,7.963313580E0
2.655662036E1,3.960121572E-1,4.039084435E0,8.493922234E0
2.657672989E1,1.860419661E-1,3.865604877E0,8.893523216E0
2.659683942E1,1.728814393E-1,3.787240028E0,8.985647202E0
2.661694900E1,3.810569942E-1,3.764508247E0,8.851649284E0
2.663705853E1,6.221339107E-1,3.792025566E0,8.695517540E0
2.665716812E1,7.136593461E-1,3.865006685E0,8.469993591E0
2.667727765E1,6.418746710E-1,3.929612875E0,8.266005516E0
2.669738718E1,4.402793646E-1,3.991826296E0,8.085946083E0
2.671749676E1,2.386840582E-1,4.122235298E0,8.047660828E0
2.673760629E1,1.531406492E-1,4.162913322E0,8.126026154E0
2.675771588E1,-4.067798331E-2,4.329812527E0,8.224131584E0
2.677782541E1,-1.842473447E-1,4.537389755E0,8.527421951E0
2.679793494E1,-1.956132501E-1,4.587040901E0,8.650053978E0
2.681804452E1,2.093719877E-2,4.457230568E0,9.025128365E0
2.683815405E1,4.426721856E-2,4.647459984E0,9.780064583E0
2.685826364E1,-7.250252366E-1,5.327619553E0,9.823733330E0
2.687837317E1,-1.340578914E0,5.108676434E0,9.506086349E0
2.689848275E1,-6.352944374E-1,4.433900356E0,1.027597713E1
2.691859228E1,1.495514158E-2,4.272384644E0,1.166740322E1
2.693870182E1,6.777670383E-1,3.362514019E0,1.330529022E1
2.695881140E1,1.281356573E0,2.453241348E0,1.409073448E1
2.697892093E1,9.128618240E-1,2.233700037E0,1.215613747E1
2.699903051E1,1.214357466E-1,2.364108801E0,9.588638306E0
2.701914004E1,-3.020938635E-1,2.514258385E0,7.557132244E0
2.703924958E1,-1.022333503E0,3.093321562E0,6.205187321E0
2.705935916E1,-1.853839397E0,3.654438496E0,6.070590973E0
2.707946869E1,-2.193620205E0,3.870390654E0,7.730611801E0
2.709957827E1,-1.157527924E0,3.565903902E0,9.412167549E0
2.711968780E1,4.983053207E-1,2.840280533E0,1.037049294E1
2.713979739E1,1.821536183E0,2.304886341E0,1.196471119E1
2.715990692E1,1.591825247E0,2.253440619E0,1.333520031E1
2.718001645E1,-1.728814393E-1,2.481955290E0,1.174995518E1
2.720012603E1,-1.110867858E0,2.696112871E0,9.182456970E0
2.722023557E1,-1.043868899E0,2.931805849E0,7.322037220E0
2.724034515E1,-3.547359705E-1,3.220739365E0,6.749554634E0
2.726045468E1,2.781656384E-1,3.440280676E0,7.432106972E0
2.728056426E1,2.967100143E-1,3.625724554E0,8.243872643E0
2.730067379E1,3.828516230E-2,3.771686792E0,8.482556343E0
2.732078338E1,1.256231871E-2,3.836292982E0,8.447261810E0
2.734089291E1,2.219343036E-1,3.858426571E0,8.309675217E0
2.736100244E1,2.685943544E-1,3.963112593E0,8.363512993E0
2.738111202E1,2.087737769E-1,3.981656790E0,8.573483467E0
2.740122155E1,1.585244983E-1,3.975076675E0,8.861818314E0
2.742133114E1,1.627119333E-1,4.011567116E0,9.010771751E0
2.744144067E1,1.322034448E-1,4.089931965E0,8.943174362E0
2.746155025E1,2.620140910E-1,4.014558315E0,8.830113411E0
2.748165978E1,3.876372576E-1,4.069592953E0,8.779266357E0
2.750176937E1,2.620140910E-1,4.195814610E0,8.873783112E0
2.752187890E1,1.668993831E-1,4.200600147E0,9.073583603E0
2.754198848E1,2.195414752E-1,4.269991875E0,9.343972206E0
2.756209801E1,4.444667995E-1,4.327419758E0,9.415757179E0
2.758220754E1,5.898307562E-1,4.359124660E0,9.224330902E0
2.760231713E1,4.648058116E-1,4.368695736E0,9.199206352E0
2.762242666E1,-6.879365444E-2,4.597808838E0,9.117252350E0
2.764253624E1,-1.035493970E0,5.376074314E0,8.388637543E0
2.766264577E1,-1.131206870E0,4.998606682E0,8.250452042E0
2.768275536E1,9.822536707E-1,3.419343472E0,1.007976532E1
2.770286489E1,2.128415823E0,3.202793121E0,1.277408409E1
2.772297447E1,1.583450437E0,3.166302681E0,1.393699551E1
2.774308400E1,6.053841114E-1,2.560918331E0,1.217288685E1
2.776319359E1,8.243274093E-1,1.902892232E0,1.059960651E1
2.778330312E1,1.090528965E0,1.857428551E0,1.024606609E1
2.780341270E1,7.070791125E-1,2.208575249E0,9.664610863E0
2.782352223E1,4.121637046E-1,2.686541557E0,8.438288689E0
2.784363182E1,3.744767308E-1,3.491726398E0,7.327421188E0
2.786374135E1,1.125823021E0,3.844667673E0,7.499105930E0
2.788385088E1,2.344367981E0,3.169293642E0,8.856434822E0
2.790396046E1,2.859423161E0,2.677568436E0,1.045424175E1
2.792407004E1,1.834098577E0,2.609971285E0,1.142393398E1
2.794417958E1,3.230310604E-2,2.601596355E0,1.002831936E1
2.796428911E1,-9.625129104E-1,2.673381090E0,8.510671616E0
2.798439869E1,-9.026923180E-1,2.819941521E0,7.685746193E0
2.800450822E1,-3.696911037E-1,3.043670416E0,7.803592682E0
2.802461780E1,7.477571070E-2,3.188436270E0,8.220541954E0
2.804472734E1,2.578266263E-1,3.388236761E0,8.521439552E0
2.806483692E1,3.726821244E-1,3.416352510E0,8.904291153E0
2.808494645E1,2.937189937E-1,3.343969584E0,9.320044518E0
2.810505603E1,5.324030295E-2,3.340380430E0,9.485149384E0
2.812516562E1,-2.937189937E-1,3.384647608E0,9.314062119E0
2.814527515E1,-3.511467278E-1,3.501895905E0,9.243474007E0
2.816538468E1,-1.734796353E-2,3.672384501E0,9.354740143E0
2.818549426E1,2.895315289E-1,3.777070522E0,9.443274498E0
2.820560385E1,4.396811724E-1,3.813561201E0,9.228518486E0
2.822571338E1,4.366901219E-1,3.873381615E0,9.090931892E0
2.824582296E1,4.941178858E-1,3.876971006E0,9.179466248E0
2.826593249E1,4.923232496E-1,3.851846218E0,9.311071396E0
2.828604208E1,4.462614357E-1,3.768097401E0,9.443274498E0
2.830615161E1,5.754738450E-1,3.710669756E0,9.496515274E0
2.832626119E1,5.802595019E-1,3.780659676E0,9.354740143E0
2.834637072E1,3.409772217E-1,3.778865099E0,9.048459053E0
2.836648030E1,7.357929647E-2,3.764508247E0,8.819346428E0
2.838658984E1,-5.802594870E-2,3.736392498E0,8.999405861E0
2.840669942E1,-9.990034252E-2,3.637688637E0,9.552147865E0
2.842680895E1,8.015955985E-2,3.515056372E0,9.842875481E0
2.844691853E1,3.469592929E-1,3.511467218E0,9.443872452E0
2.846702806E1,4.468596280E-1,3.571886063E0,8.985647202E0
2.848713765E1,3.541377485E-1,3.573082447E0,8.961120605E0
2.850724718E1,2.805584669E-1,3.488137245E0,9.095717430E0
2.852735676E1,3.332005441E-1,3.433102369E0,9.095717430E0
2.854746635E1,3.529413342E-1,3.493520975E0,8.849854469E0
2.856757588E1,3.954139352E-1,3.608376503E0,8.565108299E0
2.858768546E1,5.958128572E-1,3.722633839E0,8.346165657E0
2.860779499E1,6.496513486E-1,3.836891174E0,8.386244774E0
2.862790458E1,4.486542344E-1,3.887738705E0,8.890532494E0
2.864801411E1,3.601198196E-1,3.764508247E0,9.464810371E0
2.866812369E1,2.321037948E-1,3.748954773E0,9.614361763E0
2.868823322E1,9.511470050E-2,3.770490170E0,9.602396965E0
2.870834280E1,-1.375873014E-2,3.774677753E0,9.476774216E0
2.872845234E1,-5.682953820E-2,3.800998688E0,9.249456406E0
2.874856192E1,-5.982056633E-2,3.803391695E0,9.087342262E0
2.876867145E1,-1.914258115E-2,3.835096598E0,9.166305542E0
2.878878103E1,-8.973085321E-3,3.832105398E0,9.399007797E0
2.880889062E1,-1.136590727E-2,3.821935892E0,9.416953087E0
2.882900015E1,2.691925503E-2,3.827918053E0,9.352347374E0
2.884910973E1,1.722832322E-1,3.826123476E0,9.407979965E0
2.886921926E1,1.351944804E-1,3.906881094E0,9.323633194E0
2.888932885E1,9.870393574E-2,3.934398651E0,9.077771187E0
2.890943838E1,1.674975902E-1,3.863212109E0,9.042476654E0
2.892954796E1,2.225325108E-1,3.833301783E0,9.227920532E0
2.894965754E1,2.177468538E-1,3.860221148E0,9.273384094E0
2.896976708E1,2.261217386E-1,3.838087559E0,9.157332420E0
2.898987666E1,2.374876440E-1,3.777070522E0,9.282357216E0
2.900998619E1,2.799602449E-1,3.735794306E0,9.656235695E0
2.903009577E1,3.164508045E-1,3.762713671E0,9.717850685E0
2.905020530E1,3.176472187E-1,3.887738705E0,9.173483849E0
2.907031489E1,3.373879790E-1,3.956532240E0,8.656634331E0
2.909042447E1,3.840480447E-1,3.970290899E0,8.672187805E0
2.911053400E1,3.445664644E-1,3.986442566E0,8.934201241E0
2.913064358E1,2.099701911E-1,3.975674868E0,9.049654961E0
2.915075312E1,1.621137410E-1,3.972085476E0,9.061020851E0
2.917086270E1,1.489532143E-1,3.961317778E0,8.956933022E0
2.919097228E1,1.986042857E-1,3.939184189E0,8.985049248E0
2.921108182E1,2.440679073E-1,3.948755503E0,9.104690552E0
2.923119140E1,3.583251834E-1,3.965505362E0,9.154341698E0
2.925130093E1,4.612165689E-1,3.987040758E0,9.186046600E0
2.927141051E1,4.923232496E-1,3.979862213E0,9.186644554E0
2.929152004E1,3.224328458E-1,3.972683907E0,9.038289070E0
2.931162963E1,2.356930375E-1,3.919443607E0,8.861818314E0
2.933173921E1,2.518445849E-1,3.885943890E0,9.022735596E0
2.935184874E1,3.475574851E-1,3.887140274E0,9.444471359E0
2.937195832E1,2.177468538E-1,3.925425529E0,9.539586067E0
2.939206786E1,3.948157281E-2,3.926621914E0,9.192028046E0
2.941217744E1,6.520441920E-2,3.955335855E0,8.860622406E0
2.943228702E1,2.063809484E-1,3.985844374E0,8.734400749E0
2.945239655E1,2.919243574E-1,3.930211306E0,8.923434258E0
2.947250614E1,2.901297510E-1,3.969094515E0,9.235696793E0
2.949261567E1,2.512463629E-1,4.003790379E0,9.294919968E0
2.951272525E1,2.446661144E-1,3.954737663E0,9.101100922E0
2.953283484E1,2.626122832E-1,3.916452408E0,9.057432175E0
2.955294437E1,3.332005441E-1,3.936193228E0,9.150154114E0
2.957305395E1,3.062812984E-1,3.973282099E0,9.151947975E0
2.959316353E1,2.063809484E-1,3.957130432E0,9.013762474E0
2.961327306E1,1.447657645E-1,3.922434568E0,8.929415703E0
2.963338265E1,2.105683982E-1,3.879961967E0,8.946763992E0
2.965349218E1,2.356930375E-1,3.928416491E0,9.008976936E0
2.967360176E1,2.219343036E-1,3.911666870E0,9.122037888E0
2.969371129E1,2.536391914E-1,3.901497364E0,9.129216194E0
2.971382088E1,1.896311939E-1,3.959523201E0,9.037691116E0
2.973393046E1,1.489532143E-1,3.981058598E0,9.008378983E0
2.975403999E1,1.627119333E-1,3.983451605E0,9.031110764E0
2.977414958E1,2.225325108E-1,3.917050600E0,8.968897820E0
2.979425916E1,2.207378894E-1,3.908675671E0,9.103493690E0
2.981436869E1,2.356930375E-1,3.934398651E0,9.160921097E0
2.983447827E1,1.070788130E-1,4.006183147E0,9.247062683E0
2.985458780E1,6.460621208E-2,3.923032761E0,9.320044518E0
2.987469739E1,1.639083475E-1,3.908675671E0,9.289535522E0
2.989480697E1,2.697907388E-1,3.908077478E0,9.255437851E0
2.991491650E1,3.020938635E-1,3.900899172E0,9.246464729E0
2.993502608E1,2.225325108E-1,3.876372576E0,9.287142754E0
2.995513567E1,1.316052526E-1,3.868596077E0,9.315856934E0
2.997524520E1,1.124626622E-1,3.863810301E0,9.196813583E0
2.999535478E1,1.668993831E-1,3.860819340E0,9.011369705E0
3.001546437E1,2.506481707E-1,3.859622955E0,8.918049812E0
3.003557390E1,3.086741269E-1,3.865604877E0,8.975478172E0
3.005568348E1,2.745763958E-1,3.832703590E0,9.087342262E0
3.007579301E1,1.489532143E-1,3.873979807E0,9.091529846E0
3.009590260E1,3.768695518E-2,3.926621914E0,9.038289070E0
3.011601218E1,6.999006122E-2,3.900300980E0,8.876175880E0
3.013612171E1,1.022931710E-1,3.908675671E0,8.914461136E0
3.015623129E1,1.573280841E-1,3.893720627E0,9.093324661E0
3.017634088E1,5.383851007E-2,3.898506403E0,9.161520004E0
3.019645041E1,-5.383851007E-3,3.884149313E0,9.128020287E0
3.021655999E1,3.708875179E-2,3.866203070E0,9.104690552E0
3.023666958E1,1.579262912E-1,3.881158352E0,9.122037888E0
3.025677911E1,2.003988922E-1,3.923032761E0,9.114261627E0
3.027688869E1,1.489532143E-1,3.887738705E0,9.111868858E0
3.029699827E1,3.948157281E-2,3.851248026E0,9.202198029E0
3.031710780E1,-5.503492057E-2,3.881158352E0,9.271589279E0
3.033721739E1,1.734796353E-2,3.857828379E0,9.286544800E0
3.035732697E1,1.166501045E-1,3.885345697E0,9.242876053E0
3.037743650E1,2.039881349E-1,3.889533281E0,9.223732948E0
3.039754609E1,2.057827413E-1,3.865604877E0,9.263215065E0
3.041765562E1,1.686939895E-1,3.866801500E0,9.278169632E0
3.043776520E1,1.160518974E-1,3.882952929E0,9.256634712E0
3.045787478E1,1.316052526E-1,3.909274101E0,9.205786705E0
3.047798432E1,1.848455518E-1,3.927818298E0,8.998807907E0
3.049809390E1,2.494517565E-1,3.954737663E0,8.882157326E0
3.051820348E1,2.554338276E-1,3.915256023E0,8.923434258E0
3.053831301E1,1.824527234E-1,3.873979807E0,9.232706070E0
3.055842260E1,9.332008660E-2,3.846462488E0,9.425926208E0
3.057853218E1,1.974078640E-2,3.812962770E0,9.331410408E0
3.059864171E1,5.443671346E-2,3.809373617E0,9.200403214E0
3.061875129E1,1.238285750E-1,3.820141315E0,9.131608963E0
3.063886088E1,1.567298770E-1,3.848855257E0,9.081359863E0
3.065897041E1,1.938186288E-1,3.845266104E0,8.942576408E0
3.067907999E1,1.286142170E-1,3.837489367E0,9.029914856E0
3.069918958E1,-4.785645381E-2,3.897907972E0,9.017352104E0
3.071929911E1,-9.990034252E-2,3.876971006E0,8.785846710E0
3.073940869E1,-3.409772366E-2,3.817150354E0,8.922835350E0
3.075951827E1,3.349951655E-2,3.796811342E0,9.217152596E0
3.077962780E1,6.340979785E-2,3.800400496E0,9.418747902E0
3.079973739E1,-1.555334684E-2,3.798007727E0,9.391828537E0
3.081984697E1,2.632104978E-2,3.786043644E0,9.230911255E0
3.083995650E1,1.292124242E-1,3.798605919E0,9.189037323E0
3.086006609E1,1.555334777E-1,3.832703590E0,9.066405296E0
3.088017567E1,1.453639716E-1,3.836292982E0,9.044869423E0
3.090028520E1,1.453639716E-1,3.832105398E0,9.143573761E0
3.092039478E1,8.195417374E-2,3.860221148E0,9.128618240E0
3.094050437E1,3.290131316E-2,3.816552162E0,9.089735031E0
3.096061390E1,5.443671346E-2,3.796811342E0,9.119645119E0
3.098072348E1,1.166501045E-1,3.803391695E0,9.198608398E0
3.100083307E1,1.429711580E-1,3.807579041E0,9.326624870E0
3.102094260E1,8.195417374E-2,3.855435371E0,9.285347939E0
3.104105218E1,6.819544733E-2,3.867997885E0,9.157332420E0
3.106116176E1,9.332008660E-2,3.853042603E0,9.028120041E0
3.108127129E1,1.190429255E-1,3.879363775E0,9.102895737E0
3.110138088E1,1.716850251E-1,3.899104595E0,9.222537041E0
3.112149046E1,1.992024779E-1,3.894917011E0,9.160323143E0
3.114159999E1,1.950150430E-1,3.905684710E0,9.013164520E0
3.116170958E1,2.291127741E-1,3.901497364E0,8.888737679E0
3.118181916E1,2.494517565E-1,3.865604877E0,8.873783112E0
3.120192869E1,1.585244983E-1,3.789034605E0,8.961718559E0
3.122203827E1,9.332008660E-2,3.710669756E0,9.312267303E0
3.124214786E1,4.067798331E-2,3.717848301E0,9.668199539E0
3.126225744E1,-5.802594870E-2,3.738785267E0,9.567701340E0
3.128236697E1,-8.434699476E-2,3.760320902E0,9.207581520E0
3.130247655E1,1.854437590E-2,3.789034605E0,9.023932457E0
3.132258614E1,7.597211748E-2,3.788436413E0,9.120243073E0
3.134269567E1,1.555334684E-2,3.841078520E0,9.250054359E0
3.136280525E1,-5.982056609E-4,3.800998688E0,9.290732384E0
3.138291484E1,1.136590727E-2,3.765106440E0,9.349954605E0
3.140302437E1,-7.776673418E-3,3.766302824E0,9.401400566E0
3.142313395E1,4.546362907E-2,3.794418573E0,9.426525116E0
3.144324353E1,1.621137410E-1,3.816552162E0,9.340383530E0
3.146335307E1,2.458625287E-1,3.830310822E0,9.127422333E0
3.148346265E1,2.279163599E-1,3.824328899E0,8.961718559E0
3.150357223E1,1.645065546E-1,3.841078520E0,8.816354752E0
3.152368182E1,1.208375469E-1,3.850649834E0,8.790034294E0
3.154379135E1,6.819544733E-2,3.793820381E0,8.979066849E0
3.156390093E1,-2.093719877E-2,3.762713671E0,9.107681274E0
3.158401051E1,-2.333002165E-2,3.736392498E0,9.228518486E0
3.160412004E1,7.716853172E-2,3.725624800E0,9.348159790E0
3.162422963E1,1.573280841E-1,3.738187075E0,9.421739578E0
3.164433921E1,8.913264424E-2,3.766901016E0,9.409176826E0
3.166444874E1,2.153540403E-2,3.761517286E0,9.366106033E0
3.168455832E1,-1.256231871E-2,3.783650875E0,9.322437286E0
3.170466791E1,2.691925503E-2,3.797409534E0,9.167501450E0
3.172477749E1,9.990034252E-2,3.790829182E0,9.007781029E0
3.174488702E1,1.280160099E-1,3.792623997E0,8.990432739E0
3.176499661E1,9.212367237E-2,3.798605919E0,9.084351540E0
3.178510619E1,4.785645381E-2,3.763910055E0,9.091529846E0
3.180521572E1,3.110669367E-2,3.765704632E0,9.043074608E0
3.182532530E1,7.477571070E-2,3.777070522E0,9.115457535E0
3.184543489E1,8.733802289E-2,3.768097401E0,9.166903496E0
3.186554442E1,7.836493850E-2,3.753142357E0,9.236893654E0
3.188565400E1,5.802594870E-2,3.762713671E0,9.373284340E0
3.190576359E1,9.032905847E-2,3.768695593E0,9.404391289E0
3.192587312E1,1.704886109E-1,3.799204111E0,9.276374817E0
3.194598270E1,2.183450609E-1,3.792623997E0,9.172286987E0
3.196609228E1,1.591227055E-1,3.853042603E0,9.020941734E0
3.198620187E1,4.606183618E-2,3.873381615E0,8.861818314E0
3.200631140E1,1.010967568E-1,3.808775425E0,8.976076126E0
3.202642098E1,1.525424421E-1,3.778266907E0,9.302696228E0
3.204653057E1,1.286142170E-1,3.758526087E0,9.400203705E0
3.206664010E1,8.554340899E-2,3.733401537E0,9.332008362E0
3.208674968E1,1.094716340E-1,3.727419376E0,9.199805260E0
3.210685926E1,1.710868180E-1,3.751945972E0,9.086145401E0
3.212696879E1,1.728814393E-1,3.786043644E0,8.971888542E0
3.214707838E1,1.812563092E-1,3.841676712E0,8.965308189E0
3.216718796E1,3.314059377E-1,3.874577999E0,9.041280746E0
3.218729754E1,2.835494876E-1,3.842873096E0,8.980263710E0
3.220740708E1,1.501496136E-1,3.754338741E0,9.047262192E0
3.222751666E1,8.673982322E-2,3.720839262E0,9.316454887E0
3.224762624E1,1.136590764E-1,3.724428415E0,9.519247055E0
3.226773577E1,1.525424421E-1,3.737588882E0,9.440881729E0
3.228784536E1,1.453639716E-1,3.767499208E0,9.318847656E0
3.230795494E1,1.304088384E-1,3.760919094E0,9.267401695E0
3.232806452E1,1.142572835E-1,3.743571043E0,9.303294182E0
3.234817405E1,9.571290761E-2,3.786043644E0,9.239884377E0
3.236828364E1,1.232303679E-1,3.808775425E0,9.041878700E0
3.238839322E1,1.728814393E-1,3.795614958E0,8.938388824E0
3.240850275E1,2.440679073E-1,3.786043644E0,8.942576408E0
3.242861234E1,1.878365725E-1,3.776472330E0,9.024530411E0
3.244872192E1,-1.196411322E-3,3.733999729E0,9.131011009E0
3.246883150E1,-6.939185411E-2,3.702893019E0,9.239884377E0
3.248894103E1,-3.050848842E-2,3.699902058E0,9.332606316E0
3.250905062E1,-2.333002165E-2,3.691527128E0,9.310472488E0
3.252916020E1,-4.785645287E-3,3.722633839E0,9.166903496E0
3.254926973E1,7.537391037E-2,3.706482172E0,9.048459053E0
3.256937932E1,3.050848842E-2,3.714258909E0,9.047860146E0
3.258948890E1,-6.400800496E-2,3.756731510E0,9.077771187E0
3.260959843E1,-5.742774159E-2,3.733999729E0,9.187242508E0
3.262970801E1,1.674975827E-2,3.667598963E0,9.327222824E0
3.264981760E1,6.281159073E-2,3.665206194E0,9.373284340E0
3.266992718E1,1.124626622E-1,3.704089403E0,9.397810936E0
3.269003671E1,1.740778536E-1,3.742972851E0,9.346364975E0
3.271014629E1,2.578266263E-1,3.740580082E0,9.306883812E0
3.273025588E1,1.974078715E-1,3.767499208E0,9.327820778E0
3.275036541E1,1.256231815E-1,3.761517286E0,9.331410408E0
3.277047499E1,1.878365725E-1,3.750151396E0,9.201599121E0
3.279058458E1,3.320041299E-1,3.721437454E0,9.095717430E0
3.281069416E1,4.348955154E-1,3.729812384E0,9.165707588E0
3.283080369E1,3.708875179E-1,3.726821184E0,9.183054924E0
3.285091327E1,2.632105052E-1,3.675375462E0,9.262018204E0
3.287102286E1,1.932204217E-1,3.652045488E0,9.368498802E0
3.289113239E1,2.428714931E-1,3.657429457E0,9.361918449E0
3.291124197E1,2.955136001E-1,3.673580885E0,9.181859016E0
3.293135155E1,2.554338276E-1,3.666402578E0,8.995817184E0
3.295146109E1,1.992024779E-1,3.652643681E0,9.037691116E0
3.297157067E1,1.351944804E-1,3.624528170E0,9.136395454E0
3.299168025E1,3.230310604E-2,3.610171080E0,9.164510727E0
3.301178984E1,-2.931207791E-2,3.604787350E0,9.062217712E0
3.303189937E1,-7.178467698E-3,3.597608805E0,9.022735596E0
3.305200895E1,4.785645381E-2,3.560520172E0,9.175876617E0
3.307211853E1,6.460621208E-2,3.543770313E0,9.418747902E0
3.309222806E1,7.298108935E-2,3.564707518E0,9.477970123E0
3.311233765E1,9.690931439E-2,3.591028690E0,9.266205788E0
3.313244723E1,8.434699476E-2,3.607180119E0,9.078369141E0
3.315255682E1,7.118647546E-2,3.587439299E0,9.120841980E0
3.317266635E1,5.682953820E-2,3.562314749E0,9.248857498E0
3.319277593E1,7.776673883E-2,3.528815269E0,9.302696228E0
3.321288551E1,6.221338734E-2,3.595216036E0,9.120243073E0
3.323299504E1,1.579262912E-1,3.655634880E0,8.896514893E0
3.325310463E1,2.697907388E-1,3.657429457E0,8.950951576E0
3.327321421E1,2.291127741E-1,3.688536167E0,9.177073479E0
3.329332374E1,1.956132501E-1,3.712464333E0,9.381659508E0
3.331343333E1,2.309073806E-1,3.690330744E0,9.362516403E0
3.333354291E1,3.236292601E-1,3.676572084E0,9.329017639E0
3.335365249E1,3.924229145E-1,3.673580885E0,9.349356651E0
3.337376202E1,3.619144261E-1,3.706482172E0,9.329017639E0
3.339387161E1,3.361915946E-1,3.711267948E0,9.165108681E0
3.341398119E1,3.738785386E-1,3.681955814E0,9.005388260E0
3.343409072E1,4.875376225E-1,3.684946775E0,9.143573761E0
3.345420030E1,4.319044948E-1,3.683750391E0,9.366703987E0
3.347430989E1,3.858426511E-1,3.660420418E0,9.335597992E0
3.349441947E1,5.312066078E-1,3.682554007E0,9.116654396E0
3.351452900E1,7.573283911E-1,3.686741590E0,9.072985649E0
3.353463858E1,7.800601721E-1,3.732803345E0,9.264410973E0
3.355474817E1,5.473581553E-1,3.728017569E0,9.484550476E0
3.357485770E1,2.506481707E-1,3.595814228E0,9.477970123E0
3.359496728E1,-2.273181453E-2,3.547359467E0,9.346364975E0
3.361507687E1,1.968096644E-1,3.577867985E0,9.458230019E0
3.363518640E1,3.661018610E-1,3.548556089E0,9.291330338E0
3.365529598E1,3.188436031E-1,3.537189960E0,9.146564484E0
3.367540557E1,4.456632137E-1,3.585046530E0,9.272786140E0
3.369551515E1,4.031906128E-1,3.635295868E0,9.447462082E0
3.371562468E1,3.355933726E-1,3.631706476E0,9.468399048E0
3.373573426E1,3.421736360E-1,3.652643681E0,9.404391289E0
3.375584385E1,3.678964674E-1,3.696312666E0,9.259625435E0
3.377595338E1,3.996013701E-1,3.701696634E0,9.114859581E0
3.379606296E1,5.407779217E-1,3.702893019E0,9.166305542E0
3.381617254E1,5.443671346E-1,3.683750391E0,9.337990761E0
3.383628208E1,4.342973232E-1,3.657429457E0,9.576076508E0
3.385639166E1,4.737788737E-1,3.600001574E0,9.459425926E0
3.387650124E1,5.904290080E-1,3.686741590E0,9.098110199E0
3.389661082E1,6.831508875E-1,3.757927895E0,9.035896301E0
3.391672036E1,6.783652306E-1,3.680161238E0,9.235098839E0
3.393682994E1,5.856433511E-1,3.616153240E0,9.399605751E0
3.395693952E1,4.737788737E-1,3.638885021E0,9.252447128E0
3.397704905E1,4.301098585E-1,3.591626883E0,9.036494255E0
3.399715864E1,4.995017350E-1,3.557528973E0,9.127422333E0
3.401726822E1,4.839483798E-1,3.569493294E0,9.491130829E0
3.403737775E1,6.867401004E-1,3.533600807E0,7.278368473E0
3.405748734E1,2.255235314E-1,3.410968781E0,9.290133476E0
3.407759692E1,2.404786795E-1,3.422932863E0,1.017428207E1
3.409770645E1,6.394818425E-1,3.567100286E0,1.065404320E1
3.411781603E1,3.200400174E-1,3.556930780E0,9.793225288E0
