"Time (s)","Gyroscope x (rad/s)","Gyroscope y (rad/s)","Gyroscope z (rad/s)"
2.962491100E-2,-1.452289373E-1,1.434727460E-1,2.336490713E-2
4.973444200E-2,-3.173351586E-1,2.239518762E-1,-3.390202299E-2
6.984397300E-2,-4.126273096E-1,1.969218850E-1,-4.169032723E-2
8.995355600E-2,-3.584146202E-1,1.391968131E-1,-4.917320609E-2
1.100630880E-1,-2.490729690E-1,7.475243509E-2,-1.178935245E-1
1.301726710E-1,-1.394258887E-1,6.925480813E-2,-1.201841980E-1
1.502822020E-1,-6.413896382E-2,5.123481527E-2,-1.152974218E-1
1.703917330E-1,-3.588727489E-2,1.007134393E-1,-1.206423342E-1
1.905013170E-1,-5.024218559E-2,1.297286898E-1,-1.119377613E-1
2.106108480E-1,-8.093725890E-2,1.013242900E-1,-8.704573661E-2
2.307204310E-1,-9.376505762E-2,8.681666851E-2,-4.840964451E-2
2.508299630E-1,-8.246438205E-2,6.742226332E-2,-1.924168877E-2
2.709394940E-1,-5.528167635E-2,2.725905925E-2,-9.926267900E-3
2.910490770E-1,-4.153761268E-2,2.741177008E-2,-3.054236295E-3
3.111586080E-1,-3.374931216E-2,6.146650389E-2,4.886778072E-3
3.312681400E-1,-2.046338283E-2,9.307785332E-2,-1.588202827E-2
3.513777230E-1,-3.970507160E-2,1.086544544E-1,-5.925218388E-2
3.714872540E-1,-6.413896382E-2,1.123195365E-1,-6.398624927E-2
3.915968380E-1,-5.787777901E-2,9.048175067E-2,-4.428642616E-2
4.117063690E-1,5.650337320E-3,7.307260484E-2,-1.236965694E-2
4.318159000E-1,8.124268800E-2,8.177717775E-2,1.542389300E-2
4.519254830E-1,1.157555580E-1,9.872818738E-2,3.634541109E-2
4.720350150E-1,1.035386100E-1,5.825955793E-2,2.672456764E-2
4.921445460E-1,9.116895497E-2,3.168770298E-2,1.527118124E-2
5.122541290E-1,9.025268257E-2,-5.421269219E-3,2.092151903E-2
5.323636610E-1,1.097997949E-1,-2.069245093E-2,3.283303976E-2
5.524731920E-1,1.430909634E-1,-8.780929260E-3,2.641914412E-2
5.725827750E-1,1.470614821E-1,1.244601328E-2,-1.740914769E-2
5.926923060E-1,1.172826737E-1,1.992889121E-2,-5.879404768E-2
6.128018380E-1,6.398624927E-2,3.000787087E-2,-7.452336699E-2
6.329114210E-1,1.313321572E-2,1.397313084E-2,-7.146912813E-2
6.530209520E-1,-3.359660041E-3,-5.879404955E-3,-5.909947306E-2
6.731304830E-1,1.832541823E-2,-1.656923257E-2,-5.253286287E-2
6.932400670E-1,3.878879920E-2,-2.710634656E-2,-6.933116168E-2
7.133495980E-1,3.283303976E-2,-3.352024406E-2,-9.666658193E-2
7.334591290E-1,2.794626169E-2,8.780929260E-3,-1.030804738E-1
7.535687130E-1,2.840439789E-2,5.215108395E-2,-1.052184403E-1
7.736782440E-1,3.329117596E-2,8.391514421E-2,-1.154501289E-1
7.937877750E-1,2.473931387E-2,4.970769584E-2,-8.643488586E-2
8.138973580E-1,6.872031838E-3,-1.611109637E-2,-1.175880991E-2
8.340068900E-1,5.192201585E-3,-4.436278343E-2,5.909947306E-2
8.541164210E-1,1.832541777E-3,-3.718532622E-2,8.124268800E-2
8.742260040E-1,-7.528692484E-2,-1.504211407E-2,3.283303976E-2
8.943355360E-1,-2.786990702E-1,1.779092662E-2,-4.550812021E-2
9.144450670E-1,-5.230379701E-1,8.192989230E-2,-5.115845799E-2
9.345545980E-1,-6.015318632E-1,1.292705536E-1,3.970507160E-2
9.546641810E-1,-4.932591617E-1,1.634780020E-1,7.956285775E-2
9.747737130E-1,-2.757975459E-1,1.014770046E-1,1.389677543E-2
9.948832440E-1,-5.192201585E-3,-1.603474026E-3,-6.230641901E-2
1.014992827E0,2.058555335E-1,-4.191939160E-2,-7.788302749E-2
1.035102358E0,2.736595869E-1,-8.696937561E-2,-6.688777357E-2
1.055211890E0,2.029540092E-1,-8.101361990E-2,-2.947338112E-2
1.075321421E0,6.948387623E-2,-3.382566571E-2,1.710372418E-2
1.095431004E0,-2.733541466E-2,1.107160654E-2,4.810422286E-2
1.115540536E0,-4.001049697E-2,5.459447205E-2,6.688777357E-2
1.135650067E0,4.428642802E-3,5.642701685E-2,8.139539510E-2
1.155759650E0,3.451287001E-2,3.275668249E-2,7.681404054E-2
1.175869181E0,2.626643144E-2,1.756185899E-3,6.032116711E-2
1.195978713E0,3.359660041E-3,-1.733279042E-2,3.420744836E-2
1.216088244E0,-5.497625098E-3,-1.458397787E-2,2.061609551E-2
1.236197827E0,2.901524538E-3,-1.046075951E-2,3.069507517E-2
1.256307358E0,2.596100792E-2,-2.176143415E-2,3.619270027E-2
1.276416890E0,4.443913698E-2,-1.473669056E-2,3.451287001E-2
1.296526473E0,4.184303805E-2,-1.534753758E-2,4.230117425E-2
1.316636004E0,3.405473381E-2,-1.779092662E-2,4.993676394E-2
1.336745536E0,4.046862945E-2,-1.290414855E-2,5.222744122E-2
1.356855067E0,5.314370990E-2,-1.908897655E-3,5.864133686E-2
1.376964650E0,3.390202299E-2,-1.656923257E-2,4.688252881E-2
1.397074181E0,-1.343864016E-2,-3.947600350E-2,1.786728203E-2
1.417183713E0,-4.474456236E-2,-2.512109280E-2,-0.000000000E0
1.437293244E0,-4.459185153E-2,2.405211143E-2,1.221694518E-3
1.457402827E0,-6.108472496E-2,5.077667907E-2,1.985253533E-3
1.477512358E0,-1.041494608E-1,3.245126083E-2,1.145338640E-2
1.497621890E0,-1.330119967E-1,5.115845706E-3,3.237490356E-2
1.517731421E0,-1.125486046E-1,-5.344913807E-4,4.825693369E-2
1.537840952E0,-7.360709459E-2,2.977880416E-3,3.451287001E-2
1.557950536E0,-3.756710514E-2,2.290677221E-4,5.192201585E-3
1.578060067E0,-1.191152167E-2,-1.908897655E-3,-2.321219631E-2
1.598169598E0,-6.872031838E-3,-1.504211407E-2,-4.275930673E-2
1.618279129E0,-1.542389300E-2,-1.580567285E-2,-4.443913698E-2
1.638388713E0,-3.054236248E-2,-1.290414855E-2,-3.237490356E-2
1.658498244E0,-4.535540938E-2,-2.771719359E-2,-3.206948191E-2
1.678607775E0,-5.329642445E-2,-1.870719716E-2,-3.726168349E-2
1.698717306E0,-5.971032009E-2,-1.259872504E-2,-4.352286831E-2
1.718826890E0,-7.009471953E-2,-1.382041909E-2,-4.917320609E-2
1.738936421E0,-7.589777559E-2,-2.160872146E-2,-5.024218559E-2
1.759045952E0,-6.612421572E-2,-3.168770298E-2,-5.467082933E-2
1.779155483E0,-4.367557913E-2,-3.107685409E-2,-6.566607952E-2
1.799265015E0,-2.183778957E-2,-2.786990628E-2,-6.933116168E-2
1.819374598E0,3.512371797E-3,-1.748550311E-2,-6.154286116E-2
1.839484129E0,1.893626526E-2,-1.030804776E-2,-4.963133857E-2
1.859593661E0,9.315420873E-3,-1.152974181E-2,-4.077405483E-2
1.879703192E0,-2.046338283E-2,-1.183516532E-2,-2.932066843E-2
1.899812723E0,-4.337015375E-2,6.490251981E-3,-1.068982668E-2
1.919922306E0,-2.840439789E-2,2.725905925E-2,4.275931045E-3
1.940031838E0,9.468132630E-3,1.458397787E-2,1.893626526E-2
1.960141369E0,2.611372061E-2,-9.239064530E-3,2.779355086E-2
1.980250900E0,1.420219894E-2,-3.817795368E-4,1.985253580E-2
2.000360431E0,-6.719320081E-3,9.544488043E-3,9.315420873E-3
2.020470015E0,-4.138490185E-2,1.122431830E-2,1.038440317E-2
2.040579546E0,-7.910472155E-2,6.948387716E-3,9.926267900E-3
2.060689077E0,-1.058292910E-1,7.406522986E-3,-7.024743594E-3
2.080798608E0,-1.443126649E-1,1.611109637E-2,-2.657185495E-2
2.100908140E0,-1.766875684E-1,3.413109109E-2,-4.123218823E-3
2.121017723E0,-1.485885978E-1,6.772769243E-2,2.764083818E-2
2.141127254E0,-7.986827940E-2,8.223531395E-2,3.405473381E-2
2.161236786E0,-3.329117596E-2,4.390464723E-2,3.023693897E-2
2.181346317E0,-3.649812192E-2,-3.642176837E-2,3.665083554E-3
2.201455848E0,-8.872556686E-2,-7.261446863E-2,-4.031591862E-2
2.221565431E0,-2.038702667E-1,-9.239064530E-3,-6.245913357E-2
2.241674963E0,-2.965663373E-1,3.306210786E-2,1.725643501E-2
2.261784494E0,-7.345438004E-2,4.023956135E-2,1.548497826E-1
2.281894025E0,1.543916464E-1,-1.183516532E-2,1.441599578E-1
2.302003556E0,3.020639718E-1,-1.014770046E-1,6.093201414E-2
2.322113140E0,3.348970115E-1,-1.989071369E-1,-5.955760926E-2
2.342222671E0,2.727433145E-1,-2.068481594E-1,-1.111742035E-1
2.362332202E0,1.768402755E-1,-1.865374744E-1,-1.214058921E-1
2.382441733E0,9.513945878E-2,-1.324774921E-1,-1.294996142E-1
2.402551265E0,6.474980712E-2,-1.387386769E-1,-1.012479365E-1
2.422660796E0,1.377460510E-1,-2.222720534E-1,-5.222744122E-2
2.442770379E0,2.742704153E-1,-3.044309914E-1,-8.536590636E-2
2.462879911E0,3.619270027E-1,-3.462740481E-1,-1.675248593E-1
2.482989442E0,3.025220931E-1,-3.058054149E-1,-2.115058601E-1
2.503098973E0,1.285833418E-1,-1.155264899E-1,-2.024958730E-1
2.523208504E0,-1.162136942E-1,5.230379477E-2,-2.070772201E-1
2.543318088E0,-3.402419090E-1,2.430408597E-1,-7.299624383E-2
2.563427619E0,-4.596625566E-1,2.891598344E-1,2.278460264E-1
2.583537150E0,-5.039489865E-1,7.933378965E-2,1.913478971E-1
2.603646681E0,-3.996468186E-1,-4.810422193E-3,2.183778957E-2
2.623756213E0,-1.940967143E-1,-8.299887180E-2,-1.275143623E-1
2.643865744E0,1.603474095E-2,-1.153737754E-1,-2.486148328E-1
2.663975275E0,1.391204596E-1,-1.503447890E-1,-3.141281903E-1
2.684084858E0,1.745496094E-1,-1.738623977E-1,-3.075616062E-1
2.704194390E0,1.504211426E-1,-1.417929232E-1,-2.116585821E-1
2.724303921E0,7.910472155E-2,-1.011715755E-1,-9.269607067E-2
2.744413452E0,-9.009997360E-3,-1.733279042E-2,1.527118147E-4
2.764522983E0,-7.085828483E-2,3.817795368E-4,5.971032009E-2
2.784632515E0,-7.467607409E-2,-5.138752609E-2,5.757235363E-2
2.804742046E0,-6.719320081E-3,-9.506310523E-2,6.108472589E-3
2.824851629E0,1.244601309E-1,-1.544679999E-1,-4.718795046E-2
2.844961161E0,2.562504113E-1,-2.384594977E-1,-5.803048983E-2
2.865070692E0,3.356605768E-1,-2.557159364E-1,-3.985778242E-2
2.885180223E0,3.550549746E-1,-2.103605270E-1,-6.719319522E-2
2.905289754E0,3.439069986E-1,-1.718771458E-1,-1.177408099E-1
2.925399286E0,3.629959822E-1,-1.931804419E-2,-1.128540337E-1
2.945508869E0,3.271087110E-1,1.689756215E-1,-1.094943732E-1
2.965618400E0,2.325800955E-1,2.005869746E-1,-8.796200156E-2
2.985727931E0,2.170034945E-1,4.527905211E-2,-9.804098308E-2
3.005837463E0,3.559712470E-1,4.504998680E-3,-9.239064902E-2
3.025946994E0,4.860817194E-1,1.877591759E-1,-6.963659078E-2
3.046056525E0,4.631749392E-1,3.926984370E-1,7.345438004E-2
3.066166056E0,2.116585821E-1,5.218926072E-1,3.254288733E-1
3.086275640E0,-1.175880991E-2,4.046099484E-1,4.622586668E-1
3.106385171E0,-1.420219894E-2,3.587964177E-1,4.253024161E-1
3.126494702E0,-7.742489129E-2,1.804290116E-1,2.802261710E-1
3.146604233E0,-1.575985998E-1,1.445417255E-1,1.572931707E-1
3.166713765E0,-1.563768983E-1,1.459161341E-1,8.460234851E-2
3.186823296E0,-1.162136942E-1,1.992125660E-1,1.056765765E-1
3.206932827E0,-8.658760041E-2,2.034884989E-1,1.702736765E-1
3.227042358E0,-1.301104724E-1,1.387386769E-1,1.360662282E-1
3.247151942E0,-2.142546773E-1,2.241045833E-1,-9.162709117E-3
3.267261473E0,-2.771719396E-1,2.221193314E-1,-1.127013192E-1
3.287371004E0,-3.552076817E-1,2.341835648E-1,-1.415638477E-1
3.307480536E0,-3.807105422E-1,2.129566222E-1,-7.207997888E-2
3.327590067E0,-2.867927849E-1,6.956022978E-2,1.679830020E-3
3.347699598E0,-1.258345395E-1,-6.726955622E-2,1.450762246E-2
3.367809129E0,2.107422985E-2,-1.141520813E-1,5.436540768E-2
3.387918661E0,9.513945878E-2,-1.430146098E-1,2.528907657E-1
3.408028244E0,1.572931707E-1,-2.518981397E-1,3.306210935E-1
3.428137775E0,1.592784226E-1,-2.564795017E-1,2.150182426E-1
3.448247306E0,1.131594554E-1,-2.867164314E-1,1.646233350E-1
3.468356838E0,-2.443389036E-2,2.619007602E-2,1.114796251E-1
3.488466369E0,-1.320957243E-1,1.133885235E-1,1.681357026E-1
3.508575900E0,-8.414421231E-2,1.359898746E-1,2.368560284E-1
3.528685431E0,-6.398624927E-2,1.367534250E-1,2.641914487E-1
3.548794963E0,-2.014268786E-1,1.391968131E-1,5.726693198E-2
3.568904546E0,-4.763081372E-1,1.691283286E-1,-1.806580722E-1
3.589014077E0,-6.603258848E-1,2.839676142E-1,-2.777827978E-1
3.609123608E0,-5.630484819E-1,5.110501051E-1,-1.991362125E-1
3.629233140E0,-2.011214644E-1,6.300125718E-1,-1.832541777E-3
3.649342671E0,5.665608495E-2,2.045574784E-1,-3.863608837E-2
3.669452202E0,1.511846930E-1,-1.172063202E-1,1.562241912E-1
3.689561733E0,9.544488788E-2,-2.661003470E-1,1.795890927E-1
3.709671265E0,-3.665083647E-2,-3.737621605E-1,-9.926267900E-3
3.729780796E0,-1.777565479E-1,-2.938938737E-1,-7.192726433E-2
3.749890327E0,-2.657185495E-1,-1.755422354E-1,-6.719319522E-2
3.769999911E0,-2.651077211E-1,3.122956678E-2,-1.679829881E-2
3.790109442E0,-2.331909388E-1,2.028776407E-1,5.253286287E-2
3.810218973E0,-1.673721522E-1,2.321983129E-1,1.102579311E-1
3.830328504E0,-9.147437662E-2,8.192989230E-2,1.032331884E-1
3.850438036E0,-1.201841980E-1,-5.887040496E-2,4.275930673E-2
3.870547567E0,-2.556395829E-1,-1.992889121E-2,-4.810422286E-2
3.890657098E0,-4.912739098E-1,-5.268557463E-3,-1.353026628E-1
3.910766629E0,-8.287670016E-1,-4.573718831E-2,-1.371352077E-1
3.930876161E0,-8.735115528E-1,-3.684172630E-1,-8.276980370E-2
3.950985744E0,-3.377985358E-1,-1.066692024E-1,1.939439960E-2
3.971095275E0,1.018587798E-1,2.297549248E-1,5.192201585E-3
3.991204806E0,1.612636745E-1,2.312820405E-1,-5.925218388E-2
4.011314338E0,5.696150661E-2,8.590039611E-2,-1.296523362E-1
4.031423869E0,1.692046970E-1,-3.275668249E-2,-2.119639963E-1
4.051533400E0,3.631486893E-1,-7.444700599E-2,-3.280249834E-1
4.071642931E0,3.364241421E-1,-1.092653051E-1,-4.112529159E-1
4.091752463E0,1.751604527E-1,-1.837886721E-1,-4.428642690E-1
4.111861994E0,1.533226669E-1,-1.343100369E-1,-4.413371384E-1
4.131971525E0,1.690519750E-1,-1.028514057E-1,-4.582881629E-1
4.152081056E0,1.151447073E-1,-4.848600179E-2,-4.576773047E-1
4.172190640E0,-2.443389036E-3,-3.245126083E-2,-4.387410581E-1
4.192300171E0,-7.284353673E-2,4.161396995E-2,-4.159869850E-1
4.212409702E0,-9.910997003E-2,1.121668294E-1,-3.866663277E-1
4.232519233E0,-1.253764033E-1,1.469851285E-1,-3.619270027E-1
4.252628765E0,-9.315420687E-2,1.663795263E-1,-3.307738006E-1
4.272738296E0,1.985253533E-3,1.442363113E-1,-2.619007528E-1
4.292847827E0,4.443913698E-2,1.063637808E-1,-1.983726472E-1
4.312957358E0,1.313321572E-2,1.336991936E-1,-1.543916464E-1
4.333066890E0,-1.236965694E-2,1.466796994E-1,-1.136175916E-1
4.353176421E0,1.985253580E-2,1.387386769E-1,-8.979454637E-2
4.373285952E0,9.025268257E-2,9.521581978E-2,-5.986303091E-2
4.393395536E0,1.524063945E-1,2.191414498E-2,-2.031067200E-2
4.413505067E0,2.131856978E-1,-2.695363574E-2,5.024218559E-2
4.433614598E0,3.170297146E-1,-6.024480984E-2,1.288887709E-1
4.453724129E0,4.001049399E-1,-5.184566230E-2,1.896680743E-1
4.473833661E0,3.965925872E-1,-2.374668792E-2,2.486148328E-1
4.493943192E0,3.503209054E-1,7.994463295E-2,2.829749882E-1
4.514052723E0,3.261924386E-1,2.618243992E-1,2.893888950E-1
4.534162254E0,3.210002482E-1,4.679853618E-1,3.132119179E-1
4.554271786E0,3.367295563E-1,5.553365350E-1,3.704788685E-1
4.574381317E0,3.400892019E-1,4.803550243E-1,3.967452943E-1
4.594490848E0,2.603736520E-1,3.048891425E-1,3.454341292E-1
4.614600379E0,1.188097894E-1,1.575222313E-1,2.046338320E-1
4.634709963E0,-9.681928903E-2,-7.169819623E-2,5.879404768E-2
4.654819494E0,-2.742704153E-1,-1.402658075E-1,-6.444438547E-2
4.674929025E0,-4.369085133E-1,-9.849912487E-3,-4.275931045E-3
4.695038556E0,-4.598152637E-1,2.267006934E-1,7.635590434E-2
4.715148088E0,-1.473668963E-1,4.493545294E-1,1.143811494E-1
4.735257619E0,2.976353168E-1,4.449258745E-1,1.404948682E-1
4.755367150E0,5.259394646E-1,3.094705045E-1,1.360662282E-1
4.775476681E0,5.329642296E-1,1.993652731E-1,1.105633527E-1
4.795586213E0,4.405735731E-1,9.124530852E-2,6.902574003E-2
4.815695744E0,3.845283389E-1,-1.036149636E-1,4.703523964E-2
4.835805275E0,4.375193417E-1,-3.357369304E-1,4.474456236E-2
4.855914858E0,4.882196784E-1,-3.971270621E-1,4.581354558E-2
4.876024338E0,3.678827584E-1,-6.281800270E-1,-3.665083554E-3
4.896133921E0,2.024958730E-1,-8.012025356E-1,-3.771981969E-2
4.916243452E0,2.003578991E-1,-6.031352878E-1,1.282779220E-2
4.936352983E0,2.812951505E-1,-2.018086612E-1,8.292251825E-2
4.956462515E0,4.598152637E-1,1.688229144E-1,1.716480851E-1
4.976572046E0,6.310052276E-1,3.331408203E-1,2.843494117E-1
4.996681577E0,6.562026739E-1,2.578538954E-1,4.450022280E-1
5.016791108E0,4.760027230E-1,7.673768699E-2,5.609105229E-1
5.036900640E0,1.055238619E-1,-1.794363745E-2,5.896202922E-1
5.057010171E0,-3.067980409E-1,4.787515476E-2,5.328115225E-1
5.077119702E0,-6.226060390E-1,7.093463838E-2,4.124746025E-1
5.097229233E0,-6.587987542E-1,7.475243509E-2,2.870981991E-1
5.117338817E0,-4.488200247E-1,5.932854116E-2,1.669140160E-1
5.137448296E0,-2.489202619E-1,7.795938104E-2,1.156028435E-1
5.157557879E0,-2.162399292E-1,4.756972939E-2,1.197260618E-1
5.177667411E0,-2.622061968E-1,8.628217503E-3,1.165191159E-1
5.197776942E0,-2.510582209E-1,7.246175408E-2,7.345438004E-2
5.217886473E0,-1.698155403E-1,1.448471546E-1,3.665083647E-2
5.237996004E0,-1.217113137E-1,9.429954737E-2,3.512371797E-3
5.258105536E0,-1.148392856E-1,-1.145338640E-3,-2.519745007E-2
5.278215067E0,-1.166718230E-1,-9.827005118E-2,-6.658235192E-2
5.298324598E0,-1.001789495E-1,-1.237729266E-1,-1.030804738E-1
5.318434129E0,-7.498150319E-2,-1.587439328E-1,-1.197260618E-1
5.338543661E0,-2.687728032E-2,-2.273115367E-1,-1.314848661E-1
5.358653192E0,2.183778957E-2,-3.093177676E-1,-1.299577504E-1
5.378762775E0,-6.108472589E-4,-4.307236671E-1,-1.252236813E-1
5.398872306E0,-1.145338640E-1,-5.452575088E-1,-1.134648770E-1
5.418981786E0,-1.895153672E-1,-5.858788490E-1,-1.195733473E-1
5.439091369E0,-1.450762302E-1,-5.037199259E-1,-1.333174109E-1
5.459200900E0,-7.498150319E-2,-3.887279332E-1,-1.710372269E-1
5.479310431E0,-8.674030751E-2,-2.577011883E-1,-1.991362125E-1
5.499419963E0,-2.402156889E-1,-2.438044101E-1,-2.113531530E-1
5.519529494E0,-5.335750580E-1,-4.094967246E-1,-2.202104330E-1
5.539639025E0,-7.656970620E-1,-4.447731674E-1,-2.837385535E-1
5.559748556E0,-8.819107413E-1,-4.295019805E-1,-3.778090179E-1
5.579858088E0,-7.681404352E-1,-2.234937400E-1,-5.525113344E-1
5.599967619E0,-4.802786708E-1,2.282278091E-1,-7.586722970E-1
5.620077150E0,3.603998944E-2,8.764894605E-1,-7.119424939E-1
5.640186681E0,6.287145615E-1,1.295683384E0,-4.508052766E-1
5.660296265E0,8.976400495E-1,1.210470200E0,-2.121167034E-1
5.680405796E0,6.264238358E-1,5.744255185E-1,-7.101099193E-2
5.700515327E0,-7.284353673E-2,-3.048891425E-1,3.206948191E-2
5.720624858E0,-7.168292403E-1,-8.018133640E-1,4.764608666E-2
5.740734390E0,-8.031114340E-1,-7.813500166E-1,-1.472141892E-1
5.760843921E0,-3.361186981E-1,-2.595337331E-1,-4.395045936E-1
5.780953452E0,2.449497581E-1,3.548259139E-1,-5.602996349E-1
5.801062983E0,4.857762754E-1,7.763105035E-1,-3.544441164E-1
5.821172515E0,4.037700295E-1,8.641198277E-1,2.046338283E-2
5.841282046E0,2.667875290E-1,7.170583010E-1,2.751866877E-1
5.861391577E0,8.994726092E-2,5.089121461E-1,2.738122940E-1
5.881501108E0,-1.441599578E-1,3.532987833E-1,1.072036922E-1
5.901610692E0,-3.414636254E-1,2.239518762E-1,-1.360662282E-1
5.921720171E0,-5.413633585E-1,2.518981397E-1,-3.510844707E-1
5.941829754E0,-8.666395545E-1,5.896966457E-1,-4.036173224E-1
5.961939286E0,-1.097997904E0,8.665632010E-1,-3.122956753E-1
5.982048817E0,-1.022405624E0,8.856521845E-1,-1.979145110E-1
6.002158348E0,-6.453601122E-1,6.970530748E-1,-6.352811307E-2
6.022267879E0,-1.910424829E-1,3.160370886E-1,3.848337755E-2
6.042377411E0,1.307213157E-1,-7.734853774E-2,9.972081333E-2
6.062486942E0,2.263189107E-1,-2.208976448E-1,1.033858955E-1
6.082596473E0,1.876828223E-1,-1.265217364E-1,9.407047927E-2
6.102706004E0,1.585148573E-1,2.221956849E-2,1.064401343E-1
6.122815536E0,1.160609797E-1,1.802763045E-1,1.455343664E-1
6.142925067E0,2.458660305E-2,2.937411666E-1,2.160872221E-1
6.163034598E0,-9.193251282E-2,3.114557564E-1,2.565558553E-1
6.183144181E0,-2.327328026E-1,2.748049200E-1,2.820587158E-1
6.203253713E0,-2.057028115E-1,1.694337577E-1,3.303156495E-1
6.223363244E0,-5.192201585E-2,-6.795675959E-3,3.431434333E-1
6.243472775E0,1.378987730E-1,5.047125369E-2,3.640649617E-1
6.263582306E0,1.177408099E-1,1.718007959E-2,3.420744538E-1
6.283691838E0,-5.529694557E-1,-5.841990709E-1,2.863346636E-1
6.303801369E0,-1.068371892E0,-8.059365749E-1,2.673983872E-1
6.323910900E0,-5.370874405E-1,-5.324297547E-1,2.075353563E-1
6.344020431E0,5.059342384E-1,-3.352024406E-2,2.782409191E-1
6.364129963E0,1.096165419E0,2.056264579E-1,4.679090083E-1
6.384239494E0,1.200925708E0,1.859266311E-1,6.339067221E-1
6.404349025E0,1.067608237E0,2.061609412E-3,6.638382673E-1
6.424458556E0,7.516475320E-1,-3.552840352E-1,5.949652195E-1
6.444568140E0,4.172086716E-1,-7.176691890E-1,5.215108395E-1
6.464677671E0,2.935121059E-1,-8.731297851E-1,3.988832533E-1
6.484787202E0,3.943018913E-1,-6.889593601E-1,2.536543310E-1
6.504896733E0,6.186355352E-1,-1.986017078E-1,1.467560530E-1
6.525006265E0,7.470661998E-1,1.318666488E-1,8.857285231E-2
6.545115796E0,6.258130074E-1,8.727480471E-2,1.524063945E-1
6.565225327E0,3.839175105E-1,-1.187334359E-1,2.415900975E-1
6.585334858E0,1.643179059E-1,-2.509818673E-1,2.977880239E-1
6.605444390E0,1.527118124E-2,-2.236464471E-1,2.696890533E-1
6.625553921E0,-1.111742035E-1,-1.272853017E-1,1.832541823E-1
6.645663452E0,-2.483094037E-1,-1.145338640E-3,8.444963396E-2
6.665772983E0,-3.219164908E-1,4.695888236E-2,1.679829881E-2
6.685882515E0,-3.377985358E-1,-1.458397787E-2,-1.649287529E-2
6.705992046E0,-3.364241421E-1,-9.338327497E-2,-5.497625098E-3
6.726101629E0,-3.136700690E-1,-1.601183414E-1,3.191677108E-2
6.746211161E0,-2.641914487E-1,-1.882173121E-1,7.207997888E-2
6.766320692E0,-1.879882365E-1,-2.016559541E-1,7.146912813E-2
6.786430223E0,-7.146912813E-2,-1.694337577E-1,6.077930331E-2
6.806539754E0,2.565558441E-2,-2.163162827E-1,5.405998230E-2
6.826649286E0,7.666133344E-2,-3.171060979E-1,4.352286831E-2
6.846758817E0,1.250709742E-1,-3.413872719E-1,2.290677279E-2
6.866868348E0,1.798945218E-1,-3.375694752E-1,-1.221694518E-3
6.886977879E0,2.115058601E-1,-3.684172630E-1,-2.870982140E-2
6.907087411E0,1.847812980E-1,-4.418716431E-1,-6.123743951E-2
6.927196942E0,2.122694254E-2,-5.719820857E-1,-8.780929446E-2
6.947306473E0,-2.018850148E-1,-4.130091071E-1,-1.055238619E-1
6.967416056E0,-2.936648130E-1,5.627430230E-2,-1.146865711E-1
6.987525588E0,-4.359922409E-1,4.253023863E-2,-9.086353332E-2
7.007635119E0,-6.151232123E-1,-5.083012581E-1,-7.284353673E-2
7.027744650E0,-5.870242119E-1,-9.161945581E-1,-1.420219839E-1
7.047854181E0,-5.404471159E-1,-7.404232621E-1,-4.002576768E-1
7.067963713E0,-5.291464329E-1,1.964637488E-1,-6.262711287E-1
7.088073244E0,-1.233911440E-1,1.142513394E0,-6.329904795E-1
7.108182775E0,5.138752460E-1,1.175804615E0,-4.764608741E-1
7.128292306E0,9.370396733E-1,4.464530051E-1,-1.661504507E-1
7.148401838E0,9.831586480E-1,-5.034145117E-1,1.137702987E-1
7.168511369E0,6.132906675E-1,-1.009196043E0,1.824906170E-1
7.188620900E0,5.344913527E-2,-8.172372580E-1,4.428642616E-2
7.208730483E0,-3.900259733E-1,-1.210241169E-1,-2.971771955E-1
7.228840015E0,-5.381564498E-1,5.910710692E-1,-6.354338527E-1
7.248949546E0,-4.294256270E-1,8.048676252E-1,-7.444701195E-1
7.269059077E0,-1.823379099E-1,5.965687037E-1,-5.694623590E-1
7.289168608E0,1.548497826E-1,2.415137291E-1,-2.476985604E-1
7.309278140E0,4.483618736E-1,-1.152974181E-2,-1.466033421E-2
7.329387671E0,4.837910235E-1,-6.497887522E-2,5.268557742E-2
7.349497202E0,2.773246467E-1,-1.244601328E-2,6.566607859E-3
7.369606733E0,1.206423342E-2,5.215108395E-2,-1.047603041E-1
7.389716265E0,-1.233911440E-1,8.635853231E-2,-2.202104330E-1
7.409825796E0,-1.290414780E-1,9.261971712E-2,-2.939702570E-1
7.429935327E0,-5.390727147E-2,6.788039953E-2,-2.767138183E-1
7.450044858E0,2.733541466E-2,1.026986986E-1,-1.901262105E-1
7.470154390E0,7.040014863E-2,1.543152928E-1,-8.063183725E-2
7.490263973E0,7.116370648E-2,1.683647782E-1,-7.177455351E-3
7.510373504E0,6.444438547E-2,1.202605516E-1,1.007897966E-2
7.530483036E0,7.314895838E-2,6.604786217E-2,6.108472589E-4
7.550592567E0,4.169032723E-2,7.826480269E-2,-8.857285604E-3
7.570702098E0,3.665083554E-3,1.579803675E-1,-7.024743594E-3
7.590811629E0,1.679830020E-3,2.086806893E-1,5.497625098E-3
7.610921161E0,4.092676565E-2,2.321983129E-1,2.718270384E-2
7.631030692E0,5.528167635E-2,1.999761164E-1,4.077405483E-2
7.651140223E0,-6.108472589E-4,1.633252800E-1,3.191677108E-2
7.671249754E0,-1.702736765E-1,5.764871091E-2,1.068982761E-3
7.691359286E0,-4.639385045E-1,-1.040730998E-1,1.389677543E-2
7.711468869E0,-8.006680608E-1,-4.968478978E-1,8.918370306E-2
7.731578400E0,-9.866710305E-1,-7.162947655E-1,1.750077456E-1
7.751687931E0,-5.109737515E-1,-3.140518367E-1,1.459924877E-1
7.771797463E0,4.274403751E-1,1.570640951E-1,3.222219273E-2
7.791906994E0,9.828532338E-1,1.905079931E-1,5.619794875E-2
7.812016525E0,9.327637553E-1,9.460496902E-2,1.441599578E-1
7.832126056E0,6.478035450E-1,1.772220582E-1,1.821851879E-1
7.852235588E0,3.130592108E-1,2.774010003E-1,1.331647038E-1
7.872345119E0,8.185353130E-2,2.667111754E-1,1.206423342E-1
7.892454650E0,1.339282542E-1,1.450762269E-3,1.751604527E-1
7.912564181E0,2.557922900E-1,-3.777326643E-1,2.220429778E-1
7.932673713E0,2.063136548E-1,-4.594334960E-1,2.053973973E-1
7.952783296E0,-4.428642616E-2,-2.735832036E-1,7.711946964E-2
7.972892827E0,-2.553341687E-1,1.101815775E-1,-5.131116882E-2
7.993002358E0,-1.521009654E-1,4.200338423E-1,-7.711946964E-2
8.013111890E0,6.902574003E-2,3.630723357E-1,1.252236869E-2
8.033221421E0,1.904316396E-1,9.704835713E-2,1.579040140E-1
8.053330952E0,1.473668963E-1,-1.723352820E-1,2.371614426E-1
8.073440483E0,-9.773556143E-3,-2.149418741E-1,2.367033064E-1
8.093550015E0,-8.857285231E-2,-1.179698780E-1,1.876828223E-1
8.113659546E0,-1.029277667E-1,-8.651123941E-2,1.513374150E-1
8.133769077E0,-9.849911928E-2,-8.758022636E-2,1.423274130E-1
8.153878608E0,-2.000524849E-2,-6.024480984E-2,1.099525094E-1
8.173988140E0,2.702999115E-2,-4.115583375E-2,5.696150661E-2
8.194097671E0,-5.879404768E-2,-7.200361788E-2,1.649287529E-2
8.214207254E0,-2.021904439E-1,-1.011715755E-1,-9.773556143E-3
8.234316786E0,-2.374668717E-1,-7.276718318E-2,-1.313321572E-2
8.254426317E0,-1.579040140E-1,-5.108210072E-2,6.413896102E-3
8.274535848E0,-4.459185153E-2,-3.428380191E-2,4.199574888E-2
8.294645379E0,3.191677108E-2,-3.626905754E-2,5.039490014E-2
8.314754911E0,7.375980914E-2,-9.384141117E-2,6.536065787E-2
8.334864442E0,6.322269142E-2,-1.938676536E-1,6.062658876E-2
8.354973973E0,-4.504998401E-2,-2.236464471E-1,4.382828996E-2
8.375083504E0,-1.843231618E-1,-2.042520493E-1,1.511846948E-2
8.395193036E0,-1.759240031E-1,-1.056002229E-1,-2.092151903E-2
8.415302567E0,-3.161134571E-2,-8.803836256E-2,-8.796200156E-2
8.435412150E0,-4.413371533E-2,-3.222982883E-1,-1.224748790E-1
8.455521681E0,-3.784198761E-1,-6.475744247E-1,-8.857285231E-2
8.475631213E0,-9.167290330E-1,-7.315659523E-1,-9.040539712E-2
8.495740744E0,-1.082879424E0,-2.845784724E-1,-2.266243398E-1
8.515850275E0,-8.079982400E-1,2.514399886E-1,-4.633276463E-1
8.535959806E0,-4.604261220E-1,6.040515900E-1,-5.245651007E-1
8.556069338E0,-4.062134400E-2,8.056311607E-1,-3.666610718E-1
8.576178869E0,6.713211536E-1,8.690065742E-1,-1.643179059E-1
8.596288400E0,1.329280019E0,5.012765527E-1,3.970507160E-2
8.616397931E0,1.517268181E0,-1.546207070E-1,2.673983872E-1
8.636507463E0,1.160457134E0,-6.975111961E-1,4.069769979E-1
8.656616994E0,5.001311898E-1,-8.958838582E-1,3.652866483E-1
8.676726577E0,-6.077930331E-2,-5.956524611E-1,8.704573661E-2
8.696836108E0,-3.733803928E-1,-1.145338640E-3,-3.579564989E-1
8.716945640E0,-3.871244490E-1,4.536304474E-1,-7.043069005E-1
8.737055171E0,-1.834068894E-1,4.872270525E-1,-7.409577370E-1
8.757164702E0,1.004843712E-1,2.204395086E-1,-5.117372870E-1
8.777274233E0,3.179459870E-1,-3.810159862E-2,-1.959292591E-1
8.797383765E0,3.559712470E-1,-7.597412914E-2,3.313846514E-2
8.817493296E0,2.921377122E-1,4.772244394E-2,9.758284688E-2
8.837602827E0,1.427855492E-1,1.016297117E-1,1.832541823E-2
8.857712358E0,-5.482354015E-2,8.620581776E-2,-9.559759498E-2
8.877821942E0,-1.863084137E-1,1.611109637E-2,-1.530172378E-1
8.897931473E0,-1.777565479E-1,-4.657710437E-3,-1.349972486E-1
8.918041004E0,-7.177454978E-2,2.252499200E-2,-8.047912270E-2
8.938150536E0,8.124268800E-2,7.368344814E-2,-4.688252881E-2
8.958260067E0,1.366770715E-1,5.642701685E-2,-5.696150661E-2
8.978369598E0,4.535540938E-2,-1.145338640E-3,-8.063183725E-2
8.998479129E0,-4.810422286E-2,4.695888236E-2,-1.143811494E-1
9.018588661E0,-2.076880634E-2,1.819561273E-1,-1.495048702E-1
9.038698192E0,8.948912472E-2,2.525089979E-1,-1.456870735E-1
9.058807723E0,2.136438340E-1,2.042520493E-1,-1.081199646E-1
9.078917306E0,4.103366435E-1,-4.100312293E-2,-4.352286831E-2
9.099026838E0,5.641174316E-1,-3.021403253E-1,1.313321572E-2
9.119136369E0,5.059342384E-1,-2.844257653E-1,2.641914412E-2
9.139245900E0,2.028012872E-1,2.519744914E-3,-2.596100792E-3
9.159355431E0,-2.666348219E-1,4.207974076E-1,-2.779355086E-2
9.179464963E0,-7.922688723E-1,4.424824715E-1,1.634016447E-2
9.199574494E0,-1.185501814E0,1.764585078E-1,1.043021679E-1
9.219684025E0,-1.197718740E0,5.841226876E-2,1.085781008E-1
9.239793556E0,-6.084038615E-1,2.146364599E-1,4.398100078E-2
9.259903088E0,2.483094037E-1,3.305447102E-1,-1.099525020E-2
9.280012619E0,8.104416132E-1,2.422772944E-1,4.825693369E-2
9.300122202E0,9.578084946E-1,1.391968131E-1,1.174353883E-1
9.320231733E0,7.426375747E-1,1.796654463E-1,1.794363856E-1
9.340341265E0,3.788780272E-1,2.460950911E-1,2.354816198E-1
9.360450796E0,1.589729935E-1,1.118614078E-1,2.954973578E-1
9.380560327E0,1.653869003E-1,-2.154000103E-1,4.083513916E-1
9.400669858E0,1.438545287E-1,-5.177693963E-1,4.570664763E-1
9.420779390E0,-1.003316641E-1,-5.461738110E-1,3.025220931E-1
9.440888921E0,-4.892886579E-1,-1.474432498E-1,-2.657185495E-2
9.460998452E0,-5.799994469E-1,4.461475611E-1,-3.313846290E-1
9.481108036E0,-3.497100472E-1,5.945834517E-1,-3.991886973E-1
9.501217567E0,-1.380514801E-1,3.117611706E-1,-1.791309565E-1
9.521327098E0,-6.245913357E-2,-1.821088344E-1,1.597365588E-1
9.541436629E0,-5.864133686E-2,-3.952945471E-1,3.773508966E-1
9.561546161E0,-4.474456236E-2,-2.486911863E-1,3.805578351E-1
9.581655692E0,-2.076880634E-2,-5.825955793E-2,2.652604282E-1
9.601765223E0,1.969982497E-2,4.054498672E-2,1.440072358E-1
9.621874754E0,9.315420873E-3,-5.230379477E-2,8.063183725E-2
9.641984286E0,-3.848337755E-2,-1.440836042E-1,6.658235192E-2
9.662093817E0,-8.338065445E-2,-1.524827480E-1,5.482354015E-2
9.682203348E0,-1.374406368E-1,-9.689565003E-2,5.451811850E-2
9.702312931E0,-1.618745178E-1,-4.879142344E-2,6.490252167E-2
9.722422463E0,-1.638597846E-1,-8.086090535E-2,6.704048812E-2
9.742531994E0,-8.200624585E-2,-9.979717433E-2,6.536065787E-2
9.762641525E0,2.504473738E-2,-1.466796994E-1,5.680879578E-2
9.782751056E0,7.528692484E-2,-2.018086612E-1,5.253286287E-2
9.802860588E0,8.628217876E-2,-2.381540686E-1,3.344388679E-2
9.822970119E0,7.360709459E-2,-2.628933787E-1,2.916795574E-2
9.843079650E0,5.711421743E-2,-2.259371281E-1,2.916795574E-2
9.863189181E0,7.666133344E-2,-1.489703804E-1,-3.206948051E-3
9.883298713E0,1.267508119E-1,-1.184280142E-1,-4.123219103E-2
9.903408296E0,1.643179059E-1,-1.326302141E-1,-6.673506647E-2
9.923517827E0,3.726168349E-2,-4.033882618E-1,-4.520269856E-2
9.943627358E0,-3.130592108E-1,-6.994964480E-1,4.230117425E-2
9.963736890E0,-6.919372082E-1,-6.196281910E-1,2.870982140E-2
9.983846421E0,-1.028666735E0,-5.623612404E-1,-3.680354729E-2
1.000395595E1,-9.119949341E-1,-2.798444033E-1,-4.550812021E-2
1.002406548E1,-2.707580328E-1,3.821613193E-1,-4.627167806E-2
1.004417502E1,4.969242513E-1,7.126296759E-1,-3.023693897E-2
1.006428455E1,9.857547879E-1,4.055262208E-1,4.382828996E-2
1.008439408E1,1.078298092E0,-1.576749533E-1,1.383569092E-1
1.010450366E1,7.945595980E-1,-6.223769784E-1,2.130329758E-1
1.012461319E1,2.750339806E-1,-7.292752862E-1,2.362451702E-1
1.014472272E1,-1.898207814E-1,-4.295019805E-1,8.765657991E-2
1.016483225E1,-4.662291706E-1,4.512634128E-2,-2.379250079E-1
1.018494179E1,-5.037962794E-1,4.705814719E-1,-5.444176197E-1
1.020505132E1,-2.704526186E-1,6.103127599E-1,-6.471926570E-1
1.022516085E1,9.636115283E-2,4.734829962E-1,-4.871506989E-1
1.024527038E1,3.342861533E-1,2.040993422E-1,-2.092151791E-1
1.026537991E1,3.307738006E-1,5.810684711E-2,7.788302377E-3
1.028548944E1,1.695101112E-1,1.520246118E-1,5.085303262E-2
1.030559903E1,-4.443913698E-2,2.621298432E-1,-5.253286287E-2
1.032570856E1,-2.183778882E-1,2.774010003E-1,-1.739387512E-1
1.034581809E1,-2.542651594E-1,2.123457789E-1,-2.211267054E-1
1.036592762E1,-1.522536725E-1,1.596602052E-1,-1.821851879E-1
1.038603715E1,-2.947338112E-2,1.617981642E-1,-9.513945878E-2
1.040614668E1,2.657185495E-2,2.048628926E-1,-8.551862091E-3
1.042625621E1,2.809897438E-2,2.131093442E-1,4.245388508E-2
1.044636574E1,2.977880463E-2,1.724879891E-1,4.642439261E-2
1.046647528E1,1.954711229E-2,1.248419061E-1,1.954711229E-2
1.048658481E1,-7.482878864E-3,8.926005661E-2,-1.908897609E-2
1.050669439E1,-4.260659590E-2,7.124006003E-2,-2.519745007E-2
1.052680392E1,-4.169032723E-2,7.353074104E-2,1.954711229E-2
1.054691345E1,-7.941014133E-3,6.696412712E-2,8.185353130E-2
1.056702298E1,-6.719320081E-3,6.085565686E-2,1.278197914E-1
1.058713252E1,-1.450762246E-2,8.513683826E-2,1.258345395E-1
1.060724205E1,-2.718270384E-2,1.472905427E-1,6.994201243E-2
1.062735158E1,-4.535540938E-2,2.268534005E-1,3.237490356E-2
1.064746111E1,-1.634016447E-2,2.844257653E-1,6.123743951E-2
1.066757069E1,5.375456065E-2,2.638096511E-1,1.360662282E-1
1.068768017E1,5.635065958E-2,1.253000498E-1,2.197522968E-1
1.070778975E1,-1.461452097E-1,-2.178433985E-1,2.648022771E-1
1.072789929E1,-6.420004964E-1,-6.290963292E-1,2.713688910E-1
1.074800882E1,-8.669449687E-1,-4.817294180E-1,2.779355049E-1
1.076811835E1,-3.704788685E-1,1.453052908E-1,1.658450365E-1
1.078822788E1,3.295520842E-1,5.368583798E-1,7.727217674E-2
1.080833741E1,5.749599934E-1,4.182012975E-1,1.201841980E-1
1.082844694E1,4.350759685E-1,1.729461253E-1,1.742441803E-1
1.084855647E1,1.742441803E-1,-6.696412712E-2,2.101314515E-1
1.086866600E1,-1.389677543E-2,-2.587701678E-1,3.377985358E-1
1.088877559E1,-2.748812549E-3,-3.195494711E-1,4.618005157E-1
1.090888512E1,1.250709742E-1,-2.451788187E-1,4.587462842E-1
1.092899465E1,1.794363856E-1,-8.422056586E-2,3.370349705E-1
1.094910418E1,1.449235082E-1,1.332410574E-1,1.514901221E-1
1.096921371E1,1.125486046E-1,2.780118585E-1,2.550287358E-2
1.098932324E1,1.026223376E-1,3.284067512E-1,1.649287529E-2
1.100943278E1,3.619270027E-2,2.318928838E-1,1.029277667E-1
1.102954231E1,-9.330692142E-2,8.651123941E-2,2.344126403E-1
1.104965184E1,-1.928750277E-1,3.046600707E-2,2.736595869E-1
1.106976142E1,-2.082989216E-1,3.855973482E-2,2.165453583E-1
1.108987095E1,-2.092151791E-1,4.894413799E-2,1.290414780E-1
1.110998048E1,-2.244863659E-1,5.612159148E-2,1.009425074E-1
1.113009002E1,-1.979145110E-1,1.901262067E-2,1.339282542E-1
1.115019955E1,-1.314848661E-1,-8.628217503E-3,1.699682474E-1
1.117030908E1,-7.146912813E-2,-1.611109637E-2,1.682884246E-1
1.119041861E1,-5.421269313E-2,-5.344913807E-4,1.324011385E-1
1.121052814E1,-7.620319724E-2,1.214058883E-2,8.719844371E-2
1.123063767E1,-9.697200358E-2,1.183516532E-2,3.054236248E-2
1.125074720E1,-7.040014863E-2,2.695363574E-2,7.177455351E-3
1.127085679E1,8.551862091E-3,-1.641651988E-2,9.468132630E-3
1.129096632E1,7.803573459E-2,-1.039203927E-1,2.886253223E-2
1.131107585E1,1.401894391E-1,-2.114295065E-1,3.313846514E-2
1.133118538E1,1.663031727E-1,-2.838149071E-1,1.130067464E-2
1.135129491E1,1.250709742E-1,-3.108448982E-1,-3.268032894E-2
1.137140444E1,6.016845629E-2,-2.668638825E-1,-8.750387281E-2
1.139151397E1,7.330167107E-3,-2.189123929E-1,-1.316375881E-1
1.141162350E1,-1.815743446E-1,-4.174377322E-1,-1.087308154E-1
1.143173309E1,-5.993938446E-1,-6.715502143E-1,-4.795150831E-2
1.145184262E1,-9.892671108E-1,-5.670953393E-1,-1.330119967E-1
1.147195215E1,-1.075854778E0,-2.842730284E-1,-3.683409095E-1
1.149206168E1,-8.678612709E-1,8.284615725E-2,-5.810684562E-1
1.151217121E1,-6.042806506E-1,4.088858962E-1,-5.738909841E-1
1.153228074E1,-2.437280566E-1,6.038988829E-1,-3.474193811E-1
1.155239028E1,4.133908749E-1,5.617504120E-1,-8.215895295E-2
1.157249981E1,1.076465607E0,1.785964668E-1,1.438545287E-1
1.159260934E1,1.286673427E0,-3.688753843E-1,3.090887070E-1
1.161271887E1,9.794935584E-1,-8.092962503E-1,3.671191931E-1
1.163282845E1,3.813214004E-1,-9.308548570E-1,2.643441558E-1
1.165293798E1,-2.221956849E-1,-5.093702674E-1,-4.062134400E-2
1.167304752E1,-4.208737612E-1,3.299338818E-1,-4.460712075E-1
1.169315705E1,-8.643488586E-2,8.442672491E-1,-6.781931520E-1
1.171326658E1,3.338280320E-1,6.975111961E-1,-5.648810267E-1
1.173337611E1,5.210527182E-1,1.982962936E-1,-2.211267054E-1
1.175348564E1,4.946335554E-1,-7.627955079E-2,6.673506647E-2
1.177359517E1,3.556658030E-1,2.893888950E-2,1.482831687E-1
1.179370470E1,1.688992679E-1,2.357106805E-1,7.360709459E-2
1.181381429E1,-4.734066315E-3,3.073325157E-1,-5.085303262E-2
1.183392382E1,-1.244601309E-1,2.222720534E-1,-1.314848661E-1
1.185403335E1,-1.221694499E-1,9.949174523E-2,-1.285833418E-1
1.187414288E1,-6.704048812E-2,6.635328382E-2,-8.017370105E-2
1.189425241E1,-3.161134571E-2,1.167481840E-1,-1.130067464E-2
1.191436194E1,-2.000524849E-2,1.717244387E-1,1.847812906E-2
1.193447147E1,-1.710372418E-2,1.869956106E-1,2.031067200E-2
1.195458100E1,1.084253844E-2,1.593547761E-1,-0.000000000E0
1.197469059E1,1.450762246E-2,1.179698780E-1,-1.893626526E-2
1.199480012E1,-3.206948051E-3,1.071273386E-1,-1.679829881E-2
1.201490965E1,-1.985253533E-3,1.692810506E-1,-3.054236295E-3
1.203501918E1,2.214321308E-2,2.184542567E-1,-8.704573847E-3
1.205512871E1,-1.557660475E-2,1.802763045E-1,-1.252236869E-2
1.207523824E1,-1.099525094E-1,1.022405624E-1,6.872031838E-3
1.209534778E1,-1.864611208E-1,4.344651103E-2,6.123743951E-2
1.211545731E1,-2.195995897E-1,7.398887724E-2,1.265980899E-1
1.213556684E1,-1.498102844E-1,1.449998617E-1,1.640124917E-1
1.215567637E1,6.719320081E-3,1.953947693E-1,1.598892659E-1
1.217578595E1,3.512371797E-3,-1.901262067E-2,2.003578991E-1
1.219589548E1,-2.327328026E-1,-1.732515544E-1,2.399102598E-1
1.221600502E1,-6.027535200E-1,-1.918824017E-1,1.957765520E-1
1.223611455E1,-8.793146014E-1,-2.085279822E-1,1.334701329E-1
1.225622408E1,-7.113316059E-1,1.427855436E-2,8.353336155E-2
1.227633361E1,1.053711493E-2,3.829248846E-1,5.971032009E-2
1.229644314E1,7.609629631E-1,4.786751866E-1,1.061347127E-1
1.231655267E1,1.019962192E0,2.430408597E-1,1.965401024E-1
1.233666225E1,7.243121266E-1,-1.512610465E-1,2.386885732E-1
1.235677179E1,1.256818175E-1,-3.969743550E-1,2.929012477E-1
1.237688132E1,-2.374668717E-1,-3.580328524E-1,3.437542915E-1
1.239699085E1,-1.838650256E-1,-2.657949030E-1,3.006895781E-1
1.241710038E1,3.405473381E-2,-2.025722265E-1,2.315111160E-1
1.243720991E1,1.803526580E-1,-1.395022422E-1,1.221694499E-1
1.245731944E1,2.388412803E-1,1.908897655E-3,2.962609194E-2
1.247742897E1,2.693836391E-1,1.051420867E-1,1.634016447E-2
1.249753850E1,2.449497581E-1,1.170536056E-1,7.925742865E-2
1.251764804E1,1.595838517E-1,6.085565686E-2,1.630962193E-1
1.253775762E1,5.986303091E-2,-2.206685767E-2,2.078407854E-1
1.255786715E1,-1.527118147E-3,-6.192464009E-2,2.055501044E-1
1.257797668E1,1.206423342E-2,-3.932329267E-2,1.745496094E-1
1.259808621E1,3.924693540E-2,-1.298050396E-3,1.406475753E-1
1.261819574E1,5.100574717E-2,2.802261710E-2,1.244601309E-1
1.263830528E1,5.222744122E-2,1.809635013E-2,1.177408099E-1
1.265841481E1,4.245388508E-2,-1.290414855E-2,1.181989461E-1
1.267852434E1,3.405473381E-2,-3.901786730E-2,1.214058921E-1
1.269863392E1,2.672456764E-2,-4.787515476E-2,1.131594554E-1
1.271874345E1,2.458660305E-2,-2.893888950E-2,8.460234851E-2
1.273885298E1,3.481829539E-2,-2.206685767E-2,3.237490356E-2
1.275896252E1,1.343864016E-2,-8.498412371E-2,-3.115320951E-2
1.277907205E1,-3.619270027E-2,-1.587439328E-1,-8.093725890E-2
1.279918158E1,-8.444963396E-2,-2.050156146E-1,-1.148392856E-1
1.281929111E1,-1.550024897E-1,-2.099023908E-1,-1.466033459E-1
1.283940064E1,-2.589992285E-1,-1.842468083E-1,-1.745496094E-1
1.285951017E1,-3.362714052E-1,-1.660740972E-1,-2.145601064E-1
1.287961975E1,-3.639122546E-1,-1.567586809E-1,-2.371614426E-1
1.289972929E1,-2.903051674E-1,-6.436803192E-2,-2.557922900E-1
1.291983882E1,-2.727433145E-1,-2.082225531E-1,-3.086305857E-1
1.293994835E1,-5.079194903E-1,-5.742727518E-1,-2.217375487E-1
1.296005788E1,-7.429429889E-1,-5.745782256E-1,-5.711421743E-2
1.298016741E1,-7.122479081E-1,-2.015032321E-1,-2.993151546E-2
1.300027694E1,-3.051182032E-1,3.093177676E-1,-2.327328026E-1
1.302038647E1,1.960819662E-1,6.155049801E-1,-5.609105229E-1
1.304049600E1,5.906893015E-1,5.703022480E-1,-7.634063363E-1
1.306060554E1,8.104416132E-1,2.920613587E-1,-7.412631512E-1
1.308071512E1,7.689039707E-1,-1.132358089E-1,-4.680617154E-1
1.310082465E1,5.427377820E-1,-4.936409295E-1,-1.649287529E-2
1.312093418E1,2.527380586E-1,-6.118398905E-1,3.252761662E-1
1.314104371E1,-5.100574717E-2,-3.755947053E-1,2.641914487E-1
1.316115324E1,-2.715215981E-1,1.317139417E-1,-1.233911440E-1
1.318126278E1,-2.023431510E-1,5.991647840E-1,-5.551074743E-1
1.320137231E1,6.704048812E-2,6.006919146E-1,-6.722373962E-1
1.322148184E1,3.161134422E-1,3.474957347E-1,-4.492781460E-1
1.324159137E1,4.352286756E-1,5.352549255E-2,-9.407047927E-2
1.326170090E1,4.303418994E-1,-5.306735635E-2,1.739387512E-1
1.328181048E1,3.064926267E-1,1.824906096E-2,2.112004459E-1
1.330192002E1,1.087308154E-1,7.475243509E-2,8.903098851E-2
1.332202955E1,-9.025268257E-2,4.298837483E-2,-9.880454093E-2
1.334213908E1,-1.658450365E-1,-6.337540224E-3,-2.124221325E-1
1.336224861E1,-1.366770715E-1,1.168245357E-2,-2.173089087E-1
1.338235814E1,-6.398624927E-2,8.025006205E-2,-1.125486046E-1
1.340246767E1,1.908897609E-2,7.444700599E-2,2.305948362E-2
1.342257720E1,7.452336699E-2,4.421006888E-2,8.994726092E-2
1.344268673E1,7.895200700E-2,4.818057641E-2,6.551336497E-2
1.346279632E1,5.604523420E-2,6.100837141E-2,5.803049076E-3
1.348290585E1,-2.290677279E-3,6.757497787E-2,-2.183778957E-2
1.350301538E1,-9.422318637E-2,1.046075951E-2,1.404948719E-2
1.352312491E1,-1.209477559E-1,-1.244601328E-2,9.895725548E-2
1.354323444E1,-6.566607952E-2,-5.421269219E-3,1.488940120E-1
1.356334397E1,-7.941014133E-3,-3.626905754E-2,1.777565479E-1
1.358345350E1,3.634541109E-2,2.519744914E-3,1.875301152E-1
1.360356304E1,1.078145429E-1,4.634803534E-2,1.847812980E-1
1.362367257E1,1.798945218E-1,1.326302141E-1,1.806580722E-1
1.364378215E1,1.772984117E-1,1.251473278E-1,1.817270666E-1
1.366389168E1,2.305948362E-2,-9.765920788E-2,2.122694254E-1
1.368400121E1,-2.382304370E-1,-2.369323820E-1,2.386885732E-1
1.370411074E1,-5.467082858E-1,-3.658211529E-1,2.289150059E-1
1.372422028E1,-6.780404449E-1,-4.847836494E-1,2.153236568E-1
1.374432981E1,-3.263451457E-1,-2.076117098E-1,2.076880634E-1
1.376443934E1,3.805578351E-1,4.357631505E-1,2.050919682E-1
1.378454887E1,8.819107413E-1,6.883485317E-1,2.180724740E-1
1.380465840E1,9.142856598E-1,3.847574294E-1,2.773246467E-1
1.382476793E1,5.380037427E-1,-9.796462953E-2,3.550549746E-1
1.384487752E1,-1.236965694E-2,-4.108711481E-1,4.107947946E-1
1.386498705E1,-3.061871827E-1,-3.786489367E-1,3.985778391E-1
1.388509658E1,-2.073826492E-1,-1.979908645E-1,3.029802442E-1
1.390520611E1,5.726693198E-2,4.466820508E-2,1.795890927E-1
1.392531564E1,2.116585821E-1,1.966164559E-1,1.354553849E-1
1.394542517E1,2.487675399E-1,2.520508468E-1,1.731752008E-1
1.396553470E1,2.165453583E-1,2.349471301E-1,2.229592502E-1
1.398564423E1,9.529217333E-2,1.269798726E-1,2.780882120E-1
1.400575377E1,-7.238540053E-2,-9.239064530E-3,2.919849753E-1
1.402586335E1,-2.586938143E-1,-1.572168171E-1,2.383831441E-1
1.404597288E1,-3.332171738E-1,-2.856474519E-1,1.794363856E-1
1.406608241E1,-2.961082160E-1,-2.952682972E-1,1.269035190E-1
1.408619194E1,-2.090624720E-1,-1.778329015E-1,1.850867122E-1
1.410630147E1,-1.009425074E-1,1.721825749E-1,2.640387416E-1
1.412641100E1,-4.963133857E-2,1.793600321E-1,2.023431510E-1
1.414652054E1,2.779355086E-2,-1.953947693E-1,7.330167294E-2
1.416663007E1,9.926267900E-3,-1.960056126E-1,-8.612946421E-2
1.418673960E1,-9.208522737E-2,-5.001311749E-2,-1.663031727E-1
1.420684913E1,-1.722589284E-1,1.007134393E-1,-1.823379099E-1
1.422695866E1,-1.742441803E-1,1.682120711E-1,-1.151447073E-1
1.424706824E1,-4.672981426E-2,7.200361788E-2,-5.451811850E-2
1.426717778E1,1.120904684E-1,-9.567394853E-2,-4.443913698E-2
1.428728731E1,1.771457046E-1,-1.840940863E-1,-4.123219103E-2
1.430739684E1,1.319430023E-1,-1.859266311E-1,-5.131116882E-2
1.432750637E1,3.374931216E-2,-1.717244387E-1,-8.139539510E-2
1.434761590E1,-3.222219273E-2,-1.404185146E-1,-1.382041872E-1
1.436772543E1,-8.047912270E-2,-1.256054640E-1,-1.872246861E-1
1.438783496E1,-2.287622988E-1,-2.975589633E-1,-2.021904439E-1
1.440794455E1,-5.760289431E-1,-6.133670211E-1,-1.716480851E-1
1.442805408E1,-8.489249945E-1,-4.759263694E-1,-1.824906170E-1
1.444816361E1,-7.601994276E-1,-1.095707268E-1,-3.090887070E-1
1.446827314E1,-3.348970115E-1,1.411820799E-1,-3.857500553E-1
1.448838267E1,8.063183725E-2,3.119138777E-1,-3.658975065E-1
1.450849220E1,3.176405728E-1,4.183540046E-1,-3.008422852E-1
1.452860173E1,4.679090083E-1,4.036936760E-1,-2.429644912E-1
1.454871127E1,6.073349118E-1,3.354314864E-1,-1.878355294E-1
1.456882080E1,5.905365944E-1,1.039203927E-1,-1.606528312E-1
1.458893038E1,3.295520842E-1,-2.358634025E-1,-1.255291104E-1
1.460903986E1,-4.581354558E-2,-5.127299428E-1,-1.298050433E-1
1.462914944E1,-4.506525695E-1,-5.467846394E-1,-2.660239935E-1
1.464925897E1,-7.667660117E-1,-2.405974567E-1,-4.588989913E-1
1.466936850E1,-6.849125028E-1,3.360423446E-1,-5.920637250E-1
1.468947804E1,-2.026485801E-1,7.146149278E-1,-5.125008225E-1
1.470958757E1,3.336753249E-1,6.695649624E-1,-2.110477239E-1
1.472969710E1,6.105418205E-1,3.281013370E-1,9.422318637E-2
1.474980663E1,5.676298141E-1,2.802261710E-2,2.371614426E-1
1.476991616E1,2.709107697E-1,-1.054475084E-1,1.685938388E-1
1.479002569E1,-1.258345395E-1,-7.979192585E-2,-9.468132630E-3
1.481013528E1,-3.507790267E-1,4.588989913E-2,-1.762294322E-1
1.483024481E1,-3.483356535E-1,9.384141117E-2,-2.429644912E-1
1.485035434E1,-2.490729690E-1,3.932329267E-2,-1.757712960E-1
1.487046387E1,-1.695101112E-1,-2.435753495E-2,-5.635065958E-2
1.489057340E1,-1.211004704E-1,-1.076618303E-2,2.412846684E-2
1.491068293E1,-7.055285573E-2,8.437328041E-2,5.222744122E-2
1.493079246E1,1.618745178E-2,1.802763045E-1,5.894676223E-2
1.495090199E1,9.773556143E-2,1.862320602E-1,7.192726433E-2
1.497101153E1,1.062874198E-1,1.314085126E-1,9.956810623E-2
1.499112111E1,7.085828483E-2,8.422056586E-2,1.096470803E-1
1.501123064E1,-3.817795310E-3,8.788564801E-2,1.047603041E-1
1.503134017E1,-2.214321308E-2,1.387386769E-1,1.194206402E-1
1.505144970E1,1.740914769E-2,1.437781751E-1,1.450762302E-1
1.507155923E1,4.443913698E-2,1.040730998E-1,1.782146841E-1
1.509166877E1,3.924693540E-2,9.811734408E-2,1.831014603E-1
1.511177830E1,2.137965336E-2,1.330883503E-1,1.582094431E-1
1.513188783E1,3.939964995E-2,2.317401767E-1,1.525591016E-1
1.515199736E1,7.895200700E-2,3.166479468E-1,1.400367320E-1
1.517210689E1,1.893626526E-2,1.086544544E-1,1.673721522E-1
1.519221647E1,-1.537808031E-1,-1.213295385E-1,2.783936262E-1
1.521232600E1,-3.049654961E-1,-7.337802649E-2,2.867927849E-1
1.523243554E1,-4.981459379E-1,-1.779856235E-1,2.247917950E-1
1.525254507E1,-5.089884996E-1,-2.040993422E-1,1.847812980E-1
1.527265460E1,1.954711229E-2,2.572430372E-1,1.275143623E-1
1.529276413E1,7.945595980E-1,7.007181644E-1,1.123958975E-1
1.531287366E1,1.076007485E0,5.200600624E-1,1.863084137E-1
1.533298319E1,6.939224601E-1,-7.689040154E-2,3.153499067E-1
1.535309272E1,-5.711421743E-2,-5.921400785E-1,4.146125913E-1
1.537320231E1,-6.248967648E-1,-6.055787206E-1,3.927747905E-1
1.539331184E1,-6.748335361E-1,-2.184542567E-1,1.835595965E-1
1.541342137E1,-2.203631550E-1,3.178696334E-1,-3.970507160E-2
1.543353090E1,3.225273490E-1,4.782170355E-1,-1.015533581E-1
1.545364043E1,5.431959033E-1,2.792335451E-1,3.054236248E-2
1.547374996E1,4.475983381E-1,1.229330152E-2,2.386885732E-1
1.549385949E1,1.921114624E-1,-1.410293579E-1,3.765873313E-1
1.551396903E1,-2.947338112E-2,-8.651123941E-2,3.868190348E-1
1.553407856E1,-9.529217333E-2,1.488940232E-2,2.702999115E-1
1.555418814E1,-6.200099736E-2,9.391776286E-3,1.256818175E-1
1.557429767E1,-1.068982668E-2,-1.039203927E-1,4.504998401E-2
1.559440720E1,-4.581354442E-4,-1.932567954E-1,4.764608666E-2
1.561451673E1,-6.062658876E-2,-1.422510594E-1,7.864658535E-2
1.563462627E1,-1.291942000E-1,-3.122956678E-2,8.414421231E-2
1.565473580E1,-1.551551968E-1,2.405211143E-2,5.635065958E-2
1.567484533E1,-1.224748790E-1,-5.344913807E-4,1.007897966E-2
1.569495486E1,-8.338065445E-2,-5.520532280E-2,-2.870982140E-2
1.571506444E1,-6.841489673E-2,-6.971294433E-2,-3.970507160E-2
1.573517397E1,-7.589777559E-2,-5.749600008E-2,-3.756710514E-2
1.575528350E1,-5.894676223E-2,-1.916533336E-2,-3.512371704E-2
1.577539304E1,-1.068982668E-2,-6.497887522E-2,-2.779355086E-2
1.579550257E1,-3.008422814E-2,-1.732515544E-1,-3.054236248E-2
1.581561210E1,-1.223221645E-1,-2.008923888E-1,-6.536065787E-2
1.583572163E1,-1.782146841E-1,-1.453052908E-1,-1.119377613E-1
1.585583116E1,-2.104368806E-1,-1.900498569E-1,-1.195733473E-1
1.587594069E1,-3.895678520E-1,-4.024719894E-1,-1.108687744E-1
1.589605028E1,-8.313631415E-1,-6.681905389E-1,-9.773556143E-2
1.591615981E1,-1.082421303E0,-4.027774036E-1,-1.771457046E-1
1.593626934E1,-7.449282408E-1,2.690018713E-1,-3.225273490E-1
1.595637887E1,-2.031067200E-2,7.205706835E-1,-3.326063454E-1
1.597648840E1,6.578825116E-1,6.808656454E-1,-2.177670449E-1
1.599659793E1,1.035996914E0,2.838149071E-1,-8.750387281E-2
1.601670746E1,1.065164924E0,-2.405211143E-2,-9.468132630E-3
1.603681699E1,8.958075047E-1,-3.489464894E-2,-1.847812906E-2
1.605692652E1,4.764608741E-1,-2.120403498E-1,-7.803573459E-2
1.607703611E1,-1.067455560E-1,-5.362475514E-1,-1.374406368E-1
1.609714564E1,-6.331431866E-1,-6.132143140E-1,-3.197785318E-1
1.611725517E1,-9.755230546E-1,-3.419981003E-1,-6.117635369E-1
1.613736470E1,-7.266027927E-1,2.334200144E-1,-8.231166601E-1
1.615747423E1,5.650337320E-3,5.669426322E-1,-7.409577370E-1
1.617758376E1,6.232169271E-1,4.485909641E-1,-4.068242610E-1
1.619769330E1,7.556180358E-1,1.141520813E-1,-8.506047726E-2
1.621780283E1,4.588989913E-1,-1.532463133E-1,4.214845970E-2
1.623791241E1,9.620844387E-3,-1.572168171E-1,-4.611896724E-2
1.625802194E1,-2.828222811E-1,-6.032116711E-3,-2.490729690E-1
1.627813147E1,-2.939702570E-1,8.880192041E-2,-3.888042867E-1
1.629824100E1,-1.386623234E-1,6.314633787E-2,-3.593308926E-1
1.631835054E1,9.819369763E-2,4.588989913E-2,-2.232646793E-1
1.633846007E1,2.605263591E-1,5.291464552E-2,-9.315420687E-2
1.635856960E1,2.550287247E-1,5.352549255E-2,-2.107422985E-2
1.637867913E1,1.887518018E-1,5.367820337E-2,7.635590737E-4
1.639878871E1,1.449235082E-1,2.267770469E-2,-1.389677543E-2
1.641889824E1,1.047603041E-1,5.268557463E-3,-1.801999472E-2
1.643900778E1,1.107160673E-1,2.741177008E-2,-4.581354442E-4
1.645911731E1,1.441599578E-1,1.748550311E-2,2.962609194E-2
1.647922684E1,1.585148573E-1,6.161921844E-2,4.840964451E-2
1.649933637E1,1.437018216E-1,1.311030984E-1,2.702999115E-2
1.651944590E1,7.375980914E-2,1.521773189E-1,-2.031067200E-2
1.653955543E1,1.679830020E-3,1.917296797E-1,-5.207473040E-2
1.655966502E1,-2.076880634E-2,2.062373012E-1,-6.276455522E-2
1.657977455E1,-1.420219839E-1,-5.726693198E-3,-2.611372061E-2
1.659988408E1,-5.209000111E-1,-5.393017530E-1,5.818320066E-2
1.661999361E1,-1.044090629E0,-9.940775633E-1,1.603474021E-1
1.664010314E1,-1.027445078E0,-7.056049109E-1,1.377460510E-1
1.666021267E1,-3.054236174E-1,5.856497958E-2,-1.236965694E-2
1.668032220E1,4.046863019E-1,5.507551432E-1,-5.986303091E-2
1.670043173E1,6.529957056E-1,5.280010700E-1,-4.275931045E-3
1.672054132E1,6.754443645E-1,5.055524707E-1,4.657710344E-2
1.674065085E1,5.796940327E-1,4.936409295E-1,-2.962609194E-2
1.676076038E1,1.966928244E-1,2.369323820E-1,-9.284878522E-2
1.678086991E1,-1.876828223E-1,-2.482330501E-1,4.596625641E-2
1.680097944E1,-2.186833173E-1,-7.129350901E-1,2.841966748E-1
1.682108897E1,-3.283303976E-2,-8.187643886E-1,4.104893506E-1
1.684119850E1,7.788302377E-3,-4.890595973E-1,3.187095523E-1
1.686130809E1,-1.012479365E-1,9.323056042E-2,5.635065958E-2
1.688141762E1,-1.730224788E-1,4.556156993E-1,-1.441599578E-1
1.690152715E1,-1.189625040E-1,4.750100970E-1,-9.590301663E-2
1.692163668E1,-7.482878864E-3,2.641150951E-1,9.834641218E-2
1.694174621E1,3.038965166E-2,-1.458397787E-2,3.003841341E-1
1.696185574E1,-1.572931744E-2,-1.112505570E-1,4.013266563E-1
1.698196528E1,-5.299099907E-2,-2.619007602E-2,3.642176688E-1
1.700207481E1,-3.054236248E-2,5.184566230E-2,2.886253297E-1
1.702218434E1,1.389677543E-2,2.344126441E-2,2.318165302E-1
1.704229392E1,6.322269142E-2,-5.123481527E-2,2.064663768E-1
1.706240345E1,9.773556143E-2,-8.666395396E-2,1.907370538E-1
1.708251298E1,8.857285231E-2,-7.612683624E-2,1.766875684E-1
1.710262252E1,5.848862603E-2,-7.643226534E-2,1.559187621E-1
1.712273205E1,2.321219631E-2,-1.004080176E-1,1.160609797E-1
1.714284158E1,5.039489828E-3,-1.034622565E-1,7.589777559E-2
1.716295111E1,1.771457121E-2,-7.933378965E-2,4.031591862E-2
1.718306069E1,6.520794332E-2,-5.841226876E-2,8.704573847E-3
1.720317022E1,9.315420687E-2,-8.345700800E-2,-1.572931744E-2
1.722327975E1,8.002099395E-2,-1.457634270E-1,-2.336490713E-2
1.724338929E1,5.589252338E-2,-2.092915475E-1,-2.977880463E-2
1.726349882E1,5.176930502E-2,-2.325037420E-1,-4.062134400E-2
1.728360835E1,7.452336699E-2,-2.387649268E-1,-6.169557199E-2
1.730371788E1,8.368607610E-2,-2.631988227E-1,-8.185353130E-2
1.732382741E1,6.108472496E-2,-2.598391473E-1,-8.567132801E-2
1.734393699E1,6.108472589E-4,-3.305447102E-1,-8.399149776E-2
1.736404653E1,-1.620272398E-1,-4.800495803E-1,-4.275930673E-2
1.738415606E1,-3.216110766E-1,-4.241570532E-1,-6.719319522E-2
1.740426559E1,-4.746283293E-1,-4.667636752E-1,-1.667613089E-1
1.742437512E1,-5.740436912E-1,-4.206447005E-1,-2.832804024E-1
1.744448465E1,-4.752391577E-1,2.977880416E-3,-4.210264683E-1
1.746459423E1,-1.015533581E-1,6.454364657E-1,-5.063923597E-1
1.748470377E1,3.855973184E-1,8.094489574E-1,-4.785988331E-1
1.750481330E1,7.322531343E-1,4.067479074E-1,-3.155026138E-1
1.752492283E1,7.591304183E-1,-2.045574784E-1,-1.197260618E-1
1.754503236E1,4.040754735E-1,-5.397599339E-1,2.046338283E-2
1.756514189E1,-1.026223376E-1,-3.293230236E-1,-1.939439960E-2
1.758525142E1,-4.480564594E-1,1.987544298E-1,-2.776300907E-1
1.760536095E1,-5.573981404E-1,5.431195498E-1,-5.245651007E-1
1.762547054E1,-4.501944184E-1,5.304445028E-1,-5.436540842E-1
1.764558007E1,-1.672194302E-1,3.242835402E-1,-3.600944579E-1
1.766568960E1,1.519482583E-1,1.508029103E-1,-7.467607409E-2
1.768579913E1,3.440597057E-1,9.292513877E-2,1.827960461E-1
1.770590866E1,3.034383655E-1,6.177192926E-2,2.887780368E-1
1.772601819E1,9.575030953E-2,2.405211143E-2,2.736595869E-1
1.774612772E1,-5.115845799E-2,5.902311578E-2,1.708845198E-1
1.776623731E1,1.313321572E-2,1.314085126E-1,7.207997888E-2
1.778634684E1,1.855448484E-1,1.211768240E-1,6.139015034E-2
1.780645637E1,2.951919436E-1,5.627430230E-2,1.404948682E-1
1.782656590E1,2.617480457E-1,3.061871976E-2,1.872246861E-1
1.784667543E1,1.692046970E-1,6.757497787E-2,1.640124917E-1
1.786678496E1,1.291942000E-1,2.802261710E-2,1.349972486E-1
1.788689455E1,1.762294322E-1,-8.544225991E-2,1.643179059E-1
1.790700408E1,2.476985604E-1,-1.303395331E-1,1.826433241E-1
1.792711361E1,2.336490750E-1,-5.749600008E-2,1.385096163E-1
1.794722314E1,1.313321590E-1,8.254073560E-2,5.757235363E-2
1.796733267E1,1.343864016E-2,1.712663025E-1,-4.123218823E-3
1.798744220E1,-3.191677108E-2,1.595074832E-1,-2.214321308E-2
1.800755173E1,-3.817795310E-3,1.179698780E-1,-1.771457121E-2
1.802766127E1,3.817795310E-3,9.704835713E-2,-2.473931387E-2
1.804777085E1,-5.131116882E-2,1.214822456E-1,-5.161659420E-2
1.806788038E1,-1.130067408E-1,1.126249656E-1,-7.116370648E-2
1.808798991E1,-8.826743066E-2,-3.061871976E-2,-9.620844387E-3
1.810809944E1,-9.162708884E-4,-1.141520813E-1,7.131642103E-2
1.812820897E1,-1.476723254E-1,-3.419981003E-1,1.134648770E-1
1.814831850E1,-6.351284385E-1,-6.709393859E-1,1.388150454E-1
1.816842809E1,-8.365553021E-1,-4.288911223E-1,1.725643501E-2
1.818853762E1,-3.775036037E-1,1.468324065E-1,-1.572931707E-1
1.820864715E1,4.265241027E-1,5.567108989E-1,-1.018587798E-1
1.822875668E1,9.541434050E-1,5.250995755E-1,9.391776472E-2
1.824886621E1,9.048175216E-1,1.280488521E-1,2.699944973E-1
1.826897574E1,2.780882120E-1,-3.406237066E-1,3.610107303E-1
1.828908528E1,-3.738385141E-1,-4.119401276E-1,3.771981895E-1
1.830919481E1,-5.409052372E-1,-1.843995154E-1,2.382304370E-1
1.832930439E1,-3.381039500E-1,4.924955964E-2,8.567132801E-2
1.834941392E1,-3.665083647E-2,1.243837699E-1,4.886778072E-2
1.836952345E1,1.418692768E-1,6.757497787E-2,1.072036922E-1
1.838963298E1,1.392731816E-1,4.085041210E-2,1.994416267E-1
1.840974252E1,8.124268800E-2,7.475243509E-2,2.829749882E-1
1.842985205E1,1.969982497E-2,3.657447919E-2,3.194731176E-1
1.844996163E1,-5.222744122E-2,-1.198787708E-2,2.767138183E-1
1.847007116E1,-9.407047927E-2,-2.481566928E-2,1.759240031E-1
1.849018069E1,-1.049130186E-1,-4.863871261E-2,1.056765765E-1
1.851029022E1,-9.941539168E-2,-6.543701142E-2,1.145338640E-1
1.853039975E1,-1.159082651E-1,-3.122956678E-2,1.476723254E-1
1.855050929E1,-1.282779276E-1,5.749600008E-2,1.611109674E-1
1.857061882E1,-1.194206402E-1,6.726955622E-2,1.476723254E-1
1.859072840E1,-1.226275861E-1,-1.611109637E-2,1.203369126E-1
1.861083793E1,-1.687465608E-1,-6.604786217E-2,8.261708915E-2
1.863094746E1,-2.086043358E-1,-1.656923257E-2,5.680879578E-2
1.865105699E1,-1.638597846E-1,9.689565003E-2,4.077405483E-2
1.867116652E1,-3.268032894E-2,1.448471546E-1,5.146388337E-2
1.869127606E1,4.291202128E-2,4.970769584E-2,7.009471953E-2
1.871138559E1,9.009997360E-3,-7.124006003E-2,6.933116168E-2
1.873149517E1,-4.657710344E-2,-1.135412306E-1,3.054236248E-2
1.875160470E1,-1.740914769E-2,-1.046839505E-1,-2.580829710E-2
1.877171423E1,7.941014320E-2,-1.013242900E-1,-6.734590977E-2
1.879182376E1,7.803573459E-2,-2.328855172E-2,-7.040014863E-2
1.881193330E1,1.985253533E-3,1.458397787E-2,-3.558185324E-2
1.883204283E1,-7.330167294E-2,-2.586174607E-1,-1.145338640E-2
1.885215236E1,-1.772984117E-1,-7.005654573E-1,3.573456407E-2
1.887226194E1,-5.412106514E-1,-9.679638147E-1,-7.024743594E-3
1.889237147E1,-1.079367161E0,-8.005917072E-1,-1.406475753E-1
1.891248100E1,-1.194206357E0,-1.135412306E-1,-4.648547769E-1
1.893259054E1,-6.478035450E-1,7.297334075E-1,-7.432484031E-1
1.895270007E1,1.534753740E-1,1.055162311E0,-7.624900937E-1
1.897280960E1,8.096780181E-1,6.946097016E-1,-5.832064152E-1
1.899291918E1,1.126707792E0,7.994463295E-2,-3.781144619E-1
1.901302871E1,9.663603902E-1,-3.844519854E-1,-2.266243398E-1
1.903313824E1,4.712686539E-1,-4.516451955E-1,-1.264453828E-1
1.905324778E1,-2.611372061E-2,-2.980171144E-1,-1.623326540E-1
1.907335731E1,-3.689517379E-1,-8.635853231E-2,-3.662029207E-1
1.909346684E1,-5.551074743E-1,1.245364845E-1,-5.919110179E-1
1.911357637E1,-4.265241027E-1,2.702235579E-1,-6.745280623E-1
1.913368595E1,-4.382828996E-2,2.955737114E-1,-5.468609929E-1
1.915379548E1,3.422271907E-1,2.514399886E-1,-2.774773538E-1
1.917390502E1,4.958552718E-1,1.906607002E-1,-5.558710173E-2
1.919401455E1,4.257605374E-1,1.737096906E-1,2.962609194E-2
1.921412408E1,2.255553454E-1,1.772220582E-1,-1.084253844E-2
1.923423361E1,1.145338640E-2,9.704835713E-2,-8.506047726E-2
1.925434319E1,-6.841489673E-2,-2.206685767E-2,-1.163664013E-1
1.927445272E1,-1.130067464E-2,-7.841751724E-2,-7.162184268E-2
1.929456225E1,7.024743408E-2,-7.368344814E-2,6.719320081E-3
1.931467179E1,1.047603041E-1,5.421269219E-3,5.161659420E-2
1.933478132E1,6.688777357E-2,8.009734750E-2,5.848862603E-2
1.935489085E1,4.352286831E-2,1.039203927E-1,3.008422814E-2
1.937500038E1,3.008422814E-2,9.964445978E-2,6.872031838E-3
1.939510996E1,2.504473738E-2,8.605311066E-2,4.886778072E-3
1.941521949E1,8.093725890E-3,8.651123941E-2,1.618745178E-2
1.943532902E1,6.566607859E-3,1.396549493E-1,1.969982497E-2
1.945543856E1,2.168507688E-2,1.605764776E-1,3.008422814E-2
1.947554809E1,1.557660475E-2,9.032903612E-2,6.536065787E-2
1.949565762E1,-3.420744836E-2,-6.872031372E-4,9.376505762E-2
1.951576720E1,-7.421794534E-2,2.283041552E-2,9.804098308E-2
1.953587673E1,6.872031838E-3,-1.779092662E-2,6.917845458E-2
1.955598626E1,2.101314515E-1,-2.558686435E-1,2.932066843E-2
1.957609580E1,4.596625566E-1,-4.608078897E-1,1.924168877E-2
1.959620533E1,5.476245880E-1,-2.645732164E-1,3.665083647E-2
1.961631486E1,2.622061968E-1,5.551074445E-2,7.574506104E-2
1.963642444E1,-2.507528067E-1,1.085017473E-1,2.124221325E-1
1.965653397E1,-6.620057225E-1,1.100288630E-1,2.599155009E-1
1.967664350E1,-8.758022785E-1,3.443651274E-2,1.840177327E-1
1.969675304E1,-8.466343284E-1,-6.032116711E-3,9.330692142E-2
1.971686257E1,-3.093941510E-1,2.783172727E-1,-4.734066315E-3
1.973697210E1,4.329380095E-1,5.896966457E-1,-5.680879578E-2
1.975708168E1,7.744016051E-1,4.481328130E-1,1.007897966E-2
1.977719121E1,6.780404449E-1,3.367295489E-2,1.647760421E-1
1.979730074E1,2.980934680E-1,-3.754419982E-1,3.544441164E-1
1.981741028E1,-1.117850468E-1,-4.791333079E-1,5.135698318E-1
1.983751981E1,-2.519744933E-1,-2.665584683E-1,5.192201734E-1
1.985762934E1,-2.029540092E-1,-1.198787708E-2,4.121691883E-1
1.987773892E1,-4.275931045E-3,2.586174607E-1,2.591519356E-1
1.989784845E1,2.269297540E-1,2.422772944E-1,1.617218107E-1
1.991795798E1,3.138227761E-1,1.901262067E-2,2.116585821E-1
1.993806752E1,2.313583940E-1,-1.289651245E-1,3.315373361E-1
1.995817705E1,4.337015375E-2,-1.327829212E-1,4.402681589E-1
1.997828658E1,-6.230641901E-2,-2.786990628E-2,4.043808877E-1
1.999839616E1,-7.024743408E-2,5.581616983E-2,2.559449971E-1
2.001850569E1,-5.390727147E-2,3.565821052E-2,1.061347127E-1
2.003861522E1,-6.719320081E-3,-1.992889121E-2,8.093725890E-3
2.005872475E1,1.527118147E-4,-4.772244394E-2,-1.130067464E-2
2.007883429E1,-4.886778072E-2,-2.237228118E-2,6.719320081E-3
2.009894382E1,-1.065928489E-1,3.817795368E-4,3.054236295E-4
2.011905335E1,-1.382041872E-1,4.810422193E-3,-4.123219103E-2
2.013916293E1,-1.270562261E-1,-3.168770298E-2,-8.399149776E-2
2.015927246E1,-9.544488788E-2,-7.093463838E-2,-1.006370857E-1
2.017938199E1,-4.718795046E-2,-6.864395738E-2,-1.036913246E-1
2.019949153E1,-4.734066315E-3,-8.467870206E-2,-1.209477559E-1
2.021960106E1,-6.108472589E-3,-1.376696974E-1,-1.255291104E-1
2.023971064E1,-2.565558441E-2,-1.708081663E-1,-1.075091213E-1
2.025982017E1,-3.665083554E-3,-1.401130855E-1,-6.642963737E-2
2.027992970E1,6.887302548E-2,-9.552124143E-2,7.482878864E-3
2.030003923E1,8.597674966E-2,-1.191915721E-1,2.397575416E-2
2.032014877E1,-1.695101149E-2,-1.740151197E-1,-8.215895295E-2
2.034025830E1,-1.565296054E-1,-1.680593491E-1,-2.832804024E-1
2.036036788E1,-2.620534599E-1,-2.529671192E-1,-4.135435820E-1
2.038047741E1,-2.374668717E-1,-1.430146098E-1,-3.910949528E-1
2.040058694E1,-1.348445266E-1,5.535803363E-2,-4.010212123E-1
2.042069647E1,-3.397837877E-1,-3.419981003E-1,-4.101839364E-1
2.044080600E1,-6.972821355E-1,-6.750625968E-1,-4.191939235E-1
2.046091559E1,-5.946598053E-1,-1.182752997E-1,-5.677825212E-1
2.048102512E1,1.769929975E-1,6.965949535E-1,-7.021689415E-1
2.050113465E1,9.254335761E-1,7.703547478E-1,-6.074876189E-1
2.052124418E1,1.162136912E0,1.927986592E-1,-3.251234591E-1
2.054135371E1,9.301676750E-1,-4.058316350E-1,-1.024696305E-1
2.056146324E1,4.445441067E-1,-5.773270130E-1,-2.748812549E-3
2.058157283E1,6.444438547E-2,-3.717769086E-1,-6.383354217E-2
2.060168236E1,-1.154501289E-1,-2.496838197E-2,-2.716743052E-1
2.062179189E1,-2.144073844E-1,1.892862916E-1,-4.579827189E-1
2.064190142E1,-2.188360244E-1,1.993652731E-1,-4.842491746E-1
2.066201095E1,-7.253811508E-2,8.330429345E-2,-3.594835997E-1
2.068212048E1,1.516428292E-1,1.107160654E-2,-2.038702667E-1
2.070223007E1,2.431172132E-1,3.733803704E-2,-7.803573459E-2
2.072233960E1,1.093416587E-1,6.253548712E-2,-1.847812906E-2
2.074244913E1,-8.475505561E-2,1.103342846E-1,-4.459185153E-2
2.076255866E1,-1.586675793E-1,1.321720779E-1,-1.181989461E-1
2.078266819E1,-1.310267299E-1,8.574768156E-2,-1.360662282E-1
2.080277772E1,-1.128540337E-1,3.306210786E-2,-6.276455522E-2
2.082288731E1,-1.081199646E-1,6.833853573E-2,1.710372418E-2
2.084299684E1,-1.009425074E-1,1.402658075E-1,5.543438718E-2
2.086310637E1,-8.261708915E-2,1.703500301E-1,7.146912813E-2
2.088321590E1,-6.306997687E-2,1.330883503E-1,6.627693027E-2
2.090332543E1,-1.001789495E-1,9.063446522E-2,6.077930331E-2
2.092343496E1,-1.259872466E-1,9.643751383E-2,7.879929990E-2
2.094354455E1,-1.087308154E-1,1.081963181E-1,1.151447073E-1
2.096365408E1,-1.232384369E-1,7.948649675E-2,1.461452097E-1
2.098376361E1,-2.049392611E-1,6.971294433E-2,1.449235082E-1
2.100387314E1,-2.768665254E-1,1.075854748E-1,1.159082651E-1
2.102398267E1,-2.759502530E-1,1.532463133E-1,1.122431830E-1
2.104409225E1,-2.409792393E-1,1.766112149E-1,1.565296054E-1
2.106420179E1,-2.301367074E-1,1.938676536E-1,2.247917950E-1
2.108431132E1,-3.364241421E-1,4.955498502E-2,2.528907657E-1
2.110442085E1,-5.613686442E-1,-3.151208162E-1,3.290939629E-1
2.112453038E1,-6.771242023E-1,-4.968478978E-1,3.936910629E-1
2.114463991E1,-5.361711979E-1,-4.808131456E-1,3.997995257E-1
2.116474949E1,-6.612421572E-2,-2.474694997E-1,3.689517379E-1
2.118485902E1,2.516690791E-1,-6.971294433E-2,3.020639718E-1
2.120496856E1,1.661504507E-1,1.269798726E-1,2.602209449E-1
2.122507809E1,1.722589284E-1,3.887279332E-1,1.965401024E-1
2.124518762E1,3.501681983E-1,3.801760674E-1,1.695101112E-1
2.126529720E1,4.187358022E-1,9.597937763E-2,2.541124523E-1
2.128540673E1,3.868190348E-1,-2.198286504E-1,3.735330999E-1
2.130551626E1,3.669664860E-1,-3.988068998E-1,4.164451063E-1
2.132562580E1,3.651339412E-1,-3.563530147E-1,3.678827584E-1
2.134573533E1,3.116848171E-1,-1.508029103E-1,2.593046725E-1
2.136584491E1,3.155026138E-1,1.650051177E-1,1.320957243E-1
2.138595444E1,3.669664860E-1,3.027511835E-1,7.085828483E-2
2.140606397E1,3.558185399E-1,2.383067906E-1,1.313321590E-1
2.142617350E1,2.786990702E-1,7.444700599E-2,2.399102598E-1
2.144628304E1,8.780929446E-2,-8.223531395E-2,3.309265077E-1
2.146639262E1,-1.275143623E-1,-9.445225447E-2,3.263451457E-1
2.148650215E1,-2.528907657E-1,1.641651988E-2,2.173089087E-1
2.150661168E1,-2.716743052E-1,1.031568274E-1,1.061347127E-1
2.152672121E1,-2.252499312E-1,7.261446863E-2,4.932591692E-2
2.154683074E1,-1.606528312E-1,-3.214583546E-2,6.215370819E-2
2.156694028E1,-1.024696305E-1,-8.177717775E-2,8.704573661E-2
2.158704986E1,-8.078455180E-2,-4.772244394E-2,8.460234851E-2
2.160715939E1,-1.026223376E-1,-2.283041552E-2,5.635065958E-2
2.162726892E1,-1.389677525E-1,-4.695888236E-2,2.031067200E-2
2.164737845E1,-1.270562261E-1,-7.230904698E-2,-3.206948191E-2
2.166748798E1,-1.078145429E-1,-8.864920586E-2,-8.612946421E-2
2.168759757E1,-1.041494608E-1,-1.451525837E-1,-8.719844371E-2
2.170770710E1,-1.059819981E-1,-2.160108685E-1,-1.221694518E-3
2.172781663E1,-6.505523622E-2,-2.938938737E-1,1.427855492E-1
2.174792616E1,1.114796288E-2,-3.074852526E-1,2.121167034E-1
2.176803569E1,-4.275931045E-3,-2.828986347E-1,1.563768983E-1
2.178814528E1,-1.105633527E-1,-2.787754238E-1,6.734590977E-2
2.180825481E1,-1.588202864E-1,-2.868691385E-1,1.267508045E-2
2.182836434E1,-9.452861547E-2,-3.163425326E-1,7.788302377E-3
2.184847387E1,-2.130329758E-1,-7.734090090E-1,7.742489129E-2
2.186858345E1,-5.118899941E-1,-8.480850458E-1,5.528167635E-2
2.188869298E1,-5.697677732E-1,-7.841751724E-2,-3.240544796E-1
2.190880252E1,-4.619532526E-1,4.398863912E-1,-7.597413063E-1
2.192891205E1,-2.637332976E-1,4.658474028E-1,-8.443436027E-1
2.194902158E1,1.605001241E-1,4.470638335E-1,-7.258392572E-1
2.196913111E1,6.277982593E-1,3.470376134E-1,-5.618267655E-1
2.198924069E1,8.438854814E-1,9.445225447E-2,-3.403946459E-1
2.200935022E1,8.060129285E-1,-1.868429035E-1,-1.450762302E-1
2.202945975E1,4.987567961E-1,-3.106921911E-1,-1.211004704E-1
2.204956929E1,9.681928903E-2,-1.283542812E-1,-2.328855246E-1
2.206967882E1,-1.204896197E-1,1.746259630E-1,-4.256078303E-1
2.208978840E1,-9.651386738E-2,3.536041975E-1,-5.169295073E-1
2.210989793E1,4.688252881E-2,3.048891425E-1,-4.042281806E-1
2.213000746E1,2.124221325E-1,2.099023908E-1,-1.936385781E-1
2.215011699E1,2.702999115E-1,1.508029103E-1,-3.436015919E-2
2.217022530E1,1.866138428E-1,1.588966399E-1,1.893626526E-2
2.219033484E1,4.291202128E-2,1.828723997E-1,8.093725890E-3
2.221044437E1,-6.994201243E-2,1.946312040E-1,1.084253844E-2
2.223055390E1,-1.105633527E-1,1.866901964E-1,3.909422457E-2
2.225066343E1,-6.001574174E-2,1.303395331E-1,7.650861889E-2
2.227077301E1,-2.748812735E-2,5.734328553E-2,1.171299592E-1
2.229088254E1,-7.467607409E-2,4.085041210E-2,1.400367320E-1
2.231099208E1,-1.404948682E-1,9.765920788E-2,1.330119967E-1
2.233110161E1,-1.640124917E-1,1.717244387E-1,1.088835225E-1
2.235121114E1,-1.569877416E-1,2.050156146E-1,9.559759498E-2
2.237132072E1,-1.287360638E-1,1.827196926E-1,6.154286116E-2
2.239143025E1,-8.765657991E-2,1.074327603E-1,-2.290677279E-3
2.241153978E1,-5.925218388E-2,4.115583375E-2,-4.443913698E-2
2.243164932E1,-1.145338640E-2,2.008160390E-2,-2.260134928E-2
2.245175885E1,4.856235534E-2,4.115583375E-2,3.100049868E-2
2.247186843E1,5.115845799E-2,9.124530852E-2,6.398624927E-2
2.249197796E1,4.123219103E-2,1.459161341E-1,5.314370990E-2
2.251208749E1,5.696150661E-2,2.042520493E-1,1.527118124E-2
2.253219702E1,3.863608837E-2,2.128039151E-1,-2.687728032E-2
2.255230661E1,-1.488940120E-1,-4.848600179E-2,-0.000000000E0
2.257241614E1,-3.570402265E-1,-2.231883109E-1,1.046075895E-1
2.259252567E1,-5.934380889E-1,-2.874799967E-1,1.191152185E-1
2.261263520E1,-8.336538076E-1,-3.572692871E-1,1.372879148E-1
2.263274473E1,-4.773771465E-1,-6.543701142E-2,1.304158866E-1
2.265285432E1,5.080721974E-1,4.099548757E-1,1.634016484E-1
2.267296385E1,1.270027757E0,4.760790765E-1,2.701472044E-1
2.269307338E1,1.284382701E0,1.860793531E-1,3.471139669E-1
2.271318291E1,6.552863717E-1,-1.636307091E-1,3.121429384E-1
2.273329244E1,-1.785201132E-1,-2.686964273E-1,2.550287247E-1
2.275340202E1,-5.405998230E-1,-1.011715755E-1,2.264716178E-1
2.277351155E1,-3.196258247E-1,-2.374668792E-2,1.814216375E-1
2.279362108E1,6.139015034E-2,-2.527380548E-2,1.577513069E-1
2.281373062E1,2.388412803E-1,-7.864658721E-3,1.154501289E-1
2.283384020E1,2.296785712E-1,1.052947938E-1,6.383354217E-2
2.285394973E1,1.950129867E-1,2.555632293E-1,3.741439432E-2
2.287405926E1,1.895153672E-1,2.925194800E-1,5.482354015E-2
2.289416879E1,1.498102844E-1,2.080698460E-1,8.093725890E-2
2.291427838E1,1.588202827E-2,6.268820167E-2,7.834116369E-2
2.293438791E1,-9.223793447E-2,1.595838554E-2,1.985253580E-2
2.295449744E1,-9.681928903E-2,2.313583903E-2,-5.024218559E-2
2.297460697E1,-7.635590434E-2,7.101099472E-3,-5.787777901E-2
2.299471650E1,-4.932591692E-2,-2.130329795E-2,1.068982761E-3
2.301482609E1,-2.550287358E-2,-1.916533336E-2,5.054761097E-2
2.303493562E1,-2.550287358E-2,-9.926267667E-4,4.840964451E-2
2.305504515E1,-8.842013776E-2,-5.108210072E-2,2.214321308E-2
2.307515468E1,-1.255291104E-1,-7.032378763E-2,3.359660041E-3
2.309526426E1,-7.635590434E-2,-3.397838026E-2,-1.481304597E-2
2.311537379E1,1.374406368E-2,-1.145338640E-3,-3.054236295E-3
2.313548333E1,8.108997345E-2,-2.237228118E-2,2.641914412E-2
2.315559286E1,1.065928489E-1,-7.505785674E-2,3.145863488E-2
2.317570239E1,1.012479365E-1,-1.147629321E-1,3.054236248E-2
2.319581197E1,9.193251282E-2,-1.092653051E-1,2.137965523E-3
2.321592150E1,4.062134400E-2,-1.233147904E-1,-5.390727147E-2
2.323603103E1,-6.536065787E-2,-2.155527323E-1,-6.810946763E-2
2.325614057E1,-1.099525094E-1,-2.725142241E-1,-5.482354015E-2
2.327625015E1,-8.063183725E-2,-2.325037420E-1,-5.848862603E-2
2.329635968E1,-3.359660041E-3,-3.270323575E-1,-6.474980712E-2
2.331646921E1,-7.681404054E-2,-4.765372276E-1,-6.413896382E-2
2.333657874E1,-2.829749882E-1,-4.721085727E-1,-1.462979168E-1
2.335668832E1,-4.651601911E-1,-4.870743454E-1,-3.086305857E-1
2.337679786E1,-4.405735731E-1,-3.939201236E-1,-5.059342384E-1
2.339690739E1,-4.364503622E-1,-2.236464471E-1,-6.607840061E-1
2.341701692E1,-2.078407854E-1,2.763320208E-1,-6.890357137E-1
2.343712645E1,3.750602305E-1,5.199073553E-1,-6.157340407E-1
2.345723603E1,8.079982400E-1,2.651840746E-1,-3.872771561E-1
2.347734556E1,8.168554902E-1,-2.517454326E-1,-1.162136942E-1
2.349745510E1,4.657710493E-1,-5.345677137E-1,-2.061609551E-2
2.351756463E1,8.246437646E-3,-3.143572807E-1,-1.757712960E-1
2.353767421E1,-2.470877171E-1,1.908134073E-1,-5.190674663E-1
2.355778374E1,-3.203893900E-1,5.050943494E-1,-7.281299233E-1
2.357789327E1,-2.747285664E-1,4.739411175E-1,-6.288672686E-1
2.359800280E1,-4.062134400E-2,2.986279428E-1,-3.694098890E-1
2.361811239E1,1.617218107E-1,1.173590273E-1,-1.068982705E-1
2.363822192E1,1.647760421E-1,2.954973653E-2,6.077930331E-2
2.365833145E1,1.221694518E-3,1.183516532E-2,7.742489129E-2
2.367844098E1,-1.960819662E-1,6.467345357E-2,1.649287529E-2
2.369855056E1,-2.826695740E-1,1.149156392E-1,-4.703523964E-2
2.371866010E1,-2.356343269E-1,8.147175610E-2,-5.085303262E-2
2.373876963E1,-1.498102844E-1,-8.399150101E-4,3.374931216E-2
2.375887916E1,-8.200624585E-2,-3.306210786E-2,1.085781008E-1
2.377898874E1,-1.224748790E-1,2.367033157E-3,1.133121699E-1
2.379909827E1,-1.733279079E-1,1.369061470E-1,5.573981255E-2
2.381920780E1,-1.111742035E-1,2.479276359E-1,-2.061609551E-2
2.383931734E1,-3.405473381E-2,2.280751020E-1,-3.588727489E-2
2.385942692E1,-8.276980370E-2,1.217876747E-1,-2.748812735E-2
2.387953645E1,-2.422009408E-1,-7.566870749E-2,-1.099525020E-2
2.389964598E1,-3.804051280E-1,-2.105132341E-1,4.825693369E-2
2.391975551E1,-3.115321100E-1,3.336753324E-2,5.207473040E-2
2.393986510E1,4.566083103E-2,4.415661991E-1,-3.863608837E-2
2.395997463E1,2.509055138E-1,3.500918448E-1,-1.365243644E-1
2.398008416E1,-1.359135192E-2,-1.199551299E-1,-1.068982705E-1
2.400019369E1,-5.404471159E-1,-4.119401276E-1,-7.253811508E-2
2.402030327E1,-9.782719016E-1,-3.076379597E-1,-7.055285573E-2
2.404041280E1,-9.912523627E-1,1.208714023E-1,-5.665608495E-2
2.406052234E1,-4.164451063E-1,6.564317346E-1,-1.267508045E-2
2.408063187E1,3.413109183E-1,8.201388121E-1,7.971556485E-2
2.410074145E1,9.072608948E-1,6.648308635E-1,1.685938388E-1
2.412085098E1,1.110062122E0,4.033882618E-1,1.919587553E-1
2.414096051E1,8.516737819E-1,1.462215632E-1,2.046338320E-1
2.416107004E1,2.579302490E-1,-8.391514421E-2,2.864873707E-1
2.418117963E1,-1.612636745E-1,-1.595074832E-1,4.442386627E-1
2.420128916E1,-2.342599183E-1,-2.100550979E-1,4.964661002E-1
2.422139869E1,-1.982199401E-1,-2.250208557E-1,4.590517282E-1
2.424150822E1,-1.898207814E-1,-1.256054640E-1,3.098522723E-1
2.426161780E1,-8.139539510E-2,1.164427623E-1,1.569877416E-1
2.428172734E1,1.272089481E-1,2.700708508E-1,1.748550236E-1
2.430183687E1,2.475458533E-1,2.083752751E-1,3.944546282E-1
2.432194640E1,2.826695740E-1,6.070294604E-2,6.119162440E-1
2.434205598E1,2.661767006E-1,-1.641651988E-2,6.717792749E-1
2.436216551E1,1.843231618E-1,-1.504211407E-2,5.757235289E-1
2.438227504E1,1.067455560E-1,-6.490251981E-3,4.224008918E-1
2.440238458E1,9.132166207E-2,4.504998680E-3,3.115321100E-1
2.442249416E1,1.467560530E-1,7.559234742E-3,2.719797492E-1
2.444260369E1,2.241809368E-1,-6.872031372E-4,2.765611112E-1
2.446271322E1,2.443388999E-1,-2.924431302E-2,2.870981991E-1
2.448282275E1,2.047865391E-1,-6.589514762E-2,2.930539846E-1
2.450293234E1,1.530172378E-1,-8.208259940E-2,2.692309320E-1
2.452304187E1,9.116895497E-2,-5.154023692E-2,2.112004459E-1
2.454315140E1,4.535540938E-2,1.687465608E-2,1.230857223E-1
2.456326098E1,6.902574003E-2,3.764346242E-2,4.672981426E-2
2.458337051E1,1.609582454E-1,-7.108735293E-2,3.222219273E-2
2.460348004E1,2.107423097E-1,-2.294494957E-1,6.093201414E-2
2.462358958E1,1.368297935E-1,-3.465794623E-1,7.513421029E-2
2.464369916E1,4.153761268E-2,-2.037939131E-1,5.971032009E-2
2.466380869E1,-1.481304597E-2,-4.497363046E-2,-1.374406368E-2
2.468391822E1,-4.524851143E-1,-4.615714550E-1,-3.527642787E-2
2.470402780E1,-1.222763538E0,-6.118398905E-1,-5.100574717E-2
2.472413734E1,-1.465804338E0,9.506310523E-2,-2.492256761E-1
2.474424687E1,-7.302678823E-1,8.189170957E-1,-4.407263100E-1
2.476435640E1,3.781144619E-1,6.536829472E-1,-2.903051674E-1
2.478446598E1,1.195275426E0,-1.397313084E-2,5.512896553E-2
2.480457551E1,1.363640189E0,-5.024982095E-1,2.023431510E-1
2.482468504E1,1.023321867E0,-5.397599339E-1,1.944021434E-1
2.484479458E1,5.635066032E-1,-3.528406620E-1,1.710372418E-2
2.486490416E1,1.030804738E-1,-8.620581776E-2,-3.043546379E-1
2.488501369E1,-2.139492482E-1,9.384141117E-2,-6.351284385E-1
2.490512322E1,-2.872509360E-1,1.114032716E-1,-8.283088803E-1
2.492523280E1,-2.573194206E-1,-8.017370477E-3,-7.852441669E-1
2.494534234E1,-2.044811249E-1,-9.445225447E-2,-5.628957748E-1
2.496545187E1,-1.319430023E-1,3.894151188E-3,-3.194731176E-1
2.498556140E1,3.298575059E-2,2.054737508E-1,-1.614163816E-1
2.500567098E1,1.980672181E-1,2.434989959E-1,-1.270562261E-1
2.502578051E1,2.128802687E-1,1.153737754E-1,-1.504211426E-1
2.504589004E1,1.056765765E-1,4.054498672E-2,-1.670667231E-1
2.506599963E1,-4.291202128E-2,1.076618303E-2,-1.527118087E-1
2.508610916E1,-1.108687744E-1,6.284090877E-2,-8.796200156E-2
2.510621869E1,-5.665608495E-2,9.353598952E-2,-1.130067464E-2
2.512632822E1,6.505523622E-2,3.642176837E-2,5.757235363E-2
2.514643780E1,1.553079188E-1,-3.978142887E-2,9.086353332E-2
2.516654734E1,1.663031727E-1,-5.948125198E-2,8.674030751E-2
2.518665687E1,7.467607409E-2,-5.115845706E-3,5.909947306E-2
2.520676645E1,-5.482354015E-2,4.802786559E-2,3.344388679E-2
2.522687598E1,-1.293469071E-1,1.020878479E-1,1.099525020E-2
2.524698551E1,-1.102579311E-1,1.784437597E-1,-1.343864016E-2
2.526709510E1,-5.894676223E-2,2.219666243E-1,-2.504473738E-2
2.528720463E1,-5.665608495E-2,2.172325552E-1,-1.863084175E-2
2.530731416E1,-1.139230132E-1,2.212030590E-1,-1.175880991E-2
2.532742374E1,-1.366770715E-1,2.315874696E-1,1.527118147E-4
2.534753327E1,-1.169772521E-1,1.918824017E-1,2.855710872E-2
2.536764280E1,-7.757759839E-2,1.953947693E-1,4.917320609E-2
2.538775234E1,-9.620844573E-2,1.873010397E-1,2.015795931E-2
2.540786192E1,-2.733541429E-1,7.169819623E-2,1.496575773E-2
2.542797145E1,-5.360184908E-1,-8.819106966E-2,6.398624927E-2
2.544808098E1,-8.993198872E-1,-3.332935274E-1,1.976090819E-1
2.546819056E1,-1.124264359E0,-2.664057612E-1,3.706315756E-1
2.548830010E1,-7.247702479E-1,2.040993422E-1,3.678827584E-1
2.550840963E1,2.391466945E-1,7.049940825E-1,2.790044844E-1
2.552851921E1,9.588775039E-1,6.462000608E-1,2.664821148E-1
2.554862874E1,1.048366666E0,1.379751265E-1,3.342861533E-1
2.556873827E1,5.577035546E-1,-4.211028218E-1,4.046863019E-1
2.558884786E1,-1.840177327E-1,-5.834354758E-1,4.601207078E-1
2.560895739E1,-6.236750484E-1,-3.068743944E-1,3.747547865E-1
2.562906692E1,-6.458182931E-1,1.794363745E-2,1.692046970E-1
2.564917650E1,-3.423798978E-1,2.647259235E-1,-1.939439960E-2
2.566928603E1,7.146912813E-2,2.299076319E-1,-5.207473040E-2
2.568939556E1,3.020639718E-1,7.864658721E-3,6.887302548E-2
2.570950515E1,3.158080280E-1,-1.854684949E-1,2.473931462E-1
2.572961468E1,1.965401024E-1,-2.018086612E-1,3.753656447E-1
2.574972421E1,7.085828483E-2,-1.008661538E-1,3.826957941E-1
2.576983379E1,5.726693198E-2,-8.170082234E-3,2.903051674E-1
2.578994333E1,8.108997345E-2,-6.345175952E-2,1.684411317E-1
2.581005286E1,8.170082420E-2,-1.836359501E-1,1.029277667E-1
2.583016244E1,5.940489471E-2,-2.311293334E-1,9.941539168E-2
2.585027197E1,4.016320780E-2,-1.344627589E-1,1.276670843E-1
2.587038150E1,6.077930331E-2,-2.802261710E-2,1.275143623E-1
2.589049108E1,8.246438205E-2,-2.664821222E-2,9.513945878E-2
2.591060062E1,8.765657991E-2,-1.356844455E-1,5.665608495E-2
2.593071015E1,7.696675509E-2,-2.070008665E-1,2.076880634E-2
2.595081973E1,7.177454978E-2,-1.581330895E-1,-9.468132630E-3
2.597092926E1,8.704573661E-2,-6.161921844E-2,-4.275930673E-2
2.599103879E1,1.713426560E-1,-2.451024577E-2,-9.040539712E-2
2.601114838E1,2.486148328E-1,-1.294232607E-1,-1.382041872E-1
2.603125791E1,2.023431510E-1,-3.164952397E-1,-1.482831687E-1
2.605136744E1,7.941014320E-2,-4.004867375E-1,-1.594311297E-1
2.607147702E1,5.955760833E-3,-2.908396423E-1,-1.971509457E-1
2.609158655E1,8.704573847E-3,-2.491493225E-1,-2.289150059E-1
2.611169614E1,2.901524492E-2,-3.253525198E-1,-2.029540092E-1
2.613180567E1,7.849387079E-2,-3.704025149E-1,-1.940967143E-1
2.615191520E1,4.367557913E-2,-5.228089094E-1,-2.093679011E-1
2.617202478E1,-2.197522968E-1,-8.358681202E-1,-1.675248593E-1
2.619213432E1,-5.563291311E-1,-7.184327245E-1,-1.598892659E-1
2.621224385E1,-6.369609833E-1,-1.972273141E-1,-2.480039895E-1
2.623235343E1,-1.973036677E-1,5.214344859E-1,-3.570402265E-1
2.625246296E1,4.054498672E-1,8.427401781E-1,-4.669927359E-1
2.627257249E1,7.492041588E-1,4.647783935E-1,-4.779879749E-1
2.629268208E1,7.641699314E-1,-1.454579979E-1,-4.011739492E-1
2.631279161E1,5.716003180E-1,-4.902812839E-1,-2.060082406E-1
2.633290114E1,2.961082160E-1,-4.453839958E-1,-2.886253223E-2
2.635301072E1,2.535016090E-2,-1.298813969E-1,-1.511846948E-2
2.637312025E1,-2.084516287E-1,1.500393599E-1,-2.183778882E-1
2.639322984E1,-3.478775024E-1,2.541888058E-1,-4.758500159E-1
2.641333937E1,-3.187095523E-1,1.413347870E-1,-5.552601814E-1
2.643344890E1,-1.534753740E-1,3.749075159E-2,-4.431696832E-1
2.645355848E1,-4.581354558E-3,7.933378965E-2,-2.130329758E-1
2.647366801E1,9.788827598E-2,1.984490007E-1,-2.565558441E-2
2.649377754E1,9.071081877E-2,2.314347625E-1,1.801999472E-2
2.651388713E1,3.665083554E-3,1.957001835E-1,-4.291202128E-2
2.653399666E1,-9.422318637E-2,1.366007179E-1,-1.252236813E-1
2.655410624E1,-1.311794519E-1,9.613208473E-2,-1.556133330E-1
2.657421577E1,-9.758284688E-2,9.323056042E-2,-1.301104724E-1
2.659432530E1,-4.153761268E-2,1.135412306E-1,-6.749862432E-2
2.661443489E1,-4.734066315E-3,1.217876747E-1,-2.137965336E-2
2.663454442E1,1.389677543E-2,1.341573298E-1,-8.093725890E-3
2.665465400E1,2.214321308E-2,1.717244387E-1,-2.550287358E-2
2.667476353E1,2.916795574E-2,2.370850891E-1,-4.550812021E-2
2.669487307E1,5.635065958E-2,2.555632293E-1,-5.635065958E-2
2.671498265E1,7.635590434E-2,2.813715041E-1,-5.360184610E-2
2.673509218E1,8.597674966E-2,2.244100124E-1,-3.665083647E-2
2.675520176E1,6.490252167E-2,1.813452840E-1,-1.206423342E-2
2.677531129E1,3.145863488E-2,2.008923888E-1,2.382304333E-2
2.679542082E1,-6.108472589E-3,2.074590027E-1,5.039490014E-2
2.681553041E1,-1.064401343E-1,1.853157878E-1,7.986827940E-2
2.683563994E1,-1.696628332E-1,2.577011883E-1,7.024743408E-2
2.685574952E1,-1.710372269E-1,3.015294671E-1,2.199050039E-2
2.687585905E1,-2.898470163E-1,4.130854458E-2,6.169557199E-2
2.689596864E1,-5.189147592E-1,-1.761530787E-1,1.673721522E-1
2.691607817E1,-7.079719901E-1,-1.330883503E-1,1.695101112E-1
2.693618770E1,-7.018635273E-1,-9.536852688E-2,1.550024897E-1
2.695629728E1,-3.035911024E-1,3.871244565E-2,1.243074164E-1
2.697640682E1,2.235700935E-1,2.775537372E-1,7.055285573E-2
2.699651640E1,5.212054253E-1,3.171060979E-1,8.658760041E-2
2.701662593E1,6.258130074E-1,2.937411666E-1,1.088835225E-1
2.703673546E1,5.412106514E-1,2.131093442E-1,1.033858955E-1
2.705684504E1,2.640387416E-1,-2.405211143E-2,1.351499557E-1
2.707695458E1,2.519745007E-2,-4.004867375E-1,2.635805905E-1
2.709706416E1,-4.810422286E-2,-6.633037925E-1,3.782671690E-1
2.711717369E1,-1.739387512E-1,-7.097281814E-1,3.489464819E-1
2.713728327E1,-3.767400384E-1,-3.888806403E-1,1.921114624E-1
2.715739280E1,-2.134911120E-1,1.990598440E-1,-3.084778599E-2
2.717750234E1,2.275405973E-1,4.656946659E-1,-1.181989461E-1
2.719761192E1,4.567610323E-1,2.938938737E-1,8.093725890E-3
2.721772145E1,4.126273096E-1,-3.741439432E-3,1.553079188E-1
2.723783103E1,1.736333370E-1,-1.443890184E-1,2.073826492E-1
2.725794057E1,-5.207473040E-2,-6.116108224E-2,1.487413049E-1
2.727805015E1,-1.007898003E-1,1.718007959E-2,4.825693369E-2
2.729815968E1,-5.436540768E-2,-6.085565686E-2,-4.734066315E-3
2.731826926E1,-1.634016447E-2,-1.915769726E-1,-1.664558798E-2
2.733837879E1,-4.535540938E-2,-2.147891670E-1,-4.489727318E-2
2.735848833E1,-1.244601309E-1,-1.245364845E-1,-9.422318637E-2
2.737859791E1,-1.872246861E-1,-6.299362332E-2,-1.443126649E-1
2.739870744E1,-1.902789176E-1,-5.352549255E-2,-1.624853760E-1
2.741881702E1,-1.398840249E-1,-7.734853774E-2,-1.702736765E-1
2.743892655E1,-7.024743408E-2,-1.227039397E-1,-1.727170646E-1
2.745903614E1,-1.801999472E-2,-1.883700192E-1,-1.692046970E-1
2.747914567E1,1.466033421E-2,-2.161635756E-1,-1.875301152E-1
2.749925525E1,3.909422457E-2,-2.456369549E-1,-2.127275616E-1
2.751936478E1,7.223268598E-2,-3.300865889E-1,-2.122694254E-1
2.753947437E1,1.114796251E-1,-4.030828476E-1,-1.924168915E-1
2.755958390E1,1.400367320E-1,-3.891860545E-1,-1.965401024E-1
2.757969343E1,1.171299592E-1,-2.948101461E-1,-2.431172132E-1
2.759980301E1,8.124268800E-2,-2.103605270E-1,-3.017585576E-1
2.761991254E1,8.750387281E-2,-1.457634270E-1,-3.358132839E-1
2.764002213E1,5.635065958E-2,-2.412083149E-1,-3.490992188E-1
2.766013166E1,-2.183778882E-1,-6.206972003E-1,-2.669402659E-1
2.768024124E1,-6.331431866E-1,-6.779640913E-1,-1.653869003E-1
2.770035077E1,-7.818844914E-1,-6.864395738E-2,-2.579302490E-1
2.772046036E1,-4.201101959E-1,3.936147094E-1,-4.033119082E-1
2.774056989E1,4.230117425E-2,2.161635756E-1,-4.008685052E-1
2.776067947E1,2.360924631E-1,-3.504735976E-2,-2.643441558E-1
2.778078900E1,3.810159862E-1,4.298837483E-2,-2.212794125E-1
2.780089859E1,6.186355352E-1,1.677539349E-1,-1.947075576E-1
2.782100812E1,7.844805717E-1,3.642176837E-2,-1.284306347E-1
2.784111770E1,6.827745438E-1,-3.134410083E-1,-7.696675509E-2
2.786122723E1,3.199312389E-1,-6.184064746E-1,-9.269607067E-2
2.788133676E1,-8.612946421E-2,-5.506024361E-1,-2.067717910E-1
2.790144635E1,-3.573456407E-1,-5.887040496E-2,-3.947600424E-1
2.792155593E1,-2.302894145E-1,5.122717619E-1,-5.654918551E-1
2.794166546E1,8.521319181E-2,5.712185502E-1,-5.743491650E-1
2.796177499E1,2.289150059E-1,2.386122048E-1,-3.753656447E-1
2.798188458E1,2.086043358E-1,-7.597412914E-2,-1.670667231E-1
2.800199411E1,8.170082420E-2,-7.490514219E-2,-3.420744836E-2
2.802210369E1,-1.206423342E-2,8.788564801E-2,9.620844387E-3
2.804221322E1,-5.925218388E-2,1.508029103E-1,2.076880634E-2
2.806232280E1,-6.062658876E-2,6.604786217E-2,3.970507067E-3
2.808243234E1,-2.794626169E-2,2.672456671E-3,-7.177455351E-3
2.810254192E1,1.527118124E-2,5.932854116E-2,7.482878864E-3
2.812265150E1,3.023693897E-2,1.471378356E-1,6.093201414E-2
2.814276103E1,1.374406368E-2,1.712663025E-1,1.539335102E-1
2.816287057E1,8.857285604E-3,1.527881771E-1,2.154763639E-1
2.818298015E1,3.894151375E-2,1.330883503E-1,2.273878902E-1
2.820308973E1,5.497625470E-2,1.103342846E-1,2.090624720E-1
2.822319926E1,2.153236605E-2,1.007134393E-1,1.940967143E-1
2.824330885E1,-2.428117767E-2,9.979717433E-2,1.783674061E-1
2.826341838E1,-4.474456236E-2,8.422056586E-2,1.554606259E-1
2.828352796E1,-4.779879749E-2,1.733279042E-2,1.562241912E-1
2.830363749E1,-3.145863488E-2,-4.657710437E-3,1.591257155E-1
2.832374708E1,-6.108472589E-3,4.130854458E-2,1.247655526E-1
2.834385661E1,1.068982761E-3,6.436803192E-2,8.796200156E-2
2.836396619E1,-2.214321308E-2,-9.926267667E-4,7.070557028E-2
2.838407572E1,-6.398624927E-2,-7.200361788E-2,7.375980914E-2
2.840418530E1,-6.368082762E-2,-9.628479928E-2,9.895725548E-2
2.842429484E1,1.221694518E-2,-6.543701142E-2,1.389677525E-1
2.844440442E1,7.421794534E-2,-3.184041381E-2,1.380514801E-1
2.846451395E1,3.970507160E-2,-1.107160654E-2,9.788827598E-2
2.848462353E1,-1.389677543E-2,-7.406522986E-3,5.650337040E-2
2.850473307E1,-1.740914769E-2,-1.091889478E-2,4.459185153E-2
2.852484265E1,1.756185852E-2,-6.490251981E-3,5.115845799E-2
2.854495223E1,3.894151375E-2,-1.473669056E-2,4.718795046E-2
2.856506176E1,3.863608837E-2,-2.313583903E-2,4.550812021E-2
2.858517135E1,-7.330167107E-3,-2.985516004E-2,2.107422985E-2
2.860528088E1,-9.193251282E-2,-2.802261710E-2,-3.695625812E-2
2.862539046E1,-1.719534993E-1,-4.253023863E-2,-8.368607610E-2
2.864549999E1,-1.742441803E-1,-2.008160390E-2,-9.544488788E-2
2.866560958E1,-1.397313178E-1,3.016058356E-2,-9.681928903E-2
2.868571911E1,-1.090362370E-1,4.787515476E-2,-8.475505561E-2
2.870582869E1,-7.238540053E-2,3.443651274E-2,-6.627693027E-2
2.872593822E1,-5.696150661E-2,3.229855001E-2,-4.184303805E-2
2.874604780E1,-7.101099193E-2,3.886515647E-2,-1.878355257E-2
2.876615734E1,-9.391776472E-2,3.443651274E-2,1.374406274E-3
2.878626692E1,-8.444963396E-2,2.298312820E-2,1.695101149E-2
2.880637650E1,-4.107947648E-2,1.809635013E-2,3.970507160E-2
2.882648603E1,-2.825168520E-2,1.107160654E-2,6.536065787E-2
2.884659562E1,-1.175880991E-2,2.771719359E-2,7.971556485E-2
2.886670515E1,2.672456764E-2,1.824906096E-2,7.314895838E-2
2.888681473E1,4.001049697E-2,-1.488940232E-2,6.948387623E-2
2.890692426E1,1.557660475E-2,-2.191414498E-2,7.085828483E-2
2.892703385E1,-1.527118147E-4,1.779092662E-2,6.474980712E-2
2.894714343E1,1.832541823E-2,4.314108938E-2,5.589252338E-2
2.896725296E1,1.374406368E-2,3.245126083E-2,3.924693540E-2
2.898736254E1,-9.926267900E-3,2.451024577E-2,3.329117596E-2
2.900747208E1,-6.566607859E-3,4.237752780E-2,3.833066672E-2
2.902758166E1,5.635065958E-2,9.200886637E-2,4.840964451E-2
2.904769119E1,1.027750522E-1,1.077381819E-1,4.275930673E-2
2.906780077E1,6.612421572E-2,7.521057129E-2,3.176405653E-2
2.908791036E1,-1.832541777E-3,3.306210786E-2,1.236965694E-2
2.910801989E1,-2.962609194E-2,4.741701856E-2,-7.330167107E-3
2.912812947E1,-1.969982497E-2,4.482091591E-2,-1.282779220E-2
2.914823900E1,7.788302377E-3,5.573981442E-3,-1.527118147E-3
2.916834858E1,1.771457121E-2,-3.962871432E-2,2.443389036E-3
2.918845817E1,1.221694518E-3,-3.382566571E-2,1.328592747E-2
2.920856770E1,-5.192201585E-3,-1.397313084E-2,2.061609551E-2
2.922867728E1,6.872031838E-3,-2.557922900E-2,2.260134928E-2
2.924878682E1,2.092151903E-2,-5.001311749E-2,9.773556143E-3
2.926889640E1,3.802524135E-2,-5.627430230E-2,-1.634016447E-2
2.928900593E1,4.902049154E-2,-4.527905211E-2,-3.619270027E-2
2.930911551E1,2.046338283E-2,-5.398362502E-2,-3.710897267E-2
2.932922510E1,-3.405473381E-2,-4.665346071E-2,-2.962609194E-2
2.934933463E1,-4.611896724E-2,-3.588727675E-3,-3.130592033E-2
2.936944421E1,1.649287529E-2,2.832804248E-2,-3.909422457E-2
2.938955374E1,7.360709459E-2,-1.977618039E-2,-2.168507688E-2
2.940966332E1,7.284353673E-2,-6.100837141E-2,5.497625098E-3
2.942977291E1,2.565558441E-2,-4.222481698E-2,1.038440317E-2
2.944988244E1,-2.519745007E-2,-9.544488043E-3,3.665083554E-3
2.946999202E1,-2.443389036E-2,-8.322793990E-3,-3.054236295E-3
2.949010155E1,2.092151903E-2,-2.542651631E-2,-8.704573847E-3
2.951021114E1,3.939964995E-2,-5.062396824E-2,-1.252236869E-2
2.953032072E1,1.649287529E-2,-4.023956135E-2,-9.162709117E-3
2.955043025E1,-1.068982761E-3,3.817795368E-4,-1.068982668E-2
2.957053984E1,6.261184346E-3,2.741177008E-2,-2.229592577E-2
2.959064942E1,1.435491070E-2,6.490251981E-3,-2.764083818E-2
2.961075895E1,4.886778072E-3,-1.046075951E-2,-1.847812906E-2
2.963086853E1,-1.160609815E-2,-3.817795368E-4,-4.428642802E-3
2.965097806E1,-2.535016090E-2,8.322793990E-3,-3.970507067E-3
2.967108765E1,-2.214321308E-2,-7.101099472E-3,-1.068982761E-3
2.969119718E1,-6.261184346E-3,-1.091889478E-2,3.359660041E-3
2.971130676E1,-3.817795310E-3,2.825168660E-3,4.428642802E-3
2.973141635E1,-1.695101149E-2,3.741439432E-3,7.024743594E-3
2.975152588E1,-1.725643501E-2,6.490251981E-3,8.246437646E-3
2.977163546E1,-2.794626169E-2,4.963133950E-3,7.635590737E-4
2.979174504E1,-5.314370990E-2,1.992889121E-2,-4.428642802E-3
2.981185458E1,-5.528167635E-2,4.329380020E-2,-1.664558798E-2
2.983196416E1,-5.635065958E-2,5.367820337E-2,-2.076880634E-2
2.985207369E1,-3.436015919E-2,3.413109109E-2,-8.246437646E-3
2.987218327E1,-1.068982668E-2,2.725905925E-2,5.039489828E-3
2.989229286E1,-5.955760833E-3,3.794888780E-2,1.527118147E-4
2.991240239E1,-7.330167107E-3,4.253023863E-2,-1.878355257E-2
2.993251197E1,-6.413896102E-3,4.237752780E-2,-3.100049868E-2
2.995262155E1,1.404948719E-2,5.047125369E-2,-2.443389036E-2
2.997273109E1,4.413371533E-2,3.458922729E-2,-8.551862091E-3
2.999284067E1,4.947862774E-2,1.504211407E-2,-1.527118147E-3
3.001295025E1,2.932066843E-2,9.086352773E-3,-4.581354558E-3
3.003305978E1,-1.985253533E-3,2.176143415E-2,-1.832541823E-2
3.005316937E1,-9.620844387E-3,3.321481869E-2,-3.374931216E-2
3.007327890E1,-9.162708884E-4,2.832804248E-2,-3.741439432E-2
3.009338848E1,1.068982668E-2,1.091889478E-2,-2.702999115E-2
3.011349806E1,2.901524538E-3,-4.657710437E-3,-2.061609551E-2
3.013360760E1,-3.359659761E-2,-6.948387716E-3,-1.939439960E-2
3.015371718E1,-4.611896724E-2,8.399150101E-4,-2.565558441E-2
3.017382676E1,-3.894151375E-2,9.697199799E-3,-2.626643144E-2
3.019393629E1,-3.283303976E-2,1.152974181E-2,-1.206423342E-2
3.021404588E1,-3.038965166E-2,4.657710437E-3,1.068982668E-2
3.023415546E1,-2.962609194E-2,-2.825168660E-3,1.450762246E-2
3.025426499E1,-2.962609194E-2,7.101099472E-3,9.162708884E-4
3.027437458E1,-4.275930673E-2,1.183516532E-2,-1.634016447E-2
3.029448416E1,-4.795150831E-2,3.061871976E-2,-1.740914769E-2
3.031459369E1,-3.863608837E-2,3.107685409E-2,-4.581354442E-4
3.033470327E1,-2.199050039E-2,2.725905925E-2,2.137965336E-2
3.035481286E1,-1.313321572E-2,2.542651631E-2,3.008422814E-2
3.037492239E1,-1.221694518E-2,2.374668792E-2,2.702999115E-2
3.039503197E1,-1.038440317E-2,2.221956849E-2,2.015795931E-2
3.041514150E1,3.665083554E-3,2.649549954E-2,1.969982497E-2
3.043525108E1,1.481304597E-2,2.038702741E-2,2.947338112E-2
3.045536067E1,3.939964995E-2,1.473669056E-2,4.062134400E-2
3.047547020E1,4.734066129E-2,-9.926267667E-4,3.848337755E-2
3.049557978E1,2.382304333E-2,-1.603474026E-3,2.290677279E-2
3.051568937E1,-1.618745178E-2,-8.399150101E-4,-2.290677279E-3
3.053579890E1,-4.230117425E-2,9.544488043E-3,-1.771457121E-2
3.055590848E1,-1.618745178E-2,2.848075330E-2,-2.168507688E-2
3.057601807E1,1.236965694E-2,3.565821052E-2,-9.009997360E-3
3.059612760E1,2.290677279E-2,1.748550311E-2,4.275931045E-3
3.061623718E1,1.817270555E-2,1.458397787E-2,7.024743594E-3
3.063634676E1,1.740914769E-2,3.489464894E-2,1.985253533E-3
3.065645629E1,-1.527118147E-3,2.664821222E-2,-1.511846948E-2
3.067656588E1,-2.397575416E-2,2.848075330E-2,-2.718270384E-2
3.069667546E1,-6.872031838E-3,2.527380548E-2,-2.535016090E-2
3.071678499E1,-2.168507688E-2,-8.399150101E-4,-1.298050396E-2
3.073689458E1,-6.444438547E-2,-8.322793990E-3,1.374406274E-3
3.075700416E1,-7.223268598E-2,-5.421269219E-3,4.886778072E-3
3.077711369E1,-4.734066129E-2,8.017370477E-3,5.650337320E-3
3.079722327E1,0.000000000E0,-9.391776286E-3,1.068982668E-2
3.081733286E1,1.343864016E-2,-3.077143058E-2,2.748812735E-2
3.083744239E1,7.330167107E-3,-1.641651988E-2,2.916795574E-2
3.085755197E1,-3.359660041E-3,1.168245357E-2,1.725643501E-2
3.087766155E1,-2.977880463E-2,1.183516532E-2,6.566607859E-3
3.089777109E1,-2.932066843E-2,5.344913807E-4,-3.054236295E-3
3.091788067E1,-1.710372418E-2,-8.933641016E-3,-1.068982668E-2
3.093799025E1,-1.710372418E-2,-1.412584260E-2,-6.872031838E-3
3.095809978E1,-2.550287358E-2,-1.763821393E-2,1.832541777E-3
3.097820937E1,-3.939964995E-2,-7.101099472E-3,3.206948051E-3
3.099831895E1,-2.962609194E-2,8.322793990E-3,2.596100792E-3
3.101842848E1,-7.482878864E-3,4.199574701E-3,1.985253533E-3
3.103853806E1,1.114796288E-2,-1.305686031E-2,9.468132630E-3
3.105864765E1,7.177455351E-3,-2.695363574E-2,1.084253844E-2
3.107875718E1,-1.038440317E-2,-2.741177008E-2,1.420219894E-2
3.109886676E1,-6.108472589E-4,-1.779092662E-2,1.007897966E-2
3.111897635E1,1.603474095E-2,-2.313583903E-2,-4.581354442E-4
3.113908588E1,1.924168877E-2,-3.107685409E-2,-8.857285604E-3
3.115919546E1,-3.206948051E-3,-3.382566571E-2,-2.244863659E-2
3.117930504E1,-3.344388679E-2,-2.145601064E-2,-4.474456236E-2
3.119941458E1,-6.948387623E-2,-2.099787444E-2,-6.642963737E-2
3.121952416E1,-9.284878522E-2,-2.664821222E-2,-6.612421572E-2
3.123963374E1,-5.833591148E-2,-4.199574701E-3,-5.528167635E-2
3.125974333E1,5.192201585E-3,1.565296017E-2,-3.985778242E-2
3.127985286E1,3.191677108E-2,4.352286924E-3,-1.588202827E-2
3.129996244E1,7.941014133E-3,-1.137703005E-2,-6.261184346E-3
3.132007202E1,-2.351761982E-2,7.635590737E-5,-1.359135192E-2
3.134018155E1,-2.718270384E-2,1.397313084E-2,-1.954711229E-2
3.136029114E1,-2.214321308E-2,5.879404955E-3,-1.588202827E-2
3.138040072E1,-1.847812906E-2,5.573981442E-3,-1.130067464E-2
3.140051025E1,-7.635590620E-3,2.680092305E-2,4.581354558E-3
3.142061984E1,1.679829881E-2,2.206685767E-2,2.367033064E-2
3.144072942E1,4.596625641E-2,1.046075951E-2,2.977880463E-2
3.146083895E1,5.726693198E-2,-3.817795368E-4,1.924168877E-2
3.148094853E1,3.909422457E-2,1.320957206E-2,5.650337320E-3
3.150105812E1,1.557660475E-2,2.695363574E-2,-4.275931045E-3
3.152116770E1,-2.336490713E-2,1.320957206E-2,-1.466033421E-2
3.154127723E1,-3.833066672E-2,-1.611109637E-2,-2.412846684E-2
3.156138682E1,-3.222219273E-2,-3.657447919E-2,-2.244863659E-2
3.158149640E1,-2.932066843E-2,-4.741701856E-2,-5.955760833E-3
3.160160593E1,-2.489202656E-2,-3.886515647E-2,2.901524538E-3
3.162171551E1,-1.160609815E-2,-1.656923257E-2,-1.374406274E-3
3.164182510E1,5.344913341E-3,-1.458397787E-2,-1.160609815E-2
3.166193463E1,2.137965336E-2,-2.680092305E-2,-8.093725890E-3
3.168204421E1,3.939964995E-2,-2.741177008E-2,4.123218823E-3
3.170215379E1,4.917320609E-2,-1.733279042E-2,1.389677543E-2
3.172226338E1,3.665083647E-2,-1.198787708E-2,1.282779220E-2
3.174237291E1,1.588202827E-2,-2.771719359E-2,1.068982761E-3
3.176248249E1,5.344913341E-3,-2.924431302E-2,-9.773556143E-3
3.178259208E1,1.114796288E-2,-2.145601064E-2,-9.009997360E-3
3.180270161E1,6.108472589E-4,-2.328855172E-2,-9.162708884E-4
3.182281119E1,-1.343864016E-2,-2.160872146E-2,3.512371797E-3
3.184292077E1,-2.000524849E-2,-1.595838554E-2,4.581354442E-4
3.186303030E1,-2.580829710E-2,-9.086352773E-3,2.443389036E-3
3.188313989E1,-2.092151903E-2,7.635590737E-5,1.053711493E-2
3.190324947E1,1.481304597E-2,1.450762269E-3,2.275406010E-2
3.192335900E1,3.649812192E-2,-8.475505747E-3,2.519745007E-2
3.194346858E1,4.138490185E-2,-7.864658721E-3,1.618745178E-2
3.196357817E1,3.451287001E-2,1.519482583E-2,1.374406274E-3
3.198368775E1,9.468132630E-3,6.642963737E-3,-3.817795310E-3
3.200379728E1,-2.718270384E-2,-1.779092662E-2,-7.635590737E-4
3.202390687E1,-3.206948191E-2,-1.061347127E-2,-5.344913341E-3
3.204401645E1,-4.581354558E-3,9.849912487E-3,-6.108472589E-3
3.206412598E1,1.847812906E-2,1.000262424E-2,5.192201585E-3
3.208423556E1,3.206948191E-2,1.397313084E-2,1.817270555E-2
3.210434515E1,2.199050039E-2,2.160872146E-2,2.183778957E-2
3.212445468E1,6.566607859E-3,4.359922186E-2,1.817270555E-2
3.214456426E1,-1.924168877E-2,4.955498502E-2,2.443389036E-2
3.216467385E1,-1.023169141E-2,-8.475505747E-3,7.177455351E-3
3.218478343E1,-1.084253844E-2,-4.466820508E-2,-2.535016090E-2
3.220489296E1,-4.352286831E-2,-3.092414327E-2,-3.542914242E-2
3.222500254E1,-6.184828654E-2,-1.091889478E-2,-2.168507688E-2
3.224511213E1,-3.512371704E-2,3.817795368E-4,-6.261184346E-3
3.226522166E1,5.192201585E-3,-1.656923257E-2,-1.527118147E-3
3.228533124E1,2.397575416E-2,-4.359922186E-2,-4.428642802E-3
3.230544083E1,2.351761982E-2,-4.421006888E-2,-7.635590620E-3
3.232555041E1,2.458660305E-2,-1.916533336E-2,-5.192201585E-3
3.234565994E1,4.092676565E-2,-5.879404955E-3,-1.985253533E-3
3.236576952E1,4.260659590E-2,-2.328855172E-2,-6.413896102E-3
3.238587911E1,1.557660475E-2,-2.832804248E-2,-1.420219894E-2
3.240598864E1,-2.275406010E-2,-4.810422193E-3,-3.481829539E-2
3.242609822E1,-5.085303262E-2,2.298312820E-2,-5.940489471E-2
3.244620780E1,-5.696150661E-2,2.283041552E-2,-6.474980712E-2
3.246631739E1,-4.886778072E-2,1.030804776E-2,-4.138490185E-2
3.248642692E1,-3.145863488E-2,1.168245357E-2,-2.397575416E-2
3.250653650E1,-7.482878864E-3,2.512109280E-2,-8.857285604E-3
3.252664608E1,9.162708884E-4,2.588465251E-2,3.359660041E-3
3.254675562E1,-1.664558798E-2,3.474193811E-2,1.221694518E-3
3.256686520E1,-3.756710514E-2,5.154023692E-2,-2.443389036E-3
3.258697478E1,-4.611896724E-2,2.939702384E-2,3.054236295E-3
3.260708432E1,-5.497625470E-2,4.199574701E-3,1.939439960E-2
3.262719390E1,-4.932591692E-2,2.069245093E-2,3.374931216E-2
3.264730348E1,-4.153761268E-2,4.314108938E-2,4.703523964E-2
3.266741307E1,-2.809897438E-2,4.054498672E-2,5.848862603E-2
3.268752260E1,-8.704573847E-3,2.221956849E-2,5.971032009E-2
3.270763218E1,-6.108472589E-4,1.603474026E-3,5.528167635E-2
3.272774176E1,5.955760833E-3,-9.391776286E-3,4.352286831E-2
3.274785129E1,2.489202656E-2,-1.840177365E-2,5.238015205E-2
3.276796088E1,3.894151375E-2,-2.817532979E-2,6.230641901E-2
3.278807046E1,2.061609551E-2,-1.824906096E-2,5.894676223E-2
3.280818004E1,9.620844387E-3,-2.359397523E-2,3.054236248E-2
3.282828958E1,2.901524538E-3,-4.283566400E-2,-4.734066315E-3
3.284839916E1,-6.261184346E-3,-4.008685052E-2,-2.031067200E-2
3.286850874E1,-2.596100792E-3,-3.092414327E-2,-1.481304597E-2
3.288861827E1,1.664558798E-2,-2.451024577E-2,-8.246437646E-3
3.290872786E1,2.641914412E-2,-1.565296017E-2,-2.046338283E-2
3.292883744E1,4.734066315E-3,-1.275143679E-2,-3.787253052E-2
3.294894697E1,-2.336490713E-2,-1.611109637E-2,-4.611896724E-2
3.296905655E1,-2.993151546E-2,-1.137703005E-2,-4.932591692E-2
3.298916614E1,-1.404948719E-2,-9.391776286E-3,-3.756710514E-2
3.300927572E1,-5.650337320E-3,-1.992889121E-2,-1.924168877E-2
3.302938525E1,-2.428117767E-2,-3.672719002E-2,-1.679830020E-3
3.304949484E1,-4.902049154E-2,-3.596363217E-2,1.114796288E-2
3.306960442E1,-4.428642616E-2,-1.931804419E-2,2.641914412E-2
3.308971395E1,-1.145338640E-2,-6.032116711E-3,4.230117425E-2
3.310982353E1,1.084253844E-2,-7.635590737E-5,5.283828825E-2
3.312993312E1,-5.344913341E-3,-2.061609412E-3,5.711421743E-2
3.315004270E1,-2.764083818E-2,-6.184828468E-3,6.123743951E-2
3.317015223E1,-3.283303976E-2,-5.421269219E-3,7.162184268E-2
3.319026182E1,-1.313321572E-2,8.628217503E-3,9.009996802E-2
3.321037140E1,9.315420873E-3,2.542651631E-2,1.084253863E-1
3.323048093E1,-1.252236869E-2,2.977880416E-3,1.140757278E-1
3.325059051E1,-5.589252338E-2,-4.657710437E-3,1.047603041E-1
3.327070010E1,-8.536590636E-2,1.656923257E-2,9.697200358E-2
3.329080963E1,-7.207997888E-2,3.397838026E-2,1.043021679E-1
3.331091921E1,-4.260659590E-2,9.697199799E-3,1.097997949E-1
3.333102879E1,-3.191677108E-2,-1.214058883E-2,1.142284349E-1
3.335113838E1,-3.206948191E-2,-5.115845706E-3,1.047603041E-1
3.337124791E1,-2.229592577E-2,2.191414498E-2,9.910997003E-2
3.339135749E1,-4.581354558E-3,6.642963737E-3,9.819369763E-2
3.341146708E1,-2.305948362E-2,-3.565821052E-2,9.834641218E-2
3.343157661E1,-5.528167635E-2,-3.855973482E-2,9.223793447E-2
3.345168619E1,-4.825693369E-2,-2.588465251E-2,8.215895295E-2
3.347179577E1,-1.527118147E-3,-7.704310864E-2,9.529217333E-2
3.349190536E1,3.206948051E-3,-1.184280142E-1,1.015533581E-1
3.351201489E1,-5.375456065E-2,-6.390989572E-2,7.711946964E-2
3.353212447E1,-1.082726792E-1,1.977618039E-2,2.535016090E-2
3.355223405E1,-1.036913246E-1,3.428380191E-2,-1.252236869E-2
3.357234358E1,-6.352811307E-2,2.069245093E-2,-1.023169141E-2
3.359245317E1,-4.718795046E-2,8.322793990E-3,5.100574717E-2
3.361256275E1,5.803049076E-3,7.635590737E-5,9.040539712E-2
3.363267228E1,4.184303805E-2,-1.290414855E-2,8.628217876E-2
3.365278187E1,2.702999115E-2,-2.435753495E-2,7.818844914E-2
3.367289145E1,-2.443389036E-3,3.504735976E-2,5.635065958E-2
3.369300103E1,1.572931744E-2,6.238277629E-2,2.947338112E-2
3.371311056E1,5.864133686E-2,1.992889121E-2,3.100049868E-2
3.373322015E1,8.674030751E-2,-2.374668792E-2,4.825693369E-2
3.375332973E1,8.322793990E-2,-1.183516532E-2,6.245913357E-2
3.377343926E1,4.520269856E-2,2.954973653E-2,6.826218218E-2
3.379354885E1,8.399149403E-3,5.810684711E-2,5.344913527E-2
3.381365843E1,4.275931045E-3,4.756972939E-2,3.573456407E-2
3.383376796E1,4.184303805E-2,4.046862945E-3,3.985778242E-2
3.385387754E1,9.193251282E-2,-1.931804419E-2,5.405998230E-2
3.387398713E1,8.780929446E-2,3.894151188E-3,4.260659590E-2
3.389409671E1,2.840439789E-2,2.527380548E-2,4.886778072E-3
3.391420624E1,-2.229592577E-2,2.970244735E-2,-3.588727489E-2
3.393431582E1,-1.878355257E-2,3.565821052E-2,-4.993676394E-2
3.395442541E1,1.832541777E-3,4.207210615E-2,-4.550812021E-2
3.397453494E1,-1.374406274E-3,2.008160390E-2,-3.038965166E-2
3.399464452E1,-1.527118124E-2,3.283303929E-3,-2.489202656E-2
3.401475411E1,2.641914412E-2,-8.322793990E-3,-3.206948191E-2
3.403486364E1,-8.200624585E-2,5.657972768E-2,-5.161659420E-2
3.405497322E1,-3.501681983E-1,6.604786217E-2,-8.002099395E-2
3.407508280E1,-1.185043678E-1,6.681142002E-2,-5.115845799E-2
3.409519234E1,1.279724985E-1,-9.445225447E-2,-6.612421572E-2
3.411530192E1,3.483356535E-1,-2.286859453E-1,-7.314895838E-2
