"Time (s)","Gyroscope x (rad/s)","Gyroscope y (rad/s)","Gyroscope z (rad/s)"
2.996646200E-2,-3.329117596E-1,1.056765765E-1,1.613400280E-1
5.007599400E-2,-2.673983872E-1,1.203369126E-1,1.068219170E-1
7.018552500E-2,-2.504473738E-2,5.238015205E-2,-1.152974181E-2
9.029505600E-2,1.036913246E-1,9.605573118E-2,-1.098761484E-1
1.104046400E-1,1.288887709E-1,1.151447073E-1,-2.102078199E-1
1.305141710E-1,7.253811508E-2,1.139230132E-1,-1.715717167E-1
1.506237020E-1,-1.496575773E-2,1.846285909E-1,-1.091125906E-1
1.707332850E-1,-8.338065445E-2,1.771457046E-1,-4.298837483E-2
1.908428170E-1,-8.796200156E-2,1.230857223E-1,9.849912487E-3
2.109523480E-1,-3.878879920E-2,7.452336699E-2,2.672456671E-3
2.310618790E-1,6.719320081E-3,7.788302377E-3,-3.153498843E-2
2.511714100E-1,3.252761811E-2,2.901524538E-3,-3.077143058E-2
2.712809940E-1,4.138490185E-2,6.536065787E-2,-1.473669056E-2
2.913905250E-1,2.153236605E-2,7.070557028E-2,1.046075951E-2
3.115000560E-1,-3.206948051E-3,2.458660305E-2,5.444176123E-2
3.316095870E-1,1.068982668E-2,-6.413896102E-3,7.597412914E-2
3.517191710E-1,4.535540938E-2,-2.733541466E-2,6.055023521E-2
3.718287020E-1,6.337540597E-2,-2.229592577E-2,5.092938989E-2
3.919382330E-1,4.764608666E-2,3.512371797E-3,4.451549426E-2
4.120477650E-1,6.413896102E-3,1.267508045E-2,3.138227761E-2
4.321573480E-1,-3.787253052E-2,2.611372061E-2,2.466295846E-2
4.522668790E-1,-5.757235363E-2,6.872031838E-3,2.359397523E-2
4.723764100E-1,-4.840964451E-2,-3.237490356E-2,2.557922900E-2
4.924859420E-1,-1.084253844E-2,-6.093201414E-2,4.543176666E-2
5.125954730E-1,3.924693540E-2,-6.612421572E-2,6.696412712E-2
5.327050560E-1,7.971556485E-2,-4.031591862E-2,6.742226332E-2
5.528145870E-1,8.307522535E-2,-6.413896102E-3,4.543176666E-2
5.729241190E-1,3.649812192E-2,-1.466033421E-2,1.000262424E-2
5.930336500E-1,-3.833066672E-2,-5.100574717E-2,-4.756972939E-2
6.131431810E-1,-7.711946964E-2,-3.344388679E-2,-1.072800532E-1
6.332527650E-1,-5.482354015E-2,1.863084175E-2,-1.475959718E-1
6.533622960E-1,-2.046338283E-2,2.351761982E-2,-1.460688561E-1
6.734718270E-1,-8.551862091E-3,-5.039489828E-3,-1.169008911E-1
6.935813580E-1,-6.108472589E-3,-1.710372418E-2,-9.109259397E-2
7.136908900E-1,2.076880634E-2,1.634016447E-2,-8.941277117E-2
7.338004730E-1,5.360184610E-2,4.459185153E-2,-8.895463496E-2
7.539100040E-1,5.573981255E-2,1.985253580E-2,-8.025006205E-2
7.740195350E-1,4.871506989E-2,6.566607859E-3,-7.261446863E-2
7.941290670E-1,3.420744836E-2,-1.908897609E-2,-6.543701142E-2
8.142385980E-1,1.572931744E-2,-3.222219273E-2,-5.383091420E-2
8.343481810E-1,1.068982761E-3,-2.046338283E-2,-3.749075159E-2
8.544577120E-1,2.901524538E-3,-3.023693897E-2,-3.000787087E-2
8.745672440E-1,3.023693897E-2,-2.428117767E-2,-1.473669056E-2
8.946767750E-1,6.215370819E-2,-1.236965694E-2,5.115845706E-3
9.147863060E-1,5.299099907E-2,-6.108472589E-4,4.352286924E-3
9.348958370E-1,1.985253580E-2,8.704573847E-3,2.367033157E-3
9.550053690E-1,4.581354558E-3,2.458660305E-2,-1.145338640E-3
9.751149520E-1,7.482878864E-3,3.909422457E-2,-6.795675959E-3
9.952244830E-1,-4.123218823E-3,2.672456764E-2,-7.406522986E-3
1.015334015E0,-3.298575059E-2,2.168507688E-2,-9.926267667E-4
1.035443546E0,-5.299099907E-2,4.260659590E-2,2.061609412E-3
1.055553077E0,-6.352811307E-2,4.062134400E-2,-6.032116711E-3
1.075662608E0,-5.161659420E-2,3.100049868E-2,-5.115845706E-3
1.095772192E0,-2.825168520E-2,3.863608837E-2,-3.283303929E-3
1.115881723E0,-1.542389300E-2,5.283828825E-2,5.115845706E-3
1.135991254E0,-1.466033421E-2,6.261184067E-2,2.435753495E-2
1.156100785E0,-6.872031838E-3,6.322269142E-2,4.344651103E-2
1.176210317E0,1.023169141E-2,6.093201414E-2,4.512634128E-2
1.196319848E0,3.680354729E-2,6.139015034E-2,3.840702027E-2
1.216429431E0,6.749862432E-2,5.741964281E-2,3.764346242E-2
1.236538962E0,7.543963939E-2,4.230117425E-2,4.924955964E-2
1.256648494E0,2.855710872E-2,-3.970507067E-3,5.688514933E-2
1.276758025E0,-3.069507517E-2,-4.169032723E-2,5.047125369E-2
1.296867556E0,-4.749337584E-2,-4.459185153E-2,2.252499200E-2
1.316977087E0,-2.672456764E-2,-3.390202299E-2,-1.076618303E-2
1.337086619E0,9.162709117E-3,-5.192201585E-3,-1.656923257E-2
1.357196150E0,2.764083818E-2,-5.803049076E-3,2.519744914E-3
1.377305681E0,2.565558441E-2,-8.399149403E-3,1.336228382E-2
1.397415265E0,9.773556143E-3,-1.985253533E-3,-2.977880416E-3
1.417524796E0,-7.941014133E-3,1.588202827E-2,-1.702736691E-2
1.437634327E0,-1.847812906E-2,4.016320780E-2,-2.023431472E-2
1.457743858E0,-1.832541777E-3,3.787253052E-2,-2.267770469E-2
1.477853390E0,2.137965523E-3,-0.000000000E0,-3.825430945E-2
1.497962921E0,-1.496575773E-2,-1.252236869E-2,-3.611634299E-2
1.518072452E0,-3.344388679E-2,2.901524538E-3,-3.046600707E-2
1.538181983E0,-2.977880463E-2,1.450762246E-2,-1.122431830E-2
1.558291567E0,7.941014133E-3,1.801999472E-2,5.421269219E-3
1.578401098E0,4.260659590E-2,1.527118147E-4,-2.214321401E-3
1.598510629E0,2.260134928E-2,-4.046862945E-2,-9.849912487E-3
1.618620160E0,-2.000524849E-2,-4.138490185E-2,-2.405211143E-2
1.638729692E0,-3.466558084E-2,-1.007897966E-2,-4.665346071E-2
1.658839223E0,-1.389677543E-2,1.313321572E-2,-4.527905211E-2
1.678948754E0,1.954711229E-2,-5.803049076E-3,-3.336753324E-2
1.699058285E0,4.123219103E-2,-3.115320951E-2,-3.122956678E-2
1.719167817E0,4.169032723E-2,-2.351761982E-2,-2.741177008E-2
1.739277348E0,2.305948362E-2,-7.941014133E-3,-3.077143058E-2
1.759386879E0,6.261184346E-3,7.788302377E-3,-3.367295489E-2
1.779496410E0,2.901524538E-3,6.108472589E-3,-3.520007432E-2
1.799605942E0,7.941014133E-3,-1.023169141E-2,-2.848075330E-2
1.819715525E0,1.404948719E-2,-1.634016447E-2,-2.344126441E-2
1.839825056E0,2.137965336E-2,-1.175880991E-2,-2.145601064E-2
1.859934587E0,2.489202656E-2,1.343864016E-2,-1.748550311E-2
1.880044119E0,9.620844387E-3,2.031067200E-2,-1.061347127E-2
1.900153650E0,-3.512371797E-3,-1.832541777E-3,-7.711946499E-3
1.920263181E0,-1.221694518E-3,-3.054236295E-4,-8.933641016E-3
1.940372712E0,-1.481304597E-2,-1.038440317E-2,-1.244601328E-2
1.960482244E0,-4.871506989E-2,-1.893626526E-2,-1.443126611E-2
1.980591775E0,-7.040014863E-2,-2.672456764E-2,-1.519482583E-2
2.000701306E0,-5.528167635E-2,-2.641914412E-2,-6.642963737E-3
2.020810837E0,-2.489202656E-2,-1.954711229E-2,9.544488043E-3
2.040920369E0,-5.497625098E-3,-7.330167107E-3,2.970244735E-2
2.061029900E0,5.039489828E-3,-2.596100792E-3,4.955498502E-2
2.081139431E0,4.734066315E-3,5.039489828E-3,5.596888065E-2
2.101248962E0,-4.275931045E-3,-6.261184346E-3,6.039752439E-2
2.121358546E0,-1.801999472E-2,-1.572931744E-2,5.047125369E-2
2.141468077E0,-2.779355086E-2,-1.801999472E-2,4.772244394E-2
2.161577608E0,-2.947338112E-2,-2.107422985E-2,5.978667364E-2
2.181687140E0,-3.038965166E-2,-2.611372061E-2,6.849125028E-2
2.201796671E0,-1.954711229E-2,-4.566083103E-2,6.650599837E-2
2.221906202E0,-6.413896102E-3,-6.291726977E-2,5.306735635E-2
2.242015733E0,-1.267508045E-2,-5.207473040E-2,4.680617154E-2
2.262125265E0,-1.634016447E-2,-6.872031838E-3,4.940227047E-2
2.282234796E0,-1.481304597E-2,-1.252236869E-2,3.016058356E-2
2.302344327E0,-6.719320081E-3,-3.176405653E-2,3.588727675E-3
2.322453858E0,7.177455351E-3,-1.924168877E-2,-1.794363745E-2
2.342563390E0,1.343864016E-2,1.572931744E-2,-4.558447748E-2
2.362672921E0,1.588202827E-2,4.046862945E-2,-7.811209559E-2
2.382782452E0,2.535016090E-2,6.398624927E-2,-1.026986986E-1
2.402891983E0,2.565558441E-2,6.398624927E-2,-9.139802307E-2
2.423001515E0,1.175880991E-2,4.917320609E-2,-4.695888236E-2
2.443111046E0,5.497625098E-3,3.130592033E-2,-2.573194169E-2
2.463220577E0,1.924168877E-2,2.137965336E-2,-3.718532622E-2
2.483330108E0,3.344388679E-2,1.160609815E-2,-5.566345528E-2
2.503439640E0,2.015795931E-2,-5.803049076E-3,-6.360447407E-2
2.523549171E0,-5.039489828E-3,-1.114796288E-2,-5.428905040E-2
2.543658702E0,-1.939439960E-2,3.206948051E-3,-4.207210615E-2
2.563768233E0,-1.954711229E-2,1.160609815E-2,-3.352024406E-2
2.583877765E0,1.389677543E-2,2.672456764E-2,-2.710634656E-2
2.603987296E0,5.803048983E-2,3.924693540E-2,-3.855973482E-2
2.624096827E0,6.978929788E-2,3.619270027E-2,-4.833329096E-2
2.644206358E0,2.977880463E-2,5.039489828E-3,-2.237228118E-2
2.664315890E0,1.374406274E-3,-1.343864016E-2,3.245126083E-2
2.684425421E0,2.428117767E-2,2.015795931E-2,3.901786730E-2
2.704534952E0,5.558710173E-2,3.252761811E-2,1.641651988E-2
2.724644483E0,4.046862945E-2,-1.725643501E-2,-8.933641016E-3
2.744754015E0,6.719320081E-3,-1.435491070E-2,-3.153498843E-2
2.764863546E0,-4.428642802E-3,1.252236869E-2,-4.695888236E-2
2.784973077E0,1.939439960E-2,1.771457121E-2,-3.794888780E-2
2.805082608E0,5.283828825E-2,2.168507688E-2,-2.084516361E-2
2.825192140E0,4.749337584E-2,1.404948719E-2,-1.626380906E-2
2.845301671E0,7.941014133E-3,-2.229592577E-2,-2.130329795E-2
2.865411202E0,-1.588202827E-2,-2.901524492E-2,-2.817532979E-2
2.885520733E0,5.803049076E-3,2.672456764E-2,-2.374668792E-2
2.905630265E0,3.283303976E-2,5.573981255E-2,-8.780929260E-3
2.925739796E0,3.894151375E-2,4.062134400E-2,3.588727675E-3
2.945849327E0,2.825168520E-2,2.046338283E-2,-8.399150101E-4
2.965958858E0,1.679829881E-2,1.985253580E-2,-1.046075951E-2
2.986068390E0,1.664558798E-2,4.306473210E-2,-4.504998680E-3
3.006177921E0,4.199574888E-2,8.979454637E-2,9.697199799E-3
3.026287452E0,6.810946763E-2,1.099525094E-1,1.794363745E-2
3.046396983E0,6.810946763E-2,5.833591148E-2,4.604261369E-2
3.066506515E0,4.657710344E-2,-1.893626526E-2,7.795938104E-2
3.086616046E0,3.329117596E-2,-1.878355257E-2,7.459972054E-2
3.106725577E0,3.237490356E-2,6.994201243E-2,3.474193811E-2
3.126835108E0,2.657185495E-2,1.472141892E-1,-1.061347127E-2
3.146944640E0,3.405473381E-2,1.779092699E-1,-2.466295846E-2
3.167054171E0,6.902574003E-2,1.386623234E-1,9.544488043E-3
3.187163702E0,1.114796251E-1,1.058292910E-1,6.971294433E-2
3.207273233E0,1.142284349E-1,1.032331884E-1,9.918632358E-2
3.227382765E0,4.978405312E-2,6.810946763E-2,8.422056586E-2
3.247492296E0,-2.672456764E-2,2.764083818E-2,5.306735635E-2
3.267601827E0,-4.810422286E-2,7.360709459E-2,1.320957206E-2
3.287711358E0,-1.343864016E-2,1.240019947E-1,-2.519744914E-3
3.307820837E0,3.451287001E-2,8.643488586E-2,2.191414498E-2
3.327930369E0,7.284353673E-2,4.291202128E-2,4.146125913E-2
3.348039900E0,7.467607409E-2,5.680879578E-2,2.512109280E-2
3.368149431E0,4.596625641E-2,9.300149232E-2,7.101099472E-3
3.388258962E0,1.023169141E-2,1.181989461E-1,2.061609412E-3
3.408368494E0,-1.649287529E-2,1.177408099E-1,-1.450762269E-3
3.428478025E0,-2.458660305E-2,8.521319181E-2,-1.504211407E-2
3.448587556E0,-3.817795217E-2,4.902049154E-2,-3.168770298E-2
3.468697087E0,-8.276980370E-2,4.474456236E-2,-3.092414327E-2
3.488806619E0,-1.296523362E-1,5.253286287E-2,-1.733279042E-2
3.508916150E0,-1.491994411E-1,2.962609194E-2,-1.183516532E-2
3.529025681E0,-1.331647038E-1,-4.886778072E-3,-8.933641016E-3
3.549135212E0,-1.029277667E-1,-9.468132630E-3,-1.145338640E-3
3.569244744E0,-8.414421231E-2,2.962609194E-2,1.244601328E-2
3.589354275E0,-8.826743066E-2,6.872031838E-2,3.000787087E-2
3.609463806E0,-9.727742523E-2,6.200099736E-2,4.573718831E-2
3.629573285E0,-7.314895838E-2,5.803048983E-2,6.253548712E-2
3.649682817E0,-5.085303262E-2,7.345438004E-2,5.917582661E-2
3.669792348E0,-8.521319181E-2,8.017370105E-2,4.069769755E-2
3.689901879E0,-1.760767251E-1,5.497625470E-2,1.214058883E-2
3.710011410E0,-2.426590770E-1,9.620844387E-3,-1.977618039E-2
3.730120942E0,-2.011214644E-1,5.344913527E-2,-2.771719359E-2
3.750230473E0,-6.230641901E-2,1.832541823E-1,2.695363574E-2
3.770340004E0,4.413371533E-2,2.559449971E-1,1.285069883E-1
3.790449535E0,1.771457121E-2,1.931804419E-1,2.228828967E-1
3.810559067E0,-7.345438004E-2,9.590301663E-2,2.457896620E-1
3.830668598E0,-1.038440317E-1,8.399149776E-2,1.982962936E-1
3.850778129E0,-3.924693540E-2,1.499630064E-1,1.352263093E-1
3.870887660E0,1.450762246E-2,2.383831441E-1,1.240783483E-1
3.890997192E0,-1.068982668E-2,2.478512824E-1,1.964637488E-1
3.911106671E0,-8.108997345E-2,8.475505561E-2,2.754157484E-1
3.931216202E0,-1.105633527E-1,-2.000524849E-2,3.116084635E-1
3.951325733E0,-1.462979168E-1,-1.646233350E-1,2.703762650E-1
3.971435265E0,-2.402156889E-1,-3.703261614E-1,2.108186632E-1
3.991544796E0,-3.184041381E-1,-2.930539846E-1,1.417929232E-1
4.011654327E0,-2.141019702E-1,1.262926757E-1,6.100837141E-2
4.031763858E0,1.119377613E-1,4.895940721E-1,6.116108224E-2
4.051873390E0,4.443913698E-1,4.966188073E-1,1.674485058E-1
4.071982921E0,6.287145615E-1,2.632751763E-1,2.760266066E-1
4.092092452E0,6.452074051E-1,7.406523079E-2,2.735832036E-1
4.112201983E0,5.506787896E-1,-8.170082420E-2,2.346417010E-1
4.132311515E0,4.169032574E-1,-2.403683960E-1,2.318928838E-1
4.152420994E0,2.588465214E-1,-3.558185399E-1,2.083752751E-1
4.172530525E0,6.200099736E-2,-4.672981501E-1,1.598129123E-1
4.192640056E0,-1.267508119E-1,-4.677563012E-1,1.114032716E-1
4.212749587E0,-2.063136548E-1,-2.447970361E-1,3.229855001E-2
4.232859119E0,-6.948387623E-2,8.994726092E-2,-1.794363745E-2
4.252968650E0,1.386623234E-1,2.322746664E-1,-3.588727675E-3
4.273078181E0,2.353289127E-1,1.328592747E-1,8.025006205E-2
4.293187712E0,1.898207814E-1,-4.001049697E-2,1.332410574E-1
4.313297244E0,1.282779276E-1,-9.788827598E-2,9.155073017E-2
4.333406775E0,9.498675168E-2,-7.941014320E-2,1.122431830E-2
4.353516306E0,7.375980914E-2,-5.711421743E-2,-2.214321401E-3
4.373625785E0,4.810422286E-2,-4.581354558E-2,1.870719716E-2
4.393735317E0,5.512896553E-2,-2.870982140E-2,4.253023863E-2
4.413844848E0,9.055810422E-2,-1.221694518E-3,4.390464723E-2
4.433954379E0,8.612946421E-2,1.435491070E-2,1.824906096E-2
4.454063910E0,4.107947648E-2,7.024743594E-3,9.849912487E-3
4.474173442E0,2.305948362E-2,-1.282779220E-2,2.634278871E-2
4.494282973E0,6.398624927E-2,-2.336490713E-2,6.146650389E-2
4.514392504E0,1.059819981E-1,-5.635065958E-2,8.971819282E-2
4.534501983E0,1.131594554E-1,-1.157555580E-1,1.074327603E-1
4.554611515E0,7.421794534E-2,-1.495048702E-1,9.750649333E-2
4.574721046E0,2.840439789E-2,-1.380514801E-1,7.062921673E-2
4.594830577E0,-2.901524538E-3,-1.554606259E-1,2.970244735E-2
4.614940108E0,1.771457121E-2,-1.747023165E-1,1.611109637E-2
4.635049640E0,7.757759839E-2,-1.774511337E-1,1.504211407E-2
4.655159171E0,1.004843712E-1,-2.040229887E-1,-5.726693198E-3
4.675268702E0,9.239064902E-2,-2.371614426E-1,-3.703261539E-2
4.695378233E0,7.711946964E-2,-2.018850148E-1,-7.276718318E-2
4.715487712E0,1.817270555E-2,-2.145601064E-1,-7.902836055E-2
4.735597244E0,-1.994416267E-1,-5.326588154E-1,-6.009209901E-2
4.755706775E0,-3.781144619E-1,-4.249969721E-1,1.763821393E-2
4.775816306E0,-4.943281412E-1,-2.950392365E-1,2.115058713E-2
4.795925837E0,-5.586197972E-1,-3.703261614E-1,1.290414855E-2
4.816035369E0,-4.056025743E-1,-3.100049794E-1,4.268295318E-2
4.836144900E0,9.819369763E-2,4.245388508E-2,9.765920788E-2
4.856254431E0,6.606312990E-1,1.998997629E-1,1.683647782E-1
4.876363962E0,9.032903910E-1,-1.258345395E-1,2.830513418E-1
4.896473442E0,7.287407517E-1,-5.734328628E-1,3.398601413E-1
4.916582973E0,2.809897363E-1,-6.896465421E-1,1.813452840E-1
4.936692504E0,-1.023169160E-1,-2.790044844E-1,-7.047650218E-2
4.956802035E0,-2.058555335E-1,3.400892019E-1,-2.903815210E-1
4.976911567E0,-1.311794519E-1,5.923691392E-1,-3.519243896E-1
4.997021098E0,-3.817795217E-2,4.508052766E-1,-2.436517030E-1
5.017130629E0,4.535540938E-2,2.252499312E-1,-9.078717232E-2
5.037240160E0,1.311794519E-1,1.947075576E-1,-4.352286924E-3
5.057349640E0,1.501157135E-1,2.886253297E-1,-2.725905925E-2
5.077459171E0,4.153761268E-2,3.191677034E-1,-1.172063202E-1
5.097568702E0,-1.072036922E-1,3.034383655E-1,-2.050156146E-1
5.117678233E0,-1.670667231E-1,3.016058207E-1,-2.413610220E-1
5.137787765E0,-1.505738497E-1,2.864873707E-1,-2.183015347E-1
5.157897296E0,-1.391204596E-1,2.577775419E-1,-1.691283286E-1
5.178006827E0,-1.701209545E-1,2.680092454E-1,-1.544679999E-1
5.198116358E0,-1.805053651E-1,3.176405728E-1,-1.564532518E-1
5.218225837E0,-1.212531775E-1,3.684936166E-1,-1.437781751E-1
5.238335369E0,-5.360184610E-2,3.318427801E-1,-1.005607322E-1
5.258444900E0,-5.421269313E-2,2.186833173E-1,-4.986040667E-2
5.278554431E0,-8.063183725E-2,1.519482583E-1,-2.053973824E-2
5.298663962E0,-5.008947477E-2,1.878355294E-1,-1.168245357E-2
5.318773494E0,1.023169141E-2,2.008160353E-1,1.504211407E-2
5.338883025E0,4.214845970E-2,1.433963925E-1,6.772769243E-2
5.358992556E0,-2.596100792E-3,7.941014133E-3,8.788564801E-2
5.379102035E0,-9.376505762E-2,-9.575030953E-2,9.368869662E-2
5.399211567E0,-1.247655526E-1,-3.268032894E-2,8.284615725E-2
5.419321098E0,-7.177454978E-2,1.408002973E-1,6.543701142E-2
5.439430629E0,2.336490713E-2,2.521272004E-1,8.803836256E-2
5.459540160E0,5.528167635E-2,3.003841341E-1,1.228566542E-1
5.479649640E0,-5.436540768E-2,9.208522737E-2,1.633252800E-1
5.499759171E0,-2.235700935E-1,-3.959817290E-1,2.126512080E-1
5.519868702E0,-2.504473627E-1,-2.728960216E-1,2.386122048E-1
5.539978233E0,-1.973036677E-1,-2.067717910E-1,1.895917207E-1
5.560087765E0,-1.122431830E-1,-2.867927849E-1,1.738623977E-1
5.580197296E0,3.115320951E-2,-1.466033421E-2,1.941730678E-1
5.600306827E0,2.052446753E-1,3.246653080E-1,1.532463133E-1
5.620416358E0,2.556395829E-1,2.302894145E-1,1.115559787E-1
5.640525837E0,1.670667231E-1,-1.563768983E-1,1.416402012E-1
5.660635369E0,1.068982668E-2,-4.457657933E-1,1.378224194E-1
5.680744900E0,-4.367557913E-2,-3.124483824E-1,1.071273386E-1
5.700854431E0,1.420219894E-2,4.062134400E-2,6.085565686E-2
5.720963962E0,6.215370819E-2,1.670667231E-1,1.962346770E-2
5.741073494E0,5.757235363E-2,3.436015919E-2,3.588727675E-3
5.761183025E0,7.681404054E-2,-1.710372418E-2,7.711946499E-3
5.781292504E0,1.507265568E-1,1.235438585E-1,1.473669056E-2
5.801402035E0,1.765348613E-1,1.995943487E-1,2.435753495E-2
5.821511567E0,9.773556143E-2,1.455343664E-1,4.237752780E-2
5.841621098E0,-4.031591862E-2,-1.130067464E-2,2.176143415E-2
5.861730629E0,-1.278197914E-1,-1.018587798E-1,-4.023956135E-2
5.881840160E0,-1.215586066E-1,-9.300149232E-2,-9.613208473E-2
5.901949640E0,-4.947862774E-2,-1.160609815E-2,-8.773294091E-2
5.922059171E0,1.496575773E-2,1.618745178E-2,-3.184041381E-2
5.942168702E0,4.291202128E-2,-3.161134571E-2,1.366770733E-2
5.962278233E0,3.756710514E-2,-2.840439789E-2,-2.367033157E-3
5.982387765E0,-1.893626526E-2,-1.786728203E-2,-6.665870547E-2
6.002497296E0,-7.192726433E-2,-1.786728203E-2,-9.460496902E-2
6.022606827E0,-6.520794332E-2,-1.588202827E-2,-8.162446320E-2
6.042716306E0,-1.542389300E-2,-1.282779220E-2,-3.962871432E-2
6.062825837E0,2.305948362E-2,-4.871506989E-2,-9.391776286E-3
6.082935369E0,2.748812735E-2,-1.072036922E-1,-1.702736691E-2
6.103044900E0,2.748812549E-3,-2.017323077E-1,-6.497887522E-2
6.123154431E0,5.497625098E-3,-3.219164908E-1,-9.750649333E-2
6.143263910E0,1.064401343E-1,-3.408527672E-1,-5.566345528E-2
6.163373442E0,1.753131598E-1,-3.625378609E-1,-3.764346242E-2
6.183482973E0,1.226275861E-1,-4.263713956E-1,-3.352024406E-2
6.203592504E0,2.168507688E-2,-4.039227366E-1,-4.069769755E-2
6.223702035E0,1.832541777E-3,-1.565296054E-1,-4.802786559E-2
6.243811567E0,-5.512896553E-2,-1.931804419E-1,-7.795938104E-2
6.263921098E0,-1.989834905E-1,-3.787252903E-1,-6.604786217E-2
6.284030577E0,-3.329117596E-1,-2.832804024E-1,-1.169008911E-1
6.304140108E0,-3.862081766E-1,-1.516428292E-1,-2.590755820E-1
6.324249640E0,-2.134911120E-1,2.134911120E-1,-3.232145607E-1
6.344359171E0,9.559759498E-2,5.373928547E-1,-3.221455812E-1
6.364468702E0,3.982724249E-1,5.462501645E-1,-2.748049200E-1
6.384578233E0,6.772769094E-1,2.648022771E-1,-1.943257898E-1
6.404687712E0,8.496885300E-1,-1.330119967E-1,-1.457634270E-1
6.424797244E0,6.737645268E-1,-5.018110275E-1,-2.141783237E-1
6.444906775E0,9.544488788E-2,-6.047387719E-1,-3.937674165E-1
6.465016306E0,-5.111264586E-1,-2.309002578E-1,-5.790068507E-1
6.485125837E0,-7.625664473E-1,3.816268146E-1,-7.176691890E-1
6.505235369E0,-6.235223413E-1,6.442911625E-1,-6.607076526E-1
6.525344848E0,-3.200839758E-1,5.195255876E-1,-4.241570532E-1
6.545454379E0,-1.618745178E-2,1.699682474E-1,-1.364480108E-1
6.565563910E0,2.034121305E-1,-6.200099736E-2,1.061347127E-2
6.585673442E0,2.559449971E-1,-5.176930502E-2,2.367033157E-3
6.605782973E0,1.136175916E-1,-5.039489828E-3,-2.634278871E-2
6.625892504E0,-1.206423342E-1,-5.192201585E-3,-4.329380020E-2
6.646001983E0,-3.144336343E-1,-7.849387079E-2,-7.994463295E-2
6.666111515E0,-3.194731176E-1,-5.864133686E-2,-9.460496902E-2
6.686221046E0,-1.487413049E-1,3.084778599E-2,-7.185091078E-2
6.706330577E0,4.856235534E-2,9.086353332E-2,-2.672456671E-3
6.726440108E0,1.620272398E-1,9.025268257E-2,8.971819282E-2
6.746549640E0,1.572931707E-1,8.078455180E-2,1.201078445E-1
6.766659119E0,7.910472155E-2,4.413371533E-2,1.023932695E-1
6.786768650E0,1.740914769E-2,2.214321308E-2,7.017108053E-2
6.806878181E0,-2.031067200E-2,3.054236295E-4,1.687465608E-2
6.826987712E0,-2.107422985E-2,2.321219631E-2,-1.565296017E-2
6.847097244E0,-2.290677279E-3,5.833591148E-2,-2.420482226E-2
6.867206723E0,6.108472589E-3,5.085303262E-2,7.635590737E-5
6.887316254E0,2.993151546E-2,3.268032894E-2,3.382566571E-2
6.907425785E0,7.864658535E-2,5.497625098E-3,3.122956678E-2
6.927535317E0,1.479777545E-1,-9.926267900E-3,-1.756185899E-3
6.947644848E0,2.246390730E-1,2.211267054E-1,-5.123481527E-2
6.967754379E0,9.177979827E-2,4.054498672E-1,-1.049893722E-1
6.987863858E0,-2.953446507E-1,1.246128380E-1,-1.022405624E-1
7.007973390E0,-5.528167486E-1,1.495048702E-1,-4.344651103E-2
7.028082921E0,-6.192464232E-1,1.024696305E-1,-9.720107168E-2
7.048192452E0,-5.862606764E-1,-3.640649617E-1,-1.825669706E-1
7.068301983E0,-3.214583695E-1,-4.651601911E-1,-1.410293579E-1
7.088411515E0,3.045073450E-1,1.858502775E-1,2.786990628E-2
7.108520994E0,7.049177289E-1,4.685198367E-1,1.665322334E-1
7.128630525E0,5.103628635E-1,-6.658235192E-2,3.568111658E-1
7.148740056E0,2.779355086E-2,-6.606312990E-1,4.695124626E-1
7.168849587E0,-1.269035190E-1,-6.233696342E-1,3.904077411E-1
7.188959119E0,1.777565479E-1,-9.239064902E-2,2.616716921E-1
7.209068650E0,5.543438792E-1,3.298575282E-1,2.367796749E-1
7.229178129E0,6.077930331E-1,2.954973578E-1,2.972535491E-1
7.249287660E0,4.272876680E-1,7.314895838E-2,3.751365840E-1
7.269397192E0,2.034121305E-1,-8.933641016E-2,3.571165800E-1
7.289506723E0,-3.970507067E-3,-1.986780763E-1,2.680855989E-1
7.309616254E0,-1.444653720E-1,-2.215848416E-1,1.947839260E-1
7.329725733E0,-1.774511337E-1,-1.605001241E-1,1.488176584E-1
7.349835265E0,-1.171299592E-1,-1.052184403E-1,9.994988143E-2
7.369944796E0,-3.833066672E-2,-2.305948362E-2,6.910209358E-2
7.390054327E0,1.603474095E-2,8.200624585E-2,7.902836055E-2
7.410163858E0,4.367557913E-2,1.166718230E-1,1.132358089E-1
7.430273390E0,7.299624383E-2,8.689302206E-2,1.422510594E-1
7.450382869E0,9.513945878E-2,2.122694254E-2,1.240783483E-1
7.470492400E0,7.467607409E-2,-5.238015205E-2,8.758022636E-2
7.490601931E0,1.435491070E-2,-1.091889441E-1,3.657447919E-2
7.510711462E0,-4.107947648E-2,-9.895725548E-2,-1.977618039E-2
7.530820994E0,-6.444438547E-2,-8.261708915E-2,-6.207735091E-2
7.550930473E0,-1.191152167E-2,-4.153761268E-2,-9.048175067E-2
7.571040004E0,3.802524135E-2,-4.062134400E-2,-1.408766508E-1
7.591149535E0,-1.206423342E-2,-1.108687744E-1,-1.651578248E-1
7.611259067E0,-1.371352077E-1,-1.769929975E-1,-1.761530787E-1
7.631368598E0,-2.229592502E-1,-1.522536725E-1,-1.584385037E-1
7.651478077E0,-3.907895386E-1,-3.530697227E-1,-1.677539349E-1
7.671587608E0,-7.350019813E-1,-6.659762263E-1,-2.405974567E-1
7.691697140E0,-9.027559161E-1,-2.944283783E-1,-2.647259235E-1
7.711806671E0,-7.383615971E-1,1.743968874E-1,-3.065689802E-1
7.731916202E0,-3.778090179E-1,1.420219839E-1,-3.204657435E-1
7.752025681E0,1.227803007E-1,1.745496094E-1,-2.216611952E-1
7.772135212E0,6.723901033E-1,4.289674759E-1,-1.234675050E-1
7.792244744E0,9.749122262E-1,4.950917065E-1,-6.925480813E-2
7.812354275E0,9.046648145E-1,1.601946950E-1,5.734328553E-2
7.832463806E0,5.337277651E-1,-3.742966652E-1,1.430146098E-1
7.852573285E0,8.154810965E-2,-6.459710002E-1,2.237228118E-2
7.872682817E0,-2.461714447E-1,-4.784461260E-1,-2.095969617E-1
7.892792348E0,-3.994941115E-1,-1.195733473E-1,-4.143835008E-1
7.912901879E0,-4.184303582E-1,1.844758689E-1,-4.727194309E-1
7.933011410E0,-3.587200642E-1,3.084778786E-1,-3.720823228E-1
7.953120890E0,-2.057028115E-1,2.825168669E-1,-1.915769726E-1
7.973230421E0,1.466033421E-2,2.148655206E-1,-3.138227761E-2
7.993339952E0,1.737860441E-1,1.536280811E-1,3.825430945E-2
8.013449483E0,1.588202864E-1,4.688252881E-2,3.413109109E-2
8.033559015E0,2.550287358E-2,-1.649287529E-2,1.382041909E-2
8.053668494E0,-1.139230132E-1,-1.007897966E-2,-2.939702384E-2
8.073778025E0,-1.536280811E-1,5.146388337E-2,-3.290939704E-2
8.093887556E0,-9.727742523E-2,9.391776472E-2,1.626380906E-2
8.113997087E0,-3.848337755E-2,7.040014863E-2,6.757497787E-2
8.134106619E0,-2.046338283E-2,5.482354015E-2,9.796462953E-2
8.154216098E0,2.901524538E-3,1.504211426E-1,1.146102175E-1
8.174325629E0,4.504998401E-2,2.289150059E-1,1.228566542E-1
8.194435160E0,7.284353673E-2,2.092151791E-1,1.434727460E-1
8.214544692E0,7.666133344E-2,1.024696305E-1,1.761530787E-1
8.234654223E0,8.231166750E-2,2.702999115E-2,1.958529055E-1
8.254763702E0,9.361234307E-2,2.809897438E-2,1.874537468E-1
8.274873233E0,1.137702987E-1,6.490252167E-2,1.631725729E-1
8.294982765E0,1.356080920E-1,7.757759839E-2,1.210241169E-1
8.315092296E0,1.374406368E-1,1.197260618E-1,8.422056586E-2
8.335201775E0,1.027750522E-1,1.861557066E-1,7.551599294E-2
8.355311306E0,4.474456236E-2,3.210002482E-1,9.521581978E-2
8.375420837E0,-1.481304597E-2,3.779617548E-1,1.370588541E-1
8.395530369E0,-8.353336155E-2,5.940489471E-2,1.941730678E-1
8.415639900E0,-1.229330078E-1,-3.049654961E-1,2.389176339E-1
8.435749379E0,-6.963659078E-2,-3.257342875E-1,3.288649023E-1
8.455858910E0,-7.024743594E-3,-3.338280320E-1,3.786489367E-1
8.475968442E0,1.629435122E-1,-1.792836636E-1,3.668901324E-1
8.496077973E0,4.643966258E-1,2.359397560E-1,3.577274382E-1
8.516187504E0,6.699467301E-1,4.763081372E-1,3.745257258E-1
8.536296983E0,6.575770974E-1,3.570402265E-1,4.065952003E-1
8.556406515E0,4.902049303E-1,4.825693369E-2,4.027774036E-1
8.576516046E0,2.664821148E-1,-1.762294322E-1,3.740676045E-1
8.596625577E0,2.002051920E-1,-5.803049076E-3,3.642940223E-1
8.616735056E0,3.077143133E-1,2.933593988E-1,3.122192919E-1
8.636844587E0,4.080459774E-1,3.799470067E-1,2.537306845E-1
8.656954119E0,3.637595475E-1,2.695363462E-1,2.253262848E-1
8.677063650E0,2.082989216E-1,8.872556686E-2,2.019613683E-1
8.697173181E0,2.962609194E-2,-1.374406368E-2,1.778329015E-1
8.717282660E0,-9.177979827E-2,-3.115320951E-2,1.905079931E-1
8.737392192E0,-1.476723254E-1,2.412846684E-2,1.984490007E-1
8.757501723E0,-2.093679011E-1,3.741439432E-2,1.697391868E-1
8.777611254E0,-2.834331393E-1,-8.704573847E-3,1.280488521E-1
8.797720785E0,-3.327590525E-1,-4.306473210E-2,7.322531193E-2
8.817830265E0,-3.600944579E-1,-4.382828996E-2,2.786990628E-2
8.837939796E0,-3.614688516E-1,-2.687728032E-2,2.695363574E-2
8.858049327E0,-3.468085229E-1,-4.795150831E-2,4.390464723E-2
8.878158858E0,-3.297048211E-1,-6.872031838E-2,4.344651103E-2
8.898268390E0,-3.100049794E-1,-6.978929788E-2,1.015533600E-2
8.918377869E0,-2.770192325E-1,-7.834116369E-2,-3.581092134E-2
8.938487400E0,-2.263189107E-1,-1.099525094E-1,-7.841751724E-2
8.958596931E0,-1.556133330E-1,-1.420219839E-1,-9.842276573E-2
8.978706410E0,-6.994201243E-2,-1.925695986E-1,-1.065164879E-1
8.998815942E0,-4.123218823E-3,-2.504473627E-1,-1.147629321E-1
9.018925473E0,2.260134928E-2,-2.513636351E-1,-1.440836042E-1
9.039035004E0,-1.527118147E-3,-2.249445021E-1,-2.251735777E-1
9.059144535E0,-6.108472496E-2,-1.942494214E-1,-2.867164314E-1
9.079254015E0,-7.879929990E-2,-1.398840249E-1,-2.636569440E-1
9.099363546E0,-2.084516287E-1,-3.336753249E-1,-2.674747407E-1
9.119473077E0,-3.968980014E-1,-3.584146202E-1,-2.677801549E-1
9.139582608E0,-5.922164321E-1,-3.600944579E-1,-3.742203116E-1
9.159692087E0,-7.301151752E-1,-3.888042867E-1,-5.516714454E-1
9.179801619E0,-4.711159468E-1,2.825168520E-2,-5.861843228E-1
9.199911150E0,1.696628332E-1,6.525375843E-1,-4.849363565E-1
9.220020681E0,7.101099491E-1,6.332958937E-1,-3.365004957E-1
9.240130212E0,8.855758309E-1,6.047387794E-2,-1.755422354E-1
9.260239692E0,7.441646457E-1,-4.280512035E-1,-1.022405624E-1
9.280349223E0,4.698942602E-1,-4.112529159E-1,-1.576749533E-1
9.300458754E0,2.728960216E-1,-5.757235363E-2,-2.186069638E-1
9.320568285E0,1.838650256E-1,2.786990702E-1,-2.705289721E-1
9.340677765E0,9.804098308E-2,2.773246467E-1,-2.735832036E-1
9.360787296E0,1.954711229E-2,6.062658876E-2,-2.299076319E-1
9.380896827E0,2.321219631E-2,-5.115845799E-2,-1.963110417E-1
9.401006358E0,1.014006436E-1,2.733541466E-2,-1.625617296E-1
9.421115837E0,1.270562261E-1,1.258345395E-1,-1.147629321E-1
9.441225369E0,6.169557199E-2,1.708845198E-1,-5.520532280E-2
9.461334900E0,-5.008947477E-2,1.293469071E-1,-5.841226876E-2
9.481444431E0,-1.296523362E-1,1.081199646E-1,-9.827005118E-2
9.501553910E0,-2.018850148E-1,6.215370819E-2,-1.595074832E-1
9.521663442E0,-2.593046725E-1,1.404948719E-2,-1.770693511E-1
9.541772973E0,-2.356343269E-1,6.444438547E-2,-1.408766508E-1
9.561882504E0,-1.884463727E-1,1.342336833E-1,-1.036149636E-1
9.581991983E0,-1.656923145E-1,1.554606259E-1,-4.833329096E-2
9.602101515E0,-1.664558798E-1,1.704263836E-1,-3.779617324E-2
9.622211046E0,-1.824906170E-1,1.954711229E-1,-6.039752439E-2
9.642320577E0,-1.762294322E-1,2.098260373E-1,-5.367820337E-2
9.662430108E0,-1.337755471E-1,1.896680743E-1,-2.130329795E-2
9.682539587E0,-7.956285775E-2,1.088835225E-1,2.359397523E-2
9.702649119E0,-2.962609194E-2,2.718270384E-2,5.963396281E-2
9.722758650E0,1.374406368E-2,-5.039489828E-3,7.719582319E-2
9.742868181E0,7.727217674E-2,-1.466033421E-2,7.857023180E-2
9.762977660E0,1.464506239E-1,3.817795217E-2,6.452073902E-2
9.783087192E0,1.427855492E-1,1.944021434E-1,9.124530852E-2
9.803196723E0,-9.162708884E-4,3.187095523E-1,1.888281554E-1
9.823306254E0,-3.729222417E-1,-6.459710002E-2,2.671693265E-1
9.843415733E0,-7.495859265E-1,-6.740699410E-1,2.465532273E-1
9.863525265E0,-6.511631608E-1,-8.887063861E-1,2.543415129E-1
9.883634796E0,1.024696305E-1,-5.903838873E-1,2.816769481E-1
9.903744327E0,1.109298587E0,9.009997360E-3,3.222982883E-1
9.923853806E0,1.662115335E0,3.332171738E-1,3.707079291E-1
9.943963337E0,1.369672298E0,1.505738497E-1,3.600181043E-1
9.964072869E0,5.028799772E-1,-2.773246467E-1,3.348206580E-1
9.984182400E0,-2.761029601E-1,-3.970507085E-1,2.703762650E-1
1.000429188E1,-4.427115619E-1,7.238540053E-2,1.758476496E-1
1.002440141E1,-9.498675168E-2,5.059342384E-1,9.185615927E-2
1.004451094E1,3.158080280E-1,5.503733754E-1,6.681142002E-2
1.006462047E1,4.236225784E-1,2.435753495E-1,8.162446320E-2
1.008472995E1,2.596100867E-1,-3.771981969E-2,1.262163222E-1
1.010483948E1,-4.886778072E-2,-1.437018216E-1,1.198024154E-1
1.012494902E1,-2.809897363E-1,-4.856235534E-2,1.217876747E-1
1.014505855E1,-3.527642787E-1,3.344388679E-2,1.138466597E-1
1.016516808E1,-3.151971996E-1,3.603998944E-2,8.299887180E-2
1.018527756E1,-2.747285664E-1,-5.344913341E-3,3.733803704E-2
1.020538709E1,-2.550287247E-1,-4.107947648E-2,-5.115845706E-3
1.022549662E1,-2.341072112E-1,-3.390202299E-2,-1.198787708E-2
1.024560615E1,-2.241809368E-1,-4.504998401E-2,4.810422193E-3
1.026571563E1,-2.069245130E-1,-9.330692142E-2,1.076618303E-2
1.028582516E1,-1.707318127E-1,-1.125486046E-1,-5.367820337E-2
1.030593469E1,-1.185043678E-1,-2.855710872E-2,-1.100288630E-1
1.032604422E1,-9.132166207E-2,5.741964281E-2,-9.949174523E-2
1.034615370E1,-1.241547018E-1,9.895725548E-2,-3.474193811E-2
1.036626323E1,-1.640124917E-1,1.511846948E-2,5.123481527E-2
1.038637276E1,-1.441599578E-1,-1.754658818E-1,7.291989028E-2
1.040648230E1,-3.084778599E-2,-3.025220931E-1,5.138752609E-2
1.042659178E1,7.727217674E-2,-3.122956753E-1,-1.397313084E-2
1.044670131E1,1.322484314E-1,-2.999260128E-1,-8.926005661E-2
1.046681084E1,1.998997629E-1,-2.240282297E-1,-7.582141459E-2
1.048692037E1,1.924168915E-1,-2.950392365E-1,-3.993413970E-2
1.050702985E1,-1.763821393E-1,-8.193752170E-1,-1.448471546E-1
1.052713938E1,-5.331169367E-1,-6.696413159E-1,-2.486911863E-1
1.054724891E1,-6.009209752E-1,4.856235534E-2,-4.151470661E-1
1.056735844E1,-4.352286756E-1,2.976353168E-1,-5.428141356E-1
1.058746792E1,-3.680354729E-2,4.953971207E-1,-4.415661991E-1
1.060757745E1,3.118375242E-1,4.932591617E-1,-2.957264185E-1
1.062768698E1,4.346178174E-1,1.934858710E-1,-2.312820405E-1
1.064779652E1,3.985778391E-1,-1.469087601E-1,-1.578276604E-1
1.066790599E1,3.084778786E-1,-1.351499557E-1,-1.219403818E-1
1.068801552E1,2.313583940E-1,1.052184403E-1,-1.472905427E-1
1.070812506E1,1.623326540E-1,2.293731421E-1,-1.863847673E-1
1.072823459E1,7.818844914E-2,1.801999360E-1,-2.118876427E-1
1.074834407E1,-6.184828654E-2,6.765133142E-2,-2.396811992E-1
1.076845360E1,-1.620272398E-1,2.107422985E-2,-2.170798481E-1
1.078856313E1,-1.572931707E-1,7.314895838E-2,-1.666849405E-1
1.080867261E1,-9.804098308E-2,1.104106456E-1,-1.181225851E-1
1.082878214E1,-7.070557028E-2,9.926267713E-2,-8.055548370E-2
1.084889167E1,-7.895200700E-2,9.208522737E-2,-5.092938989E-2
1.086900120E1,-8.567132801E-2,1.056765765E-1,-3.000787087E-2
1.088911073E1,-7.803573459E-2,8.765657991E-2,-1.382041909E-2
1.090922021E1,-5.818320066E-2,2.107422985E-2,2.344126441E-2
1.092932974E1,-2.794626169E-2,3.939964995E-2,5.352549255E-2
1.094943928E1,-7.330167107E-3,1.162136942E-1,3.703261539E-2
1.096954875E1,9.620844387E-3,1.586675793E-1,1.824906096E-2
1.098965828E1,3.206948191E-2,1.327065676E-1,1.214058883E-2
1.100976782E1,5.680879578E-2,1.110214889E-1,1.565296017E-2
1.102987735E1,6.413896382E-2,1.507265568E-1,1.885990985E-2
1.104998688E1,6.032116711E-2,1.737860441E-1,2.313583903E-2
1.107009636E1,5.299099907E-2,1.249182671E-1,3.657447919E-2
1.109020589E1,5.619794875E-2,3.069507517E-2,3.626905754E-2
1.111031542E1,6.474980712E-2,-2.229592577E-2,2.237228118E-2
1.113042490E1,7.284353673E-2,-2.000524849E-2,2.527380548E-2
1.115053443E1,1.194206402E-1,4.153761268E-2,6.543701142E-2
1.117064396E1,1.904316396E-1,2.435753495E-1,1.075854748E-1
1.119075349E1,9.895725548E-2,2.692309320E-1,1.136939451E-1
1.121086297E1,-2.623589039E-1,-1.421747059E-1,8.742751181E-2
1.123097250E1,-5.367820263E-1,-2.086043358E-1,4.650074616E-2
1.125108204E1,-4.705050886E-1,-6.872031838E-2,3.817795368E-4
1.127119152E1,-1.801999360E-1,-1.537808031E-1,-9.926267667E-4
1.129130105E1,2.531961799E-1,-1.922641695E-1,1.364480108E-1
1.131141058E1,5.387672782E-1,-1.490467340E-1,2.439571172E-1
1.133152011E1,3.924693763E-1,-3.414636254E-1,2.778591514E-1
1.135162959E1,5.650337320E-3,-4.921901822E-1,2.819823623E-1
1.137173912E1,-1.298050433E-1,-4.413371533E-2,2.253262848E-1
1.139184865E1,5.818320066E-2,4.734066129E-1,1.636307091E-1
1.141195818E1,2.651077211E-1,4.940227270E-1,2.215084881E-1
1.143206766E1,2.886253297E-1,1.291942000E-1,2.757211924E-1
1.145217719E1,1.905843467E-1,-1.308740228E-1,2.676274478E-1
1.147228672E1,1.319430023E-1,-3.924693540E-2,2.538833916E-1
1.149239625E1,1.756185889E-1,1.603474021E-1,2.599918544E-1
1.151250573E1,2.215848416E-1,1.969982386E-1,2.781645656E-1
1.153261526E1,1.860029846E-1,8.689302206E-2,2.858001590E-1
1.155272480E1,9.147437662E-2,-2.321219631E-2,2.364742458E-1
1.157283433E1,2.519745007E-2,-1.863084175E-2,1.587439328E-1
1.159294381E1,1.817270555E-2,2.764083818E-2,1.098761484E-1
1.161305334E1,9.162709117E-3,7.742489129E-2,1.039203927E-1
1.163316287E1,-4.886778072E-2,7.895200700E-2,1.214822456E-1
1.165327235E1,-1.366770715E-1,4.581354558E-3,1.356844455E-1
1.167338188E1,-1.627907902E-1,-5.558710173E-2,1.347681731E-1
1.169349141E1,-1.061347127E-1,-8.979454637E-2,1.008661538E-1
1.171360094E1,-4.779879749E-2,-1.093416587E-1,6.345175952E-2
1.173371042E1,-4.535540938E-2,-1.320957243E-1,4.191939160E-2
1.175381995E1,-8.506047726E-2,-1.655396074E-1,3.306210786E-2
1.177392948E1,-1.614163816E-1,-2.214321345E-1,2.130329795E-2
1.179403902E1,-2.154763639E-1,-2.313583940E-1,9.544488043E-3
1.181414849E1,-2.008160353E-1,-1.751604527E-1,-2.405211143E-2
1.183425802E1,-1.550024897E-1,-1.276670843E-1,-6.635328382E-2
1.185436756E1,-1.003316641E-1,-5.375456065E-2,-5.932854116E-2
1.187447704E1,-1.769929975E-1,-1.149920002E-1,-6.436803192E-2
1.189458657E1,-5.955760479E-1,-6.497887969E-1,-1.715717167E-1
1.191469610E1,-1.007058024E0,-8.490013480E-1,-2.505237460E-1
1.193480563E1,-9.562050104E-1,-5.638120174E-1,-3.496336937E-1
1.195491511E1,-3.014531136E-1,1.165191159E-1,-3.916294575E-1
1.197502464E1,5.546492934E-1,7.424848676E-1,-2.905342281E-1
1.199513417E1,1.069440842E0,6.255075932E-1,-2.222720534E-1
1.201524370E1,1.131289124E0,3.741439432E-2,-1.897444278E-1
1.203535318E1,9.136747718E-1,-4.421007037E-1,-1.399603784E-1
1.205546271E1,6.752916574E-1,-4.088095427E-1,-9.032903612E-2
1.207557224E1,4.873034060E-1,-9.834641218E-2,-1.169008911E-1
1.209568178E1,2.440334857E-1,1.980672181E-1,-2.241045833E-1
1.211579125E1,-6.016845629E-2,3.023693860E-1,-3.258106709E-1
1.213590078E1,-2.898470163E-1,2.496838123E-1,-3.934620023E-1
1.215601032E1,-3.348970115E-1,2.179197669E-1,-3.696389496E-1
1.217611980E1,-2.544178963E-1,2.174616307E-1,-2.661003470E-1
1.219622933E1,-1.673721522E-1,1.453816444E-1,-1.401130855E-1
1.221633886E1,-1.279724985E-1,4.138490185E-2,-5.322006717E-2
1.223644834E1,-1.501157135E-1,-5.192201585E-3,-3.687990457E-2
1.225655787E1,-1.876828223E-1,6.413896102E-3,-2.664821222E-2
1.227666740E1,-1.826433241E-1,8.933641016E-2,-3.130592173E-3
1.229677693E1,-1.113269106E-1,1.754658818E-1,3.153498843E-2
1.231688641E1,-2.076880634E-2,1.444653720E-1,7.154548168E-2
1.233699594E1,4.856235534E-2,1.091889441E-1,9.536852688E-2
1.235710547E1,8.612946421E-2,1.220167428E-1,8.696937561E-2
1.237721500E1,7.406523079E-2,1.565296054E-1,6.406260282E-2
1.239732448E1,9.773556143E-3,1.681357026E-1,4.680617154E-2
1.241743402E1,-8.200624585E-2,1.102579311E-1,3.397838026E-2
1.243754355E1,-1.395785958E-1,3.542914242E-2,3.443651274E-2
1.245765302E1,-1.024696305E-1,5.879404768E-2,4.894413799E-2
1.247776256E1,-4.382828996E-2,1.476723254E-1,4.802786559E-2
1.249787209E1,-2.779355086E-2,1.792836636E-1,4.955498502E-2
1.251798162E1,-4.795150831E-2,1.537808031E-1,4.329380020E-2
1.253809110E1,-5.085303262E-2,1.736333370E-1,3.031329438E-2
1.255820063E1,-3.359660041E-3,1.953184158E-1,5.566345528E-2
1.257831016E1,7.925742865E-2,4.246915579E-1,1.176644564E-1
1.259841964E1,-3.527642787E-2,3.524588645E-1,1.453052908E-1
1.261852917E1,-3.900259733E-1,3.115320951E-2,1.727934182E-1
1.263863870E1,-7.463026643E-1,-1.363716573E-1,1.446944475E-1
1.265874823E1,-9.076426625E-1,-3.581092060E-1,2.512109280E-2
1.267885771E1,-6.352811456E-1,-1.236965731E-1,2.290677221E-4
1.269896724E1,-5.955760833E-3,4.660764635E-1,8.727480471E-2
1.271907678E1,4.045335948E-1,4.967715442E-1,1.761530787E-1
1.273918625E1,2.819060087E-1,-1.896680743E-1,3.238253891E-1
1.275929578E1,-1.053711548E-1,-7.888329029E-1,4.530195892E-1
1.277940532E1,-2.118112892E-1,-5.160132051E-1,4.658474028E-1
1.279951485E1,1.244601309E-1,1.736333370E-1,3.960580826E-1
1.281962433E1,5.522059202E-1,5.493044257E-1,3.583382666E-1
1.283973386E1,6.708629727E-1,3.461976945E-1,3.502445519E-1
1.285984339E1,4.816530645E-1,-3.634541109E-2,3.369586170E-1
1.287995287E1,1.699682474E-1,-2.318165302E-1,2.781645656E-1
1.290006240E1,-7.605048269E-2,-1.808107942E-1,2.141783237E-1
1.292017193E1,-1.682884246E-1,-3.298575059E-2,1.789018959E-1
1.294028146E1,-1.279724985E-1,3.191677108E-2,1.634780020E-1
1.296039094E1,-4.337015375E-2,1.756185852E-2,1.263690293E-1
1.298050047E1,-3.512371797E-3,-2.794626169E-2,6.116108224E-2
1.300061000E1,-7.238540053E-2,-6.581879407E-2,-6.642963737E-3
1.302071948E1,-1.638597846E-1,-4.260659590E-2,-1.916533336E-2
1.304082902E1,-1.844758689E-1,1.298050396E-2,-1.779092662E-2
1.306093855E1,-1.275143623E-1,1.374406274E-3,-1.336228382E-2
1.308104803E1,-7.589777559E-2,-1.067455560E-1,-2.603736520E-2
1.310115756E1,-7.605048269E-2,-1.979145110E-1,-5.062396824E-2
1.312126709E1,-9.300149232E-2,-2.223484069E-1,-7.490514219E-2
1.314137662E1,-9.391776472E-2,-1.403421611E-1,-8.712209016E-2
1.316148610E1,-8.276980370E-2,-7.696675509E-2,-6.956022978E-2
1.318159563E1,-1.101052165E-1,-1.343863904E-1,-5.887040496E-2
1.320170516E1,-1.821851879E-1,-2.330382317E-1,-6.650599837E-2
1.322181464E1,-2.886253297E-1,-2.696890533E-1,-1.075854748E-1
1.324192417E1,-4.054498672E-1,-2.461714447E-1,-1.549261361E-1
1.326203370E1,-4.370612204E-1,-2.113531530E-1,-1.501920670E-1
1.328214318E1,-3.326063454E-1,-9.605573118E-2,-1.014770046E-1
1.330225271E1,-2.874036431E-1,-1.490467340E-1,-5.993938819E-2
1.332236224E1,-6.856760383E-1,-9.297859073E-1,-1.565296017E-2
1.334247178E1,-1.012708426E0,-8.706864119E-1,7.673768699E-2
1.336258125E1,-9.247463942E-1,-1.131594554E-1,2.367033157E-3
1.338269079E1,-7.500441074E-1,4.782933891E-1,-2.595337331E-1
1.340280032E1,-4.323271513E-1,8.906152844E-1,-3.998758793E-1
1.342290980E1,-9.773556143E-3,9.533798695E-1,-3.737621605E-1
1.344301933E1,4.072824121E-1,5.265503526E-1,-2.995442152E-1
1.346312886E1,6.760551929E-1,-1.030804738E-1,-2.839676142E-1
1.348323834E1,6.439857483E-1,-4.672981501E-1,-3.140518367E-1
1.350334787E1,4.065188468E-1,-4.074351192E-1,-3.488701284E-1
1.352345740E1,2.231119573E-1,-1.786728203E-2,-4.319453537E-1
1.354356693E1,2.165453583E-1,3.368822634E-1,-5.377746820E-1
1.356367641E1,2.180724740E-1,4.588989913E-1,-5.250995755E-1
1.358378594E1,1.640124917E-1,3.074088693E-1,-3.676536977E-1
1.360389547E1,9.743013978E-2,9.620844573E-2,-2.277696729E-1
1.362400495E1,7.696675509E-2,1.287360638E-1,-1.382805556E-1
1.364411448E1,5.390727147E-2,3.187095523E-1,-1.530935913E-1
1.366422402E1,-2.458660305E-2,4.224008918E-1,-1.628671438E-1
1.368433349E1,-1.125486046E-1,3.069507480E-1,-9.521581978E-2
1.370444303E1,-1.301104724E-1,1.649287529E-2,-2.756448276E-2
1.372455256E1,-3.451287001E-2,-1.994416267E-1,-6.795675959E-3
1.374466209E1,1.108687744E-1,-2.507528067E-1,-2.466295846E-2
1.376477157E1,2.021904439E-1,-1.353026628E-1,-4.558447748E-2
1.378488110E1,2.426590770E-1,-1.563768983E-1,8.628217503E-3
1.380499063E1,2.516690791E-1,-1.969982386E-1,9.292513877E-2
1.382510011E1,2.357870489E-1,-2.137965411E-1,1.155264899E-1
1.384520964E1,2.208212912E-1,-2.176143378E-1,1.036149636E-1
1.386531917E1,2.823641598E-1,-1.982199401E-1,1.109451354E-1
1.388542865E1,4.309527278E-1,-1.212531775E-1,1.460688561E-1
1.390553818E1,5.661026835E-1,-2.260134928E-2,1.801235825E-1
1.392564771E1,5.606050491E-1,-9.162709117E-3,1.340046227E-1
1.394575719E1,4.344651103E-1,-1.314848661E-1,5.245650932E-2
1.396586672E1,2.690782249E-1,-2.244863659E-1,2.145601064E-2
1.398597625E1,1.528645307E-1,-1.759240031E-1,6.711684167E-2
1.400608573E1,1.200314835E-1,9.681928903E-2,2.292967886E-1
1.402619526E1,1.171299592E-1,3.726168349E-2,4.760790765E-1
1.404630480E1,1.253764033E-1,-1.181989461E-1,6.423822641E-1
1.406641433E1,9.972081333E-2,-2.658712566E-1,5.112028122E-1
1.408652381E1,-2.234173864E-1,-6.881194115E-1,-1.585912257E-1
1.410663334E1,-5.508314967E-1,-6.274928451E-1,-5.712185502E-1
1.412674287E1,-5.004366040E-1,1.945548505E-1,-6.049678326E-1
1.414685235E1,-2.502946556E-1,5.311316848E-1,-4.679853618E-1
1.416696188E1,-8.093725890E-3,1.525591016E-1,-6.253548712E-2
1.418707141E1,1.592784226E-1,-5.457920432E-1,2.268534005E-1
1.420718089E1,2.724378705E-1,-8.639671206E-1,2.137201875E-1
1.422729042E1,3.251234591E-1,-6.684195995E-1,1.210241169E-1
1.424739995E1,3.225273490E-1,-2.524326444E-1,1.315612346E-1
1.426750943E1,2.603736520E-1,7.711946964E-2,1.833305359E-1
1.428761896E1,1.670667231E-1,1.148392856E-1,2.807606757E-1
1.430772849E1,1.183516532E-1,8.842013776E-2,3.893387616E-1
1.432783797E1,1.244601309E-1,1.169772521E-1,4.298073947E-1
1.434794750E1,1.265980899E-1,2.009687424E-1,4.119401276E-1
1.436805704E1,4.795150831E-2,2.486148328E-1,3.187859058E-1
1.438816652E1,-9.315420687E-2,2.683146596E-1,2.155527323E-1
1.440827605E1,-1.844758689E-1,3.009949923E-1,1.672957987E-1
1.442838558E1,-1.925695986E-1,3.058817685E-1,1.563005447E-1
1.444849506E1,-1.215586066E-1,2.747285664E-1,1.938676536E-1
1.446860459E1,1.527118147E-4,2.722851634E-1,2.326564491E-1
1.448871412E1,1.004843712E-1,2.565558553E-1,2.166217119E-1
1.450882360E1,9.620844573E-2,1.311794519E-1,1.463742703E-1
1.452893313E1,1.985253533E-3,3.054236295E-3,1.129303873E-1
1.454904266E1,-9.284878522E-2,-2.443389036E-3,1.103342846E-1
1.456915214E1,-1.238492802E-1,3.848337755E-2,9.368869662E-2
1.458926167E1,-8.536590636E-2,3.634541109E-2,8.620581776E-2
1.460937120E1,-9.162708884E-4,-5.986303091E-2,7.307260484E-2
1.462948068E1,1.075091213E-1,-2.104368806E-1,3.153498843E-2
1.464959021E1,2.199050188E-1,-3.052709103E-1,8.322793990E-3
1.466969974E1,2.565558553E-1,-3.440597057E-1,1.145338640E-3
1.468980922E1,1.895153672E-1,-3.573456407E-1,-1.244601328E-2
1.470991875E1,9.162709117E-2,-2.493783981E-1,-5.344913807E-4
1.473002829E1,2.855710872E-2,-1.305686086E-1,1.037676781E-1
1.475013777E1,-1.331647038E-1,-4.920374751E-1,7.673768699E-2
1.477024730E1,-3.910949528E-1,-6.048914790E-1,-2.405211143E-2
1.479035683E1,-6.193991303E-1,-3.208475113E-1,-1.485122442E-1
1.481046631E1,-7.038487792E-1,-1.572931744E-2,-3.494809866E-1
1.483057584E1,-4.624113739E-1,6.065713167E-1,-3.688753843E-1
1.485068537E1,1.496575773E-2,1.070204377E0,-2.525089979E-1
1.487079485E1,5.175403357E-1,9.747595191E-1,-8.666395396E-2
1.489090438E1,8.362498879E-1,3.150444627E-1,4.756972939E-2
1.491101391E1,8.206732869E-1,-4.489727318E-1,8.017370477E-3
1.493112339E1,4.912739098E-1,-7.851678133E-1,-1.784437597E-1
1.495123292E1,1.023169141E-2,-6.024481058E-1,-3.447469175E-1
1.497134245E1,-3.544441164E-1,-5.070032179E-2,-4.156052172E-1
1.499145193E1,-4.109475017E-1,4.808894992E-1,-3.464267552E-1
1.501156146E1,-1.734806150E-1,6.716265678E-1,-1.306449622E-1
1.503167099E1,2.134911120E-1,5.184566379E-1,1.172063202E-1
1.505178047E1,6.093201637E-1,2.481566966E-1,2.824405134E-1
1.507189000E1,9.116895199E-1,3.863608837E-2,3.467321694E-1
1.509199954E1,1.018129706E0,-6.108472589E-3,3.296284378E-1
1.511210902E1,8.131904006E-1,2.672456764E-2,2.566322088E-1
1.513221855E1,3.445178568E-1,2.107422985E-2,1.729461253E-1
1.515232808E1,-1.620272398E-1,-4.886778072E-3,8.926005661E-2
1.517243756E1,-4.737120569E-1,1.007897966E-2,5.421269219E-3
1.519254709E1,-5.335750580E-1,1.230857223E-1,-2.435753495E-2
1.521265657E1,-4.159869850E-1,2.082989216E-1,7.711946499E-3
1.523276610E1,-2.225011140E-1,2.098260373E-1,2.817532979E-2
1.525287563E1,-3.680354729E-2,1.627907902E-1,1.595838554E-2
1.527298511E1,8.292251825E-2,1.427855492E-1,-8.933641016E-3
1.529309464E1,8.261708915E-2,1.200314835E-1,-2.527380548E-2
1.531320417E1,-1.878355257E-2,6.963659078E-2,2.435753495E-2
1.533331365E1,-1.111742035E-1,-7.482878864E-3,1.118614078E-1
1.535342318E1,-9.315420687E-2,-7.055285573E-2,1.784437597E-1
1.537353271E1,-3.115320951E-2,-8.872556686E-2,1.599656194E-1
1.539364219E1,-2.702999115E-2,-7.101099193E-2,1.196497083E-1
1.541375172E1,-1.050657257E-1,6.826218218E-2,8.422056586E-2
1.543386125E1,-2.637332976E-1,2.006633282E-1,1.023932695E-1
1.545397073E1,-5.402944088E-1,-6.688777357E-2,1.304922402E-1
1.547408027E1,-8.338828683E-1,-4.149180055E-1,1.338519007E-1
1.549418980E1,-9.041302800E-1,-3.600944579E-1,1.388913989E-1
1.551429928E1,-7.311841846E-1,-4.379774928E-1,1.091889478E-2
1.553440881E1,-3.614688516E-1,-4.524851143E-1,-9.414683282E-2
1.555451834E1,1.369825006E-1,-6.398624927E-2,-5.016583204E-2
1.557462782E1,5.952706337E-1,4.799732268E-1,1.220930964E-1
1.559473735E1,8.167027831E-1,6.377245188E-1,2.693072855E-1
1.561484683E1,7.172874212E-1,3.578037918E-1,3.558948934E-1
1.563495636E1,3.773508966E-1,-9.743013978E-2,3.679591119E-1
1.565506589E1,1.466033421E-2,-3.571929336E-1,2.969481349E-1
1.567517537E1,-1.887518018E-1,-2.374668717E-1,1.903552711E-1
1.569528490E1,-2.208212912E-1,-1.007897966E-2,1.030041203E-1
1.571539443E1,-1.169772521E-1,1.860029846E-1,1.115559787E-1
1.573550391E1,6.429167092E-2,2.472404242E-1,1.856212169E-1
1.575561344E1,2.302894145E-1,2.112004459E-1,2.450261116E-1
1.577572297E1,3.084778786E-1,1.611109674E-1,2.593810260E-1
1.579583245E1,2.744231224E-1,1.351499557E-1,2.376959324E-1
1.581594198E1,1.411057115E-1,1.372879148E-1,1.958529055E-1
1.583605146E1,-3.878879920E-2,1.426328421E-1,1.572168171E-1
1.585616099E1,-2.115058601E-1,1.317902952E-1,1.052947938E-1
1.587627052E1,-3.168770075E-1,1.085781008E-1,6.696412712E-2
1.589638000E1,-3.078670204E-1,1.191152185E-1,5.825955793E-2
1.591648954E1,-2.130329758E-1,1.272089481E-1,6.375718117E-2
1.593659907E1,-6.398624927E-2,1.220167428E-1,7.933378965E-2
1.595670855E1,8.490777016E-2,1.107160673E-1,7.689040154E-2
1.597681808E1,1.565296054E-1,3.955236077E-2,5.215108395E-2
1.599692761E1,1.291942000E-1,-5.726693198E-2,8.780929260E-3
1.601703709E1,6.566607952E-2,-1.082726792E-1,-3.504735976E-2
1.603714662E1,1.588202827E-2,-1.417165697E-1,-6.146650389E-2
1.605725610E1,-1.832541777E-3,-1.640124917E-1,-7.551599294E-2
1.607736563E1,1.068982761E-3,-1.378987730E-1,-9.093988687E-2
1.609747516E1,-5.650337320E-3,-6.994201243E-2,-1.014770046E-1
1.611758464E1,-2.137965336E-2,1.664558798E-2,-7.108735293E-2
1.613769417E1,-1.447708011E-1,-1.149920002E-1,-6.726955622E-2
1.615780370E1,-4.450022280E-1,-3.675773442E-1,-9.338327497E-2
1.617791318E1,-7.610393167E-1,-2.583884001E-1,-8.987089992E-2
1.619802271E1,-9.578848481E-1,-1.614163816E-1,-2.404447496E-1
1.621813219E1,-8.519028425E-1,-6.108472589E-4,-3.904077411E-1
1.623824172E1,-3.796415627E-1,3.457395434E-1,-3.885752261E-1
1.625835125E1,2.820587158E-1,5.205945969E-1,-2.128039151E-1
1.627846073E1,8.528954983E-1,3.155026138E-1,3.474193811E-2
1.629857027E1,1.115407109E0,-4.581354558E-2,2.051683217E-1
1.631867980E1,9.400939345E-1,-3.139754832E-1,1.715717167E-1
1.633878928E1,4.475983381E-1,-3.232909143E-1,2.924431302E-2
1.635889881E1,-8.750387281E-2,-1.302631795E-1,-1.819561273E-1
1.637900828E1,-4.161396921E-1,1.976090819E-1,-3.400128484E-1
1.639911782E1,-4.495835900E-1,3.408527672E-1,-3.198548853E-1
1.641922735E1,-2.463241518E-1,3.394783735E-1,-1.689756215E-1
1.643933683E1,5.054761097E-2,2.304421216E-1,-1.366770733E-2
1.645944636E1,2.788517773E-1,3.283303976E-2,5.123481527E-2
1.647955589E1,3.504736125E-1,-5.879404768E-2,3.504735976E-2
1.649966537E1,2.605263591E-1,-3.527642787E-2,-2.053973824E-2
1.651977490E1,3.802524135E-2,-1.236965694E-2,-8.803836256E-2
1.653988438E1,-2.079934925E-1,-3.100049868E-2,-1.164427623E-1
1.655999391E1,-3.306210935E-1,-2.855710872E-2,-7.841751724E-2
1.658010344E1,-2.767138183E-1,1.786728203E-2,-7.864658721E-3
1.660021292E1,-1.102579311E-1,6.291726977E-2,4.650074616E-2
1.662032245E1,2.932066843E-2,3.756710514E-2,4.329380020E-2
1.664043198E1,4.947862774E-2,-4.718795046E-2,3.130592173E-3
1.666054146E1,-4.459185153E-2,-7.345438004E-2,-4.909684882E-2
1.668065099E1,-1.551551968E-1,-8.246437646E-3,-6.436803192E-2
1.670076047E1,-2.029540092E-1,5.986303091E-2,-3.336753324E-2
1.672087000E1,-1.708845198E-1,6.276455522E-2,2.924431302E-2
1.674097948E1,-8.108997345E-2,1.863084175E-2,7.154548168E-2
1.676108902E1,1.893626526E-2,3.145863488E-2,5.352549255E-2
1.678119855E1,6.719319522E-2,3.497100621E-2,9.086352773E-3
1.680130802E1,3.451287001E-2,-3.054236295E-3,6.795675959E-3
1.682141756E1,-3.222219273E-2,6.978929788E-2,8.422056586E-2
1.684152709E1,-1.018587798E-1,2.412846684E-1,1.866901964E-1
1.686163657E1,-2.724378705E-1,3.115320951E-2,1.963110417E-1
1.688174610E1,-4.992149174E-1,-8.276980370E-2,1.366007179E-1
1.690185558E1,-5.841227174E-1,1.569877416E-1,1.566059589E-1
1.692196511E1,-5.238015056E-1,5.833591148E-2,1.303395331E-1
1.694207464E1,-3.701734245E-1,-2.307475507E-1,8.605311066E-2
1.696218412E1,-5.741964281E-2,-7.849387079E-2,1.301868260E-1
1.698229365E1,4.398100376E-1,6.325323582E-1,2.743467689E-1
1.700240313E1,8.422056437E-1,9.342908859E-1,3.873535097E-1
1.702251266E1,9.129112363E-1,3.904841244E-1,4.936409295E-1
1.704262219E1,6.390989423E-1,-5.161659122E-1,4.850890934E-1
1.706273167E1,2.747285664E-1,-9.105442166E-1,3.945309818E-1
1.708284120E1,3.329117596E-2,-5.154023767E-1,2.728196681E-1
1.710295068E1,3.008422814E-2,1.565296054E-1,1.883700192E-1
1.712306021E1,2.327328026E-1,5.880932212E-1,2.581593096E-1
1.714316974E1,4.288147688E-1,5.091412067E-1,3.539096415E-1
1.716327922E1,5.361711979E-1,1.261399537E-1,4.594334960E-1
1.718338875E1,5.438067913E-1,-1.623326540E-1,4.976114631E-1
1.720349823E1,4.292729199E-1,-1.892099380E-1,4.073587656E-1
1.722360776E1,2.008160353E-1,-7.727217674E-2,2.566322088E-1
1.724371730E1,-7.727217674E-2,-8.857285604E-3,1.052947938E-1
1.726382678E1,-2.895416021E-1,-9.926267900E-3,2.298312820E-2
1.728393631E1,-3.631486893E-1,-1.542389300E-2,1.107160654E-2
1.730404578E1,-3.060344756E-1,-1.175880991E-2,2.619007602E-2
1.732415532E1,-1.653869003E-1,-1.420219894E-2,1.794363745E-2
1.734426480E1,-4.245388508E-2,-3.848337755E-2,-3.703261539E-2
1.736437433E1,-2.886253223E-2,-8.475505561E-2,-1.139993668E-1
1.738448386E1,-1.046075895E-1,-1.279724985E-1,-1.633252800E-1
1.740459334E1,-1.702736765E-1,-1.191152185E-1,-1.801235825E-1
1.742470287E1,-1.548497826E-1,-4.214845970E-2,-1.550788432E-1
1.744481235E1,-7.238540053E-2,-3.817795310E-3,-1.109451354E-1
1.746492188E1,-3.008422814E-2,-1.325538605E-1,-1.349208951E-1
1.748503141E1,-6.169557199E-2,-3.504736125E-1,-2.172325552E-1
1.750514089E1,-1.281252056E-1,-4.824166298E-1,-2.935884595E-1
1.752525042E1,-1.382041872E-1,-4.213318825E-1,-3.004604876E-1
1.754535990E1,-4.169032723E-2,-2.003578991E-1,-2.328091562E-1
1.756546943E1,1.076618284E-1,-7.620319724E-2,-1.472905427E-1
1.758557896E1,1.154501289E-1,-4.153761268E-1,-2.138728946E-1
1.760568844E1,3.909422457E-2,-4.196520746E-1,-2.879381180E-1
1.762579797E1,-3.038965166E-2,-1.014006436E-1,-3.592545390E-1
1.764590745E1,-2.116585821E-1,-3.651339412E-1,-5.112028122E-1
1.766601698E1,-3.263451457E-1,-4.534013867E-1,-5.334987044E-1
1.768612646E1,-1.771457046E-1,3.054236248E-2,-5.024982095E-1
1.770623599E1,1.456870735E-1,4.176668227E-1,-3.969743550E-1
1.772634553E1,4.831801951E-1,3.093941510E-1,-2.308239043E-1
1.774645500E1,6.580352187E-1,-3.237490356E-2,-2.025722265E-1
1.776656454E1,6.187883019E-1,-1.462979168E-1,-2.731250823E-1
1.778667402E1,4.326325655E-1,3.527642787E-2,-3.204657435E-1
1.780678355E1,1.765348613E-1,1.983726472E-1,-3.491755724E-1
1.782689302E1,-5.772506446E-2,2.365505993E-1,-3.151208162E-1
1.784700256E1,-1.713426560E-1,2.420482337E-1,-2.349471301E-1
1.786711209E1,-1.180462316E-1,2.261662036E-1,-1.468324065E-1
1.788722157E1,2.290677279E-2,1.586675793E-1,-7.246175408E-2
1.790733110E1,1.224748790E-1,9.605573118E-2,-3.596363217E-2
1.792744058E1,1.171299592E-1,7.742489129E-2,-3.993413970E-2
1.794755011E1,1.649287529E-2,7.895200700E-2,-5.993938819E-2
1.796765964E1,-1.175880954E-1,9.773556143E-2,-3.443651274E-2
1.798776912E1,-2.150182426E-1,1.265980899E-1,2.512109280E-2
1.800787865E1,-2.732014358E-1,1.052184403E-1,6.436803192E-2
1.802798813E1,-3.339807391E-1,3.222219273E-2,7.429429889E-2
1.804809766E1,-3.804051280E-1,5.925218388E-2,9.216158092E-2
1.806820714E1,-3.970507085E-1,1.250709742E-1,8.406785131E-2
1.808831667E1,-3.713951409E-1,1.481304616E-1,8.788564801E-2
1.810842620E1,-2.837385535E-1,1.336228400E-1,1.136939451E-1
1.812853568E1,-1.661504507E-1,1.111742035E-1,1.419456303E-1
1.814864521E1,-7.131642103E-2,7.849387079E-2,1.701973230E-1
1.816875469E1,-3.130592033E-2,5.787777901E-2,1.756949425E-1
1.818886422E1,-6.093201414E-2,3.374931216E-2,1.779856235E-1
1.820897370E1,-1.378987730E-1,2.214321308E-2,1.640888453E-1
1.822908323E1,-1.966928244E-1,4.535540938E-2,1.459161341E-1
1.824919271E1,-1.841704547E-1,1.075091213E-1,1.653105468E-1
1.826930224E1,-1.120904684E-1,2.629697323E-1,2.399866134E-1
1.828941178E1,-8.108997345E-2,2.461714447E-1,3.389438689E-1
1.830952125E1,-2.423536479E-1,-1.693574041E-1,2.799971104E-1
1.832963079E1,-4.634803534E-1,-3.177932799E-1,1.863847673E-1
1.834974026E1,-5.644228458E-1,-2.550287247E-1,1.379751265E-1
1.836984980E1,-3.744493723E-1,-1.194206402E-1,1.437781751E-1
1.838995928E1,9.116895497E-2,1.188097894E-1,2.470113635E-1
1.841006881E1,6.531484127E-1,3.545968235E-1,4.311818182E-1
1.843017834E1,1.026681542E0,3.558185399E-1,5.440358520E-1
1.845028782E1,1.049435616E0,1.661504507E-1,5.622085333E-1
1.847039735E1,7.316423059E-1,-9.025268257E-2,5.199073553E-1
1.849050683E1,2.593046725E-1,-2.964136302E-1,4.769953489E-1
1.851061636E1,-4.978405312E-2,-1.360662282E-1,4.922665358E-1
1.853072584E1,-5.680879578E-2,1.702736765E-1,4.679853618E-1
1.855083537E1,1.293469071E-1,3.026748300E-1,3.920875788E-1
1.857094485E1,3.037438095E-1,2.180724740E-1,3.100813329E-1
1.859105438E1,3.619270027E-1,5.741964281E-2,2.790808380E-1
1.861116391E1,3.147390485E-1,-5.039489828E-3,2.752630413E-1
1.863127339E1,1.780619770E-1,1.496575773E-2,2.512872815E-1
1.865138292E1,-7.177455351E-3,2.611372061E-2,2.239518762E-1
1.867149240E1,-1.585148573E-1,3.756710514E-2,1.672957987E-1
1.869160193E1,-1.918060333E-1,1.195733473E-1,1.146102175E-1
1.871171141E1,-1.198787764E-1,1.661504507E-1,9.170344472E-2
1.873182094E1,-1.588202827E-2,1.319430023E-1,1.045312360E-1
1.875193047E1,6.749862432E-2,6.139015034E-2,1.207186878E-1
1.877203995E1,9.895725548E-2,1.756185852E-2,1.227039397E-1
1.879214948E1,6.780404598E-2,-2.993151546E-2,1.034622565E-1
1.881225896E1,9.162709117E-3,-3.924693540E-2,8.544225991E-2
1.883236849E1,-2.596100792E-2,1.527118147E-3,7.124006003E-2
1.885247797E1,-1.832541777E-3,4.001049697E-2,6.177192926E-2
1.887258750E1,7.513421029E-2,-1.634016447E-2,5.428905040E-2
1.889269698E1,1.519482583E-1,-1.568350345E-1,7.047650218E-2
1.891280652E1,1.956238300E-1,-2.939702570E-1,7.948649675E-2
1.893291605E1,1.682884246E-1,-3.443651497E-1,3.520007432E-2
1.895302552E1,6.505523622E-2,-3.622324169E-1,-5.505260825E-2
1.897313506E1,-6.047387794E-2,-2.715215981E-1,-1.323247850E-1
1.899324454E1,-1.893626451E-1,-1.713426560E-1,-1.617981642E-1
1.901335407E1,-3.523061574E-1,-2.009687424E-1,-1.385859698E-1
1.903346355E1,-5.419742465E-1,-3.860554695E-1,-1.424037665E-1
1.905357308E1,-7.044596076E-1,-5.512896776E-1,-2.940466106E-1
1.907368261E1,-6.526902914E-1,-3.222219348E-1,-4.433987439E-1
1.909379209E1,-3.003841341E-1,3.110739589E-1,-4.756209552E-1
1.911390162E1,1.568350345E-1,5.787777901E-1,-3.458158970E-1
1.913401110E1,4.845545888E-1,1.130067408E-1,-1.697391868E-1
1.915412063E1,5.839699507E-1,-4.741701782E-1,-1.274380088E-1
1.917423011E1,4.741701782E-1,-5.224271417E-1,-2.654894888E-1
1.919433964E1,1.730224788E-1,-1.824906170E-1,-4.814240038E-1
1.921444912E1,-2.447970361E-1,1.365243644E-1,-6.391752958E-1
1.923455865E1,-6.027535200E-1,2.119639963E-1,-6.579588652E-1
1.925466818E1,-7.377507687E-1,2.489202619E-1,-5.709131360E-1
1.927477766E1,-5.957288146E-1,2.924431264E-1,-4.320980906E-1
1.929488719E1,-2.492256761E-1,2.980934680E-1,-2.862583101E-1
1.931499667E1,1.388150454E-1,2.250972092E-1,-1.981435865E-1
1.933510620E1,4.111002088E-1,1.233911440E-1,-1.814979911E-1
1.935521568E1,4.998257756E-1,8.246438205E-2,-2.106659412E-1
1.937532521E1,3.976615667E-1,1.072036922E-1,-2.282278091E-1
1.939543469E1,1.785201132E-1,1.151447073E-1,-1.891335845E-1
1.941554422E1,-7.941014133E-3,8.612946421E-2,-1.391968131E-1
1.943565370E1,-6.551336497E-2,5.268557742E-2,-1.063637808E-1
1.945576323E1,-4.581354442E-4,5.207473040E-2,-9.720107168E-2
1.947587277E1,8.994726092E-2,3.726168349E-2,-1.323247850E-1
1.949598224E1,1.163664013E-1,2.535016090E-2,-1.547734290E-1
1.951609178E1,4.749337584E-2,2.916795574E-2,-1.640888453E-1
1.953620125E1,-6.337540597E-2,1.204896197E-1,-1.662268043E-1
1.955631078E1,-1.426328421E-1,2.858765125E-1,-1.353790164E-1
1.957642027E1,-1.834068894E-1,3.584146202E-1,-6.604786217E-2
1.959652980E1,-2.191414535E-1,2.919849753E-1,1.641651988E-2
1.961663928E1,-2.400629669E-1,1.892099380E-1,9.796462953E-2
1.963674881E1,-1.869192570E-1,1.812689304E-1,1.651578248E-1
1.965685829E1,-6.551336497E-2,2.858765125E-1,1.989071369E-1
1.967696782E1,3.695625812E-2,4.424061179E-1,2.686964273E-1
1.969707735E1,-1.664558798E-2,1.759240031E-1,3.073325157E-1
1.971718683E1,-2.003578991E-1,-3.981196880E-1,2.489966154E-1
1.973729636E1,-3.431434333E-1,-4.650074840E-1,2.256316990E-1
1.975740584E1,-3.645231128E-1,-2.017323077E-1,1.772220582E-1
1.977751537E1,-2.771719396E-1,-6.994201243E-2,7.826480269E-2
1.979762485E1,-9.758284688E-2,6.902574003E-2,6.207735091E-2
1.981773438E1,2.002051920E-1,3.458922505E-1,2.199813724E-1
1.983784386E1,5.480827093E-1,5.441122055E-1,4.295019805E-1
1.985795339E1,7.951704264E-1,4.624113739E-1,5.609868765E-1
1.987806287E1,8.177717924E-1,1.101052165E-1,6.009973288E-1
1.989817240E1,5.853443742E-1,-2.513636351E-1,5.562527776E-1
1.991828188E1,2.217375487E-1,-4.080459774E-1,4.751628041E-1
1.993839141E1,-1.218640283E-1,-2.990097404E-1,3.682645559E-1
1.995850094E1,-3.596363366E-1,-7.192726433E-2,2.832040489E-1
1.997861042E1,-4.666872919E-1,8.490777016E-2,2.551050782E-1
1.999871995E1,-4.193466306E-1,1.956238300E-1,2.882435620E-1
2.001882943E1,-2.481566966E-1,1.823379099E-1,3.360423446E-1
2.003893896E1,-5.253286287E-2,7.437065244E-2,3.551313281E-1
2.005904844E1,5.039490014E-2,-1.404948719E-2,3.345152438E-1
2.007915797E1,3.084778599E-2,5.497625098E-3,2.789281309E-1
2.009926745E1,-5.573981255E-2,1.197260618E-1,2.068481594E-1
2.011937698E1,-1.603474021E-1,1.608055383E-1,1.472905427E-1
2.013948646E1,-2.385358512E-1,6.352811307E-2,1.262163222E-1
2.015959599E1,-2.342599183E-1,-2.015795931E-2,1.304922402E-1
2.017970547E1,-1.183516532E-1,-4.886778072E-3,1.225512326E-1
2.019981500E1,9.773556143E-3,2.748812549E-3,7.902836055E-2
2.021992454E1,8.261708915E-2,-3.100049868E-2,5.444176123E-2
2.024003402E1,7.360709459E-2,-9.727742523E-2,1.550024934E-2
2.026014355E1,2.825168520E-2,-1.319430023E-1,3.894151188E-3
2.028025302E1,1.786728203E-2,-1.049130186E-1,1.908897655E-3
2.030036256E1,6.795676053E-2,-1.349972486E-1,-1.626380906E-2
2.032047204E1,1.298050433E-1,-1.805053651E-1,-4.970769584E-2
2.034058157E1,1.585148573E-1,-1.743968874E-1,-7.872293890E-2
2.036069105E1,1.134648770E-1,-1.609582454E-1,-1.208714023E-1
2.038080058E1,1.557660475E-2,-2.292204350E-1,-1.204132661E-1
2.040091006E1,-5.635065958E-2,-2.580829561E-1,-3.901786730E-2
2.042101959E1,-6.429167092E-2,-1.896680743E-1,3.199312463E-2
2.044112907E1,-1.391204596E-1,-4.575245976E-1,-2.924431302E-2
2.046123860E1,-3.901786804E-1,-6.013791561E-1,-1.653105468E-1
2.048134808E1,-6.675033569E-1,-2.944283783E-1,-2.923667729E-1
2.050145761E1,-7.388197780E-1,-7.620319724E-2,-3.797179163E-1
2.052156709E1,-4.361449480E-1,1.116323397E-1,-3.427616656E-1
2.054167662E1,1.200314835E-1,3.407000601E-1,-2.271588296E-1
2.056178610E1,6.549809575E-1,3.707842827E-1,-1.746259630E-1
2.058189563E1,9.993461370E-1,1.601946950E-1,-1.674485058E-1
2.060200516E1,1.055238605E0,-1.733279079E-1,-1.810398549E-1
2.062211464E1,7.951704264E-1,-4.651601911E-1,-2.303657681E-1
2.064222417E1,2.791571915E-1,-5.016583204E-1,-3.253525198E-1
2.066233365E1,-2.837385535E-1,-2.014268786E-1,-4.452312887E-1
2.068244318E1,-6.888830066E-1,1.985253543E-1,-5.302917957E-1
2.070255266E1,-7.961630225E-1,3.600944579E-1,-4.716504514E-1
2.072266219E1,-5.859552622E-1,3.374931216E-1,-2.891598344E-1
2.074277167E1,-1.736333370E-1,2.243336588E-1,-9.765920788E-2
2.076288120E1,2.365505993E-1,1.243074164E-1,-3.894151188E-3
2.078299068E1,4.344651103E-1,2.672456764E-2,-2.771719359E-2
2.080310021E1,3.520007432E-1,-5.024218559E-2,-8.590039611E-2
2.082320969E1,6.062658876E-2,-3.161134571E-2,-1.245364845E-1
2.084331922E1,-2.814478874E-1,1.206423342E-2,-1.344627589E-1
2.086342870E1,-5.048652887E-1,2.458660305E-2,-1.231620759E-1
2.088353823E1,-5.201364160E-1,4.596625641E-2,-1.023932695E-1
2.090364771E1,-3.730749488E-1,5.787777901E-2,-9.170344472E-2
2.092375724E1,-1.605001241E-1,8.857285231E-2,-6.375718117E-2
2.094386672E1,5.512896553E-2,1.498102844E-1,-1.809635013E-2
2.096397625E1,2.017323077E-1,1.682884246E-1,-1.687465608E-2
2.098408573E1,2.350234836E-1,1.543916464E-1,-4.176668078E-2
2.100419526E1,1.684411317E-1,9.972081333E-2,-6.161921844E-2
2.102430480E1,9.009996802E-2,8.170082420E-2,-8.040276915E-2
2.104441428E1,2.626643144E-2,6.642963737E-2,-1.175117418E-1
2.106452381E1,1.023169141E-2,5.024218559E-2,-1.196497083E-1
2.108463329E1,2.779355086E-2,5.696150661E-2,-1.220930964E-1
2.110474282E1,4.550812021E-2,7.330167294E-2,-1.172063202E-1
2.112485230E1,4.535540938E-2,6.948387623E-2,-9.109259397E-2
2.114496183E1,2.702999115E-2,4.245388508E-2,-4.619532451E-2
2.116507131E1,4.153761268E-2,1.029277667E-1,1.916533336E-2
2.118518084E1,1.113269106E-1,3.129065037E-1,7.811209559E-2
2.120529032E1,1.036913246E-1,2.987042964E-1,1.100288630E-1
2.122539985E1,-7.727217674E-2,2.596100792E-3,5.016583204E-2
2.124550933E1,-2.904578745E-1,1.939439960E-2,-1.488940232E-2
2.126561886E1,-4.952444136E-1,-1.873773932E-1,-1.198024154E-1
2.128572834E1,-6.030589342E-1,-4.873034060E-1,-1.541625708E-1
2.130583787E1,-4.138490260E-1,-2.732014358E-1,-7.948649675E-2
2.132594735E1,1.412584335E-1,3.811686933E-1,1.387386769E-1
2.134605688E1,8.040276766E-1,7.443174124E-1,4.191175699E-1
2.136616636E1,1.250404358E0,4.515688419E-1,6.283327341E-1
2.138627589E1,1.285528064E0,-1.869192570E-1,6.720083356E-1
2.140638537E1,9.026795626E-1,-7.012526393E-1,5.170058608E-1
2.142649490E1,3.384093940E-1,-6.839962006E-1,3.575747013E-1
2.144660438E1,-1.540862173E-1,-2.475458533E-1,2.160108685E-1
2.146671391E1,-4.037700295E-1,2.637332976E-1,1.228566542E-1
2.148682344E1,-3.469612300E-1,4.877615273E-1,1.569113880E-1
2.150693292E1,-1.252236813E-1,3.544441164E-1,2.364742458E-1
2.152704245E1,1.026223376E-1,7.177455351E-3,2.943520248E-1
2.154715193E1,2.446443290E-1,-1.835595965E-1,2.590755820E-1
2.156726146E1,2.414373755E-1,-1.527118087E-1,1.457634270E-1
2.158737094E1,9.193251282E-2,-5.375456065E-2,3.871244565E-2
2.160748047E1,-1.264453828E-1,1.374406368E-2,-3.000787087E-2
2.162758995E1,-2.898470163E-1,4.611896724E-2,-8.360971510E-2
2.164769948E1,-3.203893900E-1,4.031591862E-2,-1.234675050E-1
2.166780896E1,-2.408265322E-1,7.330167107E-3,-1.486649513E-1
2.168791849E1,-1.293469071E-1,2.901524538E-3,-1.491230875E-1
2.170802797E1,-4.688252881E-2,2.046338283E-2,-1.291178465E-1
2.172813750E1,-1.847812906E-2,-6.719320081E-3,-1.184280142E-1
2.174824698E1,-2.855710872E-2,-5.833591148E-2,-9.827005118E-2
2.176835652E1,-6.413896382E-2,-8.338065445E-2,-9.063446522E-2
2.178846599E1,-6.459710002E-2,-3.497100621E-2,-8.330429345E-2
2.180857553E1,-1.847812906E-2,-6.368082762E-2,-1.081963181E-1
2.182868500E1,3.497100621E-2,-1.320957243E-1,-1.411820799E-1
2.184879454E1,3.313846514E-2,-3.031329513E-1,-1.712663025E-1
2.186890402E1,-1.756185852E-2,-4.941754341E-1,-1.808871478E-1
2.188901355E1,-8.292251825E-2,-5.839699507E-1,-1.934095174E-1
2.190912303E1,-1.327065676E-1,-6.033644080E-1,-2.048628926E-1
2.192923256E1,-1.856975704E-1,-5.767925382E-1,-2.384594977E-1
2.194934209E1,-2.263189107E-1,-4.984513521E-1,-2.657949030E-1
2.196945157E1,-1.136175916E-1,-3.301629424E-1,-2.341835648E-1
2.198956105E1,2.200577259E-1,-1.924168877E-2,-1.427091956E-1
2.200967058E1,5.273138881E-1,-2.089097649E-1,-3.886515647E-2
2.202978006E1,5.053234100E-1,-8.425874114E-1,-7.811209559E-2
2.204988959E1,1.630962193E-1,-9.161945581E-1,-2.694599926E-1
2.206999912E1,-4.117110670E-1,-7.253811359E-1,-6.315397024E-1
2.209010860E1,-9.371160269E-1,-2.655658424E-1,-9.534562230E-1
2.211021813E1,-1.100212216E0,3.428380191E-1,-1.008127093E0
2.213032761E1,-8.586221933E-1,5.395308137E-1,-8.154047132E-1
2.215043714E1,-3.620797098E-1,1.498102844E-1,-5.360948443E-1
2.217054662E1,2.447970361E-1,-3.388675153E-1,-3.051945567E-1
2.219065615E1,7.386670709E-1,-3.281776905E-1,-2.285332382E-1
2.221076563E1,8.791618943E-1,-1.527118124E-2,-2.514399886E-1
2.223087516E1,6.386408210E-1,1.586675793E-1,-2.912977934E-1
2.225098464E1,1.597365588E-1,1.768402755E-1,-2.914505005E-1
2.227109417E1,-3.069507480E-1,7.040014863E-2,-2.189123929E-1
2.229120365E1,-4.981459379E-1,3.649812192E-2,-1.110978425E-1
2.231131318E1,-4.020902216E-1,7.513421029E-2,-2.130329795E-2
2.233142266E1,-1.785201132E-1,2.794626169E-2,3.290939704E-2
2.235153219E1,1.313321572E-2,7.910472155E-2,4.909684882E-2
2.237164167E1,7.421794534E-2,1.734806150E-1,5.169294775E-2
2.239175120E1,3.466558084E-2,1.860029846E-1,9.429954737E-2
2.241186068E1,7.482878864E-3,1.673721522E-1,1.617981642E-1
2.243197021E1,5.008947477E-2,2.176143378E-1,1.961583197E-1
2.245207969E1,1.159082651E-1,2.589992285E-1,2.088334113E-1
2.247218922E1,1.406475753E-1,2.367033064E-1,1.982962936E-1
2.249229875E1,1.029277667E-1,2.006633282E-1,1.579803675E-1
2.251240823E1,4.627167806E-2,2.585411072E-1,1.129303873E-1
2.253251776E1,-1.053711493E-2,3.109212518E-1,7.551599294E-2
2.255262724E1,-3.344388679E-2,3.032856584E-1,8.574768156E-2
2.257273678E1,-1.099525020E-2,2.695363462E-1,1.132358089E-1
2.259284625E1,3.817795217E-2,2.754921019E-1,1.214822456E-1
2.261295578E1,9.452861547E-2,2.932066917E-1,1.233147904E-1
2.263306527E1,1.337755471E-1,2.738122940E-1,1.204132661E-1
2.265317480E1,1.394258887E-1,2.279987335E-1,1.109451354E-1
2.267328428E1,7.360709459E-2,1.409530044E-1,9.155073017E-2
2.269339381E1,-6.551336497E-2,-3.252761811E-2,5.948125198E-2
2.271350328E1,-1.866138428E-1,-1.459924877E-1,7.864658721E-3
2.273361282E1,-2.176143378E-1,-1.969982497E-2,-2.374668792E-2
2.275372230E1,-1.369825006E-1,1.171299592E-1,-1.122431830E-2
2.277383183E1,2.428117767E-2,1.104106456E-1,4.657710437E-3
2.279394131E1,1.623326540E-1,4.734066129E-2,-3.130592173E-3
2.281405084E1,1.902789176E-1,4.734066315E-3,-3.168770298E-2
2.283416032E1,1.044548824E-1,-3.008422814E-2,-6.253548712E-2
2.285426985E1,-2.046338283E-2,3.054236295E-4,-7.429429889E-2
2.287437938E1,-1.097997949E-1,8.032641560E-2,-6.604786217E-2
2.289448886E1,-1.272089481E-1,9.880454093E-2,-4.100312293E-2
2.291459834E1,-7.559234649E-2,3.329117596E-2,-2.367033157E-3
2.293470787E1,1.908897609E-2,-1.130067464E-2,4.558447748E-2
2.295481740E1,1.082726792E-1,2.076880634E-2,7.872293890E-2
2.297492688E1,1.388150454E-1,7.467607409E-2,9.170344472E-2
2.299503641E1,8.979454637E-2,9.987352788E-2,8.513683826E-2
2.301514589E1,-5.955760833E-3,8.887827396E-2,6.910209358E-2
2.303525542E1,-1.027750522E-1,7.727217674E-2,7.169819623E-2
2.305536490E1,-1.435490996E-1,6.368082762E-2,1.072800532E-1
2.307547443E1,-1.145338640E-1,8.124268800E-2,1.459161341E-1
2.309558391E1,-4.291202128E-2,1.348445266E-1,1.624090075E-1
2.311569344E1,2.809897438E-2,1.577513069E-1,1.689756215E-1
2.313580292E1,5.482354015E-2,1.023169160E-1,1.730988473E-1
2.315591245E1,2.779355086E-2,1.847812906E-2,1.900498569E-1
2.317602198E1,-2.137965336E-2,-1.496575773E-2,2.131093442E-1
2.319613146E1,-5.818320066E-2,9.009997360E-3,2.326564491E-1
2.321624099E1,-6.184828654E-2,3.771981969E-2,2.485384792E-1
2.323635047E1,-4.550812021E-2,5.711421743E-2,2.325037420E-1
2.325646000E1,-3.695625812E-2,7.941014320E-2,2.028776407E-1
2.327656948E1,-2.733541466E-2,8.338065445E-2,1.821088344E-1
2.329667902E1,1.221694518E-3,7.070557028E-2,1.451525837E-1
2.331678849E1,2.611372061E-2,5.482354015E-2,1.185807213E-1
2.333689802E1,4.703523964E-2,4.337015375E-2,1.152210608E-1
2.335700750E1,8.689302206E-2,4.703523964E-2,9.888090193E-2
2.337711704E1,1.360662282E-1,4.291202128E-2,7.276718318E-2
2.339722652E1,1.577513069E-1,2.901524538E-3,3.122956678E-2
2.341733605E1,1.421747059E-1,-3.054236248E-2,-5.573981442E-3
2.343744552E1,1.185043678E-1,-2.122694254E-2,-3.642176837E-2
2.345755506E1,1.049130186E-1,2.748812549E-3,-5.169294775E-2
2.347766459E1,8.506047726E-2,1.511846948E-2,-5.795413256E-2
2.349777407E1,4.718795046E-2,-1.130067464E-2,-8.009734750E-2
2.351788360E1,-1.542389300E-2,-3.130592033E-2,-1.231620759E-1
2.353799308E1,-7.849387079E-2,7.024743594E-3,-1.550788432E-1
2.355810261E1,-1.018587798E-1,5.589252338E-2,-1.517191827E-1
2.357821209E1,-8.948912472E-2,4.810422286E-2,-1.179698780E-1
2.359832162E1,-5.650337040E-2,5.039489828E-3,-7.658497244E-2
2.361843110E1,-2.932066843E-2,-9.773556143E-3,-6.436803192E-2
2.363854063E1,-2.901524492E-2,3.512371797E-3,-6.070294604E-2
2.365865011E1,-4.672981426E-2,-3.970507067E-3,-4.909684882E-2
2.367875964E1,-6.642963737E-2,-2.901524538E-3,-3.397838026E-2
2.369886917E1,-7.299624383E-2,8.857285604E-3,-2.481566928E-2
2.371897865E1,-7.314895838E-2,-9.162708884E-4,-4.222481698E-2
2.373908818E1,-6.062658876E-2,-1.099525020E-2,-5.352549255E-2
2.375919766E1,-3.924693540E-2,-2.626643144E-2,-6.207735091E-2
2.377930719E1,-1.450762246E-2,-2.718270384E-2,-6.177192926E-2
2.379941667E1,-1.053711493E-2,-2.000524849E-2,-6.299362332E-2
2.381952620E1,-2.825168520E-2,-5.039489828E-3,-6.528430432E-2
2.383963568E1,-5.772506446E-2,6.261184346E-3,-8.131904155E-2
2.385974521E1,-8.108997345E-2,3.619270027E-2,-7.887565345E-2
2.387985469E1,-9.834641218E-2,8.536590636E-2,-6.940752268E-2
2.389996422E1,-1.075091213E-1,1.065928489E-1,-5.948125198E-2
2.392007370E1,-4.825693369E-2,1.075091213E-1,-4.054498672E-2
2.394018323E1,5.726693198E-2,8.368607610E-2,-1.458397787E-2
2.396029277E1,1.230857223E-1,1.191152167E-2,2.053973824E-2
2.398040224E1,1.127013192E-1,-7.238540053E-2,1.320957206E-2
2.400051178E1,3.268032894E-2,-6.276455522E-2,-9.544488043E-3
2.402062125E1,-9.025268257E-2,-4.291202128E-2,-2.221956849E-2
2.404073078E1,-1.885990947E-1,-6.352811307E-2,-1.351499557E-2
2.406084027E1,-2.055501044E-1,-6.948387623E-2,1.488940232E-2
2.408094980E1,-1.496575773E-1,-4.245388508E-2,4.146125913E-2
2.410105928E1,-7.284353673E-2,-2.153236605E-2,6.452073902E-2
2.412116881E1,-1.710372418E-2,-2.718270384E-2,7.154548168E-2
2.414127829E1,3.970507067E-3,-3.955236077E-2,7.643226534E-2
2.416138782E1,4.581354442E-4,-2.702999115E-2,6.940752268E-2
2.418149735E1,-2.550287358E-2,6.719320081E-3,3.794888780E-2
2.420160683E1,-6.352811307E-2,2.031067200E-2,6.337540224E-3
2.422171636E1,-6.734590977E-2,3.909422457E-2,4.657710437E-3
2.424182584E1,-3.939964995E-2,1.863084175E-2,8.322793990E-3
2.426193537E1,-1.450762246E-2,-4.581354442E-4,-1.908897655E-3
2.428204485E1,-2.321219631E-2,4.734066315E-3,-2.130329795E-2
2.430215438E1,-2.901524492E-2,8.551862091E-3,-3.077143058E-2
2.432226386E1,-4.428642802E-3,6.108472589E-3,-1.382041909E-2
2.434237339E1,4.184303805E-2,2.199050039E-2,6.032116711E-3
2.436248287E1,8.689302206E-2,3.909422457E-2,8.017370477E-3
2.438259240E1,9.544488788E-2,1.527118124E-2,-5.726693198E-3
2.440270193E1,6.429167092E-2,-3.069507517E-2,-9.697199799E-3
2.442281141E1,3.512371797E-3,-7.330167294E-2,-2.008160390E-2
2.444292094E1,-4.352286831E-2,-8.002099395E-2,-2.069245093E-2
2.446303042E1,-4.627167806E-2,-3.008422814E-2,-5.573981442E-3
2.448313995E1,-2.290677279E-2,-3.084778599E-2,1.565296017E-2
2.450324943E1,9.009997360E-3,-3.313846514E-2,1.550024934E-2
2.452335896E1,3.145863488E-2,-1.985253580E-2,8.780929260E-3
2.454346844E1,3.634541109E-2,-1.084253844E-2,5.573981442E-3
2.456357797E1,2.519745007E-2,-4.581354442E-4,4.352286924E-3
2.458368745E1,1.969982497E-2,1.007897966E-2,2.206685767E-2
2.460379698E1,1.068982761E-3,-2.473931387E-2,2.893888950E-2
2.462390652E1,-2.901524492E-2,-5.803048983E-2,3.016058356E-2
2.464401599E1,-3.726168349E-2,-2.458660305E-2,3.336753324E-2
2.466412553E1,-7.330167107E-3,1.145338640E-2,5.428905040E-2
2.468423500E1,2.748812735E-2,-2.596100792E-3,7.551599294E-2
2.470434454E1,4.245388508E-2,-1.725643501E-2,7.398887724E-2
2.472445402E1,3.359659761E-2,-1.404948719E-2,5.703786388E-2
2.474456355E1,1.588202827E-2,9.468132630E-3,5.612159148E-2
2.476467302E1,7.635590620E-3,3.084778599E-2,6.849125028E-2
2.478478256E1,-4.275931045E-3,1.374406274E-3,6.070294604E-2
2.480489204E1,-1.389677543E-2,-3.817795217E-2,5.108210072E-2
2.482500157E1,-2.596100792E-2,-4.550812021E-2,3.367295489E-2
2.484511105E1,-4.825693369E-2,-2.305948362E-2,2.435753495E-2
2.486522058E1,-7.177454978E-2,-4.886778072E-3,2.466295846E-2
2.488533011E1,-6.459710002E-2,1.389677543E-2,5.215108395E-2
2.490543959E1,-1.893626526E-2,4.734066129E-2,7.154548168E-2
2.492554912E1,3.298575059E-2,5.558710173E-2,6.665870547E-2
2.494565860E1,4.001049697E-2,1.221694518E-3,5.902311578E-2
2.496576813E1,8.399149403E-3,-5.879404768E-2,5.169294775E-2
2.498587761E1,-2.046338283E-2,-1.588202827E-2,4.909684882E-2
2.500598714E1,-1.985253580E-2,5.054761097E-2,6.223006546E-2
2.502609662E1,9.162709117E-3,5.971032009E-2,7.750124484E-2
2.504620615E1,5.008947477E-2,3.237490356E-2,7.444700599E-2
2.506631563E1,7.681404054E-2,7.024743594E-3,5.474718660E-2
2.508642516E1,7.314895838E-2,-1.007897966E-2,3.199312463E-2
2.510653469E1,4.245388508E-2,2.901524538E-3,1.397313084E-2
2.512664417E1,-6.261184346E-3,3.436015919E-2,9.926267667E-4
2.514675370E1,-4.031591862E-2,5.405998230E-2,-4.657710437E-3
2.516686318E1,-5.131116882E-2,4.810422286E-2,-2.435753495E-2
2.518697271E1,-4.459185153E-2,2.412846684E-2,-3.565821052E-2
2.520708219E1,-3.222219273E-2,1.267508045E-2,-2.649549954E-2
2.522719172E1,-2.412846684E-2,2.031067200E-2,4.199574701E-3
2.524730120E1,-2.825168520E-2,-1.206423342E-2,2.924431302E-2
2.526741073E1,-3.619270027E-2,-4.184303805E-2,3.687990457E-2
2.528752021E1,-3.206948191E-2,-4.245388508E-2,3.611634299E-2
2.530762974E1,-2.015795931E-2,-2.641914412E-2,3.672719002E-2
2.532773928E1,-1.496575773E-2,-1.969982497E-2,4.115583375E-2
2.534784875E1,-1.954711229E-2,-2.290677279E-2,5.062396824E-2
2.536795828E1,-1.679829881E-2,-2.535016090E-2,6.100837141E-2
2.538806777E1,-2.748812549E-3,-1.847812906E-2,5.581616983E-2
2.540817730E1,7.330167107E-3,-2.626643144E-2,3.367295489E-2
2.542828678E1,1.023169141E-2,-2.870982140E-2,1.443126611E-2
2.544839631E1,1.130067464E-2,-9.162709117E-3,2.061609412E-3
2.546850578E1,1.527118147E-3,1.466033421E-2,-5.344913807E-4
2.548861532E1,-1.878355257E-2,3.054236295E-4,-3.588727675E-3
2.550872480E1,-2.626643144E-2,-1.664558798E-2,-4.657710437E-3
2.552883433E1,-9.162709117E-3,-9.162709117E-3,-1.298050396E-3
2.554894386E1,1.572931744E-2,4.123218823E-3,5.115845706E-3
2.556905334E1,2.596100792E-2,-6.719320081E-3,4.504998680E-3
2.558916287E1,1.969982497E-2,2.916795574E-2,6.948387716E-3
2.560927235E1,4.734066315E-3,2.260134928E-2,1.443126611E-2
2.562938188E1,-7.788302377E-3,5.955760833E-3,2.420482226E-2
2.564949136E1,-1.649287529E-2,-9.162709117E-3,3.168770298E-2
2.566960089E1,-1.099525020E-2,4.581354558E-3,3.535278514E-2
2.568971037E1,2.137965523E-3,2.565558441E-2,3.626905754E-2
2.570981990E1,4.734066315E-3,3.038965166E-2,2.878617682E-2
2.572992938E1,9.162708884E-4,3.634541109E-2,2.053973824E-2
2.575003891E1,3.665083554E-3,5.039490014E-2,1.336228382E-2
2.577014839E1,2.076880634E-2,6.413896382E-2,1.107160654E-2
2.579025792E1,3.512371704E-2,5.360184610E-2,1.061347127E-2
2.581036745E1,2.229592577E-2,4.092676565E-2,-5.344913807E-4
2.583047693E1,-9.009997360E-3,4.642439261E-2,-1.091889478E-2
2.585058646E1,-2.916795574E-2,3.665083647E-2,-2.367033157E-3
2.587069594E1,-2.779355086E-2,1.191152167E-2,1.641651988E-2
2.589080547E1,-1.481304597E-2,1.053711493E-2,8.475505747E-3
2.591091495E1,-1.298050396E-2,1.756185852E-2,-1.718007959E-2
2.593102448E1,-9.315420873E-3,1.557660475E-2,-1.152974181E-2
2.595113396E1,1.679830020E-3,3.054236295E-3,3.588727675E-3
2.597124349E1,1.603474095E-2,-1.221694518E-3,2.977880416E-3
2.599135297E1,3.054236248E-2,3.817795310E-3,-9.697199799E-3
2.601146250E1,4.413371533E-2,1.832541823E-2,-2.848075330E-2
2.603157198E1,3.894151375E-2,9.009997360E-3,-4.558447748E-2
2.605168152E1,3.359660041E-3,-1.679829881E-2,-5.398362502E-2
2.607179105E1,-4.840964451E-2,-1.832541777E-3,-6.223006546E-2
2.609190053E1,-7.742489129E-2,7.024743594E-3,-5.230379477E-2
2.611201006E1,-5.436540768E-2,-1.695101149E-2,-3.275668249E-2
2.613211954E1,-8.857285604E-3,-3.863608837E-2,-1.305686031E-2
2.615222907E1,2.168507688E-2,-3.497100621E-2,-1.275143679E-2
2.617233855E1,1.252236869E-2,-1.542389300E-2,-2.374668792E-2
2.619244808E1,-2.489202656E-2,7.788302377E-3,-2.191414498E-2
2.621255756E1,-6.032116711E-2,1.878355257E-2,-1.519482583E-2
2.623266709E1,-6.688777357E-2,1.023169141E-2,4.046862945E-3
2.625277657E1,-3.741439432E-2,1.603474095E-2,1.641651988E-2
2.627288610E1,9.315420873E-3,2.076880634E-2,9.697199799E-3
2.629299563E1,3.741439432E-2,2.367033064E-2,5.879404955E-3
2.631310511E1,3.848337755E-2,5.803048983E-2,1.702736691E-2
2.633321464E1,1.878355257E-2,7.834116369E-2,1.824906096E-2
2.635332412E1,-1.649287529E-2,2.428117767E-2,1.397313084E-2
2.637343365E1,-2.199050039E-2,-2.305948362E-2,2.115058713E-2
2.639354313E1,2.107422985E-2,-6.261184346E-3,1.702736691E-2
2.641365266E1,6.627693027E-2,-8.704573847E-3,2.695363574E-2
2.643376214E1,6.948387623E-2,-4.138490185E-2,3.046600707E-2
2.645387167E1,3.909422457E-2,-1.618745178E-2,-1.382041909E-2
2.647398115E1,-9.620844387E-3,-2.122694254E-2,-7.291989028E-2
2.649409068E1,-4.046862945E-2,-1.084253844E-2,-8.223531395E-2
2.651420016E1,-2.321219631E-2,9.926267900E-3,-6.329904497E-2
2.653430969E1,-6.566607859E-3,-2.779355086E-2,-6.910209358E-2
2.655441917E1,7.635590737E-4,-6.184828654E-2,-7.139277458E-2
2.657452870E1,6.261184346E-3,-6.383354217E-2,-8.147175610E-2
2.659463823E1,9.009997360E-3,-3.344388679E-2,-7.658497244E-2
2.661474771E1,1.099525020E-2,-9.315420873E-3,-6.085565686E-2
2.663485724E1,-3.054236295E-4,-2.076880634E-2,-5.337277800E-2
2.665496672E1,-2.168507688E-2,-5.360184610E-2,-3.886515647E-2
2.667507625E1,-3.588727489E-2,-6.413896382E-2,-3.520007432E-2
2.669518573E1,-3.344388679E-2,-3.115320951E-2,-3.000787087E-2
2.671529526E1,-2.153236605E-2,1.603474095E-2,-1.137703005E-2
2.673540474E1,-1.985253580E-2,8.704573847E-3,2.519744914E-3
2.675551428E1,-2.550287358E-2,-1.603474095E-2,6.795675959E-3
2.677562375E1,-3.726168349E-2,-1.175880991E-2,1.450762269E-3
2.679573328E1,-4.062134400E-2,-4.428642802E-3,1.107160654E-2
2.681584277E1,-2.244863659E-2,-1.099525020E-2,3.642176837E-2
2.683595230E1,1.191152167E-2,1.374406274E-3,5.230379477E-2
2.685606178E1,2.809897438E-2,2.626643144E-2,4.879142344E-2
2.687617131E1,-3.054236295E-4,3.466558084E-2,3.199312463E-2
2.689628084E1,-5.543438718E-2,2.199050039E-2,1.748550311E-2
2.691639032E1,-1.018587798E-1,2.076880634E-2,9.544488043E-3
2.693649985E1,-1.181989461E-1,2.519745007E-2,2.206685767E-2
2.695660933E1,-8.857285231E-2,3.222219273E-2,5.276193097E-2
2.697671886E1,-2.382304333E-2,3.634541109E-2,7.353074104E-2
2.699682834E1,4.871506989E-2,2.183778957E-2,7.826480269E-2
2.701693787E1,7.818844914E-2,7.482878864E-3,6.558972597E-2
2.703704735E1,5.146388337E-2,2.794626169E-2,5.444176123E-2
2.705715688E1,-1.068982761E-3,4.260659590E-2,4.573718831E-2
2.707726636E1,-3.390202299E-2,3.313846514E-2,4.253023863E-2
2.709737589E1,-1.725643501E-2,2.855710872E-2,3.321481869E-2
2.711748537E1,2.535016090E-2,3.344388679E-2,1.351499557E-2
2.713759490E1,5.253286287E-2,2.977880463E-2,-1.756185899E-3
2.715770438E1,4.535540938E-2,3.084778599E-2,-8.780929260E-3
2.717781391E1,2.107422985E-2,4.306473210E-2,5.344913807E-4
2.719792339E1,-2.382304333E-2,1.725643501E-2,-6.490251981E-3
2.721803292E1,-5.986303091E-2,-2.687728032E-2,-1.351499557E-2
2.723814240E1,-6.001574174E-2,-3.787253052E-2,-1.382041909E-2
2.725825193E1,-2.046338283E-2,3.359660041E-3,1.756185899E-3
2.727836141E1,3.466558084E-2,2.336490713E-2,2.466295846E-2
2.729847094E1,7.238540053E-2,-7.788302377E-3,3.825430945E-2
2.731858042E1,7.116370648E-2,-5.909947306E-2,3.871244565E-2
2.733868995E1,3.695625812E-2,-7.177454978E-2,2.359397523E-2
2.735879943E1,-1.038440317E-2,-3.939964995E-2,8.017370477E-3
2.737890896E1,-3.848337755E-2,1.053711493E-2,1.840177365E-2
2.739901844E1,-3.054236248E-2,-1.374406274E-3,3.138227761E-2
2.741912797E1,3.206948051E-3,-2.748812735E-2,2.756448276E-2
2.743923745E1,4.581354558E-2,-1.786728203E-2,1.137703005E-2
2.745934698E1,5.421269313E-2,-1.496575773E-2,-1.397313084E-2
2.747945652E1,1.481304597E-2,-1.313321572E-2,-8.780929260E-3
2.749956599E1,-3.237490356E-2,6.566607859E-3,3.436015919E-3
2.751967552E1,-4.902049154E-2,2.275406010E-2,4.963133950E-3
2.753978500E1,-3.451287001E-2,-3.054236295E-3,2.519744914E-3
2.755989454E1,-9.162708884E-4,-4.046862945E-2,-4.657710437E-3
2.758000402E1,2.993151546E-2,-4.963133857E-2,-8.322793990E-3
2.760011355E1,4.001049697E-2,-3.054236248E-2,-1.756185899E-3
2.762022302E1,3.008422814E-2,-9.009997360E-3,6.032116711E-3
2.764033256E1,1.282779220E-2,-7.177455351E-3,2.367033157E-3
2.766044204E1,-2.290677279E-3,-2.626643144E-2,-9.849912487E-3
2.768055157E1,-2.137965523E-3,-4.367557913E-2,-1.412584260E-2
2.770066105E1,1.236965694E-2,-3.436015919E-2,-1.336228382E-2
2.772077058E1,3.222219273E-2,-2.336490713E-2,-1.427855436E-2
2.774088006E1,2.809897438E-2,-2.336490713E-2,-3.138227761E-2
2.776098959E1,-1.817270555E-2,-2.840439789E-2,-4.802786559E-2
2.778109907E1,-5.680879578E-2,-1.221694518E-2,-4.008685052E-2
2.780120860E1,-4.169032723E-2,5.955760833E-3,-1.229330152E-2
2.782131808E1,3.512371797E-3,-1.450762246E-2,1.756185899E-3
2.784142761E1,3.206948191E-2,-4.443913698E-2,-1.076618303E-2
2.786153709E1,2.672456764E-2,-3.436015919E-2,-2.664821222E-2
2.788164662E1,1.053711493E-2,5.039489828E-3,-1.305686031E-2
2.790175610E1,-1.114796288E-2,7.177455351E-3,-2.672456671E-3
2.792186563E1,-4.703523964E-2,-1.374406368E-2,4.504998680E-3
2.794197511E1,-5.008947477E-2,-3.191677108E-2,1.183516532E-2
2.796208464E1,-9.620844387E-3,-1.527118124E-2,6.184828468E-3
2.798219412E1,3.619270027E-2,-1.114796288E-2,7.559234742E-3
2.800230365E1,5.467082933E-2,-3.665083554E-3,8.017370477E-3
2.802241313E1,3.069507517E-2,-1.023169141E-2,-6.032116711E-3
2.804252266E1,-2.412846684E-2,-3.390202299E-2,-1.443126611E-2
2.806263214E1,-6.734590977E-2,-3.680354729E-2,-1.030804776E-2
2.808274167E1,-6.887302548E-2,1.527118147E-3,-2.008160390E-2
2.810285115E1,-4.352286831E-2,5.192201585E-3,-4.344651103E-2
2.812296068E1,-1.389677543E-2,-1.679830020E-3,-5.367820337E-2
2.814307016E1,1.527118147E-4,2.687728032E-2,-6.635328382E-2
2.816317969E1,-1.527118124E-2,5.161659420E-2,-6.696412712E-2
2.818328917E1,-4.428642616E-2,2.794626169E-2,-5.902311578E-2
2.820339870E1,-5.497625470E-2,1.527118147E-4,-6.375718117E-2
2.822350818E1,-3.497100621E-2,1.374406274E-3,-4.298837483E-2
2.824361771E1,-5.650337320E-3,1.404948719E-2,-2.038702741E-2
2.826372719E1,1.832541823E-2,1.175880991E-2,-1.947075687E-2
2.828383672E1,1.588202827E-2,1.313321572E-2,-1.687465608E-2
2.830394620E1,-1.298050396E-2,1.618745178E-2,-1.443126611E-2
2.832405573E1,-3.894151375E-2,3.924693540E-2,-1.061347127E-2
2.834416521E1,-4.672981426E-2,5.070032179E-2,6.490251981E-3
2.836427474E1,-4.046862945E-2,3.359659761E-2,1.458397787E-2
2.838438422E1,-2.718270384E-2,2.809897438E-2,1.779092662E-2
2.840449375E1,-6.719320081E-3,4.520269856E-2,3.397838026E-2
2.842460323E1,-3.359660041E-3,4.352286831E-2,4.344651103E-2
2.844471277E1,-2.535016090E-2,1.175880991E-2,3.428380191E-2
2.846482224E1,-4.779879749E-2,7.635590737E-4,2.252499200E-2
2.848493178E1,-5.253286287E-2,3.268032894E-2,2.619007602E-2
2.850504125E1,-4.153761268E-2,6.704048812E-2,4.527905211E-2
2.852515078E1,-1.007897966E-2,4.596625641E-2,5.642701685E-2
2.854526027E1,2.397575416E-2,1.084253844E-2,4.115583375E-2
2.856536974E1,3.848337755E-2,-3.817795310E-3,2.435753495E-2
2.858547928E1,1.924168877E-2,-1.145338640E-2,1.534753758E-2
2.860558875E1,-1.618745178E-2,-1.985253533E-3,1.809635013E-2
2.862569829E1,-3.771981969E-2,1.267508045E-2,2.145601064E-2
2.864580776E1,-3.665083647E-2,2.748812549E-3,1.458397787E-2
2.866591730E1,-2.351761982E-2,-1.817270555E-2,7.711946499E-3
2.868602683E1,-7.635590620E-3,-2.168507688E-2,5.115845706E-3
2.870613631E1,-1.527118147E-4,-7.788302377E-3,-6.337540224E-3
2.872624579E1,1.527118147E-3,-1.527118147E-3,-8.322793990E-3
2.874635532E1,-4.428642802E-3,-2.321219631E-2,-1.214058883E-2
2.876646480E1,-1.832541823E-2,-4.169032723E-2,-1.595838554E-2
2.878657433E1,-7.635590737E-4,-1.236965694E-2,-1.046075951E-2
2.880668381E1,7.131642103E-2,1.985253580E-2,-2.519744914E-3
2.882679334E1,1.108687744E-1,-6.413896102E-3,-1.030804776E-2
2.884690282E1,6.200099736E-2,-4.459185153E-2,-3.428380191E-2
2.886701235E1,-3.848337755E-2,-3.497100621E-2,-4.130854458E-2
2.888712183E1,-1.217113137E-1,-2.137965523E-3,-8.933641016E-3
2.890723136E1,-1.139230132E-1,3.237490356E-2,-7.635590737E-5
2.892734084E1,-3.970507160E-2,2.015795931E-2,-2.367033157E-3
2.894745037E1,3.909422457E-2,-2.275406010E-2,-1.259872504E-2
2.896755985E1,8.719844371E-2,-2.825168520E-2,-1.168245357E-2
2.898766938E1,7.421794534E-2,7.941014133E-3,-3.894151188E-3
2.900777886E1,5.955760833E-3,1.618745178E-2,6.032116711E-3
2.902788834E1,-5.971032009E-2,5.650337320E-3,1.626380906E-2
2.904799787E1,-6.963659078E-2,4.275931045E-3,2.695363574E-2
2.906810735E1,-4.428642616E-2,-2.840439789E-2,1.794363745E-2
2.908821688E1,-1.817270555E-2,-5.665608495E-2,7.101099472E-3
2.910832636E1,-8.704573847E-3,-5.207473040E-2,9.849912487E-3
2.912843589E1,-1.282779220E-2,-2.260134928E-2,2.481566928E-2
2.914854537E1,-1.679829881E-2,-7.635590620E-3,4.146125913E-2
2.916865490E1,-9.009997360E-3,-5.344913341E-3,3.901786730E-2
2.918876438E1,2.901524538E-3,-1.481304597E-2,2.328855172E-2
2.920887391E1,1.313321572E-2,-2.687728032E-2,6.948387716E-3
2.922898339E1,1.084253844E-2,-3.084778599E-2,-4.046862945E-3
2.924909292E1,1.374406274E-3,-8.551862091E-3,-1.298050396E-3
2.926920240E1,-9.315420873E-3,7.482878864E-3,-4.046862945E-3
2.928931193E1,-1.572931744E-2,1.099525020E-2,-8.628217503E-3
2.930942141E1,-1.404948719E-2,-1.023169141E-2,-1.198787708E-2
2.932953089E1,-2.443389036E-3,-1.771457121E-2,-8.017370477E-3
2.934964042E1,9.315420873E-3,1.221694518E-2,-3.817795368E-4
2.936974990E1,4.123218823E-3,2.351761982E-2,2.672456671E-3
2.938985943E1,-1.679829881E-2,9.315420873E-3,6.642963737E-3
2.940996891E1,-2.962609194E-2,-2.748812549E-3,1.733279042E-2
2.943007844E1,-2.305948362E-2,-1.191152167E-2,2.283041552E-2
2.945018792E1,-3.817795310E-3,4.581354558E-3,2.893888950E-2
2.947029745E1,9.620844387E-3,1.206423342E-2,3.016058356E-2
2.949040693E1,1.756185852E-2,1.481304597E-2,3.016058356E-2
2.951051646E1,1.389677543E-2,9.009997360E-3,2.160872146E-2
2.953062594E1,2.137965523E-3,7.635590620E-3,9.544488043E-3
2.955073542E1,-1.817270555E-2,1.359135192E-2,1.145338640E-3
2.957084495E1,-1.985253580E-2,1.969982497E-2,-3.436015919E-3
2.959095443E1,-1.145338640E-2,3.588727489E-2,-8.399150101E-4
2.961106396E1,-7.788302377E-3,3.756710514E-2,3.817795368E-4
2.963117344E1,-1.313321572E-2,3.344388679E-2,-7.101099472E-3
2.965128297E1,-3.665083554E-3,3.436015919E-2,-2.374668792E-2
2.967139245E1,3.497100621E-2,3.191677108E-2,-3.184041381E-2
2.969150198E1,4.535540938E-2,2.305948362E-2,-2.069245093E-2
2.971161146E1,1.282779220E-2,2.351761982E-2,1.473669056E-2
2.973172099E1,-4.031591862E-2,1.282779220E-2,2.176143415E-2
2.975183047E1,-3.466558084E-2,1.878355257E-2,5.344913807E-4
2.977193995E1,-6.566607859E-3,1.557660475E-2,-1.320957206E-2
2.979204948E1,-9.773556143E-3,2.809897438E-2,8.399150101E-4
2.981215896E1,-2.443389036E-2,3.741439432E-2,1.000262424E-2
2.983226849E1,-2.107422985E-2,4.092676565E-2,3.794888780E-2
2.985237797E1,-3.542914242E-2,7.635590620E-3,5.215108395E-2
2.987248745E1,-4.978405312E-2,9.468132630E-3,4.650074616E-2
2.989259698E1,-1.954711229E-2,3.497100621E-2,3.718532622E-2
2.991270646E1,4.199574888E-2,3.191677108E-2,1.931804419E-2
2.993281599E1,8.551861346E-2,6.872031838E-3,-6.184828468E-3
2.995292547E1,9.025268257E-2,-7.635590620E-3,-2.237228118E-2
2.997303500E1,7.757759839E-2,9.773556143E-3,-2.328855172E-2
2.999314448E1,5.268557742E-2,4.398100078E-2,-3.352024406E-2
3.001325402E1,6.108472589E-3,4.795150831E-2,-3.168770298E-2
3.003336349E1,-9.009997360E-3,2.977880463E-2,-2.405211143E-2
3.005347297E1,2.657185495E-2,1.435491070E-2,-2.267770469E-2
3.007358250E1,4.474456236E-2,9.162709117E-3,-1.641651988E-2
3.009369198E1,2.107422985E-2,1.313321572E-2,1.076618303E-2
3.011380152E1,-2.993151546E-2,1.435491070E-2,3.153498843E-2
3.013391099E1,-7.467607409E-2,5.344913341E-3,2.939702384E-2
3.015402053E1,-9.605573118E-2,-1.725643501E-2,2.328855172E-2
3.017413000E1,-9.910997003E-2,-1.969982497E-2,2.420482226E-2
3.019423948E1,-9.697200358E-2,-7.635590620E-3,3.550549597E-2
3.021434902E1,-1.467560530E-1,-1.221694518E-3,3.794888780E-2
3.023445849E1,-4.393518865E-1,8.612946421E-2,4.100312293E-2
3.025456802E1,-6.473453641E-1,1.940967143E-1,6.299362332E-2
3.027467750E1,-5.809157491E-1,2.643441558E-1,-9.391776286E-3
3.029478698E1,-3.028275371E-1,1.557660475E-2,-4.955498502E-2
3.031489652E1,5.635065958E-2,-2.425063550E-1,-3.321481869E-2
3.033500599E1,5.822901726E-1,-2.079934925E-1,-1.443126611E-2
