"Time (s)","Acceleration x (m/s^2)","Acceleration y (m/s^2)","Acceleration z (m/s^2)"
1.383829800E-2,-2.650051117E-1,3.975674868E0,9.001200676E0
3.394850700E-2,6.999006122E-2,3.766302824E0,8.047062874E0
5.405871500E-2,1.710868180E-1,4.057030678E0,8.685347557E0
7.416892300E-2,2.685943544E-1,4.010969162E0,9.157930374E0
9.427913200E-2,9.690931439E-2,3.859024763E0,9.345767021E0
1.143893400E-1,2.033899166E-2,3.841676712E0,9.404391289E0
1.344994960E-1,1.028913707E-1,3.876372576E0,9.074779510E0
1.546097040E-1,1.579262912E-1,3.949951887E0,8.626724243E0
1.747199130E-1,1.465603858E-1,4.027718544E0,8.409575462E0
1.948301210E-1,8.494520187E-2,4.056432724E0,8.553742409E0
2.149403290E-1,8.913264424E-2,4.025924206E0,8.828319550E0
2.350505380E-1,1.357926875E-1,3.946960926E0,9.147162437E0
2.551607460E-1,1.166501045E-1,3.909872293E0,9.406784058E0
2.752709540E-1,1.459621787E-1,3.890131474E0,9.278767586E0
2.953811630E-1,1.124626622E-1,3.891327858E0,8.991030693E0
3.154913710E-1,1.304088384E-1,3.910470486E0,9.023932457E0
3.356015270E-1,2.344966233E-1,3.933800459E0,9.080761909E0
3.557117360E-1,2.697907388E-1,3.966701746E0,8.976674080E0
3.758219440E-1,1.549352705E-1,4.049852371E0,8.951549530E0
3.959321520E-1,1.734796464E-1,4.022933006E0,8.938388824E0
4.160423610E-1,3.212364316E-1,3.929612875E0,9.065806389E0
4.361525690E-1,3.762713671E-1,3.939184189E0,9.562915802E0
4.562627770E-1,4.498506486E-1,3.935595036E0,9.719047546E0
4.763729860E-1,3.792623878E-1,3.993621111E0,9.245268822E0
4.964831940E-1,3.427718580E-1,4.034897327E0,8.781659126E0
5.165934020E-1,5.252245665E-1,4.113262177E0,8.773283958E0
5.367036110E-1,7.866404653E-1,4.031906128E0,8.979066849E0
5.568138190E-1,8.757730722E-1,3.914657831E0,9.142974854E0
5.769240270E-1,7.806583643E-1,3.835694790E0,9.106484413E0
5.970342360E-1,6.753742099E-1,3.854837179E0,8.890532494E0
6.171444440E-1,6.741777658E-1,3.858426571E0,8.555537224E0
6.372546520E-1,6.305087805E-1,3.870988846E0,8.195417404E0
6.573648090E-1,5.042873621E-1,3.843471289E0,7.958528042E0
6.774750170E-1,4.319044948E-1,3.788436413E0,8.029116631E0
6.975852250E-1,3.505485058E-1,3.678964853E0,8.586644173E0
7.176954340E-1,2.123630047E-1,3.499503136E0,9.287740707E0
7.378056420E-1,1.609173268E-1,3.362514019E0,9.747760773E0
7.579158500E-1,2.763710022E-1,3.317050457E0,1.012044334E1
7.780260590E-1,4.193421602E-1,3.291925669E0,1.034297562E1
7.981362670E-1,4.624129832E-1,3.309871912E0,1.044766140E1
8.182464750E-1,3.326023519E-1,3.206980467E0,1.013420200E1
8.383566840E-1,1.387837082E-1,3.105285645E0,9.047262192E0
8.584668920E-1,1.920240223E-1,3.290729284E0,8.331210136E0
8.785771000E-1,5.012963414E-1,3.542573929E0,8.583653450E0
8.986873090E-1,5.491527915E-1,3.740580082E0,9.086744308E0
9.187975170E-1,3.188436031E-1,3.723830223E0,9.055039406E0
9.389077250E-1,6.939185411E-2,3.597010612E0,8.958727837E0
9.590179340E-1,-8.853443712E-2,3.330210924E0,9.504291534E0
9.791281420E-1,-2.195414752E-1,3.163311481E0,1.033819008E1
9.992384020E-1,-3.631108403E-1,3.209373474E0,1.064686394E1
1.019348559E0,-4.067798555E-1,3.283550978E0,1.026281643E1
1.039458819E0,-1.220339537E-1,3.369692564E0,9.774680138E0
1.059569027E0,2.763710022E-1,3.424129248E0,9.586245537E0
1.079679236E0,5.970092416E-1,3.477369547E0,9.811170578E0
1.099789444E0,7.214360237E-1,3.442075491E0,1.004566765E1
1.119899652E0,9.242277741E-1,3.351746321E0,9.911071777E0
1.140009861E0,1.051047325E0,3.444468260E0,9.507881165E0
1.160120069E0,9.517452121E-1,3.467798233E0,8.853444099E0
1.180230277E0,9.128618240E-1,3.501895905E0,8.473583221E0
1.200340486E0,8.273184299E-1,3.592823267E0,8.408976555E0
1.220450694E0,6.837490797E-1,3.613162279E0,8.631509781E0
1.240560902E0,7.453642488E-1,3.543172121E0,9.138189316E0
1.260671111E0,6.939185858E-1,3.455235958E0,9.604191780E0
1.280781319E0,4.342973232E-1,3.388834953E0,9.609575272E0
1.300891527E0,2.991028428E-1,3.458825111E0,9.305088997E0
1.321001736E0,3.457628787E-1,3.574278831E0,9.088538170E0
1.341111944E0,5.605186820E-1,3.597010612E0,9.031110764E0
1.361222204E0,6.753742099E-1,3.605983734E0,8.919246674E0
1.381332413E0,5.234299302E-1,3.594019651E0,8.932407379E0
1.401442621E0,2.931207716E-1,3.565305710E0,9.077771187E0
1.421552829E0,2.572284341E-1,3.555734396E0,9.373284340E0
1.441663038E0,3.272185028E-1,3.501895905E0,9.648459435E0
1.461773246E0,2.727817893E-1,3.415156126E0,9.647860527E0
1.481883454E0,2.267199457E-1,3.386442184E0,9.549157143E0
1.501993663E0,2.021935135E-1,3.326621771E0,9.652048111E0
1.522103871E0,3.110669367E-2,3.171686411E0,9.892526627E0
1.542214132E0,-1.555334684E-2,3.188436270E0,9.953543663E0
1.562324340E0,1.028913707E-1,3.324826956E0,9.648459435E0
1.582434548E0,2.255235314E-1,3.389433384E0,9.264410973E0
1.602544757E0,2.309073806E-1,3.400799274E0,9.071190834E0
1.622654965E0,1.603191197E-1,3.327219963E0,9.144171715E0
1.642765173E0,1.082752272E-1,3.281756163E0,9.348159790E0
1.662875382E0,6.041877344E-2,3.279363394E0,9.591031075E0
1.682985642E0,8.673982322E-2,3.198007345E0,9.768698692E0
1.703095850E0,5.742774159E-2,3.181855917E0,9.623334885E0
1.723206059E0,3.888336942E-2,3.230310678E0,9.443274498E0
1.743316267E0,1.531406492E-1,3.271586657E0,9.333204269E0
1.763426475E0,2.494517565E-1,3.292523861E0,9.313464165E0
1.783536684E0,2.823530734E-1,3.266801119E0,9.372088432E0
1.803646944E0,2.189432681E-1,3.243471146E0,9.454042435E0
1.823757152E0,5.682953820E-2,3.157329559E0,9.518648148E0
1.843867361E0,-2.572284266E-2,3.123231649E0,9.557532310E0
1.863977569E0,-2.392822644E-3,3.118446112E0,9.491728783E0
1.884087777E0,-7.238288224E-2,3.224328518E0,9.245866776E0
1.904198038E0,-1.860419661E-1,3.328416348E0,8.870193481E0
1.924308246E0,-2.021935135E-1,3.320639610E0,8.746364594E0
1.944418454E0,-1.746760458E-1,3.251846075E0,8.989834785E0
1.964528663E0,-1.507478207E-1,3.155534744E0,9.346364975E0
1.984638923E0,-1.369891018E-1,3.106482029E0,9.632308006E0
2.004749132E0,-2.739782035E-1,3.102892876E0,9.731609344E0
2.024859340E0,-3.296113312E-1,3.109472990E0,9.570094109E0
2.044969548E0,-2.117647976E-1,3.130410194E0,9.257830620E0
2.065079757E0,-7.058826834E-2,3.191427231E0,9.199206352E0
2.085190017E0,-8.015955985E-2,3.191427231E0,9.187242508E0
2.105300225E0,-2.428714931E-1,3.212962627E0,9.127422333E0
2.125410434E0,-9.990034252E-2,3.177668571E0,9.224330902E0
2.145520642E0,1.094716340E-1,3.120838881E0,9.589835167E0
2.165630902E0,2.578266263E-1,3.087937593E0,9.827920914E0
2.185741111E0,1.657029688E-1,3.133999348E0,9.741181374E0
2.205851319E0,1.196411327E-1,3.231507063E0,9.334401131E0
2.225961527E0,1.345962733E-1,3.353540897E0,9.108877182E0
2.246071788E0,1.489532143E-1,3.340380430E0,9.360123634E0
2.266181996E0,2.315055877E-1,3.230310678E0,9.813564301E0
2.286292204E0,1.908276081E-1,3.213560820E0,9.887143135E0
2.306402465E0,2.727817893E-1,3.321835995E0,9.457631111E0
2.326512673E0,2.374876440E-1,3.337987661E0,9.071788788E0
2.346622882E0,2.584248483E-1,3.278167009E0,9.042476654E0
2.366733142E0,5.682953820E-2,3.204587698E0,9.523433685E0
2.386843350E0,-1.896311939E-1,3.121437073E0,9.822537422E0
2.406953559E0,-1.154536903E-1,3.135195971E0,9.745368004E0
2.427063767E0,2.404786795E-1,3.164507866E0,9.588638306E0
2.447174027E0,4.899304509E-1,3.202793121E0,9.443274498E0
2.467284236E0,5.282155871E-1,3.212364435E0,9.296115875E0
2.487394444E0,2.835494876E-1,3.230908871E0,9.215357780E0
2.507504704E0,1.555334777E-1,3.234498024E0,9.358329773E0
2.527614913E0,2.602194548E-1,3.195016384E0,9.543174744E0
2.547725121E0,3.367897868E-1,3.137588739E0,9.619745255E0
2.567835382E0,2.333002090E-1,3.139383316E0,9.528220177E0
2.587945590E0,2.057827413E-1,3.208176851E0,9.270991325E0
2.608055798E0,3.140579760E-1,3.297907829E0,8.888737679E0
2.628166059E0,3.505485058E-1,3.363710403E0,8.661419868E0
2.648276267E0,2.679961324E-1,3.361915827E0,8.744570732E0
2.668386527E0,1.405783296E-1,3.259622574E0,9.154939651E0
2.688496736E0,-3.708875179E-2,3.134597778E0,9.682557106E0
2.708606944E0,-2.009970993E-1,3.089133978E0,9.902696609E0
2.728717204E0,-1.495514214E-1,3.150749207E0,9.732208252E0
2.748827413E0,1.573280841E-1,3.272184849E0,9.265008926E0
2.768937621E0,3.996013701E-1,3.300898790E0,9.150752068E0
2.789047882E0,5.670989752E-1,3.276970625E0,9.468997002E0
2.809158090E0,4.247260094E-1,3.214159012E0,9.788438797E0
2.829268350E0,3.050848842E-1,3.133401155E0,9.807581902E0
2.849378559E0,2.757728100E-1,3.080759048E0,9.611370087E0
2.869488767E0,2.063809484E-1,3.213560820E0,9.288339615E0
2.889599027E0,2.787638307E-1,3.313461065E0,8.894720078E0
2.909709236E0,3.140579760E-1,3.297309637E0,8.721240044E0
2.929819496E0,1.339980662E-1,3.222533941E0,9.068199158E0
2.949929704E0,-1.854437590E-2,3.077169895E0,9.593423843E0
2.970039913E0,-1.232303679E-1,3.013161898E0,9.788438797E0
2.990150173E0,-1.190429255E-1,3.029313564E0,9.660423279E0
3.010260382E0,-1.016949583E-2,3.042474031E0,9.564111710E0
3.030370642E0,1.148554832E-1,3.022733212E0,9.558130264E0
3.050480850E0,8.255238086E-2,3.083152056E0,9.433105469E0
3.070591111E0,6.161518395E-2,3.158525944E0,9.322437286E0
3.090701319E0,8.015955985E-2,3.184846878E0,9.464810371E0
3.110811527E0,9.332008660E-2,3.128017426E0,9.659226418E0
3.130921788E0,5.024927482E-2,3.107080221E0,9.750752449E0
3.151031996E0,4.785645287E-3,3.138785124E0,9.713065147E0
3.171142257E0,1.854437590E-2,3.183650494E0,9.570692062E0
3.191252465E0,6.699903309E-2,3.223730326E0,9.354142189E0
3.211362725E0,1.788634956E-1,3.272783279E0,9.163912773E0
3.231472934E0,3.194418252E-1,3.288336515E0,9.263813019E0
3.251583194E0,3.649054468E-1,3.256631613E0,9.493523598E0
3.271693402E0,2.793620527E-1,3.226123095E0,9.500103951E0
3.291803663E0,2.093719840E-1,3.259024382E0,9.299705505E0
3.311913871E0,3.708875179E-1,3.236890793E0,9.224330902E0
3.332024132E0,3.984049559E-1,3.224926710E0,9.467801094E0
3.352134340E0,1.806581169E-1,3.315854073E0,9.750752449E0
3.372244600E0,1.453639716E-1,3.369692564E0,9.745368004E0
3.392354809E0,3.469592929E-1,3.436691523E0,9.477372169E0
3.412465069E0,6.059823632E-1,3.499503136E0,9.133403778E0
3.432575277E0,6.185446382E-1,3.502494097E0,8.907281876E0
3.452685538E0,2.751746178E-1,3.394817114E0,8.967700958E0
3.472795746E0,-1.280160099E-1,3.230908871E0,9.365508080E0
3.492906007E0,-2.626122832E-1,3.109472990E0,9.659226418E0
3.513016215E0,-4.247260094E-2,3.116651535E0,9.531210899E0
3.533126475E0,2.255235314E-1,3.230908871E0,9.192625999E0
3.553236684E0,3.349951804E-1,3.344567776E0,9.131608963E0
3.573346944E0,4.384847581E-1,3.364308596E0,9.212367058E0
3.593457152E0,3.487538993E-1,3.392424345E0,9.134600639E0
3.613567413E0,3.068794906E-1,3.417548895E0,8.913862228E0
3.633677621E0,3.607180119E-1,3.461217880E0,8.852845192E0
3.653787882E0,4.731806815E-1,3.421736479E0,8.934800148E0
3.673898142E0,5.425725579E-1,3.384049416E0,9.029315948E0
3.694008350E0,5.042873621E-1,3.359523058E0,9.173483849E0
3.714118611E0,3.786641955E-1,3.361915827E0,9.200403214E0
3.734228819E0,3.984049559E-1,3.427718401E0,9.276374817E0
3.754339079E0,4.091726840E-1,3.459423304E0,9.445069313E0
3.774449288E0,1.782652885E-1,3.429512978E0,9.536594391E0
3.794559548E0,2.153540403E-2,3.298506021E0,9.419346809E0
3.814669809E0,-2.452643216E-2,3.261417150E0,9.387641907E0
3.834780017E0,2.991028316E-2,3.329014540E0,9.405587196E0
3.854890277E0,2.177468538E-1,3.362514019E0,9.184251785E0
3.875000486E0,2.793620527E-1,3.378067255E0,9.182456970E0
3.895110746E0,1.298106313E-1,3.310470104E0,9.452845573E0
3.915221007E0,-2.871387079E-2,3.228515863E0,9.677771568E0
3.935331215E0,6.041877344E-2,3.176471949E0,9.720243454E0
3.955441475E0,2.009970993E-1,3.199203968E0,9.620343208E0
3.975551684E0,3.086741269E-1,3.210569859E0,9.439086914E0
3.995661944E0,3.762713671E-1,3.247658491E0,9.306285858E0
4.015772204E0,5.102694035E-1,3.310470104E0,9.216554642E0
4.035882413E0,6.305087805E-1,3.305086374E0,9.194420815E0
4.055992673E0,6.131607890E-1,3.270390272E0,9.380462646E0
4.076102934E0,5.330012441E-1,3.224328518E0,9.558130264E0
4.096213142E0,3.984049559E-1,3.174677372E0,9.468399048E0
4.116323402E0,3.822534084E-1,3.164507866E0,9.300303459E0
4.136433663E0,4.384847581E-1,3.157927752E0,9.394221306E0
4.156543871E0,4.127618968E-1,3.136990547E0,9.504291534E0
4.176654132E0,3.613162339E-1,3.097508907E0,9.425926208E0
4.196764392E0,3.984049559E-1,3.074178934E0,9.306883812E0
4.216874600E0,4.803591371E-1,3.041277647E0,9.375677109E0
4.236984861E0,3.840480447E-1,3.000599623E0,9.594620705E0
4.257095069E0,3.152543902E-1,2.997608662E0,9.674181938E0
4.277205329E0,3.337987661E-1,2.976671457E0,9.499505997E0
4.297315590E0,3.643072546E-1,2.998805046E0,9.343972206E0
4.317425798E0,3.619144261E-1,3.080160856E0,9.304491043E0
4.337536059E0,4.103690982E-1,3.101696253E0,9.324232101E0
4.357646319E0,4.845465720E-1,3.105883837E0,9.393623352E0
4.377756527E0,6.364908218E-1,3.051447153E0,9.445667267E0
4.397866788E0,7.010970116E-1,3.083750248E0,9.572486877E0
4.417977048E0,6.155536175E-1,3.088535786E0,9.705886841E0
4.438087309E0,6.705885530E-1,3.095714331E0,9.883553505E0
4.458197517E0,7.286145091E-1,3.042474031E0,9.935597420E0
4.478307777E0,7.070791125E-1,3.044866800E0,9.647262573E0
4.498418038E0,7.268198729E-1,3.183052301E0,9.277571678E0
4.518528246E0,8.524430394E-1,3.218944550E0,9.041280746E0
4.538638507E0,8.392825127E-1,3.128017426E0,9.007183075E0
4.558748767E0,6.376872063E-1,3.032304525E0,9.321240425E0
4.578858975E0,5.120640397E-1,2.949752092E0,9.585647583E0
4.598969236E0,3.655036688E-1,2.922832966E0,9.600603104E0
4.619079496E0,3.224328458E-1,2.909672260E0,9.529416084E0
4.639189757E0,4.307080805E-1,2.909074068E0,9.488738060E0
4.659299965E0,5.054838061E-1,2.933600664E0,9.431310654E0
4.679410225E0,4.791627228E-1,2.970091105E0,9.363713264E0
4.699520486E0,4.151547253E-1,2.965305567E0,9.338588715E0
4.719630746E0,4.025924206E-1,2.992224693E0,9.440881729E0
4.739740954E0,4.983053207E-1,3.033500910E0,9.507881165E0
4.759851215E0,5.940182209E-1,3.104089260E0,9.421739578E0
4.779961475E0,7.004988194E-1,3.098705292E0,9.320044518E0
4.800071736E0,6.705885530E-1,3.127419233E0,9.312267303E0
4.820181944E0,5.665007830E-1,3.156731367E0,9.312267303E0
4.840292204E0,3.990031779E-1,3.121437073E0,9.556335449E0
4.860402465E0,4.193421602E-1,3.089732170E0,9.807581902E0
4.880512725E0,4.965106845E-1,3.110669374E0,9.950552940E0
4.900622934E0,5.377869010E-1,3.141177893E0,9.799804688E0
4.920733194E0,4.785645306E-1,3.251846075E0,9.368498802E0
4.940843454E0,5.252245665E-1,3.335594654E0,9.082556725E0
4.960953715E0,6.490531564E-1,3.360719442E0,9.109476089E0
4.981063975E0,6.400800347E-1,3.396611691E0,9.196813583E0
5.001174184E0,4.636093974E-1,3.415754318E0,9.160921097E0
5.021284444E0,3.463610709E-1,3.403192043E0,9.158528328E0
5.041394704E0,4.462614357E-1,3.366701365E0,9.312865257E0
5.061504965E0,5.431707501E-1,3.304488182E0,9.454640388E0
5.081615225E0,4.833501875E-1,3.292523861E0,9.461220741E0
5.101725434E0,3.840480447E-1,3.284149170E0,9.296713829E0
5.121835694E0,3.702892959E-1,3.304488182E0,8.925228119E0
5.141945954E0,4.031906128E-1,3.335594654E0,8.752346992E0
5.162056215E0,4.899304509E-1,3.333800077E0,8.871390343E0
5.182166475E0,4.534398913E-1,3.314059258E0,9.116654396E0
5.202276684E0,4.145565331E-1,3.225524902E0,9.302098274E0
5.222386944E0,4.325026870E-1,3.201596737E0,9.388837814E0
5.242497204E0,5.958128572E-1,3.253042459E0,9.230911255E0
5.262607465E0,7.052844763E-1,3.336193085E0,9.022137642E0
5.282717725E0,6.747759581E-1,3.274577856E0,9.125029564E0
5.302827986E0,4.277170599E-1,3.324228764E0,9.177671432E0
5.322938194E0,2.434697002E-1,3.360121250E0,9.035896301E0
5.343048454E0,3.403790295E-1,3.334398270E0,8.949156761E0
5.363158715E0,4.881358147E-1,3.301496983E0,9.272188187E0
5.383268975E0,5.940182209E-1,3.178266764E0,9.709476471E0
5.403379236E0,4.450650215E-1,3.136990547E0,9.708877563E0
5.423489496E0,3.924229145E-1,3.164507866E0,9.277571678E0
5.443599704E0,5.605186820E-1,3.262613773E0,8.880961418E0
5.463709965E0,7.286145091E-1,3.290131092E0,8.730213165E0
5.483820225E0,6.652047038E-1,3.284747362E0,8.728418350E0
5.503930486E0,6.065805554E-1,3.246462107E0,8.654839516E0
5.524040746E0,6.424728632E-1,3.131606579E0,8.612964630E0
5.544151007E0,7.842476368E-1,3.041875839E0,8.553742409E0
5.564261267E0,1.220339537E0,2.796013355E0,8.440681458E0
5.584371527E0,1.193420291E0,2.453839540E0,8.662017822E0
5.604481736E0,9.930213690E-1,2.369492531E0,8.637491226E0
5.624591996E0,1.048056364E0,2.352742910E0,7.777870178E0
5.644702257E0,1.056431174E0,2.539382935E0,6.445067883E0
5.664812517E0,8.368897438E-1,2.864806890E0,5.470590591E0
5.684922777E0,6.179464459E-1,3.154936552E0,5.549553871E0
5.705033038E0,5.485545993E-1,3.461217880E0,6.983452797E0
5.725143298E0,5.521438122E-1,3.630510092E0,8.525627136E0
5.745253559E0,5.521438122E-1,3.457030535E0,9.583852768E0
5.765363767E0,9.379864931E-1,2.945564747E0,1.006899738E1
5.785474027E0,1.097707391E0,2.613560438E0,1.024726295E1
5.805584288E0,4.372883439E-1,2.916252613E0,9.727422714E0
5.825694548E0,-4.701896608E-1,3.356531858E0,8.530412674E0
5.845804809E0,-4.342973232E-1,3.422334671E0,8.205587387E0
5.865915069E0,5.341976285E-1,2.941377163E0,9.531210899E0
5.886025329E0,9.912267923E-1,2.597409010E0,1.097946644E1
5.906135590E0,5.180460811E-1,2.972483873E0,1.067617607E1
5.926245850E0,-2.632105052E-1,3.547359467E0,8.950951576E0
5.946356111E0,-2.285145670E-1,3.823730469E0,8.295317650E0
5.966466371E0,5.240281820E-1,3.557528973E0,1.014197922E1
5.986576632E0,1.200000525E0,3.259622574E0,1.266162109E1
6.006686892E0,5.377869010E-1,3.657429457E0,1.272263813E1
6.026797152E0,-9.278169870E-1,4.182653904E0,1.002293587E1
6.046907361E0,-9.990034699E-1,4.334000111E0,8.383254051E0
6.067017621E0,-1.633101404E-1,4.490729809E0,9.628120422E0
6.087127882E0,2.327020019E-1,4.559523582E0,1.113619614E1
6.107238142E0,2.679961324E-1,4.231108665E0,1.119123173E1
6.127348402E0,5.162515044E-1,3.710071564E0,1.160638618E1
6.147458663E0,7.375875711E-1,3.294318676E0,1.360738373E1
6.167568923E0,3.828516304E-1,2.925225735E0,1.424806213E1
6.187679184E0,-3.242274821E-1,2.882154942E0,1.214357471E1
6.207789444E0,-4.552344978E-1,3.163311481E0,9.660423279E0
6.227899704E0,-3.122633696E-1,3.332603693E0,8.166105270E0
6.248009965E0,-3.714857101E-1,3.306880951E0,7.947162151E0
6.268120225E0,-3.146561682E-1,3.066402197E0,8.612964630E0
6.288230486E0,-3.523431420E-1,2.839084148E0,9.083154678E0
6.308340746E0,-4.313062727E-1,2.675773859E0,8.696713448E0
6.328451007E0,-4.241278172E-1,2.656033039E0,7.849056244E0
6.348561267E0,-1.573280841E-1,2.742773056E0,6.953542709E0
6.368671527E0,1.782652885E-1,2.979662418E0,6.532405853E0
6.388781788E0,5.611169338E-1,3.060420275E0,6.637091637E0
6.408892048E0,6.352944374E-1,2.818146944E0,7.206583500E0
6.429002309E0,3.661018610E-1,2.559721947E0,7.951349735E0
6.449112569E0,2.195414752E-1,2.624328136E0,8.094919205E0
6.469222829E0,2.009970993E-1,2.977269650E0,7.265207767E0
6.489333090E0,1.938186288E-1,3.246462107E0,6.390631199E0
6.509443350E0,4.037888348E-1,3.187838078E0,6.403791428E0
6.529553611E0,6.191428304E-1,2.892922640E0,7.555935860E0
6.549663871E0,9.379864931E-1,2.770888567E0,8.977272034E0
6.569774132E0,-8.614161611E-2,3.126222849E0,9.460622787E0
6.589884392E0,-1.272981644E0,3.224926710E0,9.158528328E0
6.609994652E0,-6.209374666E-1,2.998206854E0,8.743971825E0
6.630104913E0,9.320043921E-1,3.254837036E0,9.188439369E0
6.650215173E0,1.256231904E0,3.792025566E0,9.716654778E0
6.670325434E0,-5.084748194E-2,4.217350006E0,1.013061333E1
6.690435694E0,-2.871387303E-1,4.089931965E0,1.185105228E1
6.710545954E0,3.182454109E-1,3.756133318E0,1.421276855E1
6.730656215E0,5.473581553E-1,3.553341627E0,1.524527168E1
6.750766475E0,6.197410822E-1,3.224328518E0,1.416132259E1
6.770876736E0,4.887340367E-1,3.288934708E0,1.363908863E1
6.790986996E0,2.458625287E-1,3.515654564E0,1.351944828E1
6.811097257E0,-4.187439755E-2,3.854837179E0,1.229671574E1
6.831207517E0,5.641079545E-1,3.964308977E0,1.041476059E1
6.851317777E0,1.447059512E0,3.804588079E0,9.650852203E0
6.871428038E0,1.640878081E0,3.513261795E0,1.045065308E1
6.891538298E0,9.972088337E-1,3.084946632E0,1.090170002E1
6.911648559E0,1.130608693E-1,2.653042078E0,1.001994514E1
6.931758819E0,-3.505485058E-1,2.435893536E0,8.545368195E0
6.951869079E0,-5.449653864E-1,2.398206472E0,7.159923553E0
6.971979340E0,-7.178468108E-1,2.556132793E0,6.145965099E0
6.992089600E0,-1.033699393E0,2.453241348E0,5.922235966E0
7.012199861E0,-1.374078393E0,1.984248161E0,6.640082836E0
7.032310173E0,-1.237687469E0,1.728814363E0,7.185646534E0
7.052420434E0,-5.443671346E-2,1.996810555E0,6.697510719E0
7.072530694E0,1.147358418E0,2.336591244E0,5.664409637E0
7.092640954E0,1.406381488E0,2.473580360E0,4.898108006E0
7.112751215E0,7.022934556E-1,2.528017044E0,5.381458282E0
7.132861475E0,4.319044948E-1,2.249851465E0,7.033702374E0
7.152971736E0,7.274180651E-1,2.032104731E0,9.035896301E0
7.173081996E0,9.661021233E-1,2.331805706E0,1.071326542E1
7.193192257E0,8.464609981E-1,2.857628345E0,1.078684425E1
7.213302517E0,6.729813814E-1,3.332005501E0,9.193822861E0
7.233412777E0,7.507480979E-1,3.807579041E0,8.574081421E0
7.253523038E0,7.417750359E-1,4.160520554E0,9.917651176E0
7.273633298E0,2.350948304E-1,4.539184570E0,1.109850979E1
7.293743559E0,-8.470591903E-1,4.902893543E0,1.082333469E1
7.313853871E0,-1.352542996E0,4.646861553E0,1.084546852E1
7.333964132E0,-1.020538807E0,4.088137627E0,1.245045471E1
7.354074392E0,-8.452646136E-1,4.201796532E0,1.412543011E1
7.374184652E0,-1.806581169E-1,4.671388149E0,1.399741459E1
7.394294913E0,1.028315544E0,5.026721954E0,1.264786243E1
7.414405173E0,1.392622828E0,5.021936417E0,1.180678558E1
7.434515434E0,7.106683254E-1,4.766502857E0,1.183968639E1
7.454625694E0,1.118644550E-1,4.303491592E0,1.161117172E1
7.474735954E0,-1.148554832E-1,3.856033802E0,1.068215847E1
7.494846215E0,-1.070788130E-1,3.507878065E0,9.464810371E0
7.514956527E0,-1.118644550E-1,3.118446112E0,8.623134613E0
7.535066788E0,-3.415754437E-1,2.694916487E0,8.330612183E0
7.555177048E0,-7.890332937E-1,2.385046005E0,8.142775536E0
7.575287309E0,-9.930213690E-1,2.196012974E0,7.718049526E0
7.595397569E0,-5.868397355E-1,2.042872429E0,7.289734364E0
7.615507829E0,-1.369891018E-1,2.009372711E0,6.604190350E0
7.635618090E0,-6.699903309E-2,2.255235434E0,5.676971912E0
7.655728350E0,-1.621137410E-1,2.650051117E0,4.762315273E0
7.675838663E0,-2.327020019E-1,3.099303484E0,4.353142738E0
7.695948923E0,-2.458625287E-1,3.416352510E0,4.594219685E0
7.716059184E0,-1.046859920E-1,3.422932863E0,5.827719688E0
7.736169444E0,1.872383654E-1,3.393620729E0,7.488338470E0
7.756279704E0,3.672982752E-1,3.425325632E0,8.998209953E0
7.776389965E0,4.139583111E-1,3.512663603E0,9.630513191E0
7.796500225E0,2.356930375E-1,3.675973892E0,9.295517921E0
7.816610486E0,4.474578202E-1,3.395415306E0,8.952147484E0
7.836720798E0,8.434699774E-1,3.221935749E0,9.872187614E0
7.856831059E0,7.387840152E-1,3.726222992E0,1.113141060E1
7.876941319E0,-4.313062727E-1,4.902893543E0,1.073061275E1
7.897051579E0,-6.412764788E-1,5.404190063E0,9.659825325E0
7.917161840E0,6.299105883E-1,5.064409256E0,1.068933678E1
7.937272100E0,1.945963025E0,4.505684853E0,1.345364571E1
7.957382413E0,2.241476536E0,3.269193888E0,1.554317760E1
7.977492673E0,1.562513232E0,2.590230465E0,1.650210190E1
7.997602934E0,7.836494446E-1,2.662613392E0,1.484447384E1
8.017713194E0,3.631108403E-1,3.179463148E0,1.126122189E1
8.037823454E0,3.798605800E-1,3.249453068E0,8.068597794E0
8.057933715E0,7.016952634E-1,3.099901676E0,6.898507595E0
8.078043975E0,1.023529887E0,2.998206854E0,8.324629784E0
8.098154288E0,9.595218897E-1,2.627319336E0,9.541978836E0
8.118264548E0,4.271188378E-1,2.333600283E0,8.897710800E0
8.138374809E0,2.195414752E-1,2.419741869E0,7.835896015E0
8.158485069E0,5.515456200E-1,2.301895380E0,7.080960274E0
8.178595329E0,7.537391186E-1,2.175075769E0,6.908677101E0
8.198705642E0,7.878368497E-1,2.087139606E0,7.053442955E0
8.218815902E0,5.108676553E-1,1.902294040E0,7.034300327E0
8.238926163E0,1.974078640E-2,1.780858278E0,6.814160824E0
8.259036423E0,-2.452643216E-1,1.711466432E0,6.284150600E0
8.279146684E0,-2.787638307E-1,1.794616938E0,5.789434433E0
8.299256944E0,-2.817548811E-1,1.963909149E0,6.040680885E0
8.319367257E0,-2.823530734E-1,2.082952023E0,7.294519901E0
8.339477517E0,-8.673982322E-2,2.143969059E0,8.201399803E0
8.359587777E0,1.244267747E-1,2.468196630E0,8.356932640E0
8.379698038E0,3.577269912E-1,2.860021353E0,8.092526436E0
8.399808298E0,5.365904570E-1,2.864806890E0,8.730812073E0
8.419918559E0,8.512466550E-1,3.069991350E0,1.155314636E1
8.440028871E0,1.379462242E0,3.303889751E0,1.487737465E1
8.460139132E0,1.503889084E0,3.475574970E0,1.567119408E1
8.480249392E0,1.579262912E-1,4.283750534E0,1.331306744E1
8.500359652E0,-1.285543919E0,4.923232555E0,1.006720352E1
8.520469965E0,-7.567301393E-1,4.800600529E0,9.829116821E0
8.540580225E0,1.369891018E-1,4.518845558E0,1.228714466E1
8.560690486E0,-2.650051117E-1,4.797011375E0,1.363968754E1
8.580800746E0,-8.153542876E-1,4.651049137E0,1.262273788E1
8.600911007E0,-3.517449200E-1,4.222135544E0,1.099621677E1
8.621021319E0,4.815555513E-1,4.019343853E0,1.078624630E1
8.641131579E0,6.077769399E-1,3.833301783E0,1.098604679E1
8.661241840E0,-9.032905847E-2,3.559921980E0,1.031904793E1
8.681352100E0,-5.641079545E-1,3.316452265E0,9.169296265E0
8.701462361E0,-7.501499057E-1,3.227917671E0,7.997411251E0
8.721572673E0,-4.677968323E-1,3.404388428E0,7.265207767E0
8.741682934E0,2.859423161E-1,3.416352510E0,7.272386074E0
8.761793194E0,7.890332937E-1,3.292523861E0,7.569694519E0
8.781903454E0,5.946164131E-1,3.269792080E0,7.571488857E0
8.802013767E0,8.733802289E-2,2.937788010E0,7.252047062E0
8.822124027E0,-5.754738450E-1,2.545963287E0,7.374081135E0
8.842234288E0,-1.013360381E0,2.373081923E0,7.932805061E0
8.862344548E0,-1.167697430E0,2.356332064E0,7.746763229E0
8.882454809E0,-1.377667665E0,2.400599241E0,6.851847649E0
8.902565121E0,-1.228116274E0,2.352742910E0,6.232704639E0
8.922675382E0,-6.185446382E-1,2.097309113E0,6.709474564E0
8.942785642E0,-1.328016520E-1,1.823929071E0,7.941778183E0
8.962895902E0,-3.834498227E-1,1.904686809E0,8.892327309E0
8.983006215E0,-5.712863803E-1,1.972284079E0,8.778069496E0
9.003116475E0,-1.441675574E-1,2.176272154E0,8.662017822E0
9.023226736E0,4.959124923E-1,2.615953445E0,9.837491989E0
9.043336996E0,4.307080805E-1,3.772883177E0,1.222253799E1
9.063447309E0,3.128615618E-1,5.028516769E0,1.394537067E1
9.083557569E0,1.487139225E0,4.304687977E0,1.373480225E1
9.103667829E0,1.283151150E0,4.603790760E0,1.250907898E1
9.123778090E0,2.769692242E-1,5.426921844E0,1.152263737E1
9.143888402E0,8.446664214E-1,4.878366947E0,1.115832996E1
9.163998663E0,1.590030670E0,4.296911240E0,1.119182968E1
9.184108923E0,1.460219979E0,3.885345697E0,1.120379353E1
9.204219184E0,1.085743308E0,3.608376503E0,1.154058361E1
9.224329496E0,7.459624410E-1,3.781257868E0,1.159262753E1
9.244439757E0,1.944168359E-1,3.849453449E0,1.075513935E1
9.264550017E0,-1.543370634E-1,3.643670797E0,9.742975235E0
9.284660277E0,-7.776673883E-2,3.429512978E0,8.781061172E0
9.304770590E0,-2.213360928E-2,3.170490026E0,7.950751305E0
9.324880850E0,-1.848455518E-1,2.965305567E0,7.537391186E0
9.344991111E0,-4.815555513E-1,2.964707375E0,7.592426300E0
9.365101371E0,-6.239284873E-1,2.818146944E0,7.536793232E0
9.385211684E0,-3.343969584E-1,2.466402054E0,7.045068264E0
9.405321944E0,2.560320199E-1,2.203191519E0,6.498308182E0
9.425432204E0,6.311069727E-1,2.275574446E0,6.723831654E0
9.445542517E0,4.576273263E-1,2.279163599E0,7.524230957E0
9.465652777E0,-3.828516230E-2,2.099701881E0,7.634300709E0
9.485763038E0,-6.975077987E-1,2.132603168E0,7.007380962E0
9.505873298E0,-9.302098155E-1,2.254637241E0,6.520441532E0
9.525983611E0,-2.985046208E-1,2.379662037E0,6.772884369E0
9.546093871E0,7.280163169E-1,2.573480844E0,8.022536278E0
9.566204132E0,1.280758262E0,2.689532757E0,9.158528328E0
9.586314444E0,9.762716293E-1,2.696112871E0,1.002712345E1
9.606424704E0,5.952146053E-1,2.627319336E0,1.072463131E1
9.626534965E0,4.205385745E-1,3.064009428E0,1.107099247E1
9.646645225E0,-3.098705411E-1,4.425525665E0,9.693922997E0
9.666755538E0,-5.006981492E-1,4.935196877E0,8.446663857E0
9.686865798E0,5.473581553E-1,4.250849247E0,9.974481583E0
9.706976059E0,8.356932998E-1,4.316053867E0,1.226261806E1
9.727086371E0,2.614158690E-1,4.305884361E0,1.323709488E1
9.747196632E0,9.571290761E-2,3.753142357E0,1.309711456E1
9.767306892E0,1.369891018E-1,3.594617844E0,1.304387474E1
9.787417152E0,2.207378894E-1,3.556332588E0,1.247019482E1
9.807527465E0,2.991028316E-2,3.567100286E0,1.143888855E1
9.827637725E0,-1.692921966E-1,3.600599766E0,1.071326542E1
9.847747986E0,-1.740778536E-1,3.460021496E0,1.030648518E1
9.867858298E0,-1.998006850E-1,3.348755360E0,1.014736271E1
9.887968559E0,-1.040877849E-1,3.195016384E0,9.809376717E0
9.908078819E0,-5.144568533E-2,2.993421078E0,9.363713264E0
9.928189132E0,-6.520441920E-2,2.785245657E0,8.898907661E0
9.948299392E0,-1.501496136E-1,2.656631231E0,8.273782730E0
9.968409652E0,-1.950150430E-1,2.609971285E0,7.692326546E0
9.988519913E0,-3.074777126E-1,2.520838737E0,7.197610378E0
1.000863023E1,-5.174478889E-1,2.312663078E0,6.522236347E0
1.002874049E1,-4.295116663E-1,2.351546526E0,6.039484501E0
1.004885075E1,-5.497509837E-1,2.505883455E0,5.912066460E0
1.006896106E1,-6.323033571E-1,2.854039192E0,7.038487911E0
1.008907132E1,-1.088734269E-1,2.911466837E0,8.452646255E0
1.010918158E1,-2.333002165E-2,2.828914642E0,9.162117958E0
1.012929189E1,-1.890329868E-1,2.833700180E0,8.651848793E0
1.014940215E1,-3.804588020E-1,2.999403238E0,7.932207108E0
1.016951241E1,-2.997010350E-1,3.162713289E0,8.087740898E0
1.018962267E1,-8.255238086E-2,3.279961586E0,8.881559372E0
1.020973299E1,-1.794617064E-2,3.200400352E0,9.768099785E0
1.022984325E1,1.668993831E-1,3.002394199E0,1.079761219E1
1.024995351E1,6.376872063E-1,2.730808735E0,1.182233810E1
1.027006382E1,-3.032902777E-1,3.990629911E0,1.124865913E1
1.029017408E1,-6.993024349E-1,4.289732933E0,9.158528328E0
1.031028434E1,1.534397483E0,3.065205812E0,8.971290588E0
1.033039465E1,2.110469580E0,3.164507866E0,1.157348537E1
1.035050491E1,5.036891699E-1,3.488137245E0,1.340160179E1
1.037061517E1,-2.476571500E-1,2.981456995E0,1.230688477E1
1.039072549E1,5.976074338E-1,3.176471949E0,1.040758228E1
1.041083575E1,1.409970760E0,3.900899172E0,9.842875481E0
1.043094601E1,1.299900889E0,3.665804386E0,1.023170948E1
1.045105632E1,7.525427341E-1,3.501895905E0,1.112183952E1
1.047116658E1,5.443671346E-1,3.270390272E0,1.193480110E1
1.049127684E1,6.143572330E-1,2.717648268E0,1.255334568E1
1.051138715E1,7.633104324E-1,2.519043922E0,1.225484085E1
1.053149741E1,7.860422134E-1,2.584248543E0,1.066720295E1
1.055160767E1,7.543373108E-1,2.524427891E0,8.516654015E0
1.057171799E1,5.515456200E-1,2.487937450E0,6.658627033E0
1.059182825E1,4.097708762E-1,2.519642353E0,5.871388435E0
1.061193851E1,4.671986103E-1,2.520838737E0,6.002993584E0
1.063204882E1,5.108676553E-1,2.543570518E0,6.511468410E0
1.065215908E1,6.520441771E-1,2.335394859E0,6.364908218E0
1.067226934E1,8.566305041E-1,2.042872429E0,5.412564754E0
1.069237965E1,6.813562512E-1,1.996212244E0,5.067399979E0
1.071248991E1,2.063809484E-1,2.129612207E0,6.263811588E0
1.073260017E1,-5.144568533E-2,1.703689694E0,7.881359577E0
1.075271049E1,6.879365444E-2,1.213161111E0,9.336793900E0
1.077282075E1,4.534398913E-1,1.423131227E0,9.902696609E0
1.079293106E1,1.884347796E-1,2.219342947E0,8.837890625E0
1.081304132E1,-8.793623000E-2,2.933600664E0,8.383254051E0
1.083315158E1,5.419743061E-1,3.232703447E0,1.062592697E1
1.085326184E1,6.161518097E-1,3.716053486E0,1.348235893E1
1.087337215E1,-2.919243574E-1,4.109673023E0,1.356251907E1
1.089348241E1,-1.166501045E-1,3.479164124E0,1.186301613E1
1.091359272E1,4.199403822E-1,3.768097401E0,1.201675510E1
1.093370299E1,4.019941986E-1,4.315455437E0,1.332562923E1
1.095381325E1,2.506481707E-1,3.902693748E0,1.344945812E1
1.097392356E1,-1.328016520E-1,3.703491211E0,1.274417305E1
1.099403382E1,-1.704886109E-1,3.802793503E0,1.211127186E1
1.101414408E1,-2.751746029E-2,3.702294827E0,1.154058361E1
1.103425439E1,-5.144568533E-2,3.431307554E0,1.094477081E1
1.105436465E1,-2.877369225E-1,3.168097258E0,1.050568771E1
1.107447491E1,-2.913261652E-1,2.953939438E0,1.038006496E1
1.109458523E1,-1.794616925E-3,2.696711063E0,9.958928108E0
1.111469549E1,3.655036688E-1,2.667997360E0,9.250652313E0
1.113480575E1,5.880361795E-1,2.657827854E0,8.254041672E0
1.115491606E1,4.606183469E-1,2.539981127E0,7.277172089E0
1.117502632E1,1.363908947E-1,2.407777786E0,6.702894211E0
1.119513663E1,-4.965107143E-2,2.309073925E0,6.609574318E0
1.121524689E1,-1.680957973E-1,2.211566210E0,6.500102520E0
1.123535715E1,-4.037888348E-1,2.310270309E0,6.353542328E0
1.125546746E1,-4.707878530E-1,2.516651154E0,6.050850391E0
1.127557773E1,-5.682953596E-1,2.745165825E0,5.848058701E0
1.129568799E1,-7.758727670E-1,2.815155745E0,6.493522644E0
1.131579830E1,-4.875376225E-1,2.672184706E0,7.571488857E0
1.133590856E1,8.793623000E-2,2.685345173E0,8.703293800E0
1.135601882E1,3.942175210E-1,2.682354212E0,9.652048111E0
1.137612913E1,8.434699476E-2,2.592025042E0,9.644271851E0
1.139623939E1,-4.079762697E-1,2.809772015E0,8.874381065E0
1.141634970E1,-3.505485058E-1,2.977867842E0,8.493922234E0
1.143645997E1,1.531406492E-1,2.898904562E0,8.982057571E0
1.145657022E1,6.059823632E-1,2.805584431E0,1.022393322E1
1.147668054E1,6.747759581E-1,3.468994617E0,1.173320580E1
1.149679080E1,5.754738450E-1,3.984049797E0,1.237268734E1
1.151690106E1,1.085743308E0,3.123231649E0,1.180319595E1
1.153701137E1,1.212562919E0,3.156133175E0,1.178644657E1
1.155712163E1,6.939185858E-1,3.611367464E0,1.201496029E1
1.157723194E1,7.758727670E-1,3.287140131E0,1.140120125E1
1.159734220E1,1.159920812E0,3.157927752E0,1.091007519E1
1.161745247E1,1.299302697E0,2.986242771E0,1.156511021E1
1.163756278E1,6.592226624E-1,2.729014158E0,1.259163094E1
1.165767304E1,-2.524427772E-1,2.772084951E0,1.278784275E1
1.167778335E1,-5.958128572E-1,2.916252613E0,1.199462128E1
1.169789361E1,-1.399801224E-1,2.685345173E0,1.135274696E1
1.171800387E1,5.126622319E-1,2.383849621E0,1.131625652E1
1.173811418E1,6.113662124E-1,2.407179594E0,1.122532940E1
1.175822444E1,3.912265003E-1,2.441277266E0,1.019282627E1
1.177833470E1,1.028913707E-1,2.420938253E0,8.636893272E0
1.179844502E1,-2.751746029E-2,2.425125837E0,7.125825882E0
1.181855528E1,-1.010967568E-1,2.513660192E0,5.979065418E0
1.183866559E1,-3.828516230E-2,2.523231506E0,5.673980713E0
1.185877585E1,-1.411765367E-1,2.410170555E0,6.326622963E0
1.187888611E1,-2.476571500E-1,2.233101845E0,7.698906898E0
1.189899642E1,-3.349951655E-2,2.003390789E0,8.671588898E0
1.191910668E1,-7.776673418E-3,1.971685886E0,8.420342445E0
1.193921694E1,-2.153540403E-2,1.983051777E0,7.198208809E0
1.195932726E1,-1.010967568E-1,2.231307030E0,6.259624004E0
1.197943752E1,-1.674975827E-2,2.345564365E0,6.275177479E0
1.199954783E1,2.177468538E-1,2.261217356E0,7.231708050E0
1.201965809E1,2.602194548E-1,2.395813704E0,8.720044136E0
1.203976840E1,3.014956415E-1,2.414358139E0,9.809974670E0
1.205987866E1,3.924229145E-1,2.230708838E0,1.015454102E1
1.207998892E1,-6.759724021E-2,2.496312141E0,9.963115692E0
1.210009924E1,-5.688936114E-1,2.514856577E0,9.684351921E0
1.212020950E1,-9.361918569E-1,2.805584431E0,9.848259926E0
1.214031976E1,-2.517249346E0,4.904089928E0,8.783453941E0
1.216043007E1,-2.908475876E0,4.786243439E0,9.354142189E0
1.218054033E1,7.657032609E-1,2.179861546E0,1.479422379E1
1.220065064E1,2.529811859E0,1.989033818E0,2.034258080E1
1.222076090E1,3.708875179E-1,2.846860647E0,1.912942123E1
1.224087122E1,-1.779063582E0,3.431307554E0,1.291107273E1
1.226098148E1,-1.610967875E0,4.475176334E0,8.094919205E0
1.228109174E1,-1.710868180E-1,4.893920422E0,6.890730858E0
1.230120205E1,6.185446382E-1,4.437489510E0,8.980861664E0
1.232131231E1,-1.854437590E-1,3.659224033E0,1.141496086E1
1.234142257E1,-1.338186026E0,3.203391314E0,1.289731407E1
1.236153288E1,-1.450648785E0,2.921636343E0,1.295773315E1
1.238164314E1,-9.643075466E-1,2.849851847E0,1.161416245E1
1.240175345E1,-5.898307562E-1,2.818745136E0,1.005523872E1
1.242186372E1,-6.717849374E-1,2.667398930E0,8.785846710E0
1.244197403E1,-1.170688510E0,2.571087837E0,8.022536278E0
1.246208429E1,-1.517049551E0,2.493919373E0,7.768298626E0
1.248219455E1,-1.540977836E0,2.504687071E0,7.895716667E0
1.250230486E1,-1.193420291E0,2.448455811E0,8.132605553E0
1.252241512E1,-8.009973764E-1,2.310270309E0,8.367700577E0
1.254252538E1,-7.232306600E-1,2.344367981E0,8.848059654E0
1.256263569E1,-7.363911867E-1,2.414358139E0,9.150752068E0
1.258274595E1,-7.824530005E-1,2.517249346E0,9.095717430E0
1.260285627E1,-6.005984545E-1,2.557329178E0,8.719446182E0
1.262296653E1,-5.108676553E-1,2.634497643E0,8.516056061E0
1.264307679E1,-5.294120312E-1,2.735594511E0,8.782855988E0
1.266318710E1,-5.850451589E-1,2.863012314E0,9.257232666E0
1.268329736E1,-5.892325640E-1,2.871387243E0,9.411569595E0
1.270340767E1,-4.564309120E-1,2.739781857E0,9.638289452E0
1.272351793E1,-3.810569942E-1,2.631506681E0,1.001635551E1
1.274362819E1,-6.125625968E-1,2.640479803E0,1.020359421E1
1.276373851E1,-8.105686903E-1,2.625524759E0,9.926624298E0
1.278384877E1,-7.501499057E-1,2.645265341E0,9.674181938E0
1.280395908E1,-6.705885530E-1,2.664407969E0,9.759127617E0
1.282406934E1,-6.574280262E-1,2.714657307E0,1.007139015E1
1.284417965E1,-5.437689424E-1,2.778665304E0,1.007019424E1
1.286428991E1,-4.265206456E-1,3.002992392E0,9.797411919E0
1.288440017E1,-1.806581169E-1,3.156731367E0,9.261420250E0
1.290451049E1,-4.905286431E-2,3.226123095E0,9.127422333E0
1.292462075E1,-4.606183618E-2,3.093919754E0,9.382257462E0
1.294473106E1,-3.678964674E-1,3.069991350E0,9.650253296E0
1.296484132E1,-6.245267391E-1,3.059821844E0,9.489336014E0
1.298495158E1,-4.558327198E-1,2.944368362E0,9.343972206E0
1.300506189E1,-2.745763958E-1,2.962912560E0,9.499505997E0
1.302517215E1,-3.900300860E-1,2.874976397E0,9.573084831E0
1.304528247E1,-5.922235847E-1,2.793022156E0,9.619745255E0
1.306539272E1,-5.252245665E-1,2.787040234E0,9.690931320E0
1.308550304E1,-4.671986103E-1,2.861815929E0,9.615557671E0
1.310561330E1,-4.211367965E-1,2.913859844E0,9.503693581E0
1.312572356E1,-2.949153781E-1,2.922234535E0,9.372686386E0
1.314583387E1,-2.207378894E-1,2.992224693E0,9.198010445E0
1.316594413E1,-6.400800496E-2,3.004188776E0,9.069396019E0
1.318605444E1,-1.040877849E-1,3.029313564E0,9.255437851E0
1.320616470E1,-2.793620527E-1,3.148954630E0,9.180064201E0
1.322627496E1,-3.714857101E-1,3.239881754E0,8.804390907E0
1.324638528E1,-2.099701911E-1,3.201596737E0,8.612964630E0
1.326649554E1,-9.032905847E-2,3.182454109E0,8.915059090E0
1.328660585E1,-2.111666054E-1,3.090928555E0,9.426525116E0
1.330671611E1,-4.767699242E-1,2.955734253E0,9.769894600E0
1.332682637E1,-6.275177598E-1,2.822932482E0,9.839286804E0
1.334693668E1,-5.647061467E-1,2.858824968E0,9.887741089E0
1.336704694E1,-4.492524564E-1,2.903690338E0,9.848259926E0
1.338715726E1,-4.139583111E-1,2.831307411E0,9.789635658E0
1.340726752E1,-5.096712112E-1,2.916850805E0,9.686145782E0
1.342737783E1,-4.857429862E-1,3.025724173E0,9.382257462E0
1.344748809E1,-3.846462369E-1,3.056830883E0,9.211171150E0
1.346759835E1,-2.273181528E-1,3.061018467E0,9.321838379E0
1.348770866E1,-9.930214286E-2,3.050848961E0,9.396016121E0
1.350781892E1,-8.733802289E-2,3.086143017E0,9.294919968E0
1.352792918E1,-1.519442350E-1,3.137588739E0,9.224330902E0
1.354803950E1,-1.740778536E-1,3.154936552E0,9.195018768E0
1.356814976E1,-1.010967568E-1,3.081955671E0,9.241679192E0
1.358826007E1,-1.106680483E-1,3.013760090E0,9.348757744E0
1.360837033E1,-1.728814393E-1,3.072982550E0,9.599406242E0
1.362848064E1,-8.554340899E-2,3.059223652E0,9.605388641E0
1.364859090E1,-8.793623000E-2,3.061018467E0,9.414560318E0
1.366870116E1,-3.469592705E-2,3.037688255E0,9.288937569E0
1.368881148E1,-7.357929647E-2,3.092723370E0,9.297910690E0
1.370892174E1,-2.027917206E-1,3.162115097E0,9.305686951E0
1.372903205E1,-2.703889608E-1,3.186641455E0,9.372088432E0
1.374914231E1,-2.333002090E-1,3.200998545E0,9.367900848E0
1.376925262E1,-8.015955985E-2,3.215355396E0,9.242277145E0
1.378936288E1,1.950150430E-1,3.196212769E0,9.378668785E0
1.380947314E1,2.261217386E-1,3.245265722E0,9.545567513E0
1.382958345E1,6.281159073E-2,3.290131092E0,9.448060036E0
1.384969372E1,3.170489892E-2,3.335594654E0,9.388837814E0
1.386980403E1,8.793623000E-2,3.299104214E0,9.376275063E0
1.388991429E1,1.004985496E-1,3.233301640E0,9.478569031E0
1.391002455E1,1.214357466E-1,3.198007345E0,9.493523598E0
1.393013486E1,8.374879509E-2,3.205185890E0,9.377471924E0
1.395024512E1,1.076770201E-2,3.296113253E0,9.153742790E0
1.397035543E1,4.307080805E-2,3.299702406E0,8.897112846E0
1.399046569E1,9.990034252E-2,3.199203968E0,9.105886459E0
1.401057595E1,4.725824669E-2,3.003590584E0,9.732806206E0
1.403068627E1,-1.752742529E-1,2.921038151E0,1.000259686E1
1.405079653E1,-2.697907388E-1,3.026920557E0,9.609575272E0
1.407090684E1,-2.027917206E-1,3.193221807E0,8.964112282E0
1.409101710E1,-1.477568001E-1,3.264408350E0,8.723632812E0
1.411112741E1,-1.441675574E-1,3.229712248E0,9.133403778E0
1.413123767E1,-7.238288224E-2,3.160918713E0,9.677172661E0
1.415134793E1,-6.580262445E-3,3.129812002E0,9.857233047E0
1.417145825E1,4.845465720E-2,3.098705292E0,9.801599503E0
1.419156851E1,2.811566554E-2,3.116651535E0,9.799206734E0
1.421167882E1,4.785645381E-2,3.133401155E0,9.622138023E0
1.423178908E1,2.632104978E-2,3.228515863E0,9.388239861E0
1.425189934E1,1.214357466E-1,3.248854876E0,9.224330902E0
1.427200965E1,6.161518395E-2,3.247060299E0,9.223134995E0
1.429211991E1,-1.351944804E-1,3.270390272E0,9.364909172E0
1.431223022E1,-9.930214286E-2,3.259024382E0,9.287142754E0
1.433234049E1,-2.333002165E-2,3.269792080E0,9.262616158E0
1.435245075E1,7.178467698E-3,3.235694408E0,9.437292099E0
1.437256106E1,4.905286431E-2,3.182454109E0,9.700503349E0
1.439267132E1,5.982056633E-2,3.124428272E0,9.794421196E0
1.441278163E1,5.982056633E-2,3.115455151E0,9.792028427E0
1.443289189E1,5.084748194E-2,3.159124136E0,9.713663101E0
1.445300220E1,6.520441920E-2,3.133401155E0,9.486345291E0
1.447311247E1,-3.589233849E-3,3.158525944E0,9.383454323E0
1.449322272E1,1.196411322E-3,3.217149973E0,9.257830620E0
1.451333304E1,-8.973085321E-3,3.272184849E0,9.006584167E0
1.453344330E1,-3.469592705E-2,3.266801119E0,8.912666321E0
1.455355361E1,-6.460621208E-2,3.255435228E0,9.067601204E0
1.457366387E1,-6.161518395E-2,3.224926710E0,9.262616158E0
1.459377413E1,-5.324030295E-2,3.223132133E0,9.324232101E0
1.461388444E1,-2.273181453E-2,3.244667530E0,9.332008362E0
1.463399470E1,-4.785645287E-3,3.228515863E0,9.260223389E0
1.465410502E1,-3.290131316E-2,3.205185890E0,9.357132912E0
1.467421528E1,-3.529413417E-2,3.223730326E0,9.501898766E0
1.469432554E1,-5.682953820E-2,3.226721287E0,9.444471359E0
1.471443585E1,-1.004985496E-1,3.183052301E0,9.410373688E0
1.473454611E1,-1.040877849E-1,3.162713289E0,9.518648148E0
1.475465642E1,-7.657032460E-2,3.166302681E0,9.548559189E0
1.477476668E1,5.204389244E-2,3.131008387E0,9.451051712E0
1.479487700E1,5.862415582E-2,3.148954630E0,9.419346809E0
1.481498726E1,-1.663011760E-1,3.266801119E0,9.182456970E0
1.483509752E1,-2.015953064E-1,3.275176048E0,8.922237396E0
1.485520783E1,-2.991028363E-3,3.172882795E0,9.105288506E0
1.487531809E1,1.118644550E-1,3.101098061E0,9.658030510E0
1.489542840E1,6.699903309E-2,3.038884640E0,1.000558758E1
1.491553866E1,6.580262445E-3,3.056232691E0,9.902696609E0
1.493564892E1,-2.751746029E-2,3.137588739E0,9.623334885E0
1.495575924E1,-4.187439568E-3,3.180659533E0,9.437891006E0
1.497586950E1,5.383851007E-2,3.179463148E0,9.376873970E0
1.499597981E1,1.148554832E-1,3.172882795E0,9.445667267E0
1.501609007E1,7.417750359E-2,3.193221807E0,9.527621269E0
1.503620033E1,5.084748194E-2,3.165106058E0,9.402596474E0
1.505631064E1,5.563312769E-2,3.167499065E0,9.343374252E0
1.507642090E1,8.793623000E-2,3.096312523E0,9.392427444E0
1.509653122E1,1.974078640E-2,3.095116138E0,9.452845573E0
1.511664148E1,-8.135596663E-2,3.097508907E0,9.513862610E0
1.513675179E1,-1.142572835E-1,3.091526747E0,9.521040916E0
1.515686205E1,-6.520441920E-2,3.113660574E0,9.463613510E0
1.517697231E1,2.751746029E-2,3.102892876E0,9.412167549E0
1.519708262E1,-4.187439568E-3,3.082553864E0,9.427721024E0
1.521719288E1,-2.931207791E-2,3.055036306E0,9.406186104E0
1.523730319E1,7.776673418E-3,3.087339401E0,9.472586632E0
1.525741345E1,1.064806059E-1,3.081955671E0,9.484550476E0
1.527752372E1,2.153540403E-2,3.111267567E0,9.396614075E0
1.529763403E1,4.785645287E-3,3.118446112E0,9.238089561E0
1.531774429E1,1.004985496E-1,3.076571703E0,9.264410973E0
1.533785460E1,-9.571290575E-3,3.150749207E0,9.376275063E0
1.535796486E1,-4.845465720E-2,3.203989506E0,9.334999084E0
1.537807512E1,1.298106313E-1,3.178864956E0,9.268598557E0
1.539818543E1,1.190429255E-1,3.214159012E0,9.537193298E0
1.541829569E1,4.666004330E-2,3.210569859E0,9.672985077E0
1.543840601E1,5.802594870E-2,3.157927752E0,9.513264656E0
1.545851627E1,5.563312769E-2,3.186641455E0,9.408578873E0
1.547862653E1,6.759724021E-2,3.177668571E0,9.486345291E0
1.549873684E1,5.682953820E-2,3.189632654E0,9.554540634E0
1.551884710E1,7.657032460E-2,3.215953588E0,9.400801659E0
1.553895741E1,1.292124242E-1,3.300300598E0,9.120243073E0
1.555906767E1,2.386840582E-1,3.275774240E0,9.125627518E0
1.557917793E1,1.812563092E-1,3.194418192E0,9.504291534E0
1.559928825E1,1.196411345E-2,3.112463951E0,9.698708534E0
1.561939851E1,-5.742774159E-2,3.121437073E0,9.576674461E0
1.563950882E1,7.597211748E-2,3.185445070E0,9.317651749E0
1.565961908E1,1.914258152E-1,3.229114056E0,9.138788223E0
1.567972934E1,1.878365725E-1,3.229114056E0,9.280562401E0
1.569983965E1,1.190429255E-1,3.197409153E0,9.555737495E0
1.571994991E1,3.529413417E-2,3.163909674E0,9.665208817E0
1.574006022E1,8.614161611E-2,3.159124136E0,9.508479118E0
1.576017049E1,1.782652885E-1,3.177668571E0,9.388837814E0
1.578028075E1,1.992024779E-1,3.167499065E0,9.519247055E0
1.580039106E1,1.148554832E-1,3.200400352E0,9.774680138E0
1.582050132E1,1.357926875E-1,3.260818958E0,9.764511108E0
1.584061163E1,3.014956415E-1,3.349951744E0,9.455238342E0
1.586072189E1,4.079762697E-1,3.449253798E0,9.100502968E0
1.588083215E1,3.828516304E-1,3.554538012E0,8.976674080E0
1.590094247E1,3.900300860E-1,3.479762316E0,9.151350021E0
1.592105273E1,2.632105052E-1,3.324228764E0,9.543772697E0
1.594116304E1,4.606183618E-2,3.195614576E0,9.802796364E0
1.596127330E1,-1.220339537E-1,3.124428272E0,9.805189133E0
1.598138356E1,-1.555334777E-1,3.099303484E0,9.603593826E0
1.600149387E1,-1.010967568E-1,3.098107100E0,9.428917885E0
1.602160413E1,3.110669367E-2,3.133401155E0,9.354142189E0
1.604171439E1,8.015955985E-2,3.157927752E0,9.305686951E0
1.606182470E1,2.512463741E-2,3.214757204E0,9.242876053E0
1.608193497E1,3.230310604E-2,3.314657450E0,9.134600639E0
1.610204528E1,1.477568001E-1,3.371487141E0,9.078369141E0
1.612215554E1,1.842473447E-1,3.390031576E0,9.224929810E0
1.614226580E1,2.141576260E-1,3.372085333E0,9.300901413E0
1.616237611E1,1.974078715E-1,3.424727440E0,9.209974289E0
1.618248637E1,2.177468538E-1,3.448655605E0,9.086744308E0
1.620259668E1,2.476571500E-1,3.466003656E0,9.069396019E0
1.622270694E1,2.165504545E-1,3.451646566E0,9.151350021E0
1.624281720E1,1.501496136E-1,3.418745279E0,9.396016121E0
1.626292752E1,2.003988922E-1,3.372085333E0,9.527621269E0
1.628303778E1,2.530409992E-1,3.339782238E0,9.459425926E0
1.630314804E1,1.800599098E-1,3.380460262E0,9.394820213E0
1.632325835E1,7.477571070E-2,3.336193085E0,9.363713264E0
1.634336861E1,8.315058798E-2,3.373879910E0,9.306285858E0
1.636347887E1,1.830509305E-1,3.400201082E0,9.233902931E0
1.638358918E1,2.973082066E-1,3.365504980E0,9.235696793E0
1.640369944E1,1.866401732E-1,3.391826153E0,9.231510162E0
1.642380976E1,3.050848842E-2,3.446262836E0,9.181859016E0
1.644392002E1,1.447657645E-1,3.388834953E0,9.306285858E0
1.646403028E1,2.685943544E-1,3.330809116E0,9.125029564E0
1.648414059E1,5.784648657E-1,3.494119167E0,7.430910587E0
1.650425085E1,-1.004985496E-1,3.301496983E0,1.057388306E1
1.652436116E1,-6.999006122E-2,2.947359324E0,1.135394382E1
