"Time (s)","Gyroscope x (rad/s)","Gyroscope y (rad/s)","Gyroscope z (rad/s)"
3.646230900E-2,-9.368869662E-2,-8.498412371E-2,1.681357026E-1
5.657251700E-2,-1.717244387E-1,1.091889478E-2,1.317902952E-1
7.668272500E-2,-1.469851285E-1,1.504211407E-2,6.757497787E-2
9.679293400E-2,-6.528430432E-2,-2.519744914E-3,5.581616983E-2
1.169030900E-1,3.840702027E-2,-7.811209559E-2,6.986565888E-2
1.370132980E-1,9.063446522E-2,-1.147629321E-1,6.971294433E-2
1.571235070E-1,4.894413799E-2,-8.177717775E-2,6.513158977E-2
1.772337150E-1,-5.612159148E-2,-8.170082234E-3,5.627430230E-2
1.973439230E-1,-1.379751265E-1,2.893888950E-2,5.016583204E-2
2.174541320E-1,-1.656159610E-1,8.628217503E-3,5.154023692E-2
2.375643400E-1,-1.359898746E-1,-2.267770469E-2,4.756972939E-2
2.576745480E-1,-6.345175952E-2,-4.054498672E-2,5.520532280E-2
2.777847570E-1,-2.061609412E-3,-6.207735091E-2,6.788039953E-2
2.978949650E-1,-1.687465608E-2,-4.497363046E-2,8.773294091E-2
3.180051730E-1,-4.604261369E-2,-1.290414855E-2,1.062110662E-1
3.381153290E-1,-6.085565686E-2,1.580567285E-2,1.045312360E-1
3.582255380E-1,-7.154548168E-2,4.421006888E-2,9.155073017E-2
3.783357460E-1,-7.414158434E-2,1.015533600E-2,8.315158635E-2
3.984459540E-1,-7.887565345E-2,-5.428905040E-2,7.963921130E-2
4.185561630E-1,-8.880192041E-2,-8.437328041E-2,7.521057129E-2
4.386663710E-1,-2.954973653E-2,-9.979717433E-2,7.597412914E-2
4.587765790E-1,1.199551299E-1,-1.155264899E-1,6.620056927E-2
4.788867880E-1,2.082225531E-1,-1.906607002E-1,5.780142173E-2
4.989969960E-1,1.700446010E-1,-2.609081268E-1,6.788039953E-2
5.191072040E-1,7.398887724E-2,-2.686964273E-1,6.284090877E-2
5.392174130E-1,-3.894151188E-3,-2.334200144E-1,2.252499200E-2
5.593276210E-1,-2.527380548E-2,-1.682120711E-1,-1.473669056E-2
5.794378290E-1,-2.672456671E-3,-1.596602052E-1,-4.161396995E-2
5.995480380E-1,3.168770298E-2,-2.089861184E-1,-6.024480984E-2
6.196582460E-1,2.863346599E-2,-2.332672924E-1,-8.025006205E-2
6.397684540E-1,-4.176668078E-2,-2.112767994E-1,-1.074327603E-1
6.598786110E-1,-1.763057858E-1,-1.556897014E-1,-1.269798726E-1
6.799888190E-1,-3.410818279E-1,-7.215633243E-2,-1.459161341E-1
7.000990270E-1,-4.441623092E-1,-2.214321401E-3,-1.559951156E-1
7.202092360E-1,-4.298073947E-1,1.244601328E-2,-1.410293579E-1
7.403194440E-1,-3.505499661E-1,-4.695888236E-2,-1.075854748E-1
7.604296520E-1,-2.329618782E-1,-8.498412371E-2,-7.429429889E-2
7.805398610E-1,-9.521581978E-2,-1.824906096E-2,-5.428905040E-2
8.006500690E-1,6.574243307E-2,1.833305359E-1,-2.359397523E-2
8.207602770E-1,2.451788187E-1,4.044572413E-1,2.771719359E-2
8.408704860E-1,2.526617050E-1,3.536041975E-1,9.078717232E-2
8.609806940E-1,6.436803192E-2,1.947839260E-1,1.433963925E-1
8.810909020E-1,-1.347681731E-1,1.569113880E-1,1.299577504E-1
9.012011110E-1,-2.328091562E-1,2.425827235E-1,6.558972597E-2
9.213113190E-1,-3.111503124E-1,2.839676142E-1,7.101099472E-3
9.414215270E-1,-4.302655458E-1,2.858001590E-1,-2.825168660E-3
9.615317360E-1,-4.809658527E-1,3.000023663E-1,5.215108395E-2
9.816419440E-1,-3.676536977E-1,2.891598344E-1,1.418692768E-1
1.001752152E0,-1.504974961E-1,1.630198658E-1,2.339545041E-1
1.021862361E0,3.092414327E-2,1.015533600E-2,3.217637837E-1
1.041972621E0,8.803836256E-2,-8.315158635E-2,3.715478480E-1
1.062082829E0,6.497887522E-2,-7.108735293E-2,3.915531039E-1
1.082193038E0,6.665870547E-2,-5.978667364E-2,3.692571819E-1
1.102303246E0,1.373642832E-1,-7.719582319E-2,3.431434333E-1
1.122413454E0,2.276169658E-1,-1.065164879E-1,3.049654961E-1
1.142523663E0,2.697654068E-1,-7.933378965E-2,2.434226274E-1
1.162633871E0,2.042520493E-1,-4.199574701E-3,1.927223057E-1
1.182744079E0,7.124006003E-2,1.107924208E-1,1.455343664E-1
1.202854288E0,-7.093463838E-2,2.002815455E-1,8.498412371E-2
1.222964496E0,-1.778329015E-1,1.807344258E-1,3.504735976E-2
1.243074704E0,-2.056264579E-1,8.971819282E-2,-2.695363574E-2
1.263184913E0,-1.411820799E-1,2.405211143E-2,-8.712209016E-2
1.283295121E0,-4.253023863E-2,7.253811229E-3,-9.781191498E-2
1.303405329E0,5.726693198E-3,-2.069245093E-2,-8.574768156E-2
1.323515538E0,-2.061609412E-3,-3.550549597E-2,-8.101361990E-2
1.343625746E0,-2.405211143E-2,-3.657447919E-2,-1.072800532E-1
1.363736007E0,-8.116632700E-2,-2.008160390E-2,-1.686701924E-1
1.383846215E0,-1.578276604E-1,4.207210615E-2,-2.097496837E-1
1.403956423E0,-2.062373012E-1,9.124530852E-2,-2.158581465E-1
1.424066632E0,-2.070008665E-1,6.116108224E-2,-2.117349356E-1
1.444176840E0,-1.482068151E-1,2.451024577E-2,-2.282278091E-1
1.464287048E0,-9.216158092E-2,-1.687465608E-2,-2.401393354E-1
1.484397257E0,-8.284615725E-2,-2.619007602E-2,-2.360161096E-1
1.504507465E0,-8.192989230E-2,-9.926267667E-4,-2.289913595E-1
1.524617673E0,-4.405735806E-2,5.215108395E-2,-1.903552711E-1
1.544727934E0,2.878617682E-2,8.101361990E-2,-1.358371526E-1
1.564838142E0,7.841751724E-2,5.413633958E-2,-1.188861504E-1
1.584948350E0,7.918107510E-2,-1.214058883E-2,-1.445417255E-1
1.605058559E0,3.764346242E-2,-5.016583204E-2,-1.756949425E-1
1.625168767E0,-2.252499200E-2,-2.634278871E-2,-1.889808774E-1
1.645278975E0,-5.077667907E-2,3.016058356E-2,-1.842468083E-1
1.665389184E0,-3.550549597E-2,3.458922729E-2,-1.749313772E-1
1.685499444E0,3.687990457E-2,-5.879404955E-3,-1.625617296E-1
1.705609652E0,9.017632902E-2,-6.864395738E-2,-1.526354551E-1
1.725719861E0,9.689565003E-2,-9.338327497E-2,-1.289651245E-1
1.745830069E0,7.505785674E-2,-8.376242965E-2,-1.227039397E-1
1.765940277E0,5.001311749E-2,-7.200361788E-2,-1.367534250E-1
1.786050486E0,3.260397166E-2,-7.963921130E-2,-1.595074832E-1
1.806160746E0,2.557922900E-2,-9.307785332E-2,-1.830251068E-1
1.826270954E0,3.153498843E-2,-8.819106966E-2,-1.798181683E-1
1.846381163E0,5.505260825E-2,-7.612683624E-2,-1.509556323E-1
1.866491371E0,9.704835713E-2,-7.429429889E-2,-1.272853017E-1
1.886601579E0,1.184280142E-1,-7.062921673E-2,-1.169008911E-1
1.906711840E0,7.017108053E-2,-5.566345528E-2,-1.007134393E-1
1.926822048E0,-3.061871976E-2,-4.191939160E-2,-8.696937561E-2
1.946932257E0,-1.040730998E-1,-4.527905211E-2,-7.490514219E-2
1.967042465E0,-1.181225851E-1,-4.955498502E-2,-5.642701685E-2
1.987152725E0,-8.192989230E-2,-2.939702384E-2,-3.855973482E-2
2.007262934E0,-1.122431830E-2,-1.015533600E-2,-2.825168660E-3
2.027373142E0,5.673243850E-2,-2.283041552E-2,4.176668078E-2
2.047483350E0,4.756972939E-2,-4.466820508E-2,7.032378763E-2
2.067593559E0,6.948387716E-3,4.352286924E-3,8.635853231E-2
2.087703819E0,-1.855448633E-2,5.352549255E-2,8.605311066E-2
2.107814027E0,-5.154023692E-2,3.214583546E-2,1.127013192E-1
2.127924236E0,-9.536852688E-2,-1.152974181E-2,1.408002973E-1
2.148034444E0,-1.039203927E-1,-1.534753758E-2,1.485885978E-1
2.168144704E0,-5.505260825E-2,3.031329438E-2,1.395785958E-1
2.188254913E0,1.641651988E-2,7.704310864E-2,1.382041872E-1
2.208365121E0,2.267770469E-2,7.093463838E-2,1.362189353E-1
2.228475329E0,-5.688514933E-2,6.956022978E-2,1.356080920E-1
2.248585590E0,-1.213295385E-1,7.200361788E-2,1.466033459E-1
2.268695798E0,-9.903360903E-2,4.879142344E-2,1.389677525E-1
2.288806007E0,-3.000787087E-2,3.657447919E-2,1.308740228E-1
2.308916267E0,-1.351499557E-2,-7.253811229E-3,9.445225447E-2
2.329026475E0,-5.749600008E-2,6.642963737E-3,6.772769243E-2
2.349136684E0,-1.349208951E-1,-1.046075951E-2,4.344651103E-2
2.369246944E0,-1.275907159E-1,1.382041909E-2,5.902311578E-2
2.389357152E0,-2.328855172E-2,2.825168660E-3,1.117850468E-1
2.409467361E0,7.597412914E-2,-3.489464894E-2,1.675248593E-1
2.429577569E0,1.022405624E-1,-5.459447205E-2,1.713426560E-1
2.449687829E0,7.459972054E-2,-7.559234742E-3,1.328592747E-1
2.469798038E0,1.611109637E-2,8.177717775E-2,8.345700800E-2
2.489908246E0,-4.665346071E-2,1.501920670E-1,7.261446863E-2
2.510018507E0,-5.948125198E-2,1.117086932E-1,7.963921130E-2
2.530128715E0,-1.718007959E-2,3.962871432E-2,7.414158434E-2
2.550238923E0,3.107685409E-2,-1.473669056E-2,5.703786388E-2
2.570349184E0,6.803311408E-2,-8.017370477E-3,5.551074445E-2
2.590459392E0,7.521057129E-2,1.473669056E-2,6.085565686E-2
2.610569600E0,3.397838026E-2,5.367820337E-2,4.634803534E-2
2.630679861E0,-4.359922186E-2,4.680617154E-2,9.086352773E-3
2.650790069E0,-1.245364845E-1,1.122431830E-2,-2.893888950E-2
2.670900329E0,-1.698918939E-1,-1.580567285E-2,-4.527905211E-2
2.691010538E0,-1.242310628E-1,-1.244601328E-2,-3.046600707E-2
2.711120746E0,-5.573981442E-3,-3.596363217E-2,1.366770733E-2
2.731231007E0,1.103342846E-1,-1.159846261E-1,6.009209901E-2
2.751341215E0,1.205659807E-1,-1.653105468E-1,5.795413256E-2
2.771451423E0,4.818057641E-2,-1.375169903E-1,2.466295846E-2
2.791561684E0,1.603474026E-3,-7.811209559E-2,-3.443651274E-2
2.811671892E0,2.481566928E-2,-4.558447748E-2,-8.086090535E-2
2.831782152E0,7.475243509E-2,-4.314108938E-2,-8.941277117E-2
2.851892361E0,1.060583517E-1,-1.382041909E-2,-8.773294091E-2
2.872002569E0,1.123195365E-1,1.458397787E-2,-8.467870206E-2
2.892112829E0,6.161921844E-2,2.252499200E-2,-1.101815775E-1
2.912223038E0,-5.474718660E-2,3.092414327E-2,-1.550788432E-1
2.932333298E0,-1.462215632E-1,4.772244394E-2,-1.703500301E-1
2.952443507E0,-1.288124174E-1,6.406260282E-2,-1.497339308E-1
2.972553715E0,-4.191939160E-2,4.558447748E-2,-1.153737754E-1
2.992663975E0,2.939702384E-2,-1.458397787E-2,-8.254073560E-2
3.012774184E0,5.444176123E-2,-6.604786217E-2,-5.566345528E-2
3.032884444E0,6.039752439E-2,-6.467345357E-2,-4.604261369E-2
3.052994652E0,4.909684882E-2,-3.245126083E-2,-3.901786730E-2
3.073104913E0,4.657710437E-3,-8.322793990E-3,-2.909160033E-2
3.093215121E0,-2.970244735E-2,-8.475505747E-3,-2.435753495E-2
3.113325329E0,-1.626380906E-2,-1.458397787E-2,-2.145601064E-2
3.133435590E0,3.336753324E-2,-2.924431302E-2,-1.137703005E-2
3.153545798E0,8.315158635E-2,-5.459447205E-2,1.091889478E-2
3.173656059E0,1.213295385E-1,-6.284090877E-2,2.970244735E-2
3.193766267E0,1.259108931E-1,-6.788039953E-2,4.023956135E-2
3.213876527E0,7.765395939E-2,-8.177717775E-2,3.978142887E-2
3.233986736E0,2.985516004E-2,-6.894938648E-2,2.603736520E-2
3.254096996E0,3.520007432E-2,-4.359922186E-2,3.283303929E-3
3.274207204E0,6.650599837E-2,-2.573194169E-2,-4.504998680E-3
3.294317465E0,7.032378763E-2,-3.077143058E-2,5.344913807E-4
3.314427673E0,4.237752780E-2,-4.298837483E-2,-1.000262424E-2
3.334537934E0,3.184041381E-2,-3.321481869E-2,-3.367295489E-2
3.354648142E0,7.490514219E-2,-2.512109280E-2,-3.031329438E-2
3.374758402E0,1.338519007E-1,-2.023431472E-2,-3.894151188E-3
3.394868611E0,1.596602052E-1,-2.603736520E-2,-5.115845706E-3
3.414978871E0,1.245364845E-1,6.872031372E-4,-5.887040496E-2
3.435089079E0,3.061871976E-2,4.436278343E-2,-1.282015741E-1
3.455199340E0,-6.497887522E-2,8.819106966E-2,-1.517191827E-1
3.475309548E0,-8.116632700E-2,1.013242900E-1,-1.039203927E-1
3.495419809E0,-2.825168660E-3,6.772769243E-2,-1.259872504E-2
3.515530017E0,8.376242965E-2,9.849912487E-3,6.268820167E-2
3.535640277E0,9.338327497E-2,-4.726430774E-2,8.147175610E-2
3.555750486E0,6.375718117E-2,-7.291989028E-2,8.498412371E-2
3.575860746E0,5.199837312E-2,-5.841226876E-2,7.093463838E-2
3.595970954E0,6.116108224E-2,-5.001311749E-2,6.467345357E-2
3.616081215E0,4.711159319E-2,-9.521581978E-2,6.925480813E-2
3.636191423E0,1.183516532E-2,-1.442363113E-1,7.093463838E-2
3.656301684E0,-2.588465251E-2,-1.640888453E-1,6.070294604E-2
3.676411944E0,-6.390989572E-2,-1.210241169E-1,4.283566400E-2
3.696522152E0,-9.078717232E-2,-3.596363217E-2,3.061871976E-2
3.716632413E0,-1.025459841E-1,6.948387716E-3,2.527380548E-2
3.736742621E0,-1.190388575E-1,-9.544488043E-3,3.283303929E-3
3.756852882E0,-1.028514057E-1,-3.588727675E-3,-4.543176666E-2
3.776963090E0,-6.436803192E-2,1.603474026E-3,-7.108735293E-2
3.797073350E0,-5.199837312E-2,3.283303929E-3,-4.543176666E-2
3.817183611E0,-6.436803192E-2,-9.544488043E-3,-2.519744914E-3
3.837293819E0,-5.337277800E-2,1.183516532E-2,3.458922729E-2
3.857404079E0,-8.315158635E-2,2.359397523E-2,2.985516004E-2
3.877514288E0,-1.424037665E-1,2.970244735E-2,7.864658721E-3
3.897624548E0,-1.526354551E-1,2.832804248E-2,7.101099472E-3
3.917734809E0,-9.903360903E-2,1.908897655E-3,4.787515476E-2
3.937845017E0,-3.138227761E-2,-5.154023692E-2,8.926005661E-2
3.957955277E0,1.397313084E-2,-6.452073902E-2,1.113269106E-1
3.978065486E0,1.351499557E-2,-3.413109109E-2,1.217113137E-1
3.998175746E0,-3.436015919E-3,-5.115845706E-3,1.301104724E-1
4.018286007E0,-2.069245093E-2,-1.855448633E-2,1.142284349E-1
4.038396215E0,-5.077667907E-2,-3.901786730E-2,7.841751724E-2
4.058506475E0,-7.505785674E-2,-3.733803704E-2,4.314108938E-2
4.078616736E0,-5.871769413E-2,-4.199574701E-3,2.252499200E-2
4.098726944E0,-3.703261539E-2,-4.504998680E-3,1.488940232E-2
4.118837204E0,-5.902311578E-2,-5.268557463E-3,2.008160390E-2
4.138947465E0,-7.261446863E-2,7.101099472E-3,1.611109637E-2
4.159057673E0,-4.650074616E-2,4.046862945E-3,7.559234742E-3
4.179167934E0,-2.481566928E-2,-1.733279042E-2,8.933641016E-3
4.199278194E0,-4.253023863E-2,-2.802261710E-2,1.107160654E-2
4.219388402E0,-7.643226534E-2,-2.221956849E-2,3.817795368E-4
4.239498663E0,-7.948649675E-2,1.061347127E-2,6.642963737E-3
4.259608871E0,-4.237752780E-2,2.649549954E-2,2.603736520E-2
4.279719132E0,-2.435753495E-2,1.504211407E-2,4.283566400E-2
4.299829392E0,-3.489464894E-2,1.091889478E-2,6.009209901E-2
4.319939600E0,-4.680617154E-2,1.152974181E-2,7.017108053E-2
4.340049861E0,-5.169294775E-2,1.794363745E-2,7.475243509E-2
4.360160121E0,-6.161921844E-2,-4.344651103E-2,6.604786217E-2
4.380270329E0,-7.169819623E-2,-8.803836256E-2,7.032378763E-2
4.400380590E0,-9.002361447E-2,-9.017632902E-2,6.818582863E-2
4.420490850E0,-1.028514057E-1,-3.687990457E-2,7.872293890E-2
4.440601111E0,-8.666395396E-2,4.527905211E-2,9.078717232E-2
4.460711319E0,-2.130329795E-2,9.613208473E-2,9.002361447E-2
4.480821579E0,3.458922729E-2,8.070819080E-2,7.887565345E-2
4.500931840E0,3.871244565E-2,4.879142344E-2,5.535803363E-2
4.521042048E0,6.032116711E-3,1.947075687E-2,3.588727675E-3
4.541152309E0,-5.291464552E-2,-1.298050396E-3,-5.993938819E-2
4.561262569E0,-8.880192041E-2,5.268557463E-3,-8.635853231E-2
4.581372777E0,-6.742226332E-2,2.603736520E-2,-9.078717232E-2
4.601483038E0,-2.359397523E-2,3.199312463E-2,-8.177717775E-2
4.621593298E0,1.214058883E-2,8.628217503E-3,-6.345175952E-2
4.641703559E0,2.649549954E-2,-6.032116711E-3,-5.413633958E-2
4.661813767E0,1.992889121E-2,9.239064530E-3,-6.329904497E-2
4.681924027E0,8.628217503E-3,4.573718831E-2,-7.062921673E-2
4.702034288E0,-2.977880416E-3,5.383091420E-2,-6.528430432E-2
4.722144548E0,5.268557463E-3,3.565821052E-2,-4.512634128E-2
4.742254757E0,3.275668249E-2,2.130329795E-2,-3.275668249E-2
4.762365017E0,4.772244394E-2,-1.145338640E-3,-3.565821052E-2
4.782475277E0,3.153498843E-2,-9.086352773E-3,-5.673243850E-2
4.802585538E0,-3.436015919E-3,9.544488043E-3,-7.398887724E-2
4.822695746E0,-5.383091420E-2,2.832804248E-2,-8.422056586E-2
4.842806007E0,-7.032378763E-2,2.451024577E-2,-6.497887522E-2
4.862916267E0,-4.405735806E-2,-6.490251981E-3,-4.008685052E-2
4.883026527E0,1.840177365E-2,6.642963737E-3,-1.473669056E-2
4.903136736E0,8.590039611E-2,2.573194169E-2,-2.290677221E-4
4.923246996E0,1.114032716E-1,7.559234742E-3,1.412584260E-2
4.943357257E0,8.620581776E-2,-3.046600707E-2,2.008160390E-2
4.963467517E0,5.856497958E-2,-4.039227590E-2,6.032116711E-3
4.983577777E0,4.970769584E-2,-1.595838554E-2,-1.855448633E-2
5.003687986E0,4.894413799E-2,-5.726693198E-3,-2.848075330E-2
5.023798246E0,2.970244735E-2,-3.153498843E-2,-1.733279042E-2
5.043908507E0,1.107160654E-2,-3.947600350E-2,-8.170082234E-3
5.064018767E0,1.259872504E-2,-1.336228382E-2,-1.779092662E-2
5.084129027E0,3.214583546E-2,1.336228382E-2,-1.916533336E-2
5.104239236E0,6.039752439E-2,1.290414855E-2,-8.322793990E-3
5.124349496E0,5.627430230E-2,-2.519744914E-3,1.908897655E-3
5.144459757E0,-6.872031372E-4,-2.023431472E-2,5.115845706E-3
5.164570017E0,-5.398362502E-2,-1.672194339E-2,-1.000262424E-2
5.184680277E0,-7.918107510E-2,-7.406522986E-3,-1.702736691E-2
5.204790486E0,-7.444700599E-2,-8.780929260E-3,-1.756185899E-3
5.224900746E0,-4.879142344E-2,8.780929260E-3,2.649549954E-2
5.245011007E0,-4.207210615E-2,2.267770469E-2,3.107685409E-2
5.265121267E0,-9.231429547E-2,2.512109280E-2,7.406522986E-3
5.285231527E0,-1.278961450E-1,3.138227761E-2,-1.656923257E-2
5.305341788E0,-1.139993668E-1,3.306210786E-2,-2.313583903E-2
5.325451996E0,-1.103342846E-1,2.176143415E-2,-1.603474026E-3
5.345562257E0,-1.590493619E-1,-2.420482226E-2,5.268557463E-3
5.365672517E0,-1.995179802E-1,-3.489464894E-2,-7.635590737E-5
5.385782777E0,-1.643942744E-1,7.101099472E-3,-1.275143679E-2
5.405893038E0,-8.635853231E-2,4.543176666E-2,-2.519744914E-3
5.426003298E0,-4.588989913E-2,4.787515476E-2,2.512109280E-2
5.446113507E0,-6.100837141E-2,3.932329267E-2,2.848075330E-2
5.466223767E0,-9.017632902E-2,4.100312293E-2,-5.573981442E-3
5.486334027E0,-1.013242900E-1,3.810159862E-2,-3.413109109E-2
5.506444288E0,-1.138466597E-1,2.893888950E-2,-5.184566230E-2
5.526554548E0,-1.260636002E-1,4.314108938E-2,-6.177192926E-2
5.546664809E0,-1.266744435E-1,-2.519744914E-3,-8.269345015E-2
5.566775069E0,-8.651123941E-2,-1.631725729E-1,-1.228566542E-1
5.586885329E0,7.078192383E-2,-3.485647142E-1,-1.098761484E-1
5.606995538E0,3.583382666E-1,-5.459447503E-1,-3.458922729E-2
5.627105798E0,5.903075337E-1,-6.019899845E-1,2.909160033E-2
5.647216059E0,5.716766715E-1,-4.298837483E-1,5.138752609E-2
5.667326319E0,2.941993177E-1,-1.259108931E-1,5.795413256E-2
5.687436579E0,-9.231429547E-2,1.424037665E-1,6.696412712E-2
5.707546840E0,-3.203130364E-1,1.891335845E-1,5.887040496E-2
5.727657100E0,-2.836622000E-1,3.901786730E-2,1.908897655E-3
5.747767361E0,-1.146102175E-1,-1.853157878E-1,-4.680617154E-2
5.767877569E0,2.481566928E-2,-2.801498175E-1,-8.696937561E-2
5.787987829E0,1.130831018E-1,-7.635590737E-5,-1.114032716E-1
5.808098090E0,2.054737508E-1,3.517716527E-1,-1.176644564E-1
5.828208350E0,1.662268043E-1,4.156052172E-1,-6.299362332E-2
5.848318611E0,-6.948387716E-3,1.853157878E-1,2.970244735E-2
5.868428871E0,-7.872293890E-2,6.482616812E-2,6.757497787E-2
5.888539132E0,1.449998617E-1,2.244100124E-1,6.589514762E-2
5.908649392E0,4.771480560E-1,3.719296157E-1,6.055023521E-2
5.928759652E0,5.188384056E-1,2.882435620E-1,1.149920002E-1
5.948869913E0,1.993652731E-1,-1.809635013E-2,1.840177327E-1
5.968980173E0,-1.043785289E-1,-1.146102175E-1,2.150182426E-1
5.989090434E0,3.031329438E-2,1.543152928E-1,1.626380831E-1
6.009200694E0,4.595862031E-1,4.446204603E-1,6.177192926E-2
6.029310954E0,5.498389006E-1,3.264214993E-1,9.170344472E-2
6.049421163E0,1.650051177E-1,-6.665870547E-2,1.856975704E-1
6.069531423E0,-1.989071369E-1,-1.401130855E-1,1.757712960E-1
6.089641684E0,-2.954210043E-1,-3.947600350E-2,4.588989913E-2
6.109751944E0,-4.319453537E-1,-8.422056586E-2,-5.551074445E-2
6.129862204E0,-7.784484625E-1,-1.173590273E-1,-7.918107510E-2
6.149972465E0,-8.494594693E-1,1.199551299E-1,-7.627955079E-2
6.170082725E0,-4.933355153E-1,4.102602899E-1,-7.551599294E-2
6.190192986E0,-1.431673318E-1,4.785224795E-1,2.519744914E-3
6.210303246E0,-2.817532979E-2,3.455104828E-1,8.864920586E-2
6.230413507E0,-7.414158434E-2,1.376696974E-1,9.979717433E-2
6.250523767E0,-1.596602052E-1,-7.864658721E-3,1.218640283E-1
6.270634027E0,-1.778329015E-1,-5.268557463E-3,1.378987730E-1
6.290744288E0,-3.122956678E-2,8.192989230E-2,1.423274130E-1
6.310854548E0,1.581330895E-1,7.291989028E-2,1.605001241E-1
6.330964809E0,2.922140658E-1,3.122956678E-2,2.144073844E-1
6.351075069E0,2.861055732E-1,-1.672194339E-2,2.380777150E-1
6.371185329E0,1.883700192E-1,-3.764346242E-2,2.026485801E-1
6.391295590E0,8.238802105E-2,-6.849125028E-2,9.765920788E-2
6.411405850E0,4.665346071E-2,-6.390989572E-2,-2.672456671E-3
6.431516111E0,1.508029103E-1,-1.275143679E-2,-2.359397523E-2
6.451626371E0,3.493282795E-1,2.634278871E-2,-9.239064530E-3
6.471736632E0,4.586699307E-1,4.772244394E-2,-3.214583546E-2
6.491846892E0,3.852155507E-1,-1.030804776E-2,-9.170344472E-2
6.511957152E0,1.990598440E-1,-8.971819282E-2,-2.047101855E-1
6.532067413E0,1.023932695E-1,-6.299362332E-2,-3.184804916E-1
6.552177673E0,2.187596709E-1,-5.031854287E-2,-4.438568950E-1
6.572287934E0,4.540885687E-1,-1.801235825E-1,-4.886014462E-1
6.592398194E0,5.944307446E-1,-6.082511544E-1,-3.076379597E-1
6.612508454E0,4.685961902E-1,-7.719582319E-1,-1.120141149E-1
6.632618715E0,2.062373012E-1,-2.810660899E-1,-9.506310523E-2
6.652728975E0,-6.726955622E-2,2.861055732E-1,-2.515927255E-1
6.672839236E0,-3.879643679E-1,3.587964177E-1,-2.853420377E-1
6.692949496E0,-6.495596766E-1,1.141520813E-1,-2.343362868E-1
6.713059757E0,-6.448256373E-1,6.329904497E-2,-2.384594977E-1
6.733170017E0,-4.426352084E-1,1.124722511E-1,-2.383067906E-1
6.753280277E0,-4.540885687E-1,1.746259630E-1,-1.865374744E-1
6.773390538E0,-6.023717523E-1,3.152735531E-1,-5.932854116E-2
6.793500798E0,-5.270848274E-1,4.359158874E-1,6.757497787E-2
6.813611059E0,-3.751365840E-1,3.618506491E-1,2.023431510E-1
6.833721319E0,-4.059843719E-1,2.022667974E-1,2.629697323E-1
6.853831579E0,-6.037461758E-1,8.788564801E-2,1.800472289E-1
6.873941840E0,-5.900021195E-1,6.406260282E-2,4.100312293E-2
6.894052100E0,-2.720561028E-1,1.901262067E-2,-4.298837483E-2
6.914162361E0,1.262163222E-1,-1.181225851E-1,-7.635590737E-5
6.934272621E0,4.010975957E-1,-2.667111754E-1,9.720107168E-2
6.954382882E0,5.269321203E-1,-3.203130364E-1,1.835595965E-1
6.974493142E0,4.980695844E-1,-3.381803036E-1,2.228065431E-1
6.994603402E0,3.760528564E-1,-2.836622000E-1,3.011476994E-1
7.014713663E0,4.006394446E-1,-1.694337577E-1,4.854708612E-1
7.034823975E0,6.440621018E-1,-1.975327283E-1,6.985038519E-1
7.054934236E0,8.630508184E-1,-2.835094929E-1,7.327113152E-1
7.075044496E0,8.199861050E-1,-2.607554197E-1,5.297572613E-1
7.095154757E0,5.003602505E-1,-4.085041210E-2,2.646495700E-1
7.115265017E0,1.072800532E-1,1.946312040E-1,1.650814712E-1
7.135375277E0,-9.979717433E-2,2.720561028E-1,2.180724740E-1
7.155485538E0,-7.979192585E-2,3.045837283E-1,2.977880239E-1
7.175595798E0,1.966164559E-1,3.994177580E-1,3.408527672E-1
7.195706059E0,5.751890540E-1,4.838673770E-1,3.446705639E-1
7.215816319E0,6.205444336E-1,3.856737018E-1,3.390202224E-1
7.235926579E0,3.339043856E-1,2.486911863E-1,3.151971996E-1
7.256036840E0,1.103342846E-1,1.866901964E-1,2.383831441E-1
7.276147100E0,1.060583517E-1,1.995179802E-1,1.065164879E-1
7.296257361E0,1.412584260E-2,8.223531395E-2,-7.635590737E-5
7.316367673E0,-3.377221823E-1,-2.131093442E-1,1.305686031E-2
7.336477934E0,-6.087856293E-1,-2.572430372E-1,9.032903612E-2
7.356588194E0,-5.750363469E-1,-8.712209016E-2,1.915006191E-1
7.376698454E0,-4.623350203E-1,1.715717167E-1,2.877090573E-1
7.396808715E0,-5.525876880E-1,4.878378808E-1,2.309002578E-1
7.416918975E0,-7.312605381E-1,6.869741082E-1,6.314633787E-2
7.437029236E0,-7.059103847E-1,6.629983187E-1,-2.878617682E-2
7.457139496E0,-4.710395932E-1,4.855472147E-1,-1.366770733E-2
7.477249757E0,-2.166217119E-1,3.467321694E-1,5.245650932E-2
7.497360017E0,-6.513158977E-2,2.770955861E-1,1.166718230E-1
7.517470329E0,1.107160654E-2,2.066954374E-1,1.649287641E-1
7.537580590E0,1.379751265E-1,1.219403818E-1,2.279987335E-1
7.557690850E0,3.583382666E-1,-7.200361788E-2,3.038965166E-1
7.577801111E0,5.703022480E-1,-3.948363960E-1,3.788780272E-1
7.597911371E0,7.094227076E-1,-5.056288242E-1,3.910949528E-1
7.618021632E0,7.529456019E-1,-2.806079686E-1,3.222219348E-1
7.638131892E0,6.921663284E-1,2.023431472E-2,2.544178963E-1
7.658242152E0,5.223507881E-1,2.040993422E-1,2.116585821E-1
7.678352465E0,2.986279428E-1,2.305184901E-1,1.815743446E-1
7.698462725E0,3.871244565E-2,7.948649675E-2,1.421747059E-1
7.718572986E0,-1.755422354E-1,-8.269345015E-2,1.229330078E-1
7.738683246E0,-2.491493225E-1,-1.585912257E-1,7.994463295E-2
7.758793507E0,-1.417929232E-1,-1.083490327E-1,4.054498672E-2
7.778903767E0,2.283041552E-2,2.832804248E-2,7.406522986E-3
7.799014027E0,1.158319116E-1,7.124006003E-2,-2.290677221E-4
7.819124288E0,2.466295846E-2,-3.260397166E-2,1.534753758E-2
7.839234600E0,-4.314108938E-2,-4.863871261E-2,2.466295846E-2
7.859344861E0,1.037676781E-1,6.375718117E-2,-8.399150101E-4
7.879455121E0,2.486911863E-1,4.573718831E-2,-6.872031372E-4
7.899565382E0,-6.910209358E-2,-3.109976053E-1,4.772244394E-2
7.919675642E0,-6.339830756E-1,-4.503471553E-1,1.145338640E-3
7.939785902E0,-9.339091182E-1,-4.346178174E-1,-2.172325552E-1
7.959896215E0,-9.482640028E-1,-5.091412067E-1,-3.937674165E-1
7.980006475E0,-6.666634083E-1,-2.389176339E-1,-3.429143727E-1
8.000116736E0,-2.239518762E-1,1.553842723E-1,-1.934095174E-1
8.020226996E0,-2.954973653E-2,2.193705291E-1,-9.613208473E-2
8.040337257E0,-1.825669706E-1,-2.008160390E-2,-4.085041210E-2
8.060447517E0,-5.800758004E-1,-2.661003470E-1,-4.497363046E-2
8.080557777E0,-7.462263107E-1,-2.146364599E-1,-7.658497244E-2
8.100668090E0,-5.038726330E-1,-5.948125198E-2,-1.475959718E-1
8.120778350E0,-2.237991691E-1,3.657447919E-2,-1.288124174E-1
8.140888611E0,-8.009734750E-2,3.016058356E-2,-5.764871091E-2
8.160998871E0,-3.794888780E-2,-3.932329267E-2,-6.436803192E-2
8.181109132E0,-4.375193641E-2,-1.779092662E-2,-9.582666308E-2
8.201219444E0,-4.199574701E-3,6.925480813E-2,-1.488176584E-1
8.221329704E0,9.155073017E-2,1.833305359E-1,-1.822615564E-1
8.241439965E0,2.413610220E-1,2.183015347E-1,-1.564532518E-1
8.261550225E0,3.708606362E-1,1.286597103E-1,-1.126249656E-1
8.281660486E0,3.844519854E-1,1.519482583E-2,-8.254073560E-2
8.301770746E0,3.071798086E-1,-7.032378763E-2,-6.238277629E-2
8.321881059E0,3.554367423E-1,-1.210241169E-1,-1.718007959E-2
8.341991319E0,5.108973980E-1,-1.538571566E-1,2.832804248E-2
8.362101579E0,6.129088402E-1,-1.031568274E-1,4.909684882E-2
8.382211840E0,4.927246571E-1,-1.060583517E-1,2.283041552E-2
8.402322100E0,9.918632358E-2,-2.815242410E-1,1.061347127E-2
8.422432361E0,-2.092915475E-1,-3.565057218E-1,4.436278343E-2
8.442542673E0,-2.298312820E-2,-1.456107199E-1,3.794888780E-2
8.462652934E0,4.559211135E-1,2.746522129E-1,-4.970769584E-2
8.482763194E0,7.294279933E-1,5.415924788E-1,-1.282015741E-1
8.502873454E0,3.962107897E-1,2.525089979E-1,-5.612159148E-2
8.522983767E0,-2.499128878E-1,-7.169819623E-2,3.749075159E-2
8.543094027E0,-4.771480560E-1,4.680617154E-2,7.559234742E-3
8.563204288E0,-2.958791554E-1,1.929513812E-1,-7.582141459E-2
8.583314548E0,-1.181225851E-1,1.239256412E-1,-2.038702741E-2
8.603424809E0,-2.494547516E-1,2.672456671E-3,4.756972939E-2
8.623535121E0,-4.540885687E-1,1.060583517E-1,2.771719359E-2
8.643645382E0,-4.456894398E-1,2.615189850E-1,-8.528954536E-2
8.663755642E0,-3.016822040E-1,3.303920031E-1,-1.185807213E-1
8.683865902E0,-1.645469815E-1,3.262687922E-1,-5.917582661E-2
8.703976163E0,-8.910734206E-2,2.544942498E-1,3.749075159E-2
8.724086475E0,-8.437328041E-2,8.773294091E-2,1.143811494E-1
8.744196736E0,-1.161373332E-1,-6.116108224E-2,9.689565003E-2
8.764306996E0,-7.185091078E-2,2.435753495E-2,-1.733279042E-2
8.784417257E0,2.130329795E-2,1.379751265E-1,-1.637834162E-1
8.804527569E0,9.277242422E-2,1.805817187E-1,-2.691545784E-1
8.824637829E0,1.335464865E-1,1.213295385E-1,-2.784699798E-1
8.844748090E0,2.987806797E-1,1.779092662E-2,-2.215084881E-1
8.864858350E0,5.066214204E-1,-4.833329096E-2,-1.795127392E-1
8.884968611E0,5.370110869E-1,-8.574768156E-2,-1.266744435E-1
8.905078923E0,3.623087704E-1,-1.139993668E-1,-6.513158977E-2
8.925189184E0,1.611873209E-1,-8.559497446E-2,-4.222481698E-2
8.945299444E0,1.355317384E-1,2.328855172E-2,-6.009209901E-2
8.965409704E0,3.200076222E-1,5.444176123E-2,-4.390464723E-2
8.985520017E0,4.795914590E-1,-4.207210615E-2,5.001311749E-2
9.005630277E0,3.832302988E-1,-1.532463133E-1,1.682884246E-1
9.025740538E0,1.601183414E-1,-2.648786306E-1,2.353289127E-1
9.045850798E0,6.956022978E-2,-2.766374648E-1,2.670929730E-1
9.065961111E0,2.828986347E-1,-3.007659316E-1,2.644968629E-1
9.086071371E0,4.336251915E-1,-2.821350694E-1,1.380514801E-1
9.106181632E0,3.803287745E-1,-6.742226332E-2,-1.626380906E-2
9.126291892E0,1.537044346E-1,-2.085279822E-1,-5.306735635E-2
9.146402204E0,-9.475768358E-2,-3.685699701E-1,-5.642701685E-2
9.166512465E0,-3.003077805E-1,-2.775537372E-1,-1.569113880E-1
9.186622725E0,-5.067741275E-1,-1.062110662E-1,-2.410555929E-1
9.206732986E0,-6.077166796E-1,7.414158434E-2,-2.270061076E-1
9.226843298E0,-5.457156897E-1,2.647259235E-1,-2.210503519E-1
9.246953559E0,-4.444677234E-1,3.416926861E-1,-2.016559541E-1
9.267063819E0,-3.682645559E-1,2.890070975E-1,-1.234675050E-1
9.287174079E0,-2.995442152E-1,1.885227412E-1,-7.322531193E-2
9.307284392E0,-2.613662779E-1,6.620056927E-2,-5.413633958E-2
9.327394652E0,-2.529671192E-1,-5.596888065E-2,-7.559234742E-3
9.347504913E0,-1.860793531E-1,-1.126249656E-1,7.811209559E-2
9.367615173E0,-6.329904497E-2,-1.039203927E-1,1.863084137E-1
9.387725486E0,2.237228118E-2,-1.010188684E-1,2.786990702E-1
9.407835746E0,-4.527905211E-2,-8.070819080E-2,3.029802442E-1
9.427946007E0,-1.669903696E-1,8.009734750E-2,2.539597452E-1
9.448056319E0,-1.036149636E-1,2.932830453E-1,1.896680743E-1
9.468166579E0,1.246891990E-1,3.884224892E-1,1.736333370E-1
9.488276840E0,3.247416615E-1,3.064162433E-1,2.469350100E-1
9.508387100E0,3.810923398E-1,2.267770469E-2,3.723114133E-1
9.528497413E0,2.864110172E-1,-1.532463133E-1,4.631749392E-1
9.548607673E0,2.042520493E-1,-5.398362502E-2,4.318690002E-1
9.568717934E0,2.024195045E-1,1.585912257E-1,3.046600819E-1
9.588828246E0,2.535779774E-1,2.497601658E-1,2.298312783E-1
9.608938507E0,3.606289625E-1,2.225774676E-1,2.585411072E-1
9.629048767E0,5.724402666E-1,3.097759187E-1,2.877090573E-1
9.649159027E0,6.216134429E-1,2.735832036E-1,2.298312783E-1
9.669269340E0,2.071535736E-1,-2.051683217E-1,1.800472289E-1
9.689379600E0,-2.450261116E-1,-4.240806997E-1,1.030041203E-1
9.709489861E0,-3.995704651E-1,-3.085542321E-1,-7.505785674E-2
9.729600173E0,-4.055262208E-1,-2.422772944E-1,-1.697391868E-1
9.749710434E0,-5.040253401E-1,-1.448471546E-1,-1.503447890E-1
9.769820694E0,-5.738146305E-1,7.887565345E-2,-1.023932695E-1
9.789930954E0,-5.615977049E-1,3.006131947E-1,-9.521581978E-2
9.810041267E0,-5.458683968E-1,3.064162433E-1,-9.903360903E-2
9.830151527E0,-5.160895586E-1,1.931040883E-1,-7.948649675E-2
9.850261788E0,-4.716504514E-1,5.108210072E-2,-6.757497787E-2
9.870372100E0,-3.792597950E-1,-1.626380906E-2,-3.978142887E-2
9.890482361E0,-2.575484812E-1,-2.191414498E-2,-3.046600707E-2
9.910592621E0,-1.321720779E-1,7.711946499E-3,-2.802261710E-2
9.930702934E0,7.101099472E-3,2.977880416E-3,-2.588465251E-2
9.950813194E0,1.289651245E-1,-8.475505747E-3,-2.664821222E-2
9.970923454E0,2.241045833E-1,-4.237752780E-2,-6.055023521E-2
9.991033715E0,3.116084635E-1,-1.002553031E-1,-1.136939451E-1
1.001114403E1,3.288649023E-1,-1.275907159E-1,-1.269798726E-1
1.003125429E1,2.332672924E-1,-1.549261361E-1,-1.063637808E-1
1.005136455E1,2.817532979E-2,-1.248419061E-1,-8.208259940E-2
1.007147486E1,-1.358371526E-1,-1.775274873E-1,-1.794363745E-2
1.009158512E1,-9.429954737E-2,-1.283542812E-1,-3.672719002E-2
1.011169538E1,8.987089992E-2,-5.688514933E-2,-7.795938104E-2
1.013180569E1,2.283805162E-1,-4.268295318E-2,-8.956547827E-2
1.015191595E1,1.837886721E-1,-1.311030984E-1,-7.811209559E-2
1.017202622E1,6.024480984E-2,-2.085279822E-1,-6.681142002E-2
1.019213648E1,-3.031329438E-2,-2.349471301E-1,-9.429954737E-2
1.021224679E1,-8.330429345E-2,-2.358634025E-1,-1.002553031E-1
1.023235705E1,-6.849125028E-2,-2.473167777E-1,-7.108735293E-2
1.025246731E1,9.888090193E-2,-5.092938989E-2,-4.436278343E-2
1.027257762E1,3.780381083E-1,2.323510200E-1,-2.512109280E-2
1.029268788E1,2.560213506E-1,-2.002815455E-1,6.558972597E-2
1.031279814E1,-2.538833916E-1,-3.464267552E-1,4.909684882E-2
1.033290845E1,-4.858526289E-1,2.367033157E-3,-1.524827480E-1
1.035301872E1,-1.616454571E-1,1.184280142E-1,-2.066954374E-1
1.037312898E1,1.651578248E-1,-2.380013615E-1,-2.053973824E-2
1.039323929E1,2.909160033E-2,-3.667374253E-1,1.209477559E-1
1.041334955E1,-3.429143727E-1,-1.646996886E-1,3.871244565E-2
1.043345981E1,-6.742990017E-1,2.298312820E-2,-8.284615725E-2
1.045357012E1,-8.297596574E-1,1.874537468E-1,-1.059056446E-1
1.047368038E1,-8.018133640E-1,2.205922157E-1,-9.200886637E-2
1.049379064E1,-5.370110869E-1,1.494285166E-1,-4.665346071E-2
1.051390095E1,-8.177717775E-2,3.000787087E-2,-1.733279042E-2
1.053401122E1,3.310028613E-1,-1.025459841E-1,-7.864658721E-3
1.055412148E1,5.124244690E-1,-1.613400280E-1,5.344913807E-4
1.057423179E1,4.269058704E-1,-1.037676781E-1,2.466295846E-2
1.059434205E1,2.329618782E-1,-1.122431830E-2,7.444700599E-2
1.061445231E1,1.208714023E-1,9.109259397E-2,1.074327603E-1
1.063456262E1,2.227301747E-1,1.321720779E-1,1.212531775E-1
1.065467288E1,4.360685945E-1,5.596888065E-2,1.060583517E-1
1.067478314E1,4.536304474E-1,-1.229330152E-2,3.718532622E-2
1.069489345E1,2.149418741E-1,5.932854116E-2,-3.825430945E-2
1.071500372E1,2.771719359E-2,1.230093688E-1,-8.483141661E-2
1.073511398E1,3.107685409E-2,1.178171635E-1,-5.077667907E-2
1.075522429E1,2.215084881E-1,1.530935913E-1,5.795413256E-2
1.077533455E1,5.415924788E-1,3.071798086E-1,1.014770046E-1
1.079544486E1,6.190173626E-1,2.706816792E-1,7.291989028E-2
1.081555512E1,2.569376230E-1,-1.534753758E-2,1.131594554E-1
1.083566538E1,-6.329904497E-2,-1.679066420E-1,1.264453828E-1
1.085577564E1,1.014770046E-1,-9.506310523E-2,2.710634656E-2
1.087588595E1,4.287384152E-1,-2.366269529E-1,-9.239064530E-3
1.089599622E1,2.803025246E-1,-5.428904891E-1,6.329904497E-2
1.091610653E1,-1.627144367E-1,-4.640912116E-1,8.773294091E-2
1.093621679E1,-3.960580826E-1,-1.019351333E-1,4.512634128E-2
1.095632705E1,-4.585172236E-1,1.723352820E-1,8.475505747E-3
1.097643736E1,-5.228089094E-1,3.074852526E-1,3.978142887E-2
1.099654762E1,-5.521295667E-1,3.325299621E-1,6.085565686E-2
1.101665788E1,-5.128826499E-1,2.822877765E-1,3.306210786E-2
1.103676819E1,-4.530195892E-1,1.689756215E-1,1.152974181E-2
1.105687845E1,-4.070533514E-1,6.329904497E-2,4.863871261E-2
1.107698872E1,-2.966426909E-1,5.062396824E-2,1.261399537E-1
1.109709903E1,-1.558424085E-1,1.275907159E-1,1.774511337E-1
1.111720929E1,-2.191414498E-2,2.380013615E-1,1.768402755E-1
1.113731955E1,7.291989028E-2,3.106921911E-1,1.127013192E-1
1.115742986E1,9.765920788E-2,2.609081268E-1,3.962871432E-2
1.117754012E1,7.811209559E-2,1.723352820E-1,7.253811229E-3
1.119765043E1,1.004080176E-1,1.191915721E-1,6.032116711E-3
1.121776069E1,1.449998617E-1,1.259108931E-1,4.352286924E-3
1.123787095E1,1.918824017E-1,1.509556323E-1,1.290414855E-2
1.125798127E1,1.966164559E-1,1.056002229E-1,-1.290414855E-2
1.127809153E1,8.513683826E-2,-2.069245093E-2,-6.253548712E-2
1.129820179E1,-5.932854116E-2,-1.869956106E-1,-5.978667364E-2
1.131831210E1,-1.501920670E-1,-2.442625463E-1,-2.848075330E-2
1.133842236E1,-1.828723997E-1,-1.306449622E-1,-3.520007432E-2
1.135853262E1,-7.291989028E-2,5.413633958E-2,-7.826480269E-2
1.137864293E1,9.628479928E-2,1.324774921E-1,-9.216158092E-2
1.139875319E1,1.721825749E-1,8.437328041E-2,-2.664821222E-2
1.141886351E1,1.373642832E-1,-4.375193641E-2,4.222481698E-2
1.143897377E1,7.322531193E-2,-1.698918939E-1,6.207735091E-2
1.145908403E1,1.412584260E-2,-2.454842478E-1,6.055023521E-2
1.147919434E1,8.758022636E-2,-1.558424085E-1,3.657447919E-2
1.149930460E1,2.593810260E-1,-1.834832430E-1,-3.168770298E-2
1.151941486E1,2.476222068E-1,-2.001288384E-1,-6.864395738E-2
1.153952517E1,1.207186878E-1,-1.112505570E-1,-1.398076713E-1
1.155963543E1,6.497887522E-2,-1.309503764E-1,-1.921878159E-1
1.157974575E1,-5.657972768E-2,-2.482330501E-1,-2.239518762E-1
1.159985601E1,-4.020138383E-1,-1.877591759E-1,-2.763320208E-1
1.161996627E1,-7.454627156E-1,8.208259940E-2,-3.532987833E-1
1.164007658E1,-8.347991109E-1,3.807868958E-1,-3.583382666E-1
1.166018684E1,-6.874322295E-1,4.840200841E-1,-2.483857721E-1
1.168029715E1,-5.405234694E-1,3.493282795E-1,-1.014770046E-1
1.170040741E1,-4.737884104E-1,1.448471546E-1,1.901262067E-2
1.172051767E1,-3.668901324E-1,4.986040667E-2,7.139277458E-2
1.174062799E1,-1.187334359E-1,9.842276573E-2,9.735377878E-2
1.176073825E1,1.605764776E-1,1.666849405E-1,1.365243644E-1
1.178084851E1,3.195494711E-1,2.080698460E-1,2.038702667E-1
1.180095882E1,2.957264185E-1,2.928248942E-1,2.701472044E-1
1.182106908E1,6.284090877E-2,5.254049897E-1,3.029802442E-1
1.184117939E1,-2.256316990E-1,8.372425437E-1,3.026748300E-1
1.186128965E1,-3.581855595E-1,8.421292901E-1,2.730487287E-1
1.188139991E1,-1.778329015E-1,4.536304474E-1,2.640387416E-1
1.190151022E1,2.642678022E-1,-6.864395738E-2,2.344126403E-1
1.192162049E1,6.834617257E-1,-3.542150557E-1,1.919587553E-1
1.194173075E1,7.941777706E-1,-3.368059099E-1,1.731752008E-1
1.196184106E1,5.924454927E-1,-1.240783483E-1,1.676775664E-1
1.198195132E1,2.760266066E-1,1.894390136E-1,1.780619770E-1
1.200206163E1,4.497363046E-2,4.380538464E-1,1.867665499E-1
1.202217189E1,7.291989028E-2,4.470638335E-1,1.788255423E-1
1.204228220E1,3.094705045E-1,2.299076319E-1,1.539335102E-1
1.206239246E1,5.893912315E-1,7.337802649E-2,1.342336833E-1
1.208250273E1,7.825716734E-1,-1.488940232E-2,1.401894391E-1
1.210261304E1,8.051730394E-1,-8.192989230E-2,2.218902707E-1
1.212272330E1,7.414922118E-1,1.387386769E-1,3.205420971E-1
1.214283356E1,3.977379203E-1,4.269058704E-1,2.936648130E-1
1.216294387E1,-4.340833426E-1,-1.013242900E-1,4.472928941E-1
1.218305413E1,-7.811973095E-1,-6.962131858E-1,4.876088202E-1
1.220316444E1,5.474718660E-2,-5.004366040E-1,9.949174523E-2
1.222327470E1,1.270485997E0,-1.372115612E-1,-1.631725729E-1
1.224338502E1,1.547276139E0,-3.687226772E-1,-4.191939160E-2
1.226349528E1,8.632035255E-1,-5.654918551E-1,9.506310523E-2
1.228360554E1,-1.808871478E-1,-3.968216479E-1,-8.322793990E-3
1.230371585E1,-9.464314580E-1,6.635328382E-2,-2.425827235E-1
1.232382611E1,-1.174124837E0,4.517979026E-1,-3.823140264E-1
1.234393637E1,-9.766684175E-1,5.631248355E-1,-2.847311795E-1
1.236404668E1,-5.570163727E-1,5.110501051E-1,-1.268271655E-1
1.238415694E1,-2.053210288E-1,3.566584289E-1,-6.940752268E-2
1.240426726E1,-3.428380191E-2,2.746522129E-1,-8.452598751E-2
1.242437752E1,3.817795368E-4,2.810660899E-1,-1.152210608E-1
1.244448783E1,-2.496838197E-2,3.123720288E-1,-8.208259940E-2
1.246459809E1,-4.558447748E-2,2.744994760E-1,7.101099472E-3
1.248470835E1,-1.000262424E-2,1.434727460E-1,9.460496902E-2
1.250481866E1,5.260922015E-2,-3.932329267E-2,1.258345395E-1
1.252492892E1,5.505260825E-2,-1.735569835E-1,1.045312360E-1
1.254503918E1,3.367295489E-2,-1.640888453E-1,9.277242422E-2
1.256514950E1,2.909160033E-2,-7.857023180E-2,7.383616269E-2
1.258525976E1,3.122956678E-2,3.741439432E-3,7.429429889E-2
1.260537007E1,-1.305686031E-2,9.697199799E-3,4.833329096E-2
1.262548033E1,-1.069746241E-1,-4.375193641E-2,-6.337540224E-3
1.264559059E1,-1.969218850E-1,-9.399411827E-2,-5.291464552E-2
1.266570090E1,-2.323510200E-1,-9.720107168E-2,-9.093988687E-2
1.268581116E1,-2.647259235E-1,-9.353598952E-2,-1.194969937E-1
1.270592148E1,-3.323772550E-1,-3.565821052E-2,-1.321720779E-1
1.272603174E1,-3.442887962E-1,8.360971510E-2,-1.427091956E-1
1.274614200E1,-2.523562610E-1,1.553842723E-1,-1.321720779E-1
1.276625231E1,-1.393495351E-1,6.390989572E-2,-9.765920788E-2
1.278636257E1,-7.230904698E-2,-5.642701685E-2,-6.161921844E-2
1.280647288E1,-3.474193811E-2,-1.278961450E-1,-4.726430774E-2
1.282658314E1,3.138227761E-2,-1.282015741E-1,-2.115058713E-2
1.284669345E1,1.202605516E-1,-1.088071689E-1,-8.399150101E-4
1.286680372E1,1.970745921E-1,-1.127776727E-1,-4.504998680E-3
1.288691398E1,1.885227412E-1,-1.646996886E-1,-5.856497958E-2
1.290702429E1,1.059056446E-1,-2.047101855E-1,-1.314085126E-1
1.292713455E1,4.573718831E-2,-1.685174853E-1,-1.972273141E-1
1.294724486E1,5.657972768E-2,-1.124722511E-1,-2.178433985E-1
1.296735512E1,8.131904155E-2,-1.283542812E-1,-2.001288384E-1
1.298746538E1,6.085565686E-2,-1.703500301E-1,-1.839413792E-1
1.300757569E1,4.497363046E-2,-1.523300409E-1,-2.089861184E-1
1.302768595E1,4.818057641E-2,-1.311030984E-1,-2.309766263E-1
1.304779627E1,6.253548712E-2,-1.457634270E-1,-2.036412060E-1
1.306790653E1,9.933903813E-2,-1.767639220E-1,-1.755422354E-1
1.308801684E1,1.300341040E-1,-1.726407111E-1,-1.665322334E-1
1.310812710E1,1.605764776E-1,-1.921878159E-1,-1.598129123E-1
1.312823736E1,1.813452840E-1,-1.998234093E-1,-1.665322334E-1
1.314834767E1,1.857739240E-1,-1.975327283E-1,-1.799708754E-1
1.316845793E1,1.440836042E-1,-2.085279822E-1,-2.137201875E-1
1.318856825E1,1.259108931E-1,-1.676012129E-1,-2.352525443E-1
1.320867851E1,1.398076713E-1,-1.463742703E-1,-2.456369549E-1
1.322878877E1,1.207186878E-1,-1.564532518E-1,-2.395284772E-1
1.324889908E1,3.138227761E-2,-1.853157878E-1,-2.541888058E-1
1.326900934E1,-7.062921673E-2,-1.592020690E-1,-2.894652486E-1
1.328911965E1,-1.227039397E-1,-6.375718117E-2,-3.108448982E-1
1.330922991E1,-1.052947938E-1,1.443126611E-2,-2.912977934E-1
1.332934017E1,-6.971294433E-2,2.099787444E-2,-2.350998372E-1
1.334945049E1,-3.413109109E-2,1.145338640E-3,-1.793600321E-1
1.336956075E1,-6.795675959E-3,3.588727675E-3,-1.504974961E-1
1.338967106E1,1.366770733E-2,1.824906096E-2,-1.169008911E-1
1.340978132E1,5.108210072E-2,2.695363574E-2,-7.078192383E-2
1.342989163E1,6.726955622E-2,-1.412584260E-2,-3.871244565E-2
1.345000189E1,4.176668078E-2,-6.742226332E-2,-1.152974181E-2
1.347011215E1,2.893888950E-2,-7.368344814E-2,2.977880416E-3
1.349022246E1,4.298837483E-2,-5.520532280E-2,1.756185899E-3
1.351033273E1,4.207210615E-2,-5.657972768E-2,-2.977880416E-3
1.353044299E1,3.016058356E-2,-7.429429889E-2,-5.726693198E-3
1.355055330E1,-1.298050396E-3,-7.291989028E-2,-6.337540224E-3
1.357066356E1,-2.619007602E-2,-3.993413970E-2,-6.337540224E-3
1.359077387E1,-4.772244394E-2,-2.420482226E-2,-3.436015919E-3
1.361088413E1,-2.084516361E-2,-3.229855001E-2,1.565296017E-2
1.363099444E1,3.000787087E-2,-5.306735635E-2,1.916533336E-2
1.365110470E1,4.650074616E-2,-7.246175408E-2,2.435753495E-2
1.367121496E1,2.115058713E-2,-5.887040496E-2,2.099787444E-2
1.369132528E1,-7.406522986E-3,3.436015919E-3,1.443126611E-2
1.371143554E1,-2.206685767E-2,5.001311749E-2,1.824906096E-2
1.373154585E1,-2.977880416E-3,2.206685767E-2,3.382566571E-2
1.375165611E1,4.039227590E-2,-4.955498502E-2,4.634803534E-2
1.377176642E1,3.520007432E-2,-1.169008911E-1,5.444176123E-2
1.379187668E1,5.344913807E-4,-8.742751181E-2,4.222481698E-2
1.381198694E1,-4.810422193E-3,-1.443126611E-2,1.275143679E-2
1.383209726E1,-1.214058883E-2,2.221956849E-2,8.017370477E-3
1.385220752E1,-1.626380906E-2,2.115058713E-2,9.239064530E-3
1.387231783E1,-1.320957206E-2,-8.170082234E-3,-9.926267667E-4
1.389242809E1,8.628217503E-3,-4.298837483E-2,-6.032116711E-3
1.391253835E1,3.336753324E-2,-6.131379306E-2,-1.412584260E-2
1.393264866E1,4.695888236E-2,-4.558447748E-2,-1.702736691E-2
1.395275892E1,5.016583204E-2,-4.008685052E-2,-2.786990628E-2
1.397286924E1,-1.091889478E-2,-7.276718318E-2,-5.199837312E-2
1.399297950E1,-9.491039068E-2,-8.498412371E-2,-7.704310864E-2
1.401308976E1,-9.811734408E-2,-4.359922186E-2,-8.238802105E-2
1.403320007E1,-8.170082234E-3,-7.864658721E-3,-4.818057641E-2
1.405331033E1,6.788039953E-2,-3.436015919E-3,-6.795675959E-3
1.407342064E1,3.947600350E-2,-1.000262424E-2,4.046862945E-3
1.409353090E1,-5.520532280E-2,-2.115058713E-2,-5.421269219E-3
1.411364122E1,-1.126249656E-1,-3.535278514E-2,-6.337540224E-3
1.413375148E1,-8.803836256E-2,-3.520007432E-2,6.872031372E-4
1.415386174E1,-3.825430945E-2,-1.473669056E-2,1.336228382E-2
1.417397205E1,-7.711946499E-3,7.864658721E-3,1.870719716E-2
1.419408231E1,2.237228118E-2,3.153498843E-2,3.245126083E-2
1.421419262E1,4.634803534E-2,2.313583903E-2,4.161396995E-2
1.423430288E1,4.100312293E-2,1.550024934E-2,4.665346071E-2
1.425441314E1,1.962346770E-2,1.427855436E-2,3.352024406E-2
1.427452345E1,-5.573981442E-3,2.542651631E-2,1.595838554E-2
1.429463372E1,1.259872504E-2,-5.344913807E-4,2.756448276E-2
1.431474403E1,2.221956849E-2,-3.596363217E-2,3.413109109E-2
1.433485429E1,-2.367033157E-3,-4.818057641E-2,2.573194169E-2
1.435496455E1,-2.695363574E-2,-2.573194169E-2,1.931804419E-2
1.437507486E1,-1.229330152E-2,-2.290677221E-4,1.824906096E-2
1.439518512E1,2.619007602E-2,-1.603474026E-3,1.504211407E-2
1.441529543E1,5.551074445E-2,-1.580567285E-2,1.656923257E-2
1.443540569E1,7.872293890E-2,-1.137703005E-2,1.244601328E-2
1.445551601E1,7.032378763E-2,5.421269219E-3,4.504998680E-3
1.447562627E1,5.459447205E-2,3.199312463E-2,8.933641016E-3
1.449573653E1,5.963396281E-2,3.382566571E-2,5.879404955E-3
1.451584684E1,3.947600350E-2,1.901262067E-2,-7.101099472E-3
1.453595710E1,-1.908897655E-3,6.872031372E-4,-1.550024934E-2
1.455606741E1,-2.512109280E-2,-6.642963737E-3,-1.504211407E-2
1.457617767E1,-1.519482583E-2,-2.145601064E-2,-1.366770733E-2
1.459628793E1,-4.963133950E-3,-2.649549954E-2,-7.253811229E-3
1.461639825E1,-5.879404955E-3,-1.855448633E-2,-1.168245357E-2
1.463650851E1,-2.527380548E-2,-8.780929260E-3,-2.053973824E-2
1.465661882E1,-4.787515476E-2,-5.115845706E-3,-2.008160390E-2
1.467672908E1,-3.611634299E-2,-2.519744914E-3,-2.023431472E-2
1.469683934E1,-3.199312463E-2,-1.298050396E-3,-2.603736520E-2
1.471694965E1,-4.741701856E-2,2.519744914E-3,-2.176143415E-2
1.473705991E1,-4.482091591E-2,3.107685409E-2,-9.544488043E-3
1.475717023E1,-2.160872146E-2,2.466295846E-2,-7.635590737E-5
1.477728049E1,-1.091889478E-2,-3.283303929E-3,-8.399150101E-4
1.479739080E1,-2.977880416E-3,1.198787708E-2,-1.641651988E-2
1.481750106E1,-5.421269219E-3,3.122956678E-2,-1.656923257E-2
1.483761132E1,-5.657972768E-2,5.573981442E-3,-3.817795368E-4
1.485772163E1,-1.173590273E-1,-3.016058356E-2,-9.926267667E-4
1.487783189E1,-1.127776727E-1,-2.069245093E-2,-8.628217503E-3
1.489794220E1,-4.588989913E-2,-9.391776286E-3,-4.046862945E-3
1.491805246E1,9.086352773E-3,1.076618303E-2,9.849912487E-3
1.493816273E1,2.328855172E-2,3.031329438E-2,2.191414498E-2
1.495827304E1,1.885990985E-2,1.916533336E-2,2.405211143E-2
1.497838330E1,8.780929260E-3,-1.214058883E-2,1.885990985E-2
1.499849361E1,9.926267667E-4,-1.046075951E-2,1.061347127E-2
1.501860387E1,1.641651988E-2,3.130592173E-3,2.367033157E-3
1.503871413E1,2.420482226E-2,-8.017370477E-3,-1.450762269E-3
1.505882444E1,1.595838554E-2,-3.352024406E-2,-3.894151188E-3
1.507893470E1,2.367033157E-3,-4.298837483E-2,-1.351499557E-2
1.509904502E1,-6.795675959E-3,-2.145601064E-2,-1.580567285E-2
1.511915528E1,-2.825168660E-3,7.864658721E-3,-7.101099472E-3
1.513926559E1,1.641651988E-2,9.926267667E-4,7.711946499E-3
1.515937585E1,2.970244735E-2,-3.122956678E-2,1.366770733E-2
1.517948611E1,2.160872146E-2,-4.207210615E-2,4.199574701E-3
1.519959642E1,1.046075951E-2,-8.322793990E-3,-2.290677221E-4
1.521970668E1,-3.283303929E-3,5.421269219E-3,6.337540224E-3
1.523981700E1,-9.697199799E-3,1.672194339E-2,1.473669056E-2
1.525992726E1,2.367033157E-3,2.252499200E-2,3.436015919E-3
1.528003752E1,1.672194339E-2,1.656923257E-2,2.290677221E-4
1.530014783E1,5.421269219E-3,-2.359397523E-2,2.214321401E-3
1.532025809E1,-1.718007959E-2,-1.259872504E-2,-9.926267667E-4
1.534036840E1,-1.473669056E-2,2.069245093E-2,-5.344913807E-4
1.536047866E1,-8.017370477E-3,-6.490251981E-3,1.152974181E-2
1.538058892E1,-3.031329438E-2,-3.229855001E-2,6.872031372E-4
1.540069924E1,-2.893888950E-2,-3.413109109E-2,-1.305686031E-2
1.542080950E1,6.032116711E-3,-5.421269219E-3,-1.320957206E-2
1.544091981E1,1.763821393E-2,6.337540224E-3,-7.711946499E-3
1.546103007E1,3.894151188E-3,3.817795368E-4,-3.436015919E-3
1.548114033E1,5.421269219E-3,-1.702736691E-2,-7.635590737E-5
1.550125064E1,2.893888950E-2,-1.595838554E-2,8.475505747E-3
1.552136090E1,5.108210072E-2,-4.504998680E-3,1.137703005E-2
1.554147122E1,2.573194169E-2,-1.870719716E-2,7.635590737E-5
1.556158148E1,-3.138227761E-2,-3.474193811E-2,-2.405211143E-2
1.558169174E1,-4.207210615E-2,-2.680092305E-2,-3.901786730E-2
1.560180205E1,1.908897655E-3,-1.504211407E-2,-2.267770469E-2
1.562191231E1,4.894413799E-2,-3.107685409E-2,1.412584260E-2
1.564202262E1,5.764871091E-2,-5.551074445E-2,2.267770469E-2
1.566213288E1,1.565296017E-2,-5.092938989E-2,6.490251981E-3
1.568224314E1,-2.817532979E-2,-2.542651631E-2,-7.864658721E-3
1.570235345E1,-1.748550311E-2,-1.290414855E-2,-1.290414855E-2
1.572246372E1,3.199312463E-2,-4.008685052E-2,-3.741439432E-3
1.574257403E1,5.581616983E-2,-6.116108224E-2,3.283303929E-3
1.576268429E1,2.741177008E-2,-5.184566230E-2,-5.726693198E-3
1.578279455E1,-6.490251981E-3,-1.550024934E-2,-1.519482583E-2
1.580290486E1,1.351499557E-2,1.450762269E-3,-9.086352773E-3
1.582301512E1,7.475243509E-2,-4.046862945E-3,8.322793990E-3
1.584312543E1,1.190388575E-1,-3.382566571E-2,6.490251981E-3
1.586323569E1,1.080436110E-1,-7.185091078E-2,-2.191414498E-2
1.588334595E1,5.581616983E-2,-8.590039611E-2,-5.245650932E-2
1.590345627E1,2.214321401E-3,-8.177717775E-2,-8.391514421E-2
1.592356653E1,-4.199574701E-3,-7.185091078E-2,-1.048366576E-1
1.594367684E1,3.214583546E-2,-4.329380020E-2,-9.567394853E-2
1.596378710E1,8.208259940E-2,-1.947075687E-2,-6.238277629E-2
1.598389736E1,1.118614078E-1,-1.992889121E-2,-2.771719359E-2
1.600400767E1,1.164427623E-1,-4.039227590E-2,-2.977880416E-3
1.602411793E1,1.094180122E-1,-5.612159148E-2,3.283303929E-3
1.604422819E1,9.139802307E-2,-3.535278514E-2,3.741439432E-3
1.606433851E1,7.337802649E-2,1.908897655E-3,1.656923257E-2
1.608444877E1,5.260922015E-2,1.122431830E-2,2.909160033E-2
1.610455908E1,2.267770469E-2,3.588727675E-3,2.542651631E-2
1.612466934E1,1.320957206E-2,-1.030804776E-2,1.718007959E-2
1.614477960E1,3.138227761E-2,-1.779092662E-2,1.168245357E-2
1.616488991E1,3.993413970E-2,-1.962346770E-2,8.933641016E-3
1.618500017E1,1.519482583E-2,-9.697199799E-3,5.573981442E-3
1.620511049E1,-1.580567285E-2,6.490251981E-3,-4.657710437E-3
1.622522075E1,-4.146125913E-2,1.687465608E-2,-1.198787708E-2
1.624533101E1,-3.260397166E-2,-1.076618303E-2,-1.756185899E-3
1.626544132E1,2.290677221E-4,-3.779617324E-2,2.290677221E-4
1.628555158E1,3.283303929E-3,-1.779092662E-2,-5.421269219E-3
1.630566184E1,-1.397313084E-2,2.893888950E-2,-5.573981442E-3
1.632577215E1,-1.351499557E-2,4.161396995E-2,1.229330152E-2
1.634588241E1,3.588727675E-3,2.542651631E-2,2.970244735E-2
1.636599267E1,5.879404955E-3,-1.015533600E-2,2.771719359E-2
1.638610299E1,-8.780929260E-3,-1.320957206E-2,1.427855436E-2
1.640621325E1,-1.214058883E-2,1.702736691E-2,5.573981442E-3
1.642632356E1,-2.985516004E-2,6.642963737E-3,1.885990985E-2
1.644643382E1,-3.260397166E-2,-2.023431472E-2,2.466295846E-2
1.646654408E1,-6.818582863E-2,2.481566928E-2,5.879404955E-3
1.648665439E1,-4.487436712E-1,1.634780020E-1,-5.963396281E-2
1.650676465E1,-2.531198263E-1,1.146102175E-1,3.588727675E-3
1.652687496E1,2.418191582E-1,-1.030041203E-1,2.893888950E-2
