"Time (s)","Acceleration x (m/s^2)","Acceleration y (m/s^2)","Acceleration z (m/s^2)"
1.630902700E-2,4.067798555E-1,4.292125702E0,8.147561073E0
3.641892300E-2,8.464609981E-1,4.405784607E0,8.944371223E0
5.652876700E-2,5.958128572E-1,4.353142738E0,8.665607452E0
7.663866300E-2,6.329016089E-1,4.296911240E0,8.764909744E0
9.674855800E-2,8.285148144E-1,4.309473515E0,9.629914284E0
1.168584540E-1,8.781659007E-1,4.191627026E0,9.859625816E0
1.369682980E-1,6.819544435E-1,4.155734539E0,9.168100357E0
1.570781940E-1,4.396811724E-1,4.351347923E0,8.365307808E0
1.771880900E-1,7.106683254E-1,4.311268330E0,8.094321251E0
1.972979330E-1,9.750752449E-1,4.239483356E0,8.356932640E0
2.174078290E-1,9.535398483E-1,4.254438877E0,8.709276199E0
2.375177250E-1,8.327022791E-1,4.272384644E0,8.769096375E0
2.576276210E-1,6.574280262E-1,4.297509670E0,8.730812073E0
2.777374650E-1,5.347958803E-1,4.307080746E0,8.740981102E0
2.978473610E-1,4.725824594E-1,4.324428558E0,8.769096375E0
3.179572560E-1,4.666004181E-1,4.323232174E0,8.727820396E0
3.380671520E-1,4.277170599E-1,4.337589264E0,8.703892708E0
3.581769960E-1,4.205385745E-1,4.352544308E0,8.928219795E0
3.782868920E-1,4.666004181E-1,4.341776848E0,9.380462646E0
3.983967880E-1,5.318048596E-1,4.320839405E0,9.595816612E0
4.185066310E-1,5.521438122E-1,4.354339123E0,9.384052277E0
4.386165270E-1,6.137589812E-1,4.329812527E0,9.141180992E0
4.587264230E-1,7.477570772E-1,4.293920040E0,9.081958771E0
4.788362670E-1,7.369893789E-1,4.316651821E0,9.071788788E0
4.989461630E-1,6.418746710E-1,4.310071945E0,8.833703041E0
5.190560580E-1,4.689932466E-1,4.325624943E0,8.545368195E0
5.391659020E-1,4.277170599E-1,4.313661098E0,8.534600258E0
5.592757980E-1,4.558327198E-1,4.269991875E0,8.864211082E0
5.793856940E-1,5.006981492E-1,4.223930359E0,9.040083885E0
5.994955900E-1,5.024927258E-1,4.248456478E0,8.988039970E0
6.196054330E-1,5.880361795E-1,4.272384644E0,8.937192917E0
6.397153290E-1,7.010970116E-1,4.241278172E0,9.010173798E0
6.598251730E-1,6.059823632E-1,4.236492634E0,9.047262192E0
6.799350690E-1,4.707878530E-1,4.228117466E0,8.958727837E0
7.000449650E-1,3.894318938E-1,4.236492634E0,8.860024452E0
7.201548610E-1,4.821537733E-1,4.220939159E0,8.876773834E0
7.402647040E-1,5.312066078E-1,4.252045631E0,8.995817184E0
7.603746000E-1,4.366901219E-1,4.284946918E0,9.003593445E0
7.804844440E-1,3.655036688E-1,4.311268330E0,8.939585686E0
8.005943400E-1,4.779663086E-1,4.247260094E0,9.029914856E0
8.207042360E-1,5.629115105E-1,4.220340729E0,9.125029564E0
8.408140790E-1,4.965106845E-1,4.245465755E0,9.090332985E0
8.609239750E-1,3.918247223E-1,4.266402721E0,8.967700958E0
8.810338710E-1,3.523431420E-1,4.271786690E0,9.012566566E0
9.011437150E-1,3.822534084E-1,4.235296249E0,9.040681839E0
9.212536110E-1,3.762713671E-1,4.228715897E0,8.937790871E0
9.413634540E-1,3.206382394E-1,4.230510235E0,8.766105652E0
9.614733500E-1,3.230310678E-1,4.261018753E0,8.728418350E0
9.815832460E-1,4.606183469E-1,4.256831646E0,8.896514893E0
1.001693090E0,5.611169338E-1,4.192225456E0,9.061619759E0
1.021802986E0,4.588237405E-1,4.158127785E0,9.047860146E0
1.041912881E0,3.062812984E-1,4.144368649E0,8.896514893E0
1.062022725E0,1.393819153E-1,4.128815651E0,8.924032211E0
1.082132621E0,1.680957973E-1,4.091128349E0,9.006584167E0
1.102242465E0,1.992024779E-1,4.066003799E0,9.011968613E0
1.122352361E0,1.860419661E-1,4.117449760E0,8.938388824E0
1.142462256E0,2.410768867E-1,4.162913322E0,8.832506180E0
1.162572100E0,2.835494876E-1,4.217947960E0,8.831310272E0
1.182681996E0,3.523431420E-1,4.264009953E0,8.934800148E0
1.202791840E0,4.558327198E-1,4.248456478E0,9.106484413E0
1.222901736E0,5.670989752E-1,4.171288013E0,9.069396019E0
1.243011631E0,6.143572330E-1,4.174279213E0,8.836095810E0
1.263121475E0,4.408775866E-1,4.162913322E0,8.638090134E0
1.283231371E0,3.547359705E-1,4.146163464E0,8.903095245E0
1.303341215E0,4.857429862E-1,4.014558315E0,9.284152031E0
1.323451111E0,3.511467278E-1,3.984049797E0,9.315258980E0
1.343560954E0,1.447657645E-1,3.985844374E0,9.007781029E0
1.363670850E0,2.105683982E-1,4.010370731E0,8.906085968E0
1.383780746E0,4.151547253E-1,4.016352654E0,9.068199158E0
1.403890590E0,4.271188378E-1,3.994817495E0,9.188439369E0
1.424000486E0,3.397808075E-1,4.002593994E0,9.172885895E0
1.444110329E0,2.907279432E-1,3.943371773E0,9.228518486E0
1.464220225E0,2.590230405E-1,3.890131474E0,9.252447128E0
1.484330069E0,2.829512656E-1,3.901497364E0,9.217152596E0
1.504439965E0,3.864408433E-1,3.933202267E0,9.139386177E0
1.524549861E0,4.133601189E-1,3.975076675E0,9.089735031E0
1.544659704E0,4.241278172E-1,3.997808456E0,9.150154114E0
1.564769600E0,4.486542344E-1,3.991228104E0,9.286544800E0
1.584879444E0,4.283152521E-1,3.944568157E0,9.275178909E0
1.604989340E0,3.314059377E-1,3.929612875E0,9.166305542E0
1.625099183E0,3.690928817E-1,3.969094515E0,9.083752632E0
1.645209079E0,5.012963414E-1,3.996013880E0,9.083154678E0
1.665318923E0,5.222335458E-1,4.010370731E0,9.090931892E0
1.685428819E0,4.408775866E-1,3.997808456E0,9.114859581E0
1.705538663E0,3.696911037E-1,3.939782381E0,9.155537605E0
1.725648558E0,3.212364316E-1,3.933202267E0,9.138189316E0
1.745758402E0,3.086741269E-1,3.952943087E0,9.099306107E0
1.765868298E0,3.457628787E-1,3.946362734E0,9.049654961E0
1.785978142E0,3.649054468E-1,3.941577196E0,9.010173798E0
1.806088038E0,3.248256743E-1,3.946362734E0,9.013164520E0
1.826197881E0,3.373879790E-1,3.915256023E0,9.101100922E0
1.846307777E0,2.775674164E-1,3.902095556E0,9.119645119E0
1.866417621E0,2.344966233E-1,3.894318819E0,9.030512810E0
1.886527517E0,2.769692242E-1,3.906282902E0,9.009575844E0
1.906637361E0,2.500499785E-1,3.897309780E0,9.049654961E0
1.926747256E0,2.153540403E-1,3.970290899E0,8.916254997E0
1.946857100E0,2.069791555E-1,4.015156269E0,8.788239479E0
1.966966996E0,2.614158690E-1,3.987040758E0,8.922835350E0
1.987076840E0,2.428714931E-1,3.924229145E0,9.151947975E0
2.007186736E0,1.722832322E-1,3.908675671E0,9.273982048E0
2.027296579E0,1.621137410E-1,3.919443607E0,9.295517921E0
2.047406475E0,2.081755698E-1,3.937987804E0,9.263813019E0
2.067516319E0,2.727817893E-1,3.966701746E0,9.191430092E0
2.087626215E0,3.068794906E-1,4.003192425E0,9.073583603E0
2.107736058E0,2.769692242E-1,4.006183147E0,8.947361946E0
2.127845954E0,2.045863420E-1,4.030709743E0,8.924630165E0
2.147955798E0,2.350948304E-1,4.014558315E0,9.044869423E0
2.168065642E0,2.985046208E-1,3.986442566E0,9.156734467E0
2.188175538E0,3.068794906E-1,3.975076675E0,9.205188751E0
2.208285381E0,2.913261652E-1,3.971487284E0,9.150752068E0
2.228395277E0,2.356930375E-1,3.981058598E0,9.026325226E0
2.248505121E0,1.555334777E-1,4.011567116E0,8.956933022E0
2.268615017E0,1.142572835E-1,4.023531437E0,8.979664803E0
2.288724861E0,1.776670814E-1,4.022933006E0,9.056235313E0
2.308834756E0,2.638086975E-1,3.978665829E0,9.228518486E0
2.328944600E0,2.907279432E-1,3.937389612E0,9.385248184E0
2.349054496E0,2.769692242E-1,3.898506403E0,9.330213547E0
2.369164340E0,2.392822653E-1,3.921238184E0,9.101698875E0
2.389274183E0,2.530409992E-1,3.984647989E0,8.876175880E0
2.409384079E0,2.877369225E-1,4.021736622E0,8.819944382E0
2.429493923E0,3.284149170E-1,4.011567116E0,9.019146919E0
2.449603819E0,3.212364316E-1,3.951746702E0,9.185447693E0
2.469713663E0,3.200400174E-1,3.914657831E0,9.136993408E0
2.489823558E0,3.302095234E-1,3.967898130E0,8.997611046E0
2.509933402E0,5.210371017E-1,4.034298897E0,8.883952141E0
2.530043298E0,7.692924738E-1,4.046263218E0,8.902496338E0
2.550153142E0,7.986045480E-1,4.041477680E0,9.033503532E0
2.570262986E0,7.573283911E-1,4.024727821E0,9.168100357E0
2.590372881E0,7.142575383E-1,4.011567116E0,9.242277145E0
2.610482725E0,5.635097623E-1,4.058227062E0,9.159725189E0
2.630592621E0,3.930211067E-1,4.183850288E0,8.903693199E0
2.650702465E0,4.055834413E-1,4.275974274E0,8.699107170E0
2.670812308E0,4.055834413E-1,4.318446636E0,8.757730484E0
2.690922204E0,4.905286431E-1,4.259224415E0,8.977272034E0
2.711032048E0,6.239284873E-1,4.159324169E0,9.223134995E0
2.731141944E0,6.915257573E-1,4.110869408E0,9.421140671E0
2.751251788E0,6.652047038E-1,4.185645103E0,9.341579437E0
2.771361631E0,6.430711150E-1,4.327419758E0,9.099904060E0
2.791471527E0,8.410771489E-1,4.369892120E0,8.979066849E0
2.811581371E0,9.553344250E-1,4.357329845E0,9.141778946E0
2.831691267E0,8.907282352E-1,4.302295208E0,9.347561836E0
2.851801111E0,7.166503668E-1,4.210769653E0,9.411569595E0
2.871910954E0,6.143572330E-1,4.159922123E0,9.409774780E0
2.892020850E0,5.724828243E-1,4.125824451E0,9.472586632E0
2.912130694E0,5.605186820E-1,4.072584152E0,9.609575272E0
2.932240538E0,4.959124923E-1,4.073182583E0,9.600603104E0
2.952350433E0,4.151547253E-1,4.111467361E0,9.426525116E0
2.972460277E0,5.276173949E-1,4.125824451E0,9.177073479E0
2.992570173E0,6.598208547E-1,4.154538155E0,8.903693199E0
3.012680017E0,5.527420044E-1,4.186841488E0,8.800801277E0
3.032789861E0,3.637090325E-1,4.146761417E0,8.766105652E0
3.052899756E0,2.632105052E-1,4.121038914E0,8.654839516E0
3.073009600E0,2.931207716E-1,4.158725739E0,8.507680893E0
3.093119444E0,4.139583111E-1,4.180261135E0,8.410173416E0
3.113229340E0,4.995017350E-1,4.210769653E0,8.301898003E0
3.133339183E0,4.612165689E-1,4.275974274E0,8.140382767E0
3.153449079E0,4.031906128E-1,4.319643021E0,8.074580193E0
3.173558923E0,4.719842672E-1,4.327419758E0,8.179265976E0
3.193668767E0,5.018945336E-1,4.389633179E0,8.271389961E0
3.213778663E0,5.826523304E-1,4.499702930E0,8.254639626E0
3.233888506E0,6.807580590E-1,4.523631096E0,8.281558990E0
3.253998350E0,6.801598072E-1,4.532604218E0,8.511868477E0
3.274108246E0,6.047859192E-1,4.521836758E0,8.780462265E0
3.294218090E0,5.772684813E-1,4.470390797E0,8.943174362E0
3.314327933E0,6.532405615E-1,4.438685894E0,8.903693199E0
3.334437829E0,9.355936646E-1,4.533800602E0,8.843274117E0
3.354547673E0,1.694716692E0,4.688735962E0,8.982057571E0
3.374657517E0,1.137787223E0,4.795216560E0,9.820143700E0
3.394767413E0,-4.313062727E-1,4.557130814E0,1.086401272E1
3.414877256E0,-1.347159147E0,4.429114819E0,1.124088287E1
3.434987100E0,-1.282552958E0,4.655834675E0,1.068275642E1
3.455096996E0,-6.011967063E-1,4.731208801E0,1.021555805E1
3.475206840E0,-9.092725813E-2,4.554738045E0,1.058764172E1
3.495316683E0,1.202393398E-1,4.267001152E0,1.122233772E1
3.515426579E0,2.087737769E-1,3.890729666E0,1.166620636E1
3.535536423E0,1.531406492E-1,3.457030535E0,1.218425274E1
3.555646267E0,-2.039881349E-1,3.160320520E0,1.265444279E1
3.575756163E0,-7.088736892E-1,3.284149170E0,1.208734322E1
3.595866006E0,-8.955138922E-1,3.594617844E0,1.089571762E1
3.615975850E0,-6.005984545E-1,3.598206997E0,1.038185883E1
3.636085746E0,-4.247260094E-2,3.128017426E0,1.082752228E1
3.656195590E0,-4.366901144E-2,2.682354212E0,1.135992527E1
3.676305433E0,-7.573283911E-1,2.442473650E0,1.126361465E1
3.696415277E0,-1.283749342E0,2.344367981E0,1.065763187E1
3.716525173E0,-1.189232826E0,2.335993052E0,1.010189915E1
3.736635017E0,-6.933203340E-1,2.390429735E0,9.653842926E0
3.756744861E0,-3.074777126E-1,2.444268227E0,9.068798065E0
3.776854756E0,-1.686939895E-1,2.378465652E0,8.329415321E0
3.796964600E0,-2.105683982E-1,2.285743713E0,7.775477409E0
3.817074444E0,-3.774677813E-1,2.275574446E0,7.441080093E0
3.837184340E0,-4.492524564E-1,2.279163599E0,7.083353043E0
3.857294183E0,-4.773681164E-1,2.386840582E0,6.847660065E0
3.877404027E0,-4.695914388E-1,2.536990166E0,6.763911247E0
3.897513923E0,-4.085744619E-1,2.732005358E0,6.617949009E0
3.917623767E0,-3.738785386E-1,3.005385160E0,6.423532486E0
3.937733611E0,-3.349951804E-1,3.237488985E0,6.378666878E0
3.957843454E0,-1.429711580E-1,3.357728481E0,6.707081795E0
3.977953350E0,7.417750359E-2,3.463012457E0,7.611568928E0
3.998063194E0,1.381855011E-1,3.659224033E0,8.587840080E0
4.018173038E0,-1.244267747E-1,3.928416491E0,8.887541771E0
4.038282933E0,-2.087737769E-1,4.049253941E0,8.627920151E0
4.058392777E0,3.290131316E-2,4.064807415E0,8.839086533E0
4.078502621E0,3.870390654E-1,3.865604877E0,9.934999466E0
4.098612465E0,3.236292601E-1,3.829114437E0,1.117388344E1
4.118722308E0,-9.212367237E-2,4.162913322E0,1.156750298E1
4.138832204E0,1.375873089E-1,4.364508629E0,1.075992489E1
4.158942048E0,7.286145091E-1,4.640281200E0,1.022692394E1
4.179051892E0,1.599601984E0,4.609772682E0,1.034776115E1
4.199161788E0,2.070987940E0,4.300500393E0,1.110150051E1
4.219271631E0,1.888535261E0,3.750151396E0,1.231765270E1
4.239381475E0,1.427318692E0,3.086741209E0,1.343869019E1
4.259491319E0,9.302098155E-1,2.633301258E0,1.386640739E1
4.279601215E0,8.368897438E-1,2.469393015E0,1.312642670E1
4.299711058E0,1.041476011E0,2.629712105E0,1.167577839E1
4.319820902E0,1.194616675E0,2.790031195E0,1.048176003E1
4.339930798E0,1.122233868E0,2.842673302E0,9.649655342E0
4.360040642E0,1.067797065E0,2.821736097E0,8.997611046E0
4.380150486E0,1.124626637E0,2.681756020E0,8.637491226E0
4.400260329E0,1.184447169E0,2.598007202E0,8.367700577E0
4.420370173E0,1.094118118E0,2.598605394E0,7.959724426E0
4.440480069E0,7.322037220E-1,2.621935368E0,7.675576687E0
4.460589913E0,5.449653864E-1,2.615953445E0,7.304090977E0
4.480699756E0,4.935196638E-1,2.698505640E0,6.893722057E0
4.500809652E0,3.948157430E-1,2.866003275E0,6.479763508E0
4.520919496E0,3.936193287E-1,2.943770170E0,6.125626087E0
4.541029340E0,3.667000830E-1,3.058027267E0,6.092724800E0
4.561139183E0,4.749752879E-1,3.157329559E0,6.451648235E0
4.581249027E0,5.222335458E-1,3.188436270E0,6.792625427E0
4.601358923E0,2.338984162E-1,3.316452265E0,7.203592777E0
4.621468767E0,7.058826834E-2,3.486940861E0,7.478168964E0
4.641578611E0,2.255235314E-1,3.681955814E0,7.651648521E0
4.661688454E0,5.766702294E-1,3.860221148E0,7.960322857E0
4.681798350E0,8.907282352E-1,3.912265062E0,8.169694901E0
4.701908194E0,7.561319470E-1,3.935595036E0,8.484949112E0
4.722018038E0,4.372883439E-1,3.899104595E0,9.075378418E0
4.742127881E0,1.459621787E-1,3.785445452E0,9.429515839E0
4.762237777E0,1.734796353E-2,3.733401537E0,9.403793335E0
4.782347621E0,2.452643216E-2,3.841078520E0,9.390034676E0
4.802457465E0,1.136590764E-1,4.030111313E0,9.534201622E0
4.822567308E0,2.267199457E-1,4.140779495E0,9.604789734E0
4.842677204E0,4.037888348E-1,4.202992916E0,9.853643417E0
4.862787048E0,5.700899959E-1,4.203591347E0,1.039920712E1
4.882896892E0,4.737788737E-1,4.183850288E0,1.133958626E1
4.903006736E0,-1.405783296E-1,4.360919476E0,1.205683517E1
4.923116631E0,-8.069794178E-1,4.649254322E0,1.161236858E1
4.943226475E0,-7.447660565E-1,4.978865623E0,1.087537861E1
4.963336319E0,8.315058798E-2,5.019543648E0,1.091007519E1
4.983446163E0,9.631111026E-1,4.481756687E0,1.211426258E1
5.003556006E0,1.186241865E0,3.543770313E0,1.386102295E1
5.023665902E0,8.883354068E-1,2.824727058E0,1.481456280E1
5.043775746E0,-5.742774159E-2,2.404786825E0,1.413201046E1
5.063885590E0,-1.025324464E0,2.391027927E0,1.154895878E1
5.083995433E0,-1.655235052E0,2.736192703E0,8.983852386E0
5.104105277E0,-1.616351724E0,2.747558594E0,7.810771465E0
5.124215173E0,-1.217946768E0,2.402393818E0,8.448458672E0
5.144325017E0,-8.500502706E-1,1.980658889E0,9.626923561E0
5.164434861E0,-8.321040869E-1,1.792822361E0,9.922437668E0
5.184544704E0,-1.062413216E0,1.856232166E0,9.206983566E0
5.204654600E0,-8.907282352E-1,2.045265198E0,8.103293419E0
5.224764444E0,-5.042873621E-1,2.301297188E0,7.457829952E0
5.244874288E0,-1.555334684E-2,2.437688112E0,7.421339512E0
5.264984131E0,1.609173268E-1,2.508874655E0,7.458428383E0
5.285093975E0,-9.631111473E-2,2.484348059E0,7.210771084E0
5.305203871E0,-3.678964674E-1,2.491526604E0,6.962515831E0
5.325313715E0,-3.272185028E-1,2.583052158E0,7.006184578E0
5.345423558E0,-1.010967568E-1,2.778067112E0,7.374081135E0
5.365533402E0,9.750752151E-2,3.029313564E0,7.604390144E0
5.385643246E0,2.177468538E-1,3.247060299E0,7.529016495E0
5.405753142E0,2.620140910E-1,3.422932863E0,7.316055298E0
5.425862986E0,1.471585929E-1,3.552743435E0,7.378268719E0
5.445972829E0,9.451649338E-2,3.622135162E0,7.917850018E0
5.466082673E0,1.339980662E-1,3.662214994E0,8.544171333E0
5.486192517E0,-5.742774159E-2,3.770490170E0,8.867202759E0
5.506302413E0,-2.530409992E-1,3.830310822E0,9.001200676E0
5.526412256E0,-7.776673883E-2,3.763311863E0,9.253045082E0
5.546522100E0,-3.649054468E-2,3.765106440E0,9.713663101E0
5.566631944E0,-1.022931710E-1,3.821337700E0,1.025563812E1
5.586741788E0,2.991028316E-2,3.883551121E0,1.075274658E1
5.606851683E0,8.195417374E-2,4.103092670E0,1.109252739E1
5.626961527E0,-2.973082066E-1,4.435695171E0,1.121755219E1
5.647071371E0,-4.235295951E-1,4.520041943E0,1.057089233E1
5.667181215E0,-8.913264424E-2,4.615755081E0,1.007617569E1
5.687291058E0,7.477570772E-1,4.877768993E0,1.054217815E1
5.707400954E0,1.682154298E0,4.808377266E0,1.134078312E1
5.727510798E0,1.827518344E0,4.359124660E0,1.167876911E1
5.747620642E0,1.168295622E0,3.803989887E0,1.190010548E1
5.767730486E0,1.033699393E0,3.403192043E0,1.236550903E1
5.787840329E0,1.666002750E0,3.061018467E0,1.273699474E1
5.807950225E0,2.039881229E0,2.911466837E0,1.247498131E1
5.828060069E0,1.726421595E0,2.900699139E0,1.146520996E1
5.848169913E0,1.266401410E0,2.885744095E0,1.025324535E1
5.868279756E0,1.339382529E0,2.773281336E0,9.427721024E0
5.888389600E0,1.676172256E0,2.701496840E0,8.936594009E0
5.908499444E0,1.531406522E0,2.762513638E0,8.582456589E0
5.928609340E0,1.155733347E0,2.742773056E0,8.079963684E0
5.948719183E0,8.237292171E-1,2.675773859E0,7.387241840E0
5.968829027E0,4.923232496E-1,2.589632273E0,6.742375851E0
5.988938871E0,2.285145670E-1,2.539382935E0,6.309873104E0
6.009048715E0,0.000000000E0,2.580060959E0,6.092126369E0
6.029158611E0,-2.153540403E-1,2.647060156E0,6.099903107E0
6.049268454E0,-3.391826153E-1,2.784647465E0,6.275177479E0
6.069378298E0,-3.960121572E-1,3.054438114E0,6.562914371E0
6.089488142E0,-3.290131092E-1,3.459423304E0,6.960721016E0
6.109597986E0,1.692921966E-1,3.956532240E0,7.578069210E0
6.129707881E0,1.036690354E0,4.310071945E0,8.257631302E0
6.149817725E0,1.374676585E0,4.575675011E0,8.682356834E0
6.169927569E0,1.116251707E0,4.462016106E0,8.159524918E0
6.190037413E0,4.265206456E-1,4.222135544E0,7.373483181E0
6.210147256E0,-1.244267747E-1,4.017549038E0,7.404589653E0
6.230257100E0,-4.642075896E-1,3.939184189E0,8.193622589E0
6.250366996E0,-4.360919297E-1,3.936791420E0,8.955737114E0
6.270476840E0,-3.044866920E-1,3.992424488E0,9.455837250E0
6.290586683E0,-1.668993831E-1,3.993022680E0,9.674181938E0
6.310696527E0,-1.196411327E-1,3.961916208E0,9.815957069E0
6.330806371E0,-3.457628787E-1,3.943371773E0,1.010369396E1
6.350916215E0,-9.020941257E-1,4.257429600E0,1.020000458E1
6.371026111E0,-1.333998680E0,4.792823792E0,1.000857925E1
6.391135954E0,-1.328016520E0,5.095515728E0,1.015454102E1
6.411245798E0,-1.149751306E0,5.230112076E0,1.085264683E1
6.431355642E0,-1.004387259E0,5.022534847E0,1.179781246E1
6.451465486E0,-8.901300430E-1,4.542175770E0,1.246840096E1
6.471575329E0,-5.162515044E-1,3.927818298E0,1.289252853E1
6.491685225E0,-7.477571070E-2,3.560520172E0,1.336092377E1
6.511795069E0,3.589234129E-2,3.358326674E0,1.319581890E1
6.531904913E0,-5.587241054E-1,3.376272678E0,1.187916756E1
6.552014756E0,-1.450648785E0,3.507878065E0,1.048953629E1
6.572124600E0,-1.561316729E0,3.351148129E0,9.613762856E0
6.592234444E0,-1.058824062E0,3.133999348E0,9.471988678E0
6.612344340E0,-8.638089895E-1,2.996412039E0,9.668199539E0
6.632454183E0,-1.150947690E0,2.810968399E0,9.350552559E0
6.652564027E0,-1.370489120E0,2.629712105E0,8.642276764E0
6.672673871E0,-1.205982566E0,2.492722988E0,8.120641708E0
6.692783715E0,-8.189435601E-1,2.468196630E0,7.924430370E0
6.712893611E0,-5.054838061E-1,2.471785784E0,7.763513088E0
6.733003454E0,-4.414757788E-1,2.496910334E0,7.497311592E0
6.753113298E0,-3.888336718E-1,2.560320139E0,7.190432072E0
6.773223142E0,-2.859423161E-1,2.655434847E0,6.917052269E0
6.793332986E0,-2.440679073E-1,2.819941521E0,6.714858532E0
6.813442829E0,-2.195414752E-1,3.001197815E0,6.580860615E0
6.833552725E0,-1.304088384E-1,3.174677372E0,6.471987247E0
6.853662569E0,-5.682953820E-2,3.369094372E0,6.480959892E0
6.873772413E0,-3.708875179E-2,3.538386583E0,6.768697262E0
6.893882256E0,1.974078640E-2,3.650250912E0,7.356733322E0
6.913992100E0,-9.571290575E-3,3.796213150E0,7.930412292E0
6.934101944E0,-8.075776696E-2,3.948755503E0,8.355138779E0
6.954211840E0,-1.657029688E-1,4.109673023E0,8.781659126E0
6.974321683E0,-1.561316848E-1,4.176073551E0,9.111868858E0
6.994431527E0,-1.483550072E-1,4.281956196E0,9.199805260E0
7.014541371E0,-8.255238086E-2,4.325624943E0,9.232706070E0
7.034651215E0,4.007977992E-2,4.256831646E0,9.671789169E0
7.054761058E0,2.338984162E-1,4.044468403E0,1.045125103E1
7.074870954E0,1.016949639E-1,4.141377926E0,1.124447155E1
7.094980798E0,2.356930375E-1,4.233501434E0,1.141137123E1
7.115090642E0,5.216353536E-1,4.370490551E0,1.108774185E1
7.135200486E0,7.016952634E-1,4.607978344E0,1.076052380E1
7.155310329E0,8.644071817E-1,4.692923546E0,1.026879883E1
7.175420173E0,7.878368497E-1,4.638486862E0,1.008455086E1
7.195530069E0,7.914260626E-1,4.435096741E0,1.065942669E1
7.215639913E0,1.129412293E0,3.922434568E0,1.155972576E1
7.235749756E0,1.552941918E0,3.409772158E0,1.230389404E1
7.255859600E0,1.849651933E0,3.129213810E0,1.277528000E1
7.275969444E0,1.745564103E0,2.918047190E0,1.266521072E1
7.296079288E0,1.262213945E0,2.866003275E0,1.184806156E1
7.316189131E0,1.061216831E0,2.787040234E0,1.114098263E1
7.336299027E0,1.290927768E0,2.659024239E0,1.065165043E1
7.356408871E0,1.323829174E0,2.667997360E0,1.017009449E1
7.376518715E0,1.010369420E0,2.749951363E0,9.421739578E0
7.396628558E0,6.239284873E-1,2.868396044E0,8.524430275E0
7.416738402E0,4.911268353E-1,2.927020311E0,7.772486210E0
7.436848246E0,5.670989752E-1,2.934797049E0,7.324429989E0
7.456958142E0,5.150550604E-1,2.897109985E0,7.243073940E0
7.477067986E0,3.696911037E-1,2.826521635E0,7.209574699E0
7.497177829E0,3.361915946E-1,2.817548752E0,7.215556622E0
7.517287673E0,3.649054468E-1,2.764906645E0,7.184450150E0
7.537397517E0,3.481557071E-1,2.746362209E0,7.028916359E0
7.557507361E0,2.841476798E-1,2.824727058E0,6.728617191E0
7.577617256E0,1.986042857E-1,2.991626501E0,6.300302029E0
7.597727100E0,1.333998591E-1,3.214757204E0,6.105287075E0
7.617836944E0,1.040877849E-1,3.391826153E0,6.327819347E0
7.637946788E0,7.477571070E-2,3.518047571E0,6.982256413E0
7.658056631E0,1.674975827E-2,3.623929977E0,7.588837147E0
7.678166475E0,1.076770201E-1,3.789632797E0,7.792226791E0
7.698276371E0,3.320041299E-1,3.954737663E0,7.828717709E0
7.718386215E0,5.952146053E-1,3.994219303E0,8.173283577E0
7.738496058E0,6.765705943E-1,3.959523201E0,8.892327309E0
7.758605902E0,6.514459848E-1,3.835694790E0,9.549157143E0
7.778715746E0,4.725824594E-1,3.832703590E0,9.972686768E0
7.798825590E0,4.031906128E-1,3.891327858E0,1.010189915E1
7.818935486E0,5.006981492E-1,4.052245140E0,9.893723488E0
7.839045329E0,4.187439680E-1,4.299304008E0,9.490532875E0
7.859155173E0,2.135594189E-1,4.418945312E0,9.375079155E0
7.879265017E0,-1.441675574E-1,4.467998028E0,9.872786522E0
7.899374861E0,-4.157529473E-1,4.546362877E0,1.054337502E1
7.919484704E0,-4.660021961E-1,4.471587181E0,1.115593719E1
7.939594548E0,-5.060819983E-1,4.365106583E0,1.165244770E1
7.959704444E0,-3.008974493E-1,4.144368649E0,1.204008579E1
7.979814288E0,-3.589233849E-3,3.891327858E0,1.255514050E1
7.999924131E0,1.734796464E-1,3.644867182E0,1.295234871E1
8.020033975E0,2.691925503E-2,3.464807272E0,1.283330631E1
8.040143819E0,-3.756731451E-1,3.279363394E0,1.204846001E1
8.060253663E0,-7.483552694E-1,3.190829039E0,1.106261730E1
8.080363558E0,-9.792626500E-1,3.087937593E0,1.030289650E1
8.100473402E0,-1.160519004E0,2.949153900E0,9.752547264E0
8.120583246E0,-1.249651670E0,2.763710260E0,9.556335449E0
8.140693090E0,-1.057029366E0,2.517249346E0,9.663414001E0
8.160802933E0,-7.328019142E-1,2.240280151E0,9.756135941E0
8.180912777E0,-5.288137794E-1,2.059023857E0,9.655039787E0
8.201022621E0,-5.593222976E-1,2.048256159E0,9.220144272E0
8.221132517E0,-6.263213158E-1,2.099701881E0,8.643473625E0
8.241242361E0,-6.388836503E-1,2.131406784E0,8.134400368E0
8.261352204E0,-5.808576941E-1,2.164308071E0,7.829315662E0
8.281462048E0,-4.570291340E-1,2.271386862E0,7.694719315E0
8.301571892E0,-2.225325108E-1,2.395813704E0,7.598408222E0
8.321681736E0,-1.076770201E-2,2.572882652E0,7.509873867E0
8.341791631E0,2.991028316E-2,2.782852650E0,7.343572617E0
8.361901475E0,8.075776696E-2,2.959323406E0,7.114459991E0
8.382011319E0,1.836491376E-1,3.102892876E0,7.082156658E0
8.402121163E0,3.038884699E-1,3.147758245E0,7.307680130E0
8.422231006E0,2.069791555E-1,3.231507063E0,7.620542049E0
8.442340850E0,6.460621208E-2,3.345165968E0,7.808378696E0
8.462450746E0,-2.452643216E-2,3.464209080E0,7.758129120E0
8.482560590E0,-6.580262445E-3,3.560520172E0,7.792226791E0
8.502670433E0,1.471585929E-1,3.611367464E0,8.197212219E0
8.522780277E0,3.481557071E-1,3.689732552E0,8.784051895E0
8.542890121E0,4.725824594E-1,3.707080364E0,9.185447693E0
8.562999965E0,2.614158690E-1,3.796213150E0,9.464810371E0
8.583109861E0,-2.093719877E-2,3.910470486E0,9.905089378E0
8.603219704E0,-2.057827413E-1,3.970889091E0,1.016411209E1
8.623329548E0,-2.249253243E-1,4.162314892E0,1.019581699E1
8.643439392E0,8.913264424E-2,4.243670940E0,1.049671459E1
8.663549236E0,8.614161611E-2,4.275375843E0,1.120917797E1
8.683659079E0,-6.759724021E-2,4.384847641E0,1.194197941E1
8.703768923E0,1.208375469E-1,4.358526230E0,1.192223835E1
8.723878819E0,3.068794906E-1,4.505086899E0,1.134138107E1
8.743988663E0,5.138586760E-1,4.472783566E0,1.115414238E1
8.764098506E0,9.122636318E-1,4.051646709E0,1.167458153E1
8.784208350E0,1.383051515E0,3.478565931E0,1.275673580E1
8.804318194E0,1.728216171E0,2.871387243E0,1.363011551E1
8.824428038E0,1.438684583E0,2.480160713E0,1.368814182E1
8.844537933E0,7.818548083E-1,2.416152716E0,1.267717457E1
8.864647777E0,8.303094506E-1,2.417349100E0,1.132582760E1
8.884757621E0,1.175474167E0,2.450848579E0,1.049432182E1
8.904867465E0,1.527817249E0,2.383849621E0,1.020299530E1
8.924977308E0,1.621735573E0,2.233101845E0,1.014018440E1
8.945087204E0,1.252044439E0,2.200200319E0,9.738788605E0
8.965197048E0,9.104689956E-1,2.294716835E0,8.751749039E0
8.985306892E0,7.974081635E-1,2.386840582E0,7.514659405E0
9.005416736E0,7.818548083E-1,2.450250387E0,6.457630157E0
9.025526579E0,7.818548083E-1,2.472383976E0,5.819942951E0
9.045636423E0,6.795616150E-1,2.465205431E0,5.432305813E0
9.065746267E0,5.413761139E-1,2.480160713E0,5.156532764E0
9.085856163E0,3.954139352E-1,2.602194548E0,4.957330227E0
9.105966006E0,2.901297510E-1,2.785843849E0,4.975874901E0
9.126075850E0,2.835494876E-1,2.984447956E0,5.203791142E0
9.146185694E0,1.435693651E-1,3.220141172E0,5.607579708E0
9.166295538E0,-7.178467698E-3,3.456432343E0,6.022734642E0
9.186405381E0,1.130608693E-1,3.646661758E0,6.436692715E0
9.206515277E0,3.152543902E-1,3.812962770E0,6.905087948E0
9.226625121E0,5.030909777E-1,3.882952929E0,7.514061451E0
9.246734965E0,9.008977413E-1,3.711267948E0,8.313861847E0
9.266844808E0,1.099501967E0,3.546163082E0,9.241081238E0
9.286954652E0,9.332008362E-1,3.419941664E0,1.005882835E1
9.307064548E0,5.306084156E-1,3.414557934E0,1.034776115E1
9.327174392E0,3.158525825E-1,3.491128206E0,1.025204849E1
9.347284236E0,5.359922647E-1,3.583251953E0,1.032323551E1
9.367394079E0,8.021938205E-1,3.647259951E0,1.057866859E1
9.387503923E0,6.221339107E-1,3.764508247E0,1.061216831E1
9.407613767E0,5.270192027E-1,3.897309780E0,1.043270683E1
9.427723663E0,2.171486616E-1,4.182055950E0,1.083589745E1
9.447833506E0,-2.937189937E-1,4.363910198E0,1.179900837E1
9.467943350E0,-6.329016089E-1,4.385445595E0,1.275135231E1
9.488053194E0,-3.978067636E-1,4.055236340E0,1.332383442E1
9.508163038E0,3.948157430E-1,3.460021496E0,1.411944866E1
9.528272933E0,1.012762189E0,3.107080221E0,1.530509186E1
9.548382777E0,1.074975610E0,2.647658348E0,1.581057549E1
9.568492621E0,1.956132501E-1,2.246262312E0,1.498445320E1
9.588602465E0,-7.441678643E-1,2.341975212E0,1.288953781E1
9.608712308E0,-1.200000525E0,2.649452925E0,1.067617607E1
9.628822152E0,-1.130010486E0,2.627917528E0,9.080761909E0
9.648932048E0,-8.847461939E-1,2.471187592E0,8.569893837E0
9.669041892E0,-6.478567123E-1,2.201995134E0,8.972486496E0
9.689151736E0,-6.221339107E-1,1.862214208E0,9.095717430E0
9.709261579E0,-9.972088337E-1,1.668395638E0,8.514261246E0
9.729371423E0,-1.341775298E0,1.593021631E0,7.795815945E0
9.749481267E0,-1.255633712E0,1.573879123E0,7.402794838E0
9.769591163E0,-8.075776696E-1,1.677368641E0,7.232306480E0
9.789701006E0,-1.938186288E-1,1.846062660E0,7.016952515E0
9.809810850E0,2.350948304E-1,1.969891191E0,6.549155712E0
9.829920694E0,2.213360965E-1,2.090728760E0,6.145366669E0
9.850030538E0,-2.931207791E-2,2.231905222E0,6.129215240E0
9.870140433E0,-2.309073806E-1,2.325823545E0,6.476174355E0
9.890250277E0,-2.159522474E-1,2.380260229E0,6.755536556E0
9.910360121E0,-8.673982322E-2,2.555534601E0,6.822535515E0
9.930469965E0,2.452643216E-2,2.807977438E0,6.722036839E0
9.950579808E0,3.529413417E-2,3.057429075E0,6.779464722E0
9.970689652E0,-8.554340899E-2,3.361915827E0,7.048058987E0
9.990799548E0,-1.016949639E-1,3.603590965E0,7.362715244E0
1.001090939E1,-7.058826834E-2,3.739383698E0,7.697112083E0
1.003101924E1,-4.067798331E-2,3.810570002E0,8.218149185E0
1.005112908E1,1.046859920E-1,3.809373617E0,8.972486496E0
1.007123892E1,3.373879790E-1,3.677768469E0,1.016889763E1
1.009134877E1,8.057830334E-1,3.405584812E0,1.192702484E1
1.011145866E1,1.107278705E0,3.189034462E0,1.313360500E1
1.013156851E1,8.027920127E-1,3.607180119E0,1.311446285E1
1.015167835E1,8.913264275E-1,4.018147469E0,1.245643616E1
1.017178819E1,1.326221943E0,4.036691666E0,1.212862015E1
1.019189809E1,2.545963287E0,3.784249067E0,1.252582836E1
1.021200793E1,3.842274904E0,3.373281717E0,1.371027565E1
1.023211778E1,3.833301783E0,2.888735056E0,1.499581909E1
1.025222762E1,2.807977438E0,2.525624275E0,1.479362583E1
1.027233747E1,1.629512191E0,2.341377020E0,1.368814182E1
1.029244731E1,1.249053478E0,2.318047047E0,1.286082363E1
1.031255720E1,1.345962763E0,2.370090723E0,1.233021545E1
1.033266705E1,1.303490162E0,2.569891453E0,1.160698414E1
1.035277689E1,1.348355532E0,2.578266382E0,1.063789082E1
1.037288674E1,1.291526079E0,2.455634356E0,9.659226418E0
1.039299658E1,1.082154036E0,2.260020971E0,8.874381065E0
1.041310648E1,7.698906660E-1,2.048256159E0,8.270791054E0
1.043321632E1,4.654040039E-1,1.931007862E0,7.707281590E0
1.045332616E1,4.211367965E-1,1.850250125E0,7.109076023E0
1.047343601E1,5.736792088E-1,1.847259045E0,6.549753666E0
1.049354585E1,7.932206988E-1,1.898106575E0,6.109474182E0
1.051365575E1,9.188438654E-1,1.996212244E0,5.720640659E0
1.053376559E1,9.379864931E-1,2.090130568E0,5.373083115E0
1.055387543E1,8.219345808E-1,2.258824587E0,5.111667156E0
1.057398528E1,8.027920127E-1,2.455634356E0,5.070391178E0
1.059409512E1,7.028916478E-1,2.692523718E0,5.447858810E0
1.061420502E1,5.862415433E-1,2.885744095E0,6.035895348E0
1.063431486E1,4.295116663E-1,3.092723370E0,6.506682873E0
1.065442470E1,2.027917206E-1,3.387040377E0,6.791429043E0
1.067453455E1,1.328016520E-1,3.650849104E0,7.203592777E0
1.069464439E1,4.319044948E-1,3.787838221E0,7.764111042E0
1.071475424E1,8.009973764E-1,3.805784464E0,8.464610100E0
1.073486413E1,1.132403374E0,3.683152199E0,9.212367058E0
1.075497398E1,1.231705427E0,3.649652719E0,9.827322960E0
1.077508382E1,1.022333503E0,3.835694790E0,1.002173901E1
1.079519366E1,8.470591903E-1,4.038486481E0,9.626325607E0
1.081530351E1,6.957131624E-1,4.207778454E0,8.969495773E0
1.083541340E1,6.514459848E-1,4.328616142E0,8.793025017E0
1.085552325E1,6.508477330E-1,4.272384644E0,9.419944763E0
1.087563309E1,2.847459018E-1,4.103092670E0,1.064148045E1
1.089574293E1,-1.537388563E-1,4.116253376E0,1.180379391E1
1.091585283E1,-4.043870270E-1,4.343571186E0,1.236251831E1
1.093596267E1,-2.638086975E-1,4.601397991E0,1.207777214E1
1.095607252E1,2.638086975E-1,4.690530777E0,1.153101254E1
1.097618236E1,6.053841114E-1,4.540380955E0,1.167159081E1
1.099629220E1,7.525427341E-1,3.863810301E0,1.286441231E1
1.101640210E1,9.242277741E-1,2.900100946E0,1.429352570E1
1.103651194E1,7.154539824E-1,2.152942181E0,1.508854103E1
1.105662179E1,-1.070788130E-1,1.848455548E0,1.429113293E1
1.107673163E1,-6.544370055E-1,1.935195327E0,1.188574791E1
1.109684148E1,-9.044869542E-1,2.332403898E0,9.433703423E0
1.111695137E1,-7.369893789E-1,2.401795626E0,8.032705307E0
1.113706122E1,-4.480560422E-1,2.107478619E0,8.220541954E0
1.115717106E1,-3.708875179E-1,1.590030670E0,9.588040352E0
1.117728090E1,-4.558327198E-1,1.198205948E0,1.037946606E1
1.119739080E1,-9.284151793E-1,1.065404296E0,1.012642574E1
1.121750064E1,-1.074377418E0,1.030708313E0,8.972486496E0
1.123761049E1,-9.128618240E-1,1.274178028E0,7.789236069E0
1.125772033E1,-5.054838061E-1,1.577468276E0,6.973283291E0
1.127783017E1,-1.435693540E-2,1.849651933E0,6.713063717E0
1.129794002E1,2.213360965E-1,2.049452543E0,7.042077065E0
1.131804991E1,7.118647546E-2,1.966900229E0,7.575078487E0
1.133815976E1,-3.296113312E-1,1.924427629E0,7.835896015E0
1.135826960E1,-4.564309120E-1,2.191825628E0,7.776673794E0
1.137837944E1,-1.734796353E-2,2.480758905E0,7.760521889E0
1.139848929E1,5.084748268E-1,2.714657307E0,7.986045361E0
1.141859918E1,7.501499057E-1,2.838485956E0,8.397012711E0
1.143870903E1,5.533402562E-1,2.900699139E0,8.742177963E0
1.145881887E1,2.213360965E-1,2.992822886E0,8.699705124E0
1.147892872E1,7.178468257E-2,3.143570662E0,8.481359482E0
1.149903861E1,2.721835673E-1,3.162713289E0,8.683553696E0
1.151914845E1,6.526423693E-1,3.083152056E0,9.303893089E0
1.153925830E1,7.483552694E-1,3.110071182E0,9.734601021E0
1.155936814E1,6.945167780E-1,3.058027267E0,9.654440880E0
1.157947799E1,4.719842672E-1,3.022733212E0,9.471389771E0
1.159958788E1,3.463610709E-1,3.058625460E0,9.535398483E0
1.161969772E1,4.342973232E-1,3.068794966E0,9.773484230E0
1.163980757E1,3.056831062E-1,3.327818155E0,9.778269768E0
1.165991741E1,4.414757788E-1,3.568894863E0,9.460622787E0
1.168002731E1,1.004387259E0,3.586841106E0,9.228518486E0
1.170013715E1,1.507478237E0,3.458226919E0,9.642477036E0
1.172024700E1,1.297508121E0,3.147160053E0,1.055174923E1
1.174035684E1,6.681957245E-1,2.897708178E0,1.075932693E1
1.176046674E1,3.332005441E-1,2.920439959E0,9.948758125E0
1.178057658E1,4.378865361E-1,3.063411236E0,8.979066849E0
1.180068642E1,5.958128572E-1,3.210569859E0,8.435895920E0
1.182079627E1,8.033902049E-1,3.353540897E0,8.316853523E0
1.184090611E1,9.044869542E-1,3.456432343E0,8.542376518E0
1.186101601E1,8.063812256E-1,3.470789194E0,8.811569214E0
1.188112585E1,5.473581553E-1,3.501297712E0,8.766105652E0
1.190123569E1,4.067798555E-1,3.676572084E0,8.526823044E0
1.192134554E1,5.090730190E-1,3.865604877E0,8.318049431E0
1.194145538E1,9.290133715E-1,3.880560160E0,8.471788406E0
1.196156528E1,1.275374413E0,3.719044685E0,9.177671432E0
1.198167512E1,1.299302697E0,3.515056372E0,9.636494637E0
1.200178496E1,7.860422134E-1,3.471387386E0,9.366703987E0
1.202189481E1,1.800599098E-1,3.537788391E0,8.795417786E0
1.204200470E1,3.349951655E-2,3.584448338E0,8.512466431E0
1.206211455E1,2.219343036E-1,3.654438496E0,8.712865829E0
1.208222439E1,6.394818425E-1,3.673580885E0,9.108279228E0
1.210233424E1,9.373882413E-1,3.702294827E0,9.433703423E0
1.212244408E1,9.702895880E-1,3.788436413E0,9.425328255E0
1.214255398E1,8.237292171E-1,3.846462488E0,9.263813019E0
1.216266382E1,7.417750359E-1,3.801596880E0,9.387641907E0
1.218277366E1,7.423732281E-1,3.747758389E0,9.645467758E0
1.220288351E1,5.635097623E-1,3.705285788E0,9.825528145E0
1.222299340E1,3.385843933E-1,3.653840065E0,9.889535904E0
1.224310325E1,2.219343036E-1,3.614358664E0,9.814760208E0
1.226321309E1,2.195414752E-1,3.633501291E0,9.538987160E0
1.228332293E1,3.296113312E-1,3.749552965E0,9.257830620E0
1.230343283E1,4.881358147E-1,3.820141315E0,9.068199158E0
1.232354267E1,6.323033571E-1,3.876372576E0,8.787641525E0
1.234365252E1,6.843472719E-1,4.022933006E0,8.404789925E0
1.236376236E1,7.399803996E-1,4.106681824E0,8.182855606E0
1.238387226E1,7.465606928E-1,4.110869408E0,8.416155815E0
1.240398210E1,7.752745152E-1,4.033102512E0,8.927620888E0
1.242409194E1,7.639086246E-1,3.976871252E0,9.240483284E0
1.244420179E1,7.339983582E-1,4.010969162E0,9.096913338E0
1.246431168E1,7.220342159E-1,4.089334011E0,8.850452423E0
1.248442153E1,8.356932998E-1,4.095315933E0,8.739784241E0
1.250453137E1,9.206385016E-1,4.123431683E0,8.881559372E0
1.252464122E1,9.732806087E-1,4.047459602E0,9.127422333E0
1.254475111E1,9.690931439E-1,3.989433527E0,9.281160355E0
1.256486095E1,8.159525394E-1,3.968496323E0,9.410373688E0
1.258497080E1,6.849454641E-1,3.894917011E0,9.372686386E0
1.260508064E1,5.485545993E-1,3.879961967E0,9.314062119E0
1.262519054E1,5.742774606E-1,3.907479286E0,9.366106033E0
1.264530038E1,5.479564071E-1,3.954737663E0,9.375079155E0
1.266541022E1,5.078766346E-1,4.040879250E0,9.148359299E0
1.268552007E1,6.263213158E-1,4.073780537E0,8.709874153E0
1.270562991E1,6.855437160E-1,4.082753658E0,8.506484032E0
1.272573981E1,6.975077987E-1,4.042075634E0,8.708079338E0
1.274584965E1,6.448656917E-1,3.956532240E0,9.104091644E0
1.276595950E1,5.150550604E-1,3.882952929E0,9.317052841E0
1.278606939E1,4.725824594E-1,3.867997885E0,9.202795982E0
1.280617924E1,5.623133183E-1,3.926023722E0,8.997611046E0
1.282628908E1,7.381857634E-1,3.948755503E0,8.907281876E0
1.284639892E1,7.758727670E-1,3.937987804E0,8.928817749E0
1.286650882E1,6.203392744E-1,3.941577196E0,8.958727837E0
1.288661866E1,5.306084156E-1,3.909872293E0,8.916853905E0
1.290672851E1,4.929214716E-1,3.885345697E0,8.941978455E0
1.292683835E1,5.461617708E-1,3.841676712E0,9.143573761E0
1.294694825E1,6.023930907E-1,3.818944931E0,9.388837814E0
1.296705809E1,5.389832854E-1,3.819543123E0,9.449854851E0
1.298716793E1,4.827519655E-1,3.838087559E0,9.340981483E0
1.300727778E1,4.899304509E-1,3.859622955E0,9.192625999E0
1.302738767E1,5.072783828E-1,3.891926050E0,9.150154114E0
1.304749752E1,4.510470629E-1,3.890131474E0,9.221938133E0
1.306760736E1,4.767699242E-1,3.835694790E0,9.228518486E0
1.308771720E1,5.138586760E-1,3.827918053E0,9.231510162E0
1.310782710E1,5.276173949E-1,3.820739508E0,9.219545364E0
1.312793694E1,5.312066078E-1,3.850649834E0,9.034700394E0
1.314804679E1,5.210371017E-1,3.828516245E0,8.907281876E0
1.316815663E1,4.869394004E-1,3.805186272E0,8.928817749E0
1.318826653E1,4.594219327E-1,3.848257065E0,9.034101486E0
1.320837637E1,6.023930907E-1,3.814159393E0,9.108877182E0
1.322848622E1,6.394818425E-1,3.812364578E0,9.174679756E0
1.324859611E1,3.966103494E-1,3.838087559E0,9.226723671E0
1.326870595E1,3.056831062E-1,3.750151396E0,9.087940216E0
1.328881580E1,3.008974493E-1,3.751945972E0,9.056235313E0
1.330892564E1,4.923232496E-1,3.754338741E0,9.166305542E0
1.332903554E1,6.329016089E-1,3.794418573E0,9.318249702E0
1.334914538E1,6.789634228E-1,3.841676712E0,9.330213547E0
1.336925523E1,7.716853023E-1,3.820739508E0,9.206384659E0
1.338936507E1,6.586244106E-1,3.868596077E0,9.083154678E0
1.340947497E1,5.330012441E-1,3.909274101E0,9.083154678E0
1.342958481E1,5.048855543E-1,3.867399693E0,9.153742790E0
1.344969465E1,4.983053207E-1,3.851846218E0,9.175876617E0
1.346980450E1,4.851447940E-1,3.831507206E0,9.141778946E0
1.348991439E1,4.474578202E-1,3.806980848E0,9.169894218E0
1.351002424E1,4.091726840E-1,3.805186272E0,9.209974289E0
1.353013408E1,4.307080805E-1,3.816552162E0,9.201001167E0
1.355024398E1,4.965106845E-1,3.821935892E0,9.226723671E0
1.357035382E1,5.000999570E-1,3.820739508E0,9.221938133E0
1.359046366E1,4.133601189E-1,3.824328899E0,9.116056442E0
1.361057351E1,3.894318938E-1,3.806382656E0,9.164510727E0
1.363068340E1,4.372883439E-1,3.782454491E0,9.263813019E0
1.365079325E1,4.408775866E-1,3.833301783E0,9.247062683E0
1.367090309E1,5.270192027E-1,3.875176191E0,9.187242508E0
1.369101299E1,5.736792088E-1,3.836292982E0,9.144171715E0
1.371112283E1,3.966103494E-1,3.894318819E0,9.035298347E0
1.373123267E1,3.433700502E-1,3.936791420E0,8.949156761E0
1.375134252E1,4.600201547E-1,3.900899172E0,9.092725754E0
1.377145241E1,4.791627228E-1,3.831507206E0,9.288339615E0
1.379156226E1,3.792623878E-1,3.798605919E0,9.223732948E0
1.381167210E1,3.320041299E-1,3.790829182E0,9.102297783E0
1.383178194E1,4.462614357E-1,3.792025566E0,9.049654961E0
1.385189184E1,4.881358147E-1,3.818944931E0,9.075378418E0
1.387200168E1,5.108676553E-1,3.830909014E0,9.089137077E0
1.389211153E1,5.240281820E-1,3.810570002E0,9.162715912E0
1.391222142E1,5.300102234E-1,3.809971809E0,9.222537041E0
1.393233127E1,4.809573591E-1,3.866203070E0,9.029914856E0
1.395244111E1,4.833501875E-1,3.923032761E0,8.868997574E0
1.397255095E1,4.654040039E-1,3.916452408E0,9.022137642E0
1.399266085E1,4.809573591E-1,3.865006685E0,9.219545364E0
1.401277069E1,4.953143001E-1,3.872783422E0,9.224929810E0
1.403288054E1,4.265206456E-1,3.899702787E0,9.182456970E0
1.405299043E1,4.354937077E-1,3.865006685E0,9.181260109E0
1.407310028E1,4.809573591E-1,3.883551121E0,8.774480820E0
1.409321012E1,4.624129832E-1,3.979264021E0,8.059026718E0
1.411332002E1,4.061816335E-1,3.750749588E0,9.951749802E0
1.413342986E1,8.141579032E-1,3.615555048E0,9.946963310E0
1.415353970E1,3.409772217E-1,3.667598963E0,9.393623352E0
1.417364955E1,4.797609448E-1,3.631108284E0,9.678967476E0
1.419375944E1,3.026920557E-1,3.749552965E0,9.402596474E0
