"Time (s)","Acceleration x (m/s^2)","Acceleration y (m/s^2)","Acceleration z (m/s^2)"
1.469720900E-2,-8.500502706E-1,3.148356438E0,9.025727272E0
3.480616700E-2,-3.158525825E-1,3.214757204E0,1.021017456E1
5.491517700E-2,-1.339980662E-1,3.297309637E0,1.039801121E1
7.502413600E-2,-4.701896608E-1,3.297907829E0,9.434301376E0
9.513314600E-2,-8.464609981E-1,3.221337557E0,8.739186287E0
1.152421040E-1,-8.404789567E-1,3.117847919E0,9.026923180E0
1.353511150E-1,-3.810569942E-1,3.061018467E0,1.039621639E1
1.554600730E-1,9.930214286E-2,2.994617462E0,1.041835022E1
1.755690840E-1,-1.734796353E-2,3.102892876E0,9.482157707E0
1.956780420E-1,-2.021935135E-1,3.246462107E0,8.936594009E0
2.157870520E-1,-5.024927482E-2,2.971885681E0,8.886942863E0
2.358960630E-1,6.520441920E-2,2.684746981E0,9.338588715E0
2.560050210E-1,-2.763710022E-1,2.974876642E0,1.068455124E1
2.761140310E-1,-4.971089065E-1,3.117847919E0,1.041356373E1
2.962229900E-1,-7.178468108E-1,3.039483070E0,9.387641907E0
3.163320000E-1,-6.532405615E-1,2.962912560E0,8.746963501E0
3.364409590E-1,-3.481557071E-1,3.170490026E0,8.771489143E0
3.565499690E-1,1.495514158E-2,3.299104214E0,8.788837433E0
3.766589270E-1,4.666004330E-2,3.363112211E0,8.820542336E0
3.967679380E-1,9.631111473E-2,3.060420275E0,9.047262192E0
4.168769480E-1,2.482553422E-1,2.591426849E0,9.217751503E0
4.369859060E-1,1.914258152E-1,2.501696110E0,9.552147865E0
4.570949170E-1,2.327020019E-1,2.679363251E0,9.894321442E0
4.772038750E-1,5.240281820E-1,2.781656265E0,9.812367439E0
4.973128860E-1,7.495517135E-1,2.719442844E0,9.692128181E0
5.174218440E-1,6.759724021E-1,2.682952404E0,9.588638306E0
5.375308540E-1,4.097708762E-1,2.685345173E0,9.745966911E0
5.576398650E-1,2.859423161E-1,2.453839540E0,9.768099785E0
5.777488230E-1,7.322037220E-1,2.727219582E0,9.743574142E0
5.978578340E-1,9.541380405E-1,2.995215654E0,9.567103386E0
6.179667920E-1,9.320043921E-1,2.774477959E0,9.241679192E0
6.380758020E-1,5.048855543E-1,2.757129908E0,9.463613510E0
6.581848130E-1,5.431707501E-1,2.781656265E0,9.537193298E0
6.782937710E-1,9.236295223E-1,2.713460922E0,9.582656860E0
6.984027810E-1,7.507480979E-1,2.684746981E0,9.769894600E0
7.185117400E-1,7.423732281E-1,2.636292458E0,1.002592659E1
7.386207500E-1,7.830511928E-1,2.639881611E0,9.876974106E0
7.587297610E-1,9.152546525E-1,2.724228621E0,9.303294182E0
7.788387190E-1,9.332008362E-1,2.821736097E0,9.208778381E0
7.989477290E-1,9.260223508E-1,2.769093990E0,9.525228500E0
8.190567400E-1,8.805587292E-1,2.687737942E0,9.594022751E0
8.391656980E-1,8.219345808E-1,2.639283419E0,9.594022751E0
8.592747090E-1,8.303094506E-1,2.657229662E0,9.422935486E0
8.793837190E-1,7.782655358E-1,2.618346214E0,9.451649666E0
8.994926770E-1,8.273184299E-1,2.479562521E0,9.586245537E0
9.196016880E-1,8.135597110E-1,2.609373093E0,9.676574707E0
9.397106980E-1,7.986045480E-1,2.653640270E0,9.736394882E0
9.598196560E-1,7.872386575E-1,2.452643156E0,9.885348320E0
9.799286670E-1,6.472585201E-1,2.444866419E0,9.798010826E0
1.000037677E0,6.927221417E-1,2.510071039E0,9.546764374E0
1.020146636E0,1.050449133E0,2.711666346E0,8.916853905E0
1.040255646E0,8.548358679E-1,2.776272535E0,9.061619759E0
1.060364656E0,7.633104324E-1,2.490928411E0,9.635896683E0
1.080473667E0,8.027920127E-1,2.298904419E0,9.949356079E0
1.100582625E0,6.915257573E-1,2.385046005E0,9.824930191E0
1.120691636E0,8.751748800E-1,2.574079037E0,9.450452805E0
1.140800646E0,9.242277741E-1,2.574677229E0,9.444471359E0
1.160909604E0,9.637092948E-1,2.471785784E0,9.616754532E0
1.181018615E0,9.038887620E-1,2.414358139E0,9.653842926E0
1.201127625E0,6.406782866E-1,2.377867460E0,9.818947792E0
1.221236584E0,8.213363886E-1,2.368894339E0,9.699306488E0
1.241345594E0,9.900303483E-1,2.476571321E0,9.474979401E0
1.261454604E0,9.098708034E-1,2.474776745E0,9.510273933E0
1.281563615E0,8.069794178E-1,2.379662037E0,9.613762856E0
1.301672573E0,8.937192559E-1,2.444866419E0,9.497711182E0
1.321781584E0,8.829515576E-1,2.513660192E0,9.416355133E0
1.341890594E0,7.405785918E-1,2.484348059E0,9.461220741E0
1.361999604E0,7.328019142E-1,2.458625317E0,9.537193298E0
1.382108563E0,8.327022791E-1,2.413161755E0,9.649057388E0
1.402217573E0,8.913264275E-1,2.459223509E0,9.687940598E0
1.422326584E0,8.781659007E-1,2.484348059E0,9.555138588E0
1.442435594E0,9.050851464E-1,2.418545485E0,9.307481766E0
1.462544552E0,9.840483069E-1,2.514856577E0,9.156734467E0
1.482653563E0,1.016351461E0,2.481955290E0,9.229715347E0
1.502762573E0,1.209571838E0,2.263610125E0,9.588040352E0
1.522871584E0,1.174277663E0,2.131406784E0,1.004865837E1
1.542980542E0,1.119840980E0,2.105684042E0,1.011446095E1
1.563089552E0,1.124626637E0,2.126621008E0,9.662218094E0
1.583198563E0,9.702895880E-1,2.277369022E0,9.178867340E0
1.603307573E0,9.290133715E-1,2.396411896E0,8.882157326E0
1.623416584E0,1.283151150E0,2.245065928E0,9.008976936E0
1.643525542E0,1.681556106E0,1.926222205E0,1.011745262E1
1.663634552E0,1.556531072E0,1.905285001E0,1.054636574E1
1.683743563E0,1.238285661E0,2.002792597E0,1.005942631E1
1.703852573E0,1.123430252E0,2.188236237E0,9.305686951E0
1.723961584E0,1.071386337E0,2.323430777E0,9.048459053E0
1.744070594E0,1.058225870E0,2.328216314E0,9.268598557E0
1.764179552E0,1.167099237E0,2.230110645E0,9.629316330E0
1.784288563E0,1.218544960E0,2.146960020E0,9.927821159E0
1.804397573E0,1.141376376E0,2.075773716E0,9.967302322E0
1.824506584E0,1.145563841E0,2.060818434E0,9.632905960E0
1.844615594E0,1.106082320E0,2.216950178E0,9.313464165E0
1.864724604E0,9.517452121E-1,2.346760750E0,9.391230583E0
1.884833563E0,9.918249846E-1,2.236690998E0,1.001575756E1
1.904942573E0,1.160519004E0,2.079362869E0,1.022213840E1
1.925051584E0,1.127019525E0,2.049452543E0,9.985847473E0
1.945160594E0,8.380861282E-1,2.082952023E0,9.499505997E0
1.965269604E0,5.670989752E-1,2.166700840E0,8.937790871E0
1.985378615E0,6.329016089E-1,2.190629244E0,9.145368576E0
2.005487573E0,1.147956610E0,2.005783558E0,9.839884758E0
2.025596584E0,1.476371527E0,1.754537225E0,1.038425159E1
2.045705594E0,1.246062398E0,1.877169371E0,1.052722359E1
2.065814604E0,1.106680512E0,2.085345030E0,1.047039413E1
2.085923615E0,1.170688510E0,1.968096614E0,9.882357597E0
2.106032625E0,9.026923180E-1,2.064407825E0,9.394820213E0
2.126141636E0,7.010970116E-1,2.417349100E0,9.329615593E0
2.146250594E0,8.781659007E-1,2.334198475E0,9.468997002E0
2.166359656E0,1.131805062E0,2.175673962E0,9.686145782E0
2.186468615E0,1.237687469E0,2.115853310E0,9.615557671E0
2.206577625E0,1.153938770E0,1.994417667E0,9.349356651E0
2.226686636E0,1.103689432E0,2.062613010E0,9.326624870E0
2.246795646E0,1.115653515E0,2.286940336E0,9.286544800E0
2.266904656E0,1.185643673E0,2.280958176E0,9.083752632E0
2.287013667E0,1.355534077E0,2.056631088E0,9.154341698E0
2.307122677E0,1.543370605E0,2.075175524E0,9.584450722E0
2.327231688E0,1.465603828E0,2.235494614E0,9.982855797E0
2.347340698E0,1.343569875E0,2.490928411E0,1.003071213E1
2.367449709E0,1.201795220E0,2.468196630E0,9.662816048E0
2.387558719E0,1.097109199E0,2.477767944E0,9.379266739E0
2.407667677E0,1.006181955E0,2.586043119E0,9.515657425E0
2.427776688E0,1.228116274E0,2.438286304E0,9.651450157E0
2.447885698E0,1.438086390E0,2.226521492E0,9.839884758E0
2.467994709E0,1.457229018E0,2.236690998E0,1.026580715E1
2.488103719E0,1.356730461E0,2.298904419E0,1.018564796E1
2.508212729E0,1.025922656E0,2.335394859E0,9.844072342E0
2.528321740E0,7.070791125E-1,2.347957134E0,1.006002426E1
2.548430750E0,8.608179688E-1,1.887338877E0,1.032921696E1
2.568539761E0,7.010970116E-1,1.899302959E0,1.003250694E1
2.588648771E0,8.201399446E-1,1.713261008E0,9.409774780E0
2.608757781E0,2.032702923E0,1.150349498E0,9.192028046E0
2.628866792E0,3.433102369E0,8.159525394E-1,9.487542152E0
2.648975802E0,3.617349625E0,6.735795736E-1,1.065882874E1
2.669084813E0,2.503490686E0,1.123430252E0,1.117268753E1
2.689193823E0,1.813161373E0,1.366899967E0,1.024546814E1
2.709302834E0,1.861017823E0,1.333400369E0,9.336195946E0
2.729411844E0,1.161117196E0,1.658824325E0,8.898907661E0
2.749520854E0,7.543373108E-1,2.106282234E0,8.596813202E0
2.769629865E0,9.720842242E-1,2.163111687E0,8.528617859E0
2.789738875E0,1.042074203E0,1.977069736E0,8.634500504E0
2.809847886E0,7.866404653E-1,1.905285001E0,8.682954788E0
2.829956896E0,4.731806815E-1,2.124826431E0,9.235098839E0
2.850065906E0,5.928218365E-1,2.328216314E0,1.016889763E1
2.870174917E0,5.449653864E-1,2.487937450E0,9.982257843E0
2.890283927E0,5.491527915E-1,2.563311338E0,9.689137459E0
2.910392938E0,4.546362907E-2,2.679961443E0,9.649655342E0
2.930501948E0,-6.017948985E-1,3.137588739E0,8.801998138E0
2.950610959E0,-1.399801224E-1,3.287140131E0,8.042875290E0
2.970719969E0,3.278166950E-1,3.287140131E0,8.745168686E0
2.990828979E0,1.147358418E0,3.911068678E0,9.470791817E0
3.010937990E0,9.014959335E-1,3.081955671E0,9.498908043E0
3.031047000E0,-3.828516230E-2,2.873780012E0,9.366703987E0
3.051156063E0,-1.042672515E0,2.950948477E0,9.436694145E0
3.071265073E0,-1.328614831E0,3.157329559E0,1.026819992E1
3.091374084E0,-8.087740541E-1,3.089732170E0,1.148554897E1
3.111483094E0,2.105683982E-1,2.404786825E0,1.248814106E1
3.131592104E0,8.787640929E-1,1.508674622E0,1.302233887E1
3.151701115E0,6.113662124E-1,1.378265858E0,1.287039471E1
3.171810125E0,-1.615155302E-2,1.505085468E0,1.150887871E1
3.191919136E0,-4.175475538E-1,1.763510346E0,9.382855415E0
3.212028146E0,-4.031906128E-1,2.150549412E0,7.865208149E0
3.232137156E0,9.092725813E-2,2.435893536E0,7.985447407E0
3.252246167E0,3.864408433E-1,2.659622431E0,9.111269951E0
3.272355229E0,5.593222976E-1,2.610569477E0,1.005344391E1
3.292464240E0,1.028315544E0,2.203789711E0,9.795618057E0
3.312573250E0,1.402194023E0,1.786840320E0,9.237491608E0
3.332682261E0,1.310668588E0,1.656431437E0,9.232706070E0
3.352791271E0,9.936196208E-1,1.944766641E0,9.568898201E0
3.372898905E0,7.513462901E-1,2.176870346E0,9.656833649E0
3.393007916E0,7.567301393E-1,2.196012974E0,9.111269951E0
3.413116926E0,6.526423693E-1,2.364706993E0,8.595019341E0
3.433225937E0,7.040880919E-1,2.529811859E0,8.641678810E0
3.453334999E0,7.609176040E-1,2.740978241E0,8.627920151E0
3.473444010E0,6.526423693E-1,2.782254457E0,8.292326927E0
3.493553020E0,3.840480447E-1,2.936591625E0,8.313861847E0
3.513662030E0,3.361915946E-1,3.032304525E0,8.608179092E0
3.533771041E0,1.914258152E-1,2.960519791E0,8.785846710E0
3.553880051E0,2.596212626E-1,2.996412039E0,8.941978455E0
3.573989062E0,6.550351977E-1,3.104687452E0,9.293723106E0
3.594098124E0,5.365904570E-1,3.169293642E0,9.559326172E0
3.614207135E0,4.785645306E-1,3.108874798E0,9.485747337E0
3.634316145E0,3.074777126E-1,3.133999348E0,8.977272034E0
3.654425155E0,1.812563092E-1,3.256631613E0,8.976076126E0
3.674534166E0,3.140579760E-1,3.528815269E0,9.279964447E0
3.694643228E0,3.415754437E-1,3.710669756E0,8.959325790E0
3.714752239E0,1.513460279E-1,3.848855257E0,8.793622971E0
3.734861249E0,3.158525825E-1,3.843471289E0,9.096315384E0
3.754970260E0,6.592226624E-1,3.657429457E0,9.927821159E0
3.775079270E0,3.583251834E-1,3.688536167E0,1.046082211E1
3.795188333E0,-4.187439568E-3,3.889533281E0,1.016590691E1
3.815297343E0,4.534398913E-1,3.538984776E0,9.903294563E0
3.835406353E0,1.126421213E0,3.162713289E0,1.058584690E1
3.855515364E0,1.397408366E0,3.099303484E0,1.202931786E1
3.875624374E0,1.447059512E0,2.602194548E0,1.257428265E1
3.895733437E0,1.188036442E0,2.033301115E0,1.148076344E1
3.915842447E0,1.336391449E0,1.496710539E0,9.944570541E0
3.935951458E0,9.050851464E-1,1.393819213E0,9.324232101E0
3.956060468E0,4.025924206E-1,2.065006018E0,8.617152214E0
3.976169530E0,7.992027402E-1,2.361117840E0,8.509475708E0
3.996278541E0,1.432104349E0,2.575275421E0,8.803792953E0
4.016387551E0,1.779063582E0,2.810968399E0,9.345169067E0
4.036496562E0,1.807777524E0,2.566302299E0,9.668798447E0
4.056605624E0,1.695314884E0,1.811964989E0,9.421739578E0
4.076714635E0,1.016949654E0,1.441077471E0,9.396016121E0
4.096823645E0,3.649054468E-2,1.612164259E0,9.287740707E0
4.116932655E0,-1.076770201E-1,1.963310957E0,9.108279228E0
4.137041718E0,2.937189937E-1,2.341377020E0,8.612964630E0
4.157150728E0,7.250252366E-1,2.836691141E0,8.334799767E0
4.177259739E0,7.561319470E-1,3.299702406E0,8.364709854E0
4.197368801E0,8.261220455E-1,3.653241873E0,8.210372925E0
4.217477812E0,1.118046403E0,3.698705673E0,7.785048485E0
4.237586822E0,1.251446247E0,3.416352510E0,7.749754429E0
4.257695833E0,9.714859724E-1,3.241676569E0,8.432307243E0
4.277804895E0,7.986045480E-1,3.104089260E0,9.355937004E0
4.297913905E0,7.543373108E-1,2.924627542E0,9.673583984E0
4.318022916E0,7.854440212E-1,2.840280533E0,9.328418732E0
4.338131978E0,9.882357717E-1,3.199802160E0,9.098708153E0
4.358240989E0,1.120439172E0,3.519842148E0,9.203991890E0
4.378349999E0,1.069591761E0,3.574278831E0,9.090931892E0
4.398459062E0,6.382854581E-1,3.644867182E0,8.968897820E0
4.418568072E0,4.468596280E-1,3.569493294E0,9.101698875E0
4.438677083E0,5.425725579E-1,3.492922783E0,9.792626381E0
4.458786145E0,7.238288522E-1,3.487539053E0,1.010788059E1
4.478895155E0,7.369893789E-1,3.470789194E0,9.893125534E0
4.499004166E0,3.074777126E-1,3.641875982E0,9.708877563E0
4.519113228E0,-2.961117923E-1,4.015156269E0,9.664610863E0
4.539222239E0,-2.751746178E-1,3.984049797E0,1.045244789E1
4.559331249E0,1.501496136E-1,3.604787350E0,1.133121204E1
4.579440312E0,7.411768436E-1,2.924029350E0,1.245284748E1
4.599549322E0,1.207179070E0,2.082353830E0,1.362951756E1
4.619658385E0,7.322037220E-1,1.507478237E0,1.317547989E1
4.639767395E0,7.178468257E-2,1.284945726E0,1.071446133E1
4.659876405E0,-3.948157430E-1,1.717448473E0,8.336593628E0
4.679985468E0,-6.634100676E-1,2.477169752E0,6.868597507E0
4.700094478E0,-5.904290080E-1,2.963510752E0,6.984649181E0
4.720203489E0,-3.505485058E-1,2.964707375E0,8.450851440E0
4.740312551E0,3.936193287E-1,2.394617319E0,9.900901794E0
4.760421562E0,8.943174481E-1,1.942373753E0,1.012762165E1
4.780530624E0,9.212366939E-1,1.808375716E0,9.630513191E0
4.800639635E0,5.210371017E-1,1.963310957E0,9.458827972E0
4.820748645E0,1.136590727E-2,2.011765718E0,9.564111710E0
4.840857708E0,-1.794617027E-1,2.120040894E0,9.251849174E0
4.860966718E0,1.974078640E-2,2.536391973E0,8.606385231E0
4.881075780E0,4.797609448E-1,2.922832966E0,8.024929047E0
4.901184791E0,7.459624410E-1,3.129213810E0,7.812565804E0
4.921293853E0,8.009973764E-1,3.108276606E0,8.126026154E0
4.941402864E0,5.970092416E-1,2.888735056E0,8.734998703E0
4.961511874E0,3.786641955E-1,2.726023197E0,9.111868858E0
4.981620937E0,2.650051117E-1,2.838485956E0,8.976076126E0
5.001729947E0,2.757728100E-1,3.022733212E0,8.611170769E0
5.021839010E0,4.444667995E-1,3.229114056E0,8.531609535E0
5.041948020E0,5.898307562E-1,3.373281717E0,8.822935104E0
5.062057083E0,5.491527915E-1,3.412165165E0,9.389435768E0
5.082166093E0,5.533402562E-1,3.430111170E0,9.440283775E0
5.102275155E0,5.144568682E-1,3.503092289E0,9.434899330E0
5.122384166E0,5.700899959E-1,3.400799274E0,9.937392235E0
5.142493228E0,7.854440212E-1,3.190230846E0,1.041416264E1
5.162602239E0,7.160521746E-1,3.138186932E0,1.090588760E1
5.182711301E0,3.744767308E-1,3.151945591E0,1.094357395E1
5.202820312E0,9.810572863E-2,3.605983734E0,1.011027431E1
5.222929322E0,1.026520967E0,3.284149170E0,1.039801121E1
5.243038385E0,1.785643935E0,2.519043922E0,1.173141098E1
5.263147447E0,1.097109199E0,2.522035122E0,1.233679581E1
5.283256458E0,7.405785918E-1,2.313261271E0,1.160160065E1
5.303365520E0,1.392622828E0,1.764706731E0,1.145982552E1
5.323474530E0,1.540977836E0,1.457827210E0,1.140299606E1
5.343583593E0,9.337990284E-1,1.552343726E0,1.027777100E1
5.363692603E0,5.569294691E-1,1.881356835E0,8.463413239E0
5.383801666E0,6.035895348E-1,2.366501570E0,7.181458950E0
5.403910676E0,9.768698215E-1,2.730210543E0,7.359126091E0
5.424019739E0,1.730608940E0,2.681157827E0,8.323433876E0
5.444128749E0,1.976471543E0,2.382055044E0,9.061619759E0
5.464237812E0,1.271187067E0,1.849053741E0,9.732208252E0
5.484346822E0,4.953143001E-1,1.513460279E0,1.060020447E1
5.504455885E0,8.434699476E-2,1.648056626E0,1.049551868E1
5.524564895E0,9.092725813E-2,2.081755638E0,9.102297783E0
5.544673958E0,3.278166950E-1,2.585444927E0,7.999206066E0
5.564783020E0,6.370890141E-1,2.966501951E0,7.957930088E0
5.584892030E0,6.831508875E-1,2.993421078E0,8.333004951E0
5.605001093E0,4.606183469E-1,2.798406124E0,8.496912956E0
5.625110103E0,3.798605800E-1,2.737987280E0,8.811569214E0
5.645219166E0,4.181457460E-1,2.702095032E0,9.250652313E0
5.665328176E0,4.624129832E-1,2.612962246E0,9.415757179E0
5.685437239E0,4.887340367E-1,2.659622431E0,9.477372169E0
5.705546301E0,4.815555513E-1,2.834298372E0,9.509077072E0
5.725655312E0,3.906283081E-1,2.951546669E0,9.365508080E0
5.745764374E0,4.450650215E-1,3.074178934E0,9.123832703E0
5.765873385E0,4.594219327E-1,3.317050457E0,8.888737679E0
5.785982447E0,3.798605800E-1,3.453441381E0,8.671588898E0
5.806091510E0,4.313062727E-1,3.536591768E0,8.547162056E0
5.826200520E0,4.654040039E-1,3.698705673E0,8.761918068E0
5.846309583E0,4.827519655E-1,3.659822226E0,9.021539688E0
5.866418593E0,5.102694035E-1,3.454039574E0,9.318847656E0
5.886527655E0,3.828516304E-1,3.424727440E0,9.837491989E0
5.906636718E0,3.924229145E-1,3.348755360E0,1.021914768E1
5.926745728E0,-2.015953064E-1,3.690330744E0,1.009711361E1
5.946854791E0,-9.230313301E-1,4.069592953E0,9.674779892E0
5.966963853E0,-5.180460811E-1,3.744169235E0,9.868000984E0
5.987072864E0,5.940182209E-1,3.321237803E0,1.141914749E1
6.007181926E0,1.587637782E0,2.089532375E0,1.383829117E1
6.027290937E0,1.236491084E0,1.048654556E0,1.491027641E1
6.047399999E0,-9.511470050E-2,1.052842021E0,1.228475189E1
6.067509062E0,-8.530412912E-1,1.727019787E0,8.386843681E0
6.087618072E0,-5.306084156E-1,2.306680918E0,6.397211552E0
6.107727135E0,3.738785386E-1,2.542972326E0,7.532605648E0
6.127836197E0,6.275177598E-1,2.417349100E0,9.693324089E0
6.147945208E0,5.132604837E-1,2.096112728E0,1.068395329E1
6.168054270E0,4.695914388E-1,1.959721804E0,1.001874828E1
6.188163333E0,5.180460811E-1,2.126022816E0,8.991629601E0
6.208272395E0,4.803591371E-1,2.222334146E0,8.679964066E0
6.228381405E0,3.960121572E-1,2.236092806E0,8.843872070E0
6.248490468E0,3.427718580E-1,2.385046005E0,8.915059090E0
6.268599530E0,5.228317380E-1,2.502892494E0,8.508877754E0
6.288708541E0,6.592226624E-1,2.714657307E0,7.992625713E0
6.308817603E0,6.598208547E-1,2.910868645E0,7.942376614E0
6.328926666E0,6.771687865E-1,2.932404041E0,8.268398285E0
6.349035676E0,5.509474277E-1,2.954537868E0,8.544769287E0
6.369144739E0,3.343969584E-1,2.972483873E0,8.586046219E0
6.389253801E0,2.721835673E-1,3.064009428E0,8.386843681E0
6.409362864E0,4.450650215E-1,3.290131092E0,8.356334686E0
6.429471874E0,6.101697683E-1,3.397808075E0,8.606385231E0
6.449580937E0,6.083751321E-1,3.322434187E0,9.064610481E0
6.469689999E0,6.239284873E-1,3.292523861E0,9.714859962E0
6.489799010E0,5.545366406E-1,3.369094372E0,1.000379372E1
6.509908072E0,5.874379873E-1,3.281756163E0,9.906285286E0
6.530017135E0,7.046862841E-1,3.240479946E0,9.957133293E0
6.550126197E0,9.104689956E-1,3.250051260E0,1.015155029E1
6.570235208E0,7.441678643E-1,3.215953588E0,1.010070229E1
6.590344270E0,-8.494520187E-2,3.760919094E0,9.675976753E0
6.610453333E0,7.627122402E-1,3.522234917E0,1.014975548E1
6.630562395E0,2.395813704E0,2.150549412E0,1.230030441E1
6.650671405E0,1.841875196E0,1.767099500E0,1.357328606E1
6.670780468E0,1.020538807E0,1.808375716E0,1.173500061E1
6.690889530E0,1.607378602E0,1.214955688E0,1.041715336E1
6.710998593E0,1.370489120E0,1.247856975E0,1.065224838E1
6.731107655E0,2.051845491E-1,1.763510346E0,9.861420631E0
6.751216666E0,-4.666004181E-1,2.014158487E0,8.204988480E0
6.771325728E0,-7.477571070E-2,2.275574446E0,7.573882103E0
6.791434791E0,8.243274093E-1,2.395813704E0,8.488538742E0
6.811543853E0,1.194018483E0,2.254039049E0,9.471389771E0
6.831652916E0,7.417750359E-1,2.226521492E0,9.882955551E0
6.851761926E0,1.770688742E-1,1.966302037E0,9.628120422E0
6.871870989E0,-9.571290575E-3,1.630708575E0,9.840482712E0
6.891980051E0,-7.716853172E-2,1.618146300E0,1.021017456E1
6.912089114E0,-1.657029688E-1,1.852044702E0,9.898509026E0
6.932198176E0,-2.093719877E-2,2.091326952E0,9.041878700E0
6.952307187E0,2.033899277E-1,2.401197433E0,8.453842163E0
6.972416249E0,4.384847581E-1,2.597409010E0,8.362915039E0
6.992525312E0,5.174478889E-1,2.602194548E0,8.527421951E0
7.012634374E0,5.347958803E-1,2.523829699E0,9.040083885E0
7.032743437E0,4.660021961E-1,2.560320139E0,9.113663673E0
7.052852499E0,5.976074338E-1,2.682952404E0,8.711071014E0
7.072961510E0,1.110867858E0,2.843869686E0,8.508877754E0
7.093070572E0,1.331605792E0,3.038286448E0,8.897112846E0
7.113179635E0,1.076171994E0,3.114258766E0,9.364311218E0
7.133288697E0,6.765705943E-1,3.097508907E0,9.812367439E0
7.153397760E0,3.762713671E-1,3.019144058E0,9.861420631E0
7.173506822E0,2.853440940E-1,2.994019270E0,9.896116257E0
7.193615885E0,2.410768867E-1,2.982055187E0,1.003430176E1
7.213724895E0,1.310070455E-1,2.964108944E0,1.000498962E1
7.233833958E0,1.339980662E-1,2.986242771E0,9.951150894E0
7.253943020E0,-1.369891018E-1,3.372683525E0,9.949954987E0
7.274052083E0,-9.810572863E-2,3.525824070E0,1.027119160E1
7.294161145E0,5.330012441E-1,2.782852650E0,1.126002502E1
7.314270208E0,4.157529473E-1,2.475374937E0,1.210050392E1
7.334379270E0,1.591227055E-1,2.284547329E0,1.247856998E1
7.354488333E0,4.654040039E-1,1.550549030E0,1.247617722E1
7.374597395E0,4.582255483E-1,1.131805062E0,1.198086262E1
7.394706405E0,-1.393819153E-1,1.407577872E0,1.017846966E1
7.414815468E0,-6.873382926E-1,2.035693884E0,7.890930653E0
7.434924530E0,-5.964110494E-1,2.487937450E0,6.314060688E0
7.455033593E0,3.529413417E-2,2.596810818E0,6.860222340E0
7.475142655E0,6.239284873E-1,2.265404940E0,8.835497856E0
7.495251718E0,7.824530005E-1,1.856232166E0,1.021256733E1
7.515360780E0,5.383850932E-1,1.576870084E0,1.002114105E1
7.535469843E0,2.757728100E-1,1.563111424E0,9.201001167E0
7.555578905E0,5.503492057E-2,1.731805444E0,8.709874153E0
7.575687968E0,7.776673883E-2,1.998605132E0,8.658429146E0
7.595797030E0,2.321037948E-1,2.325823545E0,8.772088051E0
7.615906093E0,4.719842672E-1,2.562713146E0,8.528019905E0
7.636015155E0,5.192425251E-1,2.710469961E0,8.087740898E0
7.656124218E0,5.096712112E-1,2.749951363E0,8.319844246E0
7.676233228E0,4.833501875E-1,2.752942562E0,8.792427063E0
7.696342291E0,4.354937077E-1,2.915056229E0,8.955139160E0
7.716451353E0,6.029912829E-1,3.081955671E0,8.820542336E0
7.736560416E0,9.655039310E-1,3.097508907E0,8.687142372E0
7.756669478E0,1.131206870E0,3.082553864E0,9.172885895E0
7.776778541E0,1.147956610E0,3.096312523E0,9.891330719E0
7.796887603E0,9.511470199E-1,3.059223652E0,1.016889763E1
7.816996666E0,6.568298340E-1,3.022135019E0,9.930811882E0
7.837105728E0,9.092726111E-1,3.114856958E0,9.640682220E0
7.857214791E0,1.435095429E0,3.256033421E0,9.632905960E0
7.877323853E0,1.637288928E0,3.277568817E0,9.940981865E0
7.897432916E0,1.418943882E0,2.998206854E0,1.026580715E1
7.917541978E0,7.136593461E-1,3.227917671E0,9.954142570E0
7.937651041E0,7.758727670E-1,3.096910715E0,9.747162819E0
7.957760103E0,2.088335991E0,2.075773716E0,1.079761219E1
7.977869166E0,2.373081923E0,1.914856315E0,1.204905796E1
7.997978228E0,2.101496458E0,1.861017823E0,1.181336498E1
8.018087291E0,1.896910191E0,1.218544960E0,1.132403278E1
8.038196353E0,1.228714466E0,8.327022791E-1,1.143230820E1
8.058305416E0,3.086741269E-1,1.040877819E0,1.057208824E1
8.078414478E0,-3.780659735E-1,1.731805444E0,9.111269951E0
8.098523541E0,1.914258115E-2,2.283350945E0,8.006384850E0
8.118632603E0,1.144367456E0,2.520240545E0,7.998608112E0
8.138741666E0,1.804786444E0,2.455634356E0,8.882157326E0
8.158850728E0,1.558923960E0,1.960319996E0,9.835099220E0
8.178959843E0,6.897311211E-1,1.432104349E0,1.059601688E1
8.199068905E0,-8.913264424E-2,1.187438250E0,1.099860954E1
8.219177968E0,-4.845465720E-1,1.292722464E0,1.046381378E1
8.239287030E0,-2.572284341E-1,1.686939955E0,9.164510727E0
8.259396093E0,2.291127741E-1,2.275574446E0,8.201399803E0
8.279505155E0,5.012963414E-1,2.697907448E0,7.670193195E0
8.299614218E0,4.217349887E-1,2.877967358E0,7.728219032E0
8.319723280E0,4.055834413E-1,2.831905603E0,8.289336205E0
8.339832343E0,4.540380836E-1,2.700898647E0,8.714061737E0
8.359941405E0,5.018945336E-1,2.632104874E0,8.734400749E0
8.380050468E0,6.047859192E-1,2.620140791E0,8.912068367E0
8.400159530E0,7.172485590E-1,2.635694027E0,9.394221306E0
8.420268593E0,6.861419082E-1,2.656033039E0,9.580264091E0
8.440377655E0,5.192425251E-1,2.849851847E0,9.358927727E0
8.460486718E0,4.977070987E-1,3.157927752E0,9.053842545E0
8.480595780E0,5.814558864E-1,3.388236761E0,8.855237961E0
8.500704895E0,6.131607890E-1,3.519243956E0,9.035298347E0
8.520813958E0,5.982056856E-1,3.452843189E0,9.550951958E0
8.540923020E0,5.407779217E-1,3.196212769E0,9.978668213E0
8.561032083E0,3.499503136E-1,3.062214851E0,1.035673428E1
8.581141145E0,-1.196411322E-3,3.151945591E0,1.065464115E1
8.601250208E0,-4.384847581E-1,3.448655605E0,1.031426239E1
8.621359270E0,-4.785645287E-3,3.293720484E0,1.031127071E1
8.641468333E0,6.370890141E-1,3.013760090E0,1.133001518E1
8.661577395E0,9.409775138E-1,2.485544443E0,1.275853062E1
8.681686510E0,1.071386337E0,1.387837172E0,1.390469265E1
8.701795572E0,7.160521746E-1,5.581258535E-1,1.352542973E1
8.721904635E0,-3.529413417E-2,7.483552694E-1,1.123011494E1
8.742013697E0,-6.747759581E-1,1.606182218E0,8.490332603E0
8.762122760E0,-5.407779217E-1,2.253440619E0,6.603592396E0
8.782231822E0,2.943171859E-1,2.426920414E0,6.754938126E0
8.802340885E0,9.463613629E-1,2.188236237E0,8.729615211E0
8.822449999E0,8.907282352E-1,1.722234130E0,1.016650486E1
8.842559062E0,5.479564071E-1,1.346560955E0,1.014078236E1
8.862668124E0,2.500499785E-1,1.316650629E0,9.376275063E0
8.882777187E0,6.221338734E-2,1.549352646E0,8.977870941E0
8.902886249E0,2.841476798E-1,1.871187329E0,8.732007980E0
8.922995312E0,5.940182209E-1,2.325225353E0,8.414958954E0
8.943104426E0,8.207381964E-1,2.656033039E0,8.230711937E0
8.963213489E0,9.601200819E-1,2.686541557E0,8.199604988E0
8.983322551E0,9.032905698E-1,2.647060156E0,8.506484032E0
9.003431614E0,6.005984545E-1,2.677568436E0,8.749356270E0
9.023540676E0,3.822534084E-1,2.727219582E0,8.754739761E0
9.043649739E0,4.845465720E-1,2.818745136E0,8.664410591E0
9.063758853E0,6.729813814E-1,3.043670416E0,8.532805443E0
9.083867916E0,7.417750359E-1,3.257827997E0,8.425128937E0
9.103976978E0,7.674978375E-1,3.256033421E0,8.526225090E0
9.124086041E0,7.788637877E-1,3.133999348E0,8.980861664E0
9.144195155E0,7.130611539E-1,2.965305567E0,9.448060036E0
9.164304218E0,6.340979934E-1,2.825923443E0,9.538987160E0
9.184413280E0,6.358926296E-1,2.775674343E0,9.655039787E0
9.204522343E0,6.526423693E-1,2.796611547E0,1.005105114E1
9.224631405E0,4.109672904E-1,2.970091105E0,1.001874828E1
9.244740468E0,4.079762697E-1,3.135794163E0,9.949954987E0
9.264849583E0,1.173679471E0,2.881556749E0,1.139282703E1
9.284958645E0,1.497308731E0,2.691925526E0,1.337528038E1
9.305067708E0,1.621137381E0,2.081157446E0,1.479422379E1
9.325176822E0,1.829911113E0,8.715856671E-1,1.516570950E1
9.345285885E0,1.535593987E0,1.405783296E-1,1.421216965E1
9.365394947E0,6.723831892E-1,2.733799815E-1,1.208734322E1
9.385504010E0,1.004985496E-1,6.993024349E-1,9.333204269E0
9.405613124E0,-1.022931710E-1,1.316650629E0,6.442675114E0
9.425722187E0,-1.734796464E-1,2.158325911E0,4.976472855E0
9.445831249E0,6.065805554E-1,2.794218540E0,5.560919762E0
9.465940312E0,1.755135417E0,2.767299414E0,7.394420147E0
9.486049426E0,2.366501570E0,2.306680918E0,9.074779510E0
9.506158489E0,2.035095692E0,1.486541033E0,1.005045319E1
9.526267551E0,8.189435601E-1,8.428717852E-1,1.112782192E1
9.546376614E0,-2.859423161E-1,7.304090858E-1,1.178225899E1
9.566485728E0,-5.126622319E-1,1.144367456E0,1.049491978E1
9.586594791E0,1.310070455E-1,2.008176327E0,8.675178528E0
9.606703853E0,1.040877819E0,2.858824968E0,7.516454220E0
9.626812968E0,1.517647743E0,3.402593851E0,7.106683254E0
9.646922030E0,1.352542996E0,3.498306751E0,7.418348312E0
9.667031093E0,8.668000102E-1,3.153740168E0,8.111668587E0
9.687140155E0,5.000999570E-1,2.797807932E0,8.673981667E0
9.707249270E0,5.712863803E-1,2.695514679E0,8.953344345E0
9.727358333E0,7.585247755E-1,2.790629387E0,9.151947975E0
9.747467395E0,8.135597110E-1,2.854039192E0,9.285347939E0
9.767576510E0,7.034898400E-1,2.871387243E0,9.319445610E0
9.787685572E0,5.850451589E-1,2.928814888E0,9.206983566E0
9.807794635E0,4.815555513E-1,3.000599623E0,9.190832138E0
9.827903749E0,3.008974493E-1,2.943171740E0,9.249456406E0
9.848012812E0,1.872383654E-1,2.836092949E0,9.513264656E0
9.868121874E0,1.740778536E-1,2.604587555E0,1.017069244E1
9.888230989E0,9.571290761E-2,2.392224550E0,1.118345451E1
9.908340051E0,-2.135594189E-1,2.755933523E0,1.187916756E1
9.928449114E0,-8.153542876E-1,3.512663603E0,1.067916775E1
9.948558228E0,-6.095715761E-1,3.589832067E0,9.803394318E0
9.968667291E0,8.207381964E-1,2.740978241E0,1.140000534E1
9.988776353E0,1.718644857E0,1.560718536E0,1.433121300E1
1.000888547E1,1.283151150E0,8.991031051E-1,1.665823364E1
1.002899453E1,2.093719840E-1,5.060819983E-1,1.488156223E1
1.004910364E1,-5.437689424E-1,7.519445419E-1,1.036211872E1
1.006921271E1,-7.926225066E-1,1.759921074E0,6.635297298E0
1.008932177E1,-4.079762697E-1,2.703889608E0,4.824528694E0
1.010943088E1,1.292124242E-1,3.144168854E0,5.659025669E0
1.012953995E1,6.173482537E-1,2.763111830E0,8.392825127E0
1.014964901E1,5.742774606E-1,2.021935225E0,1.035015392E1
1.016975812E1,-7.776673418E-3,1.530808330E0,1.028255749E1
1.018986719E1,-3.499503136E-1,1.403988719E0,9.344570160E0
1.020997630E1,-1.710868180E-1,1.576271892E0,8.984451294E0
1.023008536E1,1.172483116E-1,1.948355794E0,8.906683922E0
1.025019448E1,9.511470050E-2,2.375474691E0,8.440681458E0
1.027030354E1,2.123630047E-1,2.547757864E0,7.953144073E0
1.029041260E1,3.870390654E-1,2.694318295E0,7.931010723E0
1.031052172E1,4.193421602E-1,2.781656265E0,8.553742409E0
1.033063078E1,5.180460811E-1,2.719442844E0,8.980861664E0
1.035073990E1,5.180460811E-1,2.783450842E0,8.990432739E0
1.037084896E1,5.216353536E-1,2.871985435E0,8.782855988E0
1.039095802E1,5.730810165E-1,3.000001431E0,8.992825508E0
1.041106714E1,6.616154313E-1,3.151347399E0,9.366106033E0
1.043117620E1,6.819544435E-1,3.180659533E0,9.676574707E0
1.045128531E1,6.586244106E-1,3.078964472E0,9.921838760E0
1.047139437E1,5.377869010E-1,3.078964472E0,9.735198975E0
1.049150349E1,5.670989752E-1,3.229114056E0,9.539586067E0
1.051161255E1,8.530412912E-1,3.216551781E0,9.607182503E0
1.053172167E1,9.415757060E-1,3.099901676E0,9.762118340E0
1.055183073E1,5.264210105E-1,3.220141172E0,9.708279610E0
1.057193984E1,-2.327020019E-1,4.045664787E0,9.345169067E0
1.059204890E1,1.058824062E0,3.530011654E0,1.009053326E1
1.061215797E1,2.561516523E0,2.436491728E0,1.183011532E1
1.063226708E1,1.890329838E0,2.524427891E0,1.332981682E1
1.065237614E1,9.834501147E-1,2.174477577E0,1.345723438E1
1.067248526E1,1.299900889E0,1.258624673E0,1.226859951E1
1.069259432E1,1.422533035E0,1.176670551E0,1.088315582E1
1.071270344E1,9.870393276E-1,1.688136339E0,9.223134995E0
1.073281250E1,4.983053207E-1,2.151147604E0,7.091728210E0
1.075292161E1,1.651047617E-1,2.811566591E0,5.675775528E0
1.077303068E1,4.701896608E-1,3.421736479E0,6.070590973E0
1.079313979E1,1.348355532E0,3.298506021E0,7.922037601E0
1.081324885E1,2.263610125E0,2.468196630E0,9.482755661E0
1.083335797E1,2.296511650E0,1.682154298E0,1.074616623E1
1.085346703E1,1.299302697E0,1.345962763E0,1.187019539E1
1.087357615E1,1.076770201E-1,1.379462242E0,1.134257793E1
1.089368521E1,-5.210371017E-1,1.769492388E0,9.090332985E0
1.091379432E1,-2.554338276E-1,2.408974171E0,7.607979774E0
1.093390344E1,5.335994363E-1,3.096312523E0,7.273582458E0
1.095401250E1,9.786644578E-1,3.497708559E0,7.663014412E0
1.097412161E1,9.601200819E-1,3.413959742E0,8.347960472E0
1.099423068E1,6.143572330E-1,3.141776085E0,8.851051331E0
1.101433979E1,4.133601189E-1,2.909074068E0,8.991629601E0
1.103444885E1,5.533402562E-1,2.740380049E0,9.079565048E0
1.105455797E1,6.604190469E-1,2.680559635E0,9.417551994E0
1.107466708E1,4.905286431E-1,2.806781054E0,9.808777809E0
1.109477614E1,3.930211067E-1,2.949153900E0,9.575477600E0
1.111488526E1,4.522434771E-1,3.157927752E0,8.999405861E0
1.113499432E1,5.772684813E-1,3.300300598E0,8.586046219E0
1.115510344E1,5.264210105E-1,3.407977581E0,8.603393555E0
1.117521250E1,3.834498227E-1,3.378067255E0,8.885746956E0
1.119532161E1,2.309073806E-1,3.260220766E0,9.257830620E0
1.121543068E1,1.956132501E-1,3.138186932E0,9.631111145E0
1.123553979E1,3.756731451E-1,3.164507866E0,9.861420631E0
1.125564891E1,4.121637046E-1,3.334398270E0,9.836894035E0
1.127575797E1,-3.110669553E-1,3.945166349E0,9.306285858E0
1.129586708E1,-4.713860750E-1,3.859024763E0,9.946365356E0
1.131597614E1,3.170489967E-1,3.136990547E0,1.143230820E1
1.133608526E1,7.369893789E-1,2.830709219E0,1.273579884E1
1.135619437E1,1.086939692E0,1.806581140E0,1.431147194E1
1.137630344E1,8.362914920E-1,9.098708034E-1,1.451366615E1
1.139641255E1,9.092725813E-2,8.979067206E-1,1.234397411E1
1.141652167E1,-3.888336718E-1,1.355534077E0,9.622735977E0
1.143663073E1,-4.630111754E-1,1.958525300E0,7.245467186E0
1.145673984E1,-4.151547253E-1,2.604587555E0,5.800800323E0
1.147684890E1,-1.262213886E-1,2.994617462E0,6.849454880E0
1.149695802E1,6.753742099E-1,2.548356056E0,9.245268822E0
1.151706714E1,1.174277663E0,1.941775560E0,1.046560764E1
1.153717620E1,8.165507317E-1,1.667797327E0,1.010967541E1
1.155728531E1,3.505485058E-1,1.539781332E0,9.515657425E0
1.157739443E1,-3.050848842E-2,1.610967875E0,9.479166985E0
1.159750349E1,-1.537388563E-1,1.955534339E0,9.231510162E0
1.161761260E1,9.092725813E-2,2.357528448E0,8.556734085E0
1.163772172E1,4.671986103E-1,2.645863533E0,8.169694901E0
1.165783078E1,6.041877270E-1,2.715255499E0,8.376075745E0
1.167793990E1,4.301098585E-1,2.641077995E0,8.915657043E0
1.169804901E1,1.016949639E-1,2.566900492E0,9.025128365E0
1.171815807E1,-2.213360928E-2,2.547757864E0,8.896514893E0
1.173826719E1,1.920240223E-1,2.603390932E0,9.141778946E0
1.175837630E1,4.935196638E-1,2.641077995E0,9.454640388E0
1.177848536E1,5.060819983E-1,2.688336134E0,9.416355133E0
1.179859448E1,3.020938635E-1,2.772084951E0,9.127422333E0
1.181870359E1,3.032902777E-1,2.895913601E0,8.752346992E0
1.183881271E1,4.049852192E-1,3.007778168E0,8.630910873E0
1.185892177E1,5.330012441E-1,2.992822886E0,8.831310272E0
1.187903088E1,4.845465720E-1,2.998805046E0,9.046664238E0
1.189914000E1,3.930211067E-1,2.930011272E0,9.367900848E0
1.191924906E1,5.371887088E-1,2.792423964E0,1.000917721E1
1.193935818E1,6.209374666E-1,2.708675146E0,1.059781170E1
1.195946729E1,5.276173949E-1,2.781058073E0,1.066839981E1
1.197957635E1,5.383851007E-2,3.527618885E0,9.990034103E0
1.199968547E1,5.611169338E-1,3.648456335E0,1.052363396E1
1.201979458E1,1.636092424E0,2.930011272E0,1.214058399E1
1.203990370E1,1.580459356E0,2.508276224E0,1.340638733E1
1.206001276E1,1.532602906E0,1.432702541E0,1.328495121E1
1.208012187E1,1.618146300E0,6.311069727E-1,1.196231842E1
1.210023099E1,1.200000525E0,7.812566161E-1,1.070429230E1
1.212034010E1,5.587241054E-1,1.209571838E0,9.369695663E0
1.214044917E1,-2.530409992E-1,1.714457393E0,7.783852100E0
1.216055828E1,-5.605186820E-1,2.368296146E0,6.504290104E0
1.218066740E1,3.547359705E-1,2.894119024E0,6.598208427E0
1.220077651E1,1.994417667E0,2.846860647E0,8.004590034E0
1.222088562E1,2.991028309E0,2.099701881E0,9.575477600E0
1.224099469E1,2.481955290E0,1.342373490E0,1.127737331E1
1.226110380E1,7.172485590E-1,1.007976532E0,1.201555920E1
1.228121292E1,-5.306084156E-1,1.100100160E0,1.054098225E1
1.230132203E1,-5.772684813E-1,1.585843205E0,8.614759445E0
1.232143109E1,3.337987661E-1,2.267797709E0,7.889734268E0
1.234154021E1,1.153340459E0,2.785245657E0,8.029116631E0
1.236164932E1,1.324427366E0,2.929413080E0,8.404789925E0
1.238175844E1,8.638089895E-1,2.831307411E0,8.614161491E0
1.240186755E1,3.122633696E-1,2.618944407E0,8.606983185E0
1.242197661E1,4.133601189E-1,2.416750908E0,8.874979019E0
1.244208573E1,8.015955687E-1,2.391027927E0,9.280562401E0
1.246219484E1,8.482556343E-1,2.467598438E0,9.713065147E0
1.248230396E1,5.820540786E-1,2.417349100E0,9.827322960E0
1.250241307E1,3.236292601E-1,2.398804665E0,9.555737495E0
1.252252214E1,3.086741269E-1,2.502294302E0,9.030512810E0
1.254263125E1,4.989035130E-1,2.600399971E0,8.773283958E0
1.256274036E1,4.677968323E-1,2.625524759E0,9.159127235E0
1.258284948E1,3.511467278E-1,2.535195589E0,9.839884758E0
1.260295859E1,3.840480447E-1,2.392224550E0,1.038485050E1
1.262306771E1,5.467599630E-1,2.318645239E0,1.066301632E1
1.264317677E1,3.876372576E-1,2.581257343E0,1.054995537E1
1.266328588E1,-4.402793646E-1,3.489333630E0,9.450452805E0
1.268339500E1,-4.851447940E-1,3.604787350E0,8.895915985E0
1.270350411E1,8.195417523E-1,2.779861689E0,1.052243805E1
1.272361323E1,1.549950838E0,1.617548108E0,1.357567883E1
1.274372234E1,1.244267821E0,7.836494446E-1,1.583629799E1
1.276383146E1,-1.674975902E-1,5.509474277E-1,1.385384464E1
1.278394052E1,-8.673982024E-1,9.302098155E-1,9.623334885E0
1.280404964E1,-2.590230405E-1,1.654038668E0,6.761518478E0
1.282415875E1,2.446661144E-1,2.389233351E0,6.747759819E0
1.284426786E1,2.368894368E-1,2.450848579E0,8.185248375E0
1.286437698E1,-4.492524564E-1,2.218744755E0,9.413962364E0
1.288448609E1,-1.986042857E-1,1.667797327E0,9.905089378E0
1.290459521E1,5.306084156E-1,1.309472203E0,1.003370380E1
1.292470432E1,1.195813060E0,9.014959335E-1,1.092921734E1
1.294481339E1,7.740781307E-1,6.681957245E-1,1.196291637E1
1.296492250E1,-1.651047617E-1,7.244270444E-1,1.112243748E1
1.298503161E1,-2.871387303E-1,1.164108157E0,9.074779510E0
1.300514073E1,2.177468538E-1,1.795215130E0,8.121239662E0
1.302524984E1,6.801598072E-1,2.172683001E0,7.878966808E0
1.304535896E1,7.148557901E-1,2.373680115E0,8.260024071E0
1.306546807E1,5.389832854E-1,2.364108801E0,8.927022934E0
1.308557719E1,4.157529473E-1,2.188236237E0,9.376873970E0
1.310568630E1,5.521438122E-1,2.067996979E0,9.466006279E0
1.312579542E1,7.070791125E-1,2.104487419E0,9.468997002E0
1.314590453E1,8.039883971E-1,2.063809633E0,9.576076508E0
1.316601359E1,6.346961856E-1,2.058425665E0,1.002473068E1
1.318612271E1,2.871387303E-1,2.409572363E0,1.024068260E1
1.320623182E1,5.611169338E-1,2.083550215E0,1.037228775E1
1.322634094E1,7.100701332E-1,1.633101463E0,1.071625614E1
1.324645005E1,-1.423729509E-1,2.007578135E0,1.010847950E1
1.326655917E1,-4.785645306E-1,2.386840582E0,9.308079720E0
1.328666828E1,1.926222295E-1,2.376671076E0,9.549755096E0
1.330677740E1,7.818548083E-1,2.283949137E0,1.026341438E1
1.332688651E1,6.005984545E-1,2.295315027E0,1.026640511E1
1.334699562E1,2.410768867E-1,2.285145521E0,9.565906525E0
1.336710474E1,4.211367965E-1,2.172683001E0,9.182456970E0
1.338721385E1,5.515456200E-1,2.161317110E0,9.145368576E0
1.340732297E1,2.201396823E-1,2.170290232E0,9.099306107E0
1.342743208E1,-8.135596663E-2,2.108076811E0,9.230911255E0
1.344754120E1,-1.052841991E-1,2.088335991E0,9.486345291E0
1.346765031E1,5.204389244E-2,2.164308071E0,9.418747902E0
1.348775943E1,2.650051117E-1,2.299502611E0,9.206983566E0
1.350786854E1,3.960121572E-1,2.437089920E0,9.275776863E0
1.352797766E1,3.361915946E-1,2.376671076E0,9.556335449E0
1.354808677E1,2.315055877E-1,2.270788670E0,9.874580383E0
1.356819589E1,1.381855011E-1,2.231905222E0,9.923633575E0
1.358830500E1,1.196411327E-1,2.283350945E0,9.696913719E0
1.360841411E1,1.968096644E-1,2.364108801E0,9.568898201E0
1.362852323E1,2.183450609E-1,2.427518606E0,9.574879646E0
1.364863234E1,1.980060786E-1,2.491526604E0,9.524630547E0
1.366874146E1,2.644068897E-1,2.530410051E0,9.346364975E0
1.368885057E1,2.901297510E-1,2.508874655E0,9.536594391E0
1.370895969E1,2.638086975E-1,2.472982168E0,9.897313118E0
1.372906880E1,2.416750938E-1,2.445464849E0,9.839884758E0
1.374917792E1,2.003988922E-1,2.487339020E0,9.734002113E0
1.376928703E1,1.322034448E-1,2.498705149E0,9.600004196E0
1.378939615E1,1.411765367E-1,2.498106956E0,9.532406807E0
1.380950526E1,2.656033039E-1,2.563311338E0,9.542576790E0
1.382961437E1,3.332005441E-1,2.588435888E0,9.647262573E0
1.384972349E1,2.757728100E-1,2.499303341E0,9.786046028E0
1.386983260E1,2.009970993E-1,2.481955290E0,9.661021233E0
1.388994172E1,2.793620527E-1,2.532204628E0,9.320044518E0
1.391005083E1,3.714857101E-1,2.532802820E0,9.223732948E0
1.393015995E1,3.828516304E-1,2.496910334E0,9.449256897E0
1.395026906E1,3.266202807E-1,2.468794823E0,9.735796928E0
1.397037818E1,3.116651475E-1,2.447259426E0,9.706484795E0
1.399048729E1,3.672982752E-1,2.414358139E0,9.646664619E0
1.401059641E1,4.462614357E-1,2.425125837E0,9.658628464E0
1.403070552E1,5.114658475E-1,2.495713949E0,9.533603668E0
1.405081464E1,3.810569942E-1,2.572284460E0,9.601799011E0
1.407092375E1,2.650051117E-1,2.540579557E0,9.699904442E0
1.409103292E1,3.158525825E-1,2.538784742E0,9.622138023E0
1.411114203E1,4.761717021E-1,2.598605394E0,9.670592308E0
1.413125114E1,5.383850932E-1,2.659024239E0,9.722636223E0
1.415136026E1,4.319044948E-1,2.681756020E0,9.591031075E0
1.417146937E1,4.205385745E-1,2.665604353E0,9.638289452E0
1.419157849E1,4.719842672E-1,2.660220623E0,9.740582466E0
1.421168760E1,4.546363056E-1,2.647060156E0,9.731609344E0
1.423179672E1,4.594219327E-1,2.613560438E0,9.694520950E0
1.425190583E1,4.271188378E-1,2.584248543E0,9.693922997E0
1.427201495E1,3.972085714E-1,2.584846735E0,9.663414001E0
1.429212406E1,4.336991012E-1,2.580060959E0,9.500701904E0
1.431223323E1,4.528416991E-1,2.581257343E0,9.404989243E0
1.433234234E1,4.929214716E-1,2.591426849E0,9.500701904E0
1.435245146E1,4.671986103E-1,2.595614433E0,9.588638306E0
1.437256057E1,4.205385745E-1,2.613560438E0,9.564710617E0
1.439266969E1,4.019941986E-1,2.663211584E0,9.451649666E0
1.441277880E1,4.863412082E-1,2.705085993E0,9.411569595E0
1.443288792E1,4.935196638E-1,2.709871531E0,9.527621269E0
1.445299703E1,4.151547253E-1,2.650649309E0,9.565906525E0
1.447310615E1,3.792623878E-1,2.575275421E0,9.471988678E0
1.449321531E1,3.972085714E-1,2.563311338E0,9.577272415E0
1.451332443E1,4.313062727E-1,2.575275421E0,9.789635658E0
1.453343354E1,3.732803464E-1,2.554936409E0,9.659825325E0
1.455354266E1,3.984049559E-1,2.570489645E0,9.385248184E0
1.457365177E1,4.683950245E-1,2.592025042E0,9.415159225E0
1.459376089E1,4.618147612E-1,2.556730986E0,9.817750931E0
1.461387000E1,3.553341627E-1,2.526820660E0,9.830911636E0
1.463397917E1,3.008974493E-1,2.573480844E0,9.585049629E0
1.465408828E1,4.001995921E-1,2.642274380E0,9.375079155E0
1.467419740E1,4.259224236E-1,2.662015200E0,9.413364410E0
1.469430651E1,4.067798555E-1,2.616551638E0,9.568299294E0
1.471441562E1,3.708875179E-1,2.610569477E0,9.605388641E0
1.473452474E1,3.511467278E-1,2.640479803E0,9.507282257E0
1.475463390E1,3.397808075E-1,2.623729944E0,9.407979965E0
1.477474302E1,4.079762697E-1,2.594418049E0,9.501898766E0
1.479485214E1,4.881358147E-1,2.556730986E0,9.820143700E0
1.481496125E1,4.031906128E-1,2.503490686E0,9.879964828E0
1.483507036E1,2.195414752E-1,2.504687071E0,9.748957634E0
1.485517948E1,1.872383654E-1,2.532802820E0,9.619147301E0
1.487528865E1,2.518445849E-1,2.554338217E0,9.652647018E0
1.489539776E1,3.361915946E-1,2.557329178E0,9.622735977E0
1.491550687E1,3.601198196E-1,2.539981127E0,9.602995872E0
1.493561599E1,3.708875179E-1,2.598007202E0,9.572486877E0
1.495572510E1,3.906283081E-1,2.620140791E0,9.522835732E0
1.497583427E1,4.307080805E-1,2.597409010E0,9.569496155E0
1.499594338E1,4.013960063E-1,2.621337175E0,9.586245537E0
1.501605250E1,4.061816335E-1,2.612364054E0,9.469595909E0
1.503616161E1,4.390829504E-1,2.584248543E0,9.553942680E0
1.505627078E1,3.696911037E-1,2.550150633E0,9.704092026E0
1.507637990E1,3.278166950E-1,2.517847538E0,9.703494072E0
1.509648901E1,3.020938635E-1,2.499303341E0,9.612566948E0
1.511659812E1,2.003988922E-1,2.480758905E0,9.546165466E0
1.513670724E1,1.591227055E-1,2.490928411E0,9.592227936E0
1.515681640E1,2.907279432E-1,2.506481647E0,9.473184586E0
1.517692552E1,3.613162339E-1,2.583650351E0,9.394221306E0
1.519703464E1,4.055834413E-1,2.580060959E0,9.497711182E0
1.521714375E1,3.714857101E-1,2.555534601E0,9.632308006E0
1.523725286E1,2.709871531E-1,2.614757061E0,9.615557671E0
1.525736203E1,2.925225794E-1,2.624926329E0,9.548559189E0
1.527747115E1,3.565305769E-1,2.644068956E0,9.548559189E0
1.529758026E1,3.990031779E-1,2.672184706E0,9.609575272E0
1.531768937E1,3.966103494E-1,2.685345173E0,9.573683739E0
1.533779854E1,2.488535494E-1,2.639283419E0,9.692726135E0
1.535790766E1,2.470589429E-1,2.587837696E0,9.641280174E0
1.537801677E1,3.397808075E-1,2.621337175E0,9.620942116E0
1.539812594E1,3.906283081E-1,2.622533560E0,9.678967476E0
1.541823505E1,2.745763958E-1,2.605783939E0,9.656833649E0
1.543834417E1,1.639083475E-1,2.565105915E0,9.755537987E0
1.545845328E1,2.452643216E-2,2.497508526E0,9.768099785E0
1.547856245E1,2.003988922E-1,2.547159672E0,9.513862610E0
1.549867156E1,4.103690982E-1,2.655434847E0,9.402596474E0
1.551878068E1,3.822534084E-1,2.669791937E0,9.442078590E0
1.553888984E1,3.948157430E-1,2.684148788E0,9.487542152E0
1.555899896E1,4.325026870E-1,2.720041037E0,9.427721024E0
1.557910807E1,5.808576941E-1,2.729014158E0,9.481559753E0
1.559921719E1,5.353940725E-1,2.726621389E0,9.613164902E0
1.561932635E1,4.115654826E-1,2.639881611E0,9.604789734E0
1.563943547E1,4.803591371E-1,2.695514679E0,9.577870369E0
1.565954458E1,4.235295951E-1,2.771486759E0,9.433105469E0
1.567965375E1,4.666004181E-1,2.784049034E0,9.360722542E0
1.569976286E1,4.522434771E-1,2.723032236E0,9.491728783E0
1.571987198E1,4.073780477E-1,2.690729141E0,9.561120987E0
1.573998109E1,3.613162339E-1,2.643470764E0,9.618548393E0
1.576009026E1,2.739782035E-1,2.635095835E0,9.710074425E0
1.578019937E1,3.499503136E-1,2.699702263E0,9.622138023E0
1.580030849E1,4.432703853E-1,2.729612350E0,9.567103386E0
1.582041766E1,4.917250574E-1,2.722434044E0,9.569496155E0
1.584052677E1,4.887340367E-1,2.723032236E0,9.553942680E0
1.586063588E1,5.258227587E-1,2.702095032E0,9.529416084E0
1.588074505E1,4.127618968E-1,2.681756020E0,9.529416084E0
1.590085417E1,3.182454109E-1,2.638685226E0,9.577272415E0
1.592096328E1,3.762713671E-1,2.718246460E0,9.555138588E0
1.594107245E1,4.528416991E-1,2.759522676E0,9.468997002E0
1.596118156E1,5.485545993E-1,2.730808735E0,9.527023315E0
1.598129068E1,4.875376225E-1,2.738585472E0,9.583254814E0
1.600139984E1,4.947160780E-1,2.704487801E0,9.689137459E0
1.602150896E1,4.648058116E-1,2.705684185E0,9.649057388E0
1.604161807E1,4.217349887E-1,2.703889608E0,9.544969559E0
1.606172724E1,5.096712112E-1,2.691925526E0,9.562317848E0
1.608183635E1,4.989035130E-1,2.672184706E0,9.516854286E0
1.610194552E1,4.671986103E-1,2.699103832E0,9.594022751E0
1.612205464E1,4.923232496E-1,2.691327333E0,9.520442963E0
1.614216375E1,5.174478889E-1,2.713460922E0,9.525827408E0
1.616227292E1,5.234299302E-1,2.742773056E0,9.473184586E0
1.618238203E1,4.977070987E-1,2.737389088E0,9.393025398E0
1.620249114E1,4.821537733E-1,2.718246460E0,9.434899330E0
1.622260031E1,4.618147612E-1,2.731407166E0,9.415757179E0
1.624270943E1,4.480560422E-1,2.623131752E0,9.521040916E0
1.626281859E1,3.798605800E-1,2.590230465E0,9.650852203E0
1.628292771E1,4.731806815E-1,2.681157827E0,9.533603668E0
1.630303682E1,5.330012441E-1,2.669193745E0,9.507282257E0
1.632314599E1,5.024927258E-1,2.661417007E0,9.583852768E0
1.634325510E1,4.624129832E-1,2.771486759E0,9.471988678E0
1.636336427E1,5.120640397E-1,2.845066071E0,9.463613510E0
1.638347339E1,5.150550604E-1,2.790629387E0,9.577870369E0
1.640358250E1,4.797609448E-1,2.705085993E0,9.555737495E0
1.642369167E1,4.809573591E-1,2.694318295E0,9.558728218E0
1.644380078E1,4.941178858E-1,2.751147747E0,9.651450157E0
1.646390995E1,5.389832854E-1,2.756531715E0,9.731609344E0
1.648401906E1,6.173482537E-1,2.739781857E0,9.614361763E0
1.650412818E1,5.970092416E-1,2.743969440E0,9.589237213E0
1.652423734E1,5.413761139E-1,2.695514679E0,9.705886841E0
1.654434646E1,5.796613097E-1,2.727219582E0,9.600603104E0
1.656445562E1,6.113662124E-1,2.812762976E0,9.350552559E0
1.658456474E1,5.844469070E-1,2.752942562E0,9.468997002E0
1.660467391E1,4.558327198E-1,2.692523718E0,9.640682220E0
1.662478302E1,5.437689424E-1,2.704487801E0,9.471988678E0
1.664489214E1,5.653043389E-1,2.739183664E0,9.452845573E0
1.666500130E1,4.642075896E-1,2.732005358E0,8.812766075E0
1.668511042E1,4.414757788E-1,2.775076151E0,9.463613510E0
1.670521958E1,5.407779217E-1,2.659622431E0,1.001994514E1
1.672532870E1,4.683950245E-1,2.651845694E0,9.913464546E0
1.674543786E1,5.682953596E-1,2.717050076E0,9.989436150E0
