Time (s),Acceleration x (m/s^2),Acceleration y (m/s^2),Acceleration z (m/s^2),Gyroscope x (rad/s),Gyroscope y (rad/s),Gyroscope z (rad/s)
9.628857655,0.503090978,3.57128787,8.933603287,0.060550235,0.0219905,-0.077653959
9.64896776,0.47557351,3.631108284,8.628518105,0.012140589,0.0361927,-0.078264803
9.669077916,0.460020155,3.62153697,8.696115494,-0.060702946,0.031458635,-0.081319042
9.689188072,0.495912492,3.549154282,9.075378418,-0.084984124,0.030236939,-0.086663954
9.709298176,0.397806764,3.512065411,9.238688469,-0.064062603,0.062459134,-0.096437514
9.729408332,0.133998066,3.422334671,9.195617676,-0.046958882,0.059863031,-0.074294299
9.749518489,0,3.348157167,9.335597992,-0.035963632,0.038788799,-0.012446013
9.769628593,0.044267219,3.415156126,9.364311218,0.015958386,0.019852536,0.056274302
9.789738749,0.364307255,3.44147706,9.077172279,0.036116343,-0.001221695,0.098422766
9.809848905,0.659222662,3.42472744,8.984451294,-0.005726693,0.001068983,0.089107342
9.82995901,0.637089014,3.378665686,9.154939651,-0.031687703,0.047493376,0.069102094
9.850069166,0.539581478,3.276970625,9.151350021,0.00129805,0.086893022,0.075668707
9.870179322,0.485144794,3.231507063,8.722436905,0.037490752,0.089183703,0.090329036
9.890289478,0.504885554,3.242274761,8.334799767,0.022677705,0.067498624,0.103920393
9.910399582,0.631106973,3.227917671,8.213363647,-0.007711946,0.051922016,0.097811915
9.930509739,0.564706147,3.252444267,8.153543472,-0.035658211,0.074828789,0.076279551
9.950619895,0.361316234,3.266202927,8.060821533,-0.066047862,0.104149461,0.069865659
9.970729999,0.327218503,3.21954298,8.111070633,-0.109418012,0.080937259,0.091092594
9.990840155,0.559322298,3.111267567,8.580661774,-0.13308835,0.060779303,0.107280053
10.01095031,0.720239639,2.992822886,9.037691116,-0.053220067,0.108883523,0.112777673
10.03106047,0.696311414,2.974876642,8.600402832,0.096284799,0.195776552,0.117969878
10.05117057,0.437288344,3.182454109,7.581658363,0.177527487,0.205855534,0.121482246
10.07128073,0.35174492,3.286541939,6.79920578,0.132935628,0.102316916,0.117053606
10.09139089,0.53479588,3.138186932,7.049255371,0.02817533,0.009162709,0.12270394
10.11150099,0.826122046,2.972483873,7.916055679,0.066505998,0.01267508,0.126369029
10.13161114,0.784845829,3.091526747,7.93818903,0.251592726,0.030084228,0.107127339
10.1517213,0.519242525,3.393022537,7.122236729,0.340165556,-0.055587102,0.086969376
10.1718314,0.493519664,3.634697676,6.693323135,0.261824399,-0.171648085,0.065284304
10.19194156,0.622133911,3.589832067,7.132406235,0.062535487,-0.290763289,0.03840702
10.21205172,1.060618639,3.363112211,8.571688652,-0.114915639,-0.283433139,0.043446511
10.23216187,1.58703959,3.24466753,10.02532864,-0.059175827,-0.072538115,0.022219568
10.25227198,1.422533035,3.574877024,10.02353382,0.177527487,0.168899268,-0.06681142
10.27238214,0.640678287,3.811168194,8.555537224,0.324741662,0.142021984,-0.12163496
10.29249229,0.507278383,3.733999729,7.669594765,0.22715883,-0.092696071,-0.086663954
10.31260245,0.793818891,3.81296277,8.130811691,0.044515494,-0.138356909,-0.066505998
10.33271255,0.929013372,3.873979807,8.480761528,-0.160881892,0.211811289,-0.086358532
10.35282271,1.046261668,3.915256023,9.42712307,-0.440039098,0.64337486,-0.120718688
10.37293286,1.063609719,3.658027649,12.24108219,-0.39514181,0.459662557,-0.163630709
10.39304297,0.811765075,3.480360508,14.6578331,0.271445245,-0.362995982,-0.184704945
10.41315312,0.31226337,3.89192605,13.39502144,1.075854778,-0.864959717,-0.194783926
10.43326328,-0.215952247,4.157529354,9.946365356,1.188556075,-0.917034447,-0.18623206
10.45337344,-0.101096757,4.055834293,8.416753769,0.565415502,-0.502421856,-0.110334285
10.47348354,-0.104685992,4.440480709,9.763913155,-0.143930882,0.266940266,-0.044668205
10.4935937,-0.588634372,4.895715237,11.43470097,-0.408275038,0.791428983,-0.061619218
10.51370385,-1.165902853,4.852046013,11.70688438,-0.373762161,0.748211563,-0.075057857
10.53381401,-1.207777262,4.460819721,11.5704937,-0.307179809,0.241131961,-0.038559735
10.55392411,-0.688534737,4.063611031,11.55494022,-0.296337277,-0.293206692,-0.019623468
10.57403427,-0.044267219,3.669393539,11.76251793,-0.481729418,-0.422706306,-0.038559735
10.59414443,0.165104762,3.212962627,12.50907898,-0.735383749,-0.038941514,-0.053067356
10.61425458,-0.52342993,2.964108944,12.88116264,-0.789749146,0.450194418,-0.007253811
10.63436469,-1.1820544,2.950350285,12.19861031,-0.622529686,0.614359617,0.142251059
10.65447484,-0.870389223,2.993421078,10.95553875,-0.366432011,0.384070218,0.277248293
10.674585,-0.192024022,3.000599623,9.437292099,-0.141334787,0.022906773,0.270528972
10.69469516,0.053240303,2.819941521,8.139784813,-0.110028863,-0.176992998,0.184552223
10.71480526,-0.17587246,2.602194548,7.782057285,-0.220897645,-0.033596598,0.137822419
10.73491542,-0.580259502,2.577069998,7.959126472,-0.252203554,0.236703306,0.159812912
10.75502557,-0.623330295,2.544766903,7.701299667,-0.173098847,0.371547848,0.199212566
10.77513573,-0.448056042,2.417947292,7.10249567,-0.18363595,0.405755281,0.202724934
10.79524588,-0.166899383,2.288136721,7.60319376,-0.256784916,0.463480353,0.1828724
10.81535599,-0.061016977,2.218146563,8.573483467,-0.108959884,0.414765298,0.101935133
10.83546614,-0.384646237,2.106880426,8.581260681,0.222272053,0.231205687,0.046653461
10.8555763,-0.611366212,2.087737799,7.582854748,0.528611958,-0.007635591,0.043446511
10.87568646,-0.625124931,2.123031855,6.26979351,0.614894152,-0.212880269,0.048180576
10.89579656,-0.327816695,2.16131711,5.787639618,0.44828552,-0.279004484,0.053220067
10.91590672,0.042472601,2.255833626,6.506682873,0.285952866,-0.201732308,0.03672719
10.93601687,0.160917327,2.345564365,7.046264648,0.312066585,-0.123543859,-0.021303298
10.95612703,-0.029312078,2.484348059,6.657430649,0.402930111,-0.147214189,-0.087274805
10.97623714,-0.318245411,2.641077995,5.989833355,0.328712195,-0.281906009,-0.144083604
10.99634729,-0.415752947,2.734996319,6.475576401,0.105294794,-0.325428873,-0.153246313
11.01645745,-0.396610349,2.789433002,7.609176159,-0.022677705,-0.251210928,-0.156453252
11.0365676,-0.485144794,2.657229662,8.713463783,-0.044515494,-0.183712319,-0.123620212
11.05667776,-0.314656168,2.547159672,9.837491989,0.05092939,-0.164470628,-0.035810921
11.07678786,0.012562319,2.68175602,10.49850941,0.215858147,-0.161874518,0.031993125
11.09689802,0.081355967,3.042474031,10.44048309,0.322603703,-0.095597595,0.044210069
11.11700818,-0.96251291,4.314259052,9.559326172,0.216010869,0.025655584,0.049707696
11.13711833,-0.687936485,4.104289055,9.51745224,-0.313441008,-0.297940761,0.141487494
11.15722849,2.032702923,2.554936409,12.56172085,-0.934825361,-0.380099714,0.178291038
11.17733859,2.200798512,2.843869686,16.37169266,-0.947653174,0.136829794,-0.014125843
11.19744875,0.809970439,2.724228621,16.65583992,-0.389644206,0.319778532,-0.025731942
11.2175589,0.772283495,2.630908489,13.83290768,-0.013362284,0.015118469,0.152024612
11.23766906,1.230509043,3.59102869,11.63450146,-0.143625468,-0.179589093,0.187453747
11.25777922,1.372283816,3.932005882,11.56152058,-0.48371467,-0.187071979,0.109723441
11.27788932,1.612762451,3.574278831,12.56291676,-0.675368011,-0.154086217,0.069254808
11.29799948,1.886142492,3.256033421,13.15394402,-0.629707158,-0.05482354,0.037948888
11.31810964,1.853241086,3.015554667,12.75374508,-0.37742725,0.070552856,0.015347538
11.33821979,1.439880967,3.081357241,11.1948204,-0.059023116,0.076050483,-0.002367033
11.35832995,1.078564763,3.186641455,9.153144836,0.157980368,-0.035276428,-0.019318044
11.37844005,0.875773072,3.181257725,7.315456867,0.160576478,-0.156835035,-0.083151586
11.39855021,0.420538575,3.120838881,6.555137634,-0.042988375,-0.236550599,-0.137364283
11.41866036,0.096909314,2.908475876,7.317251682,-0.236932382,-0.217919767,-0.128201574
11.43877052,0.079561353,2.670988321,8.264211655,-0.23235102,-0.068414897,-0.081471756
11.45888068,0.083150588,2.519043922,8.489136696,-0.121482246,0.042606596,-0.026953636
11.47899083,0.316450805,2.293520451,8.46102047,-0.015042114,0.007635591,0.028786177
11.49910094,0.501894534,2.128415823,8.696115494,0.127285302,-0.107050985,0.060397524
11.51921109,0.533599436,2.087737799,8.577073097,0.348106593,-0.131790295,0.080860905
11.53932125,0.28414768,2.154736757,7.607381344,0.527542949,-0.03939965,0.104225814
11.55943141,-0.000598206,2.337787628,6.472585201,0.579770386,0.07070557,0.153093591
11.57954156,-0.037686955,2.45383954,5.484349728,0.487685174,0.121864028,0.193867654
11.59965167,0.17587246,2.466402054,5.353342533,0.284425765,0.131484866,0.229296789
11.61976182,0.57966131,2.488535643,6.319444656,0.143167332,0.132248431,0.22456272
11.63987198,0.963111103,2.277967215,7.392625332,0.17844376,0.132859275,0.177985624
11.65998214,1.28614223,1.926820397,7.948956966,0.269307286,0.186002985,0.121024117
11.68009229,1.113260746,2.11046958,8.249854088,0.360476226,0.382848531,0.074294299
11.70020245,0.606580555,2.499303341,8.216953278,0.460502476,0.439657301,0.03672719
11.72031255,0.40797627,2.453241348,8.426324844,0.502345502,0.238993987,0.050471254
11.74042271,0.425324231,2.687737942,9.062217712,0.571676672,0.14507623,0.088496499
11.76053286,0.162711933,3.434298754,8.932407379,0.623675048,0.179894522,0.056885149
11.78064302,-0.452841699,4.175475597,8.498109818,0.412245542,0.116671823,0.000229068
11.80075318,-0.753739119,4.218546391,9.631709099,-0.032909397,-0.23991026,-0.012293302
11.82086333,0.046061836,3.746562004,12.84168053,-0.415299773,-0.428662062,0.019623468
11.84097344,0.729212701,3.685544968,15.69213104,-0.398501486,-0.044744562,-0.04497363
11.86108359,0.058624156,3.900899172,15.17528152,-0.18363595,0.215781793,-0.154620707
11.88119375,-0.756730139,3.960121393,13.21914864,-0.302140325,0.030847786,-0.121787675
11.9013039,-0.601196706,4.009174347,12.9954195,-0.668495953,-0.106134713,-0.011835165
11.92141406,-0.259023041,3.966701746,13.7856493,-0.867021322,0.018019995,0.047569729
11.94152422,-0.335593373,3.803989887,13.6791687,-0.847932339,0.098804541,0.072461754
11.96163437,-0.321834654,3.544368505,13.14856052,-0.732482195,0.068109468,0.136142582
11.98174448,-0.014356935,3.41635251,12.30867958,-0.524946868,0.052532863,0.171724439
12.00185464,0.146560386,3.317050457,10.99801064,-0.291755915,0.029015245,0.160729185
12.02196479,0.16031912,3.135794163,9.576674461,-0.13858597,-0.025502874,0.139196813
12.04207495,0.157926291,2.925225735,8.721240044,-0.065742433,-0.083838783,0.113541231
12.0621851,0.276969224,2.725425005,8.484949112,0.027717194,-0.098804541,0.080708191
12.08229526,0.347557485,2.510669231,8.370093346,0.176916644,-0.126903519,0.011682454
12.10240542,0.21535404,2.438286304,7.868797302,0.292824894,0.01099525,-0.041003123
12.12251552,0.114855483,2.374876499,7.244270325,0.30763796,0.236856028,-0.068338536
12.14262568,0.071186475,2.325823545,6.935596466,0.301834911,0.311226666,-0.085136838
12.16273583,0.011964113,2.385046005,6.708278179,0.352840662,0.169968247,-0.124994621
12.18284599,-0.011365907,2.337189436,6.228517532,0.370097071,-0.023670331,-0.17477867
12.20295614,-0.093320087,2.252244234,6.065207005,0.306263536,-0.098040983,-0.203030363
12.2230663,-0.291924357,2.286940336,6.373282909,0.219981372,-0.134080976,-0.207459003
12.24317646,-0.292522579,2.29651165,6.859624386,0.18180342,-0.171953499,-0.171877146
12.26328661,-0.020338992,2.365305185,7.098906517,0.186995611,-0.177603841,-0.15339902
12.28339672,0.266799718,2.477767944,7.061817646,0.164241552,-0.16202724,-0.174931377
12.30350687,0.425324231,2.462812662,7.237092018,0.111250557,-0.177451134,-0.221966624
12.32361703,0.269790739,2.498106956,7.840083599,0.066964127,-0.195165694,-0.258464754
12.34372719,-0.035294134,2.702095032,8.482556343,0.107890897,-0.176076725,-0.238764927
12.36383734,-0.230907381,2.801397085,8.532805443,0.198449001,-0.186308414,-0.187759176
12.3839475,0.214157626,2.598605394,8.322834969,0.178901896,-0.233038232,-0.124994621
12.40405766,1.004387259,2.474178553,9.019744873,0.077653959,-0.177603841,-0.116442762
12.42416781,0.412163705,3.617947817,9.672985077,0.023288552,0.018325418,-0.17844376
12.44427792,0.452841699,3.08973217,10.3094759,-0.099797174,-0.167524859,-0.143320039
12.46438807,1.849053741,1.966900229,11.98624706,-0.211887643,-0.124460131,-0.115221061
12.48449823,1.056431174,3.34875536,13.61755371,-0.018401774,0.266787529,-0.199059844
12.50460839,-0.654437006,4.046861172,12.66700459,0.446300268,0.1007898,-0.173251554
12.52471854,-0.18005991,3.569493294,9.918848038,0.550297022,-0.651468575,0.045889899
12.5448287,1.889133453,3.933202267,8.863015175,-0.026037365,-0.815786541,0.106058352
12.56493885,2.880360365,4.263411522,10.59721375,-0.709270001,-0.2506001,-0.125452757
12.58504901,1.903490424,4.006781578,12.87218952,-1.028743148,0.208298922,-0.342303544
12.60515917,1.085145116,3.589233875,14.01476192,-1.039433002,0.227846026,-0.33161372
12.62526927,0.91166544,3.055036306,14.71167183,-0.846252501,0.1291942,-0.223341033
12.64537943,0.934397221,2.74935317,14.18883991,-0.37849623,0.07513421,-0.091703445
12.66548958,0.867398202,2.977867842,11.61117172,0.067116842,-0.004428643,-0.007253811
12.68559974,0.934397221,3.205784082,8.767302513,0.176611215,-0.064902522,0.023288552
12.7057099,0.945763171,3.357728481,7.068996429,0.004810422,-0.001985254,-0.027106347
12.72582005,0.725623488,3.357130051,6.798607349,-0.235710681,0.035123717,-0.121482246
12.74593021,0.395413935,2.950350285,7.823931694,-0.365210295,-0.06139015,-0.197532728
12.76604036,0.00418744,2.511865616,9.233304024,-0.221355781,-0.112090468,-0.210665941
12.78615052,-0.451645285,2.232503414,9.487542152,0.159049362,-0.050242186,-0.165157825
12.80626068,-0.788435042,2.048854351,8.343772888,0.49883315,0.092085227,-0.032756682
12.82637083,-0.75134629,2.175673962,6.903891563,0.681705535,0.238993987,0.127896145
12.84648099,-0.498903513,2.471785784,5.680561066,0.691937208,0.290457875,0.212803915
12.86659109,-0.357726991,2.666202545,5.283950806,0.564041078,0.229678571,0.257853895
12.88670125,-0.132801652,2.80259347,5.734399319,0.441413492,0.139884025,0.28106609
12.90681141,0.102293171,2.815155745,6.683153629,0.420950115,0.049936764,0.270987123
12.92692156,0.162711933,2.796013355,7.213762283,0.458211809,-0.009009997,0.250981867
12.94703172,0.122632161,2.945564747,7.65404129,0.413009107,-0.072843537,0.239681199
12.96714187,0.294317186,2.718844652,8.599205971,0.290381521,-0.110868774,0.26075542
12.98725203,0.817747116,2.288136721,10.25324535,0.218301535,-0.116977252,0.31389913
13.00736219,1.26341033,2.349153519,11.65902805,0.313746423,0.07513421,0.344899625
13.02747234,0.915852845,3.0448668,11.41854954,0.492266536,0.302980244,0.295421004
13.0475825,-0.090927258,3.667598963,10.26401234,0.438206554,0.137746051,0.278317273
13.06769266,0.110069841,3.819543123,10.45424175,0.134310037,-0.22845687,0.333904386
13.08780281,0.921834946,3.937987804,11.76550865,-0.170502737,-0.324359894,0.318633199
13.10791292,1.380060434,3.86081934,13.06421375,-0.404609948,-0.240979239,0.235557973
13.12802307,1.472782373,3.643670797,13.90708542,-0.512119055,-0.002290677,0.179665446
13.14813323,0.926620543,3.740580082,13.79402447,-0.486463487,0.25319618,0.168975622
13.16824338,0.366101861,3.867997885,12.52283764,-0.431029111,0.290915996,0.208680689
13.18835354,0.337986201,3.778266907,11.13858986,-0.476231784,0.168593839,0.246858642
13.2084637,0.435493708,3.592225075,10.5038929,-0.617642939,0.069331162,0.259228319
13.22857385,0.548554599,3.388834953,10.82034397,-0.665899873,0.082158953,0.273277789
13.24868401,0.578464866,3.166900873,10.87837029,-0.531818867,0.117588095,0.282898635
13.26879417,0.52342993,3.00837636,10.28554821,-0.322450995,0.110257931,0.304736435
13.28890432,0.552143812,2.933002472,9.413962364,-0.12331479,0.035123717,0.311761171
13.30901448,0.619741082,2.781656265,8.575278282,0.003894151,-0.079715565,0.301682204
13.32912464,0.800399184,2.609971285,8.187641144,0.065437011,-0.167982996,0.280455262
13.34923479,0.839282513,2.598605394,8.145168304,0.174625963,-0.165234178,0.238612205
13.36934495,0.705284476,2.540579557,7.634898663,0.318175077,-0.157904014,0.185926631
13.3894551,0.601794899,2.449652195,6.929016113,0.367806405,-0.161110967,0.155536979
13.40956526,0.700498819,2.474776745,6.5258255,0.330086589,-0.168593839,0.118580721
13.42967542,0.867398202,2.548954248,6.498906136,0.241055593,-0.164165199,0.040850412
13.44978557,0.732203722,2.65364027,6.808776855,0.16592139,-0.1435491,-0.06681142
13.46989568,0.31226337,2.684148788,7.012166977,0.140723944,-0.161416382,-0.133241057
13.49000588,0.145363972,2.583052158,7.058826923,0.077348538,-0.189515367,-0.132935628
13.51011599,0.396012157,2.412563324,7.212565422,-0.020234315,-0.116366401,-0.118733436
13.53022614,0.671186745,2.229512453,7.613363266,-0.109723441,-0.024586603,-0.148817658
13.5503363,0.873380244,1.8628124,8.268997192,-0.092619717,0.050853033,-0.205321029
13.57044646,0.637687206,1.703091502,8.548358917,0.0432938,0.044133715,-0.245942384
13.59055661,0.233898416,2.053041935,8.492127419,0.186842904,-0.063833542,-0.204099342
13.61066677,0.535992265,2.28215456,8.503493309,0.212193072,-0.213338405,-0.151566476
13.63077693,0.890130043,2.472383976,9.611968994,0.167601213,-0.204328403,-0.110945135
13.65088708,1.044467092,2.870190859,10.4159565,0.288548976,-0.007482879,-0.090176329
13.67099724,0.380458802,3.892524242,9.467801094,0.348106593,0.21257484,-0.099949881
13.6911074,0.028115666,4.486542225,8.449056625,0.043599222,0.136066228,-0.074905142
13.71121755,0.930808008,4.008575916,9.524032593,-0.437748402,-0.096513867,-0.05092939
13.73132771,1.965105653,3.527618885,12.03709412,-0.832813859,-0.241895512,-0.082846157
13.75143786,2.833101988,2.899502754,15.26740456,-1.040043831,-0.33184278,-0.102851406
13.77154802,3.108276606,2.37786746,17.18943977,-0.801813364,0.008704574,-0.113083102
13.79165818,1.905285001,2.693720102,15.43191147,-0.369333535,0.576334417,-0.094757684
13.81176833,0.890130043,3.147160053,12.02572823,-0.240139335,0.75722152,0.018554486
13.83187849,0.829113066,3.245265722,10.0205431,-0.339096576,0.499673069,0.1260636
13.85198864,1.402792215,3.180659533,9.609575272,-0.454088569,0.134539112,0.150650203
13.8720988,1.880758643,3.091526747,9.865009308,-0.421102822,0.063833542,0.049860407
13.89220896,1.1820544,2.872583628,9.415159225,-0.284883887,0.200510606,-0.090787172
13.91231911,0.281156659,2.519043922,8.599205971,-0.167906642,0.337951243,-0.072767183
13.93242927,0.092721879,2.250449657,7.934001446,-0.09521582,0.246171445,0.06956023
13.95253943,0.781854808,2.227717876,7.885547161,-0.054594472,0.070247434,0.197838157
13.97264958,1.40697968,2.461018085,8.319246292,0.085900396,0.104913019,0.180581719
13.99275974,1.15393877,2.64227438,7.871788502,0.316342533,0.207688063,0.081777178
14.0128699,0.406779856,2.62253356,6.954739094,0.453935862,0.191347897,0.048791423
14.03298005,0.153738856,2.415554523,6.676573277,0.501123846,0.019852536,0.11995513
14.05309021,0.512662232,2.236690998,6.946962357,0.546326518,-0.092390649,0.191118836
14.07320036,0.836889744,2.263610125,7.174878597,0.579159558,-0.039094225,0.183177829
14.09331052,0.949950576,2.283350945,7.343572617,0.580381274,0.038941514,0.145305291
14.11342068,0.975075245,2.126621008,7.79761076,0.555031061,0.051311169,0.125147328
14.13353083,0.932004392,2.193022013,8.490931511,0.618559182,0.103691325,0.141640201
14.15364099,0.546759963,2.727219582,8.195417404,0.76737684,0.176687568,0.134004623
14.17375114,0.10049855,3.000599623,7.249056339,0.739430606,0.045813546,0.164546982
14.1938613,0.675972402,2.666800737,7.283154011,0.439580947,-0.196692824,0.203641206
14.21397146,1.622931957,2.569891453,9.190832138,0.065437011,-0.120642334,0.156453252
14.23408161,0.940977514,3.921836376,10.87717342,-0.018401774,0.29900974,-0.047111593
14.25419177,-0.888933599,4.651049137,10.46381378,-0.106058352,0.142327413,-0.203488499
14.27430193,-0.684945464,3.343969584,11.77508068,-0.558848858,-0.57877779,-0.08819107
14.29441208,1.049252748,2.736790895,15.66521168,-0.821971357,-0.727213681,0.04940227
14.31452224,1.247258782,3.395415306,18.0711956,-0.478675187,-0.235023484,-0.000839915
14.3346324,0.397806764,3.3852458,16.05524254,-0.030924143,0.120795049,0.00633754
14.35474255,0.41934216,3.291327477,13.01755333,0.005726693,0.121864028,0.143167332
14.37485271,0.935593665,3.453441381,11.60100269,-0.106058352,0.067956761,0.156300545
14.39496286,0.907477975,3.443870068,10.65165043,-0.109723441,0.049325917,0.079791926
14.41507302,0.471984267,3.371487141,9.233902931,-0.099033609,0.013896775,0.008475506
14.43518318,0.010169496,3.283550978,8.027321815,-0.218912393,-0.068109468,-0.004046863
14.45529333,0.022731815,3.015554667,7.993224144,-0.412092835,-0.125223681,0.021303298
14.47540349,0.199800685,2.70149684,8.921041489,-0.426600456,-0.068414897,0.029397024
14.49551364,0.145962179,2.412563324,9.01316452,-0.213414758,0.020005248,0.025121093
14.5156238,0.038285162,2.182254314,8.157731056,0.018554486,0.03771982,0.051692948
14.53573396,0.134596273,2.060220242,7.155138016,0.166532233,0.024586603,0.062230065
14.55584411,0.230907381,1.951346874,6.397211552,0.224715442,0.028862532,0.02741177
14.57595427,0.068793654,1.91066885,6.196214199,0.250981867,0.037414394,-0.023135839
14.59606443,-0.18005991,1.828714728,6.165705681,0.348717421,-0.03115321,-0.033672955
14.61617458,-0.247058943,1.759921074,5.919843197,0.439122826,-0.187071979,0.023441264
14.63628474,0.327218503,2.031506538,5.584249973,0.424615204,-0.256403148,0.090787172
14.6563949,1.150349498,2.703889608,5.74337244,0.1906607,-0.213491112,0.004199575
14.67650505,1.339980721,3.19382,6.814160824,-0.111250557,-0.016187452,-0.222424761
14.69661521,0.565902531,2.983251572,8.348558426,-0.236626953,0.110563353,-0.438359261
14.71672542,-0.494117886,2.617748022,9.275776863,-0.140571222,0.086893022,-0.461571455
14.73683557,-0.876371265,2.455035925,9.561718941,-0.006032117,-0.056961507,-0.313746423
14.75694573,-0.171086818,2.371287346,9.758528709,0.059633963,-0.134997249,-0.148359522
14.77705589,0.890130043,2.307279348,10.14078236,0.056121591,-0.04550812,-0.094757684
14.79716604,0.602991283,3.271586657,10.52602673,0.062993623,0.234107211,-0.136448011
14.8172762,-0.751944542,4.643870354,10.03430176,0.01046076,0.191042483,-0.127896145
14.83738635,-0.091525465,3.805784464,10.68335533,-0.321229309,-0.369562596,-0.003130592
14.85749651,2.07098794,2.328814745,13.46321678,-0.646505475,-0.509904742,0.1260636
14.87760667,2.856431961,2.47358036,16.4901371,-0.55976516,-0.110563353,0.144389018
14.89771682,2.484946251,2.760120869,16.5146637,-0.033672955,0.241437376,0.117359027
14.91782698,1.351346612,3.371487141,13.04925823,0.266100347,0.181727067,0.134004623
14.93793714,1.022931695,3.836891174,10.67498016,-0.01733279,-0.161874518,0.178138331
14.95804729,1.698305845,3.403192043,11.44008541,-0.463862151,-0.32665056,0.214025602
14.97815745,2.539981127,2.912065268,12.99661636,-0.564499199,-0.084755056,0.201503232
14.9982676,2.425125837,2.74396944,12.83689499,-0.358796418,0.268772781,0.146679699
15.01837776,1.847259045,2.714657307,11.249856,-0.078417517,0.400715798,0.15339902
15.03848792,1.653440475,2.809173822,9.455238342,0.194936633,0.268925518,0.174473241
15.05859807,1.624128342,2.880958557,7.439285755,0.351160824,0.055587102,0.12438377
15.07870828,1.436890006,2.897109985,5.927619934,0.269918144,-0.10521844,0.030007871
15.09881844,1.127019525,2.819941521,5.585446358,0.084678702,-0.039246935,-0.047875155
15.11892859,0.677767038,2.773281336,5.842674732,-0.001908898,0.134080976,-0.103309542
15.13903875,0.191425815,2.638087034,5.928217888,0.007253811,0.222348407,-0.109723441
15.1591489,0.048454657,2.379063845,6.015556335,0.012904149,0.163707063,-0.064826168
15.17925906,0.137587309,2.227717876,6.660421848,0.014736691,0.091932513,-0.012293302
15.19936922,0.154935271,2.259422779,7.344171047,0.091245309,0.143243685,0.019470757
15.21947937,-0.099302143,2.282752752,7.479963779,0.194631204,0.205091968,0.05581617
15.23958953,-0.078963146,2.11645174,7.406982422,0.206237301,0.169357404,0.1260636
15.25969969,0.276371002,1.969292998,8.048258781,0.165463254,0.135760799,0.200892389
15.27980984,0.748953462,1.828116536,9.08435154,0.255868644,0.186919257,0.251134574
15.29992,1.113260746,1.768894196,9.299705505,0.499902129,0.347572088,0.267474741
15.32003016,0.736989379,2.249851465,8.278568268,0.688272178,0.455386639,0.243193567
15.34014031,0.262014091,2.782254457,7.533802032,0.604509711,0.283738554,0.242277294
15.36025047,0.374476731,2.981456995,8.748159409,0.335126072,0.031764057,0.253272533
15.38036062,0.41096729,3.262613773,11.42871952,0.242430002,0.02183779,0.26335153
15.40047078,-0.548554599,4.277768612,12.61196995,0.484172821,0.184170455,0.282440513
15.42058094,-1.417149186,5.003990173,10.88016415,0.60405159,-0.064138964,0.336500496
15.44069114,0.092721879,3.892524242,9.821938515,0.063604474,-0.821284115,0.397279799
15.4608013,2.379662037,3.072384357,12.91466236,-0.70667392,-0.888324618,0.341234565
15.48091146,2.404786825,3.457628727,16.56730652,-0.828690648,-0.120947756,0.066353284
15.50102161,0.114855483,3.363710403,16.17488289,-0.464320272,0.428509355,-0.053067356
15.52113177,-1.216750264,3.318246841,13.48415375,-0.276637465,0.392011225,0.175694943
15.54124193,-0.769890666,3.658027649,11.8271246,-0.29618457,0.08933641,0.406747907
15.56135208,0.314656168,3.745963812,11.23609734,-0.28625831,-0.114075728,0.449507237
15.58146224,0.954138041,3.61615324,10.4165554,-0.220439509,-0.202801287,0.353909642
15.6015724,1.007976532,3.509672642,9.507282257,-0.245942384,-0.179130957,0.247011364
15.62168255,0.865005374,3.459423304,9.181859016,-0.291755915,-0.05482354,0.163783416
15.64179271,0.539581478,3.353540897,8.95513916,-0.23601611,0.108730815,0.097811915
15.66190292,0.250049979,3.126821041,8.379665375,-0.104378529,0.181879774,0.065437011
15.68201302,0.126221389,2.91804719,7.634898663,-0.002061609,0.14171657,0.050623968
15.70212323,0.121435747,2.741576433,7.229913712,0.045431767,0.095903017,0.03840702
15.72223339,0.111266255,2.611765862,7.104290485,0.10239327,0.113006741,0.010308048
15.74234354,-0.064008005,2.46819663,6.911668301,0.176611215,0.159583852,-0.015805673
15.7624537,-0.270987153,2.317448616,6.720840454,0.238001362,0.159889266,-0.002519745
15.78256385,-0.319441825,2.303091764,6.616752625,0.294810146,0.115602844,0.039170582
15.80267401,-0.199202478,2.470589399,6.385845661,0.330392003,0.059404895,0.067269556
15.82278417,0.107078813,2.60279274,6.261418819,0.277706444,-0.006108473,0.059633963
15.84289432,0.469591439,2.574079037,6.65503788,0.178749174,0.001068983,0.025731942
15.86300448,0.634696186,2.712264538,7.164709091,0.126521736,0.094681323,-0.035352785
15.88311464,0.435493708,2.939582586,7.402196884,0.114304796,0.161110967,-0.108807169
15.90322479,0.119641133,2.900100946,7.525427341,0.060702946,0.074676074,-0.139196813
15.923335,0.195015043,2.739183664,8.283353806,-0.040392276,-0.068873025,-0.113083102
15.94344516,0.476171702,2.639881611,9.902098656,-0.10575293,-0.16279079,-0.070171081
15.96355531,1.047458172,2.53818655,11.81755257,0.048180576,-0.054059982,-0.021456011
15.98366547,1.334596872,2.458625317,12.23749352,0.40399912,0.179436386,-0.028022617
16.00377562,0.452841699,3.229712248,10.66540909,0.631463349,0.343754292,-0.022830416
16.02388578,-0.046660043,4.016352654,9.154341698,0.461266041,0.138204187,0.039170582
16.04399594,0.91166544,3.899104595,9.834501266,0.022372281,-0.217461631,0.030160584
16.06410609,1.188634634,3.972683907,11.75833035,-0.227616966,-0.259151936,-0.061771929
16.08421625,0.903888762,3.912265062,12.90329647,-0.314051837,-0.276255667,-0.114152081
16.10432641,1.164706469,3.434896946,13.20718479,-0.391171306,-0.261900753,-0.070934638
16.12443661,1.391426325,3.61615324,13.18624783,-0.6003865,-0.118504368,-0.043751936
16.14454677,1.470389485,3.649652719,13.77548027,-0.829759657,0.030084228,-0.04161397
16.16465693,1.302293777,3.395415306,14.54178143,-0.831286788,0.136829794,-0.025884653
16.18476708,0.954736233,3.332005501,14.21815205,-0.563888371,0.216087222,0.044210069
16.20487724,0.705284476,3.357728481,12.51506042,-0.255715936,0.188140959,0.133546487
16.2249874,0.708275497,3.458226919,10.68754196,-0.052761931,0.089489125,0.218148828
16.24509755,1.019940615,3.371487141,9.157930374,0.048027866,0.017561859,0.24640052
16.26520771,1.253240824,3.207578659,8.081758499,0.061466504,-0.009468133,0.212498486
16.28531786,1.192822099,3.122633457,7.576274872,0.051845662,0.041843038,0.155231565
16.30542802,0.859023333,2.997608662,7.267600536,0.110945135,0.078952007,0.101629712
16.32553818,0.476769924,2.807977438,6.765706062,0.201350525,0.077577598,0.087427512
16.34564838,0.268594354,2.563311338,6.20458889,0.252050847,0.082922518,0.111403272
16.36575854,0.310468733,2.35812664,5.929414749,0.248996615,0.097582847,0.147290543
16.3858687,0.478564531,2.176870346,6.105287075,0.253577977,0.101247937,0.158743933
16.40597885,0.623928487,2.063809633,6.379265308,0.304889143,0.121711314,0.132935628
16.42608901,0.528813779,2.067398787,6.443871498,0.376816392,0.137287915,0.085594974
16.44619917,0.202193514,2.194816589,6.35952425,0.413314521,0.118198946,0.063604474
16.46630932,-0.037088752,2.289931297,6.436094761,0.383077592,0.07513421,0.10300412
16.48641948,0.229112774,2.461018085,6.906284332,0.331460983,0.047340661,0.170197323
16.50652964,0.667597532,2.751745939,7.318448067,0.242582724,0.043675579,0.176611215
16.52663984,1.092323542,2.876172781,8.230113029,0.093383275,0.074676074,0.152482748
16.54675,1.727617979,2.742174864,9.757332802,0.011987877,0.138509616,0.090023614
16.56686016,1.75034976,2.691925526,11.24028397,0.067116842,0.289847016,0.015347538
16.58697031,1.061216831,2.852842808,12.23270798,0.352687925,0.443169683,0.037948888
16.60708047,0.221336097,3.257827997,11.30668545,0.710109949,0.391858518,0.131713942
16.62719062,0.150747821,3.498904943,10.11446095,0.780051947,0.127514362,0.278164566
16.64730078,0.984646499,3.828516245,9.944570541,0.631310642,0.003665084,0.312677443
16.66741094,-0.229710966,5.828916073,9.777671814,0.388117075,0.136066228,0.143625468
16.68752114,-1.113260746,5.429912567,10.40638542,-0.026037365,-0.431105465,0.074447006
16.7076313,1.249053478,2.81395936,13.21974659,-0.436679423,-0.965291381,0.230365768
16.72774146,2.919841766,2.815155745,16.75633812,-0.472413987,-0.479973227,0.17035003
16.74785161,1.844866276,3.705285788,17.47897148,0.010613471,0.169357404,-0.082846157
16.76796177,0.194416836,3.476173162,14.54118347,0.408733159,0.103233188,-0.091703445
16.78807193,0.287736923,3.488735437,11.41316605,0.501276553,-0.206771791,0.007253811
16.80818208,0.726221681,3.338585854,9.145368576,0.216621712,-0.408351392,-0.035810921
16.82829224,1.610967875,2.68175602,9.51386261,-0.320465744,-0.307408869,-0.075821415
16.8484024,1.744367719,2.876172781,11.26840019,-0.478980601,0.165692315,-0.233878151
16.8685126,0.327218503,3.071786165,10.90947628,-0.201503232,0.501352906,-0.371929616
16.88862276,-0.582054079,2.829512835,9.023334503,0.080402769,0.46210596,-0.337264031
16.90873292,-1.014556766,2.791825771,7.250850677,0.183025107,0.187988237,-0.266253054
16.92884307,-1.031904817,2.697309256,6.428916454,0.062230065,-0.103996746,-0.177527487
16.94895323,-0.534197629,2.551945448,7.320840836,-0.135989875,-0.17424418,-0.106669202
16.96906339,-0.16869399,2.494517565,8.660821915,-0.15003936,-0.027335415,-0.09323056
16.98917354,-0.254835606,2.466402054,9.305686951,-0.023746688,0.038025241,-0.079028361
17.0092837,-0.33200413,2.486740828,9.178269386,0.138433263,-0.020921519,-0.032145835
17.02939391,-0.236889437,2.641676188,8.578866959,0.201808661,-0.190584347,0.000839915
17.04950406,0.226121739,2.638087034,8.465208054,0.090329036,-0.278088212,-0.006184828
17.06961422,0.664606512,2.66799736,8.915657043,-0.049554985,-0.175924003,-0.066353284
17.08972437,0.658624411,2.738585472,9.296713829,-0.154620707,0.026571855,-0.14301461
17.10983453,0.333200544,2.830709219,9.360722542,-0.167448506,0.18676655,-0.182414264
17.12994469,-0.042472601,3.106482029,8.958129883,-0.144083604,0.156071469,-0.188217312
17.15005484,-0.192024022,3.267399311,8.637491226,-0.184704945,0.008246438,-0.163783416
17.17016505,0.001196411,3.268595695,8.883354187,-0.266100347,-0.08322794,-0.137822419
17.19027521,0.309272319,3.310470104,9.45224762,-0.32168743,-0.052838288,-0.131255806
17.21038536,0.476171702,3.343371391,10.00857925,-0.346426755,0.005344913,-0.136142582
17.23049552,0.586839736,3.36550498,10.47099209,-0.279538989,0.035887275,-0.151261047
17.25060568,0.424726009,3.358326674,10.29511929,-0.158285797,0.03130592,-0.170960873
17.27071583,0.246460736,3.337389469,9.805189133,-0.101782426,-0.020310672,-0.15813309