"Time (s)","Acceleration x (m/s^2)","Acceleration y (m/s^2)","Acceleration z (m/s^2)"
1.588693300E-2,4.821537733E-1,3.589233875E0,9.110074043E0
3.599636100E-2,1.506880045E0,3.389433384E0,8.390432358E0
5.610578800E-2,8.075776696E-1,3.771088600E0,8.761918068E0
7.621516300E-2,7.788637877E-1,3.636492252E0,9.085547447E0
9.632459000E-2,1.010967612E0,3.448057413E0,9.202795982E0
1.164340170E-1,8.458628058E-1,3.520440340E0,9.473184586E0
1.365434440E-1,7.345965505E-1,3.483351469E0,9.624530792E0
1.566528710E-1,7.052844763E-1,3.418147087E0,9.525228500E0
1.767622460E-1,6.658028960E-1,3.421138287E0,9.197412491E0
1.968716730E-1,5.874379873E-1,3.466601849E0,8.841479301E0
2.169811000E-1,5.425725579E-1,3.500101328E0,8.753543854E0
2.370905270E-1,5.132604837E-1,3.532404423E0,8.923434258E0
2.571999540E-1,4.995017350E-1,3.488137245E0,9.180662155E0
2.773093810E-1,4.528416991E-1,3.422334671E0,9.399605751E0
2.974187560E-1,3.625126183E-1,3.383451223E0,9.567103386E0
3.175281830E-1,2.362912297E-1,3.321835995E0,9.610772133E0
3.376376110E-1,2.249253243E-1,3.285345554E0,9.646066666E0
3.577470380E-1,2.745763958E-1,3.337389469E0,9.615557671E0
3.778564650E-1,3.361915946E-1,3.379862070E0,9.565906525E0
3.979658920E-1,5.395814776E-1,3.379862070E0,9.458230019E0
4.180752670E-1,5.431707501E-1,3.443870068E0,9.323633194E0
4.381846940E-1,2.835494876E-1,3.521636724E0,9.205786705E0
4.582941210E-1,2.111666054E-1,3.521038532E0,9.131608963E0
4.784035480E-1,3.092723191E-1,3.437289715E0,9.230911255E0
4.985129230E-1,5.904290080E-1,3.378067255E0,9.378668785E0
5.186223500E-1,8.494520187E-1,3.455235958E0,9.370293617E0
5.387317770E-1,8.470591903E-1,3.622733593E0,9.059226990E0
5.588412040E-1,6.059823632E-1,3.707678795E0,8.723632812E0
5.789506310E-1,3.601198196E-1,3.702294827E0,8.697312355E0
5.990600060E-1,1.782652885E-1,3.611367464E0,9.024530411E0
6.191694330E-1,1.345962733E-1,3.496512175E0,9.428917885E0
6.392788610E-1,1.088734269E-1,3.443870068E0,9.683155060E0
6.593882880E-1,2.991028316E-2,3.463012457E0,9.645467758E0
6.794976630E-1,9.631111473E-2,3.430111170E0,9.577870369E0
6.996070900E-1,2.111666054E-1,3.370888948E0,9.689735413E0
7.197165170E-1,1.674975902E-1,3.326621771E0,9.837491989E0
7.398259440E-1,1.429711580E-1,3.314059258E0,9.814760208E0
7.599353190E-1,1.190429255E-1,3.354737282E0,9.565308571E0
7.800447460E-1,1.130608693E-1,3.385843992E0,9.309276581E0
8.001541730E-1,1.435693651E-1,3.400201082E0,9.239286423E0
8.202636000E-1,2.494517565E-1,3.445664644E0,9.231510162E0
8.403729750E-1,4.025924206E-1,3.463610888E0,9.151947975E0
8.604824020E-1,4.809573591E-1,3.476771355E0,9.102297783E0
8.805918290E-1,5.096712112E-1,3.461217880E0,9.120841980E0
9.007012040E-1,4.851447940E-1,3.412763357E0,9.144171715E0
9.208106310E-1,3.912265003E-1,3.384049416E0,9.184251785E0
9.409200580E-1,3.882354796E-1,3.375076294E0,9.229715347E0
9.610294860E-1,3.792623878E-1,3.384049416E0,9.174081802E0
9.811388610E-1,2.673979402E-1,3.423531055E0,9.111269951E0
1.001248288E0,2.596212626E-1,3.412763357E0,9.156135559E0
1.021357715E0,2.518445849E-1,3.413361549E0,9.268000603E0
1.041467090E0,1.645065546E-1,3.415754318E0,9.318249702E0
1.061576517E0,1.728814393E-1,3.421138287E0,9.336793900E0
1.081685944E0,1.633101404E-1,3.468396425E0,9.375677109E0
1.101795371E0,2.105683982E-1,3.457030535E0,9.370293617E0
1.121904746E0,2.279163599E-1,3.495913982E0,9.315258980E0
1.142014173E0,2.709871531E-1,3.534797192E0,9.208179474E0
1.162123600E0,2.153540403E-1,3.530609846E0,9.148957253E0
1.182232975E0,1.627119333E-1,3.475574970E0,9.173483849E0
1.202342402E0,1.902294010E-1,3.442673683E0,9.343972206E0
1.222451829E0,2.243271172E-1,3.439084291E0,9.466604233E0
1.242561204E0,2.751746178E-1,3.453441381E0,9.445069313E0
1.262670631E0,2.715853751E-1,3.489333630E0,9.291928291E0
1.282780058E0,2.829512656E-1,3.481556892E0,9.159725189E0
1.302889433E0,2.638086975E-1,3.471387386E0,9.125029564E0
1.322998861E0,2.578266263E-1,3.462414265E0,9.175876617E0
1.343108288E0,2.793620527E-1,3.470789194E0,9.284152031E0
1.363217663E0,3.134597540E-1,3.470191002E0,9.351749420E0
1.383327090E0,3.696911037E-1,3.464209080E0,9.313464165E0
1.403436517E0,3.780659735E-1,3.436093330E0,9.270991325E0
1.423545892E0,2.889333367E-1,3.480958700E0,9.247062683E0
1.443655319E0,2.913261652E-1,3.511467218E0,9.168100357E0
1.463764746E0,3.708875179E-1,3.448655605E0,9.232706070E0
1.483874121E0,4.151547253E-1,3.384647608E0,9.425328255E0
1.503983548E0,3.678964674E-1,3.371487141E0,9.452247620E0
1.524092975E0,3.320041299E-1,3.444468260E0,9.328418732E0
1.544202350E0,3.948157430E-1,3.514458179E0,9.104690552E0
1.564311777E0,3.487538993E-1,3.485744476E0,8.929415703E0
1.584421204E0,2.650051117E-1,3.409173965E0,9.058030128E0
1.604530579E0,3.445664644E-1,3.353540897E0,9.367900848E0
1.624640006E0,3.714857101E-1,3.315854073E0,9.565906525E0
1.644749381E0,3.583251834E-1,3.326023579E0,9.574281693E0
1.664858808E0,3.912265003E-1,3.355933666E0,9.494720459E0
1.684968236E0,4.217349887E-1,3.379862070E0,9.408578873E0
1.705077611E0,4.241278172E-1,3.364308596E0,9.329017639E0
1.725187038E0,3.541377485E-1,3.314059258E0,9.332606316E0
1.745296465E0,2.835494876E-1,3.281157970E0,9.378668785E0
1.765405840E0,1.704886109E-1,3.260220766E0,9.459425926E0
1.785515267E0,8.135596663E-2,3.200998545E0,9.532406807E0
1.805624642E0,9.212367237E-2,3.177070379E0,9.513862610E0
1.825734069E0,-4.067798331E-2,3.248256683E0,9.368498802E0
1.845843496E0,-1.764706671E-1,3.327219963E0,9.221938133E0
1.865952871E0,9.032905847E-2,3.394218922E0,9.363115311E0
1.886062298E0,5.048855543E-1,3.406183004E0,9.694520950E0
1.906171673E0,7.190431952E-1,3.355335474E0,9.736394882E0
1.926281100E0,5.204389095E-1,3.318845034E0,9.547362328E0
1.946390475E0,2.901297510E-1,3.285943747E0,9.437292099E0
1.966499902E0,2.099701911E-1,3.211168051E0,9.474381447E0
1.986609329E0,2.446661144E-1,3.159722328E0,9.448060036E0
2.006718704E0,3.086741269E-1,3.135195971E0,9.330213547E0
2.026828131E0,3.098705411E-1,3.212962627E0,9.211769104E0
2.046937506E0,2.416750938E-1,3.276372433E0,9.116056442E0
2.067046933E0,2.937189937E-1,3.265006542E0,9.069993973E0
2.087156308E0,3.218346536E-1,3.239881754E0,9.174081802E0
2.107265736E0,2.913261652E-1,3.196810961E0,9.323633194E0
2.127375111E0,2.781656384E-1,3.136392355E0,9.334999084E0
2.147484538E0,2.219343036E-1,3.173480988E0,9.206384659E0
2.167593965E0,1.758724600E-1,3.224328518E0,9.156734467E0
2.187703340E0,1.794617027E-1,3.236890793E0,9.201599121E0
2.207812767E0,2.518445849E-1,3.272783279E0,9.275776863E0
2.227922142E0,3.176472187E-1,3.323032379E0,9.264410973E0
2.248031569E0,2.560320199E-1,3.372683525E0,9.239286423E0
2.268140944E0,1.734796464E-1,3.344567776E0,9.326025963E0
2.288250371E0,1.387837082E-1,3.303889751E0,9.464810371E0
2.308359746E0,2.093719840E-1,3.260220766E0,9.640682220E0
2.328469173E0,2.853440940E-1,3.259024382E0,9.716055870E0
2.348578548E0,3.942175210E-1,3.281157970E0,9.680762291E0
2.368687975E0,4.839483798E-1,3.285345554E0,9.557532310E0
2.388797350E0,6.227321029E-1,3.270390272E0,9.525228500E0
2.408906777E0,6.921239495E-1,3.226123095E0,9.476774216E0
2.429016152E0,6.604190469E-1,3.198007345E0,9.418747902E0
2.449125579E0,5.946164131E-1,3.211766243E0,9.364909172E0
2.469234954E0,5.796613097E-1,3.257229805E0,9.284749985E0
2.489344381E0,5.796613097E-1,3.280559778E0,9.249456406E0
2.509453756E0,6.538388133E-1,3.229114056E0,9.330213547E0
2.529563183E0,6.448656917E-1,3.175873756E0,9.385248184E0
2.549672611E0,5.569294691E-1,3.186043262E0,9.321838379E0
2.569781986E0,4.995017350E-1,3.191427231E0,9.218349457E0
2.589891361E0,3.954139352E-1,3.218944550E0,9.234500885E0
2.610000788E0,4.773681164E-1,3.200400352E0,9.309276581E0
2.630110163E0,5.509474277E-1,3.211766243E0,9.346364975E0
2.650219590E0,4.887340367E-1,3.299702406E0,9.269196510E0
2.670328965E0,3.864408433E-1,3.354139090E0,9.101100922E0
2.690438392E0,3.403790295E-1,3.370888948E0,9.039485931E0
2.710547767E0,3.439682424E-1,3.375076294E0,9.105886459E0
2.730657194E0,3.062812984E-1,3.358924866E0,9.187242508E0
2.750766569E0,2.691925466E-1,3.385843992E0,9.297312737E0
2.770875996E0,3.481557071E-1,3.411566973E0,9.384052277E0
2.790985371E0,4.085744619E-1,3.453441381E0,9.353543282E0
2.811094798E0,4.313062727E-1,3.537189960E0,9.321240425E0
2.831204173E0,5.802595019E-1,3.618546009E0,9.220742226E0
2.851313600E0,6.269195080E-1,3.680161238E0,9.257232666E0
2.871422975E0,6.801598072E-1,3.680161238E0,9.330213547E0
2.891532350E0,6.388836503E-1,3.667000771E0,9.454042435E0
2.911641777E0,4.205385745E-1,3.607180119E0,9.509077072E0
2.931751152E0,2.327020019E-1,3.538386583E0,9.444471359E0
2.951860579E0,1.651047617E-1,3.597010612E0,9.299705505E0
2.971969954E0,2.273181528E-1,3.637688637E0,9.213563919E0
2.992079381E0,2.428714931E-1,3.657429457E0,9.239884377E0
3.012188756E0,2.255235314E-1,3.553939819E0,9.361918449E0
3.032298131E0,2.416750938E-1,3.418147087E0,9.562317848E0
3.052407558E0,2.554338276E-1,3.296711445E0,9.742377281E0
3.072516933E0,3.200400174E-1,3.195614576E0,9.852447510E0
3.092626361E0,3.056831062E-1,3.145365477E0,9.909874916E0
3.112735736E0,3.918247223E-1,3.114258766E0,9.903294563E0
3.132845163E0,5.371887088E-1,3.176471949E0,9.831509590E0
3.152954538E0,6.257231236E-1,3.327818155E0,9.678967476E0
3.173063913E0,7.585247755E-1,3.373879910E0,9.576674461E0
3.193173340E0,7.244270444E-1,3.402593851E0,9.555138588E0
3.213282715E0,5.982056856E-1,3.386442184E0,9.492925644E0
3.233392142E0,4.965106845E-1,3.379862070E0,9.289535522E0
3.253501517E0,4.085744619E-1,3.436093330E0,9.177073479E0
3.273610944E0,4.438686073E-1,3.471387386E0,9.233902931E0
3.293720319E0,5.108676553E-1,3.474378586E0,9.305088997E0
3.313829694E0,4.097708762E-1,3.549154282E0,9.272188187E0
3.333939121E0,3.026920557E-1,3.609572887E0,9.054440498E0
3.354048496E0,2.500499785E-1,3.702294827E0,8.733802795E0
3.374157923E0,2.171486616E-1,3.859622955E0,8.593822479E0
3.394267298E0,2.961117923E-1,3.868596077E0,8.621339798E0
3.414376673E0,3.756731451E-1,3.888935089E0,8.697312355E0
3.434486100E0,3.062812984E-1,3.924229145E0,8.778069496E0
3.454595475E0,1.621137410E-1,3.955934048E0,8.732605934E0
3.474704850E0,1.202393398E-1,3.983451605E0,8.583054543E0
3.494814277E0,1.698904037E-1,3.973880291E0,8.567501068E0
3.514923652E0,3.792623878E-1,3.942773581E0,8.751151085E0
3.535033079E0,3.631108403E-1,4.080360889E0,8.860024452E0
3.555142454E0,2.775674164E-1,4.184448719E0,8.720642090E0
3.575251829E0,2.362912297E-1,4.203591347E0,8.482556343E0
3.595361256E0,1.716850251E-1,4.274179459E0,8.444869041E0
3.615470631E0,2.309073806E-1,4.299304008E0,8.642276764E0
3.635580006E0,2.051845491E-1,4.146761417E0,9.047262192E0
3.655689433E0,5.264209956E-2,3.897309780E0,9.540184021E0
3.675798808E0,-3.601198196E-1,3.787838221E0,1.003789139E1
3.695908183E0,-1.087537885E0,4.114458561E0,1.028913784E1
3.716017611E0,-1.371685624E0,4.808377266E0,9.916455269E0
3.736126986E0,-6.077769399E-1,5.145765305E0,9.461220741E0
3.756236361E0,1.292722464E0,4.613960266E0,1.002532864E1
3.776345788E0,2.281556368E0,3.527020693E0,1.160818100E1
3.796455163E0,1.436890006E0,2.745764017E0,1.282792187E1
3.816564590E0,-3.708875179E-2,2.231905222E0,1.246899891E1
3.836673965E0,-9.355936646E-1,2.202593327E0,1.057866859E1
3.856783340E0,-1.284347534E0,2.817548752E0,8.711071014E0
3.876892767E0,-1.194616675E0,3.509672642E0,7.491927624E0
3.897002142E0,-7.962117195E-1,3.792623997E0,7.278966427E0
3.917111517E0,-4.959124923E-1,3.580260992E0,7.966903210E0
3.937220944E0,-5.802595019E-1,3.118446112E0,8.869595528E0
3.957330319E0,-9.637092948E-1,2.830709219E0,9.512666702E0
3.977439694E0,-1.131805062E0,2.715853691E0,9.830911636E0
3.997549121E0,-9.032905698E-1,2.776870728E0,9.890133858E0
4.017658496E0,-5.389832854E-1,2.898306370E0,9.711270332E0
4.037767871E0,-4.145565331E-1,2.991028309E0,9.257830620E0
4.057877298E0,-5.647061467E-1,3.159124136E0,8.672785759E0
4.077986673E0,-6.891329288E-1,3.294916868E0,8.251050949E0
4.098096048E0,-7.830511928E-1,3.421736479E0,8.097311974E0
4.118205423E0,-7.812566161E-1,3.558127165E0,8.081160545E0
4.138314850E0,-5.742774606E-1,3.611965895E0,8.138587952E0
4.158424225E0,-2.823530734E-1,3.638885021E0,8.358727455E0
4.178533600E0,-5.982056726E-3,3.626322746E0,8.694919586E0
4.198643027E0,-3.768695518E-2,3.650250912E0,8.936594009E0
4.218752402E0,-1.639083475E-1,3.693919897E0,8.933603287E0
4.238861777E0,-2.033899277E-1,3.779463291E0,8.739784241E0
4.258971204E0,-1.322034448E-1,3.955934048E0,8.581858635E0
4.279080579E0,2.452643216E-2,4.067200184E0,8.549555779E0
4.299189954E0,-2.991028363E-3,4.074378967E0,8.747561455E0
4.319299329E0,-1.896311939E-1,4.046263218E0,9.103493690E0
4.339408756E0,-2.141576260E-1,4.031308174E0,9.296115875E0
4.359518131E0,-2.452643216E-2,4.109673023E0,9.307481766E0
4.379627506E0,8.733802289E-2,4.237090588E0,9.235098839E0
4.399736933E0,1.567298770E-1,4.255036831E0,9.343972206E0
4.419846308E0,2.673979402E-1,4.149752617E0,9.792626381E0
4.439955683E0,3.708875179E-1,3.932604074E0,1.019462109E1
4.460065058E0,4.677968323E-1,3.683152199E0,1.021256733E1
4.480174486E0,6.221338734E-2,3.897907972E0,9.832108498E0
4.500283861E0,-7.615157962E-1,4.685146809E0,9.075378418E0
4.520393236E0,-2.883351147E-1,4.880161762E0,8.489136696E0
4.540502663E0,1.174875975E0,4.720440865E0,8.967700958E0
4.560612038E0,2.352144718E0,4.040280819E0,1.069950676E1
4.580721413E0,2.869592667E0,2.563909531E0,1.250548935E1
4.600830788E0,2.101496458E0,1.250848055E0,1.332622719E1
4.620940215E0,2.691925466E-1,7.794619799E-1,1.255573845E1
4.641049590E0,-7.878368497E-1,1.213759303E0,1.100100231E1
4.661158965E0,-8.769695163E-1,2.209771633E0,9.464810371E0
4.681268340E0,-3.888336942E-2,2.940778971E0,8.280363083E0
4.701377767E0,1.000798106E0,3.223730326E0,7.587042332E0
4.721487142E0,1.210768223E0,3.232105255E0,7.589435101E0
4.741596517E0,8.877372146E-1,2.992224693E0,7.954938889E0
4.761705892E0,6.095715761E-1,2.700300455E0,8.306683540E0
4.781815319E0,3.032902777E-1,2.479562521E0,8.757730484E0
4.801924694E0,4.725824669E-2,2.444268227E0,9.257232666E0
4.822034069E0,-8.374879137E-3,2.544168711E0,9.541379929E0
4.842143444E0,6.340979785E-2,2.716451883E0,9.369096756E0
4.862252819E0,9.332008660E-2,2.980260611E0,8.837890625E0
4.882362246E0,1.597209126E-1,3.293122053E0,8.285746574E0
4.902471621E0,3.397808075E-1,3.436093330E0,8.021339417E0
4.922580996E0,3.684946895E-1,3.498306751E0,8.221140862E0
4.942690371E0,3.876372576E-1,3.407379389E0,8.678768158E0
4.962799798E0,4.025924206E-1,3.301496983E0,9.077771187E0
4.982909173E0,3.314059377E-1,3.267997503E0,9.250652313E0
5.003018548E0,2.482553422E-1,3.238087177E0,9.105288506E0
5.023127923E0,1.471585929E-1,3.343969584E0,8.692526817E0
5.043237350E0,9.750752151E-2,3.545564890E0,8.175676346E0
5.063346725E0,1.381855011E-1,3.792623997E0,7.908876896E0
5.083456100E0,1.339980662E-1,3.980460405E0,7.948956966E0
5.103565475E0,1.058823988E-1,4.060021877E0,8.226524353E0
5.123674850E0,9.212367237E-2,4.113860130E0,8.743373871E0
5.143784277E0,9.990034252E-2,4.155136585E0,9.360123634E0
5.163893652E0,2.398804724E-1,4.154538155E0,9.823135376E0
5.184003027E0,3.708875179E-1,4.196412563E0,1.005284595E1
5.204112402E0,4.354937077E-1,4.103092670E0,1.009232807E1
5.224221777E0,2.219343036E-1,3.902693748E0,1.013001442E1
5.244331204E0,-1.914258152E-1,3.739981890E0,1.023051357E1
5.264440579E0,-9.595218897E-1,3.978665829E0,1.020538902E1
5.284549954E0,-1.302293777E0,4.199403763E0,1.005882835E1
5.304659329E0,-7.262216806E-1,4.104887009E0,1.009412193E1
5.324768704E0,-2.315055877E-1,4.052843571E0,1.057029438E1
5.344878131E0,6.089733839E-1,3.140579700E0,1.146520996E1
5.364987506E0,1.141376376E0,1.920838356E0,1.234217930E1
5.385096881E0,5.712863803E-1,1.252642632E0,1.242293739E1
5.405206256E0,-8.985049129E-1,1.181456208E0,1.111645603E1
5.425315631E0,-1.929811478E0,1.679761529E0,9.413364410E0
5.445425058E0,-2.283949137E0,2.513062000E0,8.249854088E0
5.465534433E0,-1.492523074E0,2.913261652E0,8.009375572E0
5.485643808E0,-2.973082066E-1,2.923431158E0,8.820542336E0
5.505753183E0,4.001995921E-1,2.631506681E0,9.722038269E0
5.525862558E0,6.161518097E-1,2.137388945E0,1.016471100E1
5.545971933E0,2.093719877E-2,1.920838356E0,1.015274620E1
5.566081361E0,-8.291130662E-1,1.956730723E0,9.680164337E0
5.586190736E0,-1.061815023E0,2.192423820E0,8.913264275E0
5.606300111E0,-6.149554253E-1,2.685345173E0,8.341380119E0
5.626409486E0,2.745763958E-1,3.126222849E0,8.009973526E0
5.646518861E0,8.596215248E-1,3.374478102E0,7.949554920E0
5.666628236E0,7.621139884E-1,3.371487141E0,8.117053032E0
5.686737663E0,1.848455518E-1,3.164507866E0,8.370692253E0
5.706847038E0,-3.152543902E-1,2.991626501E0,8.665008545E0
5.726956413E0,-4.372883439E-1,2.948555708E0,8.881559372E0
5.747065788E0,-3.577269912E-1,3.109472990E0,9.016754150E0
5.767175163E0,-2.213360928E-2,3.301496983E0,8.920442581E0
5.787284590E0,2.542374134E-1,3.467200041E0,8.720044136E0
5.807393965E0,2.135594189E-1,3.573082447E0,8.615956306E0
5.827503340E0,7.776673418E-3,3.567100286E0,8.681758881E0
5.847612715E0,-5.204389244E-2,3.608376503E0,8.839086533E0
5.867722090E0,-8.913264424E-2,3.806980848E0,8.818747520E0
5.887831465E0,-5.802594870E-2,3.990629911E0,8.738588333E0
5.907940840E0,1.172483116E-1,4.017549038E0,9.020342827E0
5.928050267E0,2.703889608E-1,3.834498405E0,9.654440880E0
5.948159642E0,2.027917206E-1,3.672982693E0,1.022632599E1
5.968269017E0,1.926222295E-1,3.567100286E0,1.028195858E1
5.988378392E0,-7.477571070E-2,3.790829182E0,9.957731247E0
6.008487767E0,-7.968099117E-1,4.446462631E0,9.716654778E0
6.028597142E0,-6.131607890E-1,4.487140656E0,9.894919395E0
6.048706569E0,9.320043921E-1,4.068396568E0,1.094596672E1
6.068815944E0,2.229512453E0,3.349951744E0,1.265922832E1
6.088925319E0,2.930609465E0,1.981855392E0,1.389033508E1
6.109034694E0,2.612962246E0,5.838487148E-1,1.359960747E1
6.129144069E0,9.619147182E-1,-2.392822644E-3,1.198624706E1
6.149253444E0,-7.094719410E-1,3.876372576E-1,1.041775131E1
6.169362819E0,-1.378864050E0,1.311266780E0,9.461220741E0
6.189472194E0,-5.581258535E-1,1.923829436E0,8.736195564E0
6.209581621E0,8.859425783E-1,2.422134638E0,7.968099594E0
6.229690996E0,2.094916344E0,2.970091105E0,7.277172089E0
6.249800371E0,2.532204628E0,3.187838078E0,6.795018196E0
6.269909746E0,1.770090580E0,2.874976397E0,7.058826923E0
6.290019121E0,5.419743061E-1,2.280958176E0,8.079365730E0
6.310128496E0,-3.343969584E-1,1.942373753E0,9.249456406E0
6.330237871E0,-6.640082598E-1,2.127817631E0,1.014317513E1
6.350347246E0,-3.385843933E-1,2.656033039E0,1.027238750E1
6.370456673E0,3.643072546E-1,3.093919754E0,9.719047546E0
6.390566048E0,9.266205430E-1,3.413361549E0,9.020941734E0
6.410675423E0,1.020538807E0,3.554538012E0,8.648857117E0
6.430784798E0,6.963114142E-1,3.482753277E0,8.653642654E0
6.450894173E0,2.608176768E-1,3.298506021E0,8.903693199E0
6.471003548E0,-2.452643216E-2,3.196810961E0,9.244071960E0
6.491112923E0,1.274178028E-1,3.178864956E0,9.380462646E0
6.511222298E0,4.331009090E-1,3.274577856E0,9.165108681E0
6.531331725E0,4.594219327E-1,3.469592810E0,8.735597610E0
6.551441100E0,3.487538993E-1,3.646661758E0,8.231309891E0
6.571550475E0,7.238288224E-2,3.808177233E0,7.887939930E0
6.591659850E0,-2.446661144E-1,3.954139471E0,7.887939930E0
6.611769225E0,-2.440679073E-1,3.940380573E0,8.338987350E0
6.631878600E0,2.093719877E-2,3.845266104E0,8.980861664E0
6.651987975E0,1.686939895E-1,3.916452408E0,9.409176826E0
6.672097350E0,1.597209126E-1,4.080958843E0,9.525228500E0
6.692206725E0,1.501496136E-1,4.094717979E0,9.614361763E0
6.712316100E0,-1.280160099E-1,4.192823410E0,9.903294563E0
6.732425527E0,-7.405785918E-1,4.397409916E0,1.015035343E1
6.752534902E0,-9.696913958E-1,4.437489510E0,1.027777100E1
6.772644277E0,-7.100701332E-1,4.395615101E0,1.074915791E1
6.792753652E0,8.961120844E-1,3.391227961E0,1.215494061E1
6.812863027E0,2.117648125E0,2.073979139E0,1.388136196E1
6.832972402E0,1.820937991E0,1.184447169E0,1.459203053E1
6.853081777E0,3.278166950E-1,8.183453679E-1,1.329332638E1
6.873191152E0,-9.002995491E-1,1.049252748E0,1.107817078E1
6.893300527E0,-1.360917926E0,1.691127419E0,9.201599121E0
6.913409902E0,-6.137589812E-1,1.956730723E0,8.222336769E0
6.933519277E0,3.230310604E-2,1.985444546E0,8.277371407E0
6.953628704E0,-1.686939895E-1,2.133799553E0,8.697910309E0
6.973738079E0,-4.277170599E-1,2.124826431E0,8.616554260E0
6.993847454E0,-4.588237405E-1,2.101496458E0,8.334200859E0
7.013956829E0,-3.014956415E-1,2.239681959E0,8.372486115E0
7.034066204E0,-1.668993831E-1,2.445464849E0,8.538188934E0
7.054175579E0,-1.304088384E-1,2.587837696E0,8.402397156E0
7.074284954E0,-2.027917206E-1,2.684746981E0,8.115856171E0
7.094394329E0,-2.572284341E-1,2.787040234E0,7.913064480E0
7.114503704E0,-1.387837082E-1,2.882753134E0,8.049455643E0
7.134613079E0,-6.041877344E-2,2.991626501E0,8.368897438E0
7.154722454E0,-2.452643216E-2,3.067598581E0,8.616554260E0
7.174831881E0,1.597209126E-1,3.078964472E0,8.723632812E0
7.194941256E0,2.811566591E-1,3.096312523E0,8.773882866E0
7.215050631E0,3.930211067E-1,3.220739365E0,8.833105087E0
7.235160006E0,5.192425251E-1,3.361317635E0,8.795417786E0
7.255269381E0,4.731806815E-1,3.443870068E0,8.816953659E0
7.275378756E0,3.332005441E-1,3.519243956E0,8.894122124E0
7.295488131E0,2.261217386E-1,3.620938778E0,8.895318031E0
7.315597506E0,1.980060786E-1,3.829114437E0,8.804988861E0
7.335706881E0,3.864408433E-1,4.053441525E0,8.641678810E0
7.355816256E0,6.496513486E-1,4.286741734E0,8.480761528E0
7.375925631E0,6.945167780E-1,4.444069862E0,8.490332603E0
7.396035006E0,5.431707501E-1,4.365705013E0,8.904889107E0
7.416144381E0,1.339980662E-1,4.151547432E0,9.461220741E0
7.436253808E0,-3.637090325E-1,3.982853174E0,9.870393753E0
7.456363131E0,-5.210371017E-1,4.019343853E0,1.009172916E1
7.476472558E0,1.950150430E-1,3.757329702E0,1.053380394E1
7.496581933E0,1.009771109E0,3.452843189E0,1.159920788E1
7.516691308E0,1.433898926E0,3.160320520E0,1.275434303E1
7.536800683E0,1.783251047E0,2.417349100E0,1.302293682E1
7.556910058E0,2.108675003E0,1.258026481E0,1.229193020E1
7.577019433E0,1.539183140E0,6.161518097E-1,1.152921772E1
7.597128808E0,2.763710022E-1,6.376872063E-1,1.108594704E1
7.617238183E0,-5.778666735E-1,1.174875975E0,1.057388306E1
7.637347558E0,-8.440681696E-1,1.842473388E0,9.769296646E0
7.657456933E0,-4.546363056E-1,2.479562521E0,8.907281876E0
7.677566308E0,6.293123364E-1,3.042474031E0,8.166703224E0
7.697675683E0,1.993819475E0,3.229114056E0,7.850851059E0
7.717785058E0,2.524427891E0,2.947957516E0,8.069794655E0
7.737894433E0,2.140379906E0,2.381456852E0,8.761918068E0
7.758003808E0,8.392825127E-1,2.016551256E0,9.518050194E0
7.778113183E0,-3.852444589E-1,1.856830359E0,9.960722923E0
7.798222558E0,-8.135597110E-1,2.046461582E0,9.926624298E0
7.818331933E0,-3.726821244E-1,2.574079037E0,9.431310654E0
7.838441308E0,2.889333367E-1,3.127419233E0,8.767900467E0
7.858550683E0,7.818548083E-1,3.500699520E0,8.026124954E0
7.878660111E0,9.278169870E-1,3.714857101E0,7.484150887E0
7.898769486E0,5.623133183E-1,3.807579041E0,7.438089371E0
7.918878861E0,4.612165689E-1,3.665206194E0,7.861618996E0
7.938988236E0,5.312066078E-1,3.493520975E0,8.445467949E0
7.959097611E0,5.102694035E-1,3.454637766E0,8.879166603E0
7.979206986E0,5.545366406E-1,3.434896946E0,8.962915421E0
7.999316361E0,4.749752879E-1,3.498904943E0,8.819944382E0
8.019425736E0,3.553341627E-1,3.668795347E0,8.592027664E0
8.039535111E0,2.434697002E-1,3.772883177E0,8.377271652E0
8.059644486E0,3.888336942E-2,3.846462488E0,8.236693382E0
8.079753861E0,-1.854437590E-2,3.928416491E0,8.334200859E0
8.099863236E0,3.050848842E-2,4.028316975E0,8.764310837E0
8.119972611E0,-3.649054468E-2,3.955934048E0,9.299106598E0
8.140081986E0,-1.968096644E-1,3.900899172E0,9.677771568E0
8.160191361E0,-4.163511395E-1,3.971487284E0,1.008455086E1
8.180300736E0,-9.690931439E-1,4.022335052E0,1.014197922E1
8.200410111E0,-1.850250125E0,4.550550461E0,9.970891953E0
8.220519486E0,-1.822732687E0,4.767699242E0,1.000618649E1
8.240628861E0,-3.367897868E-1,4.181457520E0,1.118883896E1
8.260738236E0,1.057627559E0,3.023331404E0,1.358046532E1
8.280847611E0,1.691725612E0,1.633699656E0,1.555693626E1
8.300956986E0,1.243071318E0,4.348955154E-1,1.570888042E1
8.321066361E0,-3.990031779E-1,3.804588020E-1,1.360020542E1
8.341175736E0,-1.553540111E0,1.432104349E0,1.069651508E1
8.361285111E0,-1.449452281E0,2.428714991E0,7.984251022E0
8.381394486E0,-4.755735099E-1,3.087339401E0,6.291927338E0
8.401503861E0,3.050848842E-1,3.533002615E0,6.142973900E0
8.421613236E0,6.765705943E-1,3.253042459E0,7.445865631E0
8.441722611E0,6.334998012E-1,2.627319336E0,8.819346428E0
8.461831986E0,2.129612118E-1,2.178066730E0,9.531210899E0
8.481941361E0,-4.438686073E-1,1.926820397E0,9.552745819E0
8.502050736E0,-8.063812256E-1,1.890928149E0,9.163912773E0
8.522160111E0,-6.299105883E-1,2.207378864E0,8.707481384E0
8.542269486E0,-2.662015259E-1,2.746362209E0,8.261219978E0
8.562378861E0,6.580262631E-2,3.070589542E0,7.725227833E0
8.582488236E0,1.830509305E-1,3.318246841E0,7.260422230E0
8.602597611E0,1.441675574E-1,3.438486099E0,7.286144733E0
8.622706986E0,7.776673883E-2,3.421736479E0,7.770093441E0
8.642816413E0,-3.529413417E-2,3.453441381E0,8.260622025E0
8.662925788E0,-1.322034448E-1,3.599403381E0,8.322834969E0
8.683035163E0,-2.213360928E-2,3.806980848E0,8.078168869E0
8.703144538E0,1.633101404E-1,4.021736622E0,8.005187988E0
8.723253913E0,3.242274821E-1,4.023531437E0,8.355138779E0
8.743363288E0,4.085744619E-1,4.032504559E0,8.827122688E0
8.763472663E0,3.541377485E-1,4.150351048E0,8.968298912E0
8.783582038E0,1.884347796E-1,4.298107624E0,8.698508263E0
8.803691413E0,2.452643216E-2,4.521238327E0,8.283353806E0
8.823800788E0,1.794617027E-1,4.658227444E0,8.355736732E0
8.843910163E0,6.580262184E-1,4.599005222E0,9.245268822E0
8.864019538E0,8.554341197E-1,4.573282242E0,1.034716320E1
8.884128913E0,8.518448472E-1,4.342973232E0,1.087358475E1
8.904238288E0,7.507480979E-1,4.048655987E0,1.078265667E1
8.924347663E0,2.769692242E-1,4.190430641E0,1.055533886E1
8.944457038E0,-1.639083475E-1,4.596612453E0,1.039083195E1
8.964566413E0,9.613165259E-1,4.134199142E0,1.045364380E1
8.984675788E0,1.539781332E0,4.150351048E0,1.087537861E1
9.004785163E0,1.947757602E0,4.012165546E0,1.075813103E1
9.024894538E0,2.803789854E0,3.013760090E0,1.066241741E1
9.045003913E0,2.753540754E0,1.979462504E0,1.149571800E1
9.065113288E0,1.533799291E0,1.106082320E0,1.221535969E1
9.085222663E0,-2.733799815E-1,8.135597110E-1,1.190070343E1
9.105332038E0,-1.174875975E0,1.375872970E0,1.074078274E1
9.125441413E0,-7.405785918E-1,2.251047850E0,9.226125717E0
9.145550788E0,1.152144074E0,2.863012314E0,7.742575645E0
9.165660163E0,2.644068956E0,3.447459221E0,6.697510719E0
9.185769538E0,2.689532757E0,3.549154282E0,6.491727829E0
9.205878913E0,1.527817249E0,3.049652576E0,7.182057381E0
9.225988288E0,2.135594189E-1,2.509472847E0,8.288737297E0
9.246097611E0,-7.004988194E-1,2.090130568E0,9.381659508E0
9.266206986E0,-1.055234790E0,1.976471543E0,1.000439167E1
9.286316361E0,-8.195417523E-1,2.274976015E0,9.790832520E0
9.306425736E0,-4.169493318E-1,2.708675146E0,8.848059654E0
9.326535111E0,-2.560320199E-1,3.171088219E0,8.005785942E0
9.346644486E0,-1.459621787E-1,3.639483213E0,7.655237675E0
9.366753861E0,1.776670814E-1,3.756731510E0,7.899903774E0
9.386863236E0,5.581258535E-1,3.655036688E0,8.542376518E0
9.406972611E0,7.746763229E-1,3.455235958E0,9.189635277E0
9.427081986E0,7.884350419E-1,3.366103172E0,9.580862045E0
9.447191361E0,5.210371017E-1,3.475574970E0,9.652647018E0
9.467300736E0,3.547359705E-1,3.601796389E0,9.294321060E0
9.487410111E0,3.672982752E-1,3.872783422E0,8.723632812E0
9.507519486E0,3.786641955E-1,4.237689018E0,8.220541954E0
9.527628861E0,4.025924206E-1,4.354339123E0,7.953144073E0
9.547738236E0,2.751746178E-1,4.383651257E0,8.191828728E0
9.567847611E0,1.561316848E-1,4.299304008E0,8.784649849E0
9.587956986E0,-3.708875179E-2,4.232305050E0,9.455238342E0
9.608066361E0,-3.014956415E-1,4.313661098E0,9.904491425E0
9.628175736E0,-3.337987661E-1,4.393222332E0,1.000977516E1
9.648285111E0,-2.309073806E-1,4.355535507E0,1.007677460E1
9.668394486E0,-6.035895348E-1,4.500301361E0,1.028554821E1
9.688503861E0,-1.505683661E0,5.028516769E0,1.003549862E1
9.708613236E0,-1.339980721E0,5.009374142E0,9.565906525E0
9.728722611E0,-6.400800347E-1,4.891527653E0,9.865009308E0
9.748831986E0,3.349951804E-1,4.147958279E0,1.120439243E1
9.768941361E0,1.220339537E0,3.002992392E0,1.283151150E1
9.789050736E0,1.021735311E0,2.021337032E0,1.359422398E1
9.809160111E0,-3.481557071E-1,1.491924882E0,1.266461182E1
9.829269486E0,-1.700100541E0,1.615753531E0,1.074736309E1
9.849378861E0,-2.252244234E0,2.338984251E0,8.843872070E0
9.869488236E0,-1.476969719E0,2.986242771E0,7.508079052E0
9.889597611E0,8.135596663E-2,3.358924866E0,7.083951473E0
9.909706986E0,9.978070259E-1,3.426522017E0,7.479365349E0
9.929816361E0,8.703892231E-1,2.964108944E0,8.312665939E0
9.949925736E0,1.615155302E-2,2.511267424E0,8.985049248E0
9.970035111E0,-8.368897438E-1,2.328814745E0,9.375677109E0
9.990144486E0,-1.155733347E0,2.337787628E0,9.582057953E0
1.001025386E1,-7.824530005E-1,2.498106956E0,9.698708534E0
1.003036324E1,-6.041877344E-2,2.833101988E0,9.535996437E0
1.005047261E1,4.965106845E-1,3.156133175E0,9.062815666E0
1.007058199E1,5.341976285E-1,3.385843992E0,8.373682976E0
1.009069136E1,2.117647976E-1,3.538984776E0,7.840083599E0
1.011080074E1,-3.170489892E-2,3.580260992E0,7.664210796E0
1.013091011E1,-1.369891018E-1,3.637090445E0,7.804789066E0
1.015101943E1,-1.088734269E-1,3.754936934E0,8.012366295E0
1.017112886E1,-7.357929647E-2,3.865604877E0,7.975875854E0
1.019123824E1,-1.603191197E-1,4.047459602E0,7.765307903E0
1.021134756E1,6.161518395E-2,4.214358807E0,7.664210796E0
1.023145693E1,3.906283081E-1,4.337589264E0,8.024929047E0
1.025156631E1,5.090730190E-1,4.347758770E0,8.571090698E0
1.027167568E1,2.081755698E-1,4.373481750E0,8.898308754E0
1.029178506E1,-1.304088384E-1,4.529015064E0,8.911469460E0
1.031189443E1,-5.503492057E-2,4.738985062E0,8.882756233E0
1.033200381E1,2.763710022E-1,4.934000492E0,9.104690552E0
1.035211318E1,6.747759581E-1,5.065007210E0,9.585049629E0
1.037222256E1,9.098708034E-1,5.011766911E0,9.918848038E0
1.039233193E1,8.745766878E-1,5.033302307E0,9.934401512E0
1.041244131E1,3.768695593E-1,5.355735302E0,9.649655342E0
1.043255068E1,-3.589233849E-3,5.571687698E0,9.335597992E0
1.045266006E1,6.945167780E-1,5.219942570E0,9.583254814E0
1.047276943E1,1.614557028E0,4.467998028E0,1.075214863E1
1.049287881E1,2.027917147E0,3.466003656E0,1.185045433E1
1.051298818E1,2.088934183E0,2.320439816E0,1.243789196E1
1.053309756E1,1.786840320E0,1.356132269E0,1.233200932E1
1.055320693E1,1.360319614E0,6.675975323E-1,1.167637634E1
1.057331631E1,5.234299302E-1,8.374879360E-1,1.071446133E1
1.059342568E1,-1.728814393E-1,1.695314884E0,9.751948357E0
1.061353506E1,2.404786795E-1,2.353341103E0,8.837292671E0
1.063364443E1,1.177268744E0,2.836092949E0,8.076972961E0
1.065375381E1,2.158325911E0,3.305086374E0,7.524230957E0
1.067386318E1,2.360519648E0,3.433102369E0,7.533802032E0
1.069397256E1,1.429711580E0,2.980260611E0,8.145766258E0
1.071408193E1,-4.905286431E-2,2.388635159E0,9.019146919E0
1.073419126E1,-1.367498159E0,2.135594130E0,9.670592308E0
1.075430063E1,-1.852044702E0,2.178664923E0,9.890133858E0
1.077441001E1,-1.454237938E0,2.571686029E0,9.530612946E0
1.079451938E1,-6.664010882E-1,3.089133978E0,8.631509781E0
1.081462876E1,-3.158525825E-1,3.543172121E0,7.683951855E0
1.083473813E1,-4.139583111E-1,3.830909014E0,6.921837807E0
1.085484751E1,-7.734799385E-1,3.922434568E0,6.589235306E0
1.087495688E1,-1.144965649E0,3.953541279E0,6.985247612E0
1.089506626E1,-1.118644595E0,4.066003799E0,7.770691395E0
1.091517563E1,-6.837490797E-1,4.130012035E0,8.438887596E0
1.093528501E1,-2.853440940E-1,4.195814610E0,8.678768158E0
1.095539438E1,-0.000000000E0,4.257429600E0,8.670392990E0
1.097550376E1,8.614161611E-2,4.331607342E0,8.595019341E0
1.099561313E1,1.974078640E-2,4.424329281E0,8.591429710E0
1.101572251E1,-1.740778536E-1,4.500899315E0,8.663812637E0
1.103583188E1,-2.051845491E-1,4.555934429E0,8.780462265E0
1.105594126E1,-4.965107143E-2,4.608576298E0,9.005388260E0
1.107605063E1,5.383851007E-2,4.709074974E0,9.214759827E0
1.109616001E1,1.758724600E-1,4.782654285E0,9.311669350E0
1.111626938E1,1.549352705E-1,4.791627407E0,9.315856934E0
1.113637876E1,-2.931207791E-2,4.667200565E0,9.609575272E0
1.115648808E1,-3.152543902E-1,4.616353035E0,1.015274620E1
1.117659745E1,-8.799605370E-1,4.908875465E0,1.043868923E1
1.119670683E1,-1.210170031E0,5.193023205E0,1.018564796E1
1.121681620E1,-4.570291340E-1,5.005186558E0,1.001874828E1
1.123692558E1,8.973085135E-2,5.036293507E0,1.049671459E1
1.125703495E1,6.484549642E-1,4.508078098E0,1.162014484E1
1.127714433E1,1.247856975E0,3.310470104E0,1.292184067E1
1.129725370E1,1.311864972E0,2.250449657E0,1.381436348E1
1.131736308E1,4.677968323E-1,1.463211060E0,1.348774338E1
1.133747245E1,-8.865407705E-1,1.281954765E0,1.146820068E1
1.135758183E1,-1.697707653E0,1.919641972E0,9.192625999E0
1.137769120E1,-1.970489502E0,2.924029350E0,7.155138016E0
1.139780058E1,-1.196411371E0,3.627519131E0,6.028118610E0
1.141790995E1,1.495514214E-1,3.932604074E0,6.285944939E0
1.143801933E1,1.135394335E0,3.664009571E0,7.537391186E0
1.145812870E1,1.511067510E0,3.169891834E0,8.620143890E0
1.147823808E1,9.248259664E-1,3.039483070E0,9.203393936E0
1.149834745E1,-9.212367237E-2,3.010170937E0,9.140582085E0
1.151845678E1,-4.803591371E-1,2.880958557E0,8.688339233E0
1.153856620E1,-3.026920557E-1,3.221337557E0,8.518448830E0
1.155867553E1,3.918247223E-1,3.905684710E0,8.288139343E0
1.157878490E1,9.972088337E-1,4.372285366E0,7.747361660E0
1.159889428E1,1.317847013E0,4.523033142E0,7.095317364E0
1.161900365E1,1.343569875E0,4.417150497E0,7.012166977E0
1.163911303E1,1.045065284E0,4.186243057E0,7.534998417E0
1.165922240E1,6.975077987E-1,3.943969965E0,8.290532112E0
1.167933178E1,4.725824594E-1,3.756133318E0,8.694320679E0
1.169944115E1,2.518445849E-1,3.711267948E0,8.634500504E0
1.171955053E1,2.757728100E-1,3.808775425E0,8.344968796E0
1.173965990E1,4.043870270E-1,4.024129391E0,8.157132149E0
1.175976928E1,4.773681164E-1,4.136591911E0,8.177471161E0
1.177987865E1,4.283152521E-1,4.258625984E0,8.232506752E0
1.179998803E1,3.433700502E-1,4.463212490E0,8.196614265E0
1.182009740E1,3.523431420E-1,4.737788677E0,8.240283012E0
1.184020678E1,4.498506486E-1,4.835296154E0,8.578269005E0
1.186031615E1,5.844469070E-1,4.869394302E0,9.123832703E0
1.188042553E1,7.860422134E-1,4.874179840E0,9.574879646E0
1.190053490E1,5.012963414E-1,5.039882660E0,9.972088814E0
1.192064422E1,2.835494876E-1,5.069194794E0,1.023828983E1
1.194075360E1,9.332008362E-1,4.511667252E0,1.074676514E1
1.196086298E1,1.448255897E0,4.184448719E0,1.142692471E1
1.198097235E1,1.847857237E0,3.690928936E0,1.193539906E1
1.200108172E1,2.919841766E0,2.366501570E0,1.247139168E1
1.202119110E1,2.922234535E0,1.201795220E0,1.334895897E1
1.204130048E1,1.015753269E0,7.010970116E-1,1.328973675E1
1.206140985E1,-9.385846853E-1,7.232306600E-1,1.167577839E1
1.208151923E1,-1.728814363E0,1.650449395E0,9.736394882E0
1.210162860E1,-1.513460279E0,2.898904562E0,8.091329575E0
1.212173798E1,2.309073806E-1,3.610171080E0,7.125227451E0
1.214184735E1,1.998006940E0,3.899104595E0,7.079165936E0
1.216195673E1,2.248655081E0,3.534797192E0,7.802396297E0
1.218206610E1,1.460818172E0,2.853441000E0,8.335995674E0
1.220217548E1,3.708875179E-2,2.409572363E0,8.606983185E0
1.222228485E1,-9.002995491E-1,2.160718918E0,8.815158844E0
1.224239422E1,-1.156929731E0,2.266003132E0,9.234500885E0
1.226250360E1,-9.098708034E-1,2.595016241E0,9.551549911E0
1.228261292E1,-3.337987661E-1,2.970091105E0,9.309276581E0
1.230272230E1,2.548356056E-1,3.360719442E0,8.509475708E0
1.232283167E1,4.845465720E-1,3.738785267E0,7.570890903E0
1.234294105E1,4.707878530E-1,3.906881094E0,6.978667259E0
1.236305042E1,4.013960063E-1,3.799204111E0,7.231708050E0
1.238315980E1,2.691925466E-1,3.594617844E0,8.285746574E0
1.240326917E1,9.272187948E-2,3.476771355E0,9.063413620E0
1.242337855E1,3.589233849E-3,3.580859184E0,8.894122124E0
1.244348792E1,3.948157281E-2,3.873979807E0,8.094321251E0
1.246359730E1,2.727817893E-1,4.106681824E0,7.409973621E0
1.248370667E1,4.725824594E-1,4.143172264E0,7.206583500E0
1.250381605E1,2.626122832E-1,4.112065792E0,7.359126091E0
1.252392542E1,-4.007977992E-2,4.050450325E0,7.651648521E0
1.254403480E1,-1.088734269E-1,3.954139471E0,8.084151268E0
1.256414417E1,-1.495514214E-1,3.865006685E0,8.818747520E0
1.258425355E1,-1.651047617E-1,3.711267948E0,9.753145218E0
1.260436292E1,-1.645065546E-1,3.544966698E0,1.075334454E1
1.262447230E1,-3.224328458E-1,3.511467218E0,1.157827091E1
1.264458167E1,-9.002995491E-1,3.771088600E0,1.163330555E1
1.266469105E1,-1.576271892E0,4.158725739E0,1.121157074E1
1.268480037E1,-1.280758262E0,4.408775806E0,1.134377384E1
1.270490975E1,2.356930375E-1,3.833899975E0,1.283510113E1
1.272501912E1,1.840678811E0,2.472982168E0,1.463869095E1
1.274512850E1,1.907079697E0,1.458425403E0,1.559821224E1
1.276523787E1,5.066801906E-1,1.075573802E0,1.450349617E1
1.278534725E1,-5.264210105E-1,1.239482164E0,1.183131123E1
1.280545662E1,-7.567301393E-1,1.708475351E0,9.275776863E0
1.282556600E1,-1.034895778E-1,2.216351986E0,7.809575081E0
1.284567537E1,6.388836503E-1,2.665006161E0,7.548159122E0
1.286578475E1,8.620143533E-1,2.916252613E0,7.937591076E0
1.288589412E1,6.466603279E-1,2.713460922E0,8.465806961E0
1.290600350E1,4.103690982E-1,2.199003935E0,8.876773834E0
1.292611287E1,2.303091735E-1,1.978266120E0,9.274580956E0
1.294622225E1,-6.759724021E-2,1.934597135E0,9.553942680E0
1.296633162E1,-1.776670814E-1,2.008774519E0,9.328418732E0
1.298644100E1,-3.948157281E-2,2.374876499E0,8.596813202E0
1.300655037E1,2.817548811E-1,2.822334290E0,7.758129120E0
1.302665975E1,6.550351977E-1,3.076571703E0,7.268796921E0
1.304676912E1,7.561319470E-1,3.327219963E0,7.282555580E0
1.306687850E1,7.250252366E-1,3.459423304E0,7.554141045E0
1.308698787E1,7.429714203E-1,3.448655605E0,7.803592682E0
1.310709719E1,6.382854581E-1,3.509074450E0,8.008178711E0
1.312720662E1,5.054838061E-1,3.558127165E0,8.067401886E0
1.314731594E1,4.181457460E-1,3.693321705E0,8.076375008E0
1.316742532E1,4.163511395E-1,3.864408493E0,8.169096947E0
1.318753469E1,5.294120312E-1,3.914059639E0,8.429315567E0
1.320764407E1,6.185446382E-1,3.933800459E0,8.865407944E0
1.322775344E1,6.352944374E-1,4.011567116E0,9.203991890E0
1.324786282E1,5.371887088E-1,4.219144344E0,9.206983566E0
1.326797219E1,5.593222976E-1,4.405186653E0,8.823533058E0
1.328808157E1,8.279166222E-1,4.494917393E0,8.686544418E0
1.330819094E1,1.206580877E0,4.457828522E0,9.007781029E0
1.332830032E1,1.364507079E0,4.234099865E0,9.642477036E0
1.334840969E1,1.111466169E0,3.836891174E0,1.046560764E1
1.336851907E1,1.645065546E-1,3.955335855E0,1.110329533E1
1.338862844E1,-5.042873621E-1,4.570291042E0,1.109192944E1
1.340873782E1,5.455635786E-1,4.366901398E0,1.107936668E1
1.342884719E1,1.737189293E0,4.042075634E0,1.174217892E1
1.344895657E1,2.011167526E0,3.492922783E0,1.210648632E1
1.346906594E1,2.634497643E0,2.038086653E0,1.203709412E1
1.348917532E1,2.649452925E0,1.091725349E0,1.267597771E1
1.350928469E1,1.437488198E0,6.963114142E-1,1.344227982E1
1.352939407E1,-1.902294010E-1,5.473581553E-1,1.267896938E1
1.354950344E1,-7.926225066E-1,1.060618639E0,1.067438221E1
1.356961282E1,-3.690928817E-1,1.940579176E0,8.654839516E0
1.358972219E1,1.412961721E0,2.563311338E0,7.197610378E0
1.360983157E1,2.762513638E0,3.071786165E0,6.464808464E0
1.362994094E1,2.640479803E0,3.027518749E0,6.299105644E0
1.365005032E1,1.277767301E0,2.788834810E0,6.461817741E0
1.367015969E1,6.939185411E-2,2.598007202E0,6.949355125E0
1.369026907E1,-2.865405083E-1,2.548356056E0,7.637889862E0
1.371037844E1,1.076770201E-2,2.636292458E0,8.546564102E0
1.373048777E1,4.899304509E-1,2.793620348E0,9.282955170E0
1.375059714E1,7.645068169E-1,2.947359324E0,9.431310654E0
1.377070652E1,6.466603279E-1,3.181855917E0,8.935996056E0
1.379081589E1,3.667000830E-1,3.384647608E0,8.148757935E0
1.381092527E1,3.104687333E-1,3.430111170E0,7.777870178E0
1.383103464E1,4.175475538E-1,3.360719442E0,8.187641144E0
1.385114402E1,4.827519655E-1,3.308675528E0,8.939585686E0
1.387125339E1,3.337987661E-1,3.326023579E0,9.433703423E0
1.389136277E1,1.453639716E-1,3.408575773E0,9.443872452E0
1.391147214E1,1.746760458E-1,3.508476257E0,9.180662155E0
1.393158152E1,3.343969584E-1,3.658027649E0,8.885149002E0
1.395169089E1,3.314059377E-1,3.845864296E0,8.652446747E0
1.397180027E1,2.566302419E-1,4.034298897E0,8.452047348E0
1.399190964E1,5.563312769E-2,4.216153622E0,8.427521706E0
1.401201902E1,-1.525424421E-1,4.220939159E0,8.781061172E0
1.403212839E1,-1.932204217E-1,3.942175388E0,9.662218094E0
1.405223777E1,-2.309073806E-1,3.711267948E0,1.043210888E1
1.407234714E1,-6.574280262E-1,3.986442566E0,1.057687473E1
1.409245652E1,-1.342373490E0,4.644468784E0,9.690333366E0
1.411256589E1,-1.021735311E0,4.755136967E0,9.110074043E0
1.413267527E1,6.245267391E-1,4.140181541E0,1.026999474E1
1.415278464E1,2.171486616E0,3.218346357E0,1.275553894E1
1.417289402E1,2.528017044E0,2.122433662E0,1.507657719E1
1.419300339E1,1.378864050E0,1.009771109E0,1.563889027E1
1.421311277E1,-4.091726840E-1,6.484549642E-1,1.373958778E1
1.423322214E1,-1.226919770E0,1.040877819E0,1.101954651E1
1.425333152E1,-1.079162955E0,1.663011789E0,8.541778564E0
1.427344089E1,-4.007977992E-2,2.099701881E0,6.781259537E0
1.429355027E1,1.038485050E0,2.513062000E0,6.271588326E0
1.431365964E1,1.202393413E0,2.693720102E0,7.035496712E0
1.433376902E1,9.912267923E-1,2.307279348E0,8.129614830E0
1.435387839E1,5.760720372E-1,2.018944025E0,8.873184204E0
1.437398777E1,-1.046859920E-1,2.067996979E0,9.193822861E0
1.439409714E1,-2.721835673E-1,2.173879385E0,9.203393936E0
1.441420652E1,4.127619043E-2,2.498705149E0,9.052646637E0
1.443431589E1,6.801598072E-1,2.840878725E0,8.725427628E0
1.445442527E1,1.332802176E0,2.959921598E0,8.418548584E0
1.447453464E1,1.478764415E0,3.036491871E0,8.393424034E0
1.449464402E1,1.092921734E0,3.052643538E0,8.493324280E0
1.451475339E1,6.017948985E-1,3.064607620E0,8.601598740E0
1.453486277E1,3.200400174E-1,3.190829039E0,8.647661209E0
1.455497214E1,3.343969584E-1,3.327818155E0,8.704490662E0
1.457508152E1,5.276173949E-1,3.488735437E0,8.797810555E0
1.459519089E1,6.825526357E-1,3.618546009E0,8.855836868E0
1.461530027E1,7.268198729E-1,3.760919094E0,8.733204842E0
1.463540964E1,7.010970116E-1,3.891926050E0,8.605786324E0
1.465551902E1,6.059823632E-1,4.016951084E0,8.622536659E0
1.467562839E1,9.278169870E-1,3.814159393E0,8.455039024E0
1.469573777E1,7.034898400E-1,4.028316975E0,8.650651932E0
1.471584714E1,6.939185858E-1,4.121636868E0,9.592825890E0
1.473595652E1,1.186840057E0,3.634697676E0,1.057448101E1
1.475606589E1,9.607182741E-1,3.539582968E0,1.122353458E1
1.477617527E1,5.593222976E-1,3.692125320E0,1.118524933E1
1.479628464E1,2.859423161E-1,4.107878208E0,1.050269699E1
1.481639402E1,6.921239495E-1,4.180261135E0,9.638887405E0
1.483650339E1,2.329412937E0,3.476771355E0,1.011446095E1
1.485661277E1,2.562713146E0,3.227319479E0,1.140180016E1
1.487672214E1,1.779063582E0,2.770888567E0,1.182174015E1
1.489683152E1,1.311266780E0,2.190629244E0,1.151246834E1
1.491694089E1,1.346560955E0,1.472184181E0,1.146820068E1
1.493705027E1,1.637887120E0,7.387840152E-1,1.160877895E1
1.495715964E1,1.040279627E0,6.819544435E-1,1.140419292E1
1.497726902E1,2.452643216E-1,1.128215909E0,1.051107121E1
1.499737839E1,5.324030295E-2,1.631306887E0,9.203991890E0
1.501748777E1,5.886343718E-1,2.121835470E0,8.042875290E0
1.503759714E1,1.423131227E0,2.461018085E0,7.448856831E0
1.505770652E1,1.677368641E0,2.517249346E0,7.867600918E0
1.507781589E1,1.301097274E0,2.292922258E0,9.084351540E0
1.509792527E1,8.105686903E-1,2.031506538E0,1.029870892E1
1.511803464E1,2.183450609E-1,1.865803480E0,1.074796104E1
1.513814402E1,-1.639083475E-1,2.031506538E0,1.018983555E1
1.515825339E1,-1.447657645E-1,2.537588358E0,9.018548965E0
1.517836277E1,1.734796464E-1,2.970689297E0,7.917850018E0
1.519847214E1,3.978067636E-1,3.321237803E0,7.068996429E0
1.521858152E1,5.060819983E-1,3.546163082E0,6.657430649E0
1.523869089E1,4.683950245E-1,3.673580885E0,6.879963398E0
1.525880027E1,3.816552162E-1,3.654438496E0,7.705487251E0
1.527890964E1,3.008974493E-1,3.474976778E0,8.493922234E0
1.529901902E1,1.776670814E-1,3.412763357E0,8.959325790E0
1.531912839E1,1.740778536E-1,3.491726398E0,9.032905579E0
1.533923777E1,2.315055877E-1,3.656233072E0,8.791828156E0
1.535934714E1,1.435693651E-1,3.851846218E0,8.410173416E0
1.537945652E1,6.281159073E-2,4.048655987E0,8.121838570E0
1.539956589E1,1.022931710E-1,4.237689018E0,8.126624107E0
1.541967532E1,1.316052526E-1,4.356133461E0,8.355138779E0
1.543978464E1,2.656033039E-1,4.305285931E0,8.665607452E0
1.545989407E1,3.463610709E-1,4.219144344E0,8.976674080E0
1.548000339E1,2.638086975E-1,4.136591911E0,9.147162437E0
1.550011282E1,6.819544733E-2,3.963710785E0,9.346364975E0
1.552022219E1,-2.261217386E-1,3.840480328E0,9.782457352E0
1.554033157E1,-6.412764788E-1,4.160520554E0,1.008156013E1
1.556044094E1,-8.428717852E-1,4.686941147E0,1.000917721E1
1.558055032E1,-3.595215976E-1,4.758726120E0,9.762716293E0
1.560065969E1,3.720839322E-1,4.882554531E0,1.009472084E1
1.562076907E1,1.433300734E0,4.390829563E0,1.150768185E1
1.564087844E1,2.017747641E0,3.391227961E0,1.327896881E1
1.566098782E1,1.820339799E0,2.296511650E0,1.401416397E1
1.568109719E1,1.106680512E0,1.285543919E0,1.307318687E1
1.570120657E1,1.555334777E-1,1.101296663E0,1.133001518E1
1.572131594E1,-5.910272002E-1,1.688136339E0,9.762118340E0
1.574142532E1,-7.304090858E-1,2.295315027E0,8.692526817E0
1.576153469E1,-4.271188378E-1,2.743371248E0,8.158329010E0
1.578164407E1,2.554338276E-1,3.082553864E0,8.361120224E0
1.580175344E1,1.149751306E0,2.854039192E0,9.141778946E0
1.582186282E1,1.506880045E0,2.253440619E0,9.886545181E0
1.584197219E1,7.549355626E-1,1.905883193E0,1.009591675E1
1.586208157E1,-4.839483798E-1,1.831705689E0,9.552147865E0
1.588219094E1,-9.631111026E-1,2.094916344E0,8.637491226E0
1.590230032E1,-5.808576941E-1,2.550748825E0,7.992625713E0
1.592240975E1,5.060819983E-1,2.901895761E0,7.783253670E0
1.594251912E1,1.322034478E0,3.254238844E0,7.897511005E0
1.596262850E1,1.585843205E0,3.345764160E0,7.951947689E0
1.598273787E1,1.309472203E0,3.376870871E0,7.853243828E0
1.600284725E1,8.075776696E-1,3.530011654E0,8.069794655E0
1.602295662E1,6.418746710E-1,3.601198196E0,8.546564102E0
1.604306600E1,7.561319470E-1,3.664607763E0,8.855836868E0
1.606317537E1,7.513462901E-1,3.881158352E0,8.668000221E0
1.608328475E1,7.543373108E-1,4.028316975E0,8.171489716E0
1.610339412E1,8.201399446E-1,4.121636868E0,7.887939930E0
1.612350350E1,8.590233326E-1,4.141975880E0,7.957930088E0
1.614361287E1,8.877372146E-1,4.232903481E0,8.071588516E0
1.616372225E1,8.823533654E-1,4.484149456E0,8.020741463E0
1.618383162E1,8.285148144E-1,4.692325115E0,7.980063438E0
1.620394100E1,7.525427341E-1,4.765904427E0,8.234300613E0
1.622405037E1,8.333004713E-1,4.805984497E0,8.853444099E0
1.624415980E1,1.092323542E0,4.825725079E0,9.408578873E0
1.626426917E1,1.213161111E0,4.829912663E0,9.647860527E0
1.628437855E1,9.798609018E-1,4.895116806E0,9.884750366E0
1.630448792E1,9.762716293E-1,4.804189682E0,1.039860916E1
1.632459730E1,1.334596872E0,4.582255363E0,1.119781208E1
1.634470667E1,1.404586911E0,4.830510616E0,1.213878918E1
1.636481605E1,2.308475733E0,4.278367043E0,1.278784275E1
1.638492542E1,3.332005501E0,2.734398127E0,1.256949711E1
1.640503480E1,3.268595695E0,1.588834286E0,1.153878880E1
1.642514417E1,2.074577332E0,1.312463164E0,1.005523872E1
1.644525355E1,5.042873621E-1,1.819741607E0,9.010771751E0
1.646536292E1,-6.035895348E-1,2.465205431E0,8.395217896E0
1.648547230E1,-5.694918036E-1,2.802593470E0,8.069794655E0
1.650558167E1,6.263213158E-1,2.911466837E0,8.070392609E0
1.652569105E1,1.949552298E0,2.941975355E0,8.696713448E0
1.654580048E1,2.698505640E0,2.620738983E0,9.373284340E0
1.656590985E1,2.283949137E0,2.233700037E0,9.882357597E0
1.658601922E1,6.664010882E-1,2.035693884E0,9.869196892E0
1.660612860E1,-4.540380836E-1,1.938784599E0,9.238089561E0
1.662623798E1,-6.364908218E-1,2.240878344E0,8.505886078E0
1.664634735E1,-1.465603858E-1,2.775674343E0,8.023134232E0
1.666645672E1,6.406782866E-1,3.085544825E0,7.791030407E0
1.668656610E1,9.074779749E-1,3.358326674E0,7.709674358E0
1.670667548E1,6.364908218E-1,3.571886063E0,7.667201996E0
1.672678485E1,2.656033039E-1,3.530609846E0,7.767102242E0
1.674689428E1,3.200400174E-1,3.348157167E0,8.222934723E0
1.676700365E1,5.425725579E-1,3.248854876E0,8.939585686E0
1.678711303E1,5.772684813E-1,3.306282759E0,9.514460564E0
1.680722240E1,4.851447940E-1,3.495913982E0,9.511469841E0
1.682733178E1,4.432703853E-1,3.686741590E0,9.051449776E0
1.684744115E1,3.230310678E-1,3.914657831E0,8.575278282E0
1.686755053E1,2.446661144E-1,4.077369690E0,8.476573944E0
1.688765990E1,3.086741269E-1,4.145565033E0,8.696713448E0
1.690776928E1,3.541377485E-1,4.219742775E0,9.031110764E0
1.692787865E1,3.774677813E-1,4.369892120E0,9.213563919E0
1.694798803E1,3.475574851E-1,4.488935471E0,9.217152596E0
1.696809740E1,2.667997181E-1,4.485345840E0,9.323035240E0
1.698820683E1,1.118644550E-1,4.422534466E0,9.824930191E0
1.700831620E1,-3.756731451E-1,4.639683247E0,1.031844902E1
1.702842558E1,-5.030909777E-1,4.777270317E0,1.068754196E1
1.704853495E1,-5.982056633E-2,4.414757729E0,1.080538845E1
1.706864433E1,6.448656917E-1,4.055834293E0,1.167697430E1
1.708875370E1,1.727019787E0,3.513859987E0,1.279322624E1
1.710886308E1,2.876172781E0,2.228914261E0,1.331964684E1
1.712897245E1,2.410170555E0,1.422533035E0,1.285603809E1
1.714908183E1,7.591229677E-1,1.447059512E0,1.148195934E1
1.716919120E1,-4.504488707E-1,1.853241086E0,9.920642853E0
1.718930063E1,-9.020941257E-1,2.383251429E0,8.676374435E0
1.720941001E1,-3.912265003E-1,2.842075109E0,7.950751305E0
1.722951938E1,5.784648657E-1,2.997010469E0,8.335397720E0
1.724962876E1,1.157527924E0,2.616551638E0,9.384052277E0
1.726973813E1,1.231107235E0,2.196611166E0,1.022632599E1
1.728984751E1,4.905286431E-1,2.087737799E0,1.047039413E1
1.730995688E1,-4.139583111E-1,1.960918188E0,1.000678444E1
1.733006626E1,-7.938188910E-1,1.963310957E0,9.291330338E0
1.735017568E1,-6.634100676E-1,2.264208317E0,8.813961983E0
1.737028506E1,-1.998006850E-1,2.612364054E0,8.368298531E0
1.739039443E1,3.954139352E-1,2.946162939E0,7.769495010E0
1.741050381E1,6.801598072E-1,3.321835995E0,7.120441914E0
1.743061318E1,6.478567123E-1,3.642474174E0,6.942774773E0
1.745072256E1,4.570291340E-1,3.656831264E0,7.294519901E0
1.747083193E1,2.327020019E-1,3.560520172E0,7.925626755E0
1.749094136E1,1.674975902E-1,3.597010612E0,8.280363083E0
1.751105074E1,3.332005441E-1,3.777070522E0,8.279764175E0
1.753116011E1,7.316055298E-1,4.001397610E0,8.093722343E0
1.755126949E1,9.152546525E-1,4.158127785E0,7.953742504E0
1.757137886E1,9.284151793E-1,4.156930923E0,7.952546120E0
1.759148824E1,8.099704385E-1,4.172484398E0,8.045268059E0
1.761159761E1,6.580262184E-1,4.322035789E0,8.161319733E0
1.763170699E1,6.933203340E-1,4.506881237E0,8.341978073E0
1.765181636E1,8.452646136E-1,4.679164886E0,8.630910873E0
1.767192579E1,1.035493970E0,4.710271358E0,8.917451859E0
1.769203516E1,1.084546804E0,4.823930264E0,9.128020287E0
1.771214454E1,1.117448211E0,4.936991215E0,9.105886459E0
1.773225391E1,7.836494446E-1,4.976472855E0,8.994022369E0
1.775236329E1,-3.308077157E-1,5.338985443E0,9.172885895E0
1.777247266E1,-4.468596280E-1,5.307878971E0,1.026401234E1
1.779258209E1,9.218349457E-1,4.759324074E0,1.235892868E1
1.781269146E1,3.248256683E0,3.543172121E0,1.434856129E1
1.783280084E1,4.927420139E0,1.847259045E0,1.547378540E1
1.785291022E1,4.259224415E0,4.121637046E-1,1.502991676E1
1.787301959E1,9.912267923E-1,-7.956135273E-2,1.283390427E1
1.789312897E1,-1.694716692E0,2.099701911E-1,1.007617569E1
1.791323834E1,-2.782254457E0,1.486541033E0,8.296514511E0
1.793334777E1,-1.992623091E0,2.918645382E0,7.195816040E0
1.795345714E1,7.190431952E-1,3.864408493E0,6.412764549E0
1.797356652E1,3.511467218E0,4.506881237E0,5.828916073E0
1.799367589E1,4.523033142E0,4.200600147E0,5.992226124E0
1.801378527E1,3.626322746E0,3.110071182E0,7.162914753E0
1.803389464E1,1.479960799E0,2.465803623E0,8.727820396E0
1.805400407E1,-2.518445849E-1,2.132004976E0,1.028734303E1
1.807411344E1,-6.705885530E-1,2.108076811E0,1.127378368E1
1.809422282E1,1.621137410E-1,2.478964329E0,1.112662506E1
1.811433219E1,9.643075466E-1,3.115455151E0,9.817750931E0
1.813444157E1,1.153938770E0,3.658027649E0,8.374280930E0
1.815455094E1,9.996016622E-1,4.051048756E0,7.152745247E0
1.817466032E1,6.352944374E-1,4.063611031E0,6.608976364E0
1.819476975E1,9.272187948E-2,3.831507206E0,6.864409924E0
1.821487912E1,-2.632105052E-1,3.671786308E0,7.725227833E0
1.823498850E1,-1.794617027E-1,3.626322746E0,8.620741844E0
1.825509787E1,9.870393574E-2,3.650250912E0,9.079565048E0
1.827520725E1,2.733799815E-1,3.787838221E0,9.007781029E0
1.829531667E1,2.303091735E-1,4.058227062E0,8.618349075E0
1.831542605E1,1.579262912E-1,4.262215137E0,8.257631302E0
1.833553542E1,3.469592705E-2,4.468596458E0,8.184649467E0
1.835564480E1,1.974078640E-2,4.592424870E0,8.277970314E0
1.837575417E1,1.130608693E-1,4.658227444E0,8.511270523E0
1.839586355E1,2.644068897E-1,4.590630054E0,8.989236832E0
1.841597298E1,2.392822653E-1,4.408177376E0,9.536594391E0
1.843608235E1,1.854437590E-2,4.263411522E0,9.923633575E0
1.845619172E1,-1.357926875E-1,4.254438877E0,1.010847950E1
1.847630110E1,-6.490531564E-1,4.615755081E0,9.875179291E0
1.849641048E1,-1.243071318E0,5.213960648E0,9.301499367E0
1.851651990E1,-1.270588875E0,5.317450047E0,9.157332420E0
1.853662928E1,-1.010967612E0,5.335994720E0,9.765707016E0
1.855673865E1,5.078766346E-1,3.885943890E0,1.126361465E1
1.857684803E1,1.655235052E0,2.293520451E0,1.310190010E1
1.859695740E1,1.016351461E0,1.809572101E0,1.403390503E1
1.861706683E1,-8.410771489E-1,1.825723648E0,1.244806194E1
1.863717620E1,-1.914856315E0,2.343769789E0,9.927821159E0
1.865728558E1,-1.869990945E0,3.162713289E0,8.158926964E0
1.867739495E1,1.136590764E-1,3.192025423E0,7.795217991E0
1.869750433E1,1.478764415E0,2.781058073E0,8.580661774E0
1.871761376E1,1.488933921E0,2.514856577E0,9.294919968E0
1.873772313E1,3.577269912E-1,2.603390932E0,8.955139160E0
1.875783251E1,-5.617151260E-1,2.950948477E0,8.243273735E0
1.877794188E1,-7.716853023E-1,3.151347399E0,7.949554920E0
1.879805126E1,-2.428714931E-1,3.163909674E0,8.112266541E0
1.881816068E1,5.641079545E-1,3.146561861E0,8.565108299E0
1.883827006E1,8.015955687E-1,3.235096216E0,8.745168686E0
1.885837943E1,5.353940725E-1,3.247658491E0,8.554341316E0
1.887848881E1,1.094716340E-1,3.263211966E0,8.383254051E0
1.889859824E1,-1.166501045E-1,3.286541939E0,8.356932640E0
1.891870761E1,-4.845465720E-2,3.437289715E0,8.346763611E0
1.893881699E1,1.621137410E-1,3.710071564E0,8.175676346E0
1.895892636E1,3.194418252E-1,3.898506403E0,7.931608677E0
1.897903574E1,4.061816335E-1,3.993621111E0,7.988438606E0
1.899914516E1,5.617151260E-1,3.974478483E0,8.340781212E0
1.901925454E1,4.959124923E-1,4.037888050E0,8.799007416E0
1.903936391E1,4.959124923E-1,4.109673023E0,9.177671432E0
1.905947329E1,5.180460811E-1,4.204189301E0,9.373284340E0
1.907958272E1,4.612165689E-1,4.338785648E0,9.466006279E0
1.909969209E1,4.552344978E-1,4.436293125E0,9.421739578E0
1.911980147E1,5.383850932E-1,4.454239368E0,9.285347939E0
1.913991084E1,7.196413875E-1,4.465605259E0,9.251250267E0
1.916002022E1,1.077966571E0,4.337589264E0,9.458827972E0
1.918012964E1,1.089930773E0,4.265206337E0,9.844670296E0
1.920023902E1,1.591227055E-1,4.990231514E0,9.848259926E0
1.922034839E1,3.744767308E-1,4.877170563E0,9.716654778E0
1.924045777E1,1.523629785E0,4.082753658E0,1.029033375E1
1.926056719E1,1.063609719E0,4.580460548E0,1.095254707E1
1.928067657E1,1.512862086E0,4.121636868E0,1.147956657E1
1.930078594E1,2.851048231E0,2.766701221E0,1.234636688E1
1.932089532E1,3.045464993E0,2.179861546E0,1.296191978E1
1.934100475E1,1.841875196E0,1.892722726E0,1.179003525E1
1.936111412E1,6.580262631E-2,2.328814745E0,9.858428955E0
1.938122350E1,-9.625129104E-1,3.114258766E0,8.140382767E0
1.940133287E1,-1.447657645E-1,3.492922783E0,6.974479675E0
1.942144230E1,1.477568030E0,3.539582968E0,6.739983082E0
1.944155167E1,1.890928149E0,3.533600807E0,7.180262566E0
1.946166105E1,1.280758262E0,3.135794163E0,7.862216949E0
1.948177042E1,2.572284341E-1,2.690729141E0,8.716454506E0
1.950187985E1,-4.677968323E-1,2.387438774E0,9.689137459E0
1.952198923E1,-8.075776696E-1,2.187039852E0,1.033041382E1
1.954209860E1,-9.068797827E-1,2.404188633E0,1.016650486E1
1.956220798E1,-7.663014531E-1,3.012563705E0,9.280562401E0
1.958231740E1,-2.691925466E-1,3.555136204E0,8.073982239E0
1.960242678E1,1.483550072E-1,3.897907972E0,7.189235687E0
1.962253615E1,2.327020019E-1,4.109673023E0,6.958926678E0
1.964264553E1,1.196411327E-1,4.070191383E0,7.552346706E0
1.966275495E1,9.152546525E-2,3.900300980E0,8.476573944E0
1.968286433E1,-4.486542568E-2,3.865604877E0,9.109476089E0
1.970297370E1,-1.357926875E-1,3.905684710E0,9.148957253E0
1.972308313E1,-1.040877849E-1,4.003192425E0,8.831310272E0
1.974319251E1,-1.256231871E-2,4.155734539E0,8.443673134E0
1.976330188E1,7.657032460E-2,4.347758770E0,8.149953842E0
1.978341126E1,2.482553422E-1,4.478167534E0,8.060821533E0
1.980352068E1,3.828516304E-1,4.506283283E0,8.259425163E0
1.982363006E1,1.992024779E-1,4.545764923E0,8.615358353E0
1.984373943E1,4.187439568E-3,4.540380955E0,8.858827591E0
1.986384881E1,-1.758724600E-1,4.636094093E0,8.855237961E0
1.988395824E1,-1.465603858E-1,4.689334393E0,8.723034859E0
1.990406761E1,-1.004985496E-1,4.690530777E0,8.803194046E0
1.992417699E1,-4.366901144E-2,4.567300320E0,9.205786705E0
1.994428636E1,-2.392822690E-2,4.397409916E0,9.742975235E0
1.996439579E1,-4.325026870E-1,4.427918434E0,1.010847950E1
1.998450516E1,-1.662413478E0,5.346164227E0,9.743574142E0
2.000461454E1,-2.324627161E0,6.050251961E0,9.040681839E0
2.002472396E1,-1.640878081E0,5.965306759E0,9.175278664E0
2.004483334E1,-2.141576260E-1,5.285745144E0,1.088853931E1
2.006494272E1,1.292722464E0,3.518047571E0,1.305344582E1
2.008505214E1,1.317847013E0,2.157727718E0,1.449093437E1
2.010516152E1,-3.445664644E-1,1.480558991E0,1.361815166E1
2.012527089E1,-1.690529227E0,1.776072621E0,1.088435173E1
2.014538027E1,-2.125424623E0,2.674577475E0,8.200202942E0
2.016548969E1,-9.122636318E-1,3.314657450E0,6.303293228E0
2.018559907E1,8.548358679E-1,3.541975737E0,5.952146530E0
2.020570844E1,1.406381488E0,3.265604734E0,7.191030025E0
2.022581787E1,1.420738459E0,2.620140791E0,8.583054543E0
2.024592725E1,9.158528447E-1,2.450848579E0,9.153144836E0
2.026603662E1,8.374879509E-2,2.704487801E0,8.883354187E0
2.028614605E1,-1.333998591E-1,2.775674343E0,8.324629784E0
2.030625542E1,1.292124242E-1,3.055036306E0,7.829315662E0
2.032636480E1,5.545366406E-1,3.577867985E0,7.344171047E0
2.034647422E1,8.039883971E-1,3.859622955E0,6.934998035E0
2.036658360E1,7.142575383E-1,3.822534084E0,7.207779884E0
2.038669298E1,5.940182209E-1,3.687339783E0,8.347361565E0
2.040680235E1,5.605186820E-1,3.680759430E0,9.457033157E0
2.042691178E1,5.629115105E-1,3.791427374E0,9.765109062E0
2.044702115E1,5.527420044E-1,4.051048756E0,9.358927727E0
2.046713053E1,7.764709592E-1,4.308875561E0,8.737990379E0
2.048723995E1,9.218349457E-1,4.519443989E0,8.440681458E0
2.050734933E1,9.002995491E-1,4.537389755E0,8.534600258E0
2.052745870E1,5.694918036E-1,4.488935471E0,8.876175880E0
2.054756813E1,3.661018610E-1,4.474578381E0,9.134600639E0
2.056767751E1,4.235295951E-1,4.601397991E0,9.242277145E0
2.058778688E1,3.792623878E-1,4.819743156E0,9.401998520E0
2.060789631E1,5.341976285E-1,4.831707001E0,9.614959717E0
2.062800568E1,8.141579032E-1,4.682754040E0,9.929018021E0
2.064811506E1,9.720842242E-1,4.593023300E0,1.018205833E1
2.066822449E1,1.100100160E0,4.497310162E0,1.029212856E1
2.068833386E1,2.877369225E-1,5.011766911E0,1.000977516E1
2.070844324E1,4.187439755E-2,5.063810825E0,9.447462082E0
2.072855266E1,7.316055298E-1,4.593621254E0,9.311071396E0
2.074866204E1,7.417750359E-1,5.023731232E0,9.350552559E0
2.076877141E1,2.122433662E0,4.284348965E0,9.775279045E0
2.078888084E1,3.432504177E0,2.641077995E0,1.136650562E1
2.080899022E1,3.278765202E0,1.564307809E0,1.281894875E1
2.082909959E1,1.236491084E0,1.051645517E0,1.262513065E1
2.084920902E1,-8.572286963E-1,1.400399446E0,1.105842972E1
2.086931839E1,-1.805982947E0,2.483749866E0,9.552745819E0
2.088942782E1,-7.345965505E-1,3.169891834E0,8.260622025E0
2.090953719E1,1.471585870E0,3.192025423E0,7.453044415E0
2.092964657E1,2.130808592E0,3.329014540E0,7.271189690E0
2.094975594E1,1.366899967E0,3.202194929E0,7.412366390E0
2.096986537E1,6.819544733E-2,2.869592667E0,7.911269665E0
2.098997475E1,-7.842476368E-1,2.602792740E0,8.793622971E0
2.101008417E1,-1.040877819E0,2.460419893E0,9.696913719E0
2.103019355E1,-8.201399446E-1,2.620738983E0,1.008634567E1
2.105030292E1,-4.061816335E-1,3.078366280E0,9.625727654E0
2.107041235E1,1.016949583E-2,3.561716557E0,8.602795601E0
2.109052173E1,1.758724600E-1,3.925425529E0,7.689933777E0
2.111063110E1,2.440679073E-1,4.022933006E0,7.314858913E0
2.113074053E1,1.657029688E-1,3.964907169E0,7.602595806E0
2.115084990E1,8.195417374E-2,3.824927092E0,8.529814720E0
2.117095933E1,6.699903309E-2,3.665206194E0,9.468399048E0
2.119106870E1,1.555334684E-2,3.644268990E0,9.820143700E0
2.121117808E1,-4.965107143E-2,3.852444410E0,9.473783493E0
2.123128751E1,6.281159073E-2,4.154538155E0,8.778668404E0
2.125139688E1,3.505485058E-1,4.427918434E0,8.251050949E0
2.127150626E1,6.735795736E-1,4.570291042E0,8.067999840E0
2.129161568E1,6.843472719E-1,4.625924587E0,8.249256134E0
2.131172506E1,4.642075896E-1,4.588835716E0,8.563912392E0
2.133183449E1,2.955136001E-1,4.576871395E0,8.796614647E0
2.135194386E1,3.379862010E-1,4.614558697E0,8.863015175E0
2.137205324E1,4.827519655E-1,4.574478626E0,8.833703041E0
2.139216266E1,3.320041299E-1,4.473381996E0,8.870193481E0
2.141227204E1,-1.854437590E-2,4.293322086E0,9.243474007E0
2.143238147E1,-6.137589812E-1,4.533800602E0,9.611370087E0
2.145249084E1,-1.193420291E0,5.133800983E0,9.432506561E0
2.147260022E1,-7.908278704E-1,5.411368370E0,9.262018204E0
2.149270964E1,1.286142170E-1,5.520241737E0,9.584450722E0
2.151281902E1,2.115255117E0,4.315455437E0,1.133181000E1
2.153292839E1,2.888735056E0,2.947359324E0,1.331725407E1
2.155303782E1,1.791625977E0,2.047059774E0,1.361815166E1
2.157314719E1,-8.913264424E-2,1.859821439E0,1.158185959E1
2.159325662E1,-1.426122308E0,2.371885538E0,9.057432175E0
2.161336600E1,-1.411765337E0,2.940778971E0,7.223931789E0
2.163347542E1,-3.098705411E-1,3.216551781E0,6.868597507E0
2.165358480E1,5.066801906E-1,3.124428272E0,8.059624672E0
2.167369417E1,6.705885530E-1,2.812164783E0,9.524032593E0
2.169380360E1,5.994020700E-1,2.705684185E0,1.026341438E1
2.171391298E1,1.549352705E-1,2.763710260E0,1.012283611E1
2.173402240E1,-1.304088384E-1,2.849253654E0,9.449256897E0
2.175413178E1,-1.381855011E-1,2.959323406E0,8.955737114E0
2.177424115E1,1.160518974E-1,3.052643538E0,8.665008545E0
2.179435058E1,4.426721931E-1,3.095714331E0,8.446065903E0
2.181445995E1,5.330012441E-1,3.233301640E0,8.280961037E0
2.183456938E1,5.294120312E-1,3.366701365E0,8.283951759E0
2.185467876E1,4.540380836E-1,3.432504177E0,8.414361000E0
2.187478818E1,3.690928817E-1,3.446861029E0,8.575278282E0
2.189489756E1,3.667000830E-1,3.506681681E0,8.658429146E0
2.191500699E1,5.318048596E-1,3.557528973E0,8.679964066E0
2.193511636E1,6.849454641E-1,3.631706476E0,8.732605934E0
2.195522574E1,7.028916478E-1,3.702893019E0,8.812167168E0
2.197533516E1,7.351947427E-1,3.761517286E0,8.761918068E0
2.199544454E1,6.376872063E-1,3.900899172E0,8.650651932E0
2.201555397E1,6.119644046E-1,4.017549038E0,8.579465866E0
2.203566334E1,6.119644046E-1,4.148556232E0,8.558527946E0
2.205577277E1,4.145565331E-1,4.385445595E0,8.568099976E0
2.207588214E1,4.671986103E-1,4.610371113E0,8.580661774E0
2.209599152E1,7.848458290E-1,4.746761799E0,8.822337151E0
2.211610094E1,9.206385016E-1,4.762913704E0,9.406186104E0
2.213621032E1,9.122636318E-1,4.710869789E0,9.960722923E0
2.215631975E1,3.649054468E-1,5.187639713E0,9.954740524E0
2.217642912E1,2.434697002E-1,5.374279499E0,9.467203140E0
2.219653855E1,1.314257860E0,4.852046013E0,9.647860527E0
2.221664792E1,2.615953445E0,4.240679741E0,1.073659515E1
2.223675730E1,2.838485956E0,3.578466177E0,1.163210869E1
2.225686673E1,2.400001049E0,2.754138947E0,1.170867920E1
2.227697615E1,1.933998942E0,2.135594130E0,1.101236820E1
2.229708553E1,1.438086390E0,1.938186288E0,1.032084274E1
2.231719495E1,8.422735929E-1,2.115853310E0,9.812965393E0
2.233730433E1,5.288137794E-1,2.379662037E0,9.323035240E0
2.235741370E1,3.170489967E-1,2.636890650E0,8.842676163E0
2.237752313E1,3.882354796E-1,2.823530674E0,8.504690170E0
2.239763251E1,8.626125455E-1,2.831905603E0,8.584251404E0
2.241774193E1,9.475577474E-1,2.752942562E0,8.994022369E0
2.243785131E1,5.718846321E-1,2.651247501E0,9.765707016E0
2.245796074E1,4.713860750E-1,2.362912416E0,1.050688457E1
2.247807011E1,4.019941986E-1,2.310868502E0,1.067258739E1
2.249817954E1,3.182454109E-1,2.468794823E0,9.905687332E0
2.251828891E1,2.733799815E-1,2.830111027E0,8.669795036E0
2.253839834E1,2.644068897E-1,3.327818155E0,7.651648521E0
2.255850772E1,2.997010350E-1,3.717848301E0,6.829713821E0
2.257861714E1,4.145565331E-1,4.050450325E0,6.487540245E0
2.259872652E1,6.801598072E-1,4.262813568E0,6.741179466E0
2.261883589E1,1.014556766E0,4.172484398E0,7.517052174E0
2.263894532E1,1.031306505E0,3.970889091E0,8.385646820E0
2.265905475E1,6.119644046E-1,3.924827337E0,9.067601204E0
2.267916412E1,3.278166950E-1,3.960121393E0,9.245866776E0
2.269927355E1,3.074777126E-1,4.076173306E0,9.139386177E0
2.271938292E1,4.468596280E-1,4.253840446E0,8.956933022E0
2.273949235E1,6.705885530E-1,4.369294167E0,8.788239479E0
2.275960173E1,8.123632669E-1,4.448257446E0,8.758927345E0
2.277971115E1,7.537391186E-1,4.498506546E0,8.938388824E0
2.279982053E1,6.687939167E-1,4.444668293E0,9.110671997E0
2.281992990E1,5.383850932E-1,4.459024906E0,9.145966530E0
2.284003933E1,3.942175210E-1,4.572085857E0,9.038887978E0
2.286014876E1,3.678964674E-1,4.645665169E0,9.093922615E0
2.288025813E1,2.243271172E-1,4.722833633E0,9.593423843E0
2.290036756E1,2.135594189E-1,4.774877548E0,1.012821960E1
2.292047693E1,8.554340899E-2,4.965705395E0,1.019521904E1
2.294058636E1,-5.760720372E-1,5.258825779E0,9.418149948E0
2.296069574E1,-1.073779106E0,5.316253662E0,8.856434822E0
2.298080516E1,-1.138983607E0,5.202594757E0,9.250054359E0
2.300091454E1,-5.401797295E-1,4.621737003E0,1.046381378E1
2.302102396E1,5.216353536E-1,3.540181160E0,1.193420315E1
2.304113334E1,1.170090318E0,2.629113913E0,1.300977707E1
2.306124277E1,7.543373108E-1,1.904686809E0,1.297208977E1
2.308135214E1,-3.284149170E-1,1.674975872E0,1.123789120E1
2.310146157E1,-1.061216831E0,2.323430777E0,9.319445610E0
2.312157094E1,-9.912267923E-1,3.052045345E0,7.985447407E0
2.314168037E1,-2.811566554E-2,3.526422262E0,7.651648521E0
2.316178975E1,8.751748800E-1,3.662813187E0,8.307282448E0
2.318189917E1,1.127019525E0,3.423531055E0,8.998209953E0
2.320200855E1,7.848458290E-1,3.198605776E0,8.971290588E0
2.322211798E1,2.309073806E-1,3.166302681E0,8.278568268E0
2.324222735E1,-2.392822653E-1,3.242872953E0,7.725826263E0
2.326233678E1,-2.853440940E-1,3.320041418E0,7.697710514E0
2.328244615E1,-7.118647546E-2,3.436691523E0,7.960920811E0
2.330255558E1,1.124626622E-1,3.554538012E0,8.127820015E0
2.332266495E1,2.153540403E-1,3.632902861E0,8.209774017E0
2.334277438E1,3.314059377E-1,3.694518089E0,8.273183823E0
2.336288376E1,4.205385745E-1,3.774677753E0,8.436494827E0
2.338299318E1,4.803591371E-1,3.869792461E0,8.494520187E0
2.340310261E1,3.972085714E-1,4.082155228E0,8.266005516E0
2.342321199E1,3.978067636E-1,4.300500393E0,7.925626755E0
2.344332141E1,5.802595019E-1,4.430909157E0,7.798209190E0
2.346343079E1,6.370890141E-1,4.566103935E0,7.984251022E0
2.348354022E1,5.688936114E-1,4.619344234E0,8.315656662E0
2.350364959E1,5.024927258E-1,4.569094658E0,8.598608017E0
2.352375902E1,5.670989752E-1,4.523033142E0,8.885149002E0
2.354386839E1,6.556333899E-1,4.621138573E0,9.145368576E0
2.356397782E1,6.388836503E-1,4.761118889E0,9.171689034E0
2.358408719E1,6.945167780E-1,4.752744198E0,9.110671997E0
2.360419662E1,7.651050687E-1,4.726422787E0,9.209376335E0
2.362430605E1,6.394818425E-1,4.661218643E0,9.343374252E0
2.364441542E1,3.667000830E-1,4.644468784E0,9.337391853E0
2.366452485E1,-1.782652885E-1,5.173282623E0,9.197412491E0
2.368463422E1,2.129612118E-1,5.255835056E0,9.203991890E0
2.370474365E1,1.741376638E0,4.356133461E0,1.007617569E1
2.372485303E1,2.179263115E0,4.249054909E0,1.094477081E1
2.374496245E1,1.527817249E0,4.298107624E0,1.118345451E1
2.376507188E1,1.374676585E0,3.507878065E0,1.111107159E1
2.378518126E1,1.878963947E0,2.569293261E0,1.146760273E1
2.380529068E1,1.893919110E0,1.979462504E0,1.144427204E1
2.382540006E1,8.632107973E-1,1.889731646E0,1.078325558E1
2.384550949E1,-7.896314561E-2,2.416152716E0,9.602396965E0
2.386561886E1,-2.650051117E-1,3.198605776E0,8.413164139E0
2.388572829E1,5.000999570E-1,3.788436413E0,7.446464062E0
2.390583766E1,1.475773335E0,4.110270977E0,7.231110096E0
2.392594709E1,1.802393675E0,3.886542082E0,7.914859295E0
2.394605646E1,1.519442320E0,3.327818155E0,9.214759827E0
2.396616589E1,8.733802438E-1,2.946162939E0,1.033938694E1
2.398627532E1,1.357926875E-1,2.684746981E0,1.082154083E1
2.400638469E1,-2.075773627E-1,2.670390129E0,1.028315544E1
2.402649412E1,-2.703889608E-1,3.090330362E0,9.284152031E0
2.404660350E1,-1.322034448E-1,3.632902861E0,8.215158463E0
2.406671292E1,1.375873089E-1,3.969692707E0,7.377670288E0
2.408682230E1,2.877369225E-1,4.205385685E0,6.981060028E0
2.410693173E1,3.990031779E-1,4.274777889E0,7.424330235E0
2.412704115E1,6.215356588E-1,4.031906128E0,8.407182693E0
2.414715053E1,6.191428304E-1,3.793222189E0,9.235696793E0
2.416725995E1,4.761717021E-1,3.692125320E0,9.412766457E0
2.418736933E1,4.917250574E-1,3.735794306E0,8.948558807E0
2.420747876E1,5.347958803E-1,3.912863255E0,8.309675217E0
2.422758818E1,5.114658475E-1,4.126422882E0,7.780262947E0
2.424769756E1,6.065805554E-1,4.184448719E0,7.542177200E0
2.426780699E1,6.281159520E-1,4.295714855E0,7.800601959E0
2.428791636E1,5.754738450E-1,4.406980991E0,8.331808090E0
2.430802579E1,4.480560422E-1,4.463810444E0,8.739784241E0
2.432813522E1,4.007977843E-1,4.543970108E0,8.896514893E0
2.434824459E1,3.786641955E-1,4.685744762E0,8.914461136E0
2.436835402E1,3.613162339E-1,4.734797955E0,8.860024452E0
2.438846339E1,2.015953064E-1,4.770092010E0,8.982656479E0
2.440857282E1,-2.751746029E-2,4.846064091E0,9.324830055E0
2.442868219E1,-6.233302951E-1,5.350949764E0,9.465408325E0
2.444879162E1,-9.080761671E-1,5.559723377E0,9.537791252E0
2.446890105E1,-7.178468257E-2,5.026124001E0,1.014437199E1
2.448901042E1,4.881358147E-1,4.613361835E0,1.119960594E1
2.450911985E1,9.822536707E-1,3.951746702E0,1.224108219E1
2.452922922E1,1.147358418E0,3.036491871E0,1.267179012E1
2.454933865E1,7.579265833E-1,2.385046005E0,1.211306667E1
2.456944808E1,2.793620527E-1,2.072782516E0,1.066301632E1
2.458955745E1,-3.026920557E-1,2.333600283E0,9.082556725E0
2.460966688E1,-8.398807645E-1,2.916252613E0,7.845467091E0
2.462977626E1,-1.238285661E0,3.585046530E0,7.211967468E0
2.464988568E1,-1.133001566E0,3.997210264E0,7.352545738E0
2.466999511E1,-9.152546525E-2,3.686741590E0,8.330014229E0
2.469010449E1,1.048056364E0,3.050250769E0,9.354142189E0
2.471021391E1,1.329213023E0,2.681756020E0,9.967901230E0
2.473032329E1,3.834498227E-1,2.612364054E0,1.000259686E1
2.475043272E1,-5.503492355E-1,2.603989124E0,9.293723106E0
2.477054214E1,-8.656035662E-1,3.035893679E0,8.633902550E0
2.479065152E1,-3.846462369E-1,3.420539856E0,8.343772888E0
2.481076094E1,5.312066078E-1,3.530609846E0,8.429914474E0
2.483087032E1,8.871390224E-1,3.675375462E0,8.690134048E0
2.485097975E1,6.777670383E-1,3.712464333E0,8.709874153E0
2.487108917E1,2.291127741E-1,3.761517286E0,8.575278282E0
2.489119855E1,2.452643216E-2,3.933800459E0,8.551349640E0
2.491130798E1,2.333002090E-1,4.061218262E0,8.545368195E0
2.493141735E1,4.821537733E-1,4.101297855E0,8.625527382E0
2.495152678E1,5.198407173E-1,4.064209461E0,8.769096375E0
2.497163620E1,5.078766346E-1,3.977469444E0,8.924032211E0
2.499174558E1,4.660021961E-1,3.986442566E0,9.021539688E0
2.501185501E1,4.540380836E-1,4.001397610E0,9.028717995E0
2.503196438E1,5.509474277E-1,4.055236340E0,9.009575844E0
2.505207381E1,5.377869010E-1,4.170690060E0,8.922835350E0
2.507218324E1,4.779663086E-1,4.224528313E0,8.819346428E0
2.509229261E1,3.302095234E-1,4.267001152E0,8.861818314E0
2.511240204E1,1.848455518E-1,4.331008911E0,8.959924698E0
2.513251146E1,9.750752151E-2,4.334598064E0,8.937192917E0
2.515262084E1,2.715853751E-1,4.269393921E0,9.020342827E0
2.517273027E1,6.418746710E-1,4.116851330E0,9.367302895E0
2.519283964E1,4.468596280E-1,4.213162422E0,9.736394882E0
2.521294907E1,-3.661018610E-1,4.758127689E0,9.697511673E0
2.523305850E1,8.494520187E-2,4.498506546E0,9.655637741E0
2.525316787E1,1.046859860E0,4.415954113E0,1.024187946E1
2.527327730E1,1.682154298E0,4.484747887E0,1.091605663E1
2.529338667E1,2.496312141E0,3.627519131E0,1.148614693E1
2.531349610E1,2.512463808E0,2.668595552E0,1.149751282E1
2.533360553E1,1.763510346E0,1.940579176E0,1.061815071E1
2.535371490E1,6.340979934E-1,1.690529227E0,9.914660454E0
2.537382433E1,-1.316052526E-1,1.806581140E0,9.632905960E0
2.539393376E1,-4.247260094E-2,1.982453585E0,9.386445045E0
2.541404313E1,-4.606183618E-2,2.580659151E0,8.924032211E0
2.543415256E1,-2.213360928E-2,3.218944550E0,8.237890244E0
2.545426193E1,5.425725579E-1,3.617349625E0,7.609176159E0
2.547437136E1,1.418943882E0,3.555136204E0,7.562515736E0
2.549448079E1,1.963909149E0,3.026920557E0,8.641080856E0
2.551459016E1,1.783251047E0,2.441875458E0,1.025623608E1
2.553469959E1,1.014556766E0,2.081755638E0,1.154357433E1
2.555480897E1,-7.178468257E-2,2.109871387E0,1.146281719E1
2.557491839E1,-4.133601189E-1,2.539981127E0,1.042672443E1
2.559502782E1,-4.785645287E-3,3.145365477E0,9.396614075E0
2.561513719E1,8.225327730E-1,3.555734396E0,8.606385231E0
2.563524662E1,1.329811215E0,3.769891977E0,8.036294937E0
2.565535605E1,9.655039310E-1,3.849453449E0,7.814958572E0
2.567546542E1,4.462614357E-1,3.731008768E0,8.130811691E0
2.569557485E1,2.961117923E-1,3.586841106E0,8.995817184E0
2.571568422E1,3.260220885E-1,3.532404423E0,9.781859398E0
2.573579365E1,4.348955154E-1,3.488735437E0,9.963713646E0
2.575590308E1,5.180460811E-1,3.472583771E0,9.803992271E0
2.577601245E1,4.845465720E-1,3.452843189E0,9.661021233E0
2.579612188E1,3.260220885E-1,3.361915827E0,9.634700775E0
2.581623131E1,2.751746029E-2,3.351148129E0,9.553942680E0
2.583634068E1,-4.247260094E-2,3.391826153E0,9.427123070E0
2.585645011E1,-2.093719877E-2,3.573082447E0,9.223732948E0
2.587655949E1,-4.247260094E-2,3.773481369E0,9.009575844E0
2.589666891E1,7.537391037E-2,3.739981890E0,8.936594009E0
2.591677834E1,3.397808075E-1,3.651447296E0,9.182456970E0
2.593688772E1,4.630111754E-1,3.514458179E0,9.476176262E0
2.595699714E1,3.092723191E-1,3.420539856E0,9.489336014E0
2.597710657E1,3.332005441E-1,3.381656647E0,9.320044518E0
2.599721594E1,5.994020700E-1,3.451048374E0,9.231510162E0
2.601732537E1,6.933203340E-1,3.555734396E0,8.946166039E0
2.603743480E1,5.000999570E-1,3.605983734E0,8.553144455E0
2.605754417E1,4.546363056E-1,3.656233072E0,8.327621460E0
2.607765360E1,7.064808607E-1,3.674179077E0,8.480163574E0
2.609776298E1,8.817551732E-1,3.583251953E0,9.016156197E0
2.611787240E1,8.584251404E-1,3.485146284E0,9.545567513E0
2.613798183E1,6.388836503E-1,3.468994617E0,9.620343208E0
2.615809120E1,3.631108403E-1,3.552743435E0,9.182456970E0
2.617820063E1,2.165504545E-1,3.683152199E0,8.701499939E0
2.619831006E1,1.220339537E-1,3.712464333E0,8.569295883E0
2.621841943E1,1.118644550E-1,3.691527128E0,8.594420433E0
2.623852886E1,-7.178468257E-2,3.761517286E0,8.700303078E0
2.625863829E1,-3.828516230E-2,3.711267948E0,8.879764557E0
2.627874766E1,5.443671346E-2,3.662214994E0,9.205786705E0
2.629885709E1,-1.016949583E-2,3.681955814E0,9.442676544E0
2.631896647E1,-1.992024779E-1,3.656233072E0,9.407382011E0
2.633907589E1,-2.027917206E-1,3.676572084E0,9.278767586E0
2.635918532E1,7.417750359E-2,3.744767427E0,9.241679192E0
2.637929469E1,2.596212626E-1,3.788436413E0,9.349954605E0
2.639940412E1,3.397808075E-1,3.805784464E0,9.450452805E0
2.641951355E1,3.104687333E-1,3.812962770E0,9.356534958E0
2.643962292E1,3.278166950E-1,3.842873096E0,9.135198593E0
2.645973235E1,3.816552162E-1,3.885943890E0,9.024530411E0
2.647984172E1,4.444667995E-1,3.870390654E0,9.019146919E0
2.649995115E1,3.894318938E-1,3.841676712E0,9.123832703E0
2.652006058E1,2.093719840E-1,3.827319860E0,9.181859016E0
2.654016995E1,1.399801224E-1,3.814159393E0,9.212367058E0
2.656027938E1,1.968096644E-1,3.849453449E0,9.311669350E0
2.658038881E1,2.261217386E-1,3.923032761E0,9.257232666E0
2.660049818E1,2.422732860E-1,3.979264021E0,9.080761909E0
2.662060761E1,3.684946895E-1,3.955934048E0,9.027522087E0
2.664071704E1,3.200400174E-1,3.901497364E0,9.150752068E0
2.666082641E1,2.027917206E-1,3.821337700E0,9.440283775E0
2.668093584E1,1.363908947E-1,3.757927895E0,9.704092026E0
2.670104522E1,1.375873089E-1,3.738785267E0,9.700503349E0
2.672115464E1,1.998006850E-1,3.760320902E0,9.465408325E0
2.674126407E1,2.416750938E-1,3.812364578E0,9.147761345E0
2.676137344E1,3.134597540E-1,3.853640795E0,8.862417221E0
2.678148287E1,3.690928817E-1,3.866801500E0,8.925827026E0
2.680159230E1,2.901297510E-1,3.876372576E0,9.175876617E0
2.682170167E1,2.422732860E-1,3.848257065E0,9.297312737E0
2.684181110E1,1.609173268E-1,3.833899975E0,9.184849739E0
2.686192048E1,1.746760458E-1,3.837489367E0,8.980263710E0
2.688202990E1,2.524427772E-1,3.799802303E0,8.858827591E0
2.690213933E1,1.280160099E-1,3.780659676E0,8.933005333E0
2.692224870E1,1.118644550E-1,3.723830223E0,9.067601204E0
2.694235813E1,1.345962733E-1,3.687937975E0,9.212965012E0
2.696246756E1,3.948157281E-2,3.672982693E0,9.393623352E0
2.698257693E1,9.750752151E-2,3.573680639E0,9.442078590E0
2.700268636E1,1.010967568E-1,3.638286829E0,9.438488960E0
2.702279579E1,1.968096644E-1,3.664009571E0,9.281160355E0
2.704290516E1,2.279163599E-1,3.652045488E0,9.075976372E0
2.706301459E1,1.489532143E-1,3.666402578E0,9.008976936E0
2.708312397E1,6.161518395E-2,3.630510092E0,9.108877182E0
2.710323339E1,1.076770201E-2,3.658027649E0,9.178867340E0
2.712334282E1,1.022931710E-1,3.734597921E0,9.153742790E0
2.714345219E1,2.500499785E-1,3.736392498E0,9.031110764E0
2.716356162E1,2.321037948E-1,3.748954773E0,8.938986778E0
2.718367105E1,9.870393574E-2,3.697509289E0,9.031110764E0
2.720378042E1,-6.939185411E-2,3.684348583E0,9.193822861E0
2.722388985E1,-5.443671346E-2,3.668795347E0,9.282955170E0
2.724399928E1,1.375873014E-2,3.655036688E0,9.391828537E0
2.726410865E1,9.631111473E-2,3.596412420E0,9.501898766E0
2.728421808E1,7.776673883E-2,3.605983734E0,9.479764938E0
2.730432745E1,4.965107143E-2,3.622733593E0,9.356534958E0
2.732443688E1,8.015955985E-2,3.656831264E0,9.325428009E0
2.734454631E1,1.591227055E-1,3.651447296E0,9.371489525E0
2.736465568E1,1.501496136E-1,3.692125320E0,9.280562401E0
2.738476511E1,1.507478207E-1,3.768695593E0,9.142974854E0
2.740487454E1,3.266202807E-1,3.780659676E0,9.134002686E0
2.742498391E1,3.810569942E-1,3.791427374E0,9.245866776E0
2.744509334E1,2.865405083E-1,3.774079561E0,9.318847656E0
2.746520277E1,1.603191197E-1,3.768097401E0,9.281160355E0
2.748531214E1,1.914258152E-1,3.755535126E0,9.193822861E0
2.750542157E1,2.937189937E-1,3.781856298E0,9.159725189E0
2.752553094E1,2.763710022E-1,3.784847260E0,9.232108116E0
2.754564037E1,2.009970993E-1,3.754936934E0,9.303893089E0
2.756574980E1,1.375873089E-1,3.731606960E0,9.364311218E0
2.758585917E1,1.722832322E-1,3.735794306E0,9.314660072E0
2.760596860E1,2.524427772E-1,3.747160196E0,9.180064201E0
2.762607803E1,2.919243574E-1,3.790230989E0,8.992227554E0
2.764618740E1,3.080759048E-1,3.806980848E0,8.980861664E0
2.766629683E1,2.333002090E-1,3.787838221E0,9.126823425E0
2.768640620E1,1.663011760E-1,3.759124279E0,9.282955170E0
2.770651563E1,1.896311939E-1,3.777668715E0,9.281160355E0
2.772662506E1,1.878365725E-1,3.823730469E0,9.104690552E0
2.774673443E1,2.081755698E-1,3.809971809E0,8.958727837E0
2.776684386E1,1.244267747E-1,3.796213150E0,9.064610481E0
2.778695329E1,8.315058798E-2,3.780061483E0,9.154341698E0
2.780706266E1,7.716853172E-2,3.787838221E0,9.115457535E0
2.782717209E1,6.221338734E-2,3.836292982E0,9.050253868E0
2.784728152E1,4.247260094E-2,3.896113396E0,8.989834785E0
2.786739089E1,8.494520187E-2,3.863212109E0,9.002995491E0
2.788750032E1,7.836493850E-2,3.826123476E0,9.162715912E0
2.790760969E1,7.836493850E-2,3.813561201E0,9.421739578E0
2.792771912E1,9.750752151E-2,3.762713671E0,9.593423843E0
2.794782855E1,3.050848842E-2,3.777668715E0,9.594022751E0
2.796793792E1,8.733802289E-2,3.763910055E0,9.459425926E0
2.798804735E1,1.621137410E-1,3.830310822E0,9.262018204E0
2.800815673E1,2.374876440E-1,3.915256023E0,9.061020851E0
2.802826615E1,3.146561682E-1,3.899104595E0,8.973683357E0
2.804837558E1,3.541377485E-1,3.859024763E0,9.091529846E0
2.806848495E1,3.667000830E-1,3.815355778E0,9.203393936E0
2.808859438E1,2.733799815E-1,3.831507206E0,9.233902931E0
2.810870381E1,3.026920557E-1,3.795614958E0,9.124430656E0
2.812881318E1,3.391826153E-1,3.827918053E0,8.980861664E0
2.814892261E1,2.865405083E-1,3.859622955E0,8.968298912E0
2.816903199E1,2.799602449E-1,3.836891174E0,8.990432739E0
2.818914141E1,2.398804724E-1,3.827918053E0,9.068199158E0
2.820925084E1,2.464607358E-1,3.787838221E0,9.151947975E0
2.822936022E1,2.452643216E-1,3.753740549E0,9.256035805E0
2.824946964E1,2.129612118E-1,3.729812384E0,9.326025963E0
2.826957907E1,1.375873089E-1,3.723830223E0,9.265008926E0
2.828968844E1,1.441675574E-1,3.711866140E0,9.206983566E0
2.830979787E1,1.776670814E-1,3.736990690E0,9.184251785E0
2.832990725E1,1.387837082E-1,3.742374659E0,9.181859016E0
2.835001667E1,9.032905847E-2,3.744169235E0,9.071190834E0
2.837012610E1,4.307080805E-2,3.786641836E0,8.971888542E0
2.839023548E1,1.256231871E-2,3.776472330E0,9.010771751E0
2.841034490E1,2.931207791E-2,3.763910055E0,9.160323143E0
2.843045428E1,1.172483116E-1,3.771686792E0,9.276973724E0
2.845056370E1,1.938186288E-1,3.800400496E0,9.262018204E0
2.847067313E1,2.530409992E-1,3.797409534E0,9.156734467E0
2.849078251E1,2.769692242E-1,3.836891174E0,9.064610481E0
2.851089193E1,3.272185028E-1,3.842274904E0,9.081958771E0
2.853100136E1,3.337987661E-1,3.794418573E0,9.200403214E0
2.855111074E1,3.290131092E-1,3.728615999E0,9.442078590E0
2.857122016E1,2.632105052E-1,3.693919897E0,9.571888924E0
2.859132954E1,1.555334777E-1,3.726821184E0,9.431908607E0
2.861143896E1,1.573280841E-1,3.770490170E0,9.168698311E0
2.863154834E1,2.398804724E-1,3.790230989E0,8.937192917E0
2.865165777E1,3.086741269E-1,3.787838221E0,8.821739197E0
2.867176719E1,3.014956415E-1,3.796811342E0,8.835497856E0
2.869187657E1,1.028913707E-1,3.771088600E0,8.968897820E0
2.871198600E1,1.196411345E-2,3.716053486E0,9.133403778E0
2.873209542E1,2.512463741E-2,3.698107481E0,9.269196510E0
2.875220480E1,7.118647546E-2,3.700500250E0,9.255437851E0
2.877231423E1,1.459621787E-1,3.714258909E0,9.191430092E0
2.879242360E1,1.489532143E-1,3.744767427E0,9.169894218E0
2.881253303E1,1.441675574E-1,3.772883177E0,9.204590797E0
2.883264245E1,1.686939895E-1,3.800998688E0,9.273982048E0
2.885275183E1,1.663011760E-1,3.784847260E0,9.332008362E0
2.887286126E1,1.172483116E-1,3.772883177E0,9.311669350E0
2.889297063E1,9.810572863E-2,3.783650875E0,9.212367058E0
2.891308006E1,1.160518974E-1,3.770490170E0,9.147162437E0
2.893318949E1,1.519442350E-1,3.776472330E0,9.226723671E0
2.895329886E1,2.315055877E-1,3.752544165E0,9.425328255E0
2.897340829E1,2.572284341E-1,3.759124279E0,9.443872452E0
2.899351766E1,2.129612118E-1,3.806980848E0,9.206384659E0
2.901362709E1,2.374876440E-1,3.842873096E0,8.997611046E0
2.903373652E1,3.248256743E-1,3.811766386E0,9.025128365E0
2.905384589E1,3.972085714E-1,3.786641836E0,9.206384659E0
2.907395532E1,3.708875179E-1,3.757927895E0,9.299106598E0
2.909406469E1,2.823530734E-1,3.734597921E0,9.306285858E0
2.911417412E1,1.962114573E-1,3.835096598E0,9.116056442E0
2.913428355E1,3.296113312E-1,3.893720627E0,8.855836868E0
2.915439292E1,4.139583111E-1,3.886542082E0,8.854042053E0
2.917450235E1,3.930211067E-1,3.787240028E0,9.129815102E0
2.919461172E1,2.129612118E-1,3.705285788E0,9.354142189E0
2.921472115E1,5.922235921E-2,3.741178274E0,9.360722542E0
2.923483053E1,1.860419661E-1,3.798605919E0,9.264410973E0
2.925493995E1,3.487538993E-1,3.769293785E0,9.181859016E0
2.927504938E1,2.745763958E-1,3.804588079E0,9.081359863E0
2.929515876E1,2.051845491E-1,3.817748547E0,8.979664803E0
2.931526818E1,2.249253243E-1,3.814159393E0,9.001200676E0
2.933537761E1,2.536391914E-1,3.822534084E0,9.068199158E0
2.935548699E1,1.938186288E-1,3.829712629E0,9.178867340E0
2.937559641E1,1.483550072E-1,3.766901016E0,9.364311218E0
2.939570579E1,1.441675574E-1,3.728615999E0,9.419346809E0
2.941581522E1,1.788634956E-1,3.754338741E0,9.274580956E0
2.943592459E1,2.267199457E-1,3.814757586E0,9.055637360E0
2.945603402E1,2.727817893E-1,3.863810301E0,8.994620323E0
2.947614344E1,2.039881349E-1,3.837489367E0,9.073583603E0
2.949625282E1,1.405783296E-1,3.822534084E0,9.193224907E0
2.951636225E1,2.057827413E-1,3.807579041E0,9.300901413E0
2.953647162E1,2.721835673E-1,3.805186272E0,9.289535522E0
2.955658105E1,2.344966233E-1,3.805186272E0,9.162715912E0
2.957669042E1,1.531406492E-1,3.834498405E0,9.072386742E0
2.959679985E1,1.447657645E-1,3.805784464E0,9.088538170E0
2.961690928E1,1.896311939E-1,3.787240028E0,9.151947975E0
2.963701865E1,2.410768867E-1,3.806980848E0,9.226125717E0
2.965712808E1,2.518445849E-1,3.813561201E0,9.230911255E0
2.967723745E1,2.380858511E-1,3.834498405E0,9.242277145E0
2.969734688E1,2.566302419E-1,3.811766386E0,9.272786140E0
2.971745626E1,2.787638307E-1,3.784847260E0,9.286544800E0
2.973756568E1,3.170489967E-1,3.798007727E0,9.326624870E0
2.975767511E1,3.248256743E-1,3.776472330E0,9.315856934E0
2.977778449E1,2.949153781E-1,3.759722471E0,9.244669914E0
2.979789391E1,2.829512656E-1,3.754338741E0,9.190233231E0
2.981800329E1,2.111666054E-1,3.806382656E0,9.079565048E0
2.983811272E1,2.386840582E-1,3.808775425E0,8.872586250E0
2.985822209E1,3.014956415E-1,3.797409534E0,8.821140289E0
2.987833152E1,3.493520916E-1,3.776472330E0,9.016156197E0
2.989844094E1,3.924229145E-1,3.713062525E0,9.245268822E0
2.991855032E1,2.650051117E-1,3.717848301E0,9.309874535E0
2.993865975E1,2.291127741E-1,3.744767427E0,9.192625999E0
2.995876912E1,2.733799815E-1,3.755535126E0,9.016754150E0
2.997887855E1,2.416750938E-1,3.819543123E0,8.880363464E0
2.999898792E1,2.901297510E-1,3.821935892E0,8.848658562E0
3.001909735E1,3.535395563E-1,3.828516245E0,8.992227554E0
3.003920678E1,3.355933726E-1,3.840480328E0,9.141180992E0
3.005931615E1,3.846462369E-1,3.824328899E0,9.146564484E0
3.007942558E1,3.972085714E-1,3.888336897E0,9.125029564E0
3.009953495E1,4.474578202E-1,3.838087559E0,9.211171150E0
3.011964438E1,3.894318938E-1,3.820141315E0,9.348159790E0
3.013975376E1,3.565305769E-1,3.818944931E0,9.430712700E0
3.015986318E1,4.103690982E-1,3.839882135E0,9.419346809E0
3.017997256E1,4.731806815E-1,3.884747505E0,9.357132912E0
3.020008199E1,4.683950245E-1,3.866203070E0,9.388239861E0
3.022019141E1,5.557330847E-1,3.848257065E0,9.580862045E0
3.024030079E1,6.323033571E-1,3.818944931E0,9.531808853E0
3.026041022E1,6.011967063E-1,3.795614958E0,9.209974289E0
3.028051959E1,5.174478889E-1,3.786641836E0,8.908478737E0
3.030062902E1,4.917250574E-1,3.826721668E0,8.867202759E0
3.032073839E1,4.947160780E-1,3.825525284E0,9.013762474E0
3.034084782E1,4.432703853E-1,3.811168194E0,9.176474571E0
3.036095719E1,4.725824594E-1,3.784249067E0,9.172885895E0
3.038106662E1,4.881358147E-1,3.798605919E0,9.025727272E0
3.040117605E1,4.067798555E-1,3.839283943E0,8.885149002E0
3.042128542E1,4.313062727E-1,3.809373617E0,8.898907661E0
3.044139485E1,4.689932466E-1,3.762115479E0,9.076574326E0
3.046150423E1,6.071787477E-1,3.681955814E0,9.350552559E0
3.048161365E1,3.601198196E-1,3.837489367E0,9.501300812E0
3.050172303E1,3.601198196E-1,3.789632797E0,9.144769669E0
3.052183245E1,3.529413342E-1,3.820141315E0,8.917451859E0
3.054194183E1,3.840480447E-1,3.836292982E0,9.060422897E0
3.056205126E1,3.834498227E-1,3.866801500E0,9.334999084E0
3.058216063E1,3.409772217E-1,3.924827337E0,9.411569595E0
3.060227006E1,3.792623878E-1,3.926023722E0,9.261420250E0
3.062237943E1,4.235295951E-1,3.948755503E0,9.136993408E0
3.064248886E1,4.354937077E-1,4.018147469E0,9.163912773E0
3.066259824E1,5.036891699E-1,4.003790379E0,9.188439369E0
3.068270766E1,5.012963414E-1,3.999603033E0,9.162715912E0
3.070281704E1,5.682953596E-1,4.016951084E0,9.122037888E0
3.072292646E1,6.334998012E-1,4.040879250E0,9.043673515E0
3.074303589E1,6.293123364E-1,4.012165546E0,8.964112282E0
3.076314527E1,5.892325640E-1,3.979264021E0,8.895318031E0
3.078325464E1,5.611169338E-1,3.970290899E0,8.949156761E0
3.080336407E1,5.623133183E-1,3.977469444E0,9.015557289E0
3.082347350E1,5.611169338E-1,3.980460405E0,8.999405861E0
3.084358287E1,5.533402562E-1,3.948755503E0,9.046664238E0
3.086369230E1,4.791627228E-1,3.954737663E0,9.038289070E0
3.088380167E1,4.737788737E-1,3.984647989E0,8.933603287E0
3.090391110E1,5.455635786E-1,4.010969162E0,8.961120605E0
3.092402048E1,6.412764788E-1,4.015754700E0,9.162715912E0
3.094412990E1,5.916253924E-1,3.999004841E0,9.239884377E0
3.096423928E1,5.042873621E-1,3.994817495E0,9.141778946E0
3.098434870E1,4.301098585E-1,4.002593994E0,9.064610481E0
3.100445808E1,4.707878530E-1,3.997808456E0,9.010173798E0
3.102456751E1,4.295116663E-1,4.000799656E0,8.963513374E0
3.104467688E1,3.744767308E-1,3.966103554E0,8.748159409E0
3.106478631E1,3.427718580E-1,3.890729666E0,8.758329391E0
3.108489574E1,3.619144261E-1,3.864408493E0,9.085547447E0
3.110500511E1,4.773681164E-1,3.809373617E0,9.466006279E0
3.112511454E1,4.725824594E-1,3.790829182E0,9.627521515E0
3.114522391E1,4.037888348E-1,3.833301783E0,9.396614075E0
3.116533329E1,3.667000830E-1,3.922434568E0,9.015557289E0
3.118544272E1,4.265206456E-1,3.955335855E0,8.882157326E0
3.120555214E1,4.522434771E-1,3.982853174E0,9.098708153E0
3.122566152E1,5.264210105E-1,3.975674868E0,9.332606316E0
3.124577094E1,5.491527915E-1,3.960719585E0,9.273982048E0
3.126588032E1,5.306084156E-1,3.937389612E0,9.110671997E0
3.128598975E1,4.061816335E-1,3.928416491E0,7.636693478E0
3.130609912E1,7.357929647E-2,3.995415688E0,8.572287560E0
3.132620855E1,5.503492355E-1,3.608974695E0,1.011685371E1
3.134631792E1,7.519445419E-1,3.608974695E0,1.063669491E1
3.136642735E1,5.060819983E-1,3.999004841E0,1.063848972E1
