"Time (s)","Gyroscope x (rad/s)","Gyroscope y (rad/s)","Gyroscope z (rad/s)"
3.348307900E-2,1.620272398E-1,-1.539335102E-1,-6.192464009E-2
5.359250600E-2,-4.718795046E-2,-1.527118147E-4,-1.202605516E-1
7.370193300E-2,-1.605001241E-1,9.880454093E-2,-5.291464552E-2
9.381136100E-2,-1.817270666E-1,1.655396074E-1,-5.917582661E-2
1.139207880E-1,-1.348445266E-1,1.267508119E-1,-8.177717775E-2
1.340301630E-1,-4.260659590E-2,-3.206948051E-3,-8.406785131E-2
1.541395900E-1,6.780404598E-2,-5.925218388E-2,-8.742751181E-2
1.742490170E-1,1.200314835E-1,-1.404948719E-2,-9.216158092E-2
1.943584440E-1,7.085828483E-2,3.451287001E-2,-8.208259940E-2
2.144678710E-1,-3.237490356E-2,5.268557742E-2,-6.833853573E-2
2.345772980E-1,-1.168245375E-1,6.658235192E-2,-6.299362332E-2
2.546866730E-1,-1.539335102E-1,7.467607409E-2,-7.169819623E-2
2.747961000E-1,-1.542389393E-1,8.414421231E-2,-8.544225991E-2
2.949055270E-1,-1.317902952E-1,1.027750522E-1,-8.009734750E-2
3.150149540E-1,-8.948912472E-2,1.186570823E-1,-5.260922015E-2
3.351243810E-1,-3.878879920E-2,8.597674966E-2,-1.962346770E-2
3.552337560E-1,-4.428642802E-3,5.787777901E-2,5.573981442E-3
3.753431830E-1,1.511846948E-2,8.918370306E-2,3.458922729E-2
3.954526110E-1,2.565558441E-2,1.324011385E-1,5.047125369E-2
4.155620380E-1,2.489202656E-2,1.734806150E-1,3.687990457E-2
4.356714650E-1,2.397575416E-2,1.911951900E-1,3.428380191E-2
4.557808400E-1,2.596100792E-2,1.317902952E-1,5.108210072E-2
4.758902670E-1,2.076880634E-2,-7.635590620E-3,6.497887522E-2
4.959996940E-1,2.901524492E-2,-9.116895497E-2,8.101361990E-2
5.161091210E-1,5.604523420E-2,-1.130067464E-2,7.627955079E-2
5.362184960E-1,6.658235192E-2,1.363716573E-1,3.596363217E-2
5.563279230E-1,2.351761982E-2,1.980672181E-1,-1.641651988E-2
5.764373500E-1,-5.451811850E-2,1.203369126E-1,-5.764871091E-2
5.965467770E-1,-1.082726792E-1,3.206948051E-3,-7.154548168E-2
6.166562040E-1,-9.666658193E-2,-3.939964995E-2,-6.620056927E-2
6.367655790E-1,-4.520269856E-2,2.351761982E-2,-4.588989913E-2
6.568750060E-1,-1.527118124E-2,8.903098851E-2,-1.947075687E-2
6.769844330E-1,-2.046338283E-2,9.483403713E-2,4.504998680E-3
6.970938610E-1,-3.771981969E-2,3.741439432E-2,4.352286924E-3
7.172032360E-1,-2.107422985E-2,1.817270555E-2,6.184828468E-3
7.373126630E-1,2.932066843E-2,4.566083103E-2,2.359397523E-2
7.574220900E-1,6.734590977E-2,8.353336155E-2,4.680617154E-2
7.775315170E-1,6.765133142E-2,6.795676053E-2,6.436803192E-2
7.976408920E-1,5.696150661E-2,2.870982140E-2,7.902836055E-2
8.177503190E-1,6.917845458E-2,1.374406274E-3,9.063446522E-2
8.378597460E-1,8.521319181E-2,-3.008422814E-2,7.307260484E-2
8.579691730E-1,7.879929990E-2,-5.711421743E-2,3.886515647E-2
8.780785480E-1,4.596625641E-2,-3.833066672E-2,1.443126611E-2
8.981879750E-1,1.389677543E-2,5.497625098E-3,3.283303929E-3
9.182974020E-1,7.635590737E-4,2.550287358E-2,-2.214321401E-3
9.384067770E-1,1.221694518E-2,2.519745007E-2,6.872031372E-4
9.585162040E-1,2.000524849E-2,3.405473381E-2,-5.726693198E-3
9.786256310E-1,6.566607859E-3,2.336490713E-2,-9.849912487E-3
9.987350580E-1,-2.214321308E-2,-2.443389036E-3,-5.879404955E-3
1.018844433E0,-4.535540938E-2,2.168507688E-2,-6.872031372E-4
1.038953861E0,-4.275930673E-2,5.986303091E-2,9.391776286E-3
1.059063288E0,-3.130592033E-2,5.635065958E-2,1.748550311E-2
1.079172663E0,-1.634016447E-2,3.863608837E-2,2.359397523E-2
1.099282090E0,4.581354558E-3,2.809897438E-2,2.557922900E-2
1.119391517E0,2.214321308E-2,2.458660305E-2,2.252499200E-2
1.139500944E0,2.015795931E-2,3.542914242E-2,1.656923257E-2
1.159610319E0,-1.389677543E-2,4.123219103E-2,8.170082234E-3
1.179719746E0,-4.566083103E-2,2.107422985E-2,2.237228118E-2
1.199829173E0,-5.528167635E-2,-1.679829881E-2,3.565821052E-2
1.219938548E0,-2.702999115E-2,-1.969982497E-2,4.604261369E-2
1.240047975E0,1.267508045E-2,-9.315420873E-3,5.169294775E-2
1.260157402E0,3.130592033E-2,-1.924168877E-2,4.726430774E-2
1.280266777E0,1.786728203E-2,-3.909422457E-2,3.932329267E-2
1.300376204E0,-1.481304597E-2,-5.008947477E-2,3.810159862E-2
1.320485631E0,-4.321744293E-2,-4.001049697E-2,4.268295318E-2
1.340595006E0,-6.077930331E-2,-4.367557913E-2,4.085041210E-2
1.360704433E0,-4.993676394E-2,-4.184303805E-2,3.794888780E-2
1.380813861E0,-2.596100792E-2,-4.337015375E-2,2.160872146E-2
1.400923236E0,-7.788302377E-3,-5.512896553E-2,2.061609412E-3
1.421032663E0,-1.160609815E-2,-6.047387794E-2,-7.406522986E-3
1.441142090E0,-2.626643144E-2,-4.138490185E-2,-5.573981442E-3
1.461251465E0,-5.772506446E-2,-5.421269313E-2,-2.099787444E-2
1.481360892E0,-7.253811508E-2,-7.253811508E-2,-3.382566571E-2
1.501470267E0,-5.283828825E-2,-4.245388508E-2,-3.306210786E-2
1.521579694E0,-1.863084175E-2,1.756185852E-2,-2.191414498E-2
1.541689121E0,-1.466033421E-2,5.085303262E-2,-2.802261710E-2
1.561798496E0,-5.864133686E-2,2.947338112E-2,-5.322006717E-2
1.581907923E0,-1.204896197E-1,-4.443913698E-2,-5.047125369E-2
1.602017350E0,-1.404948682E-1,-6.368082762E-2,-3.184041381E-2
1.622126725E0,-1.168245375E-1,-2.779355086E-2,-2.909160033E-2
1.642236152E0,-7.238540053E-2,7.635590737E-4,-1.626380906E-2
1.662345579E0,-3.145863488E-2,1.404948719E-2,-1.198787708E-2
1.682454954E0,-7.482878864E-3,-2.443389036E-3,-2.481566928E-2
1.702564381E0,-1.374406274E-3,-2.748812735E-2,-4.558447748E-2
1.722673756E0,-1.313321572E-2,-4.016320780E-2,-6.238277629E-2
1.742783183E0,-2.962609194E-2,-2.122694254E-2,-6.116108224E-2
1.762892611E0,-4.306473210E-2,4.581354558E-3,-5.749600008E-2
1.783001986E0,-3.542914242E-2,1.206423342E-2,-4.314108938E-2
1.803111413E0,-1.389677543E-2,2.840439789E-2,-1.519482583E-2
1.823220788E0,-9.620844387E-3,5.604523420E-2,1.824906096E-2
1.843330215E0,-4.184303805E-2,2.336490713E-2,7.078192383E-2
1.863439642E0,-8.368607610E-2,-3.619270027E-2,1.083490327E-1
1.883549017E0,-8.444963396E-2,-3.481829539E-2,1.008661538E-1
1.903658444E0,-3.145863488E-2,3.191677108E-2,4.543176666E-2
1.923767819E0,1.313321572E-2,4.932591692E-2,-2.496838197E-2
1.943877246E0,2.473931387E-2,1.985253533E-3,-5.459447205E-2
1.963986673E0,2.840439789E-2,-1.206423342E-2,-4.650074616E-2
1.984096048E0,4.077405483E-2,1.649287529E-2,-2.863346599E-2
2.004205475E0,4.199574888E-2,2.153236605E-2,-2.038702741E-2
2.024314850E0,2.855710872E-2,3.054236248E-2,-1.718007959E-2
2.044424277E0,9.315420873E-3,5.238015205E-2,-1.916533336E-2
2.064533652E0,-8.093725890E-3,4.031591862E-2,-2.023431472E-2
2.084643079E0,-2.290677279E-2,-1.954711229E-2,-3.581092134E-2
2.104752454E0,-1.007897966E-2,-7.498150319E-2,-3.932329267E-2
2.124861881E0,2.214321308E-2,-5.314370990E-2,-3.000787087E-2
2.144971308E0,3.206948191E-2,-7.482878864E-3,-7.406522986E-3
2.165080683E0,1.679830020E-3,-3.145863488E-2,1.290414855E-2
2.185190111E0,-2.244863659E-2,-6.398624927E-2,3.199312463E-2
2.205299486E0,-2.672456764E-2,-5.283828825E-2,4.573718831E-2
2.225408913E0,-3.573456407E-2,-3.038965166E-2,4.512634128E-2
2.245518288E0,-5.894676223E-2,-1.175880991E-2,3.443651274E-2
2.265627715E0,-8.353336155E-2,-1.145338640E-2,2.634278871E-2
2.285737090E0,-8.460234851E-2,-1.924168877E-2,3.428380191E-2
2.305846517E0,-6.429167092E-2,-2.916795574E-2,4.772244394E-2
2.325955892E0,-2.764083818E-2,-2.580829710E-2,5.871769413E-2
2.346065319E0,1.053711493E-2,-6.413896102E-3,6.436803192E-2
2.366174746E0,2.535016090E-2,-1.466033421E-2,5.551074445E-2
2.386284121E0,1.710372418E-2,-2.107422985E-2,4.100312293E-2
2.406393496E0,8.704573847E-3,-1.221694518E-3,1.748550311E-2
2.426502923E0,3.359660041E-3,1.664558798E-2,-5.726693198E-3
2.446612350E0,2.748812549E-3,3.222219273E-2,-9.239064530E-3
2.466721725E0,7.024743594E-3,3.970507160E-2,-1.320957206E-2
2.486831152E0,5.192201585E-3,2.290677279E-3,-3.031329438E-2
2.506940527E0,-2.443389036E-3,-4.871506989E-2,-4.909684882E-2
2.527049954E0,-1.068982668E-2,-2.977880463E-2,-6.116108224E-2
2.547159329E0,-1.328592747E-2,2.214321308E-2,-5.795413256E-2
2.567268704E0,-2.916795574E-2,3.573456407E-2,-5.581616983E-2
2.587378131E0,-4.917320609E-2,9.773556143E-3,-4.100312293E-2
2.607487558E0,-4.810422286E-2,2.443389036E-3,-1.748550311E-2
2.627596933E0,-3.374931216E-2,2.092151903E-2,-1.824906096E-2
2.647706308E0,-1.145338640E-2,6.780404598E-2,-1.840177365E-2
2.667815736E0,7.635590737E-4,8.887827396E-2,-1.504211407E-2
2.687925111E0,-1.435491070E-2,5.711421743E-2,-1.214058883E-2
2.708034538E0,-3.161134571E-2,4.963133857E-2,-8.170082234E-3
2.728143913E0,-3.710897267E-2,7.223268598E-2,3.588727675E-3
2.748253340E0,-3.206948191E-2,6.215370819E-2,2.542651631E-2
2.768362715E0,-2.351761982E-2,3.420744836E-2,4.222481698E-2
2.788472142E0,-1.908897609E-2,7.406523079E-2,5.001311749E-2
2.808581517E0,-3.038965166E-2,7.223268598E-2,6.436803192E-2
2.828690944E0,-5.131116882E-2,9.208522737E-2,6.299362332E-2
2.848800319E0,-8.780929446E-2,1.015533581E-1,4.986040667E-2
2.868909746E0,-1.145338640E-1,1.012479365E-1,2.924431302E-2
2.889019121E0,-1.276670843E-1,1.149920002E-1,6.872031372E-4
2.909128496E0,-1.065928489E-1,1.269035190E-1,-9.926267667E-4
2.929237923E0,-5.619794875E-2,1.270562261E-1,2.451024577E-2
2.949347298E0,-1.374406368E-2,1.171299592E-1,6.299362332E-2
2.969456725E0,-3.359660041E-3,1.029277667E-1,8.758022636E-2
2.989566100E0,-1.267508045E-2,7.666133344E-2,8.299887180E-2
3.009675527E0,-1.527118124E-2,3.344388679E-2,7.108735293E-2
3.029784902E0,-8.399149403E-3,-7.482878864E-3,6.788039953E-2
3.049894277E0,1.191152167E-2,-1.068982761E-3,7.887565345E-2
3.070003704E0,3.710897267E-2,1.969982497E-2,9.720107168E-2
3.090113079E0,6.505523622E-2,1.328592747E-2,1.130831018E-1
3.110222506E0,1.087308154E-1,1.068982761E-3,1.320193708E-1
3.130331881E0,1.427855492E-1,2.199050039E-2,1.370588541E-1
3.150441308E0,1.469087601E-1,4.367557913E-2,1.280488521E-1
3.170550683E0,1.301104724E-1,3.939964995E-2,8.849649876E-2
3.190660111E0,1.073564067E-1,4.443913698E-2,3.596363217E-2
3.210769486E0,9.743013978E-2,7.085828483E-2,9.391776286E-3
3.230878861E0,8.765657991E-2,9.804098308E-2,-1.298050396E-3
3.250988288E0,5.421269313E-2,8.276980370E-2,-4.810422193E-3
3.271097663E0,2.489202656E-2,5.176930502E-2,2.214321401E-3
3.291207090E0,2.535016090E-2,5.039490014E-2,-7.559234742E-3
3.311316465E0,4.978405312E-2,7.101099193E-2,-2.023431472E-2
3.331425840E0,7.299624383E-2,7.559234649E-2,-1.488940232E-2
3.351535267E0,6.887302548E-2,7.253811508E-2,-2.367033157E-3
3.371644642E0,2.962609194E-2,6.551336497E-2,7.253811229E-3
3.391754069E0,-2.061609551E-2,4.214845970E-2,9.086352773E-3
3.411863444E0,-4.321744293E-2,5.955760926E-2,-4.810422193E-3
3.431972819E0,-4.825693369E-2,8.002099395E-2,-3.290939704E-2
3.452082246E0,-2.855710872E-2,1.053711548E-1,-2.695363574E-2
3.472191621E0,-9.620844387E-3,1.101052165E-1,-1.382041909E-2
3.492300996E0,-1.435491070E-2,5.100574717E-2,-1.908897655E-3
3.512410423E0,-2.641914412E-2,1.985253533E-3,8.322793990E-3
3.532519798E0,-9.926267900E-3,7.070557028E-2,1.168245357E-2
3.552629225E0,3.665083647E-2,1.220167428E-1,1.336228382E-2
3.572738600E0,5.467082933E-2,1.088835225E-1,-3.283303929E-3
3.592847975E0,1.908897609E-2,5.039490014E-2,2.825168660E-3
3.612957402E0,-4.734066129E-2,2.611372061E-2,3.436015919E-3
3.633066777E0,-1.059819981E-1,4.016320780E-2,-1.885990985E-2
3.653176152E0,-1.328592747E-1,9.468132257E-2,-2.954973653E-2
3.673285579E0,-1.201841980E-1,1.853921413E-1,4.810422193E-3
3.693394954E0,-2.580829710E-2,2.437280566E-1,1.385859698E-1
3.713504329E0,1.097997949E-1,2.761029601E-1,3.241308331E-1
3.733613756E0,9.513945878E-2,8.124268800E-2,3.836884201E-1
3.753723131E0,-1.282779276E-1,-3.811686933E-1,2.108186632E-1
3.773832506E0,-3.903313875E-1,-6.841489077E-1,-1.120141149E-1
3.793941933E0,-4.025483429E-1,-4.518742561E-1,-2.723615170E-1
3.814051308E0,-2.321219631E-2,1.823379099E-1,-1.558424085E-1
3.834160736E0,4.799732268E-1,6.725428104E-1,7.322531193E-2
3.854270111E0,7.537854910E-1,6.493306160E-1,2.422772944E-1
3.874379486E0,7.143858671E-1,2.516690791E-1,2.946574390E-1
3.894488861E0,4.926483035E-1,-1.887518018E-1,1.908134073E-1
3.914598288E0,2.348707765E-1,-4.217900336E-1,5.344913807E-4
3.934707663E0,4.245388508E-2,-3.574983478E-1,-9.857547283E-2
3.954817090E0,-6.169557199E-2,-1.207950488E-1,-6.177192926E-2
3.974926465E0,-7.528692484E-2,3.237490356E-2,4.543176666E-2
3.995035840E0,-3.145863488E-2,7.574506104E-2,1.282015741E-1
4.015145215E0,3.436015919E-2,9.941539168E-2,1.509556323E-1
4.035254642E0,8.307522535E-2,1.795890927E-1,1.387386769E-1
4.055364017E0,8.536590636E-2,2.440334857E-1,1.366007179E-1
4.075473392E0,5.222744122E-2,2.334963679E-1,1.500393599E-1
4.095582819E0,1.007897966E-2,1.385096163E-1,1.686701924E-1
4.115692194E0,-1.053711493E-2,5.192201585E-3,1.877591759E-1
4.135801569E0,-3.176405653E-2,-7.635590434E-2,1.871483326E-1
4.155910996E0,-9.193251282E-2,-1.611109674E-1,1.621035933E-1
4.176020371E0,-1.653869003E-1,-1.675248593E-1,1.277434379E-1
4.196129746E0,-2.075353563E-1,-8.750387281E-2,1.026986986E-1
4.216239173E0,-1.820324808E-1,2.504473738E-2,1.042258143E-1
4.236348548E0,-1.296523362E-1,5.589252338E-2,1.074327603E-1
4.256457923E0,-1.038440317E-1,-1.527118147E-4,9.949174523E-2
4.276567298E0,-1.116323397E-1,-6.505523622E-2,5.764871091E-2
4.296676725E0,-1.351499557E-1,-1.142284349E-1,-1.450762269E-3
4.316786100E0,-1.319430023E-1,-1.510319859E-1,-1.855448633E-2
4.336895475E0,-7.055285573E-2,-1.435490996E-1,1.336228382E-2
4.357004902E0,2.137965523E-3,-1.427855492E-1,2.420482226E-2
4.377114277E0,3.665083647E-2,-1.682884246E-1,-1.756185899E-3
4.397223652E0,3.573456407E-2,-2.408265322E-1,-4.176668078E-2
4.417333027E0,3.970507160E-2,-3.426853120E-1,-8.131904155E-2
4.437442454E0,1.175880954E-1,-4.046863019E-1,-1.056002229E-1
4.457551829E0,2.533488870E-1,-4.249969721E-1,-1.248419061E-1
4.477661204E0,3.613161445E-1,-3.562766612E-1,-1.188861504E-1
4.497770579E0,3.726168275E-1,-2.141019702E-1,-4.634803534E-2
4.517880006E0,1.650814712E-1,-3.894151151E-1,-8.475505747E-3
4.537989381E0,-3.118375242E-1,-6.490252018E-1,-1.338519007E-1
4.558098756E0,-8.677848577E-1,-7.098045349E-1,-3.592545390E-1
4.578208183E0,-1.193519235E0,-4.911212027E-1,-5.893912315E-1
4.598317558E0,-1.040807366E0,1.136175916E-1,-7.129350901E-1
4.618426933E0,-4.891359508E-1,8.331956863E-1,-5.402180552E-1
4.638536308E0,1.476723254E-1,1.061957955E0,-1.633252800E-1
4.658645736E0,6.116108298E-1,7.137750387E-1,1.398076713E-1
4.678755111E0,8.209787011E-1,1.443126649E-1,2.404447496E-1
4.698864486E0,7.647807598E-1,-2.890834510E-1,8.086090535E-2
4.718973861E0,5.105155706E-1,-4.346178174E-1,-1.595074832E-1
4.739083288E0,2.188360244E-1,-2.521272004E-1,-2.480803430E-1
4.759192663E0,-2.458660305E-2,6.856760383E-2,-2.503710091E-1
4.779302038E0,-1.797417998E-1,2.342599183E-1,-2.267006934E-1
4.799411413E0,-2.014268786E-1,2.267770469E-1,-1.605764776E-1
4.819520840E0,-8.506047726E-2,1.490467340E-1,-7.521057129E-2
4.839630215E0,9.315420687E-2,9.376505762E-2,-1.962346770E-2
4.859739590E0,2.168507725E-1,7.589777559E-2,1.473669056E-2
4.879848965E0,2.012741715E-1,6.642963737E-2,3.504735976E-2
4.899958392E0,6.200099736E-2,5.864133686E-2,2.588465251E-2
4.920067767E0,-1.139230132E-1,3.191677108E-2,-3.588727675E-3
4.940177142E0,-2.112004459E-1,3.680354729E-2,-2.359397523E-2
4.960286517E0,-2.215848416E-1,7.101099193E-2,-3.458922729E-2
4.980395892E0,-1.806580722E-1,1.247655526E-1,-2.344126441E-2
5.000505319E0,-1.238492802E-1,1.805053651E-1,7.711946499E-3
5.020614694E0,-7.238540053E-2,2.501419485E-1,5.764871091E-2
5.040724069E0,-4.581354558E-2,2.773246467E-1,9.903360903E-2
5.060833444E0,-6.459710002E-2,2.220429778E-1,9.872818738E-2
5.080942871E0,-9.834641218E-2,1.519482583E-1,7.780666649E-2
5.101052246E0,-1.175880954E-1,7.421794534E-2,4.863871261E-2
5.121161621E0,-1.336228400E-1,-1.649287529E-2,2.420482226E-2
5.141270996E0,-1.400367320E-1,-6.184828654E-2,2.802261710E-2
5.161380371E0,-1.259872466E-1,-2.794626169E-2,3.947600350E-2
5.181489798E0,-1.043021679E-1,6.704048812E-2,3.626905754E-2
5.201599173E0,-9.910997003E-2,1.577513069E-1,8.475505747E-3
5.221708548E0,-1.165191159E-1,2.125748396E-1,-1.779092662E-2
5.241817923E0,-1.279724985E-1,2.454078794E-1,3.817795368E-4
5.261927298E0,-1.075091213E-1,3.258870244E-1,9.032903612E-2
5.282036725E0,-9.681928903E-2,2.776300907E-1,2.267006934E-1
5.302146100E0,-1.679829955E-1,4.993676394E-2,2.914505005E-1
5.322255475E0,-3.087832928E-1,-1.041494608E-1,2.399866134E-1
5.342364850E0,-4.718795121E-1,-3.523061574E-1,1.120141149E-1
5.362474225E0,-5.442649126E-1,-4.844018817E-1,-1.763821393E-2
5.382583652E0,-3.704788685E-1,-7.452336699E-2,-4.191939160E-2
5.402693027E0,9.468132630E-3,5.822901726E-1,1.233147904E-1
5.422802402E0,3.280249834E-1,7.788302302E-1,3.606289625E-1
5.442911777E0,4.410317242E-1,4.384356141E-1,5.632775426E-1
5.463021152E0,3.571929336E-1,-1.908897758E-1,6.283327341E-1
5.483130527E0,2.050919682E-1,-6.873558760E-1,5.009710789E-1
5.503239954E0,1.265980899E-1,-7.285880446E-1,3.250471056E-1
5.523349329E0,8.490777016E-2,-4.825693369E-1,1.569113880E-1
5.543458704E0,5.665608495E-2,-1.261399537E-1,9.155073017E-2
5.563568079E0,6.963659078E-2,2.137965411E-1,1.972273141E-1
5.583677454E0,1.198787764E-1,3.568875194E-1,3.765109777E-1
5.603786881E0,1.685938388E-1,2.750339806E-1,4.817294180E-1
5.623896256E0,1.733279079E-1,1.119377613E-1,4.427879155E-1
5.644005631E0,1.108687744E-1,-2.046338283E-2,2.537306845E-1
5.664115006E0,1.695101149E-2,-5.528167635E-2,4.191939160E-2
5.684224381E0,-7.681404054E-2,-2.733541466E-2,-6.849125028E-2
5.704333808E0,-1.278197914E-1,3.665083647E-2,-4.390464723E-2
5.724443183E0,-1.348445266E-1,7.757759839E-2,2.832804248E-2
5.744552558E0,-9.040539712E-2,7.605048269E-2,1.054475084E-1
5.764661933E0,-5.497625098E-3,5.512896553E-2,1.333937645E-1
5.784771308E0,5.283828825E-2,1.038440317E-2,7.963921130E-2
5.804880683E0,3.222219273E-2,-4.398100078E-2,5.573981442E-3
5.824990058E0,-2.076880634E-2,-8.063183725E-2,-1.626380906E-2
5.845099486E0,-3.023693897E-2,-7.146912813E-2,-2.290677221E-4
5.865208861E0,-1.068982761E-3,-4.886778072E-3,5.268557463E-3
5.885318236E0,-1.114796288E-2,-2.870982140E-2,-1.137703005E-2
5.905427611E0,-7.009471953E-2,-1.627907902E-1,-5.123481527E-2
5.925536986E0,-1.113269106E-1,-2.935121059E-1,-1.036149636E-1
5.945646361E0,-6.215370819E-2,-3.066453338E-1,-1.167481840E-1
5.965755788E0,6.016845629E-2,-2.495311052E-1,-9.536852688E-2
5.985865163E0,1.356080920E-1,-1.705790907E-1,-7.704310864E-2
6.005974538E0,8.261708915E-2,-1.485885978E-1,-1.259872504E-2
6.026083913E0,-8.567132801E-2,-3.402419090E-1,8.498412371E-2
6.046193288E0,-4.051444530E-1,-6.423059106E-1,3.901786730E-2
6.066302663E0,-7.740198374E-1,-7.682167888E-1,-1.402658075E-1
6.086412038E0,-9.062682390E-1,-6.074876189E-1,-3.578801453E-1
6.106521413E0,-6.342121959E-1,-1.817270555E-2,-5.244887471E-1
6.126630840E0,-1.635543555E-1,7.611156702E-1,-4.974587262E-1
6.146740215E0,2.171562016E-1,9.840749502E-1,-2.364742458E-1
6.166849590E0,5.117372870E-1,6.132906675E-1,1.100288630E-1
6.186958965E0,8.234221339E-1,1.047603041E-1,3.494809866E-1
6.207068340E0,1.030346632E0,-2.458660156E-1,3.285594583E-1
6.227177715E0,9.408574700E-1,-4.146125913E-1,8.116632700E-2
6.247287090E0,5.109737515E-1,-2.831276953E-1,-2.512872815E-1
6.267396517E0,-6.688777357E-2,4.275931045E-3,-5.174639821E-1
6.287505892E0,-4.859289825E-1,2.296785712E-1,-5.848098993E-1
6.307615267E0,-5.955760479E-1,3.571929336E-1,-4.623350203E-1
6.327724642E0,-4.185830951E-1,3.788780272E-1,-2.276169658E-1
6.347834017E0,-7.635590434E-2,3.057290614E-1,-2.451024577E-2
6.367943392E0,2.292204350E-1,1.226275861E-1,2.893888950E-2
6.388052767E0,3.484883606E-1,-5.176930502E-2,-5.444176123E-2
6.408162194E0,2.513636351E-1,-1.354553849E-1,-1.833305359E-1
6.428271569E0,3.909422457E-2,-8.796200156E-2,-2.454842478E-1
6.448380944E0,-1.354553849E-1,4.550812021E-2,-2.167744190E-1
6.468490319E0,-1.869192570E-1,1.206423342E-1,-1.317139417E-1
6.488599694E0,-1.256818175E-1,1.084253863E-1,-4.863871261E-2
6.508709069E0,-2.382304333E-2,1.110214889E-1,-2.206685767E-2
6.528818444E0,4.016320780E-2,1.320957243E-1,-3.306210786E-2
6.548927819E0,4.993676394E-2,1.560714692E-1,-4.375193641E-2
6.569037194E0,3.665083554E-3,1.575985998E-1,-5.322006717E-2
6.589146621E0,-5.833591148E-2,1.200314835E-1,-3.275668249E-2
6.609255996E0,-9.880454093E-2,1.969982497E-2,5.268557463E-3
6.629365371E0,-8.093725890E-2,-4.459185153E-2,3.779617324E-2
6.649474746E0,-7.330167107E-3,2.473931387E-2,5.978667364E-2
6.669584121E0,4.902049154E-2,1.378987730E-1,6.650599837E-2
6.689693496E0,3.955236077E-2,1.438545287E-1,6.604786217E-2
6.709802871E0,-4.123218823E-3,1.137702987E-1,7.047650218E-2
6.729912246E0,-3.787253052E-2,9.956810623E-2,1.187334359E-1
6.750021621E0,-6.597150117E-2,1.267508045E-2,1.865374744E-1
6.770130996E0,-1.664558798E-1,-1.577513069E-1,2.140256017E-1
6.790240371E0,-4.083513916E-1,-6.548282504E-1,1.220930964E-1
6.810349798E0,-5.671716928E-1,-9.881218076E-1,-6.894938648E-2
6.830459173E0,-3.620797098E-1,-5.789304972E-1,-2.144837379E-1
6.850568548E0,1.582094431E-1,3.268032968E-1,-1.501920670E-1
6.870677923E0,6.013791561E-1,7.601994276E-1,6.345175952E-2
6.890787298E0,7.310314775E-1,5.047125220E-1,2.674747407E-1
6.910896673E0,5.957288146E-1,2.305948362E-2,3.294757307E-1
6.931006048E0,3.752129376E-1,-2.901524603E-1,2.201340795E-1
6.951115423E0,2.796153426E-1,-2.709107697E-1,1.413347870E-1
6.971224798E0,2.831276953E-1,-1.056765765E-1,1.271325797E-1
6.991334173E0,2.269297540E-1,-3.863608837E-2,1.472905427E-1
7.011443600E0,9.681928903E-2,-5.665608495E-2,2.007396817E-1
7.031552975E0,2.672456764E-2,2.092151903E-2,2.294494957E-1
7.051662350E0,4.428642616E-2,1.000262350E-1,1.883700192E-1
7.071771725E0,6.047387794E-2,8.231166750E-2,1.411820799E-1
7.091881100E0,1.817270555E-2,7.024743594E-3,1.366007179E-1
7.111990475E0,-5.543438718E-2,-4.856235534E-2,1.375169903E-1
7.132099850E0,-1.088835225E-1,-4.413371533E-2,1.136939451E-1
7.152209225E0,-1.178935245E-1,-1.756185852E-2,9.613208473E-2
7.172318600E0,-1.111742035E-1,-1.939439960E-2,6.589514762E-2
7.192427975E0,-1.123958975E-1,-3.710897267E-2,3.611634299E-2
7.212537350E0,-1.123958975E-1,-2.428117767E-2,1.656923257E-2
7.232646725E0,-1.243074164E-1,4.123218823E-3,-2.649549954E-2
7.252756100E0,-1.378987730E-1,2.565558441E-2,-7.001836598E-2
7.272865527E0,-1.181989461E-1,3.252761811E-2,-8.437328041E-2
7.292974902E0,-5.864133686E-2,1.191152167E-2,-7.536327839E-2
7.313084277E0,2.107422985E-2,-3.298575059E-2,-5.138752609E-2
7.333193652E0,9.651386738E-2,-7.192726433E-2,-4.222481698E-2
7.353303027E0,1.211004704E-1,-1.067455560E-1,-9.323056042E-2
7.373412402E0,6.933116168E-2,-1.733279079E-1,-1.882173121E-1
7.393521777E0,-5.283828825E-2,-3.084778786E-1,-2.957264185E-1
7.413631152E0,-1.708845198E-1,-3.730749488E-1,-3.563530147E-1
7.433740527E0,-2.455606014E-1,-2.938175201E-1,-3.106921911E-1
7.453849902E0,-3.278722763E-1,-1.728697717E-1,-1.908134073E-1
7.473959277E0,-4.993676245E-1,-1.786728203E-1,-1.220930964E-1
7.494068652E0,-7.527928948E-1,-3.851391971E-1,-1.509556323E-1
7.514178027E0,-8.960365653E-1,-4.778352678E-1,-1.775274873E-1
7.534287402E0,-7.790593505E-1,-3.741439581E-1,-2.253262848E-1
7.554396829E0,-5.431959033E-1,-1.131594554E-1,-3.166479468E-1
7.574506204E0,-3.871244490E-1,2.011214644E-1,-3.329881132E-1
7.594615579E0,-2.174616307E-1,4.752391577E-1,-1.567586809E-1
7.614724954E0,1.330119967E-1,6.039752364E-1,1.091125906E-1
7.634834329E0,6.503996253E-1,5.050179958E-1,3.203130364E-1
7.654943704E0,1.084712029E0,5.803048983E-2,4.159106314E-1
7.675053079E0,1.199704051E0,-5.074613690E-1,3.294757307E-1
7.695162454E0,9.234483242E-1,-7.929561138E-1,4.130854458E-2
7.715271829E0,4.147652984E-1,-6.507050395E-1,-2.795389891E-1
7.735381204E0,-8.292251825E-2,-2.157817930E-1,-5.119663477E-1
7.755490579E0,-3.901786804E-1,2.614426315E-1,-5.845044851E-1
7.775599954E0,-4.228590131E-1,5.793886185E-1,-4.240043461E-1
7.795709329E0,-2.148655206E-1,6.427640319E-1,-1.395022422E-1
7.815818704E0,1.107160673E-1,5.128062963E-1,7.261446863E-2
7.835928079E0,3.869717419E-1,3.075616062E-1,1.057529300E-1
7.856037454E0,4.992149174E-1,9.697200358E-2,2.061609412E-3
7.876146829E0,3.914003670E-1,-2.428117767E-2,-1.656159610E-1
7.896256204E0,1.455343664E-1,-1.832541777E-3,-2.441098392E-1
7.916365579E0,-8.246438205E-2,8.490777016E-2,-2.227301747E-1
7.936474954E0,-1.890572309E-1,1.824906170E-1,-1.978381574E-1
7.956584329E0,-1.632489264E-1,2.635805905E-1,-1.747786701E-1
7.976693704E0,-6.795676053E-2,2.866400778E-1,-1.547734290E-1
7.996803131E0,2.076880634E-2,2.496838123E-1,-1.517191827E-1
8.016912454E0,7.085828483E-2,1.866138428E-1,-1.420983374E-1
8.037021881E0,6.902574003E-2,1.461452097E-1,-1.340046227E-1
8.057131256E0,4.550812021E-2,1.406475753E-1,-1.065164879E-1
8.077240631E0,-8.704573847E-3,1.189625040E-1,-7.719582319E-2
8.097350006E0,-8.261708915E-2,7.711946964E-2,-6.452073902E-2
8.117459381E0,-1.070509851E-1,2.168507688E-2,-5.642701685E-2
8.137568756E0,-7.834116369E-2,-6.261184346E-3,-3.871244565E-2
8.157678131E0,-3.298575059E-2,6.566607952E-2,-1.298050396E-3
8.177787506E0,-2.916795574E-2,1.603474021E-1,6.452073902E-2
8.197896881E0,-1.214058921E-1,2.941229641E-1,2.056264579E-1
8.218006256E0,-3.872771561E-1,2.246390730E-1,3.839938641E-1
8.238115631E0,-7.882220149E-1,-1.635543555E-1,3.737621605E-1
8.258225006E0,-1.084941030E0,-6.742226481E-1,1.756949425E-1
8.278334381E0,-9.577321410E-1,-7.691330314E-1,-2.367033157E-3
8.298443756E0,-3.403946459E-1,-2.551814318E-1,-6.009209901E-2
8.318553131E0,5.070032477E-1,4.224008918E-1,1.346154660E-1
8.338662506E0,1.192679286E0,7.298097610E-1,5.101338029E-1
8.358771881E0,1.436560035E0,5.639647245E-1,7.686749101E-1
8.378881256E0,1.174353838E0,6.322269142E-2,7.298861146E-1
8.398990631E0,6.427640319E-1,-3.677300513E-1,4.722612798E-1
8.419100006E0,1.684411317E-1,-5.792359114E-1,1.712663025E-1
8.439209381E0,-4.352286831E-2,-4.798205197E-1,-3.718532622E-2
8.459318756E0,-6.062658876E-2,-1.904316396E-1,-1.482068151E-1
8.479428131E0,4.734066315E-3,1.191152185E-1,-1.104869992E-1
8.499537506E0,8.857285231E-2,2.545706034E-1,7.200361788E-2
8.519646881E0,1.841704547E-1,2.183778882E-1,2.489966154E-1
8.539756256E0,2.803788781E-1,1.551551968E-1,2.971008420E-1
8.559865631E0,3.361186981E-1,1.107160673E-1,2.544942498E-1
8.579975006E0,2.635805905E-1,1.542389300E-2,1.419456303E-1
8.600084381E0,9.513945878E-2,-1.142284349E-1,5.077667907E-2
8.620193756E0,-5.619794875E-2,-1.574458778E-1,1.229330152E-2
8.640303131E0,-9.422318637E-2,-8.200624585E-2,1.916533336E-2
8.660412506E0,-3.924693540E-2,-7.330167107E-3,4.451549426E-2
8.680521881E0,2.901524538E-3,-4.260659590E-2,5.276193097E-2
8.700631256E0,-2.382304333E-2,-1.530172378E-1,2.588465251E-2
8.720740631E0,-7.223268598E-2,-2.866400778E-1,-1.534753758E-2
8.740850006E0,-6.673506647E-2,-3.593308926E-1,-3.352024406E-2
8.760959381E0,-1.527118147E-3,-3.196258247E-1,-3.581092134E-2
8.781068756E0,5.818320066E-2,-2.075353563E-1,-2.924431302E-2
8.801178131E0,2.137965336E-2,-1.449235082E-1,-3.741439432E-3
8.821287506E0,-1.299577504E-1,-2.270824611E-1,2.588465251E-2
8.841396881E0,-2.936648130E-1,-4.011739492E-1,1.030804776E-2
8.861506256E0,-3.275668323E-1,-4.593571424E-1,-3.718532622E-2
8.881615631E0,-2.134911120E-1,-3.678827584E-1,-7.490514219E-2
8.901725006E0,-8.414421231E-2,-2.432699203E-1,-9.429954737E-2
8.921834381E0,-5.008947477E-2,-1.714953631E-1,-5.398362502E-2
8.941943756E0,-6.872031838E-2,-2.139492482E-1,5.154023692E-2
8.962053131E0,-1.296523362E-1,-4.558447599E-1,6.604786217E-2
8.982162506E0,-2.058555335E-1,-4.347705245E-1,-3.687990457E-2
9.002271881E0,-2.577775419E-1,-1.959292591E-1,-1.355317384E-1
9.022381256E0,-4.442386627E-1,-8.047912270E-2,-3.916294575E-1
9.042490631E0,-6.609367132E-1,2.428117767E-2,-6.495596766E-1
9.062600006E0,-5.714476109E-1,3.642176688E-1,-7.306496501E-1
9.082709381E0,-7.513421029E-2,6.319214702E-1,-5.506024361E-1
9.102818756E0,5.952706337E-1,5.380037427E-1,-2.008923888E-1
9.122928131E0,1.125486016E0,1.186570823E-1,1.158319116E-1
9.143037506E0,1.251473308E0,-3.445178568E-1,1.585912257E-1
9.163146881E0,9.064973593E-1,-5.079194903E-1,-1.636307091E-1
9.183256256E0,2.901524603E-1,-3.692571819E-1,-5.751890540E-1
9.203365631E0,-2.739650011E-1,-3.924693540E-2,-8.181535602E-1
9.223475006E0,-6.088619828E-1,2.475458533E-1,-8.364789486E-1
9.243584381E0,-6.653653979E-1,4.028537571E-1,-6.462000608E-1
9.263693756E0,-4.645493329E-1,4.367557764E-1,-3.386384547E-1
9.283803131E0,-1.090362370E-1,4.410317242E-1,-5.780142173E-2
9.303912506E0,1.969982386E-1,4.023956358E-1,7.169819623E-2
9.324021881E0,2.870981991E-1,2.278460264E-1,9.521581978E-2
9.344131256E0,1.797417998E-1,-5.650337320E-3,1.178171635E-1
9.364240631E0,1.496575773E-2,-1.876828223E-1,1.185807213E-1
9.384350006E0,-9.743013978E-2,-2.307475507E-1,5.520532280E-2
9.404459381E0,-1.180462316E-1,-1.392731816E-1,4.199574701E-3
9.424568756E0,-9.590301663E-2,-2.855710872E-2,-2.573194169E-2
9.444678131E0,-3.451287001E-2,8.689302206E-2,-2.130329795E-2
9.464787506E0,6.474980712E-2,1.693574041E-1,1.320957206E-2
9.484896881E0,1.386623234E-1,2.067717910E-1,3.657447919E-2
9.505006256E0,1.319430023E-1,2.011214644E-1,1.183516532E-2
9.525115631E0,4.275930673E-2,1.554606259E-1,-5.367820337E-2
9.545225006E0,-9.605573118E-2,1.148392856E-1,-1.126249656E-1
9.565334381E0,-1.963873953E-1,1.243074164E-1,-1.260636002E-1
9.585443756E0,-2.015796006E-1,1.287360638E-1,-1.158319116E-1
9.605553131E0,-1.107160673E-1,1.043021679E-1,-7.291989028E-2
9.625662506E0,-4.581354558E-3,4.031591862E-2,-2.359397523E-2
9.645771881E0,2.428117767E-2,-3.909422457E-2,-5.421269219E-3
9.665881256E0,-7.177455351E-3,1.527118147E-4,2.557922900E-2
9.685990631E0,-1.557660475E-2,2.748812735E-1,1.598129123E-1
9.706100006E0,-1.169772521E-1,2.757975459E-1,2.728196681E-1
9.726209381E0,-3.547495604E-1,1.950129867E-1,3.054999709E-1
9.746318756E0,-6.032116413E-1,5.238015205E-2,2.586174607E-1
9.766428131E0,-6.558972597E-1,-1.079672500E-1,1.346154660E-1
9.786537506E0,-3.475720882E-1,2.840439789E-2,2.405211143E-2
9.806646881E0,2.467822880E-1,3.645231128E-1,5.810684711E-2
9.826756256E0,8.365553021E-1,5.140279531E-1,2.906869352E-1
9.846865631E0,1.156181097E0,3.709369898E-1,5.979431272E-1
9.866975006E0,1.134496093E0,1.084253844E-2,8.091435432E-1
9.887084381E0,8.099834919E-1,-3.150444627E-1,7.265264392E-1
9.907193756E0,3.649812341E-1,-3.849864900E-1,4.244624972E-1
9.927303131E0,6.719320081E-3,-1.905843467E-1,1.414874941E-1
9.947412506E0,-1.733279079E-1,8.078455180E-2,2.267770469E-2
9.967521881E0,-2.000524700E-1,2.304421216E-1,9.307785332E-2
9.987631256E0,-1.230857223E-1,2.046338320E-1,2.670166194E-1
1.000774058E1,2.076880634E-2,6.795676053E-2,4.218663871E-1
1.002784995E1,1.895153672E-1,-1.206423342E-2,4.751628041E-1
1.004795933E1,3.025220931E-1,8.551862091E-3,4.047626555E-1
1.006806870E1,2.958027720E-1,4.260659590E-2,2.883962691E-1
1.008817808E1,1.820324808E-1,5.314370990E-2,2.100550979E-1
1.010828745E1,3.833066672E-2,5.008947477E-2,1.843995154E-1
1.012839683E1,-7.085828483E-2,6.810946763E-2,1.854684949E-1
1.014850620E1,-1.038440317E-1,1.067455560E-1,2.005869746E-1
1.016861558E1,-7.421794534E-2,1.437018216E-1,1.924932450E-1
1.018872495E1,-3.527642787E-2,1.258345395E-1,1.847049445E-1
1.020883433E1,-5.619794875E-2,2.687728032E-2,1.686701924E-1
1.022894370E1,-1.543916464E-1,-5.680879578E-2,1.165954694E-1
1.024905308E1,-2.319692522E-1,-1.771457121E-2,6.375718117E-2
1.026916245E1,-2.211267054E-1,9.071081877E-2,4.863871261E-2
1.028927183E1,-1.487413049E-1,1.171299592E-1,9.429954737E-2
1.030938120E1,-8.750387281E-2,9.926267900E-3,1.486649513E-1
1.032949058E1,-6.337540597E-2,-1.553079188E-1,1.582857966E-1
1.034959995E1,-4.886778072E-2,-2.857238054E-1,1.132358089E-1
1.036970933E1,-1.160609815E-2,-3.129065037E-1,3.229855001E-2
1.038981870E1,2.641914412E-2,-2.675510943E-1,-3.382566571E-2
1.040992808E1,-3.665083554E-3,-1.698155403E-1,-7.582141459E-2
1.043003745E1,-1.490467340E-1,-1.966928244E-1,-8.254073560E-2
1.045014683E1,-4.417952895E-1,-4.242334068E-1,-1.454579979E-1
1.047025620E1,-7.899018526E-1,-5.108210444E-1,-2.932830453E-1
1.049036558E1,-9.907178879E-1,-3.413109183E-1,-4.284330010E-1
1.051047495E1,-8.983272314E-1,-1.371352077E-1,-5.434249640E-1
1.053058433E1,-5.077667832E-1,7.971556485E-2,-6.121453047E-1
1.055069365E1,-5.344913341E-3,2.501419485E-1,-6.239041090E-1
1.057080303E1,4.308000207E-1,3.506263196E-1,-5.258631110E-1
1.059091240E1,7.562289238E-1,2.695363462E-1,-3.138991296E-1
1.061102178E1,9.628480077E-1,1.282779220E-2,-1.758476496E-1
1.063113115E1,9.720106721E-1,-3.072561622E-1,-2.222720534E-1
1.065124053E1,7.336275578E-1,-4.440859556E-1,-4.404972196E-1
1.067134990E1,2.547233105E-1,-2.825168669E-1,-7.541673183E-1
1.069145928E1,-2.586938143E-1,8.857285604E-3,-9.985061884E-1
1.071156865E1,-5.523586273E-1,2.929012477E-1,-1.014846325E0
1.073167803E1,-5.378510356E-1,4.387410581E-1,-7.859313488E-1
1.075178740E1,-2.600682080E-1,4.100312293E-1,-4.178958833E-1
1.077189678E1,1.273616552E-1,2.609844804E-1,-1.013242900E-1
1.079200615E1,4.333961308E-1,1.218640283E-1,3.886515647E-2
1.081211553E1,5.201364160E-1,9.009997360E-3,1.427855436E-2
1.083222490E1,3.961344361E-1,-5.741964281E-2,-6.299362332E-2
1.085233428E1,1.328592747E-1,-4.963133857E-2,-1.025459841E-1
1.087244365E1,-1.378987730E-1,-2.275406010E-2,-3.260397166E-2
1.089255303E1,-2.788517773E-1,2.901524538E-3,9.979717433E-2
1.091266240E1,-2.490729690E-1,6.413896102E-3,1.808871478E-1
1.093277178E1,-1.456870735E-1,-2.443389036E-3,1.880646050E-1
1.095288115E1,-7.971556485E-2,-8.857285604E-3,1.697391868E-1
1.097299053E1,-6.826218218E-2,3.283303976E-2,1.498866528E-1
1.099309990E1,-8.093725890E-2,1.009425074E-1,1.298813969E-1
1.101320922E1,-8.047912270E-2,1.493521482E-1,1.347681731E-1
1.103331860E1,-6.215370819E-2,1.273616552E-1,1.639361382E-1
1.105342798E1,-3.038965166E-2,6.383354217E-2,1.851630807E-1
1.107353735E1,2.244863659E-2,4.016320780E-2,1.920351088E-1
1.109364673E1,7.635590434E-2,4.749337584E-2,1.744732410E-1
1.111375610E1,8.353336155E-2,3.542914242E-2,1.231620759E-1
1.113386548E1,2.137965336E-2,-4.688252881E-2,9.139802307E-2
1.115397485E1,-4.062134400E-2,-1.133121699E-1,1.297286898E-1
1.117408423E1,-3.634541109E-2,5.497625098E-3,2.231883109E-1
1.119419360E1,-3.985778242E-2,1.580567211E-1,3.540623486E-1
1.121430298E1,-1.962346882E-1,1.342336833E-1,4.359158874E-1
1.123441235E1,-4.585935771E-1,1.572931707E-1,4.215609729E-1
1.125452172E1,-6.763606071E-1,4.184303805E-2,3.215347230E-1
1.127463110E1,-7.221741676E-1,-1.801999360E-1,1.821088344E-1
1.129474048E1,-5.276193023E-1,-2.481566966E-1,8.406785131E-2
1.131484985E1,-3.649812192E-2,9.116895497E-2,1.333937645E-1
1.133495922E1,6.288672686E-1,5.671716928E-1,4.012503028E-1
1.135506860E1,1.139535546E0,7.389724851E-1,7.323294878E-1
1.137517798E1,1.293163657E0,5.418215394E-1,9.994224906E-1
1.139528735E1,1.035996914E0,-3.985778242E-2,1.063866854E0
1.141539667E1,5.673243999E-1,-6.201626658E-1,8.870265484E-1
1.143550605E1,1.843231618E-1,-7.825716734E-1,5.895439386E-1
1.145561542E1,-9.162708884E-4,-5.690042377E-1,3.137464225E-1
1.147572480E1,-4.947862774E-2,-2.038702667E-1,1.062110662E-1
1.149583417E1,-1.374406274E-3,1.032331884E-1,8.620581776E-2
1.151594355E1,8.032641560E-2,1.910424829E-1,2.234937400E-1
1.153605292E1,1.649287641E-1,5.360184610E-2,3.948363960E-1
1.155616230E1,2.765611112E-1,-4.550812021E-2,4.678326547E-1
1.157627167E1,3.323009014E-1,-5.100574717E-2,3.636831939E-1
1.159638105E1,2.376195788E-1,-7.956285775E-2,1.570640951E-1
1.161649042E1,-1.374406368E-2,-1.571404636E-1,-5.948125198E-2
1.163659980E1,-2.657185495E-1,-1.461452097E-1,-1.952420622E-1
1.165670917E1,-3.784198761E-1,-4.398100078E-2,-2.534252703E-1
1.167681855E1,-3.332171738E-1,8.796200156E-2,-2.621298432E-1
1.169692792E1,-2.118112892E-1,1.557660550E-1,-2.268534005E-1
1.171703730E1,-1.119377613E-1,8.872556686E-2,-1.830251068E-1
1.173714667E1,-8.276980370E-2,-3.130592033E-2,-1.729461253E-1
1.175725605E1,-7.773031294E-2,-1.104106456E-1,-1.804290116E-1
1.177736537E1,-6.978929788E-2,-1.215586066E-1,-1.862320602E-1
1.179747480E1,-7.406523079E-2,-1.122431830E-1,-1.708081663E-1
1.181758412E1,-1.195733473E-1,-1.803526580E-1,-1.648524106E-1
1.183769350E1,-1.756185889E-1,-3.210002482E-1,-1.877591759E-1
1.185780287E1,-2.124221325E-1,-4.839437306E-1,-2.186069638E-1
1.187791225E1,-2.402156889E-1,-5.263976455E-1,-2.515927255E-1
1.189802162E1,-3.048127890E-1,-4.045335948E-1,-2.810660899E-1
1.191813100E1,-4.405735731E-1,-2.916795611E-1,-2.566322088E-1
1.193824037E1,-6.945333481E-1,-4.164451063E-1,-2.431935668E-1
1.195834975E1,-9.345199466E-1,-3.645231128E-1,-2.434989959E-1
1.197845912E1,-1.027979612E0,-2.747285664E-1,-2.934357524E-1
1.199856850E1,-1.033629894E0,-4.104893506E-1,-5.113555193E-1
1.201867787E1,-9.496384263E-1,-3.717005551E-1,-7.792120576E-1
1.203878725E1,-5.569399595E-1,2.632751763E-1,-7.613447309E-1
1.205889662E1,1.073564067E-1,8.854231238E-1,-3.739148676E-1
1.207900600E1,7.206470370E-1,9.202414155E-1,5.092938989E-2
1.209911537E1,1.063179612E0,4.579827189E-1,3.798706532E-1
1.211922475E1,9.988879561E-1,-3.323009014E-1,3.951418102E-1
1.213933407E1,6.339067221E-1,-7.362236381E-1,1.443126611E-2
1.215944350E1,2.008160353E-1,-6.012263894E-1,-4.139253795E-1
1.217955282E1,-1.162136942E-1,-8.170082420E-2,-6.405497193E-1
1.219966219E1,-3.164188862E-1,4.523324072E-1,-6.452837586E-1
1.221977157E1,-4.030064642E-1,6.885775924E-1,-4.366794229E-1
1.223988094E1,-3.544441164E-1,6.511631608E-1,-1.776801944E-1
1.225999032E1,-1.372879148E-1,4.570664763E-1,3.520007432E-2
1.228009969E1,1.844758689E-1,2.615953386E-1,1.581330895E-1
1.230020907E1,4.271349311E-1,1.560714692E-1,1.573695242E-1
1.232031844E1,4.375193417E-1,1.420219839E-1,8.009734750E-2
1.234042782E1,2.127275616E-1,1.469087601E-1,-2.519744914E-3
1.236053719E1,-1.127013192E-1,1.102579311E-1,-6.207735091E-2
1.238064657E1,-3.210002482E-1,8.842013776E-2,-6.665870547E-2
1.240075594E1,-2.925958335E-1,1.829487532E-1,-1.030804776E-2
1.242086532E1,-1.125486046E-1,3.249707520E-1,6.665870547E-2
1.244097469E1,1.832541777E-3,3.185568452E-1,1.133885235E-1
1.246108407E1,-4.367557913E-2,1.933331639E-1,1.156791970E-1
1.248119344E1,-1.805053651E-1,1.023169160E-1,6.772769243E-2
1.250130282E1,-3.063398898E-1,1.203369126E-1,2.634278871E-2
1.252141219E1,-3.773508966E-1,1.711899489E-1,4.008685052E-2
1.254152157E1,-4.208737612E-1,1.638597846E-1,6.925480813E-2
1.256163089E1,-4.619532526E-1,6.536065787E-2,9.399411827E-2
1.258174027E1,-4.627167881E-1,-2.260134928E-2,1.315612346E-1
1.260184964E1,-3.898732662E-1,-4.734066129E-2,1.715717167E-1
1.262195902E1,-2.486148328E-1,6.474980712E-2,2.262425572E-1
1.264206839E1,-8.002099395E-2,2.906105816E-1,3.006131947E-1
1.266217777E1,-4.077405483E-2,2.586938143E-1,4.014030099E-1
1.268228714E1,-2.539597452E-1,-1.647760421E-1,4.708868861E-1
1.270239652E1,-5.772506595E-1,-6.960604787E-1,4.056789279E-1
1.272250589E1,-6.873558760E-1,-8.903862238E-1,2.430408597E-1
1.274261527E1,-4.075878263E-1,-6.826218367E-1,8.544225991E-2
1.276272464E1,2.211267054E-1,-5.803048983E-2,1.114032716E-1
1.278283402E1,8.148702383E-1,5.209000111E-1,3.444415033E-1
1.280294339E1,1.047755718E0,5.519005060E-1,5.787014365E-1
1.282305277E1,9.645278454E-1,2.035648525E-1,6.881957650E-1
1.284316214E1,7.351546884E-1,-1.328592747E-1,5.973322392E-1
1.286327152E1,5.080721974E-1,-2.612899244E-1,3.675009906E-1
1.288338089E1,3.242071867E-1,-2.426590770E-1,1.417929232E-1
1.290349027E1,1.776038408E-1,-1.181989461E-1,5.260922015E-2
1.292359964E1,3.680354729E-2,-6.872031838E-3,5.780142173E-2
1.294370902E1,3.817795310E-3,1.516428292E-1,1.340046227E-1
1.296381839E1,1.207950488E-1,2.806843221E-1,2.502183020E-1
1.298392777E1,2.799207568E-1,3.048127890E-1,3.219928741E-1
1.300403709E1,3.516952991E-1,2.191414535E-1,3.242835402E-1
1.302414647E1,2.776300907E-1,4.932591692E-2,2.583120465E-1
1.304425584E1,1.154501289E-1,-7.788302749E-2,1.651578248E-1
1.306436522E1,-2.412846684E-2,-5.314370990E-2,1.068219170E-1
1.308447459E1,-1.073564067E-1,2.748812549E-3,5.154023692E-2
1.310458397E1,-1.409530044E-1,1.801999472E-2,5.421269219E-3
1.312469334E1,-1.459924877E-1,1.496575773E-2,-1.427855436E-2
1.314480272E1,-1.539335102E-1,-9.620844387E-3,-2.695363574E-2
1.316491209E1,-1.667613089E-1,-6.245913357E-2,-4.726430774E-2
1.318502146E1,-1.772984117E-1,-1.382041872E-1,-8.605311066E-2
1.320513084E1,-1.656923145E-1,-2.319692522E-1,-1.104869992E-1
1.322524022E1,-9.819369763E-2,-2.698417902E-1,-1.185807213E-1
1.324534959E1,4.428642802E-3,-2.582356930E-1,-1.330883503E-1
1.326545896E1,5.253286287E-2,-2.924431264E-1,-1.541625708E-1
1.328556834E1,-3.191677108E-2,-4.254551232E-1,-1.972273141E-1
1.330567772E1,-1.812689304E-1,-5.179984570E-1,-2.664057612E-1
1.332578709E1,-3.129065037E-1,-4.906630516E-1,-3.629196286E-1
1.334589647E1,-3.978142738E-1,-4.202629030E-1,-4.295019805E-1
1.336600584E1,-3.926220834E-1,-2.350234836E-1,-3.607816696E-1
1.338611522E1,-3.180987239E-1,-7.498150319E-2,-1.811925620E-1
1.340622459E1,-3.830012381E-1,-3.151971996E-1,-1.144575030E-1
1.342633397E1,-5.328115225E-1,-5.077667832E-1,-2.027249336E-1
1.344644334E1,-4.756973088E-1,-3.767400384E-1,-3.335989714E-1
1.346655272E1,-3.060344756E-1,-4.057552814E-1,-5.438831449E-1
1.348666209E1,-3.022166789E-1,-5.092939138E-1,-7.349256277E-1
1.350677147E1,-1.911951900E-1,-8.506047726E-2,-6.958313584E-1
1.352688079E1,3.203893900E-1,5.086830258E-1,-3.717769086E-1
1.354699016E1,9.677347541E-1,6.885775924E-1,8.628217503E-3
1.356709954E1,1.382347345E0,3.118375242E-1,2.975589633E-1
1.358720891E1,1.315917730E0,-3.237490356E-1,3.065689802E-1
1.360731829E1,8.933641315E-1,-4.636330605E-1,3.894151188E-3
1.362742766E1,3.658975065E-1,-1.159082651E-1,-3.390965760E-1
1.364753704E1,-8.735115826E-2,2.993151546E-1,-5.293754935E-1
1.366764641E1,-3.909422457E-1,5.780141950E-1,-4.791333079E-1
1.368775579E1,-5.465555787E-1,6.158867478E-1,-3.122192919E-1
1.370786516E1,-5.470137000E-1,4.836383164E-1,-1.714190096E-1
1.372797454E1,-3.990359604E-1,2.880144715E-1,-1.089598835E-1
1.374808391E1,-1.641651988E-1,1.838650256E-1,-1.198024154E-1
1.376819329E1,1.740914769E-2,1.827960461E-1,-1.564532518E-1
1.378830266E1,4.046862945E-2,2.148655206E-1,-1.581330895E-1
1.380841204E1,-1.120904684E-1,1.771457046E-1,-1.349208951E-1
1.382852141E1,-3.048127890E-1,1.437018216E-1,-1.057529300E-1
1.384863079E1,-3.846810758E-1,2.032594234E-1,-8.376242965E-2
1.386874016E1,-3.142809272E-1,2.767138183E-1,-6.039752439E-2
1.388884954E1,-1.695101112E-1,2.690782249E-1,-1.259872504E-2
1.390895891E1,-2.092151903E-2,2.064663768E-1,5.154023692E-2
1.392906829E1,5.604523420E-2,1.521009654E-1,8.177717775E-2
1.394917766E1,6.688777357E-2,1.696628332E-1,9.842276573E-2
1.396928704E1,5.589252338E-2,2.157817930E-1,1.072800532E-1
1.398939641E1,2.412846684E-2,2.102841735E-1,8.910734206E-2
1.400950579E1,-3.756710514E-2,1.137702987E-1,7.276718318E-2
1.402961516E1,-6.719319522E-2,-5.589252338E-2,8.712209016E-2
1.404972454E1,1.313321572E-2,-1.586675793E-1,1.462215632E-1
1.406983391E1,1.913478971E-1,-1.027750522E-1,2.480803430E-1
1.408994329E1,3.078670204E-1,1.924168877E-2,3.616979420E-1
1.411005266E1,8.658760041E-2,-1.965401024E-1,4.324035048E-1
1.413016204E1,-4.801259339E-1,-6.467345357E-1,4.003340304E-1
1.415027141E1,-1.026147008E0,-8.343409896E-1,2.323510200E-1
1.417038079E1,-1.166641951E0,-5.648810267E-1,-1.320957206E-2
1.419049016E1,-7.308787704E-1,-4.611896724E-2,-1.359898746E-1
1.421059954E1,6.978929788E-2,4.109475017E-1,4.558447748E-2
1.423070891E1,8.110524416E-1,4.634803534E-1,4.047626555E-1
1.425081829E1,1.226123214E0,1.818797737E-1,6.845307350E-1
1.427092766E1,1.191304922E0,-2.481566966E-1,7.277481556E-1
1.429103704E1,7.463026643E-1,-5.558710098E-1,5.325824618E-1
1.431114641E1,1.989834905E-1,-5.248705149E-1,3.212293088E-1
1.433125579E1,-1.157555580E-1,-2.573194206E-1,1.795127392E-1
1.435136516E1,-2.066190839E-1,4.107947648E-2,6.696412712E-2
1.437147454E1,-1.971509457E-1,1.743968874E-1,9.384141117E-2
1.439158391E1,-1.252236813E-1,1.453816444E-1,2.163162827E-1
1.441169329E1,-1.374406368E-2,7.330167294E-2,3.154262602E-1
1.443180266E1,6.872031838E-2,1.068982668E-2,3.230618536E-1
1.445191204E1,4.825693369E-2,-3.588727489E-2,2.196759433E-1
1.447202141E1,-6.215370819E-2,-5.955760833E-3,7.979192585E-2
1.449213079E1,-1.786728203E-1,1.189625040E-1,-9.086352773E-3
1.451224016E1,-2.246390730E-1,2.299840003E-1,-1.718007959E-2
1.453234954E1,-2.000524700E-1,2.452551723E-1,2.038702741E-2
1.455245891E1,-1.421747059E-1,1.582094431E-1,6.406260282E-2
1.457256829E1,-6.902574003E-2,5.512896553E-2,7.490514219E-2
1.459267766E1,8.704573847E-3,-1.435491070E-2,4.787515476E-2
1.461278704E1,7.085828483E-2,-4.016320780E-2,2.023431472E-2
1.463289641E1,6.490252167E-2,-7.757759839E-2,-1.840177365E-2
1.465300579E1,1.221694518E-2,-9.972081333E-2,-2.435753495E-2
1.467311516E1,-6.719319522E-2,-1.032331884E-1,-3.825430945E-2
1.469322454E1,-2.754921019E-1,-8.231166750E-2,-8.055548370E-2
1.471333386E1,-4.297310412E-1,-1.217113137E-1,-5.215108395E-2
1.473344329E1,-3.968980014E-1,-1.624853760E-1,-1.001025960E-1
1.475355266E1,-1.885990947E-1,-1.469087601E-1,-1.479013860E-1
1.477366199E1,8.704573661E-2,-1.543916464E-1,-1.187334359E-1
1.479377141E1,2.718270421E-1,-2.200577259E-1,-7.902836055E-2
1.481388079E1,2.130329758E-1,-3.855973184E-1,-6.070294604E-2
1.483399016E1,-1.969982386E-1,-7.246175408E-1,-2.013505250E-1
1.485409954E1,-5.902311802E-1,-4.248442650E-1,-3.290176094E-1
1.487420891E1,-6.543701291E-1,1.647760421E-1,-3.781908154E-1
1.489431829E1,-5.758762360E-1,3.009949923E-1,-4.667636752E-1
1.491442766E1,-4.425588250E-1,2.640387416E-1,-4.794387519E-1
1.493453704E1,-2.267770469E-1,3.234436214E-1,-4.466057122E-1
1.495464641E1,1.400367320E-1,4.340069890E-1,-3.890333474E-1
1.497475579E1,6.420004964E-1,3.901786804E-1,-2.827459276E-1
1.499486516E1,1.046075940E0,1.472141892E-1,-1.898971349E-1
1.501497454E1,1.101815701E0,-1.695101112E-1,-1.818034202E-1
1.503508391E1,7.533273697E-1,-3.674246371E-1,-2.967953980E-1
1.505519329E1,2.064663768E-1,-2.293731421E-1,-4.375956953E-1
1.507530266E1,-2.454078794E-1,-3.649812192E-2,-5.244887471E-1
1.509541204E1,-3.907895386E-1,2.165453583E-1,-5.221980214E-1
1.511552141E1,-2.115058601E-1,4.798205197E-1,-4.159106314E-1
1.513563079E1,1.317902952E-1,5.141806602E-1,-2.450261116E-1
1.515574016E1,4.378247857E-1,3.239017725E-1,-1.054475084E-1
1.517584954E1,5.905365944E-1,9.177979827E-2,-5.627430230E-2
1.519595891E1,5.493044257E-1,-4.657710344E-2,-9.200886637E-2
1.521606829E1,3.362714052E-1,-7.635590434E-2,-1.404185146E-1
1.523617766E1,2.657185495E-2,-6.872031838E-2,-1.778329015E-1
1.525628704E1,-2.020377368E-1,-6.230641901E-2,-1.882173121E-1
1.527639641E1,-2.631224692E-1,-1.985253580E-2,-1.857739240E-1
1.529650579E1,-2.195995897E-1,2.809897438E-2,-1.422510594E-1
1.531661516E1,-1.539335102E-1,7.803573459E-2,-6.482616812E-2
1.533672454E1,-7.543963939E-2,1.401894391E-1,-4.504998680E-3
1.535683391E1,-1.145338640E-2,1.414111406E-1,2.023431472E-2
1.537694329E1,5.192201585E-3,8.322793990E-2,4.818057641E-2
1.539705266E1,-2.611372061E-2,3.558185324E-2,7.582141459E-2
1.541716204E1,-5.650337040E-2,-8.704573847E-3,9.002361447E-2
1.543727141E1,-5.528167635E-2,-5.344913527E-2,8.803836256E-2
1.545738079E1,-3.771981969E-2,-8.017370105E-2,7.169819623E-2
1.547749016E1,-3.008422814E-2,-2.015795931E-2,6.223006546E-2
1.549759954E1,-6.306997687E-2,3.405473381E-2,7.276718318E-2
1.551770891E1,-1.026223376E-1,3.909422457E-2,1.469851285E-1
1.553781829E1,-6.536065787E-2,9.513945878E-2,2.911450863E-1
1.555792766E1,1.542389300E-2,8.948912472E-2,4.223245382E-1
1.557803704E1,-1.527118147E-3,-5.726693198E-2,4.878378808E-1
1.559814641E1,-1.881409585E-1,-1.944021434E-1,4.595862031E-1
1.561825579E1,-5.074613690E-1,-4.222481549E-1,2.946574390E-1
1.563836522E1,-7.134696245E-1,-4.999784827E-1,9.903360903E-2
1.565847459E1,-5.263976455E-1,-1.801999360E-1,-2.267770469E-2
1.567858397E1,-2.412846684E-2,2.681619525E-1,-3.199312463E-2
1.569869334E1,4.188885093E-1,4.399627447E-1,1.028514057E-1
1.571880272E1,6.291726828E-1,4.077405334E-1,3.525352180E-1
1.573891209E1,7.058340311E-1,2.857238054E-1,5.376219153E-1
1.575902147E1,6.630746722E-1,1.481304597E-2,5.790068507E-1
1.577913084E1,4.552339315E-1,-3.187095523E-1,5.006656647E-1
1.579924022E1,1.950129867E-1,-3.884988427E-1,3.641413152E-1
1.581934959E1,-4.275931045E-3,-1.838650256E-1,1.934095174E-1
1.583945896E1,-7.696675509E-2,1.736333370E-1,9.506310523E-2
1.585956834E1,3.222219273E-2,4.569137394E-1,2.001288384E-1
1.587967772E1,2.024958730E-1,4.292729199E-1,3.975852132E-1
1.589978709E1,3.246653080E-1,1.901262105E-1,5.606814027E-1
1.591989646E1,3.483356535E-1,-1.029277667E-1,5.819083452E-1
1.594000584E1,2.866400778E-1,-2.573194206E-1,4.409553707E-1
1.596011522E1,1.950129867E-1,-1.922641695E-1,2.415137291E-1
1.598022459E1,6.704048812E-2,-3.161134571E-2,8.620581776E-2
1.600033396E1,-8.246438205E-2,5.299099907E-2,3.978142887E-2
1.602044334E1,-1.507265568E-1,5.360184610E-2,5.810684711E-2
1.604055272E1,-8.292251825E-2,3.817795217E-2,5.108210072E-2
1.606066214E1,5.344913527E-2,3.665083647E-2,1.840177365E-2
1.608077152E1,1.325538605E-1,-2.993151546E-2,-2.283041552E-2
1.610088089E1,1.018587798E-1,-1.273616552E-1,-6.238277629E-2
1.612099027E1,3.863608837E-2,-1.707318127E-1,-7.078192383E-2
1.614109964E1,1.435491070E-2,-1.378987730E-1,-7.322531193E-2
1.616120902E1,4.581354558E-3,-6.872031838E-2,-9.659022093E-2
1.618131839E1,-5.925218388E-2,-5.528167635E-2,-1.243837699E-1
1.620142777E1,-1.522536725E-1,-1.324011385E-1,-1.324774921E-1
1.622153714E1,-2.011214644E-1,-2.663294077E-1,-1.249946207E-1
1.624164652E1,-1.875301152E-1,-3.208475113E-1,-1.288124174E-1
1.626175589E1,-1.748550236E-1,-3.319954872E-1,-1.648524106E-1
1.628186527E1,-2.179197669E-1,-3.620797098E-1,-2.047101855E-1
1.630197464E1,-3.174878657E-1,-4.286620617E-1,-1.937149316E-1
1.632208402E1,-4.451549351E-1,-4.990622103E-1,-1.712663025E-1
1.634219339E1,-5.370874405E-1,-5.271611810E-1,-1.456107199E-1
1.636230282E1,-5.311316848E-1,-6.659762263E-1,-1.853157878E-1
1.638241219E1,-3.700207174E-1,-6.418477297E-1,-3.543677628E-1
1.640252157E1,-4.428642616E-2,-1.968455315E-1,-5.165477395E-1
1.642263094E1,2.872509360E-1,3.828485310E-1,-5.951942801E-1
1.644274032E1,4.372139275E-1,5.506787896E-1,-5.510605574E-1
1.646284969E1,5.012001991E-1,4.471401870E-1,-3.700970709E-1
1.648295907E1,5.587725043E-1,8.521319181E-2,-1.865374744E-1
1.650306844E1,5.108210444E-1,-3.695625961E-1,-1.677539349E-1
1.652317782E1,2.971771955E-1,-6.116108298E-1,-2.984752357E-1
1.654328719E1,1.145338640E-2,-4.477510452E-1,-4.870743454E-1
1.656339657E1,-2.377723008E-1,1.969982497E-2,-6.862105131E-1
1.658350594E1,-3.193204105E-1,4.940227270E-1,-6.943042874E-1
1.660361532E1,-2.341072112E-1,6.890357137E-1,-4.736357033E-1
1.662372475E1,-1.183516532E-1,6.097782850E-1,-2.037939131E-1
1.664383412E1,-5.543438718E-2,3.926220834E-1,-1.168245357E-2
1.666394350E1,-3.466558084E-2,1.785201132E-1,3.290939704E-2
1.668405287E1,-5.436540768E-2,5.940489471E-2,-5.719057471E-2
1.670416225E1,-1.247655526E-1,3.161134571E-2,-1.491230875E-1
1.672427162E1,-2.473931462E-1,3.542914242E-2,-1.573695242E-1
1.674438100E1,-3.700207174E-1,4.016320780E-2,-9.628479928E-2
1.676449037E1,-4.201101959E-1,6.261184067E-2,-3.550549597E-2
1.678459975E1,-3.381039500E-1,1.181989461E-1,3.894151188E-3
1.680470912E1,-1.637070626E-1,1.595838517E-1,3.581092134E-2
1.682481850E1,-1.343864016E-2,1.513374150E-1,4.955498502E-2
1.684492792E1,3.756710514E-2,1.018587798E-1,5.367820337E-2
1.686503730E1,3.512371797E-3,3.038965166E-2,6.879667193E-2
1.688514667E1,-4.672981426E-2,-1.679830020E-3,8.819106966E-2
1.690525605E1,-5.299099907E-2,2.748812735E-2,1.054475084E-1
1.692536542E1,-2.473931387E-2,7.589777559E-2,1.091125906E-1
1.694547480E1,-2.428117767E-2,1.351499557E-1,1.023932695E-1
1.696558417E1,-9.300149232E-2,1.957765520E-1,9.643751383E-2
1.698569355E1,-1.759240031E-1,2.157817930E-1,1.109451354E-1
1.700580292E1,-1.768402755E-1,2.916795611E-1,1.682120711E-1
1.702591230E1,-1.130067408E-1,2.040229887E-1,2.317401767E-1
1.704602167E1,-8.414421231E-2,-5.894676223E-2,2.639623582E-1
1.706613110E1,-2.142546773E-1,-4.923428893E-1,2.775537372E-1
1.708624048E1,-3.240544796E-1,-6.752916574E-1,3.015294671E-1
1.710634985E1,-2.539597452E-1,-3.869717419E-1,1.958529055E-1
1.712645922E1,-5.039489828E-3,1.690519750E-1,6.345175952E-2
1.714656860E1,3.475720882E-1,6.157340407E-1,1.110978425E-1
1.716667798E1,6.597150564E-1,6.134433746E-1,2.804552615E-1
1.718678735E1,8.519791961E-1,2.869454920E-1,4.418716431E-1
1.720689672E1,8.000571728E-1,-2.394521236E-1,4.762317836E-1
1.722700610E1,4.967715442E-1,-7.146912813E-1,3.326826990E-1
1.724711553E1,1.835595965E-1,-7.389724851E-1,1.605764776E-1
1.726722490E1,2.565558441E-2,-3.936910629E-1,2.649549954E-2
1.728733428E1,7.024743594E-3,9.804098308E-2,-5.092938989E-2
1.730744365E1,6.551336497E-2,4.220954478E-1,1.748550311E-2
1.732755303E1,1.490467340E-1,4.859289825E-1,1.825669706E-1
1.734766240E1,2.464768738E-1,3.494046330E-1,3.345152438E-1
1.736777178E1,3.761292100E-1,1.724116355E-1,4.275167286E-1
1.738788115E1,4.599680007E-1,7.696675509E-2,4.096494317E-1
1.740799058E1,3.920112252E-1,9.391776472E-2,3.044309914E-1
1.742809995E1,1.466033459E-1,9.177979827E-2,1.860793531E-1
1.744820933E1,-1.285833418E-1,1.072036922E-1,1.133885235E-1
1.746831870E1,-2.486148328E-1,1.794363856E-1,1.091125906E-1
1.748842808E1,-1.910424829E-1,2.418955117E-1,1.356844455E-1
1.750853745E1,-7.681404054E-2,1.893626451E-1,1.559951156E-1
1.752864683E1,-1.068982761E-3,7.238540053E-2,1.295759678E-1
1.754875620E1,7.941014133E-3,-1.908897609E-2,5.260922015E-2
1.756886563E1,-1.053711493E-2,-3.726168349E-2,-1.107160654E-2
1.758897501E1,-2.993151546E-2,3.970507067E-3,-3.107685409E-2
1.760908438E1,-2.901524492E-2,3.863608837E-2,-1.473669056E-2
1.762919376E1,-1.206423342E-2,-1.206423342E-2,-9.239064530E-3
1.764930313E1,1.267508045E-2,-1.421747059E-1,-3.260397166E-2
1.766941251E1,4.428642616E-2,-3.185568452E-1,-8.773294091E-2
1.768952188E1,4.902049154E-2,-4.146125913E-1,-1.508029103E-1
1.770963131E1,-3.665083647E-2,-3.373403847E-1,-2.060845941E-1
1.772974068E1,-2.672456801E-1,-8.444963396E-2,-2.744994760E-1
1.774985006E1,-5.751127005E-1,1.229330078E-1,-2.401393354E-1
1.776995943E1,-8.804599643E-1,-1.345391124E-1,-1.404185146E-1
1.779006881E1,-1.075778365E0,-7.920398116E-1,-9.216158092E-2
1.781017818E1,-1.011333942E0,-1.236278534E0,-2.465532273E-1
1.783028756E1,-7.886801958E-1,-1.186494470E0,-6.520031095E-1
1.785039699E1,-5.225798488E-1,-1.197260618E-1,-1.029964805E0
1.787050636E1,-1.623326540E-1,1.251931429E0,-9.256626368E-1
1.789061574E1,3.104631305E-1,1.934171438E0,-3.261160851E-1
1.791072511E1,7.976137996E-1,1.529561520E0,3.633777499E-1
1.793083449E1,1.249182701E0,5.929799676E-1,9.526926279E-1
1.795094386E1,1.452136636E0,-3.845283389E-1,1.032866359E0
1.797105329E1,1.213753462E0,-9.255099297E-1,4.308763742E-1
1.799116266E1,5.926745534E-1,-9.407811165E-1,-3.980433345E-1
1.801127204E1,-9.865183383E-2,-5.766398311E-1,-9.820133448E-1
1.803138141E1,-6.059604883E-1,-1.432436854E-1,-1.157708287E0
1.805149079E1,-7.758523822E-1,1.563768983E-1,-9.227611423E-1
1.807160016E1,-5.610632300E-1,4.019374847E-1,-4.314872324E-1
1.809170959E1,-8.536590636E-2,5.680879354E-1,5.573981442E-3
1.811181896E1,3.999522328E-1,5.405998230E-1,1.237729266E-1
1.813192834E1,6.482616663E-1,2.342599183E-1,2.214321401E-3
1.815203772E1,6.010736823E-1,-5.894676223E-2,-1.903552711E-1
1.817214709E1,3.194731176E-1,-1.501157135E-1,-3.526879251E-1
1.819225646E1,-3.023693897E-2,-6.597150117E-2,-3.759001195E-1
1.821236589E1,-2.577775419E-1,6.505523622E-2,-2.679328918E-1
1.823247527E1,-2.916795611E-1,1.343863904E-1,-1.515664756E-1
1.825258464E1,-1.659977436E-1,1.692046970E-1,-8.025006205E-2
1.827269402E1,5.650337320E-3,1.629435122E-1,-5.398362502E-2
1.829280339E1,1.178935245E-1,1.152974218E-1,-5.154023692E-2
1.831291277E1,1.209477559E-1,3.939964995E-2,-5.932854116E-2
1.833302219E1,4.840964451E-2,7.391251624E-2,-4.023956135E-2
1.835313157E1,-3.313846514E-2,1.675248593E-1,2.290677221E-4
1.837324094E1,-9.437590092E-2,1.724116355E-1,1.000262424E-2
1.839335032E1,-1.128540337E-1,9.422318637E-2,-1.519482583E-2
1.841345969E1,-8.933641016E-2,4.291202128E-2,-4.054498672E-2
1.843356912E1,-2.932066843E-2,4.825693369E-2,-1.000262424E-2
1.845367850E1,6.810946763E-2,1.032331884E-1,5.932854116E-2
1.847378787E1,1.728697717E-1,2.597627938E-1,1.559951156E-1
1.849389725E1,1.754658818E-1,3.361186981E-1,2.509818673E-1
1.851400662E1,-1.175880991E-2,7.192726433E-2,2.923667729E-1
1.853411605E1,-3.087832928E-1,-1.479777545E-1,3.059581220E-1
1.855422542E1,-6.022953987E-1,-5.066977739E-1,2.039466351E-1
1.857433480E1,-7.689803243E-1,-8.323557377E-1,4.787515476E-2
1.859444417E1,-4.957025647E-1,-3.089359999E-1,1.885990985E-2
1.861455355E1,2.102841735E-1,5.218162537E-1,2.224247605E-1
1.863466292E1,7.995990515E-1,5.967977643E-1,4.492017925E-1
1.865477235E1,8.677085042E-1,-5.635065958E-2,6.271110773E-1
1.867488173E1,5.036435723E-1,-6.201626658E-1,6.397861242E-1
1.869499110E1,1.137702987E-1,-5.161659122E-1,4.572955370E-1
1.871510048E1,-3.802524135E-2,-3.038965166E-2,2.567849159E-1
1.873520985E1,4.214845970E-2,4.028537571E-1,1.504974961E-1
1.875531928E1,1.322484314E-1,3.448232710E-1,1.460688561E-1
1.877542865E1,1.279724985E-1,3.634541109E-2,1.937149316E-1
1.879553803E1,7.788302749E-2,-2.573194206E-1,2.303657681E-1
1.881564740E1,3.268032894E-2,-2.951919436E-1,1.839413792E-1
1.883575683E1,-1.466033421E-2,-1.090362370E-1,8.742751181E-2
1.885586620E1,-8.551861346E-2,9.880454093E-2,1.992889121E-2
1.887597558E1,-1.603474021E-1,1.850867122E-1,1.397313084E-2
1.889608495E1,-1.638597846E-1,1.606528312E-1,7.383616269E-2
1.891619433E1,-7.803573459E-2,7.834116369E-2,1.220930964E-1
1.893630376E1,2.764083818E-2,2.611372061E-2,1.149156392E-1
1.895641313E1,4.581354558E-2,-4.871506989E-2,6.558972597E-2
1.897652251E1,-3.191677108E-2,-1.165191159E-1,1.718007959E-2
1.899663188E1,-1.378987730E-1,-1.085781008E-1,-1.763821393E-2
1.901674126E1,-2.121167034E-1,-3.680354729E-2,-2.756448276E-2
1.903685068E1,-2.031067163E-1,5.497625098E-3,-1.687465608E-2
1.905696006E1,-1.240019947E-1,-2.336490713E-2,-2.832804248E-2
1.907706943E1,-1.771457121E-2,-1.217113137E-1,-5.031854287E-2
1.909717881E1,6.108472496E-2,-1.985253543E-1,-6.360447407E-2
1.911728824E1,7.391251624E-2,-2.171562016E-1,-6.849125028E-2
1.913739761E1,2.244863659E-2,-2.391466945E-1,-7.246175408E-2
1.915750699E1,-5.222744122E-2,-2.516690791E-1,-9.536852688E-2
1.917761636E1,-7.482878864E-2,-2.153236568E-1,-1.283542812E-1
1.919772579E1,-1.557660475E-2,-5.741964281E-2,-1.153737754E-1
1.921783516E1,-4.504998401E-2,-3.064926267E-1,-1.170536056E-1
1.923794454E1,-2.226538211E-1,-5.769452453E-1,-1.958529055E-1
1.925805391E1,-3.642176688E-1,-1.731752008E-1,-2.039466351E-1
1.927816334E1,-5.115845799E-1,-1.524063945E-1,-2.467059344E-1
1.929827272E1,-6.242858768E-1,-4.167505503E-1,-3.801760674E-1
1.931838209E1,-4.656183124E-1,-2.886253223E-2,-4.895177186E-1
1.933849146E1,5.146388337E-2,7.693621516E-1,-5.209763646E-1
1.935860089E1,6.145123243E-1,9.727742672E-1,-4.727194309E-1
1.937871027E1,9.558232427E-1,4.579827189E-1,-3.079433739E-1
1.939881964E1,9.921686649E-1,-1.893626451E-1,-1.709608734E-1
1.941892902E1,7.102626562E-1,-5.115845799E-1,-3.007659316E-1
1.943903839E1,2.443388999E-1,-3.457395434E-1,-5.283065438E-1
1.945914782E1,-1.956238300E-1,6.994201243E-2,-6.631510258E-1
1.947925719E1,-4.676035643E-1,3.344388604E-1,-6.681905389E-1
1.949936657E1,-5.343386531E-1,3.657447994E-1,-5.512133241E-1
1.951947594E1,-3.509317636E-1,3.474193811E-1,-3.374167681E-1
1.953958537E1,1.374406368E-2,3.040492237E-1,-1.143047959E-1
1.955969475E1,3.855973184E-1,1.527118087E-1,5.154023692E-2
1.957980412E1,5.734328628E-1,-1.313321572E-2,9.521581978E-2
1.959991350E1,4.839437306E-1,-9.697200358E-2,3.397838026E-2
1.962002292E1,1.721062213E-1,-1.542389393E-1,-5.062396824E-2
1.964013230E1,-1.343863904E-1,-1.145338640E-1,-8.223531395E-2
1.966024167E1,-2.548760176E-1,-9.620844387E-3,-8.131904155E-2
1.968035110E1,-2.037175596E-1,6.505523622E-2,-7.322531193E-2
1.970046048E1,-8.399149776E-2,6.841489673E-2,-3.336753324E-2
1.972056985E1,1.664558798E-2,3.665083647E-2,1.320957206E-2
1.974067922E1,5.085303262E-2,7.941014133E-3,3.642176837E-2
1.976078865E1,1.572931744E-2,3.069507517E-2,5.627430230E-2
1.978089803E1,-4.947862774E-2,7.345438004E-2,6.299362332E-2
1.980100740E1,-1.088835225E-1,8.444963396E-2,2.893888950E-2
1.982111678E1,-1.233911440E-1,7.956285775E-2,4.199574701E-3
1.984122620E1,-7.773031294E-2,8.887827396E-2,1.427855436E-2
1.986133558E1,-1.084253844E-2,9.681928903E-2,4.756972939E-2
1.988144495E1,1.985253580E-2,6.765133142E-2,7.750124484E-2
1.990155438E1,-1.679829881E-2,4.291202128E-2,8.299887180E-2
1.992166376E1,-6.994201243E-2,3.130592033E-2,8.864920586E-2
1.994177313E1,-8.185353130E-2,5.604523420E-2,8.864920586E-2
1.996188251E1,-3.649812192E-2,1.829487532E-1,1.213295385E-1
1.998199193E1,5.635065958E-2,4.984513521E-1,2.544942498E-1
2.000210131E1,1.221694518E-2,5.157077909E-1,4.053735137E-1
2.002221068E1,-2.596100867E-1,8.826743066E-2,4.753155112E-1
2.004232011E1,-5.949652195E-1,-3.110739589E-1,3.780381083E-1
2.006242949E1,-7.811973095E-1,-5.810684562E-1,2.048628926E-1
2.008253886E1,-5.789304972E-1,-3.436015844E-1,7.017108053E-2
2.010264824E1,1.380514801E-1,3.831539452E-1,1.978381574E-1
2.012275766E1,9.715525508E-1,7.907418013E-1,5.254049897E-1
2.014286704E1,1.424037695E0,5.170822144E-1,8.286906481E-1
2.016297641E1,1.298661232E0,-1.444653720E-1,9.348253608E-1
2.018308584E1,6.919372082E-1,-5.520532131E-1,7.179746032E-1
2.020319522E1,3.222219273E-2,-4.062134326E-1,4.730248451E-1
2.022330459E1,-3.196258247E-1,9.162709117E-3,3.365004957E-1
2.024341402E1,-3.414636254E-1,4.126273096E-1,2.518981397E-1
2.026352339E1,-1.860029846E-1,4.535540938E-1,2.447206825E-1
2.028363277E1,-1.832541777E-3,2.037175596E-1,2.937411666E-1
2.030374214E1,1.111742035E-1,-3.588727489E-2,3.348206580E-1
2.032385157E1,1.101052165E-1,-5.848862603E-2,3.168006539E-1
2.034396094E1,-5.573981255E-2,-8.246437646E-3,2.028776407E-1
2.036407032E1,-3.292466700E-1,-5.451811850E-2,9.307785332E-2
2.038417975E1,-5.396835804E-1,-1.058292910E-1,5.993938819E-2
2.040428912E1,-5.241069198E-1,-3.161134571E-2,7.383616269E-2
2.042439850E1,-3.304683566E-1,4.734066129E-2,7.124006003E-2
2.044450792E1,-1.253764033E-1,2.748812735E-2,6.146650389E-2
2.046461730E1,-3.924693540E-2,-7.223268598E-2,2.970244735E-2
2.048472667E1,-8.154810965E-2,-1.522536725E-1,-5.031854287E-2
2.050483610E1,-1.710372269E-1,-1.539335102E-1,-1.381278336E-1
2.052494548E1,-2.278460264E-1,-1.076618284E-1,-1.766112149E-1
2.054505485E1,-1.821851879E-1,-7.406523079E-2,-1.440836042E-1
2.056516428E1,-8.658760041E-2,-1.197260618E-1,-1.356844455E-1
2.058527365E1,-1.832541777E-3,-2.403683960E-1,-1.517191827E-1
2.060538303E1,6.795676053E-2,-3.764346242E-1,-1.697391868E-1
2.062549245E1,1.053711548E-1,-4.758500159E-1,-2.044047713E-1
2.064560183E1,1.284306347E-1,-4.694361091E-1,-2.120403498E-1
2.066571120E1,1.424801201E-1,-3.929274976E-1,-2.366269529E-1
2.068582063E1,1.469087601E-1,-1.817270666E-1,-2.350998372E-1
2.070593001E1,9.972081333E-2,-2.107423097E-1,-1.840940863E-1
2.072603938E1,-6.245913357E-2,-4.274403751E-1,-1.888281554E-1
2.074614881E1,-2.423536479E-1,-2.400629669E-1,-1.816506982E-1
2.076625818E1,-5.370874405E-1,-3.629959822E-1,-3.387911618E-1
2.078636756E1,-8.801545501E-1,-6.079457402E-1,-6.516976953E-1
2.080647699E1,-9.181798100E-1,-2.625116110E-1,-8.725189567E-1
2.082658636E1,-4.385883212E-1,6.456655264E-1,-8.650360703E-1
2.084669574E1,2.695363462E-1,1.047450304E0,-5.851153135E-1
2.086680516E1,7.989882231E-1,6.241331697E-1,-2.289913595E-1
2.088691454E1,1.012173891E0,-1.226275861E-1,3.260397166E-2
2.090702396E1,8.716790676E-1,-5.357130170E-1,-9.323056042E-2
2.092713334E1,4.552339315E-1,-4.367557764E-1,-4.117874205E-1
2.094724272E1,-1.786728203E-2,-3.374931216E-2,-5.881695747E-1
2.096735209E1,-3.788780272E-1,3.139754832E-1,-6.138251424E-1
2.098746152E1,-5.405998230E-1,3.939964771E-1,-4.728721380E-1
2.100757089E1,-4.538595080E-1,3.454341292E-1,-2.292967886E-1
2.102768032E1,-1.479777545E-1,2.231119573E-1,-1.046075951E-2
2.104778969E1,2.354816198E-1,8.093725890E-2,1.150683537E-1
2.106789907E1,4.645493329E-1,-4.749337584E-2,1.130831018E-1
2.108800850E1,4.233171642E-1,-9.330692142E-2,5.932854116E-2
2.110811787E1,1.779092699E-1,-6.704048812E-2,1.733279042E-2
2.112822725E1,-1.249182671E-1,-1.236965694E-2,-8.933641016E-3
2.114833667E1,-3.138227761E-1,3.069507517E-2,8.322793990E-3
2.116844605E1,-2.967190444E-1,8.170082420E-2,4.741701856E-2
2.118855548E1,-1.081199646E-1,1.261399537E-1,9.582666308E-2
2.120866485E1,9.712471068E-2,9.498675168E-2,1.428619027E-1
2.122877423E1,1.928750277E-1,5.421269313E-2,1.946312040E-1
2.124888365E1,1.479777545E-1,6.016845629E-2,2.147891670E-1
2.126899303E1,2.855710872E-2,9.697200358E-2,1.825669706E-1
2.128910240E1,-8.322793990E-2,1.386623234E-1,1.225512326E-1
2.130921183E1,-1.072036922E-1,1.754658818E-1,9.765920788E-2
2.132932120E1,-6.398624927E-2,1.823379099E-1,1.185807213E-1
2.134943063E1,-1.221694518E-3,1.954711229E-1,1.602710485E-1
2.136954001E1,3.802524135E-2,2.252499312E-1,1.535517275E-1
2.138964938E1,3.573456407E-2,2.237228155E-1,1.228566542E-1
2.140975881E1,3.436015919E-2,1.496575773E-1,1.417929232E-1
2.142986818E1,9.086353332E-2,1.838650256E-1,2.364742458E-1
2.144997761E1,1.317902952E-1,2.531961799E-1,3.623087704E-1
2.147008699E1,2.000524849E-2,1.525591016E-1,4.473692477E-1
2.149019636E1,-2.454078794E-1,5.344913341E-3,4.293492734E-1
2.151030579E1,-6.400152445E-1,-4.616478086E-1,1.738623977E-1
2.153041516E1,-8.384642005E-1,-6.180247068E-1,-9.002361447E-2
2.155052459E1,-4.824166298E-1,-6.398624927E-2,-1.970745921E-1
2.157063397E1,2.194468826E-1,5.992411375E-1,-1.088071689E-1
2.159074334E1,7.780666947E-1,6.760551929E-1,1.098761484E-1
2.161085277E1,8.774821162E-1,8.551861346E-2,3.207711577E-1
2.163096214E1,5.141806602E-1,-6.342121959E-1,3.348206580E-1
2.165107157E1,4.199574888E-2,-7.519529462E-1,2.317401767E-1
2.167118094E1,-1.860029846E-1,-4.697415531E-1,1.973800212E-1
2.169129032E1,-1.644706279E-1,-1.203369126E-1,1.468324065E-1
2.171139975E1,-4.046862945E-2,9.804098308E-2,1.336991936E-1
2.173150912E1,4.779879749E-2,3.863608837E-2,1.599656194E-1
2.175161855E1,8.246438205E-2,-1.123958975E-1,1.876064688E-1
2.177172792E1,9.941539168E-2,-1.843231618E-1,1.981435865E-1
2.179183730E1,8.475505561E-2,-1.258345395E-1,1.732515544E-1
2.181194673E1,1.420219894E-2,-3.313846514E-2,1.402658075E-1
2.183205610E1,-7.864658535E-2,1.023169141E-2,1.106397063E-1
2.185216553E1,-1.365243644E-1,4.123218823E-3,7.322531193E-2
2.187227490E1,-1.305686086E-1,-2.000524849E-2,4.451549426E-2
2.189238433E1,-9.697200358E-2,-1.420219894E-2,3.718532622E-2
2.191249370E1,-9.086353332E-2,1.068982668E-2,3.107685409E-2
2.193260308E1,-1.168245375E-1,2.657185495E-2,1.152974181E-2
2.195271251E1,-1.142284349E-1,5.772506446E-2,-1.298050396E-3
2.197282188E1,-5.909947306E-2,8.719844371E-2,-2.221956849E-2
2.199293131E1,2.596100792E-3,6.963659078E-2,-4.665346071E-2
2.201304068E1,5.192201585E-2,1.634016447E-2,-5.184566230E-2
2.203315011E1,8.658760041E-2,-2.076880634E-2,-6.452073902E-2
2.205325949E1,1.172826737E-1,-3.802524135E-2,-5.367820337E-2
2.207336891E1,1.314848661E-1,-1.165191159E-1,-3.046600707E-2
2.209347829E1,8.017370105E-2,-2.451024652E-1,-6.024480984E-2
2.211358766E1,5.344913341E-3,-3.512371778E-1,-9.368869662E-2
2.213369709E1,-3.191677108E-2,-3.347443044E-1,-1.013242900E-1
2.215380647E1,-3.130592033E-2,-2.194468826E-1,-9.048175067E-2
2.217391589E1,-9.834641218E-2,-2.722851634E-1,-8.956547827E-2
2.219402527E1,-3.547495604E-1,-5.276193023E-1,-1.211768240E-1
2.221413469E1,-6.784985662E-1,-5.459447503E-1,-2.077644169E-1
2.223424407E1,-8.555679321E-1,-2.489202619E-1,-3.494809866E-1
2.225435350E1,-7.342383862E-1,6.872031838E-2,-4.653892517E-1
2.227446287E1,-4.156815708E-1,3.003841341E-1,-5.302917957E-1
2.229457230E1,-1.447708011E-1,3.538332880E-1,-5.704549551E-1
2.231468167E1,8.948912472E-2,3.103103936E-1,-5.391490459E-1
2.233479105E1,3.419217467E-1,1.882936656E-1,-5.171585679E-1
2.235490048E1,5.340332389E-1,-2.214321308E-2,-5.298336148E-1
2.237500985E1,5.485408306E-1,-2.762556672E-1,-5.128826499E-1
2.239511928E1,3.686463237E-1,-3.494046330E-1,-4.931828082E-1
2.241522865E1,8.658760041E-2,-2.182251811E-1,-5.012765527E-1
2.243533808E1,-1.614163816E-1,-9.636115283E-2,-4.542413056E-1
2.245544745E1,-2.515163720E-1,1.145338640E-2,-3.296284378E-1
2.247555688E1,-1.320957243E-1,1.611109674E-1,-1.715717167E-1
2.249566626E1,1.458397806E-1,2.628170252E-1,-2.970244735E-2
2.251577568E1,4.140017331E-1,1.682884246E-1,4.970769584E-2
2.253588506E1,5.479300022E-1,-1.969982497E-2,8.819106966E-2
2.255599449E1,5.280774832E-1,-1.206423342E-1,9.414683282E-2
2.257610386E1,3.466558158E-1,-1.844758689E-1,6.192464009E-2
2.259621329E1,5.253286287E-2,-1.786728203E-1,1.870719716E-2
2.261632266E1,-2.017323077E-1,-7.925742865E-2,-3.382566571E-2
2.263643209E1,-3.130592108E-1,7.910472155E-2,-1.187334359E-1
2.265654146E1,-2.793098986E-1,1.774511337E-1,-1.433200389E-1
2.267665089E1,-1.440072358E-1,1.879882365E-1,-1.022405624E-1
2.269676027E1,-1.450762246E-2,9.941539168E-2,-6.894938648E-2
2.271686969E1,4.504998401E-2,3.206948191E-2,-4.924955964E-2
2.273697907E1,3.680354729E-2,6.459710002E-2,-4.237752780E-2
2.275708850E1,-1.740914769E-2,1.168245375E-1,-6.711684167E-2
2.277719787E1,-6.948387623E-2,1.475196183E-1,-9.063446522E-2
2.279730730E1,-5.100574717E-2,1.879882365E-1,-8.819106966E-2
2.281741667E1,2.214321308E-2,2.150182426E-1,-8.223531395E-2
2.283752610E1,1.032331884E-1,2.118112892E-1,-6.146650389E-2
2.285763548E1,1.264453828E-1,1.345391124E-1,-4.390464723E-2
2.287774490E1,9.315420687E-2,3.665083647E-2,-4.810422193E-3
2.289785428E1,1.137702987E-1,5.405998230E-2,7.627955079E-2
2.291796370E1,2.208212912E-1,2.145601064E-1,1.077381819E-1
2.293807308E1,2.930539846E-1,3.898732662E-1,1.152210608E-1
2.295818251E1,1.504211426E-1,2.180724740E-1,1.578276604E-1
2.297829188E1,-1.204896197E-1,-3.756710514E-2,2.224247605E-1
2.299840131E1,-3.249707520E-1,-2.134911120E-1,2.470113635E-1
2.301851068E1,-4.410317242E-1,-4.123218954E-1,2.097496837E-1
2.303862011E1,-3.953709006E-1,-4.080459774E-1,1.607291847E-1
2.305872949E1,-6.673506647E-2,1.313321572E-2,1.579803675E-1
2.307883891E1,4.402681589E-1,5.447230339E-1,3.019876182E-1
2.309894829E1,7.802046537E-1,6.308525205E-1,5.137988925E-1
2.311905772E1,8.141067028E-1,2.544178963E-1,6.701757908E-1
2.313916709E1,5.902311802E-1,-2.014268786E-1,6.622347832E-1
2.315927652E1,3.162661791E-1,-3.907895386E-1,4.956261814E-1
2.317938589E1,1.588202864E-1,-2.513636351E-1,3.161898255E-1
2.319949532E1,1.166718230E-1,5.314370990E-2,2.138728946E-1
2.321960469E1,7.238540053E-2,2.953446507E-1,1.811925620E-1
2.323971412E1,-3.619270027E-2,3.290939629E-1,2.047101855E-1
2.325982350E1,-1.324011385E-1,2.289150059E-1,2.551050782E-1
2.327993292E1,-1.366770715E-1,1.372879148E-1,2.743467689E-1
2.330004230E1,-8.170082420E-2,8.231166750E-2,2.480803430E-1
2.332015173E1,-3.756710514E-2,4.627167806E-2,2.213557810E-1
2.334026110E1,-3.726168349E-2,2.855710872E-2,2.074590027E-1
2.336037053E1,-6.413896382E-2,1.206423342E-2,1.995179802E-1
2.338047995E1,-6.673506647E-2,7.085828483E-2,2.030303627E-1
2.340058933E1,-3.374931216E-2,1.551551968E-1,2.033357769E-1
2.342069876E1,-1.527118124E-2,1.311794519E-1,1.895917207E-1
2.344080813E1,-4.932591692E-2,2.153236605E-2,1.463742703E-1
2.346091756E1,-1.078145429E-1,-3.038965166E-2,8.651123941E-2
2.348102693E1,-1.365243644E-1,-2.977880463E-2,4.207210615E-2
2.350113636E1,-1.301104724E-1,-3.741439432E-2,2.374668792E-2
2.352124574E1,-9.865183383E-2,-6.169557199E-2,3.336753324E-2
2.354135516E1,-5.986303091E-2,-6.948387623E-2,4.191939160E-2
2.356146459E1,-9.926267900E-3,-7.452336699E-2,3.336753324E-2
2.358157396E1,2.015795931E-2,-1.539335102E-1,4.046862945E-3
2.360168339E1,1.068982761E-3,-2.095206082E-1,-3.016058356E-2
2.362179277E1,-2.367033064E-2,-1.670667231E-1,-4.711159319E-2
2.364190219E1,-2.565558441E-2,-1.148392856E-1,-3.825430945E-2
2.366201157E1,-2.840439789E-2,-1.038440317E-1,3.061871976E-2
2.368212100E1,-9.743013978E-2,-3.190149665E-1,7.597412914E-2
2.370223037E1,-2.837385535E-1,-6.594096422E-1,-1.145338640E-3
2.372233980E1,-4.217900336E-1,-4.205683470E-1,-9.429954737E-2
2.374244917E1,-4.738647640E-1,-3.955236077E-2,-1.811925620E-1
2.376255860E1,-4.953971207E-1,-1.408002973E-1,-2.729723752E-1
2.378266803E1,-4.446968138E-1,-2.232646793E-1,-3.221455812E-1
2.380277740E1,-2.692309320E-1,4.123219103E-2,-3.838411570E-1
2.382288683E1,6.749862432E-2,2.967190444E-1,-3.762055635E-1
2.384299620E1,4.463766217E-1,2.541124523E-1,-2.627406716E-1
2.386310563E1,7.093463540E-1,2.061609551E-2,-1.298813969E-1
2.388321501E1,7.232431769E-1,-2.670929730E-1,-1.156791970E-1
2.390332443E1,4.072824121E-1,-4.651601911E-1,-2.920613587E-1
2.392343386E1,-3.878879920E-2,-3.923166394E-1,-4.939463735E-1
2.394354324E1,-3.678827584E-1,-2.015796006E-1,-6.255839467E-1
2.396365266E1,-4.795151055E-1,5.864133686E-2,-6.439093947E-1
2.398376204E1,-3.547495604E-1,3.281776905E-1,-4.950153530E-1
2.400387147E1,-5.696150661E-2,4.782933891E-1,-2.751103342E-1
2.402398084E1,2.220429778E-1,3.723114133E-1,-1.256054640E-1
2.404409027E1,3.764346242E-1,2.006633282E-1,-3.749075159E-2
2.406419964E1,3.796415627E-1,1.047603041E-1,-2.221956849E-2
2.408430907E1,2.115058601E-1,3.817795217E-2,-7.169819623E-2
2.410441850E1,-4.443913698E-2,-2.825168520E-2,-9.628479928E-2
2.412452787E1,-2.031067163E-1,-2.412846684E-2,-9.933903813E-2
2.414463730E1,-1.701209545E-1,6.032116711E-2,-9.933903813E-2
2.416474667E1,-1.893626526E-2,1.528645307E-1,-5.199837312E-2
2.418485610E1,1.223221645E-1,1.899735034E-1,1.611109637E-2
2.420496548E1,1.710372269E-1,1.643179059E-1,4.894413799E-2
2.422507490E1,1.459924877E-1,1.478250325E-1,5.749600008E-2
2.424518433E1,8.108997345E-2,1.386623234E-1,4.253023863E-2
2.426529370E1,-3.970507067E-3,1.139230132E-1,2.069245093E-2
2.428540313E1,-4.001049697E-2,1.188097894E-1,1.580567285E-2
2.430551251E1,-1.527118147E-4,1.224748790E-1,1.183516532E-2
2.432562193E1,6.765133142E-2,1.191152185E-1,2.389939874E-2
2.434573136E1,9.697200358E-2,1.140757278E-1,3.810159862E-2
2.436584074E1,8.826743066E-2,1.171299592E-1,3.687990457E-2
2.438595016E1,3.634541109E-2,9.101624042E-2,3.199312463E-2
2.440605959E1,-1.496575773E-2,8.444963396E-2,6.253548712E-2
2.442616897E1,-5.039490014E-2,1.806580722E-1,1.146102175E-1
2.444627839E1,-1.511846930E-1,6.093201414E-2,1.634780020E-1
2.446638777E1,-3.348970115E-1,-2.072299272E-1,1.747786701E-1
2.448649719E1,-4.999784827E-1,-2.490729690E-1,1.492757946E-1
2.450660657E1,-5.740436912E-1,-2.544178963E-1,9.048175067E-2
2.452671600E1,-4.391991794E-1,-6.887302548E-2,2.527380548E-2
2.454682537E1,-1.214058921E-1,2.188360244E-1,3.260397166E-2
2.456693480E1,2.154763639E-1,3.927747905E-1,1.022405624E-1
2.458704423E1,4.663818777E-1,4.013266563E-1,1.958529055E-1
2.460715360E1,6.143596172E-1,3.400892019E-1,2.819823623E-1
2.462726303E1,5.769452453E-1,9.407047927E-2,3.203130364E-1
2.464737245E1,3.617742956E-1,-3.736858070E-1,3.342097998E-1
2.466748183E1,1.088835225E-1,-6.975875497E-1,2.937411666E-1
2.468759126E1,-6.566607952E-2,-6.142069101E-1,1.825669706E-1
2.470770063E1,-2.156290859E-1,-2.889307439E-1,1.366770733E-2
2.472781006E1,-2.860292196E-1,1.748550236E-1,-3.703261539E-2
2.474791943E1,-2.318165302E-1,4.570664763E-1,8.147175610E-2
2.476802886E1,-1.481304616E-1,3.648285270E-1,2.193705291E-1
2.478813829E1,-7.727217674E-2,1.171299592E-1,3.087069392E-1
2.480824766E1,-4.031591862E-2,-7.467607409E-2,2.702235579E-1
2.482835709E1,-3.833066672E-2,-8.719844371E-2,1.506502032E-1
2.484846646E1,-5.573981255E-2,-9.162709117E-3,5.978667364E-2
2.486857589E1,-9.040539712E-2,3.298575059E-2,4.344651103E-2
2.488868532E1,-1.224748790E-1,3.054236248E-2,9.597937763E-2
2.490879469E1,-1.250709742E-1,2.076880634E-2,1.193442866E-1
2.492890412E1,-1.194206402E-1,-4.398100078E-2,6.345175952E-2
2.494901355E1,-1.166718230E-1,-1.023169160E-1,2.290677221E-4
2.496912292E1,-1.056765765E-1,-1.127013192E-1,-2.557922900E-2
2.498923235E1,-9.361234307E-2,-7.879929990E-2,-3.321481869E-2
2.500934173E1,-7.406523079E-2,-5.283828825E-2,-2.557922900E-2
2.502945115E1,-4.902049154E-2,-6.261184067E-2,-2.374668792E-2
2.504956058E1,-7.788302377E-3,-6.490252167E-2,-3.993413970E-2
2.506966995E1,3.680354729E-2,-8.658760041E-2,-7.047650218E-2
2.508977938E1,6.566607952E-2,-1.276670843E-1,-9.384141117E-2
2.510988876E1,9.819369763E-2,-1.527118087E-1,-9.674293548E-2
2.512999818E1,1.345391124E-1,-1.792836636E-1,-9.399411827E-2
2.515010761E1,1.491994411E-1,-2.687727809E-1,-9.735377878E-2
2.517021699E1,1.322484314E-1,-3.165715933E-1,-1.297286898E-1
2.519032641E1,1.236965731E-1,-2.492256761E-1,-1.646996886E-1
2.521043579E1,1.435490996E-1,-1.911951900E-1,-1.387386769E-1
2.523054522E1,8.307522535E-2,-4.949389994E-1,-1.059056446E-1
2.525065464E1,-7.956285775E-2,-5.835118294E-1,-1.088071689E-1
2.527076402E1,-3.107685447E-1,-4.731011987E-1,-1.770693511E-1
2.529087344E1,-5.563291311E-1,-4.379774928E-1,-3.232145607E-1
2.531098282E1,-6.029062271E-1,-9.865183383E-2,-4.252260625E-1
2.533109225E1,-4.393518865E-1,4.262186885E-1,-4.675272107E-1
2.535120167E1,-2.681619525E-1,5.453338623E-1,-4.519506097E-1
2.537131105E1,-7.223268598E-2,3.523061574E-1,-2.806079686E-1
2.539142048E1,2.402156889E-1,2.298312783E-1,-9.368869662E-2
2.541152990E1,5.712949038E-1,1.249182671E-1,-4.161396995E-2
2.543163928E1,7.511894107E-1,-5.543438718E-2,-1.794363745E-2
2.545174870E1,6.548282504E-1,-2.635805905E-1,-3.550549597E-2
2.547185813E1,2.803788781E-1,-4.011739492E-1,-1.541625708E-1
2.549196751E1,-2.136438340E-1,-3.729222417E-1,-3.135937154E-1
2.551207693E1,-5.807630420E-1,-1.605001241E-1,-4.015557170E-1
2.553218631E1,-6.372663975E-1,2.357870489E-1,-3.664320111E-1
2.555229574E1,-3.362714052E-1,6.235223413E-1,-1.679066420E-1
2.557240516E1,8.475505561E-2,5.938962698E-1,4.665346071E-2
2.559251454E1,3.717005551E-1,2.362451702E-1,1.566059589E-1
2.561262396E1,4.850127101E-1,-7.040014863E-2,1.385859698E-1
2.563273334E1,4.054498672E-1,-1.255291104E-1,-3.825430945E-2
2.565284277E1,1.705790907E-1,-2.076880634E-2,-1.853157878E-1
2.567295219E1,-9.177979827E-2,7.192726433E-2,-1.905079931E-1
2.569306157E1,-2.451024652E-1,1.180462316E-1,-1.350736022E-1
2.571317100E1,-2.156290859E-1,1.679829955E-1,-7.322531193E-2
2.573328037E1,-5.482354015E-2,1.820324808E-1,-4.359922186E-2
2.575338980E1,7.971556485E-2,1.030804738E-1,-5.688514933E-2
2.577349923E1,9.666658193E-2,4.123219103E-2,-6.161921844E-2
2.579360865E1,5.024218559E-2,1.166718230E-1,-3.000787087E-2
2.581371803E1,4.092676565E-2,2.397575527E-1,4.222481698E-2
2.583382745E1,8.735115826E-2,2.451024652E-1,1.176644564E-1
2.585393683E1,1.605001241E-1,1.925695986E-1,1.663795263E-1
2.587404626E1,2.137965411E-1,1.136175916E-1,1.756949425E-1
2.589415568E1,1.876828223E-1,-2.336490713E-2,1.627144367E-1
2.591426506E1,9.071081877E-2,-7.406523079E-2,1.573695242E-1
2.593437449E1,1.847812906E-2,2.626643144E-2,1.604237556E-1
2.595448391E1,1.985253580E-2,9.345962852E-2,1.662268043E-1
2.597459329E1,6.856760383E-2,3.603998944E-2,1.921878159E-1
2.599470272E1,1.246128380E-1,-3.619270027E-2,1.876064688E-1
2.601481209E1,1.765348613E-1,-1.832541823E-2,1.326302141E-1
2.603492152E1,1.760767251E-1,-4.275930673E-2,6.497887522E-2
2.605503094E1,1.082726792E-1,-1.122431830E-1,4.146125913E-2
2.607514032E1,1.282779220E-2,-1.601946950E-1,5.573981442E-3
2.609524975E1,-5.894676223E-2,-1.887518018E-1,-6.650599837E-2
2.611535917E1,-7.834116369E-2,-1.493521482E-1,-1.159846261E-1
2.613546855E1,-4.352286831E-2,-4.413371533E-2,-1.288124174E-1
2.615557798E1,-3.359660041E-3,1.985253580E-2,-1.260636002E-1
2.617568735E1,-3.329117596E-2,8.551862091E-3,-1.194969937E-1
2.619579678E1,-1.087308154E-1,-3.939964995E-2,-1.017824262E-1
2.621590620E1,-1.530172378E-1,-1.985253580E-2,-9.093988687E-2
2.623601558E1,-1.707318127E-1,-6.108472589E-3,-7.765395939E-2
2.625612501E1,-1.792836636E-1,-2.351761982E-2,-5.031854287E-2
2.627623443E1,-1.759240031E-1,-2.428117767E-2,-3.153498843E-2
2.629634381E1,-1.369825006E-1,1.756185852E-2,-2.221956849E-2
2.631645324E1,-8.322793990E-2,4.398100078E-2,6.032116711E-3
2.633656266E1,-3.863608837E-2,-9.926267900E-3,5.825955793E-2
2.635667204E1,-2.611372061E-2,-2.626643144E-2,8.987089992E-2
2.637678146E1,-4.917320609E-2,-7.330167107E-3,8.483141661E-2
2.639689084E1,-6.169557199E-2,3.390202299E-2,8.055548370E-2
2.641700027E1,-4.947862774E-2,7.605048269E-2,7.689040154E-2
2.643710969E1,-3.771981969E-2,9.025268257E-2,7.765395939E-2
2.645721907E1,-5.238015205E-2,6.795676053E-2,7.108735293E-2
2.647732850E1,-6.994201243E-2,4.917320609E-2,5.230379477E-2
2.649743792E1,-7.803573459E-2,4.825693369E-2,2.420482226E-2
2.651754730E1,-6.902574003E-2,6.856760383E-2,2.283041552E-2
2.653765672E1,-5.940489471E-2,5.451811850E-2,4.222481698E-2
2.655776615E1,-4.291202128E-2,2.535016090E-2,6.070294604E-2
2.657787553E1,-6.719320081E-3,3.863608837E-2,6.314633787E-2
2.659798495E1,1.634016447E-2,1.435491070E-2,4.756972939E-2
2.661809433E1,-8.704573847E-3,-2.244863659E-2,1.748550311E-2
2.663820376E1,-6.016845629E-2,2.901524538E-3,-1.076618303E-2
2.665831318E1,-8.811471611E-2,3.100049868E-2,-8.475505747E-3
2.667842256E1,-5.726693198E-2,5.879404768E-2,8.017370477E-3
2.669853199E1,2.229592577E-2,6.276455522E-2,2.389939874E-2
2.671864141E1,8.383878320E-2,4.138490185E-2,2.588465251E-2
2.673875079E1,9.666658193E-2,3.756710514E-2,2.313583903E-2
2.675886022E1,5.757235363E-2,5.329642445E-2,4.352286924E-3
2.677896959E1,-8.857285604E-3,3.756710514E-2,-2.053973824E-2
2.679907902E1,-4.764608666E-2,4.123219103E-2,-3.016058356E-2
2.681918844E1,-1.618745178E-2,5.482354015E-2,-3.489464894E-2
2.683929782E1,3.894151375E-2,3.283303976E-2,-4.497363046E-2
2.685940725E1,6.597150117E-2,-2.137965523E-3,-4.879142344E-2
2.687951667E1,4.367557913E-2,-2.290677279E-2,-6.726955622E-2
2.689962605E1,-6.872031838E-3,-2.229592577E-2,-7.429429889E-2
2.691973548E1,-3.741439432E-2,-1.435491070E-2,-5.535803363E-2
2.693984490E1,-5.909947306E-2,-1.282779220E-2,-5.810684711E-2
2.695995428E1,-6.261184067E-2,-9.773556143E-3,-4.253023863E-2
2.698006370E1,-3.130592033E-2,-7.330167107E-3,-2.221956849E-2
2.700017308E1,1.206423342E-2,-6.566607859E-3,-9.239064530E-3
2.702028251E1,4.413371533E-2,5.039489828E-3,-6.795675959E-3
2.704039193E1,3.481829539E-2,3.054236295E-4,-2.649549954E-2
2.706050131E1,-1.145338640E-2,-8.551862091E-3,-3.886515647E-2
2.708061074E1,-4.321744293E-2,-3.206948051E-3,-3.245126083E-2
2.710072016E1,-3.665083647E-2,2.443389036E-3,-9.239064530E-3
2.712082954E1,-1.313321572E-2,-1.832541777E-3,1.076618303E-2
2.714093896E1,-1.221694518E-3,-9.926267900E-3,-3.436015919E-3
2.716104839E1,-1.985253580E-2,-2.229592577E-2,-3.306210786E-2
2.718115777E1,-6.413896382E-2,-3.894151375E-2,-5.092938989E-2
2.720126719E1,-7.864658535E-2,-1.252236869E-2,-2.481566928E-2
2.722137657E1,-6.139015034E-2,-2.748812549E-3,-3.588727675E-3
2.724148600E1,-4.947862774E-2,-3.665083647E-2,-2.672456671E-3
2.726159542E1,-3.863608837E-2,-3.817795217E-2,4.046862945E-3
2.728170480E1,-1.847812906E-2,1.404948719E-2,1.198787708E-2
2.730181422E1,-8.704573847E-3,2.672456764E-2,2.221956849E-2
2.732192365E1,-1.557660475E-2,1.374406274E-3,3.871244565E-2
2.734203303E1,-1.084253844E-2,-6.719320081E-3,4.772244394E-2
2.736214245E1,1.130067464E-2,2.687728032E-2,5.138752609E-2
2.738225188E1,2.351761982E-2,1.557660475E-2,5.276193097E-2
2.740236126E1,1.466033421E-2,-2.748812735E-2,3.978142887E-2
2.742247068E1,2.748812549E-3,-1.435491070E-2,1.259872504E-2
2.744258011E1,2.748812549E-3,1.236965694E-2,-8.017370477E-3
2.746268949E1,1.466033421E-2,2.305948362E-2,-8.933641016E-3
2.748279891E1,1.771457121E-2,5.803049076E-3,-2.367033157E-3
2.750290829E1,-4.886778072E-3,-2.290677279E-3,-1.244601328E-2
2.752301772E1,-2.519745007E-2,1.908897609E-2,-2.542651631E-2
2.754312714E1,-1.588202827E-2,3.252761811E-2,-3.092414327E-2
2.756323652E1,1.603474095E-2,5.039489828E-3,-2.451024577E-2
2.758334594E1,5.344913527E-2,-1.740914769E-2,-1.030804776E-2
2.760345532E1,7.070557028E-2,-2.061609551E-2,-7.711946499E-3
2.762356475E1,4.978405312E-2,-1.832541777E-3,-1.214058883E-2
2.764367417E1,-6.261184346E-3,-7.941014133E-3,-2.099787444E-2
2.766378355E1,-4.902049154E-2,-3.665083554E-3,-2.267770469E-2
2.768389298E1,-3.481829539E-2,-0.000000000E0,-8.170082234E-3
2.770400240E1,1.496575773E-2,-1.985253533E-3,-3.283303929E-3
2.772411178E1,4.581354558E-2,-1.557660475E-2,-5.268557463E-3
2.774422120E1,2.229592577E-2,-3.420744836E-2,-1.672194339E-2
2.776433058E1,-2.275406010E-2,-2.458660305E-2,-1.656923257E-2
2.778444001E1,-3.359659761E-2,1.603474095E-2,3.588727675E-3
2.780454943E1,-1.527118124E-2,1.832541823E-2,1.244601328E-2
2.782465881E1,1.832541777E-3,-1.191152167E-2,1.198787708E-2
2.784476824E1,1.527118147E-3,-2.092151903E-2,9.697199799E-3
2.786487766E1,-2.046338283E-2,-2.321219631E-2,8.399150101E-4
2.788498704E1,-5.405998230E-2,-1.114796288E-2,-6.490251981E-3
2.790509647E1,-6.398624927E-2,3.817795310E-3,8.399150101E-4
2.792520589E1,-3.802524135E-2,2.855710872E-2,5.726693198E-3
2.794531527E1,7.177455351E-3,4.581354558E-2,2.099787444E-2
2.796542469E1,5.039490014E-2,3.161134571E-2,4.207210615E-2
2.798553407E1,7.284353673E-2,2.458660305E-2,5.291464552E-2
2.800564350E1,6.841489673E-2,2.779355086E-2,4.879142344E-2
2.802575292E1,3.283303976E-2,1.068982668E-2,2.649549954E-2
2.804586230E1,4.581354442E-4,-1.527118147E-3,1.519482583E-2
2.806597172E1,-1.985253533E-3,8.093725890E-3,3.283303929E-3
2.808608110E1,1.985253580E-2,5.803049076E-3,1.145338640E-3
2.810619053E1,5.024218559E-2,1.206423342E-2,3.130592173E-3
2.812629995E1,4.611896724E-2,8.399149403E-3,-8.780929260E-3
2.814640933E1,2.046338283E-2,-3.206948051E-3,-1.275143679E-2
2.816651876E1,3.665083554E-3,-9.468132630E-3,-2.221956849E-2
2.818662818E1,-2.748812549E-3,-9.468132630E-3,-3.046600707E-2
2.820673756E1,-1.175880991E-2,-1.725643501E-2,-3.535278514E-2
2.822684699E1,-1.786728203E-2,-3.359660041E-3,-3.810159862E-2
2.824695636E1,-1.236965694E-2,3.359660041E-3,-4.039227590E-2
2.826706579E1,-1.023169141E-2,3.985778242E-2,-3.489464894E-2
2.828717522E1,-1.618745178E-2,4.169032723E-2,-2.008160390E-2
2.830728459E1,-7.024743594E-3,2.046338283E-2,-1.947075687E-2
2.832739402E1,1.710372418E-2,-1.175880991E-2,-3.642176837E-2
2.834750344E1,2.825168520E-2,1.527118147E-3,-3.733803704E-2
2.836761282E1,1.985253533E-3,1.572931744E-2,-2.878617682E-2
2.838772225E1,-3.741439432E-2,7.024743594E-3,-1.595838554E-2
2.840783162E1,-5.070032179E-2,-1.359135192E-2,1.450762269E-3
2.842794105E1,-1.725643501E-2,-1.695101149E-2,1.427855436E-2
2.844805048E1,2.397575416E-2,-3.222219273E-2,1.137703005E-2
2.846815985E1,4.428642616E-2,-4.886778072E-2,7.101099472E-3
2.848826928E1,3.374931216E-2,-4.382828996E-2,-2.519744914E-3
2.850837865E1,-5.344913341E-3,-3.787253052E-2,-1.794363745E-2
2.852848808E1,-4.504998401E-2,-3.619270027E-2,-3.382566571E-2
2.854859751E1,-5.833591148E-2,-3.512371704E-2,-4.726430774E-2
2.856870688E1,-2.290677279E-2,-6.872031838E-3,-4.527905211E-2
2.858881631E1,4.092676565E-2,2.596100792E-3,-3.214583546E-2
2.860892568E1,8.842013776E-2,-3.390202299E-2,-2.283041552E-2
2.862903511E1,8.582404256E-2,-6.444438547E-2,-2.466295846E-2
2.864914454E1,4.413371533E-2,-4.963133857E-2,-3.352024406E-2
2.866925391E1,-1.267508045E-2,-1.221694518E-3,-5.719057471E-2
2.868936334E1,-6.001574174E-2,-0.000000000E0,-6.314633787E-2
2.870947272E1,-5.436540768E-2,-3.161134571E-2,-4.588989913E-2
2.872958214E1,-1.969982497E-2,-4.642439261E-2,-3.214583546E-2
2.874969157E1,4.123218823E-3,-4.734066129E-2,-1.656923257E-2
2.876980094E1,5.039489828E-3,-4.092676565E-2,-8.322793990E-3
2.878991037E1,-1.191152167E-2,-1.985253580E-2,-5.726693198E-3
2.881001975E1,-3.420744836E-2,-9.162708884E-4,-2.290677221E-4
2.883012917E1,-4.077405483E-2,1.175880991E-2,1.450762269E-3
2.885023860E1,-2.580829710E-2,8.704573847E-3,-4.352286924E-3
2.887034798E1,-1.221694518E-3,-2.748812549E-3,-2.061609412E-3
2.889045740E1,1.038440317E-2,4.581354442E-4,1.000262424E-2
2.891056683E1,-0.000000000E0,1.206423342E-2,2.191414498E-2
2.893067620E1,-2.275406010E-2,-6.108472589E-4,3.092414327E-2
2.895078563E1,-1.908897609E-2,1.221694518E-3,3.932329267E-2
2.897089501E1,1.908897609E-2,2.290677279E-2,4.008685052E-2
2.899100443E1,5.512896553E-2,3.481829539E-2,4.512634128E-2
2.901111381E1,4.856235534E-2,7.635590737E-4,4.527905211E-2
2.903122324E1,1.374406368E-2,-2.489202656E-2,3.611634299E-2
2.905133266E1,-1.343864016E-2,-3.817795310E-3,2.344126441E-2
2.907144204E1,-1.145338640E-2,3.176405653E-2,1.351499557E-2
2.909155147E1,1.527118124E-2,2.412846684E-2,1.183516532E-2
2.911166084E1,5.803048983E-2,1.893626526E-2,2.619007602E-2
2.913177027E1,6.520794332E-2,-6.872031838E-3,1.458397787E-2
2.915187969E1,4.734066315E-3,-3.909422457E-2,-2.053973824E-2
2.917198907E1,-6.154286116E-2,-2.611372061E-2,-4.100312293E-2
2.919209850E1,-6.368082762E-2,2.825168520E-2,-3.520007432E-2
2.921220787E1,-1.863084175E-2,4.138490185E-2,-4.504998680E-3
2.923231730E1,2.367033064E-2,-7.635590737E-4,1.290414855E-2
2.925242673E1,3.909422457E-2,-3.527642787E-2,-2.672456671E-3
2.927253610E1,2.809897438E-2,-1.847812906E-2,-1.397313084E-2
2.929264553E1,6.108472589E-4,3.817795310E-3,-8.933641016E-3
2.931275490E1,-2.916795574E-2,4.886778072E-3,-4.657710437E-3
2.933286433E1,-4.077405483E-2,1.282779220E-2,-1.030804776E-2
2.935297370E1,-4.062134400E-2,-7.788302377E-3,-2.206685767E-2
2.937308313E1,-2.962609194E-2,-3.466558084E-2,-2.130329795E-2
2.939319256E1,4.275931045E-3,-2.626643144E-2,-3.817795368E-4
2.941330193E1,3.390202299E-2,2.748812549E-3,1.794363745E-2
2.943341136E1,3.100049868E-2,4.581354558E-3,2.344126441E-2
2.945352074E1,-9.315420873E-3,-3.665083554E-3,1.275143679E-2
2.947363016E1,-4.230117425E-2,6.719320081E-3,7.406522986E-3
2.949373959E1,-3.787253052E-2,4.123218823E-3,1.534753758E-2
2.951384896E1,-4.734066315E-3,-2.199050039E-2,2.298312820E-2
2.953395839E1,2.672456764E-2,-1.542389300E-2,1.763821393E-2
2.955406777E1,3.023693897E-2,9.009997360E-3,1.030804776E-2
2.957417719E1,6.719320081E-3,1.191152167E-2,1.443126611E-2
2.959428662E1,-1.236965694E-2,-3.512371797E-3,2.542651631E-2
2.961439600E1,-1.603474095E-2,-1.068982668E-2,3.122956678E-2
2.963450542E1,-1.236965694E-2,2.290677279E-3,3.413109109E-2
2.965461480E1,-1.084253844E-2,1.786728203E-2,3.321481869E-2
2.967472423E1,-6.872031838E-3,5.955760833E-3,3.031329438E-2
2.969483360E1,5.497625098E-3,-1.038440317E-2,2.664821222E-2
2.971494303E1,1.878355257E-2,-1.634016447E-2,2.664821222E-2
2.973505245E1,2.336490713E-2,-1.710372418E-2,2.680092305E-2
2.975516183E1,2.580829710E-2,1.542389300E-2,2.313583903E-2
2.977527126E1,2.886253223E-2,3.680354729E-2,2.573194169E-2
2.979538063E1,3.268032894E-2,1.801999472E-2,2.420482226E-2
2.981549006E1,4.734066129E-2,1.130067464E-2,2.970244735E-2
2.983559943E1,5.299099907E-2,3.665083554E-3,2.909160033E-2
2.985570886E1,1.298050396E-2,-4.046862945E-2,1.824906096E-2
2.987581829E1,-3.924693540E-2,-5.131116882E-2,1.916533336E-2
2.989592766E1,-4.871506989E-2,-8.246437646E-3,2.145601064E-2
2.991603709E1,-1.542389300E-2,1.817270555E-2,2.573194169E-2
2.993614646E1,2.840439789E-2,-2.137965336E-2,3.718532622E-2
2.995625589E1,4.275930673E-2,-5.726693198E-2,4.008685052E-2
2.997636527E1,1.786728203E-2,-5.222744122E-2,4.955498502E-2
2.999647469E1,-1.924168877E-2,-3.848337755E-2,5.734328553E-2
3.001658412E1,-4.886778072E-2,-5.085303262E-2,4.726430774E-2
3.003669350E1,-3.833066672E-2,-6.658235192E-2,4.100312293E-2
3.005680292E1,-1.282779220E-2,-8.735115826E-2,3.352024406E-2
3.007691230E1,-5.803049076E-3,-1.052184403E-1,2.374668792E-2
3.009702172E1,-1.557660475E-2,-1.032331884E-1,2.367033157E-3
3.011713110E1,-2.519745007E-2,-8.979454637E-2,-2.061609412E-3
3.013724053E1,-7.024743594E-3,-5.818320066E-2,1.656923257E-2
3.015734990E1,1.618745178E-2,-1.985253580E-2,2.451024577E-2
3.017745933E1,8.551862091E-3,7.024743594E-3,3.229855001E-2
3.019756876E1,-1.847812906E-2,6.872031838E-3,3.733803704E-2
3.021767813E1,-1.572931744E-2,-7.635590620E-3,4.207210615E-2
3.023778756E1,4.337015375E-2,1.084253844E-2,3.199312463E-2
3.025789693E1,9.086353332E-2,1.435491070E-2,6.032116711E-3
3.027800636E1,8.399149776E-2,1.679829881E-2,2.214321401E-3
3.029811574E1,3.176405653E-2,5.650337320E-3,4.504998680E-3
3.031822516E1,-1.679830020E-3,-2.901524538E-3,1.603474026E-3
3.033833454E1,1.236965694E-2,-2.947338112E-2,-5.726693198E-3
3.035844397E1,6.169557199E-2,-3.848337755E-2,-8.628217503E-3
3.037855334E1,7.803573459E-2,-3.374931216E-2,-1.840177365E-2
3.039866277E1,4.795150831E-2,-2.580829710E-2,-1.397313084E-2
3.041877219E1,-3.359660041E-3,-3.833066672E-2,-1.091889478E-2
3.043888157E1,-4.520269856E-2,-2.962609194E-2,-9.239064530E-3
3.045899100E1,-3.939964995E-2,1.053711493E-2,-2.680092305E-2
3.047910037E1,2.015795931E-2,4.016320780E-2,-1.122431830E-2
3.049920980E1,5.192201585E-2,1.664558798E-2,3.817795368E-4
3.051931917E1,2.672456764E-2,-6.872031838E-3,2.420482226E-2
3.053942860E1,4.581354442E-4,1.985253533E-3,3.382566571E-2
3.055953798E1,5.375456065E-2,5.192201585E-3,3.092414327E-2
3.057964740E1,1.281252056E-1,-3.451287001E-2,2.267770469E-2
3.059975678E1,1.582094431E-1,-6.276455522E-2,2.802261710E-2
3.061986620E1,1.235438585E-1,-5.680879578E-2,3.168770298E-2
3.063997558E1,7.818844914E-2,-4.443913698E-2,5.199837312E-2
3.066008501E1,5.650337040E-2,6.413896102E-3,5.398362502E-2
3.068019443E1,4.367557913E-2,3.603998944E-2,5.703786388E-2
3.070030381E1,3.619270027E-2,3.145863488E-2,6.360447407E-2
3.072041324E1,3.817795217E-2,2.214321308E-2,4.741701856E-2
3.074052261E1,3.191677108E-2,9.468132630E-3,2.802261710E-2
3.076063204E1,7.635590620E-3,2.855710872E-2,2.573194169E-2
3.078074141E1,-1.618745178E-2,5.283828825E-2,3.153498843E-2
3.080085084E1,-1.664558798E-2,4.840964451E-2,2.130329795E-2
3.082096022E1,-1.221694518E-2,2.962609194E-2,4.504998680E-3
3.084106964E1,-9.468132630E-3,2.076880634E-2,-7.864658721E-3
3.086117902E1,2.137965523E-3,2.611372061E-2,-8.017370477E-3
3.088128844E1,-3.206948051E-3,2.779355086E-2,-4.199574701E-3
3.090139782E1,-2.886253223E-2,2.199050039E-2,-4.810422193E-3
3.092150725E1,-4.046862945E-2,1.007897966E-2,-1.687465608E-2
3.094161662E1,-1.969982497E-2,1.695101149E-2,-3.565821052E-2
3.096172605E1,-3.665083554E-3,2.168507688E-2,-4.085041210E-2
3.098183542E1,-1.420219894E-2,2.214321308E-2,-3.306210786E-2
3.100194485E1,-3.145863488E-2,2.886253223E-2,-2.206685767E-2
3.102205422E1,-4.596625641E-2,2.199050039E-2,-2.664821222E-2
3.104216365E1,-8.704573661E-2,1.435491070E-2,-1.366770733E-2
3.106227308E1,-1.514901221E-1,2.596100792E-2,-5.268557463E-3
3.108238245E1,-1.719534993E-1,3.252761811E-2,-1.908897655E-3
3.110249188E1,-1.128540337E-1,1.298050396E-2,-1.840177365E-2
3.112260126E1,-1.374406274E-3,-1.908897609E-2,-3.855973482E-2
3.114271068E1,8.628217876E-2,-3.741439432E-2,-4.191939160E-2
3.116282006E1,8.032641560E-2,-3.237490356E-2,-2.741177008E-2
3.118292949E1,8.551862091E-3,-1.527118147E-4,-1.275143679E-2
3.120303886E1,-4.978405312E-2,1.801999472E-2,-8.399150101E-4
3.122314829E1,-3.359659761E-2,1.114796288E-2,-2.290677221E-4
3.124325766E1,1.252236869E-2,7.024743594E-3,-1.763821393E-2
3.126336709E1,3.069507517E-2,-9.620844387E-3,-3.367295489E-2
3.128347647E1,-7.574506104E-2,4.184303805E-2,-4.146125913E-2
3.130358589E1,-3.950654566E-1,2.443389036E-2,-9.849912487E-3
3.132369527E1,-2.423536479E-1,3.176405653E-2,1.244601328E-2
3.134380469E1,8.643488586E-2,-9.468132630E-3,-7.689040154E-2
3.136391407E1,4.324798584E-1,-9.437590092E-2,-1.445417255E-1
