"Time (s)","Acceleration x (m/s^2)","Acceleration y (m/s^2)","Acceleration z (m/s^2)"
4.770293400E-2,-5.837290764E0,4.306482315E0,5.566901684E0
6.756595500E-2,-5.961717606E0,4.196412563E0,6.457630157E0
8.743434000E-2,-5.741578102E0,4.071985722E0,7.391428947E0
1.072973090E-1,-5.559723377E0,4.138985157E0,7.645068169E0
1.271657470E-1,-5.550152302E0,4.426722050E0,7.592426300E0
1.470287150E-1,-5.387440205E0,4.484149456E0,7.592426300E0
1.668971010E-1,-5.057230473E0,4.344767570E0,7.625925541E0
1.867601220E-1,-4.975874901E0,4.344767570E0,7.621140003E0
2.066285070E-1,-5.023731232E0,4.311268330E0,7.947162151E0
2.264915280E-1,-4.779065132E0,4.177269936E0,8.296514511E0
2.463599130E-1,-4.582853794E0,4.162913322E0,8.444869041E0
2.662229340E-1,-4.573282242E0,4.244269371E0,8.564510345E0
2.860913200E-1,-4.405784607E0,4.162913322E0,8.674580574E0
3.059543400E-1,-4.247858524E0,4.205984116E0,8.583653450E0
3.258227260E-1,-4.123431683E0,4.263411522E0,8.492725372E0
3.456857470E-1,-3.864408493E0,4.258625984E0,8.617152214E0
3.655540800E-1,-3.476771355E0,3.918845177E0,9.058030128E0
3.854171530E-1,-3.141776085E0,3.507279873E0,9.416953087E0
4.052854860E-1,-3.022135019E0,3.272184849E0,1.012104130E1
4.251485590E-1,-2.935993433E0,2.985046148E0,1.041296577E1
4.450168920E-1,-2.830111027E0,2.831905603E0,9.412167549E0
4.648799130E-1,-2.940778971E0,2.941975355E0,8.602795601E0
4.847482990E-1,-3.026920557E0,2.989831924E0,7.649854183E0
5.046113200E-1,-2.676970243E0,3.367897987E0,7.085147858E0
5.244797050E-1,-1.432104349E0,3.981058598E0,7.247859955E0
5.443427260E-1,-9.535398483E-1,3.559921980E0,7.286144733E0
5.642111110E-1,-1.317248821E0,3.018545866E0,7.128218651E0
5.840741320E-1,-1.752742529E0,2.841476917E0,7.391428947E0
6.039425170E-1,-2.514258385E0,2.951546669E0,8.401798248E0
6.238055380E-1,-3.199203968E0,3.071187973E0,9.464810371E0
6.436739240E-1,-3.806980848E0,2.736192703E0,9.053244591E0
6.635369450E-1,-2.681756020E0,3.114258766E0,8.306085587E0
6.834053300E-1,-1.570888042E0,3.181257725E0,8.833105087E0
7.032683510E-1,-1.518245935E0,2.918047190E0,9.182456970E0
7.231367360E-1,-1.623530149E0,2.740978241E0,9.014959335E0
7.429997570E-1,-1.680957913E0,2.640479803E0,8.497511864E0
7.628681420E-1,-2.164906263E0,2.606980324E0,8.138587952E0
7.827311630E-1,-2.935993433E0,2.798406124E0,7.865806103E0
8.025995490E-1,-2.782254457E0,2.664407969E0,8.018946648E0
8.224625700E-1,-2.653042078E0,2.372483730E0,7.861020565E0
8.423309550E-1,-2.289333105E0,2.065604210E0,8.468797684E0
8.621939760E-1,-2.073979139E0,1.835893154E0,9.522237778E0
8.820623610E-1,-1.700100541E0,1.453041553E0,1.017846966E1
9.019253820E-1,-1.795813441E0,9.499505758E-1,1.106441212E1
9.217937670E-1,-2.255833626E0,9.451649189E-1,1.185882950E1
9.416567880E-1,-1.814955950E0,5.288137794E-1,1.230449200E1
9.615251740E-1,-1.293320656E0,4.857429862E-1,1.224706459E1
9.813881950E-1,-7.908278704E-1,2.895315289E-1,1.171047401E1
1.001256580E0,-1.068395257E0,3.038884699E-1,1.149033451E1
1.021119601E0,-2.040479422E0,2.751746178E-1,1.138504982E1
1.040987986E0,-2.782254457E0,2.410768867E-1,1.132762241E1
1.060851007E0,-2.069193363E0,-3.475574851E-1,1.111226845E1
1.080719392E0,-9.248259664E-1,-8.267202377E-1,1.048475075E1
1.100582413E0,-1.020538807E0,-1.992024779E-1,1.017368412E1
1.120450799E0,-1.240678549E0,2.506481707E-1,1.088195896E1
1.140313820E0,-1.704886079E0,4.187439680E-1,1.158126163E1
1.160182205E0,-1.700100541E0,6.580262445E-3,1.134197903E1
1.180045226E0,-1.968694806E0,1.597209126E-1,1.088674450E1
1.199913611E0,-2.614757061E0,5.479564071E-1,1.004447079E1
1.219892361E0,-2.447259426E0,7.680960894E-1,8.708079338E0
1.239645174E0,-2.227119684E0,1.131805062E0,7.913662910E0
1.259508195E0,-2.136192322E0,1.323829174E0,7.616354465E0
1.279376632E0,-1.968694806E0,1.634896040E0,7.334001541E0
1.299239601E0,-1.834696770E0,1.974676847E0,6.893722057E0
1.319107986E0,-1.700100541E0,2.142174482E0,6.750152588E0
1.338970955E0,-2.734398127E0,1.807179332E0,7.338787079E0
1.358839340E0,-3.553341627E0,1.050449133E0,7.779066563E0
1.378702309E0,-2.844467878E0,1.386042476E0,7.271788120E0
1.398570747E0,-2.815753937E0,1.926820397E0,7.832306862E0
1.418433715E0,-2.442473650E0,2.022533417E0,7.865806103E0
1.438302153E0,-1.858624935E0,2.784049034E0,6.927221775E0
1.458165122E0,-2.638685226E0,3.157329559E0,6.591628075E0
1.478033507E0,-3.237488985E0,2.956332445E0,7.381857872E0
1.497896528E0,-3.342773199E0,2.712264538E0,8.406583786E0
1.517764965E0,-3.232703447E0,2.755335331E0,8.900103569E0
1.537627986E0,-2.916850805E0,2.812762976E0,9.196813583E0
1.557496320E0,-2.715255499E0,3.138186932E0,9.589237213E0
1.577359392E0,-3.079562664E0,3.478565931E0,1.000618649E1
1.597227778E0,-3.323630571E0,3.392424345E0,1.036989498E1
1.617090799E0,-2.657827854E0,3.531208038E0,1.098784161E1
1.636959184E0,-9.248259664E-1,3.559921980E0,1.363549995E1
1.656822205E0,6.508477330E-1,2.669193745E0,1.525903034E1
1.676690590E0,-1.489532143E-1,1.644467354E0,1.455494213E1
1.696553663E0,-1.417747378E0,1.409970760E0,1.255334568E1
1.716422049E0,-1.709671736E0,2.166102648E0,1.068096161E1
1.736285070E0,-6.323033571E-1,3.195614576E0,8.847461700E0
1.756153455E0,3.014956415E-1,3.780061483E0,7.477570534E0
1.776016476E0,3.110669553E-1,4.004986763E0,7.319644451E0
1.795884913E0,2.775674164E-1,3.847060680E0,8.057231903E0
1.815747934E0,2.823530734E-1,3.545564890E0,8.540582657E0
1.835616320E0,1.190429255E-1,3.454637766E0,8.406583786E0
1.855479392E0,9.990034252E-2,3.411566973E0,8.148159027E0
1.875347778E0,1.621137410E-1,3.238685369E0,7.884948730E0
1.895210799E0,-8.338986635E-1,3.075973511E0,7.295716286E0
1.915079184E0,-4.601995945E0,2.760120869E0,7.018148899E0
1.934942205E0,-4.673780918E0,2.635694027E0,6.951149940E0
1.954810642E0,-2.064407825E0,4.009772778E0,7.176074982E0
1.974673663E0,-4.121637046E-1,4.766502857E0,8.143373489E0
1.994542049E0,1.142572835E-1,5.182853699E0,7.549355507E0
2.014405122E0,-3.882354796E-1,5.638088226E0,6.625127792E0
2.034273507E0,-1.494317770E0,5.446064472E0,6.347560406E0
2.054136528E0,-2.322832584E0,5.504090309E0,6.127420425E0
2.074004913E0,-2.045265198E0,5.843871117E0,6.093921185E0
2.093867986E0,-2.298904419E0,6.327221394E0,6.400202274E0
2.113736372E0,-2.538186550E0,6.595815659E0,6.798008919E0
2.133599392E0,-2.174477577E0,6.351149559E0,7.405786037E0
2.153467830E0,-1.925624013E0,5.805585861E0,7.937591076E0
2.173330851E0,-2.404188633E0,5.528018475E0,8.511868477E0
2.193199236E0,-3.299702406E0,5.791228771E0,9.469595909E0
2.213062309E0,-3.261417150E0,6.245865345E0,1.051346493E1
2.232930695E0,-1.978266120E0,6.384648800E0,1.156690502E1
2.252793767E0,-1.034895778E0,6.006583214E0,1.194497108E1
2.272662153E0,-7.184450030E-1,4.876572609E0,1.153340530E1
2.292525226E0,-6.466603279E-1,3.478565931E0,1.128455162E1
2.312393611E0,-1.183250785E0,3.047259569E0,1.110269737E1
2.332256632E0,-1.097109199E0,3.315255880E0,1.072881889E1
2.352125070E0,-4.887340367E-1,3.286541939E0,1.056610680E1
2.371988090E0,7.226324677E-1,2.616551638E0,1.025982571E1
2.391856528E0,1.771286964E0,2.391626120E0,9.708877563E0
2.411719549E0,2.264208317E0,2.468196630E0,9.134600639E0
2.431587986E0,1.847857237E0,2.285743713E0,8.478368759E0
2.451451007E0,1.350150228E0,2.233101845E0,8.219944000E0
2.471319392E0,9.332008362E-1,2.559123755E0,7.563712597E0
2.491182465E0,6.939185858E-1,2.736192703E0,6.285346985E0
2.511050851E0,5.455635786E-1,3.430709362E0,5.432903767E0
2.530913924E0,7.417750359E-1,4.052843571E0,4.691128731E0
2.550782309E0,7.082754970E-1,4.359124660E0,4.613960266E0
2.570645382E0,2.578266263E-1,4.685146809E0,5.571687698E0
2.590513767E0,1.142572835E-1,4.900500774E0,6.462415695E0
2.610376840E0,3.732803464E-1,4.833501816E0,7.094718933E0
2.630245278E0,5.312066078E-1,4.890929699E0,7.990232944E0
2.650108299E0,3.876372576E-1,5.154139996E0,8.411369324E0
2.669976684E0,7.597211748E-2,5.431707382E0,8.062017441E0
2.689839757E0,-1.393819153E-1,5.690730572E0,7.568498135E0
2.709708195E0,3.158525825E-1,5.475376606E0,7.865806103E0
2.729571267E0,1.258624673E0,4.881358147E0,9.440881729E0
2.749439653E0,1.977069736E0,4.512863636E0,1.119362450E1
2.769302726E0,2.360519648E0,3.981058598E0,1.155254745E1
2.789171111E0,3.006581545E0,3.416352510E0,1.144247818E1
2.809034184E0,3.466601849E0,3.717848301E0,1.097348499E1
2.828902570E0,2.403590441E0,4.555934429E0,1.102612686E1
2.848765642E0,2.599801779E0,3.708276987E0,1.174875927E1
2.868634028E0,2.417947292E0,3.483351469E0,1.185404301E1
2.888497101E0,1.962712765E0,3.507279873E0,1.170090294E1
2.908365486E0,2.168495417E0,3.176471949E0,1.041775131E1
2.928228559E0,1.220339537E0,3.281756163E0,8.914461136E0
2.948096997E0,2.919243574E-1,3.152543783E0,8.148159027E0
2.967960017E0,-4.217349887E-1,2.874976397E0,7.961519241E0
2.987828455E0,-8.338986635E-1,2.468196630E0,8.382656097E0
3.007691528E0,-8.721838593E-1,2.118246317E0,8.847461700E0
3.027559913E0,-6.897311211E-1,1.874178290E0,8.981459618E0
3.047422986E0,-1.025324464E0,1.898106575E0,8.497511864E0
3.067291372E0,-1.350748420E0,2.084746838E0,7.865806103E0
3.087154445E0,-1.657029629E0,2.228316069E0,7.578069210E0
3.107022882E0,-1.853839397E0,2.247458696E0,7.472784996E0
3.126885955E0,-1.652244091E0,2.257030010E0,7.889734268E0
3.146754340E0,-1.484746456E0,2.261815548E0,8.478368759E0
3.166617413E0,-1.278963685E0,2.276172638E0,8.924032211E0
3.186485799E0,-8.721838593E-1,2.391626120E0,9.005388260E0
3.206348872E0,-3.643072546E-1,2.477767944E0,8.789435387E0
3.226217257E0,1.190429255E-1,2.554338217E0,8.674580574E0
3.246080330E0,-5.700899959E-1,2.573480844E0,8.191229820E0
3.265948767E0,-1.916052699E0,2.295315027E0,8.588438988E0
3.285811840E0,-2.509472847E0,1.907677889E0,1.005404282E1
3.305680226E0,-2.619542599E0,1.476969719E0,1.115533924E1
3.325543299E0,-2.298904419E0,1.366899967E0,1.105005455E1
3.345411736E0,-2.193620205E0,1.472184181E0,1.029811001E1
3.365274809E0,-2.332403898E0,1.376471281E0,9.929615974E0
3.385143195E0,-2.289333105E0,1.002592683E0,1.114576817E1
3.405006267E0,-1.892124534E0,2.027917206E-1,1.328136253E1
3.424874653E0,-1.527817249E0,-5.916253924E-1,1.435873032E1
3.444737726E0,-1.283749342E0,-6.921239495E-1,1.426301765E1
3.464606163E0,-7.812566161E-1,-3.092723191E-1,1.400878048E1
3.484469236E0,-2.877369225E-1,-1.034895778E-1,1.372164154E1
3.504337674E0,1.860419661E-1,1.262213886E-1,1.341057491E1
3.524200695E0,4.163511395E-1,3.708875179E-1,1.279741383E1
3.544069132E0,3.589234054E-1,5.766702294E-1,1.147119141E1
3.563932205E0,2.147558331E-1,1.021735311E0,9.460023880E0
3.583916424E0,1.477568001E-1,1.596610904E0,7.861020565E0
3.603663872E0,6.640082598E-2,2.108675003E0,7.085147858E0
3.623532257E0,1.094716340E-1,2.429911375E0,6.639484406E0
3.643395278E0,1.621137410E-1,2.616551638E0,6.270989895E0
3.663263715E0,-2.063809484E-1,2.913261652E0,6.046064377E0
3.683126736E0,-6.418746710E-1,3.276970625E0,5.840281963E0
3.702995122E0,-8.099704385E-1,3.617349625E0,5.883352757E0
3.722858142E0,-9.296116233E-1,3.894917011E0,6.093921185E0
3.742726632E0,-1.154536963E0,4.215555191E0,6.577271461E0
3.762589653E0,-9.391828775E-1,4.373481750E0,7.051648140E0
3.782458142E0,-6.610172391E-1,4.441078663E0,7.310073376E0
3.802321163E0,-5.078766346E-1,4.517649174E0,7.640282631E0
3.822189549E0,-4.552344978E-1,4.575077057E0,7.995018482E0
3.842052622E0,-6.466603279E-1,4.488935471E0,8.339585304E0
3.861921059E0,-1.336391449E0,4.402195454E0,8.325227737E0
3.881784132E0,-1.892124534E0,4.517649174E0,8.315656662E0
3.901652517E0,-1.911267042E0,4.666004181E0,8.464012146E0
3.921515642E0,-1.724028707E0,4.699503899E0,8.789435387E0
3.941384028E0,-1.844268084E0,5.087141037E0,8.478368759E0
3.961247101E0,-1.983051777E0,5.762515068E0,7.434499741E0
3.981115538E0,-1.211964726E0,6.016154289E0,7.817949772E0
4.000978611E0,8.327022791E-1,5.149354458E0,1.111226845E1
4.020847049E0,2.623729944E0,3.942773581E0,1.408116341E1
4.040710070E0,2.461018085E0,3.636492252E0,1.391306686E1
4.060578507E0,1.119840980E0,4.210769653E0,1.199821091E1
4.080441580E0,-1.537388563E-1,4.733003139E0,9.555737495E0
4.100310017E0,-1.030110121E0,5.350351334E0,8.215158463E0
4.120173090E0,-8.338986635E-1,5.513661385E0,8.296514511E0
4.140041528E0,-6.281159073E-2,4.977071285E0,9.043673515E0
4.159904601E0,-7.716853172E-2,4.325624943E0,9.345169067E0
4.179773038E0,-5.892325640E-1,3.861417532E0,9.196813583E0
4.199636111E0,-9.104689956E-1,3.775275946E0,8.693722725E0
4.219504549E0,-1.245464206E0,3.890131474E0,7.961519241E0
4.239367622E0,-1.398604870E0,4.124628067E0,7.491927624E0
4.259236059E0,-1.207179070E0,4.253840446E0,7.109076023E0
4.279099132E0,-9.487541914E-1,4.335196495E0,6.744768620E0
4.298967570E0,-8.434699774E-1,4.479363918E0,6.481558323E0
4.318830590E0,-1.513460279E0,4.675575256E0,6.026922226E0
4.338699080E0,-2.609971285E0,4.790431023E0,4.825126648E0
4.358562101E0,-2.002194405E0,4.172484398E0,4.121038914E0
4.378430590E0,-9.008977413E-1,4.344767570E0,5.365904808E0
4.398293663E0,6.843472719E-1,4.201198578E0,7.171289444E0
4.418162101E0,9.140582681E-1,4.742574692E0,8.339585304E0
4.438025174E0,-4.073780477E-1,5.187639713E0,9.359525681E0
4.457893611E0,-1.240678549E0,4.776073933E0,9.790233612E0
4.477756684E0,-1.599601984E0,4.795216560E0,9.708877563E0
4.497625122E0,-1.264606714E0,5.154139996E0,9.728020668E0
4.517488195E0,2.871387303E-1,4.512863636E0,1.125105190E1
4.537356684E0,7.034898400E-1,3.808775425E0,1.232363510E1
4.557219705E0,-2.590230405E-1,3.990629911E0,1.130848026E1
4.577088195E0,-1.111466169E0,4.771288395E0,9.958329201E0
4.596951215E0,-7.519445419E-1,5.082355499E0,1.052782154E1
4.616819705E0,6.747759581E-1,3.866203070E0,1.235234833E1
4.636682778E0,1.134197950E0,2.822334290E0,1.249591827E1
4.656551267E0,2.291127741E-1,2.927618504E0,1.145204926E1
4.676414288E0,-1.633101404E-1,3.224328518E0,1.016411209E1
4.696282830E0,1.381855011E-1,3.358326674E0,9.292527199E0
4.716145851E0,7.226324677E-1,3.382853031E0,8.554939270E0
4.736014340E0,8.949156404E-1,3.507279873E0,7.630711555E0
4.755838924E0,6.460621357E-1,3.473780155E0,7.089933395E0
4.775745903E0,2.775674164E-1,3.353540897E0,7.027719975E0
4.795608976E0,1.854437590E-2,3.276970625E0,7.176074982E0
4.815477465E0,-1.058823988E-1,3.406781197E0,7.123433113E0
4.835340538E0,-1.250249892E-1,3.727419376E0,6.989434719E0
4.855209080E0,1.854437590E-2,4.052843571E0,7.066005230E0
4.875072101E0,3.445664644E-1,4.215555191E0,7.477570534E0
4.894940642E0,3.876372576E-1,4.354339123E0,7.750352383E0
4.914803663E0,2.919243574E-1,4.426722050E0,7.822735310E0
4.934672205E0,2.919243574E-1,4.608576298E0,8.023732185E0
4.954535278E0,6.317051649E-1,4.809573650E0,8.799007416E0
4.974403820E0,1.398006678E0,4.900500774E0,9.799804688E0
4.994266892E0,2.652443886E0,5.034498692E0,1.048953629E1
5.014135382E0,2.642872572E0,5.245067120E0,1.047996521E1
5.033998507E0,1.565504193E0,5.201996326E0,1.034118080E1
5.053866997E0,9.714859724E-1,4.809573650E0,1.015932655E1
5.073730070E0,7.704889178E-1,4.910071850E0,9.823733330E0
5.093598611E0,7.465606928E-1,5.264209747E0,9.378668785E0
5.113461684E0,7.178468108E-1,5.312066078E0,8.900103569E0
5.133330226E0,8.183453679E-1,5.044070244E0,9.014959335E0
5.153193299E0,9.858429432E-1,4.594219685E0,9.378668785E0
5.173061840E0,1.048056364E0,4.220340729E0,9.570094109E0
5.192924913E0,1.134197950E0,3.976273060E0,9.934401512E0
5.212793507E0,1.465005636E0,3.693919897E0,1.055174923E1
5.232656580E0,1.718644857E0,3.612564087E0,1.083410263E1
5.252525122E0,1.555932879E0,3.746562004E0,1.007318497E1
5.272388195E0,1.244267821E0,3.837489367E0,8.871390343E0
5.292256788E0,1.138983607E0,4.004986763E0,8.176873207E0
5.312119861E0,1.326221943E0,4.048057556E0,8.176873207E0
5.331988403E0,1.694716692E0,3.923630953E0,8.602795601E0
5.351851528E0,1.680359721E0,3.909274101E0,8.196015358E0
5.371720122E0,1.057627559E0,4.052843571E0,7.204789162E0
5.391583195E0,5.503492355E-1,4.201198578E0,6.352345943E0
5.411451788E0,9.990034252E-2,4.191627026E0,5.787639618E0
5.431314861E0,-2.733799815E-1,4.162913322E0,5.538187981E0
5.451183455E0,-5.078766346E-1,4.162913322E0,5.519045353E0
5.471046580E0,-3.499503136E-1,4.153341770E0,5.681757450E0
5.490915174E0,-1.016949583E-2,4.239483356E0,5.821139336E0
5.510778247E0,-1.058823988E-1,4.455435753E0,5.825924873E0
5.530646840E0,-5.078766346E-1,4.699503899E0,5.840281963E0
5.550509965E0,-9.774680734E-1,5.044070244E0,5.821139336E0
5.570378559E0,-1.130608678E0,5.359922886E0,5.912066460E0
5.590241684E0,-1.020538807E0,5.618945599E0,6.199205399E0
5.610110278E0,-8.099704385E-1,5.791228771E0,6.653841496E0
5.629973403E0,-5.653043389E-1,5.843871117E0,7.673782349E0
5.649842049E0,-3.643072546E-1,5.752943993E0,8.952746391E0
5.669705174E0,3.290131316E-2,5.638088226E0,1.011147022E1
5.689573767E0,-7.716853172E-2,5.915655613E0,1.087717342E1
5.709436892E0,-3.786641955E-1,6.298507214E0,1.113141060E1
5.729305486E0,-2.111666054E-1,6.519245148E0,1.152383423E1
5.749168663E0,1.142572835E-1,6.245865345E0,1.268255806E1
5.769037257E0,2.243271172E-1,5.331208706E0,1.423430347E1
5.788900382E0,1.860419661E-1,4.363910198E0,1.484686661E1
5.808769028E0,3.302095234E-1,3.631706476E0,1.435873032E1
5.828632205E0,3.541377485E-1,3.367897987E0,1.357328606E1
5.848500799E0,1.668993831E-1,3.329612732E0,1.247198963E1
5.868363976E0,1.375873014E-2,3.190829039E0,1.120798111E1
5.888232570E0,-4.265206456E-1,3.071187973E0,1.023589706E1
5.908095747E0,-7.710871100E-1,2.985046148E0,9.182456970E0
5.927964340E0,-7.471588850E-1,2.989831924E0,8.042875290E0
5.947827570E0,-6.131607890E-1,3.061616659E0,7.085147858E0
5.967696163E0,-4.935196638E-1,3.071187973E0,6.538986206E0
5.987559340E0,-6.370890141E-1,3.013760090E0,6.194419384E0
6.007427986E0,-7.663014531E-1,2.827120066E0,5.888138294E0
6.027291163E0,-8.243274093E-1,2.760120869E0,5.725426197E0
6.047159809E0,-9.248259664E-1,2.726621389E0,5.452046394E0
6.067022986E0,-1.168893814E0,2.673979282E0,5.193621635E0
6.086891580E0,-1.398604870E0,2.937189817E0,5.542973518E0
6.106754809E0,-1.786242127E0,3.348755360E0,6.203990936E0
6.126623455E0,-1.877767563E0,3.770490170E0,5.892923832E0
6.146486632E0,-1.436890006E0,4.632504463E0,6.194419384E0
6.166355278E0,-2.638086975E-1,5.580660820E0,7.582854748E0
6.186218455E0,5.838487148E-1,5.896512985E0,9.359525681E0
6.206087101E0,6.460621357E-1,5.714658737E0,9.948758125E0
6.225950330E0,1.142572835E-1,5.815157413E0,9.268598557E0
6.245818976E0,1.525424421E-1,5.982655048E0,9.795019150E0
6.265682153E0,4.354937077E-1,5.920441628E0,1.111705399E1
6.285550799E0,2.919243574E-1,5.872584820E0,1.176790142E1
6.305414028E0,1.812563092E-1,5.676373482E0,1.170090294E1
6.325282674E0,1.142572835E-1,5.374279499E0,1.193061352E1
6.345145903E0,3.302095234E-1,4.823930264E0,1.276869965E1
6.365014549E0,7.369893789E-1,4.287340164E0,1.372164154E1
6.384877778E0,1.359721422E0,3.367897987E0,1.380778313E1
6.404746424E0,1.465005636E0,2.961117983E0,1.286919880E1
6.424609601E0,9.714859724E-1,3.324826956E0,1.118883896E1
6.444478299E0,6.939185858E-1,3.856631994E0,8.995817184E0
6.464341528E0,8.279166222E-1,4.421936035E0,7.013363361E0
6.484210174E0,8.997012973E-1,4.828716278E0,5.854638577E0
6.504073403E0,8.231309652E-1,4.651647091E0,5.715855122E0
6.523942049E0,2.679961324E-1,3.928416491E0,5.845067501E0
6.543805278E0,-4.695914388E-1,3.281756163E0,6.165705681E0
6.563673976E0,-9.008977413E-1,3.080759048E0,6.649055958E0
6.583537153E0,-1.293320656E0,3.885345697E0,7.070790768E0
6.603405851E0,-9.296116233E-1,3.555136204E0,7.070790768E0
6.623269080E0,-2.398804724E-1,2.855833769E0,6.409773827E0
6.643137778E0,-2.973082066E-1,2.989831924E0,6.108277798E0
6.663001007E0,-3.690928817E-1,3.138186932E0,6.227919102E0
6.682869653E0,-4.025924206E-1,3.559921980E0,6.615556240E0
6.702732882E0,-4.743770957E-1,3.937987804E0,7.133004189E0
6.722601580E0,-6.370890141E-1,4.153341770E0,7.817949772E0
6.742464809E0,-8.051848412E-1,4.560719967E0,8.129016876E0
6.762333507E0,-8.003991842E-1,4.833501816E0,8.373085022E0
6.782196684E0,-7.375875711E-1,5.681159019E0,1.009232807E1
6.802065382E0,3.924229145E-1,5.614160061E0,1.154297638E1
6.821928611E0,1.871785522E0,3.727419376E0,1.044646549E1
6.841797309E0,1.455434322E0,3.013760090E0,9.297312737E0
6.861660538E0,-2.413759947E0,5.273781300E0,9.507881165E0
6.881529236E0,-4.793421745E0,6.949953556E0,9.617950439E0
6.901392517E0,-2.888136864E0,5.402993679E0,9.450452805E0
6.921261163E0,-2.595614433E0,4.809573650E0,1.022154045E1
6.941124392E0,-2.720041037E0,4.618147850E0,1.128455162E1
6.960993142E0,-3.213560820E0,4.450650215E0,1.155733299E1
6.980856320E0,-3.404986620E0,4.421936035E0,1.149512005E1
7.000725070E0,-3.610769272E0,3.655634880E0,1.111226845E1
7.020588299E0,-3.706482172E0,3.358326674E0,1.085803127E1
7.040456997E0,-3.529413462E0,3.099901676E0,1.016411209E1
7.060320226E0,-3.318845034E0,2.597409010E0,8.813364029E0
7.080188924E0,-3.103491068E0,3.119044304E0,8.085946083E0
7.100052205E0,-2.069193363E0,3.516851187E0,8.507082939E0
7.119920903E0,-1.140179992E0,3.449851990E0,8.842676163E0
7.139784184E0,-5.557330847E-1,3.176471949E0,8.100302696E0
7.159652882E0,-7.615157962E-1,2.918047190E0,7.415357590E0
7.179516163E0,-1.825125456E0,2.554338217E0,6.304489613E0
7.199384861E0,-2.112264156E0,2.721835852E0,5.341976643E0
7.219248090E0,-1.456032634E0,3.655634880E0,5.907280922E0
7.239116840E0,-6.179464459E-1,4.062414646E0,5.907280922E0
7.259134497E0,-2.638086975E-1,4.416552544E0,5.816353798E0
7.278849028E0,-7.758727670E-1,4.656432629E0,6.605985165E0
7.298712309E0,-1.202393413E0,4.666004181E0,7.625925541E0
7.318465486E0,-7.758727670E-1,4.646861553E0,8.133802414E0
7.338444080E0,-3.643072546E-1,4.929214478E0,8.306085587E0
7.358312726E0,-8.721838593E-1,5.369493961E0,7.880163193E0
7.378176111E0,-1.278963685E0,5.642873764E0,7.750352383E0
7.398044809E0,-8.003991842E-1,5.374279499E0,8.516654015E0
7.417908090E0,-7.375875711E-1,5.000999451E0,1.011625576E1
7.437776840E0,-1.503889084E0,4.728217602E0,1.160040379E1
7.457640122E0,-1.479960799E0,4.229912281E0,1.227577877E1
7.477508820E0,-1.073180914E0,3.918845177E0,1.210828114E1
7.497372153E0,-6.993024349E-1,3.842274904E0,1.196949673E1
7.517240851E0,-2.063809484E-1,3.847060680E0,1.217527962E1
7.537104132E0,-9.152546525E-2,3.870988846E0,1.187318611E1
7.556972882E0,-2.685943544E-1,4.000201225E0,1.110269737E1
7.576836215E0,-2.685943544E-1,4.225126743E0,9.996614456E0
7.596704913E0,-6.759724021E-2,4.570291042E0,8.650651932E0
7.616568247E0,1.477568001E-1,4.857429981E0,7.673782349E0
7.636436997E0,-1.680957973E-1,4.871787071E0,6.908079147E0
7.656300278E0,2.919243574E-1,4.704289436E0,6.237490654E0
7.676169028E0,7.992027402E-1,4.076771736E0,5.547759533E0
7.696032361E0,5.168496966E-1,3.545564890E0,5.428118229E0
7.715901111E0,1.238285750E-1,3.952344894E0,6.050850391E0
7.735764392E0,9.990034252E-2,3.760919094E0,6.701697826E0
7.755633195E0,5.682953820E-2,3.272184849E0,7.204789162E0
7.775496476E0,-2.925225794E-1,3.190829039E0,7.085147858E0
7.795365226E0,-3.451646566E-1,3.641277790E0,7.018148899E0
7.815228559E0,-7.238288224E-2,4.024129391E0,7.281359196E0
7.835097309E0,-5.802594870E-2,4.129413605E0,7.530212879E0
7.854960642E0,-4.456632137E-1,4.354339123E0,7.640282631E0
7.874829445E0,-1.345962763E0,4.761716843E0,7.956733704E0
7.894692726E0,-2.294118643E0,5.345565796E0,8.191229820E0
7.914561528E0,-2.169692039E0,5.575874805E0,8.895318031E0
7.934424861E0,-1.623530149E0,5.461019516E0,1.017846966E1
7.954293663E0,-1.250249863E0,5.197210789E0,1.107398319E1
7.974156997E0,-8.243274093E-1,5.149354458E0,1.146640587E1
7.994025747E0,-6.227321029E-1,5.383851051E0,1.163868904E1
8.013889080E0,-1.058824062E0,5.628517151E0,1.130848026E1
8.033757882E0,-1.613958836E0,5.714658737E0,1.112662506E1
8.053621215E0,-2.097907305E0,5.748157978E0,1.144726372E1
8.073490017E0,-2.408974171E0,5.388636589E0,1.212742329E1
8.093353351E0,-2.993421078E0,5.455635548E0,1.252463150E1
8.113222153E0,-2.600399971E0,4.833501816E0,1.173918819E1
8.133085486E0,-1.144965649E0,4.000201225E0,1.062353420E1
8.152954288E0,-1.389033556E0,3.899702787E0,1.028853893E1
8.172817622E0,-1.776670814E0,4.043272018E0,9.823733330E0
8.192686424E0,-1.657029629E0,3.899702787E0,9.139386177E0
8.212549809E0,-8.769695163E-1,3.382853031E0,7.856235027E0
8.232418611E0,2.679961324E-1,2.721835852E0,6.701697826E0
8.252281945E0,2.130210400E0,2.449054003E0,6.108277798E0
8.272150747E0,1.637288928E0,3.765704632E0,7.027719975E0
8.292014132E0,7.322037220E-1,3.339184046E0,7.731209755E0
8.311882934E0,8.374879360E-1,2.750549555E0,7.338787079E0
8.331746267E0,5.072783828E-1,3.190829039E0,6.438487530E0
8.351615122E0,2.333002165E-2,3.641277790E0,5.322834015E0
8.371478507E0,-4.073780477E-1,4.024129391E0,4.590032101E0
8.391347309E0,-6.275177598E-1,4.689932346E0,4.585246563E0
8.411210695E0,-8.051848412E-1,5.431707382E0,5.054837704E0
8.431079497E0,-1.049252748E0,5.930012703E0,5.519045353E0
8.450942882E0,-7.860422134E-1,6.422934055E0,5.983851433E0
8.470811684E0,-5.796613097E-1,6.983452797E0,6.663413048E0
8.490675070E0,-2.398804724E-1,7.222734928E0,6.936792850E0
8.510543872E0,-6.275177598E-1,7.936394691E0,7.204789162E0
8.530407257E0,-1.412961721E0,8.999405861E0,7.601997375E0
8.550276111E0,-4.265206456E-1,8.180462837E0,8.090731621E0
8.570139445E0,-5.383851007E-3,7.721040249E0,9.512666702E0
8.590008299E0,1.621137410E-1,7.428517818E0,1.009711361E1
8.609871684E0,4.211367965E-1,6.949953556E0,1.034118080E1
8.629740486E0,4.881358147E-1,6.552744865E0,1.052782154E1
8.649603872E0,5.264210105E-1,6.322435856E0,1.068574810E1
8.669472726E0,4.642075896E-1,6.360720634E0,1.079103184E1
8.689336111E0,3.014956415E-1,6.446862221E0,1.054217815E1
8.709204965E0,5.886343718E-1,6.375077724E0,9.680164337E0
8.729068299E0,7.896314859E-1,6.437291145E0,8.938388824E0
8.748937153E0,7.226324677E-1,6.422934055E0,8.377870560E0
8.768800538E0,6.173482537E-1,6.107081413E0,7.789236069E0
8.788669392E0,6.699903607E-1,5.652445316E0,7.109076023E0
8.808532778E0,7.609176040E-1,5.115854740E0,6.486343861E0
8.828401632E0,6.317051649E-1,4.666004181E0,5.993422508E0
8.848265017E0,3.972085714E-1,4.268197536E0,5.988636971E0
8.868133872E0,1.573280841E-1,3.909274101E0,6.428916454E0
8.887997205E0,1.142572835E-1,3.684348583E0,6.553342819E0
8.907866059E0,1.956132501E-1,3.770490170E0,6.347560406E0
8.927729445E0,4.546363056E-1,3.947559118E0,6.103492260E0
8.947598299E0,7.896314859E-1,4.057629108E0,5.864210129E0
8.967461736E0,6.412764788E-1,4.555934429E0,5.346762180E0
8.987330538E0,3.158525825E-1,5.345565796E0,5.040481091E0
9.007193924E0,2.919243574E-1,5.690730572E0,5.356333256E0
9.027062778E0,5.204389244E-2,5.982655048E0,5.888138294E0
9.046926163E0,-4.121637046E-1,6.504888535E0,6.572485447E0
9.066795017E0,-9.726824164E-1,7.098308563E0,7.200003147E0
9.086658403E0,-1.887338877E0,7.835896015E0,6.701697826E0
9.106527257E0,-2.399402857E0,7.835896015E0,5.739783287E0
9.126390642E0,-1.844268084E0,6.993024349E0,5.868995667E0
9.146259497E0,-6.179464459E-1,6.470790863E0,7.956733704E0
9.166122882E0,7.609176040E-1,7.064808846E0,1.142333508E1
9.185991736E0,1.637288928E0,7.423732281E0,1.315214920E1
9.205855174E0,1.210768223E0,7.074379921E0,1.191147137E1
9.225723976E0,-1.250249892E-1,7.007380962E0,1.022154045E1
9.245587361E0,3.290131316E-2,6.691528320E0,1.088674450E1
9.265456215E0,9.140582681E-1,5.685945034E0,1.292184067E1
9.285319601E0,4.354937077E-1,4.689932346E0,1.337707520E1
9.305188455E0,-4.217349887E-1,4.718646049E0,1.206042480E1
9.325051840E0,-8.338986635E-1,4.843072891E0,1.057567787E1
9.344920695E0,-9.200403094E-1,5.072783947E0,9.278169632E0
9.364784132E0,-2.877369225E-1,4.800002098E0,8.377870560E0
9.384652934E0,4.498506486E-1,4.301696777E0,7.640282631E0
9.404516320E0,8.087740541E-1,3.976273060E0,6.855436802E0
9.424385174E0,1.033699393E0,3.942773581E0,6.031707764E0
9.444248611E0,1.345364571E0,4.182055950E0,5.203192711E0
9.464117413E0,1.340578914E0,4.465006828E0,5.246263504E0
9.483980799E0,5.790630579E-1,4.258625984E0,5.902495384E0
9.503849705E0,-2.590230405E-1,4.105485439E0,5.859424591E0
9.523713090E0,-9.966106415E-1,4.737788677E0,5.523830891E0
9.543581945E0,-1.546959877E0,5.489733219E0,5.361119270E0
9.563445330E0,-1.585245013E0,5.733801365E0,5.964708805E0
9.583314132E0,-1.379462242E0,5.547161102E0,7.357929707E0
9.603177517E0,-1.379462242E0,5.221138954E0,8.861818314E0
9.623046372E0,-1.580459356E0,5.058426857E0,9.225527763E0
9.642909757E0,-1.278963685E0,5.446064472E0,8.550153732E0
9.662778611E0,-2.350948304E-1,6.040082455E0,7.947162151E0
9.682641997E0,4.307080805E-1,6.049654007E0,8.109873772E0
9.702510799E0,7.082754970E-1,5.647659779E0,9.268598557E0
9.722374236E0,3.972085714E-1,5.431707382E0,1.035075283E1
9.742243038E0,1.621137410E-1,5.547161102E0,1.077188969E1
9.762106424E0,4.163511395E-1,5.944369793E0,1.129890823E1
9.781975278E0,6.604190469E-1,6.059225082E0,1.097348499E1
9.801838663E0,7.465606928E-1,5.982655048E0,1.054696369E1
9.821707517E0,1.138983607E0,5.407779217E0,1.129890823E1
9.841570903E0,1.771286964E0,4.780859470E0,1.218485069E1
9.861439705E0,1.804786444E0,4.756931305E0,1.088674450E1
9.881303090E0,1.450648785E0,5.125426292E0,8.330014229E0
9.901171945E0,1.210768223E0,5.446064472E0,6.692126751E0
9.921035278E0,1.048056364E0,5.518447399E0,5.676971912E0
9.940904132E0,1.124626637E0,5.201996326E0,5.222335339E0
9.960767517E0,1.138983607E0,4.575077057E0,5.456831932E0
9.980636320E0,1.091127157E0,4.172484398E0,5.749354839E0
1.000049971E1,1.067198873E0,4.043272018E0,5.633901119E0
1.002036856E1,8.279166222E-1,4.186841488E0,5.528616905E0
1.004023189E1,4.259224236E-1,4.354339123E0,5.638686657E0
1.006010075E1,9.032905847E-2,4.737788677E0,5.605186939E0
1.007996413E1,5.682953820E-2,5.316852093E0,5.418546677E0
1.009983293E1,3.589234054E-1,5.786443233E0,5.365904808E0
1.011969632E1,6.747759581E-1,6.040082455E0,6.213562012E0
1.013956512E1,5.647061467E-1,6.284150600E0,6.941578388E0
1.015942851E1,4.833501875E-1,6.758527756E0,7.022934437E0
1.017929736E1,5.934200287E-1,7.280162811E0,7.180860519E0
1.019916070E1,8.279166222E-1,7.462017536E0,7.755138397E0
1.021902950E1,1.191625714E0,7.385447025E0,8.574081421E0
1.023889288E1,1.608574986E0,7.026523590E0,9.723235130E0
1.025876168E1,1.465005636E0,6.485147476E0,1.068096161E1
1.027862507E1,6.412764788E-1,6.729813576E0,1.076231766E1
1.029849387E1,-1.776670814E-1,7.615756035E0,9.172885895E0
1.031835726E1,-2.590230405E-1,7.811967850E0,8.066802979E0
1.033822606E1,1.860419661E-1,7.227520943E0,9.292527199E0
1.035808945E1,2.823530734E-1,6.418148518E0,1.038425159E1
1.037795825E1,-2.015953064E-1,5.819942951E0,1.010189915E1
1.039782158E1,-4.217349887E-1,5.810371399E0,8.981459618E0
1.041769043E1,-1.872383654E-1,6.494719028E0,8.062017441E0
1.043755377E1,-1.974078640E-2,6.619743824E0,7.856235027E0
1.045742257E1,2.811566554E-2,6.059225082E0,8.296514511E0
1.047728596E1,3.768695518E-2,5.412564754E0,8.880961418E0
1.049715476E1,4.402793646E-1,4.919643402E0,9.349954605E0
1.051701809E1,1.148554921E0,4.532006264E0,8.895318031E0
1.053688689E1,1.205982566E0,4.661218643E0,7.621140003E0
1.055675028E1,5.503492355E-1,5.292923450E0,6.232704639E0
1.057661908E1,-1.537388563E-1,5.901299000E0,5.289334297E0
1.059648241E1,-8.673982322E-2,6.250650883E0,5.667400360E0
1.061635122E1,9.332008362E-1,6.336792469E0,7.262216568E0
1.063621455E1,1.895713687E0,6.427719593E0,8.057231903E0
1.065608340E1,2.264208317E0,6.677171707E0,7.137789726E0
1.067594674E1,2.101496458E0,6.921239376E0,5.590830326E0
1.069581554E1,1.589432478E0,7.131807804E0,4.575675011E0
1.071567887E1,9.954141974E-1,7.251449108E0,4.590032101E0
1.073543220E1,3.589234054E-1,7.280162811E0,5.016552448E0
1.075541085E1,-7.238288224E-2,7.361518860E0,5.600401402E0
1.077527965E1,-3.068794906E-1,7.577471256E0,5.993422508E0
1.079514309E1,-2.350948304E-1,7.692326546E0,5.739783287E0
1.081501189E1,2.003988922E-1,7.390232563E0,6.270989895E0
1.083487528E1,7.417750359E-1,6.897311211E0,7.726424217E0
1.085474403E1,9.523434043E-1,6.442076683E0,8.483154297E0
1.087460741E1,9.427721500E-1,6.533602238E0,8.152944565E0
1.089447622E1,1.225125194E0,7.002595425E0,8.004590034E0
1.091433955E1,1.666002750E0,6.365506649E0,8.392227173E0
1.093432408E1,1.110269666E0,5.245067120E0,9.206384659E0
1.095407184E1,2.434697002E-1,5.125426292E0,9.282955170E0
1.097394059E1,1.326221943E0,5.729015827E0,8.679366112E0
1.099380387E1,2.767299414E0,6.327221394E0,7.544569969E0
1.101367267E1,2.896511793E0,6.648457527E0,6.055635929E0
1.103353601E1,2.268994093E0,6.643671989E0,5.121836662E0
1.105340470E1,1.512862086E0,6.489933014E0,4.786841869E0
1.107326804E1,1.402792215E0,6.131010056E0,5.002195835E0
1.109313684E1,1.431506157E0,5.915655613E0,5.466403484E0
1.111300012E1,1.421934843E0,5.843871117E0,5.859424591E0
1.113286887E1,1.321436286E0,5.824728489E0,6.036493301E0
1.115273226E1,1.229910851E0,5.882156372E0,5.974279881E0
1.117260101E1,1.393221021E0,5.997011662E0,5.686542988E0
1.119246429E1,1.613360643E0,6.107081413E0,5.633901119E0
1.121233309E1,1.809572101E0,6.231508255E0,5.705685616E0
1.123219637E1,1.890928149E0,6.418148518E0,5.672185898E0
1.125206517E1,1.862214208E0,6.547959328E0,5.662614822E0
1.127192851E1,1.981855392E0,6.725028038E0,6.069993019E0
1.129179726E1,2.044068813E0,7.036095142E0,6.605985165E0
1.131166059E1,1.512862086E0,7.337590694E0,6.774080753E0
1.133152934E1,4.929214716E-1,7.533802032E0,6.649055958E0
1.135139262E1,-1.968096644E-1,8.381459236E0,6.428916454E0
1.137126142E1,-1.058823988E-1,8.702695847E0,6.774080753E0
1.139112471E1,3.445664644E-1,8.937192917E0,8.339585304E0
1.141099351E1,5.168496966E-1,9.535398483E0,9.014959335E0
1.143085679E1,7.513462901E-1,9.698708534E0,9.148957253E0
1.145084132E1,1.388435364E0,9.138189316E0,1.063310528E1
1.147058908E1,2.144567251E0,8.213961601E0,1.198385429E1
1.149045778E1,2.394019127E0,7.644470215E0,1.154776192E1
1.151032111E1,1.924427629E0,7.390232563E0,9.732806206E0
1.153018981E1,1.004985452E0,7.452445984E0,8.200801849E0
1.155005314E1,4.833501875E-1,7.447660446E0,7.094718933E0
1.156992184E1,1.573280841E-1,7.323233604E0,6.395416737E0
1.158978517E1,1.477568001E-1,7.007380962E0,5.888138294E0
1.160965387E1,5.503492355E-1,6.456433773E0,5.926423550E0
1.162951720E1,9.954141974E-1,5.800800323E0,6.299703598E0
1.164938590E1,1.172483087E0,5.201996326E0,6.553342819E0
1.166924929E1,1.316650629E0,4.828716278E0,6.443273067E0
1.168911799E1,1.383649707E0,4.809573650E0,5.974279881E0
1.170898132E1,1.335793257E0,5.091926575E0,5.509474277E0
1.172885002E1,1.268195987E0,5.288137913E0,5.222335339E0
1.174871330E1,1.115055323E0,5.556732178E0,4.791627407E0
1.176858205E1,8.327022791E-1,5.949155331E0,4.188037872E0
1.178844533E1,6.747759581E-1,6.351149559E0,3.819543123E0
1.180842986E1,7.322037220E-1,6.638886452E0,4.006183147E0
1.182817762E1,7.848458290E-1,6.729813576E0,4.772484779E0
1.184804632E1,1.033699393E0,6.815955162E0,5.538187981E0
1.186790960E1,1.162911773E0,7.050451756E0,5.926423550E0
1.188777830E1,9.714859724E-1,7.395018578E0,5.456831932E0
1.190764158E1,8.087740541E-1,7.764111042E0,4.700700283E0
1.192751028E1,1.244267821E0,7.701898098E0,5.179264545E0
1.194737356E1,2.144567251E0,7.174878597E0,8.172087669E0
1.196724231E1,2.772084951E0,6.758527756E0,1.138983536E1
1.198710559E1,3.696312666E0,7.098308563E0,1.208913803E1
1.200697429E1,5.123033047E0,7.845467091E0,1.179661560E1
1.202683762E1,4.385445595E0,7.466803074E0,1.106919765E1
1.204670637E1,1.809572101E0,6.619743824E0,1.012104130E1
1.206656965E1,5.204389244E-2,6.308078766E0,9.646664619E0
1.208643835E1,2.333002165E-2,6.427719593E0,9.670592308E0
1.210630163E1,2.195414752E-1,6.729813576E0,9.177671432E0
1.212617038E1,4.725824669E-2,6.959524632E0,7.597211838E0
1.214603366E1,-2.590230405E-1,6.868597507E0,5.614758492E0
1.216590241E1,-2.063809484E-1,6.480361938E0,4.293322086E0
1.218576570E1,8.554340899E-2,5.973083496E0,4.192823410E0
1.220563439E1,4.115654826E-1,5.614160061E0,4.978267670E0
1.222549767E1,8.183453679E-1,5.283352375E0,5.633901119E0
1.224536642E1,8.566305041E-1,5.101497650E0,5.734997749E0
1.226522971E1,3.589234054E-1,5.225924492E0,5.533402443E0
1.228509846E1,-9.152546525E-2,5.364708424E0,5.394618511E0
1.230496174E1,-2.781656384E-1,5.547161102E0,5.557330608E0
1.232483043E1,8.973085321E-3,5.829514027E0,5.859424591E0
1.234469372E1,2.967100143E-1,6.202794552E0,6.055635929E0
1.236456246E1,2.967100143E-1,6.567101955E0,5.935994625E0
1.238442575E1,5.647061467E-1,6.954739094E0,5.821139336E0
1.240429445E1,9.188438654E-1,7.217949390E0,5.504688263E0
1.242415773E1,7.752745152E-1,7.505088329E0,4.805984497E0
1.244402648E1,-4.845465720E-2,8.137392044E0,4.810770035E0
1.246388976E1,-9.870393276E-1,8.443673134E0,6.160920143E0
1.248375846E1,-1.704886079E0,8.247461319E0,8.181658745E0
1.250362174E1,-1.805384636E0,7.563114166E0,1.032203865E1
1.252349043E1,-2.088335991E0,7.366304398E0,1.177268696E1
1.254335372E1,-2.926422119E0,8.118248940E0,1.175354481E1
1.256322246E1,-2.653042078E0,8.534600258E0,1.150469112E1
1.258308570E1,-1.594816327E0,7.630113125E0,1.137547874E1
1.260295444E1,-2.026122570E0,7.088737011E0,1.087238789E1
1.262281773E1,-2.428116798E0,6.480361938E0,1.035075283E1
1.264268677E1,-2.370688915E0,5.695516109E0,9.857233047E0
1.266255005E1,-2.662613392E0,5.335994720E0,9.211171150E0
1.268241875E1,-2.820539713E0,5.292923450E0,8.358727455E0
1.270228203E1,-2.825325251E0,5.178068161E0,7.716853142E0
1.272215072E1,-2.724826813E0,5.029713154E0,7.214360237E0
1.274201401E1,-1.973480463E0,4.953142643E0,6.774080753E0
1.276188270E1,-9.918249846E-1,4.498506546E0,6.395416737E0
1.278174598E1,-6.275177598E-1,4.205984116E0,5.926423550E0
1.280161468E1,-5.653043389E-1,4.134199142E0,5.428118229E0
1.282147791E1,-4.983053207E-1,4.052843571E0,5.059623718E0
1.284130817E1,-5.940182209E-1,4.100699902E0,4.801198483E0
1.286120989E1,-7.710871100E-1,4.201198578E0,4.772484779E0
1.288107859E1,-8.386843204E-1,4.287340164E0,4.637888432E0
1.290094187E1,-7.423732281E-1,4.335196495E0,4.221537113E0
1.292081057E1,-5.318048596E-1,4.618147850E0,3.972683907E0
1.294067385E1,-5.461617708E-1,5.087141037E0,4.164109707E0
1.296054255E1,-4.648058116E-1,5.580660820E0,4.801198483E0
1.298040583E1,-1.776670814E-1,5.992226124E0,5.897709846E0
1.300027453E1,1.621137410E-1,6.595815659E0,7.070790768E0
1.302013776E1,4.737788737E-1,7.261020184E0,7.894520283E0
1.304000645E1,9.044869542E-1,7.692326546E0,8.382656097E0
1.305986973E1,1.359721422E0,7.481160164E0,9.867402077E0
1.307973843E1,1.350150228E0,7.351947784E0,1.151426220E1
1.309960166E1,9.762716293E-1,7.495516777E0,1.211306667E1
1.311947036E1,9.523434043E-1,7.261020184E0,1.215135193E1
1.313933364E1,1.177268744E0,6.571887493E0,1.216570854E1
1.315920234E1,1.014556766E0,6.087938786E0,1.217527962E1
1.317906557E1,8.374879360E-1,5.896512985E0,1.169133186E1
1.319893427E1,1.033699393E0,5.518447399E0,1.105484104E1
1.321879750E1,1.331007600E0,5.225924492E0,1.036989498E1
1.323866619E1,1.479362607E0,5.230710506E0,9.354740143E0
1.325852947E1,1.536790371E0,5.278566837E0,8.272585869E0
1.327839817E1,1.541576028E0,5.230710506E0,7.185646534E0
1.329826140E1,1.551147223E0,5.187639713E0,6.251847267E0
1.331813010E1,1.527219057E0,5.053641319E0,5.600401402E0
1.333799333E1,1.331007600E0,4.661218643E0,5.605186939E0
1.335786208E1,9.427721500E-1,4.441078663E0,5.921638012E0
1.337772526E1,7.800601721E-1,4.335196495E0,6.184848309E0
1.339759400E1,6.460621357E-1,4.488935471E0,6.376274109E0
1.341745723E1,6.604190469E-1,4.642076015E0,6.538986206E0
1.343732593E1,7.178468108E-1,4.795216560E0,6.438487530E0
1.345718916E1,5.599204898E-1,5.067998409E0,6.017350674E0
1.347705786E1,4.785645306E-1,5.412564754E0,5.825924873E0
1.349692109E1,4.546363056E-1,5.872584820E0,6.108277798E0
1.351678979E1,1.621137410E-1,6.355935097E0,6.687341213E0
1.353665302E1,-5.030909777E-1,6.859025955E0,7.147361279E0
1.355652171E1,-9.152546525E-1,7.160521984E0,7.995018482E0
1.357638494E1,-8.913264275E-1,7.490731239E0,9.594022751E0
1.359625364E1,-9.631111473E-2,7.490731239E0,1.077188969E1
1.361611692E1,5.024927258E-1,6.753741741E0,1.128933716E1
1.363598557E1,-3.882354796E-1,6.691528320E0,1.145204926E1
1.365584885E1,-1.695314884E0,7.442874908E0,1.054217815E1
1.367571750E1,-1.503889084E0,8.180462837E0,1.013539886E1
1.369558078E1,1.190429255E-1,7.337590694E0,1.029332447E1
1.371544942E1,-6.227321029E-1,6.533602238E0,1.030768204E1
1.373531265E1,-1.771885157E0,6.662814617E0,9.215956688E0
1.375518135E1,-1.010967612E0,6.351149559E0,8.263014793E0
1.377504458E1,-4.169493318E-1,5.930012703E0,7.908876896E0
1.379491328E1,-6.849454641E-1,5.508875847E0,7.204789162E0
1.381477651E1,-1.111466169E0,5.345565796E0,6.304489613E0
1.383464520E1,-1.082752228E0,5.273781300E0,5.408975601E0
1.385450843E1,-8.147560954E-1,5.225924492E0,5.308476925E0
1.387437713E1,-1.202393398E-1,4.938786030E0,5.768496990E0
1.389424036E1,5.072783828E-1,4.575077057E0,6.122634888E0
1.391410900E1,4.737788737E-1,4.354339123E0,5.916851997E0
1.393397223E1,-3.888336942E-2,4.306482315E0,5.251049519E0
1.395384093E1,-8.865407705E-1,4.426722050E0,4.374678135E0
1.397370411E1,-1.666600943E0,4.311268330E0,3.297309637E0
1.399357286E1,-6.610172391E-1,3.789632797E0,3.278167009E0
1.401343604E1,1.167697430E0,2.989831924E0,4.532604218E0
1.403330473E1,7.034898400E-1,4.244269371E0,5.849853039E0
1.405316796E1,4.642075896E-1,5.930012703E0,6.735197544E0
1.407303661E1,6.604190469E-1,5.810371399E0,7.817949772E0
1.409289984E1,4.067798555E-1,4.857429981E0,8.813364029E0
1.411276854E1,-4.695914388E-1,5.206781864E0,9.110671997E0
1.413263177E1,-1.307677627E0,5.977869034E0,8.861818314E0
1.415250046E1,-1.116251707E0,6.068796635E0,8.861818314E0
1.417236364E1,-3.978067636E-1,5.216353416E0,1.006839943E1
1.419223234E1,6.747759581E-1,4.426722050E0,1.239541912E1
1.421209557E1,-8.673982322E-2,4.421936035E0,1.346800232E1
1.423196421E1,-1.135394335E0,4.359124660E0,1.272084332E1
1.425182750E1,-1.365105271E0,4.335196495E0,1.172961617E1
1.427169614E1,-1.164108157E0,4.201198578E0,1.096391296E1
1.429155932E1,-1.288534999E0,3.914059639E0,1.008754253E1
1.431142802E1,-1.633101463E0,3.708276987E0,9.211171150E0
1.433129125E1,-9.200403094E-1,3.406781197E0,8.641080856E0
1.435115989E1,1.345364571E0,3.421138287E0,9.963115692E0
1.437102312E1,4.045664787E0,3.075973511E0,1.183490086E1
1.439089182E1,5.132604599E0,3.574278831E0,1.149990559E1
1.441075500E1,4.433900356E0,3.324826956E0,8.655437469E0
1.443062369E1,2.504088879E0,3.535993576E0,5.380261898E0
1.445048687E1,1.541576028E0,3.162115097E0,3.464807272E0
1.447035557E1,3.254238665E-1,3.382853031E0,4.546961308E0
1.449021880E1,3.541377485E-1,3.219542980E0,7.966304779E0
1.451008744E1,1.043270707E0,2.841476917E0,9.977472305E0
1.452995067E1,1.239482164E0,2.798406124E0,9.977472305E0
1.454981932E1,1.764706671E-1,3.717848301E0,9.431310654E0
1.456968255E1,-5.940182209E-1,4.301696777E0,8.272585869E0
1.458955114E1,-4.366901144E-2,4.119842529E0,7.487142086E0
1.460945302E1,9.511470050E-2,4.431507587E0,8.129016876E0
1.462928312E1,4.725824669E-2,4.575077057E0,9.148957253E0
1.464914635E1,-1.345962733E-1,4.804787636E0,9.483952522E0
1.466901505E1,-4.791627228E-1,5.115854740E0,1.047039413E1
1.468887822E1,-3.834498227E-1,5.072783947E0,1.387956810E1
1.470874687E1,2.679961324E-1,4.527220249E0,1.673839188E1
1.472861010E1,6.508477330E-1,3.808775425E0,1.681974792E1
1.474847869E1,-1.728814393E-1,4.052843571E0,1.445922947E1
1.476834197E1,-1.058824062E0,4.488935471E0,1.142812061E1
1.478821062E1,-1.077966571E0,4.809573650E0,9.684949875E0
1.480807385E1,-1.776670814E-1,4.560719967E0,1.016411209E1
1.482794244E1,7.118647546E-2,3.918845177E0,1.042253685E1
1.484780567E1,-3.068794906E-1,3.152543783E0,8.986245155E0
1.486767432E1,-8.913264275E-1,2.697907448E0,7.544569969E0
1.488753755E1,-1.916052699E0,2.922832966E0,6.720840454E0
1.490740619E1,-2.399402857E0,3.219542980E0,6.055635929E0
1.492726942E1,-2.370688915E0,3.526422262E0,5.313262463E0
1.494713807E1,-2.069193363E0,3.646063566E0,4.882554531E0
1.496700130E1,-1.374676585E0,3.449851990E0,5.657829285E0
1.498686994E1,-7.136593461E-1,3.066402197E0,6.975078106E0
1.500673312E1,-6.753742099E-1,2.803191662E0,7.496713161E0
1.502660177E1,-1.278963685E0,2.922832966E0,7.223931789E0
1.504646500E1,-1.805384636E0,3.430709362E0,6.649055958E0
1.506633364E1,-2.112264156E0,4.191627026E0,6.812366009E0
1.508619682E1,-2.021337032E0,4.713860512E0,7.870592117E0
1.510606546E1,-1.408176184E0,4.752145767E0,8.708079338E0
1.512592869E1,-1.144965649E0,4.843072891E0,9.115457535E0
1.514579739E1,-1.183250785E0,4.742574692E0,8.957531929E0
1.516566057E1,-1.274178028E0,4.642076015E0,8.454441071E0
1.518552921E1,-1.412961721E0,4.886143684E0,8.071588516E0
1.520539239E1,-1.307677627E0,5.278566837E0,7.745566845E0
1.522526109E1,-1.039681435E0,5.561518192E0,7.621140003E0
1.524512427E1,-2.829512656E-1,5.450850010E0,7.908876896E0
1.526499291E1,1.812563092E-1,5.197210789E0,8.986245155E0
1.528485614E1,-3.499503136E-1,5.053641319E0,9.823733330E0
1.530472479E1,-6.514459848E-1,4.852644444E0,8.971888542E0
1.532458796E1,-3.738785386E-1,4.843072891E0,7.966304779E0
1.534445661E1,-2.255235314E-1,4.838287354E0,8.397012711E0
1.536431979E1,1.429711580E-1,4.421936035E0,9.498309135E0
1.538418848E1,5.312066078E-1,4.320839405E0,1.014496994E1
1.540405166E1,1.014556766E0,4.406980991E0,1.025503922E1
1.542392031E1,1.374078393E0,4.091128349E0,9.440881729E0
1.544378348E1,2.243271172E-1,4.603790760E0,7.645068169E0
1.546365213E1,2.147558331E-1,4.498506546E0,6.888936520E0
1.548363109E1,1.354935765E0,4.067200184E0,8.023732185E0
1.550338416E1,2.101496458E0,3.923630953E0,9.302098274E0
1.552324734E1,2.499303341E0,3.784847260E0,9.388239861E0
1.554311593E1,2.642872572E0,3.483351469E0,8.306085587E0
1.556297911E1,1.579861164E0,3.569493294E0,7.372286797E0
1.558284776E1,-5.509474277E-1,4.527220249E0,7.013363361E0
1.560271098E1,-2.207378894E-1,4.522434711E0,6.596413612E0
1.562257953E1,9.954141974E-1,4.239483356E0,6.788437843E0
1.564244276E1,1.105484009E0,4.608576298E0,7.137789726E0
1.566231140E1,2.099701911E-1,5.168497086E0,7.415357590E0
1.568217458E1,-7.184450030E-1,5.499304771E0,7.472784996E0
1.570204317E1,-1.101894855E0,5.705087185E0,7.405786037E0
1.572190640E1,-1.130608678E0,5.896512985E0,7.731209755E0
1.574177500E1,-1.077966571E0,5.843871117E0,8.736793518E0
1.576163828E1,-4.169493318E-1,5.221138954E0,9.943972588E0
1.578150687E1,4.307080805E-1,4.465006828E0,1.083410263E1
1.580137005E1,4.259224236E-1,4.296911240E0,1.139462185E1
1.582123869E1,-9.583254457E-1,5.154139996E0,1.156690502E1
1.584110187E1,-1.728814363E0,5.729015827E0,1.114098263E1
1.586097052E1,-4.648058116E-1,5.048855782E0,1.069531918E1
1.588083369E1,7.417750359E-1,3.890131474E0,1.134197903E1
1.590070234E1,1.190429255E-1,3.550350666E0,1.227577877E1
1.592056552E1,2.003988922E-1,2.961117983E0,1.218963718E1
1.594043416E1,1.381855011E-1,2.941975355E0,1.168654537E1
1.596029734E1,-1.016949583E-2,3.698705673E0,1.027896786E1
1.598016598E1,1.038485050E0,3.464209080E0,8.416155815E0
1.600002916E1,1.234696507E0,3.564707518E0,7.290930748E0
1.601989776E1,3.924229145E-1,4.071985722E0,7.606783390E0
1.603976098E1,3.445664644E-1,3.703491211E0,8.176873207E0
1.605962958E1,6.508477330E-1,2.865405083E0,8.090731621E0
1.607949276E1,6.747759581E-1,2.520838737E0,7.707281590E0
1.609936140E1,1.621137410E-1,2.846262455E0,7.343572617E0
1.611922458E1,4.247260094E-2,3.114258766E0,6.855436802E0
1.613909322E1,2.003988922E-1,3.329612732E0,6.404987812E0
1.615895640E1,2.727817893E-1,3.626920938E0,5.902495384E0
1.617882505E1,1.573280841E-1,4.048057556E0,5.676971912E0
1.619868822E1,-1.495514158E-2,4.474578381E0,5.950351715E0
1.621855687E1,-7.136593461E-1,4.967499733E0,6.352345943E0
1.623842005E1,-1.844268084E0,5.417350292E0,7.104290485E0
1.625828869E1,-2.538186550E0,5.595017433E0,8.018946648E0
1.627815182E1,-2.490330219E0,5.494519234E0,8.526225090E0
1.629802046E1,-2.767897606E0,5.053641319E0,9.785448074E0
1.631788364E1,-2.801397085E0,4.028914928E0,1.168654537E1
1.633775229E1,-2.696112871E0,3.334398270E0,1.282134151E1
1.635761546E1,-2.959921598E0,3.588635683E0,1.263948727E1
1.637748406E1,-2.586043119E0,4.115056515E0,1.164826107E1
1.639734723E1,-1.671386600E0,4.191627026E0,1.116491032E1
1.641721588E1,-7.956135273E-1,3.708276987E0,1.172483063E1
1.643707906E1,9.990034252E-2,2.941975355E0,1.214656639E1
1.645694770E1,-5.802594870E-2,2.918047190E0,1.132762241E1
1.647681083E1,-3.308077157E-1,3.526422262E0,9.163313866E0
1.649667947E1,8.075776696E-2,4.038486481E0,6.668198586E0
1.651654265E1,5.312066078E-1,3.751347780E0,5.251049519E0
1.653641124E1,2.811566554E-2,3.488137245E0,4.877768993E0
1.655627447E1,-9.583254457E-1,3.219542980E0,5.002195835E0
1.657614307E1,-1.566102386E0,2.927618504E0,6.031707764E0
1.659600624E1,-1.628315806E0,2.583052158E0,7.281359196E0
1.661587489E1,-1.389033556E0,2.516052961E0,7.980661869E0
1.663573807E1,-1.389033556E0,2.870190859E0,8.114660263E0
1.665560666E1,-1.604387641E0,3.516851187E0,7.889734268E0
1.667546984E1,-1.441675663E0,4.009772778E0,7.621140003E0
1.669533848E1,-1.360319614E0,4.397409916E0,7.511070251E0
1.671520166E1,-1.599601984E0,4.747360229E0,7.889734268E0
1.673507031E1,-1.556531072E0,4.938786030E0,8.698508263E0
1.675493343E1,-1.479960799E0,4.895715237E0,9.761520386E0
1.677480208E1,-1.652244091E0,4.833501816E0,1.081974602E1
1.679466526E1,-1.925624013E0,4.823930264E0,1.140897846E1
1.681453385E1,-2.294118643E0,4.747360229E0,1.138026428E1
1.683439703E1,-2.504687071E0,4.603790760E0,1.186840057E1
1.685426567E1,-2.700898647E0,4.555934429E0,1.250070381E1
1.687412880E1,-3.366701365E0,5.087141037E0,1.218963718E1
1.689399744E1,-4.209573269E0,5.958726406E0,1.116969585E1
1.691386062E1,-3.247060299E0,5.910870075E0,1.074796104E1
1.693372927E1,-1.556531072E0,4.838287354E0,1.152861977E1
1.695359239E1,-2.284547329E0,4.110270977E0,1.262513065E1
1.697346104E1,-2.145763636E0,3.095116138E0,1.273041439E1
1.699332416E1,-1.661815286E0,2.606980324E0,1.153340530E1
1.701319281E1,-1.987837434E0,3.224328518E0,9.244669914E0
1.703305598E1,-1.695314884E0,3.655634880E0,6.979863644E0
1.705292458E1,-1.250249863E0,3.890131474E0,6.165705681E0
1.707278776E1,-7.375875711E-1,3.674777269E0,6.323632240E0
1.709265640E1,-6.035895348E-1,3.397209883E0,6.462415695E0
1.711251953E1,-9.631111026E-1,3.238685369E0,6.208776474E0
1.713238817E1,-1.422533035E0,3.047259569E0,5.816353798E0
1.715225135E1,-1.680957913E0,2.908475876E0,5.705685616E0
1.717211994E1,-1.671386600E0,2.903690338E0,5.773283005E0
1.719198312E1,-1.590030670E0,3.071187973E0,5.711069584E0
1.721185177E1,-1.422533035E0,3.367897987E0,5.327619553E0
1.723171489E1,-1.211964726E0,3.732205153E0,4.973481655E0
1.725158354E1,-1.436890006E0,4.215555191E0,4.887340069E0
1.727144666E1,-1.604387641E0,4.713860512E0,5.399404526E0
1.729131531E1,-1.671386600E0,4.991427898E0,6.510272026E0
1.731117848E1,-1.566102386E0,5.206781864E0,7.654639721E0
1.733104708E1,-1.379462242E0,5.154139996E0,8.406583786E0
1.735091026E1,-1.403390527E0,5.192425251E0,8.425726891E0
1.737077885E1,-1.269392371E0,5.402993679E0,8.511868477E0
1.739064203E1,-1.125823021E0,5.441278458E0,9.555737495E0
1.741051067E1,-1.106680512E0,4.938786030E0,1.130369377E1
1.743037380E1,-1.154536963E0,4.441078663E0,1.217527962E1
1.745024244E1,-1.432104349E0,4.560719967E0,1.185882950E1
1.747010557E1,-1.465603828E0,4.637290478E0,1.188275719E1
1.748997421E1,-1.125823021E0,4.105485439E0,1.273998642E1
1.750983734E1,-1.077966571E0,3.531208038E0,1.394178104E1
1.752970598E1,-8.338986635E-1,3.142972469E0,1.393699551E1
1.754956911E1,-3.212364316E-1,3.262613773E0,1.210828114E1
1.756943776E1,3.254238665E-1,3.808775425E0,9.842875481E0
1.758930088E1,9.188438654E-1,4.062414646E0,8.545368195E0
1.760916953E1,1.043270707E0,3.713062525E0,7.381857872E0
1.762903265E1,3.780659735E-1,3.559921980E0,6.151348591E0
1.764890130E1,-2.398804724E-1,3.732205153E0,6.074778557E0
1.766876442E1,-1.006181955E0,3.343969584E0,5.657829285E0
1.768863302E1,-3.165704250E0,3.205185890E0,4.963910580E0
1.770849619E1,-4.085146427E0,2.946761131E0,5.274977684E0
1.772836484E1,-3.596412420E0,2.975475073E0,6.457630157E0
1.774822796E1,-2.519043922E0,3.334398270E0,8.085946083E0
1.776809661E1,-1.566102386E0,3.669991732E0,8.947959900E0
1.778795973E1,-1.422533035E0,4.062414646E0,8.440083504E0
1.780782838E1,-1.661815286E0,4.474578381E0,7.214360237E0
1.782769150E1,-1.700100541E0,4.852644444E0,6.002993584E0
1.784756010E1,-1.877767563E0,5.547161102E0,6.017350674E0
1.786742328E1,-1.892124534E0,6.145366669E0,7.156932354E0
1.788729187E1,-1.853839397E0,6.375077724E0,8.938388824E0
1.790715505E1,-1.896910191E0,6.135795593E0,1.067617607E1
1.792702364E1,-2.002194405E0,5.671587944E0,1.209392357E1
1.794688682E1,-2.112264156E0,5.359922886E0,1.282612801E1
1.796675541E1,-2.408974171E0,5.508875847E0,1.235234833E1
1.798661854E1,-3.050848961E0,6.298507214E0,1.126540947E1
1.800648718E1,-3.012563705E0,6.868597507E0,1.104526901E1
1.802635031E1,-1.714457393E0,5.791228771E0,1.174875927E1
1.804621895E1,-2.385046005E0,4.857429981E0,1.222313595E1
1.806608208E1,-3.117847919E0,4.091128349E0,1.186840057E1
1.808595067E1,-2.830111027E0,3.559921980E0,1.105005455E1
1.810581385E1,-2.566900492E0,3.727419376E0,9.689735413E0
1.812568244E1,-1.949552298E0,4.038486481E0,8.119445801E0
1.814554562E1,-1.556531072E0,4.263411522E0,7.022934437E0
1.816541421E1,-1.590030670E0,4.210769653E0,6.457630157E0
1.818527739E1,-1.714457393E0,3.837489367E0,6.328417778E0
1.820514598E1,-1.513460279E0,3.090330362E0,6.452844620E0
1.822500911E1,-1.599601984E0,2.764906645E0,6.672984123E0
1.824487776E1,-1.561316729E0,2.688336134E0,6.687341213E0
1.826474088E1,-1.379462242E0,2.654836655E0,6.203990936E0
1.828460953E1,-1.168893814E0,3.028116941E0,5.720640659E0
1.830447265E1,-1.087537885E0,3.550350666E0,5.413761139E0
1.832434124E1,-1.207179070E0,3.928416491E0,5.064409256E0
1.834420437E1,-6.131607890E-1,3.794418573E0,4.987838745E0
1.836407296E1,-1.771885157E0,4.962714195E0,5.523830891E0
1.838393614E1,-2.815753937E0,5.426921844E0,6.596413612E0
1.840380473E1,-1.939980984E0,4.613361835E0,7.937591076E0
1.842366786E1,-2.011765718E0,4.934000492E0,9.134600639E0
1.844353650E1,-1.738385677E0,5.235496044E0,9.488738060E0
1.846339963E1,-1.427318692E0,5.585446358E0,9.517452240E0
1.848326822E1,-1.255035520E0,5.719444275E0,1.017368412E1
1.850313140E1,-9.774680734E-1,5.254638672E0,1.146162033E1
1.852300000E1,-5.700899959E-1,4.541577339E0,1.236670589E1
1.854286312E1,-4.983053207E-1,4.158127785E0,1.262034512E1
1.856273171E1,-1.015753269E0,4.349553585E0,1.242891884E1
1.858259489E1,-9.296116233E-1,4.277768612E0,1.204606724E1
1.860246348E1,-7.758727670E-1,4.229912281E0,1.200778198E1
1.862232661E1,-3.355933726E-1,4.033700943E0,1.188275719E1
1.864219520E1,7.597211748E-2,3.823132277E0,1.104526901E1
1.866205838E1,2.434697002E-1,3.780061483E0,9.536594391E0
1.868192697E1,3.589234054E-1,3.880560160E0,7.990232944E0
1.870179010E1,6.077769399E-1,4.124628067E0,6.865008354E0
1.872165869E1,7.274180651E-1,3.588635683E0,6.093921185E0
1.874152182E1,1.375873014E-2,3.387638569E0,5.571687698E0
1.876139046E1,-3.888336942E-2,3.353540897E0,5.327619553E0
1.878125359E1,3.290131316E-2,3.387638569E0,5.428118229E0
1.880112218E1,-2.446661144E-1,3.512065411E0,5.624329567E0
1.882098536E1,-6.275177598E-1,3.564707518E0,5.734997749E0
1.884085395E1,-9.918249846E-1,3.641277790E0,5.797211170E0
1.886071708E1,-1.183250785E0,3.885345697E0,6.012565136E0
1.888058567E1,-9.870393276E-1,4.191627026E0,6.562914371E0
1.890044880E1,-8.913264275E-1,4.541577339E0,7.223931789E0
1.892031744E1,-1.211964726E0,4.867001057E0,7.731209755E0
1.894018057E1,-1.465603828E0,5.187639713E0,8.444869041E0
1.896004916E1,-1.690529227E0,5.316852093E0,9.589237213E0
1.897991229E1,-1.935195327E0,5.154139996E0,1.079103184E1
1.899978088E1,-2.054836512E0,5.020142078E0,1.159083271E1
1.901964406E1,-2.126621008E0,5.134997368E0,1.206521034E1
1.903951265E1,-1.944766641E0,5.154139996E0,1.260598755E1
1.905937578E1,-1.987837434E0,5.020142078E0,1.277827072E1
1.907924437E1,-2.356332064E0,5.067998409E0,1.193061352E1
1.909910755E1,-2.830111027E0,5.201996326E0,1.125583744E1
1.911897614E1,-3.017349243E0,5.005784988E0,1.139940739E1
1.913883927E1,-2.912065268E0,4.239483356E0,1.178704453E1
1.915882359E1,-2.806182861E0,3.564707518E0,1.172483063E1
1.917857119E1,-2.940778971E0,3.166900873E0,1.115533924E1
1.919843979E1,-3.136990547E0,2.908475876E0,1.025503922E1
1.921830291E1,-3.012563705E0,2.606980324E0,8.885746956E0
1.923817145E1,-2.696112871E0,2.449054003E0,6.965506554E0
1.925803458E1,-1.757528186E0,2.501696110E0,5.231906891E0
1.927790312E1,-6.562315822E-1,3.090330362E0,4.628317356E0
1.929776625E1,-3.409772366E-2,3.598206997E0,5.452046394E0
1.931763484E1,-1.680957973E-1,3.233899832E0,6.970292568E0
1.933749802E1,-8.626125455E-1,2.650051117E0,7.975875854E0
1.935736656E1,-1.231107235E0,2.410768747E0,7.932805061E0
1.937722973E1,-1.020538807E0,2.793620348E0,7.161718369E0
1.939709828E1,-4.791627228E-1,3.435495138E0,6.567699909E0
1.941696145E1,-3.068794906E-1,3.780061483E0,6.242276192E0
1.943683000E1,-8.721838593E-1,4.028914928E0,5.983851433E0
1.945669317E1,-1.412961721E0,4.249054909E0,6.002993584E0
1.947656171E1,-1.814955950E0,4.599005222E0,6.725626469E0
1.949642494E1,-2.274976015E0,4.809573650E0,8.315656662E0
1.951629348E1,-2.418545485E0,4.699503899E0,9.886545181E0
1.953615661E1,-2.442473650E0,4.637290478E0,1.040339470E1
1.955602520E1,-2.499901533E0,4.857429981E0,9.838089943E0
1.957588833E1,-2.715255499E0,5.273781300E0,9.010173798E0
1.959575692E1,-2.815753937E0,5.441278458E0,9.469595909E0
1.961562005E1,-2.566900492E0,5.067998409E0,1.097348499E1
1.963548864E1,-2.054836512E0,4.363910198E0,1.188754272E1
1.965535182E1,-1.887338877E0,4.215555191E0,1.234277725E1
1.967522036E1,-1.849053741E0,4.416552544E0,1.240020561E1
1.969508354E1,-1.470389485E0,4.282554150E0,1.228534985E1
1.971495213E1,-9.391828775E-1,3.760919094E0,1.254377460E1
1.973481526E1,-5.988038778E-1,3.147758245E0,1.265863037E1
1.975468385E1,-4.743770957E-1,2.879761934E0,1.155733299E1
1.977454697E1,-5.324030295E-2,3.229114056E0,9.488738060E0
1.979441557E1,8.853443861E-1,3.832703590E0,7.956733704E0
1.981427869E1,1.340578914E0,4.148556232E0,7.094718933E0
1.983414729E1,6.364908218E-1,3.947559118E0,6.419344902E0
1.985401041E1,-4.408775866E-1,3.502494097E0,5.955137253E0
1.987387901E1,-1.417747378E0,3.095116138E0,5.840281963E0
1.989374218E1,-1.680957913E0,2.894119024E0,6.084349632E0
1.991361072E1,-1.719243050E0,2.726621389E0,6.347560406E0
1.993347390E1,-1.800599098E0,2.884547710E0,6.251847267E0
1.995334250E1,-1.935195327E0,3.233899832E0,5.840281963E0
1.997320562E1,-1.959123492E0,3.598206997E0,5.821139336E0
1.999307421E1,-2.011765718E0,3.976273060E0,6.400202274E0
2.001293734E1,-2.193620205E0,4.316053867E0,7.606783390E0
2.003280593E1,-2.370688915E0,4.397409916E0,9.474381447E0
2.005266906E1,-2.346760750E0,4.229912281E0,1.064746284E1
2.007253765E1,-1.916052699E0,4.143770695E0,1.080538845E1
2.009240078E1,-1.863410592E0,4.493721008E0,1.035553837E1
2.011226937E1,-2.145763636E0,4.972285271E0,1.023589706E1
2.013213250E1,-2.150549412E0,5.005784988E0,1.117926693E1
2.015200109E1,-2.054836512E0,4.828716278E0,1.218485069E1
2.017186421E1,-2.332403898E0,4.666004181E0,1.199342537E1
2.019173281E1,-3.036491871E0,4.962714195E0,1.110748291E1
2.021159593E1,-3.175275564E0,5.029713154E0,1.067617607E1
2.023146453E1,-2.979064226E0,4.728217602E0,1.077667522E1
2.025132765E1,-2.873780012E0,4.287340164E0,1.100219822E1
2.027119625E1,-2.772683144E0,3.928416491E0,1.099262714E1
2.029105937E1,-2.873780012E0,3.689134359E0,1.034596729E1
2.031092796E1,-2.979064226E0,3.579064369E0,9.187242508E0
2.033079109E1,-2.806182861E0,3.622135162E0,7.995018482E0
2.035065968E1,-2.207977057E0,3.976273060E0,7.195217609E0
2.037052281E1,-1.613958836E0,3.641277790E0,7.046862602E0
2.039039140E1,-1.652244091E0,3.382853031E0,7.592426300E0
2.041025453E1,-1.331605792E0,2.884547710E0,7.625925541E0
2.043012312E1,-1.432104349E0,2.621337175E0,6.965506554E0
2.044998624E1,-1.312463164E0,2.760120869E0,6.227919102E0
2.046985484E1,-7.232306600E-1,3.071187973E0,6.065207005E0
2.048971796E1,-4.935196638E-1,3.195614576E0,6.180062771E0
2.050958656E1,-1.006181955E0,3.037688255E0,6.069993019E0
2.052944968E1,-1.412961721E0,2.913261652E0,5.595615864E0
2.054931828E1,-1.570888042E0,3.013760090E0,5.179264545E0
2.056918140E1,-2.102692842E0,3.157329559E0,5.581258774E0
2.058905000E1,-3.103491068E0,2.918047190E0,7.310073376E0
2.060891312E1,-3.184846878E0,2.372483730E0,8.358727455E0
2.062878171E1,-2.820539713E0,2.630908489E0,7.578069210E0
2.064864484E1,-2.255833626E0,4.177269936E0,6.677769661E0
2.066851343E1,-1.278963685E0,5.426921844E0,6.817151546E0
2.068837656E1,-3.834498227E-1,5.662016392E0,8.660223007E0
2.070824515E1,-2.781656384E-1,4.857429981E0,1.160997581E1
2.072810828E1,-6.323033571E-1,3.942773581E0,1.409552002E1
2.074797687E1,-1.044467092E0,4.158127785E0,1.446401501E1
2.076784000E1,-1.092323542E0,5.206781864E0,1.354935837E1
2.078770859E1,-8.291130662E-1,5.776872158E0,1.263470173E1
2.080757171E1,-7.184450030E-1,5.729015827E0,1.234277725E1
2.082744031E1,-4.887340367E-1,4.957928658E0,1.255813122E1
2.084730343E1,-7.088736892E-1,4.081557274E0,1.252463150E1
2.086717197E1,-1.274178028E0,3.588635683E0,1.167218876E1
2.088703510E1,-1.422533035E0,3.602992773E0,1.021196842E1
2.090690369E1,-1.350748420E0,3.602992773E0,8.688937187E0
2.092676682E1,-1.609173179E0,3.473780155E0,7.702496052E0
2.094663541E1,-1.408176184E0,3.358326674E0,7.391428947E0
2.096649854E1,-1.389033556E0,3.023331404E0,7.066005230E0
2.098636713E1,-1.503889084E0,2.817548752E0,6.615556240E0
2.100623026E1,-1.590030670E0,2.841476917E0,6.151348591E0
2.102609885E1,-1.590030670E0,2.922832966E0,5.778068542E0
2.104596197E1,-1.647458434E0,3.090330362E0,5.346762180E0
2.106583052E1,-1.652244091E0,3.190829039E0,5.274977684E0
2.108569364E1,-1.661815286E0,3.008974552E0,5.657829285E0
2.110556223E1,-2.040479422E0,3.257827997E0,6.400202274E0
2.112542536E1,-2.222334146E0,3.976273060E0,7.477570534E0
2.114529395E1,-1.992623091E0,4.541577339E0,8.483154297E0
2.116515708E1,-2.126621008E0,4.718646049E0,9.349954605E0
2.118502567E1,-2.509472847E0,4.436293125E0,1.011625576E1
2.120488874E1,-2.696112871E0,4.162913322E0,1.030768204E1
2.122475739E1,-2.720041037E0,4.354339123E0,1.025025368E1
2.124462052E1,-2.609971285E0,4.589433670E0,1.063310528E1
2.126448911E1,-2.385046005E0,4.742574692E0,1.108355427E1
2.128435218E1,-2.499901533E0,5.206781864E0,1.053260708E1
2.130422078E1,-2.624328136E0,5.633302689E0,9.872187614E0
2.132408390E1,-2.605185747E0,5.628517151E0,1.014018440E1
2.134395250E1,-2.672184706E0,5.053641319E0,1.077667522E1
2.136381562E1,-2.912065268E0,4.378267288E0,1.116012478E1
2.138368421E1,-3.141776085E0,3.741776466E0,1.125583744E1
2.140354729E1,-3.404986620E0,3.334398270E0,1.103569794E1
2.142341588E1,-3.510270834E0,3.233899832E0,1.019761181E1
2.144327900E1,-3.103491068E0,3.348755360E0,9.062815666E0
2.146314760E1,-2.542972326E0,3.397209883E0,8.090731621E0
2.148301072E1,-2.140978098E0,3.310470104E0,7.525427341E0
2.150287932E1,-1.925624013E0,3.066402197E0,7.252645493E0
2.152274239E1,-1.849053741E0,2.750549555E0,6.955935478E0
2.154261098E1,-1.738385677E0,2.492124796E0,6.428916454E0
2.156247411E1,-1.307677627E0,2.319243431E0,6.184848309E0
2.158234270E1,-9.104689956E-1,2.386840582E0,6.395416737E0
2.160220583E1,-1.604387641E0,2.544766903E0,6.285346985E0
2.162207442E1,-2.571686029E0,2.530410051E0,6.146563053E0
2.164193755E1,-2.998206854E0,2.511267424E0,6.026922226E0
2.166180609E1,-2.772683144E0,2.956332445E0,5.950351715E0
2.168166921E1,-2.088335991E0,3.823132277E0,6.084349632E0
2.170161494E1,-1.685743570E0,4.766502857E0,6.290132523E0
2.172140109E1,-1.858624935E0,5.494519234E0,6.706483841E0
2.174126963E1,-2.332403898E0,5.647659779E0,7.899305820E0
2.176113270E1,-2.499901533E0,5.254638672E0,9.546165466E0
2.178100125E1,-2.246262312E0,4.867001057E0,1.043689442E1
2.180086442E1,-2.117049932E0,4.723432064E0,1.085803127E1
2.182073296E1,-2.370688915E0,4.517649174E0,1.191625690E1
2.184059604E1,-2.365903378E0,3.918845177E0,1.288834095E1
2.186046463E1,-1.968694806E0,3.650849104E0,1.292184067E1
2.188032776E1,-1.916052699E0,3.727419376E0,1.234277725E1
2.190019630E1,-2.356332064E0,3.684348583E0,1.180140114E1
2.192005947E1,-2.753540754E0,3.555136204E0,1.206042480E1
2.193992796E1,-2.499901533E0,3.300898790E0,1.265384388E1
2.195979114E1,-1.930409670E0,3.047259569E0,1.254377460E1
2.197965968E1,-1.460818172E0,2.975475073E0,1.166261768E1
2.199952286E1,-7.956135273E-1,3.075973511E0,1.042253685E1
2.201939140E1,1.860419661E-1,3.348755360E0,9.340383530E0
2.203925453E1,5.503492355E-1,3.209971666E0,8.483154297E0
2.205912307E1,-8.673982322E-2,2.874976397E0,7.899305820E0
2.207898619E1,-7.423732281E-1,2.578266382E0,7.611568928E0
2.209885473E1,-1.312463164E0,2.328814745E0,7.123433113E0
2.211871786E1,-1.456032634E0,2.410768747E0,6.505486488E0
2.213858645E1,-1.374676585E0,2.750549555E0,5.969494343E0
2.215844958E1,-1.355534077E0,3.052045345E0,5.456831932E0
2.217831812E1,-1.508674622E0,3.205185890E0,5.136193752E0
2.219818124E1,-1.791027784E0,3.142972469E0,5.485546112E0
2.221804984E1,-2.413759947E0,3.186043262E0,6.237490654E0
2.223791291E1,-3.376272678E0,3.392424345E0,6.912864685E0
2.225778150E1,-3.510270834E0,3.507279873E0,8.593224525E0
2.227764463E1,-1.719243050E0,3.669991732E0,1.149990559E1
2.229751322E1,-5.222335458E-1,4.162913322E0,1.115055370E1
2.231737635E1,-3.547359705E-1,5.364708424E0,8.219944000E0
2.233724489E1,-9.104689956E-1,6.581458569E0,6.108277798E0
2.235710802E1,-1.719243050E0,6.868597507E0,6.798008919E0
2.237697651E1,-2.179263115E0,5.958726406E0,1.006839943E1
2.239683968E1,-2.499901533E0,5.111069202E0,1.216092300E1
2.241670828E1,-3.251846075E0,5.326423168E0,1.135633659E1
2.243657140E1,-3.908077478E0,5.906084538E0,9.996614456E0
2.245644000E1,-3.912863255E0,5.714658737E0,9.881759644E0
2.247630307E1,-3.658625841E0,5.264209747E0,1.031725311E1
2.249617166E1,-3.151347399E0,4.814359188E0,9.910472870E0
2.251603479E1,-2.753540754E0,4.484149456E0,8.732007980E0
2.253590333E1,-2.576471806E0,4.406980991E0,8.023732185E0
2.255576645E1,-1.944766641E0,4.406980991E0,8.119445801E0
2.257563505E1,-1.709671736E0,4.249054909E0,8.818149567E0
2.259549817E1,-1.345962763E0,4.105485439E0,9.273384094E0
2.261536671E1,-8.099704385E-1,3.856631994E0,9.326025963E0
2.263522984E1,-5.796613097E-1,3.502494097E0,8.799007416E0
2.265509838E1,-5.078766346E-1,3.209971666E0,7.721638680E0
2.267496151E1,-4.695914388E-1,3.061616659E0,6.817151546E0
2.269483010E1,-3.978067636E-1,3.186043262E0,6.586842537E0
2.271469322E1,-5.509474277E-1,3.406781197E0,6.582056999E0
2.273456177E1,-1.269392371E0,3.598206997E0,6.294918060E0
2.275442489E1,-2.021337032E0,3.756133318E0,5.993422508E0
2.277429343E1,-2.696112871E0,3.957130432E0,6.117849350E0
2.279415656E1,-3.194418192E0,4.253840446E0,6.596413612E0
2.281402515E1,-3.280559778E0,4.546362877E0,6.735197544E0
2.283400406E1,-3.007778168E0,4.809573650E0,6.793223381E0
2.285375697E1,-2.452044964E0,4.929214478E0,7.094718933E0
2.287362010E1,-1.743171334E0,4.651647091E0,7.276573658E0
2.289348864E1,-9.104689956E-1,4.177269936E0,7.573283672E0
2.291335171E1,-2.494517565E-1,4.019343853E0,7.794021606E0
2.293322031E1,-3.547359705E-1,4.124628067E0,8.076375008E0
2.295308343E1,-8.530412912E-1,3.851846218E0,9.594022751E0
2.297295192E1,-9.535398483E-1,3.397209883E0,1.173440266E1
2.299281505E1,-9.200403094E-1,3.286541939E0,1.290748310E1
2.301268359E1,-1.183250785E0,3.650849104E0,1.321914864E1
2.303254671E1,-1.034895778E0,3.760919094E0,1.283091354E1
2.305241526E1,-5.126622319E-1,3.961916208E0,1.211306667E1
2.307227838E1,1.525424421E-1,4.316053867E0,1.180618668E1
2.309214692E1,8.853443861E-1,4.225126743E0,1.156211948E1
2.311201010E1,1.138983607E0,3.990629911E0,1.096869946E1
2.313187859E1,8.374879360E-1,3.961916208E0,1.012104130E1
2.315174177E1,5.072783828E-1,3.885345697E0,9.201599121E0
2.317161026E1,4.354937077E-1,3.765704632E0,8.492725372E0
2.319147343E1,4.354937077E-1,3.559921980E0,8.028517723E0
2.321134197E1,1.190429255E-1,3.397209883E0,7.735995770E0
2.323120505E1,-6.227321029E-1,3.248256683E0,7.530212879E0
2.325107359E1,-1.412961721E0,3.085544825E0,7.621140003E0
2.327093671E1,-1.771885157E0,3.229114056E0,8.152944565E0
2.329080531E1,-1.168893814E0,3.588635683E0,8.636295319E0
2.331066838E1,-5.318048596E-1,3.923630953E0,8.420941353E0
2.333053697E1,-8.195417374E-2,4.095914364E0,7.606783390E0
2.335040005E1,4.259224236E-1,4.306482315E0,7.070790768E0
2.337026864E1,7.417750359E-1,4.359124660E0,7.204789162E0
2.339013177E1,8.183453679E-1,4.527220249E0,7.573283672E0
2.341000031E1,6.843472719E-1,4.852644444E0,8.306085587E0
2.342986343E1,4.642075896E-1,4.881358147E0,9.010173798E0
2.344973197E1,8.554340899E-2,4.996213913E0,9.273384094E0
2.346959510E1,7.597211748E-2,5.168497086E0,9.340383530E0
2.348946364E1,4.785645306E-1,5.020142078E0,9.723235130E0
2.350932677E1,5.886343718E-1,4.780859470E0,1.080538845E1
2.352919536E1,2.243271172E-1,4.584648132E0,1.133240795E1
2.354905848E1,-3.355933726E-1,4.699503899E0,1.032682419E1
2.356892703E1,-1.298106313E-1,4.565505505E0,9.172885895E0
2.358879015E1,7.322037220E-1,4.067200184E0,9.211171150E0
2.360865869E1,1.076770186E0,3.837489367E0,9.455238342E0
2.362852182E1,7.274180651E-1,3.760919094E0,9.594022751E0
2.364839036E1,2.775674164E-1,3.617349625E0,9.129815102E0
2.366825348E1,-6.281159073E-2,3.550350666E0,7.971090317E0
2.368812208E1,-6.759724021E-2,3.564707518E0,7.357929707E0
2.370798515E1,3.110669553E-1,3.435495138E0,8.186444283E0
2.372785374E1,7.226324677E-1,2.980260611E0,1.002054310E1
2.374771687E1,4.211367965E-1,2.587837696E0,1.067139053E1
2.376758541E1,-3.116651475E-1,2.573480844E0,9.823733330E0
2.378744854E1,-8.147560954E-1,3.090330362E0,8.688937187E0
2.380731713E1,-7.519445419E-1,3.818346739E0,9.177671432E0
2.382718026E1,-3.834498227E-1,4.129413605E0,1.119362450E1
2.384704880E1,-2.733799815E-1,3.870988846E0,1.146640587E1
2.386691192E1,-7.758727670E-1,3.914059639E0,8.933603287E0
2.388678046E1,-8.243274093E-1,4.292125702E0,6.227919102E0
2.390664359E1,-6.562315822E-1,4.733003139E0,5.102694511E0
2.392651218E1,-6.897311211E-1,5.187639713E0,5.624329567E0
2.394637531E1,-7.088736892E-1,5.465805054E0,6.869793892E0
2.396624385E1,-1.044467092E0,5.388636589E0,8.095517159E0
2.398610697E1,-1.240678549E0,4.833501816E0,8.641080856E0
2.400597552E1,-1.125823021E0,4.675575256E0,8.449654579E0
2.402583864E1,-5.988038778E-1,4.843072891E0,8.133802414E0
2.404570718E1,7.118647546E-2,4.747360229E0,8.416155815E0
2.406557031E1,4.977070987E-1,4.713860512E0,9.498309135E0
2.408543890E1,7.274180651E-1,4.632504463E0,1.058046341E1
2.410530203E1,8.374879360E-1,4.685146809E0,1.052303600E1
2.412517057E1,8.135597110E-1,5.024927616E0,9.977472305E0
2.414503369E1,6.604190469E-1,5.288137913E0,1.006361389E1
2.416490223E1,5.312066078E-1,5.307280540E0,1.074796104E1
2.418476536E1,9.236295223E-1,4.766502857E0,1.167697430E1
2.420463395E1,1.048056364E0,4.138985157E0,1.209870911E1
2.422449708E1,1.076770186E0,4.134199142E0,1.159561825E1
2.424436562E1,1.407577872E0,4.503292084E0,1.014496994E1
2.426422874E1,1.847857237E0,4.737788677E0,8.239086151E0
2.428409734E1,1.895713687E0,4.699503899E0,6.764509678E0
2.430396046E1,1.551147223E0,4.436293125E0,6.242276192E0
2.432382900E1,9.906286001E-1,3.995415688E0,6.347560406E0
2.434369213E1,4.977070987E-1,3.540779352E0,6.419344902E0
2.436356072E1,-6.281159073E-2,3.324826956E0,6.002993584E0
2.438342380E1,-7.280163169E-1,3.488137245E0,5.528616905E0
2.440325390E1,-9.966106415E-1,3.650849104E0,5.542973518E0
2.442315552E1,-9.248259664E-1,3.689134359E0,5.749354839E0
2.444302406E1,-7.280163169E-1,3.866203070E0,5.926423550E0
2.446288718E1,-7.860422134E-1,4.182055950E0,5.792425632E0
2.448275578E1,-1.140179992E0,4.618147850E0,5.495117188E0
2.450261885E1,-1.527817249E0,5.230710506E0,5.633901119E0
2.452248744E1,-1.657029629E0,5.604588985E0,6.596413612E0
2.454235057E1,-1.609173179E0,5.719444275E0,7.664210796E0
2.456221911E1,-1.853839397E0,5.891727448E0,8.191229820E0
2.458208223E1,-2.854039192E0,5.800800323E0,8.090731621E0
2.460195078E1,-3.917648792E0,5.182853699E0,7.755138397E0
2.462181390E1,-3.366701365E0,5.958726406E0,9.182456970E0
2.464168250E1,-1.594816327E0,6.408577442E0,1.033160973E1
2.466154557E1,-1.049252748E0,6.437291145E0,9.833304405E0
2.468141416E1,-1.685743570E0,6.811169624E0,1.052782154E1
2.470127729E1,-1.365105271E0,5.532804012E0,1.223749352E1
2.472114588E1,-1.197607756E0,4.215555191E0,1.294098282E1
2.474100895E1,-8.817551732E-1,3.483351469E0,1.301336575E1
2.476087755E1,-4.600201547E-1,3.267399311E0,1.304207993E1
2.478074067E1,-1.355534077E0,3.028116941E0,1.190668583E1
2.480060921E1,-1.341177106E0,3.406781197E0,9.862018585E0
2.482047234E1,-8.291130662E-1,3.579064369E0,8.258229256E0
2.484034093E1,-2.350948304E-1,3.665206194E0,7.601997375E0
2.486020400E1,-4.552344978E-1,3.641277790E0,7.472784996E0
2.488007260E1,-6.179464459E-1,3.233899832E0,7.947162151E0
2.489993572E1,-1.302891970E0,3.286541939E0,8.286943436E0
2.491980427E1,-1.288534999E0,3.066402197E0,7.899305820E0
2.493966739E1,-1.403390527E0,3.099901676E0,7.118647575E0
2.495953598E1,-1.781456470E0,3.411566973E0,6.653841496E0
2.497936062E1,-2.236690998E0,3.722633839E0,6.653841496E0
2.499926765E1,-2.279761791E0,4.028914928E0,6.826723099E0
2.501913078E1,-1.892124534E0,4.311268330E0,6.821937561E0
2.503899932E1,-1.747956991E0,4.713860512E0,7.046862602E0
2.505886244E1,-1.978266120E0,4.876572609E0,7.534998417E0
2.507873104E1,-1.896910191E0,4.685146809E0,8.014161110E0
2.509859416E1,-1.111466169E0,4.431507587E0,8.363512993E0
2.511846270E1,-1.016949583E-2,4.330410957E0,8.248658180E0
2.513832583E1,5.455635786E-1,4.560719967E0,8.253443718E0
2.515819437E1,7.800601721E-1,4.387838364E0,9.780662537E0
2.517805750E1,5.168496966E-1,3.521636724E0,1.241934776E1
2.519792604E1,2.434697002E-1,2.851048231E0,1.395135212E1
2.521778916E1,1.573280841E-1,3.421138287E0,1.359721470E1
2.523765776E1,3.924229145E-1,4.536791801E0,1.198385429E1
2.525752088E1,5.455635786E-1,5.029713154E0,1.096391296E1
2.527738942E1,6.221339107E-1,4.670789719E0,1.169611740E1
2.529725255E1,6.747759581E-1,3.918845177E0,1.275434303E1
2.531712109E1,7.226324677E-1,3.200400352E0,1.240977669E1
2.533698421E1,8.709874153E-1,2.961117983E0,1.099741268E1
2.535685281E1,9.475577474E-1,3.257827997E0,9.455238342E0
2.537671588E1,1.009771109E0,3.593421459E0,8.411369324E0
2.539658447E1,9.714859724E-1,3.732205153E0,8.124231339E0
2.541644760E1,7.657032609E-1,3.626920938E0,8.076375008E0
2.543631614E1,4.019941986E-1,3.377469063E0,7.735995770E0
2.545617927E1,9.990034252E-2,3.152543783E0,7.377072334E0
2.547604781E1,-2.931207791E-2,3.123830080E0,7.113861561E0
2.549591093E1,-3.888336942E-2,3.296113253E0,6.984649181E0
2.551577953E1,4.247260094E-2,3.488137245E0,6.672984123E0
2.553564265E1,3.290131316E-2,3.555136204E0,6.400202274E0
2.555551119E1,-2.685943544E-1,3.646063566E0,6.634698868E0
2.557537432E1,-6.323033571E-1,3.827918053E0,7.252645493E0
2.559524286E1,-7.232306600E-1,3.947559118E0,7.597211838E0
2.561510598E1,-9.918249846E-1,4.220340729E0,7.688138962E0
2.563497453E1,-1.393819213E0,4.761716843E0,7.817949772E0
2.565483765E1,-1.757528186E0,5.364708424E0,8.420941353E0
2.567470619E1,-1.628315806E0,5.628517151E0,9.737591743E0
2.569456932E1,-8.147560954E-1,5.254638672E0,1.119362450E1
2.571443791E1,-1.345962733E-1,4.886143684E0,1.197906876E1
2.573430104E1,-4.360919297E-1,5.139782906E0,1.135633659E1
2.575416958E1,-1.063609719E0,5.762515068E0,1.008275604E1
2.577403270E1,-1.451246977E0,6.040082455E0,1.023111153E1
2.579390124E1,-9.966106415E-1,5.461019516E0,1.169611740E1
2.581376437E1,-6.281159073E-2,4.560719967E0,1.192582798E1
2.583363296E1,4.977070987E-1,4.210769653E0,1.168175983E1
2.585349604E1,9.954141974E-1,4.522434711E0,1.184447193E1
2.587336463E1,5.647061467E-1,4.479363918E0,1.061874866E1
2.589322770E1,-6.514459848E-1,4.095914364E0,9.431310654E0
2.591309630E1,-1.149751306E0,3.942773581E0,9.627521515E0
2.593295942E1,-1.054038405E0,4.024129391E0,9.565308571E0
2.595282796E1,-9.391828775E-1,3.942773581E0,8.550153732E0
2.597269104E1,-8.003991842E-1,3.760919094E0,7.549355507E0
2.599255963E1,-6.514459848E-1,3.397209883E0,6.620342255E0
2.601242276E1,-8.051848412E-1,3.052045345E0,5.720640659E0
2.603229130E1,-1.149751306E0,3.052045345E0,5.184050083E0
2.605215442E1,-1.216750264E0,3.214757204E0,5.370690346E0
2.607202296E1,-1.111466169E0,3.214757204E0,5.868995667E0
2.609188609E1,-1.097109199E0,3.119044304E0,5.988636971E0
2.611175468E1,-1.020538807E0,3.238685369E0,5.801996708E0
2.613161776E1,-9.487541914E-1,3.468994617E0,5.921638012E0
2.615148635E1,-1.283749342E0,3.741776466E0,6.079564095E0
2.617134942E1,-1.690529227E0,4.143770695E0,6.079564095E0
2.619121802E1,-1.671386600E0,4.670789719E0,6.443273067E0
2.621108109E1,-1.322034478E0,5.077569485E0,7.353144169E0
2.623094968E1,-8.099704385E-1,5.307280540E0,8.215158463E0
2.625081281E1,-2.877369225E-1,5.504090309E0,8.545368195E0
2.627068135E1,-1.495514158E-2,5.748157978E0,8.900103569E0
2.629054447E1,-1.010967568E-1,5.815157413E0,9.842875481E0
2.631041302E1,-4.360919297E-1,5.834300041E0,1.062353420E1
2.633027614E1,-3.212364316E-1,5.796014786E0,1.092562866E1
2.635014473E1,2.003988922E-1,5.819942951E0,1.144247818E1
2.637000781E1,7.130611539E-1,5.705087185E0,1.183968639E1
2.638987640E1,8.279166222E-1,5.307280540E0,1.216570854E1
2.640973947E1,7.561319470E-1,4.637290478E0,1.231884956E1
2.642960807E1,7.465606928E-1,4.172484398E0,1.107398319E1
2.644947114E1,7.848458290E-1,4.220340729E0,8.779864311E0
2.646933973E1,1.062413216E0,4.359124660E0,7.338787079E0
2.648920286E1,1.048056364E0,4.373481750E0,6.946363926E0
2.650918713E1,7.800601721E-1,4.373481750E0,7.668996811E0
2.652893473E1,5.694918036E-1,4.024129391E0,8.368298531E0
2.654880322E1,3.062812984E-1,3.770490170E0,8.052446365E0
2.656866635E1,1.621137410E-1,3.713062525E0,7.137789726E0
2.658853484E1,-3.888336942E-2,3.823132277E0,6.433701992E0
2.660839796E1,-3.738785386E-1,3.952344894E0,6.170491219E0
2.662826645E1,-5.700899959E-1,3.952344894E0,6.041278839E0
2.664812958E1,-4.504488707E-1,4.071985722E0,6.304489613E0
2.666799812E1,-5.802594870E-2,4.177269936E0,6.601199627E0
2.668786124E1,-3.260220885E-1,4.488935471E0,6.342774391E0
2.670772979E1,-9.870393276E-1,4.876572609E0,6.208776474E0
2.672759291E1,-1.235892892E0,5.020142078E0,7.128218651E0
2.674746140E1,-1.168893814E0,5.053641319E0,8.315656662E0
2.676732453E1,-1.465603828E0,5.211567879E0,8.688937187E0
2.678719307E1,-1.752742529E0,5.623731613E0,8.928817749E0
2.680705625E1,-1.771885157E0,5.949155331E0,9.393025398E0
2.682692473E1,-1.513460279E0,6.020939827E0,1.014496994E1
2.684678786E1,-9.056833982E-1,5.906084538E0,1.101655579E1
2.686665640E1,-6.801598072E-1,6.284150600E0,1.120319557E1
2.688651953E1,-5.557330847E-1,6.811169624E0,1.074796104E1
2.690638807E1,-3.212364316E-1,7.069594383E0,1.055653572E1
2.692625119E1,-2.446661144E-1,6.744170666E0,1.105962658E1
2.694611973E1,-5.461617708E-1,5.977869034E0,1.192582798E1
2.696598286E1,-7.375875711E-1,5.106283665E0,1.255813122E1
2.698585135E1,-7.232306600E-1,4.436293125E0,1.256291676E1
2.700571447E1,-6.801598072E-1,4.148556232E0,1.142333508E1
2.702558307E1,-6.514459848E-1,4.325624943E0,9.460023880E0
2.704544614E1,-4.313062727E-1,4.493721008E0,7.750352383E0
2.706531473E1,-2.446661144E-1,4.455435753E0,6.677769661E0
2.708517781E1,-3.451646566E-1,4.277768612E0,6.510272026E0
2.710504640E1,-4.600201547E-1,3.842274904E0,7.066005230E0
2.712490947E1,-3.355933726E-1,3.382853031E0,7.415357590E0
2.714477802E1,-5.078766346E-1,3.253042459E0,6.917650223E0
2.716464114E1,-9.439685345E-1,3.401995659E0,5.979065418E0
2.718450968E1,-1.226321578E0,3.708276987E0,5.227120876E0
2.720437281E1,-1.365105271E0,4.057629108E0,4.925625324E0
2.722424135E1,-1.322034478E0,4.253840446E0,5.021338463E0
2.724410447E1,-1.489532113E0,4.368695736E0,5.562116146E0
2.726397302E1,-1.791027784E0,4.479363918E0,6.347560406E0
2.728383614E1,-1.872981906E0,4.766502857E0,7.233502865E0
2.730370468E1,-1.599601984E0,5.230710506E0,7.937591076E0
2.732356781E1,-1.312463164E0,5.671587944E0,7.961519241E0
2.734343635E1,-1.082752228E0,5.987440586E0,7.817949772E0
2.736329942E1,-8.769695163E-1,5.992226124E0,8.143373489E0
2.738324510E1,-4.600201547E-1,5.647659779E0,9.158528328E0
2.740303124E1,-1.776670814E-1,5.331208706E0,1.068096161E1
2.742289979E1,3.290131316E-2,5.201996326E0,1.153340530E1
2.744276286E1,1.908276081E-1,5.297709465E0,1.124148083E1
2.746263135E1,1.854437590E-2,5.805585861E0,1.108833981E1
2.748249453E1,7.118647546E-2,5.877370834E0,1.113619614E1
2.750236302E1,5.024927258E-1,5.585446358E0,1.139940739E1
2.752222614E1,9.332008362E-1,5.249852657E0,1.167218876E1
2.754209468E1,1.028913736E0,5.020142078E0,1.136590767E1
2.756195781E1,1.000199914E0,4.752145767E0,1.014975548E1
2.758182630E1,9.044869542E-1,4.570291042E0,8.401798248E0
2.760168942E1,7.657032609E-1,4.488935471E0,7.032505512E0
2.762155796E1,4.929214716E-1,4.301696777E0,6.553342819E0
2.764142109E1,-6.759724021E-2,4.062414646E0,6.739983082E0
2.766128958E1,-7.567301393E-1,3.794418573E0,6.922435760E0
2.768115276E1,-1.312463164E0,3.617349625E0,6.634698868E0
2.770102125E1,-1.657029629E0,3.665206194E0,6.079564095E0
2.772088442E1,-1.609173179E0,3.923630953E0,5.758925915E0
2.774075291E1,-1.192822099E0,4.067200184E0,5.787639618E0
2.776061609E1,-9.152546525E-1,4.057629108E0,5.778068542E0
2.778048458E1,-1.164108157E0,4.177269936E0,5.289334297E0
2.780034765E1,-1.657029629E0,4.642076015E0,5.102694511E0
2.782021624E1,-2.121835470E0,5.077569485E0,5.835496426E0
2.784007932E1,-2.495115757E0,5.383851051E0,6.812366009E0
2.785994786E1,-2.605185747E0,5.614160061E0,7.779066563E0
2.787981098E1,-2.380260229E0,5.614160061E0,8.535796165E0
2.789967953E1,-2.495115757E0,5.705087185E0,9.014959335E0
2.791954265E1,-2.902493954E0,5.719444275E0,9.823733330E0
2.793941119E1,-3.084348440E0,5.355136871E0,1.081974602E1
2.795923583E1,-3.538984776E0,5.508875847E0,1.145683479E1
2.797914286E1,-3.649054527E0,5.982655048E0,1.138983536E1
2.799900593E1,-3.199203968E0,6.154938221E0,1.142812061E1
2.801887447E1,-2.796611547E0,5.973083496E0,1.149512005E1
2.803873755E1,-2.657827854E0,5.532804012E0,1.116969585E1
2.805860614E1,-2.983849764E0,5.058426857E0,1.088195896E1
2.807846921E1,-3.759124279E0,4.632504463E0,1.086281681E1
2.809833776E1,-4.487140656E0,4.239483356E0,1.091605663E1
2.811820088E1,-4.496711731E0,3.861417532E0,1.039382362E1
2.813806942E1,-3.725624800E0,3.832703590E0,9.431310654E0
2.815793255E1,-2.748754978E0,3.937987804E0,8.688937187E0
2.817780109E1,-2.035693884E0,3.626920938E0,8.109873772E0
2.819766416E1,-1.892124534E0,3.090330362E0,7.204789162E0
2.821753276E1,-2.432902336E0,2.712264538E0,6.069993019E0
2.823739583E1,-2.294118643E0,3.095116138E0,7.913662910E0
2.825726442E1,-1.006181955E0,2.932404041E0,1.062831974E1
2.827712750E1,-2.207378894E-1,2.175673962E0,9.579665184E0
2.829699604E1,-6.945167780E-1,2.453839540E0,7.405786037E0
2.831685916E1,-1.168893814E0,3.162115097E0,6.256632805E0
2.833672770E1,-1.140179992E0,3.555136204E0,5.557330608E0
2.835659078E1,-1.269392371E0,4.019343853E0,5.227120876E0
2.837645932E1,-1.441675663E0,4.599005222E0,5.399404526E0
2.839632244E1,-1.523031592E0,5.130211830E0,5.878567219E0
2.841619098E1,-1.403390527E0,5.426921844E0,6.649055958E0
2.843605406E1,-1.030110121E0,5.422136307E0,6.860222340E0
2.845592260E1,-3.260220885E-1,5.278566837E0,6.127420425E0
2.847578572E1,3.684946895E-1,4.599005222E0,6.414559364E0
2.849565427E1,-2.590230405E-1,3.727419376E0,9.043673515E0
2.851551734E1,-2.045265198E0,3.445066452E0,1.243848991E1
2.853538588E1,-2.298904419E0,3.995415688E0,1.338664627E1
2.855524900E1,-1.906481385E0,5.225924492E0,1.153819084E1
2.857511755E1,-9.056833982E-1,5.776872158E0,1.001575756E1
2.859498062E1,-6.035895348E-1,5.772086620E0,1.126540947E1
2.861484921E1,-1.733600020E0,5.590231895E0,1.340578842E1
2.863471234E1,-2.868994236E0,4.886143684E0,1.348714447E1
2.865458083E1,-3.026920557E0,4.541577339E0,1.230927753E1
2.867444395E1,-1.829911113E0,4.680361271E0,1.133719349E1
2.869431250E1,-1.068395257E0,4.689932346E0,1.048953629E1
2.871417557E1,-1.264606714E0,4.584648132E0,9.565308571E0
2.873404416E1,-1.613958836E0,4.392624378E0,8.243872643E0
2.875390723E1,-1.853839397E0,4.153341770E0,6.826723099E0
2.877377578E1,-2.174477577E0,4.086342812E0,5.681757450E0
2.879363890E1,-2.609971285E0,4.048057556E0,4.849055290E0
2.881350744E1,-2.974278450E0,3.957130432E0,4.293322086E0
2.883337052E1,-3.012563705E0,3.866203070E0,3.905684710E0
2.885323906E1,-3.031706333E0,3.827918053E0,3.560520172E0
2.887310218E1,-3.290131092E0,3.909274101E0,3.594019651E0
2.889297072E1,-3.385843992E0,3.741776466E0,3.910470486E0
2.891283380E1,-3.787838221E0,3.904488325E0,4.269393921E0
2.893270234E1,-3.975076675E0,4.301696777E0,4.671986103E0
2.895256541E1,-3.873979807E0,4.603790760E0,5.117051125E0
2.897243400E1,-3.893122435E0,5.115854740E0,5.337191105E0
2.899229708E1,-4.022933006E0,5.843871117E0,5.605186939E0
2.901216562E1,-3.759124279E0,6.341578007E0,6.481558323E0
2.903202869E1,-3.424129248E0,6.346364021E0,7.875377655E0
2.905189723E1,-3.304488182E0,6.107081413E0,9.393025398E0
2.907172187E1,-3.711267948E0,6.078367710E0,1.026939678E1
2.909162890E1,-4.501497746E0,6.394220352E0,1.000618649E1
2.911149197E1,-4.889134884E0,6.806384087E0,9.675378799E0
2.913136052E1,-4.783850670E0,6.701099873E0,1.022154045E1
2.915122364E1,-4.975874901E0,6.073582172E0,1.065703392E1
2.917109218E1,-5.464010715E0,5.402993679E0,1.060439205E1
2.919095526E1,-5.933003902E0,5.024927616E0,1.026461124E1
2.921082380E1,-6.153741837E0,5.067998409E0,9.651450157E0
2.923068692E1,-5.837290764E0,5.130211830E0,9.249456406E0
2.925055546E1,-5.219942570E0,5.044070244E0,8.828319550E0
2.927041854E1,-4.362713814E0,4.862215519E0,8.066802979E0
2.929028708E1,-3.347558975E0,4.469792843E0,7.219145775E0
2.931015020E1,-2.787040234E0,4.019343853E0,6.443273067E0
2.933001874E1,-2.523829699E0,3.612564087E0,5.883352757E0
2.934988182E1,-2.356332064E0,3.300898790E0,5.327619553E0
2.936975041E1,-2.375474691E0,3.133401155E0,4.992624283E0
2.938961343E1,-2.432902336E0,3.008974552E0,4.829912663E0
2.940948203E1,-2.274976015E0,3.047259569E0,4.633102894E0
2.942934510E1,-1.762313843E0,3.449851990E0,4.566103935E0
2.944921364E1,-1.954337835E0,3.909274101E0,4.288536549E0
2.946907677E1,-3.113062143E0,4.263411522E0,3.967898130E0
2.948894531E1,-3.778266907E0,4.436293125E0,4.484747887E0
2.950880838E1,-3.730410576E0,5.024927616E0,4.963910580E0
2.952867692E1,-3.802195072E0,6.016154289E0,4.801198483E0
2.954854000E1,-3.438486099E0,6.667600155E0,5.437689304E0
2.956840859E1,-3.017349243E0,6.658029079E0,7.089933395E0
2.958827166E1,-2.931207657E0,5.877370834E0,8.837890625E0
2.960814020E1,-3.160918713E0,5.087141037E0,1.081496048E1
2.962800328E1,-3.572484255E0,4.934000492E0,1.278305721E1
2.964787182E1,-2.950350285E0,4.929214478E0,1.339143181E1
2.966773489E1,-2.140978098E0,5.374279499E0,1.263470173E1
2.968760343E1,-1.690529227E0,5.499304771E0,1.193539906E1
2.970746656E1,-1.868196249E0,4.632504463E0,1.195992565E1
2.972733510E1,-2.227119684E0,3.224328518E0,1.194497108E1
2.974719817E1,-2.088335991E0,2.693121910E0,1.093041420E1
2.976706677E1,-9.487541914E-1,3.262613773E0,9.421739578E0
2.978692984E1,4.019941986E-1,3.847060680E0,8.129016876E0
2.980679838E1,8.518448472E-1,3.631706476E0,6.730412006E0
2.982666145E1,8.805587292E-1,3.133401155E0,5.542973518E0
2.984653000E1,7.800601721E-1,3.052045345E0,5.538187981E0
2.986639307E1,4.115654826E-1,3.018545866E0,6.672984123E0
2.988626161E1,-5.413761139E-1,2.922832966E0,7.712067604E0
2.990612473E1,-1.369890928E0,2.922832966E0,7.894520283E0
2.992599328E1,-1.527817249E0,3.310470104E0,7.601997375E0
2.994585635E1,-1.566102386E0,3.851846218E0,7.424928665E0
2.996572489E1,-1.685743570E0,4.134199142E0,7.439285755E0
2.998558796E1,-1.814955950E0,4.445864677E0,7.764709473E0
3.000545650E1,-2.045265198E0,4.737788677E0,8.425726891E0
3.002531958E1,-2.231905222E0,4.881358147E0,9.029315948E0
3.004518817E1,-2.246262312E0,4.857429981E0,9.292527199E0
3.006505125E1,-2.341975212E0,5.106283665E0,9.139386177E0
3.008491979E1,-2.806182861E0,5.662016392E0,8.866603851E0
3.010478286E1,-3.165704250E0,5.977869034E0,9.292527199E0
3.012465140E1,-3.199203968E0,5.642873764E0,1.070010471E1
3.014451447E1,-3.122633457E0,4.929214478E0,1.237627697E1
3.016438302E1,-3.376272678E0,4.737788677E0,1.255334568E1
3.018436187E1,-3.984647989E0,5.225924492E0,1.164826107E1
3.020411479E1,-3.932005882E0,5.216353416E0,1.161476135E1
3.022397791E1,-3.247060299E0,4.642076015E0,1.296969700E1
3.024384645E1,-2.806182861E0,4.071985722E0,1.347757339E1
3.026370947E1,-2.456830740E0,3.808775425E0,1.253898907E1
3.028357802E1,-2.705684185E0,3.875774384E0,1.144726372E1
3.030344109E1,-2.614757061E0,3.512065411E0,1.064267731E1
3.032330958E1,-2.212762833E0,3.200400352E0,1.005404282E1
3.034317265E1,-1.839482427E0,3.095116138E0,9.359525681E0
3.036304119E1,-1.293320656E0,3.004188776E0,8.507082939E0
3.038290427E1,-1.010967612E0,2.918047190E0,7.817949772E0
3.040277276E1,-9.583254457E-1,2.788834810E0,7.439285755E0
3.042263588E1,-1.063609719E0,2.697907448E0,7.209574699E0
3.044250437E1,-1.097109199E0,2.650051117E0,7.137789726E0
3.046236755E1,-1.140179992E0,2.650051117E0,6.821937561E0
3.048223598E1,-1.077966571E0,2.764906645E0,6.347560406E0
3.050209916E1,-9.439685345E-1,3.028116941E0,5.792425632E0
3.052196765E1,-1.025324464E0,3.425923824E0,5.212764263E0
3.054183078E1,-1.255035520E0,3.569493294E0,5.346762180E0
3.056169927E1,-1.503889084E0,3.329612732E0,6.376274109E0
3.058156239E1,-1.676172256E0,3.397209883E0,7.635497093E0
3.060143088E1,-1.829911113E0,3.799204111E0,8.234300613E0
3.062129401E1,-1.925624013E0,4.474578381E0,8.167302132E0
3.064116250E1,-1.825125456E0,5.034498692E0,7.702496052E0
3.066102557E1,-1.901695848E0,5.412564754E0,7.171289444E0
3.068089411E1,-1.752742529E0,5.628517151E0,7.621140003E0
3.070075718E1,-1.159322619E0,5.446064472E0,9.101100922E0
3.072062572E1,-1.173679471E0,5.187639713E0,1.020239735E1
3.074048885E1,-1.302891970E0,5.106283665E0,1.095912743E1
3.076035734E1,-1.188036442E0,5.216353416E0,1.137069321E1
3.078022046E1,-8.961120844E-1,5.091926575E0,1.146162033E1
3.080008895E1,-4.648058116E-1,4.579862595E0,1.151426220E1
3.081995208E1,-3.643072546E-1,4.095914364E0,1.133719349E1
3.083982057E1,-5.892325640E-1,3.947559118E0,1.050867844E1
3.085968369E1,-9.248259664E-1,4.282554150E0,8.866603851E0
3.087955218E1,-9.152546525E-1,4.838287354E0,7.276573658E0
3.089941526E1,-4.169493318E-1,5.029713154E0,6.476772785E0
3.091928380E1,-1.345962733E-1,4.642076015E0,6.357131481E0
3.093914687E1,-5.078766346E-1,4.191627026E0,6.620342255E0
3.095901541E1,-1.178465128E0,3.990629911E0,6.960721016E0
3.097887854E1,-1.599601984E0,3.885345697E0,6.908079147E0
3.099874703E1,-1.594816327E0,3.918845177E0,6.591628075E0
3.101861015E1,-1.226321578E0,4.081557274E0,6.366703033E0
3.103847869E1,-1.034895778E0,4.191627026E0,6.275775433E0
3.105845755E1,-1.168893814E0,4.196412563E0,6.371488571E0
3.107821046E1,-1.542174220E0,4.249054909E0,6.376274109E0
3.109807354E1,-1.901695848E0,4.522434711E0,6.615556240E0
3.111794203E1,-2.260619164E0,4.833501816E0,7.113861561E0
3.113780510E1,-2.624328136E0,5.316852093E0,7.688138962E0
3.115767364E1,-2.499901533E0,5.910870075E0,8.234300613E0
3.117753666E1,-2.231905222E0,6.379863262E0,8.617152214E0
3.119740515E1,-2.160120726E0,6.653243542E0,9.177671432E0
3.121726828E1,-2.050050735E0,6.591030121E0,1.007318497E1
3.123713682E1,-1.747956991E0,6.107081413E0,1.101655579E1
3.125699984E1,-1.877767563E0,5.934798241E0,1.187318611E1
3.127686833E1,-2.241476536E0,6.384648800E0,1.174397373E1
3.129673145E1,-2.523829699E0,7.021738052E0,1.086281681E1
3.131659994E1,-2.399402857E0,6.940382004E0,1.092562866E1
3.133646312E1,-2.399402857E0,5.896512985E0,1.166740322E1
3.135633156E1,-2.854039192E0,4.742574692E0,1.197428226E1
3.137619468E1,-3.352344513E0,4.009772778E0,1.205563831E1
3.139606317E1,-3.290131092E0,3.684348583E0,1.184447193E1
3.141592630E1,-2.715255499E0,3.713062525E0,1.047517967E1
3.143579479E1,-2.155334949E0,4.048057556E0,8.660223007E0
3.145565791E1,-1.776670814E0,4.182055950E0,7.243073940E0
3.147552640E1,-1.575673699E0,4.076771736E0,6.443273067E0
3.149538953E1,-1.575673699E0,3.799204111E0,6.223133564E0
3.151525802E1,-1.661815286E0,3.483351469E0,6.357131481E0
3.153512114E1,-1.561316729E0,3.363112211E0,6.582056999E0
3.155498963E1,-1.235892892E0,3.367897987E0,6.074778557E0
3.157485276E1,-1.054038405E0,3.516851187E0,5.198407173E0
3.159472125E1,-1.054038405E0,3.741776466E0,4.561318398E0
3.161458437E1,-1.149751306E0,3.923630953E0,4.207180500E0
3.163445286E1,-1.479960799E0,4.311268330E0,4.149752617E0
3.165431598E1,-1.633101463E0,4.766502857E0,4.542175770E0
3.167418447E1,-1.250249863E0,4.991427898E0,5.442475319E0
3.169404760E1,-8.673982322E-2,5.149354458E0,6.850651264E0
3.171391609E1,9.140582681E-1,5.144568920E0,8.157731056E0
3.173377921E1,8.231309652E-1,5.106283665E0,8.416155815E0
3.175364770E1,-2.542374134E-1,5.230710506E0,8.014161110E0
3.177351083E1,-9.966106415E-1,5.197210789E0,7.837092400E0
3.179337932E1,-1.288534999E0,5.058426857E0,8.483154297E0
3.181324244E1,-1.513460279E0,4.981856823E0,9.570094109E0
3.183311093E1,-1.479960799E0,4.986642361E0,1.028375340E1
3.185297406E1,-1.566102386E0,5.240281582E0,1.127498055E1
3.187284255E1,-1.527817249E0,5.067998409E0,1.331486130E1
3.189270567E1,-1.465603828E0,4.397409916E0,1.538345718E1
3.191268989E1,-1.039681435E0,3.636492252E0,1.583330727E1
3.193255312E1,-3.547359705E-1,3.281756163E0,1.437787342E1
3.195230609E1,5.072783828E-1,3.660420418E0,1.184447193E1
3.197216911E1,1.431506157E0,4.258625984E0,9.383454323E0
3.199203760E1,1.608574986E0,4.551148891E0,7.597211838E0
3.201190062E1,9.906286001E-1,4.234697819E0,6.510272026E0
3.203176916E1,1.621137410E-1,3.890131474E0,5.816353798E0
3.205163218E1,-4.695914388E-1,3.689134359E0,5.466403484E0
3.207150072E1,-8.195417523E-1,3.507279873E0,5.595615864E0
3.209136374E1,-1.101894855E0,3.296113253E0,5.964708805E0
3.211123229E1,-1.393819213E0,3.248256683E0,6.156134605E0
3.213109536E1,-1.800599098E0,3.377469063E0,6.012565136E0
3.215096385E1,-2.341975212E0,3.593421459E0,5.897709846E0
3.217082697E1,-2.533401012E0,3.775275946E0,6.261418819E0
3.219069546E1,-2.337189436E0,3.803989887E0,6.960721016E0
3.221055854E1,-2.351546526E0,4.004986763E0,7.769495010E0
3.223042703E1,-2.581257343E0,4.397409916E0,8.444869041E0
3.225029015E1,-2.638685226E0,5.015356064E0,9.297312737E0
3.227015864E1,-2.322832584E0,5.441278458E0,1.031246758E1
3.229002177E1,-2.394617319E0,5.431707382E0,1.071446133E1
3.230989026E1,-2.686541557E0,5.139782906E0,1.095912743E1
3.232975338E1,-3.151347399E0,4.656432629E0,1.129890823E1
3.234962187E1,-3.922434568E0,4.603790760E0,1.090110207E1
3.236948500E1,-4.702494621E0,4.709074974E0,1.014018440E1
3.238935348E1,-4.942375183E0,4.551148891E0,1.040818024E1
3.240921661E1,-4.966303349E0,4.129413605E0,1.162911797E1
3.242908510E1,-4.683351994E0,3.626920938E0,1.226142120E1
3.244894817E1,-3.955934048E0,3.367897987E0,1.221356487E1
3.246881671E1,-3.270988464E0,3.674777269E0,1.162433243E1
3.248867979E1,-3.022135019E0,3.353540897E0,1.059482002E1
3.250854828E1,-3.122633457E0,3.392424345E0,9.273384094E0
3.252841140E1,-3.151347399E0,3.445066452E0,8.239086151E0
3.254827989E1,-2.495115757E0,3.329612732E0,7.980661869E0
3.256814296E1,-1.465603828E0,2.994617462E0,8.009375572E0
3.258801151E1,-9.774680734E-1,2.616551638E0,7.692924976E0
3.260787463E1,-9.774680734E-1,2.425125837E0,6.989434719E0
3.262774312E1,-1.302891970E0,2.396411896E0,6.256632805E0
3.264760624E1,-1.546959877E0,2.405983210E0,5.595615864E0
3.266747468E1,-1.762313843E0,2.492124796E0,5.126622677E0
3.268733781E1,-2.088335991E0,2.583052158E0,4.892126083E0
3.270720630E1,-2.676970243E0,2.812762976E0,5.174479008E0
3.272706942E1,-2.912065268E0,3.483351469E0,5.878567219E0
3.274693791E1,-2.581257343E0,4.316053867E0,6.232704639E0
3.276680104E1,-2.600399971E0,4.704289436E0,6.242276192E0
3.278666953E1,-3.060420275E0,4.272983074E0,6.663413048E0
3.280653265E1,-3.854837179E0,3.942773581E0,7.808378696E0
3.282640109E1,-4.066003799E0,3.918845177E0,8.784649849E0
3.284626421E1,-3.773481369E0,4.000201225E0,9.349954605E0
3.286613270E1,-3.653840065E0,4.105485439E0,1.011147022E1
3.288599583E1,-3.787838221E0,4.186841488E0,1.124148083E1
3.290586432E1,-3.615555048E0,4.100699902E0,1.184447193E1
3.292572744E1,-3.419343472E0,4.220340729E0,1.187318611E1
3.294559588E1,-3.558127165E0,4.804787636E0,1.145683479E1
3.296545900E1,-3.448057413E0,5.254638672E0,1.089631653E1
3.298532750E1,-2.767897606E0,5.240281582E0,1.121755219E1
3.300519062E1,-2.404188633E0,4.431507587E0,1.229492092E1
3.302505911E1,-2.763111830E0,3.348755360E0,1.273519993E1
3.304492223E1,-2.988635540E0,2.884547710E0,1.181575775E1
3.306479067E1,-2.619542599E0,3.018545866E0,9.982257843E0
3.308465380E1,-2.097907305E0,3.195614576E0,8.085946083E0
3.310452229E1,-1.633101463E0,3.296113253E0,6.754938126E0
3.312438541E1,-1.580459356E0,3.267399311E0,5.988636971E0
3.314425390E1,-1.771885157E0,3.315255880E0,5.432903767E0
3.316411697E1,-2.006979942E0,3.348755360E0,5.112265587E0
3.318398546E1,-1.983051777E0,3.421138287E0,4.959125042E0
3.320384859E1,-1.724028707E0,3.617349625E0,4.954339504E0
3.322371708E1,-1.503889084E0,3.789632797E0,5.040481091E0
3.324358020E1,-1.441675663E0,4.009772778E0,5.069194794E0
3.326344869E1,-1.791027784E0,4.339982033E0,4.863411903E0
3.328331177E1,-2.547757864E0,4.756931305E0,5.102694511E0
3.330318026E1,-3.290131092E0,5.101497650E0,6.347560406E0
3.332304338E1,-3.438486099E0,5.154139996E0,7.645068169E0
3.334291187E1,-3.802195072E0,5.312066078E0,8.301300049E0
3.336277500E1,-4.228715897E0,5.542375565E0,8.487939835E0
3.338264374E1,-4.592424870E0,5.805585861E0,8.828319550E0
3.340250661E1,-4.487140656E0,5.872584820E0,9.493523598E0
3.342237505E1,-4.463212490E0,5.858228207E0,1.024068260E1
3.344223817E1,-4.783850670E0,6.145366669E0,1.044646549E1
3.346210666E1,-5.569294930E0,6.930810928E0,9.747162819E0
3.348196979E1,-4.922634602E0,7.280162811E0,9.330811501E0
3.350183828E1,-2.950350285E0,5.920441628E0,1.056132126E1
3.352170140E1,-3.314059258E0,4.670789719E0,1.156690502E1
3.354156984E1,-4.037290096E0,4.000201225E0,1.103569794E1
3.356143296E1,-3.486342669E0,3.502494097E0,9.948758125E0
3.358130145E1,-3.299702406E0,3.521636724E0,8.612366676E0
3.360116458E1,-3.069991350E0,3.899702787E0,7.554141045E0
3.362103302E1,-2.461616278E0,3.995415688E0,6.596413612E0
3.364089614E1,-2.394617319E0,4.119842529E0,5.998208046E0
3.366076463E1,-2.605185747E0,4.033700943E0,6.127420425E0
3.368062770E1,-2.346760750E0,3.540779352E0,6.793223381E0
3.370049625E1,-2.241476536E0,3.272184849E0,7.152146816E0
3.372035937E1,-2.083550215E0,3.334398270E0,7.204789162E0
3.374022781E1,-1.906481385E0,3.550350666E0,7.056434155E0
3.376009093E1,-1.978266120E0,3.952344894E0,6.591628075E0
3.377995942E1,-2.241476536E0,4.445864677E0,6.476772785E0
3.379982250E1,-2.734398127E0,4.900500774E0,6.893722057E0
3.381969104E1,-2.964707375E0,5.029713154E0,7.813164234E0
3.383955411E1,-2.609971285E0,5.053641319E0,8.416155815E0
3.385930718E1,-2.294118643E0,5.379065514E0,7.975875854E0
3.387928552E1,-2.236690998E0,5.834300041E0,7.448856831E0
3.389915406E1,-2.485544443E0,6.135795593E0,7.161718369E0
3.391901723E1,-2.782254457E0,6.284150600E0,6.994220734E0
3.393888572E1,-2.993421078E0,6.403791428E0,7.243073940E0
3.395874885E1,-2.912065268E0,6.140581131E0,8.598010063E0
3.397861739E1,-2.743969440E0,5.528018475E0,1.048953629E1
3.399848046E1,-2.571686029E0,4.910071850E0,1.167697430E1
3.401834901E1,-2.375474691E0,4.632504463E0,1.141376400E1
3.403821208E1,-2.700898647E0,5.087141037E0,1.071924686E1
3.405808062E1,-2.533401012E0,4.938786030E0,1.077667522E1
3.407794369E1,-1.896910191E0,4.363910198E0,1.156690502E1
3.409781218E1,-1.585245013E0,4.119842529E0,1.189232826E1
3.411767526E1,-1.752742529E0,3.942773581E0,1.068574810E1
3.413754380E1,-1.834696770E0,3.933202267E0,8.789435387E0
3.415740687E1,-1.752742529E0,3.990629911E0,7.429714203E0
3.417727536E1,-1.508674622E0,3.890131474E0,6.994220734E0
3.419713848E1,-1.278963685E0,3.631706476E0,7.286144733E0
3.421700697E1,-1.350748420E0,3.478565931E0,7.267002583E0
3.423687005E1,-1.700100541E0,3.583850145E0,6.007779598E0
3.425673854E1,-1.887338877E0,3.803989887E0,4.082753658E0
3.427660161E1,-1.360319614E0,4.129413605E0,2.957528830E0
3.429647015E1,-8.291130662E-1,4.406980991E0,2.464009047E0
3.431633322E1,-8.243274093E-1,4.728217602E0,2.679961443E0
3.433620177E1,-1.235892892E0,5.350351334E0,3.671188116E0
3.435606479E1,-1.810170293E0,5.915655613E0,5.198407173E0
3.437593333E1,-1.954337835E0,5.968297958E0,6.936792850E0
3.439579640E1,-1.805384636E0,6.174080849E0,8.219944000E0
3.441566494E1,-1.341177106E0,6.744170666E0,8.813364029E0
3.443552802E1,-9.248259664E-1,7.567899704E0,8.607581139E0
3.445539650E1,-1.920240223E-1,8.328817368E0,8.435297966E0
3.447525963E1,3.397808075E-1,8.548956871E0,8.828319550E0
3.449512807E1,2.243271172E-1,8.204390526E0,9.862018585E0
3.451499119E1,-2.931207791E-2,7.697112083E0,1.093998528E1
3.453485968E1,-7.136593461E-1,7.596613884E0,1.075753212E1
3.455472281E1,-1.001396298E0,7.883752346E0,9.809376717E0
3.457459124E1,-9.152546525E-1,8.127820015E0,9.627521515E0
3.459445437E1,-1.135394335E0,7.591827869E0,1.042732334E1
3.461432286E1,-1.293320656E0,6.379863262E0,1.125583744E1
3.463418598E1,-1.853839397E0,5.379065514E0,1.137069321E1
3.465405442E1,-2.351546526E0,4.795216560E0,1.056610680E1
3.467391755E1,-1.901695848E0,4.622933388E0,9.302098274E0
3.469378604E1,-1.231107235E0,4.306482315E0,7.899305820E0
3.471364916E1,-1.312463164E0,4.186841488E0,6.908079147E0
3.473363338E1,-1.499103427E0,3.870988846E0,6.275775433E0
3.475338083E1,-2.193620205E0,3.770490170E0,5.792425632E0
3.477324937E1,-2.974278450E0,3.995415688E0,5.672185898E0
3.479311244E1,-2.576471806E0,4.081557274E0,6.074778557E0
3.481298088E1,-1.724028707E0,3.866203070E0,6.960721016E0
3.483284395E1,-4.025924206E-1,3.890131474E0,8.200801849E0
3.485271244E1,1.359721422E0,3.971487284E0,8.406583786E0
3.487257552E1,1.862214208E0,4.162913322E0,6.994220734E0
3.489244400E1,8.422735929E-1,4.397409916E0,5.700900078E0
3.491230708E1,8.075776696E-2,4.277768612E0,5.423332691E0
3.493217557E1,-1.149751306E0,4.847858906E0,5.763711452E0
3.495203864E1,-8.195417523E-1,4.723432064E0,6.376274109E0
3.497190708E1,4.725824669E-2,4.608576298E0,7.200003147E0
3.499177020E1,-2.542374134E-1,5.034498692E0,7.851449490E0
3.501163869E1,-5.557330847E-1,5.273781300E0,8.224729538E0
3.503150182E1,-2.015953064E-1,4.780859470E0,8.981459618E0
3.505137026E1,-9.631111473E-2,3.928416491E0,1.024546814E1
3.507123338E1,1.277767301E0,2.501696110E0,1.088195896E1
3.509110182E1,9.523434043E-1,3.272184849E0,1.096869946E1
3.511096494E1,-2.011765718E0,5.369493961E0,1.171525955E1
3.513083338E1,-2.724826813E0,6.121438503E0,1.185882950E1
3.515069650E1,-6.323033571E-1,4.296911240E0,1.126062298E1
3.517056500E1,8.422735929E-1,2.630908489E0,1.102134132E1
3.519042807E1,1.668993831E-1,2.702693224E0,1.079581738E1
3.521029656E1,-5.988038778E-1,2.836691141E0,9.872187614E0
3.523015968E1,-6.323033571E-1,2.693121910E0,9.254241943E0
3.525002812E1,-1.298106313E-1,3.257827997E0,8.339585304E0
3.526989125E1,1.573280841E-1,2.539981127E0,7.683353424E0
3.528975973E1,-6.227321029E-1,2.951546669E0,8.215158463E0
3.530962286E1,-1.001396298E0,2.831905603E0,8.665008545E0
3.532949130E1,-7.860422134E-1,2.348555326E0,8.339585304E0
3.534935442E1,-7.088736892E-1,2.520838737E0,7.712067604E0
3.536922291E1,-1.733600020E0,3.276970625E0,7.716853142E0
3.538908598E1,-2.188834429E0,3.320041418E0,7.515855789E0
3.540895447E1,-9.774680734E-1,2.645265341E0,7.219145775E0
3.542881760E1,-1.049252748E0,3.243471146E0,7.597211838E0
3.544868604E1,-1.164108157E0,3.698705673E0,8.124231339E0
3.546854916E1,-9.056833982E-1,3.646063566E0,8.928817749E0
3.548841765E1,-8.147560954E-1,3.421138287E0,9.723235130E0
3.550828072E1,-1.154536963E0,3.238685369E0,1.019761181E1
3.552814921E1,-1.776670814E0,3.406781197E0,1.076231766E1
3.554801234E1,-1.709671736E0,3.646063566E0,1.129890823E1
3.556788078E1,-1.365105271E0,3.689134359E0,1.155733299E1
3.558774390E1,-1.542174220E0,3.736990690E0,1.187318611E1
3.560761239E1,-1.795813441E0,3.622135162E0,1.205085278E1
3.562747541E1,-2.093121529E0,3.914059639E0,1.175833035E1
3.564734395E1,-2.298904419E0,4.474578381E0,1.120319557E1
3.566720708E1,-2.370688915E0,4.431507587E0,1.091605663E1
3.568707552E1,-2.566900492E0,3.880560160E0,1.097348499E1
3.570693864E1,-2.566900492E0,3.162115097E0,1.148554897E1
3.572680713E1,-2.700898647E0,2.678765059E0,1.216092300E1
3.574667020E1,-2.983849764E0,2.501696110E0,1.232842064E1
3.576653869E1,-2.614757061E0,2.348555326E0,1.142812061E1
3.578640177E1,-1.805384636E0,2.482553482E0,1.001575756E1
3.580627026E1,-1.044467092E0,2.831905603E0,9.058030128E0
3.582613333E1,-5.557330847E-1,2.865405083E0,8.406583786E0
3.584600187E1,-5.940182209E-1,2.774477959E0,7.745566845E0
3.586586494E1,-7.663014531E-1,2.717050076E0,6.989434719E0
3.588573343E1,-5.078766346E-1,2.908475876E0,6.414559364E0
3.590559651E1,1.142572835E-1,3.397209883E0,5.964708805E0
3.592546500E1,1.190429255E-1,3.751347780E0,5.212764263E0
3.594532812E1,-5.413761139E-1,3.909274101E0,4.691128731E0
3.596519656E1,-9.343972206E-1,3.708276987E0,4.278964996E0
3.598505968E1,-1.350748420E0,3.588635683E0,3.948755503E0
3.600492812E1,-1.800599098E0,3.885345697E0,4.451248169E0
3.602479124E1,-1.685743570E0,4.071985722E0,5.475974560E0
3.604465973E1,-1.551745534E0,4.292125702E0,6.744768620E0
3.606452286E1,-1.556531072E0,4.551148891E0,8.033304214E0
3.608439130E1,-1.432104349E0,4.508078098E0,9.278169632E0
3.610425442E1,-1.451246977E0,4.363910198E0,1.062353420E1
3.612412286E1,-1.604387641E0,4.196412563E0,1.177747345E1
3.614398598E1,-1.604387641E0,4.249054909E0,1.226620674E1
3.616385447E1,-8.147560954E-1,4.441078663E0,1.179661560E1
3.618371755E1,-3.499503136E-1,5.374279499E0,1.119362450E1
3.620358604E1,8.973085321E-3,5.910870075E0,1.144726372E1
3.622344911E1,2.530409992E-1,5.595017433E0,1.197906876E1
3.624331760E1,2.578266263E-1,4.914857864E0,1.247198963E1
3.626318072E1,5.682953820E-2,4.249054909E0,1.227577877E1
3.628304916E1,-2.638086975E-1,4.067200184E0,1.089631653E1
3.630291229E1,-6.281159073E-2,4.162913322E0,8.818149567E0
3.632278072E1,1.573280841E-1,4.220340729E0,7.161718369E0
3.634264385E1,3.014956415E-1,4.301696777E0,6.500700951E0
3.636251234E1,9.990034252E-2,4.368695736E0,6.692126751E0
3.638237541E1,-5.892325640E-1,4.229912281E0,7.037291527E0
3.640224390E1,-9.056833982E-1,3.971487284E0,7.018148899E0
3.642210697E1,-1.049252748E0,3.813561201E0,6.720840454E0
3.644197546E1,-1.360319614E0,4.033700943E0,7.310073376E0
3.646183854E1,-1.412961721E0,4.229912281E0,8.789435387E0
3.648170703E1,-1.432104349E0,4.373481750E0,9.818947792E0
3.650157010E1,-6.705885530E-1,4.512863636E0,9.531808853E0
3.652143859E1,-6.759724021E-2,4.747360229E0,8.784649849E0
3.654130171E1,-1.824527234E-1,4.895715237E0,7.865806103E0
3.656117020E1,-7.519445419E-1,5.154139996E0,6.788437843E0
3.658103328E1,-1.432104349E0,5.662016392E0,6.314060688E0
3.660090177E1,-1.709671736E0,6.083153248E0,6.448058605E0
3.662076489E1,-1.944766641E0,6.279364586E0,7.152146816E0
3.664063333E1,-1.935195327E0,5.805585861E0,8.406583786E0
3.666049640E1,-2.126621008E0,5.388636589E0,9.488738060E0
3.668036489E1,-2.810968399E0,5.638088226E0,9.349954605E0
3.670022796E1,-3.160918713E0,6.212365627E0,8.286943436E0
3.672009650E1,-3.160918713E0,6.489933014E0,8.062017441E0
3.673995963E1,-2.969492912E0,6.202794552E0,8.803792953E0
3.675982812E1,-2.452044964E0,5.623731613E0,9.546165466E0
3.677969114E1,-2.083550215E0,5.211567879E0,9.867402077E0
3.679955968E1,-2.255833626E0,5.144568920E0,9.847661972E0
3.681942281E1,-2.102692842E0,5.072783947E0,1.003489971E1
3.683929130E1,-1.767099500E0,4.704289436E0,9.972686768E0
3.685915442E1,-1.633101463E0,4.383052826E0,9.230313301E0
3.687902291E1,-1.369890928E0,4.186841488E0,8.578866959E0
3.689888604E1,-8.626125455E-1,3.985844374E0,8.746364594E0
3.691875447E1,-4.121637046E-1,3.870988846E0,9.029315948E0
3.693861760E1,-3.116651475E-1,3.641277790E0,8.444869041E0
3.695848609E1,-5.030909777E-1,3.425923824E0,7.286144733E0
3.697834921E1,-6.801598072E-1,3.367897987E0,6.184848309E0
3.699821770E1,-8.051848412E-1,3.492922783E0,5.365904808E0
3.701808083E1,-8.291130662E-1,3.780061483E0,4.839483738E0
3.703794927E1,-6.897311211E-1,4.177269936E0,4.710271358E0
3.705781244E1,-8.578268886E-1,4.383052826E0,5.241477966E0
3.707768093E1,-1.054038405E0,4.263411522E0,6.184848309E0
3.709754406E1,-1.183250785E0,4.292125702E0,7.051648140E0
3.711741250E1,-1.417747378E0,4.584648132E0,7.779066563E0
3.713727567E1,-1.470389485E0,4.862215519E0,7.942376614E0
3.715714416E1,-1.221535921E0,5.096712112E0,8.191229820E0
3.717700729E1,-8.434699774E-1,5.134997368E0,8.861818314E0
3.719687578E1,-4.600201547E-1,4.948357105E0,9.939187050E0
3.721673890E1,-5.270192027E-1,5.029713154E0,1.031725311E1
3.723660739E1,-5.509474277E-1,5.412564754E0,9.934401512E0
3.725647052E1,-4.360919297E-1,5.681159019E0,1.042253685E1
3.727633901E1,-3.834498227E-1,5.537590027E0,1.176311588E1
3.729620213E1,-4.121637046E-1,5.077569485E0,1.299900913E1
3.731607067E1,-4.073780477E-1,4.450650215E0,1.418644714E1
3.733593375E1,-5.324030295E-2,3.823132277E0,1.406202030E1
3.735580229E1,7.597211748E-2,3.842274904E0,1.173440266E1
3.737566536E1,2.823530734E-1,4.406980991E0,9.235098839E0
3.739553390E1,8.901300430E-1,4.551148891E0,8.253443718E0
3.741539697E1,1.105484009E0,4.071985722E0,8.665008545E0
3.743526552E1,3.732803464E-1,3.717848301E0,8.784649849E0
3.745512864E1,-5.844469070E-1,3.588635683E0,8.028517723E0
3.747499718E1,-1.049252748E0,3.540779352E0,6.874579430E0
3.749486026E1,-1.537388563E0,3.803989887E0,5.892923832E0
3.751472880E1,-2.581257343E0,4.148556232E0,5.935994625E0
3.753459192E1,-3.242274761E0,4.100699902E0,6.831508636E0
3.755446041E1,-2.552543640E0,3.732205153E0,6.793223381E0
3.757432354E1,-1.719243050E0,3.861417532E0,5.950351715E0
3.759419208E1,-1.264606714E0,4.599005222E0,5.519045353E0
3.761405515E1,-7.956135273E-1,5.402993679E0,5.475974560E0
3.763392369E1,-6.418746710E-1,5.982655048E0,5.595615864E0
3.765378682E1,-1.226321578E0,6.288936138E0,5.993422508E0
3.767365536E1,-1.906481385E0,6.485147476E0,6.639484406E0
3.769351843E1,-2.145763636E0,6.629314899E0,7.597211838E0
3.771338697E1,-2.145763636E0,6.456433773E0,9.148957253E0
3.773325005E1,-2.475973129E0,6.327221394E0,1.056610680E1
3.775311859E1,-2.883351326E0,6.629314899E0,1.082931709E1
3.777298171E1,-2.638685226E0,6.801598549E0,1.062353420E1
3.779285026E1,-2.672184706E0,7.021738052E0,1.047039413E1
3.781271333E1,-2.834896564E0,7.060023308E0,1.021196842E1
3.783258187E1,-2.787040234E0,6.930810928E0,1.032682419E1
3.785244494E1,-2.437688112E0,6.389434814E0,1.130369377E1
3.787231354E1,-2.006979942E0,5.475376606E0,1.213220882E1
3.789217661E1,-1.494317770E0,4.689932346E0,1.143769264E1
3.791204515E1,-1.092323542E0,4.402195454E0,9.661021233E0
3.793190828E1,-6.275177598E-1,4.517649174E0,8.339585304E0
3.795177682E1,-3.116651475E-1,4.445864677E0,8.219944000E0
3.797163989E1,-4.845465720E-2,3.990629911E0,8.373085022E0
3.799150843E1,2.291127741E-1,3.488137245E0,8.157731056E0
3.801137156E1,-3.403790295E-1,3.248256683E0,7.377072334E0
3.803124010E1,-1.116251707E0,3.257827997E0,6.194419384E0
3.805110317E1,-1.221535921E0,3.176471949E0,5.538187981E0
3.807097171E1,-1.274178028E0,3.305684566E0,5.303691387E0
3.809083484E1,-1.489532113E0,3.727419376E0,5.102694511E0
3.811070338E1,-1.513460279E0,3.952344894E0,5.380261898E0
3.813056645E1,-1.374676585E0,4.344767570E0,6.175277233E0
3.815043500E1,-1.168893814E0,4.905286312E0,7.310073376E0
3.817029812E1,-7.908278704E-1,5.216353416E0,7.947162151E0
3.819016666E1,-5.748756528E-1,5.465805054E0,7.783852100E0
3.821002973E1,-5.509474277E-1,5.700301647E0,7.161718369E0
3.822989828E1,-3.308077157E-1,5.920441628E0,7.080362320E0
3.824976135E1,4.247260094E-2,5.819942951E0,7.942376614E0
3.826962994E1,2.967100143E-1,5.494519234E0,9.091529846E0
3.828949302E1,2.823530734E-1,5.504090309E0,9.775876999E0
3.830936156E1,5.647061467E-1,5.690730572E0,9.254241943E0
3.832922463E1,1.024128079E0,5.958726406E0,8.803792953E0
3.834909317E1,9.236295223E-1,6.614958286E0,9.852447510E0
3.836895630E1,1.723430514E0,6.437291145E0,1.150947666E1
3.838882484E1,2.666800737E0,6.107081413E0,1.267298698E1
3.840880369E1,2.896511793E0,5.953940868E0,1.247198963E1
3.842855661E1,2.877369165E0,5.934798241E0,1.078146076E1
3.844841973E1,2.973082066E0,6.265007973E0,8.588438988E0
3.846828828E1,2.662015200E0,6.145366669E0,6.706483841E0
3.848815130E1,1.584646821E0,5.709873199E0,6.093921185E0
3.850801984E1,7.609176040E-1,5.307280540E0,6.586842537E0
3.852788291E1,-1.776670814E-1,4.838287354E0,6.994220734E0
3.854775145E1,-1.154536963E0,4.363910198E0,7.118647575E0
3.856761453E1,-1.911267042E0,3.985844374E0,7.200003147E0
3.858748307E1,-2.327618122E0,3.823132277E0,6.979863644E0
3.860734614E1,-2.274976015E0,3.885345697E0,6.309275150E0
3.862721463E1,-2.318047047E0,4.268197536E0,5.643472195E0
3.864707781E1,-2.112264156E0,4.411766529E0,5.437689304E0
3.866694630E1,-1.863410592E0,4.522434711E0,5.888138294E0
3.868680942E1,-1.690529227E0,4.651647091E0,6.596413612E0
3.870667791E1,-1.374676585E0,4.675575256E0,6.663413048E0
3.872654104E1,-1.355534077E0,4.814359188E0,6.644270420E0
3.874640953E1,-1.719243050E0,5.010570526E0,6.750152588E0
3.876627265E1,-2.040479422E0,5.235496044E0,6.888936520E0
3.878614114E1,-2.198405743E0,5.369493961E0,7.396214962E0
3.880600432E1,-1.968694806E0,5.139782906E0,8.531010628E0
3.882587281E1,-1.436890006E0,4.642076015E0,9.684949875E0
3.884573593E1,-1.456032634E0,4.551148891E0,1.014496994E1
3.886560442E1,-1.968694806E0,5.029713154E0,9.689735413E0
3.888546760E1,-2.155334949E0,5.657230854E0,9.388239861E0
3.890533609E1,-1.671386600E0,6.097510338E0,1.046560764E1
3.892519916E1,-8.147560954E-1,5.877370834E0,1.224706459E1
3.894506770E1,-5.126622319E-1,5.230710506E0,1.336750412E1
3.896493083E1,-7.328019142E-1,4.431507587E0,1.319043446E1
3.898479932E1,-9.631111026E-1,4.009772778E0,1.218963718E1
3.900466244E1,-7.758727670E-1,4.038486481E0,1.154297638E1
3.902453098E1,-4.408775866E-1,4.095914364E0,1.108355427E1
3.904439406E1,-4.983053207E-1,4.119842529E0,1.032203865E1
3.906426260E1,-5.605186820E-1,4.100699902E0,9.680164337E0
3.908412567E1,-5.461617708E-1,4.019343853E0,9.388239861E0
3.910399421E1,-4.935196638E-1,3.751347780E0,9.134600639E0
3.912385734E1,-6.897311211E-1,3.516851187E0,8.593224525E0
3.914372588E1,-9.200403094E-1,3.387638569E0,7.678567886E0
3.916358895E1,-9.966106415E-1,3.401995659E0,6.764509678E0
3.918345750E1,-1.116251707E0,3.492922783E0,6.041278839E0
3.920332057E1,-1.245464206E0,3.617349625E0,5.542973518E0
3.922318906E1,-1.599601984E0,3.808775425E0,5.193621635E0
3.924305218E1,-1.973480463E0,3.971487284E0,5.145765305E0
3.926292078E1,-2.217548370E0,4.048057556E0,5.375475883E0
3.928278385E1,-2.428116798E0,4.129413605E0,5.897709846E0
3.930265239E1,-2.241476536E0,4.215555191E0,6.979863644E0
3.932251546E1,-1.849053741E0,4.153341770E0,8.344370842E0
3.934238400E1,-1.944766641E0,4.234697819E0,8.803792953E0
3.936224708E1,-1.800599098E0,4.373481750E0,8.191229820E0
3.938211562E1,-1.484746456E0,4.733003139E0,7.601997375E0
3.940197869E1,-1.307677627E0,5.077569485E0,7.908876896E0
3.942184723E1,-1.345962763E0,5.216353416E0,8.684151649E0
3.944171031E1,-1.307677627E0,5.120640278E0,9.450452805E0
3.946157885E1,-1.082752228E0,5.134997368E0,1.026461124E1
3.948144197E1,-8.530412912E-1,5.431707382E0,1.123190975E1
3.950131052E1,-6.323033571E-1,5.504090309E0,1.200778198E1
3.952117359E1,-3.547359705E-1,5.379065514E0,1.279262829E1
3.954104213E1,4.163511395E-1,5.015356064E0,1.346321678E1
3.956090520E1,1.229910851E0,4.488935471E0,1.320000648E1
3.958077374E1,1.551147223E0,4.196412563E0,1.124148083E1
3.960063682E1,1.417149186E0,4.469792843E0,8.540582657E0
3.962050536E1,1.728216171E0,4.551148891E0,6.682555676E0
3.964036848E1,1.718644857E0,4.277768612E0,5.979065418E0
3.966023697E1,8.518448472E-1,4.000201225E0,6.146563053E0
3.968010010E1,-5.324030295E-2,3.689134359E0,6.634698868E0
3.969996864E1,-5.796613097E-1,3.459423304E0,6.941578388E0
3.971983171E1,-9.487541914E-1,3.526422262E0,6.788437843E0
3.973970026E1,-8.338986635E-1,3.713062525E0,6.558128834E0
3.975956333E1,-5.988038778E-1,3.923630953E0,6.524629116E0
3.977943187E1,-4.456632137E-1,4.062414646E0,6.471987247E0
3.979929494E1,-4.743770957E-1,4.105485439E0,6.242276192E0
3.981916348E1,-7.375875711E-1,4.249054909E0,6.247061729E0
3.983902661E1,-1.006181955E0,4.532006264E0,6.778866768E0
3.985889510E1,-9.966106415E-1,4.670789719E0,7.372286797E0
3.987875817E1,-1.034895778E0,4.718646049E0,7.794021606E0
3.989862671E1,-1.379462242E0,4.934000492E0,8.497511864E0
3.991848984E1,-1.618744493E0,5.039284706E0,8.995817184E0
3.993835833E1,-1.523031592E0,5.067998409E0,9.474381447E0
3.995822145E1,-1.326820135E0,4.886143684E0,1.067139053E1
3.997808994E1,-1.747956991E0,4.632504463E0,1.161954689E1
3.999795307E1,-2.528615236E0,4.517649174E0,1.200299644E1
4.001782156E1,-2.772683144E0,4.622933388E0,1.187318611E1
4.003768468E1,-2.519043922E0,4.852644444E0,1.186840057E1
4.005755317E1,-1.963909149E0,4.637290478E0,1.209870911E1
4.007741630E1,-1.704886079E0,4.091128349E0,1.231406307E1
4.009728479E1,-1.795813441E0,3.703491211E0,1.241456223E1
4.011714791E1,-1.916052699E0,3.727419376E0,1.232363510E1
4.013701640E1,-1.628315806E0,3.636492252E0,1.163390350E1
4.015687942E1,-1.341177106E0,3.559921980E0,1.007797050E1
4.017674802E1,-1.049252748E0,3.569493294E0,8.511868477E0
4.019661114E1,-3.499503136E-1,3.401995659E0,7.563712597E0
4.021647963E1,-1.872383654E-1,3.095116138E0,7.137789726E0
4.023634276E1,-6.323033571E-1,2.855833769E0,7.386643410E0
4.025621124E1,-6.849454641E-1,2.626122952E0,7.937591076E0
4.027607437E1,-6.131607890E-1,2.343769789E0,7.611568928E0
4.029594286E1,-9.966106415E-1,2.401197433E0,6.438487530E0
4.031580598E1,-1.302891970E0,2.779263496E0,5.830710411E0
4.033567447E1,-1.121037364E0,3.028116941E0,6.165705681E0
4.035553760E1,-9.200403094E-1,3.119044304E0,6.663413048E0
4.037540604E1,-1.130608678E0,3.243471146E0,7.056434155E0
4.039526916E1,-1.594816327E0,3.382853031E0,7.300501823E0
4.041513765E1,-1.752742529E0,3.574278831E0,7.582854748E0
4.043500078E1,-1.724028707E0,3.885345697E0,8.550153732E0
4.045486927E1,-1.379462242E0,4.215555191E0,9.795019150E0
4.047473239E1,-7.758727670E-1,4.406980991E0,1.048475075E1
4.049460088E1,-3.499503136E-1,4.383052826E0,1.029332447E1
4.051446400E1,-2.829512656E-1,4.411766529E0,9.872187614E0
4.053433250E1,-4.025924206E-1,4.512863636E0,9.896116257E0
4.055419562E1,-2.111666054E-1,4.646861553E0,1.003968525E1
4.057406411E1,2.919243574E-1,4.546362877E0,1.002054310E1
4.059392718E1,4.211367965E-1,4.335196495E0,1.046082211E1
4.061379572E1,3.445664644E-1,4.210769653E0,1.136590767E1
4.063365880E1,3.493520916E-1,4.100699902E0,1.221356487E1
4.065352739E1,6.460621357E-1,3.866203070E0,1.293619728E1
4.067339041E1,1.014556766E0,3.550350666E0,1.332921886E1
4.069325890E1,1.076770186E0,3.296113253E0,1.300858021E1
4.071312203E1,9.858429432E-1,3.162115097E0,1.151426220E1
4.073299052E1,9.858429432E-1,3.296113253E0,9.608379364E0
4.075285359E1,1.009771109E0,3.435495138E0,8.090731621E0
4.077272213E1,8.327022791E-1,3.449851990E0,7.200003147E0
4.079258526E1,3.110669553E-1,3.497708559E0,6.860222340E0
4.081245369E1,-1.058823988E-1,3.401995659E0,6.605985165E0
4.083231687E1,-2.446661144E-1,3.233899832E0,6.194419384E0
4.085218536E1,-3.930211067E-1,3.181257725E0,5.744568825E0
4.087204843E1,-5.940182209E-1,3.253042459E0,5.423332691E0
4.089191692E1,-6.897311211E-1,3.367897987E0,5.174479008E0
4.091178005E1,-8.051848412E-1,3.593421459E0,5.404190063E0
4.093164854E1,-9.726824164E-1,3.641277790E0,6.002993584E0
4.095151161E1,-1.168893814E0,3.665206194E0,6.538986206E0
4.097138015E1,-1.293320656E0,3.770490170E0,7.271788120E0
4.099124322E1,-1.216750264E0,3.794418573E0,8.047660828E0
4.101111171E1,-9.678967595E-1,3.923630953E0,8.598010063E0
4.103097484E1,-7.232306600E-1,4.282554150E0,8.943174362E0
4.105084333E1,-4.695914388E-1,4.685146809E0,9.029315948E0
4.107070640E1,-6.759724021E-2,4.871787071E0,9.330811501E0
4.109057494E1,2.727817893E-1,4.694717884E0,1.025503922E1
4.111043807E1,4.247260094E-2,4.508078098E0,1.127498055E1
4.113030656E1,-7.136593461E-1,4.603790760E0,1.148554897E1
4.115016968E1,-1.144965649E0,4.929214478E0,1.088195896E1
4.117003812E1,-6.466603279E-1,5.096712112E0,1.100698376E1
4.118990124E1,6.640082598E-2,4.699503899E0,1.206999588E1
4.120976973E1,-3.882354796E-1,4.105485439E0,1.291226959E1
4.122963281E1,-1.039681435E0,3.421138287E0,1.299900913E1
4.124950130E1,-1.302891970E0,3.176471949E0,1.220877934E1
4.126936437E1,-1.044467092E0,3.348755360E0,1.094477081E1
4.128923291E1,-5.605186820E-1,3.626920938E0,9.732806206E0
4.130909604E1,-1.728814393E-1,3.626920938E0,8.938388824E0
4.132896453E1,-2.542374134E-1,3.430709362E0,8.660223007E0
4.134882755E1,-5.700899959E-1,3.119044304E0,8.775078773E0
4.136869609E1,-7.184450030E-1,2.937189817E0,8.890532494E0
4.138855921E1,-5.988038778E-1,2.970689297E0,8.511868477E0
4.140842770E1,-3.834498227E-1,3.090330362E0,7.544569969E0
4.142829078E1,-2.781656384E-1,3.310470104E0,6.720840454E0
4.144815927E1,-2.542374134E-1,3.387638569E0,6.256632805E0
4.146802234E1,-4.743770957E-1,3.497708559E0,6.017350674E0
4.148789088E1,-6.466603279E-1,3.564707518E0,5.892923832E0
4.150775395E1,-8.243274093E-1,3.736990690E0,5.912066460E0
4.152762244E1,-9.200403094E-1,4.062414646E0,6.337988853E0
4.154748562E1,-8.769695163E-1,4.268197536E0,7.257431030E0
4.156735406E1,-6.993024349E-1,4.244269371E0,8.014161110E0
4.158721718E1,-7.232306600E-1,4.325624943E0,8.363512993E0
4.160708567E1,-7.567301393E-1,4.656432629E0,8.679366112E0
4.162694874E1,-1.393819153E-1,4.747360229E0,9.369096756E0
4.164681723E1,1.094716340E-1,4.522434711E0,1.028375340E1
4.166668031E1,-2.111666054E-1,4.325624943E0,1.111226845E1
