"Time (s)","Acceleration x (m/s^2)","Acceleration y (m/s^2)","Acceleration z (m/s^2)"
1.707096500E-2,6.464344263E-2,1.644816518E0,8.312667847E0
3.705997900E-2,1.060631394E0,1.225831270E0,9.943120003E0
5.704899300E-2,7.206547260E-1,1.091755986E0,9.531316757E0
7.703800600E-2,-9.337386489E-2,1.256955862E0,8.501810074E0
9.702702000E-2,-6.224924326E-2,1.467645645E0,8.161833763E0
1.170160340E-1,1.580173075E-1,1.450886250E0,8.353369713E0
1.370355650E-1,4.165911078E-1,1.410184860E0,8.916007042E0
1.570550960E-1,2.657563984E-1,1.508347034E0,8.647856712E0
1.770441100E-1,-6.224924326E-2,1.714248419E0,7.745242596E0
1.970636410E-1,2.059013397E-1,1.951274395E0,7.084442616E0
2.170526550E-1,3.758896589E-1,1.900996208E0,7.649474621E0
2.370416690E-1,5.482721925E-1,1.879448295E0,8.437167168E0
2.570306820E-1,7.637503147E-1,2.013523579E0,8.590395927E0
2.770196960E-1,8.523358107E-1,2.059013367E0,8.755595207E0
2.970087100E-1,1.053448796E0,1.580173135E0,9.514557838E0
3.169977230E-1,5.219359994E-1,2.142810583E0,1.000058079E1
3.369867370E-1,-3.926490843E-1,1.893813491E0,1.040998936E1
3.570062680E-1,-2.944868207E-1,2.545036316E0,9.816226959E0
3.769952820E-1,4.213795066E-1,2.420537949E0,9.981427193E0
3.970148130E-1,6.703764796E-1,2.183511972E0,9.753977776E0
4.170038270E-1,2.250549644E-1,2.133233786E0,9.763554573E0
4.369928400E-1,-3.375824392E-1,2.128445387E0,1.081460953E1
4.570428890E-1,-4.596867263E-1,1.872265697E0,1.187763500E1
4.770319030E-1,-4.405331016E-1,1.565807939E0,1.172679996E1
4.970514340E-1,-2.561795712E-1,1.357512355E0,1.114500904E1
5.170709650E-1,1.580173075E-1,1.601720929E0,1.009874249E1
5.370599790E-1,-4.357447028E-1,1.865083098E0,8.595184326E0
5.570489930E-1,-2.037465572E0,1.525106430E0,8.255207062E0
5.770074890E-1,-3.136404276E0,7.158663273E-1,1.088882923E1
5.970270200E-1,-1.929726601E0,-1.221042871E-1,1.313219643E1
6.170160340E-1,-3.184288144E-1,-3.232172430E-1,1.310346603E1
6.370355650E-1,-1.460463107E-1,1.675941199E-1,1.020887566E1
6.570245790E-1,-1.355118155E0,7.733271718E-1,8.013393402E0
6.770135920E-1,-1.857900500E0,1.134851575E0,7.718906403E0
6.970026060E-1,-1.256955862E0,1.072602391E0,7.857769966E0
7.169916200E-1,-7.374141216E-1,7.996633649E-1,8.015787125E0
7.370416690E-1,-2.753331959E-1,7.110779285E-1,8.568847656E0
7.570306820E-1,-2.059013397E-1,7.829039693E-1,8.327033043E0
7.770502130E-1,-6.703764796E-1,9.481038451E-1,7.936778545E0
7.970697450E-1,-9.696516991E-1,1.163581967E0,8.099584579E0
8.170587580E-1,-3.639186621E-1,1.065419793E0,8.564059258E0
8.370477720E-1,5.291185975E-1,1.000776291E0,8.537723541E0
8.570367860E-1,6.895300746E-1,1.077390790E0,8.372523308E0
8.770257990E-1,2.896983922E-1,1.352723956E0,8.152256966E0
8.970453310E-1,-9.457096457E-1,1.563413739E0,8.042123795E0
9.170648620E-1,-1.225831270E0,1.620874524E0,8.312667847E0
9.370538760E-1,-8.092401624E-1,1.517923832E0,8.731653214E0
9.570428890E-1,2.633621916E-2,1.297657371E0,9.627084732E0
9.770319030E-1,-3.351882473E-2,1.398213744E0,9.660603523E0
9.970209170E-1,-6.368576288E-1,1.865083098E0,9.026140213E0
1.017009930E0,-1.611297727E0,2.250549555E0,9.018958092E0
1.036998944E0,-1.587355733E0,2.461239338E0,9.227252960E0
1.056987958E0,-7.924807668E-1,2.480392933E0,9.344569206E0
1.076976971E0,1.268926859E-1,2.250549555E0,9.567230225E0
1.096965985E0,-5.267243832E-2,1.980004787E0,9.557653427E0
1.116954999E0,-8.140285611E-1,1.975216389E0,1.012747288E1
1.136974530E0,-1.017535686E0,1.807622313E0,1.089361763E1
1.156994061E0,1.268926859E-1,1.388636947E0,1.092713642E1
1.176983075E0,1.618480325E0,1.343147159E0,1.020408726E1
1.196972088E0,2.291250944E0,1.400607944E0,9.708487511E0
1.216961102E0,1.936909199E0,1.584961534E0,9.471462250E0
1.236950116E0,1.261744261E0,1.709460020E0,9.229647636E0
1.256969647E0,8.547300100E-1,1.565807939E0,9.272743225E0
1.276989178E0,9.217676520E-1,1.043871999E0,1.007480049E1
1.296978192E0,1.429338455E0,4.620809257E-1,1.120725822E1
1.316967206E0,1.412579060E0,1.699883193E-1,1.160469532E1
1.336956219E0,1.233013868E0,1.891419291E-1,1.148977375E1
1.356945233E0,1.039083481E0,3.782838583E-1,1.108515358E1
1.376964764E0,9.121908545E-1,6.248866320E-1,1.012507915E1
1.396984295E0,7.948749661E-1,8.212111592E-1,9.045293808E0
1.416973309E0,7.661445439E-2,9.026140571E-1,8.738836288E0
1.436962323E0,-1.819593310E-1,8.619126081E-1,8.791508675E0
1.456981854E0,1.340752989E-1,7.302315235E-1,8.865729332E0
1.477001385E0,8.116343617E-1,5.985504389E-1,8.808267593E0
1.496990399E0,5.865794420E-1,7.589619160E-1,7.960720539E0
1.516979413E0,5.027823523E-2,9.528923035E-1,7.383718014E0
1.536968426E0,3.567360640E-1,1.091755986E0,8.224082947E0
1.556987958E0,9.193734527E-1,1.108515382E0,9.457097054E0
1.576976971E0,1.079784989E0,1.297657371E0,8.590395927E0
1.596965985E0,1.213860273E0,1.608903527E0,7.817068577E0
1.616985516E0,1.264138460E0,1.996764183E0,8.236053467E0
1.637005047E0,9.121908545E-1,2.367865562E0,8.501810074E0
1.656994061E0,5.626373887E-1,2.463633537E0,8.643068314E0
1.676983075E0,3.280056417E-1,2.523488522E0,8.753201485E0
1.697002606E0,6.775590777E-1,2.516305923E0,9.028534889E0
1.717022137E0,9.217676520E-1,2.286462545E0,9.160215378E0
1.737011151E0,1.053448766E-1,2.114080191E0,9.799467087E0
1.757000165E0,1.149216816E-1,1.877054095E0,1.041477776E1
1.776989178E0,7.015010715E-1,1.359906554E0,1.116176796E1
1.796978192E0,1.084573388E0,9.050082564E-1,1.220324612E1
1.816967206E0,7.110779285E-1,6.296750307E-1,1.252167511E1
1.836925702E0,-1.771709323E-1,1.051054597E0,1.122641182E1
1.856945233E0,-9.241618514E-1,1.532289028E0,1.005325317E1
1.876934247E0,-1.663970232E0,1.695094824E0,9.550470352E0
1.896923260E0,-2.767697096E0,6.320692301E-1,1.010831928E1
1.916881756E0,-2.602497339E0,-1.747767180E-1,1.234689808E1
1.936901288E0,-1.448492050E0,-6.655880809E-1,1.412100124E1
1.956920819E0,-2.202665508E-1,-6.536170840E-1,1.263180828E1
1.976879315E0,-6.488286853E-1,9.097966552E-2,9.366117477E0
1.996898846E0,-8.188169599E-1,1.005564690E0,7.441178799E0
2.016887860E0,-9.672574997E-1,1.132457376E0,7.888894558E0
2.036876874E0,-1.019929886E0,9.864110947E-1,8.382100105E0
2.056865887E0,-7.900865674E-1,8.954314590E-1,8.252813339E0
2.076854901E0,-6.631938815E-1,8.355764151E-1,8.097189903E0
2.096813397E0,-8.978256583E-1,8.738836050E-1,7.582436562E0
2.116832928E0,-1.185129881E0,1.098938584E0,6.761225700E0
2.136821942E0,-7.493851185E-1,1.115697980E0,7.951143742E0
2.156810956E0,-1.077390760E-1,1.067813993E0,8.913613319E0
2.176799969E0,-1.963245422E-1,1.503558636E0,8.288725853E0
2.196788983E0,-1.369483352E0,1.805228114E0,6.442796707E0
2.216808514E0,-1.264138460E0,2.212242365E0,6.363788128E0
2.236828045E0,-1.520318031E0,2.315192938E0,7.716512203E0
2.256817059E0,-1.240196466E0,2.286462545E0,8.623914719E0
2.276806073E0,-7.206547260E-1,2.126051188E0,9.622296333E0
2.296795086E0,-8.068459630E-1,1.970427990E0,1.003888798E1
2.316784100E0,-8.116343617E-1,2.341529369E0,9.208099365E0
2.336803631E0,-5.698199868E-1,2.564189911E0,7.994239330E0
2.356823163E0,-2.968810201E-1,2.446874142E0,8.499416351E0
2.376812176E0,1.053448766E-1,1.987187386E0,1.039562416E1
2.396801190E0,8.188169599E-1,1.503558636E0,1.175792408E1
2.416820721E0,5.123591423E-1,1.252167463E0,1.165736771E1
2.436840253E0,4.070142806E-1,1.436521053E0,9.538499832E0
2.456829266E0,7.613561153E-1,1.884236693E0,8.580819130E0
2.476787762E0,1.630451322E0,2.025494576E0,9.775525093E0
2.496807294E0,1.898601890E0,9.313444495E-1,1.266293240E1
2.516826825E0,1.735796213E0,-8.140286058E-2,1.323993587E1
2.536785321E0,1.675941199E-1,-1.939303428E-1,1.028309631E1
2.556804852E0,-3.639186621E-1,7.398083210E-1,8.216899872E0
2.576793866E0,-3.687070608E-1,7.302315235E-1,8.707711220E0
2.596752362E0,3.878606856E-1,1.477222443E0,9.612719536E0
2.616771893E0,8.930372596E-1,1.774103403E0,1.001015759E1
2.636791424E0,2.633621991E-1,1.721431017E0,1.142991924E1
2.656780438E0,-8.283938169E-1,1.110909581E0,1.170764637E1
2.676799969E0,-4.094084799E-1,5.793967843E-1,9.464279175E0
2.696788983E0,-3.303998411E-1,7.637503147E-1,8.288725853E0
2.716777997E0,-1.063025594E0,4.094084799E-1,8.475474358E0
2.736797528E0,-1.795651317E0,4.548983276E-1,7.671022415E0
2.756786542E0,-6.224924326E-1,4.668693244E-1,6.777985096E0
2.776775555E0,5.027823448E-1,6.464344859E-1,8.092401505E0
2.796795086E0,4.788403213E-2,6.512228847E-1,1.099417400E1
2.816753583E0,-3.902548850E-1,8.283938169E-1,1.178426075E1
2.836742596E0,-9.457096457E-1,7.565677166E-1,9.962273598E0
2.856731610E0,6.703764945E-2,1.307234168E0,7.905653954E0
2.876720624E0,1.247379065E0,1.769315004E0,7.359776020E0
2.896679120E0,8.355764151E-1,1.764526606E0,7.031770229E0
2.916698651E0,-3.088520169E-1,2.068590164E0,7.393294811E0
2.936657147E0,-1.022324085E0,1.912967205E0,8.851364136E0
2.956676678E0,-9.265560508E-1,1.929726601E0,1.052969933E1
2.976665692E0,-4.237737060E-1,1.618480325E0,1.076672459E1
2.996654706E0,-5.027823448E-1,1.508347034E0,9.607931137E0
3.016643719E0,2.035071403E-1,1.453280449E0,9.062053680E0
3.036632733E0,-1.017535686E0,1.534683347E0,1.025915432E1
3.056621747E0,-1.781286120E0,1.549048543E0,1.174834728E1
3.076610760E0,-1.139639974E0,9.648633003E-1,1.255279922E1
3.096599774E0,-1.999158382E0,5.195417404E-1,1.319444561E1
3.116588788E0,-1.292868972E0,1.024718285E0,1.164539719E1
3.136577801E0,-5.099649429E-1,1.206677675E0,9.069235802E0
3.156536297E0,-9.935936928E-1,8.451532125E-1,9.454702377E0
3.176525311E0,-2.671929121E0,4.955997467E-1,1.108515358E1
3.196544842E0,-2.001552582E0,6.607996821E-1,1.207156467E1
3.216533856E0,-6.847416759E-1,1.723825186E-1,1.166694450E1
3.236522870E0,-2.394201700E-3,5.554547906E-1,1.019211674E1
3.256511883E0,-4.740519226E-1,8.140285611E-1,8.489839554E0
3.276500897E0,-1.173158810E-1,8.116343617E-1,7.826645374E0
3.296520428E0,-7.661445439E-2,5.698199868E-1,8.073247910E0
3.316539960E0,-4.692635238E-1,7.422025204E-1,8.662221909E0
3.336528973E0,-3.902548850E-1,9.097966552E-1,8.755595207E0
3.356517987E0,-5.746083856E-1,1.070208192E0,8.279149055E0
3.376537518E0,-1.175553083E0,1.254561663E0,7.781155586E0
3.396526532E0,-1.592144132E0,1.455674648E0,7.754819393E0
3.416485028E0,-9.433154464E-1,1.632845521E0,7.505822182E0
3.436504559E0,8.140286058E-2,1.709460020E0,7.292738438E0
3.456493573E0,-3.136404157E-1,1.826775908E0,7.412448406E0
3.476482586E0,-4.189853072E-1,1.946485996E0,7.891288757E0
3.496471600E0,-1.122880578E0,2.130839586E0,8.674192429E0
3.516430096E0,-1.594538331E0,2.298433542E0,9.062053680E0
3.536449628E0,-1.154005170E0,2.284068346E0,8.865729332E0
3.556469159E0,-6.536170840E-1,2.147598982E0,9.119514465E0
3.576458172E0,-8.858546615E-2,1.980004787E0,9.600749016E0
3.596447186E0,1.077390760E-1,1.915361404E0,9.998186111E0
3.616436200E0,6.943184882E-2,2.008735180E0,1.027351952E1
3.636425213E0,-1.149216816E-1,2.020706177E0,1.039322948E1
3.656414227E0,-3.615244627E-1,2.027888775E0,1.041238308E1
3.676403241E0,-2.178723514E-1,1.769315004E0,1.018014526E1
3.696392254E0,-1.436520964E-1,1.520318031E0,1.063264942E1
3.716381268E0,1.532289088E-1,1.738190413E0,1.075475407E1
3.736400799E0,-5.171475410E-1,1.795651317E0,1.074278259E1
3.756420331E0,-1.029506683E0,1.898601890E0,1.091755962E1
3.776378827E0,1.316810995E-1,2.011129379E0,1.099656868E1
3.796398358E0,8.188169599E-1,1.673547029E0,1.066377449E1
3.816387372E0,7.829039693E-1,1.307234168E0,1.025915432E1
3.836376385E0,1.326387763E0,1.458068848E0,1.043871975E1
3.856395917E0,1.671152830E0,1.278503656E0,1.029985619E1
3.876354413E0,1.838746905E0,1.359906554E0,9.792284966E0
3.896373944E0,2.164358377E0,1.470039845E0,9.169792175E0
3.916362958E0,2.269703150E0,1.640028119E0,8.640673637E0
3.936321454E0,8.451532125E-1,1.683123827E0,8.240841866E0
3.956340985E0,-3.519476354E-1,1.539471745E0,7.886500359E0
3.976299481E0,-7.661445439E-2,1.046266198E0,8.202534676E0
3.996319012E0,2.250549644E-1,6.153098345E-1,9.143456459E0
4.016277508E0,2.944868207E-1,5.578489900E-1,9.299078941E0
4.036297040E0,-1.795651317E-1,9.121908545E-1,8.944737434E0
4.056255536E0,-2.801215947E-1,1.046266198E0,8.497021675E0
4.076275067E0,-6.392518282E-1,1.333570361E0,8.432378769E0
4.096233563E0,-9.289502501E-1,1.759738207E0,8.207323074E0
4.116253094E0,-7.350199223E-1,2.023100376E0,7.635109425E0
4.136242108E0,7.278373241E-1,2.255337954E0,7.331045628E0
4.156231122E0,1.161187768E0,2.439691544E0,7.405265808E0
4.176250653E0,0.000000000E0,2.461239338E0,8.238448143E0
4.196209149E0,-3.687070608E-1,2.434903145E0,8.281543732E0
4.216228680E0,-7.829039693E-1,2.633621931E0,7.694964409E0
4.236248211E0,-2.059013397E-1,2.643198729E0,8.300697327E0
4.256237225E0,-1.891419291E-1,2.224213362E0,9.421183586E0
4.276226239E0,-8.690952063E-1,2.183511972E0,1.031661510E1
4.296215253E0,-2.090138197E0,2.152387381E0,1.070926380E1
4.316204266E0,-2.449268341E0,1.893813491E0,1.101332760E1
4.336193280E0,-1.594538331E0,1.582567334E0,1.131020927E1
4.356182294E0,-1.403002143E0,1.319205165E0,1.162384892E1
4.376140790E0,-1.094150186E0,1.122880578E0,1.111867237E1
4.396160321E0,-1.295263171E0,1.165976286E0,1.079545593E1
4.416149335E0,-1.874659896E0,1.149216771E0,1.132457447E1
4.436138348E0,-2.236184359E0,6.607996821E-1,1.151371574E1
4.456127362E0,-3.112462282E0,5.506663918E-1,1.156638813E1
4.476116376E0,-2.808398485E0,5.985504389E-1,1.160709000E1
4.496135907E0,-2.070984364E0,3.998316824E-1,1.191833591E1
4.516094403E0,-1.599326730E0,5.267243981E-1,1.143470764E1
4.536113934E0,-1.221042871E0,7.350199223E-1,9.466673851E0
4.556133465E0,-9.816226959E-1,8.978256583E-1,7.716512203E0
4.576091961E0,-2.513911724E-1,9.361328483E-1,6.880935669E0
4.596111493E0,-7.469909191E-1,1.000776291E0,7.163451672E0
4.616100506E0,-1.130063176E0,1.154005170E0,7.931990147E0
4.636089520E0,-1.007958889E0,1.146822572E0,7.972691536E0
4.656078534E0,-5.506663918E-1,1.142034173E0,7.876923561E0
4.676067547E0,-4.788403213E-2,1.074996591E0,7.826645374E0
4.696056561E0,-9.576806426E-2,1.110909581E0,7.838616371E0
4.716015057E0,-5.434837937E-1,1.376665950E0,7.697358608E0
4.736034588E0,-1.271321058E0,1.632845521E0,7.869740963E0
4.755993085E0,-1.357512355E0,1.675941229E0,8.240841866E0
4.776012616E0,-1.376665950E0,1.675941229E0,8.262390137E0
4.796032147E0,-1.927332401E0,1.726219416E0,8.221688271E0
4.815990643E0,-2.221819162E0,1.881842494E0,9.145850182E0
4.836010174E0,-1.860294700E0,1.862688899E0,1.054406452E1
4.855999188E0,-1.379060149E0,1.829170108E0,1.090319443E1
4.875988202E0,-8.978256583E-1,2.027888775E0,1.026873112E1
4.895977215E0,-9.744400978E-1,2.398990154E0,9.318233490E0
4.915966229E0,-9.002198577E-1,2.671929121E0,9.153033257E0
4.935955243E0,-1.070208192E0,2.489969730E0,9.816226959E0
4.955944256E0,-1.273715258E0,2.293645144E0,1.033576870E1
4.975933270E0,-1.070208192E0,2.013523579E0,1.090558910E1
4.995922284E0,2.154781483E-2,1.915361404E0,1.123120022E1
5.015911297E0,1.077390760E-1,2.152387381E0,9.821015358E0
5.035869794E0,2.226607651E-1,1.692700624E0,7.517793179E0
5.055858807E0,5.219359994E-1,3.011905670E0,8.499416351E0
5.075878338E0,5.506663769E-2,1.261744261E0,1.188960552E1
5.095867352E0,8.930372596E-1,1.376665950E0,1.232056236E1
5.115825848E0,2.322375625E-1,1.053448796E0,1.095107841E1
5.135845379E0,4.381389022E-1,9.313444495E-1,1.038365269E1
5.155864911E0,7.469909191E-1,7.086837292E-1,1.043153667E1
5.175853924E0,1.084573388E0,7.015010715E-1,1.002452278E1
5.195842938E0,8.020575643E-1,7.637503147E-1,9.662998199E0
5.215831952E0,-1.915361285E-1,8.403648138E-1,8.647856712E0
5.235820965E0,-1.218648672E0,1.072602391E0,8.609549522E0
5.255809979E0,-8.714894056E-1,9.457096457E-1,9.071630478E0
5.275798993E0,-3.830722570E-1,7.805097699E-1,9.258378029E0
5.295818524E0,-2.154781483E-2,8.068459630E-1,8.446743965E0
5.315777020E0,-3.112462163E-1,1.039083481E0,7.709329605E0
5.335796551E0,-7.278373241E-1,1.316810966E0,7.795520782E0
5.355755047E0,-9.385270476E-1,1.515529633E0,8.032546997E0
5.375774579E0,-1.005564690E0,1.673547029E0,8.470685959E0
5.395794110E0,-9.983820915E-1,1.771709204E0,8.480262756E0
5.415752606E0,-7.541735172E-1,2.008735180E0,8.125920296E0
5.435711102E0,-3.543418646E-1,2.011129379E0,8.147468567E0
5.455730633E0,-2.059013397E-1,2.020706177E0,8.384494781E0
5.475750165E0,-9.265560508E-1,2.059013367E0,9.076418877E0
5.495708661E0,-1.249773264E0,2.243366957E0,9.516951561E0
5.515728192E0,-6.751648784E-1,2.252943754E0,9.631873131E0
5.535717206E0,-3.088520169E-1,2.298433542E0,9.062053680E0
5.555706219E0,-9.313444495E-1,2.616862535E0,8.525752068E0
5.575695233E0,-1.347935557E0,2.779668093E0,8.671798706E0
5.595684247E0,-1.369483352E0,2.604891539E0,9.765948296E0
5.615642743E0,-1.139639974E0,2.255337954E0,1.087685871E1
5.635631756E0,-9.169792533E-1,2.011129379E0,1.141076565E1
5.655651288E0,-9.026140571E-1,1.951274395E0,1.130302620E1
5.675609784E0,-1.180341482E0,1.936909199E0,1.031422138E1
5.695629315E0,-1.565807939E0,1.951274395E0,9.375694275E0
5.715618329E0,-2.588132143E0,1.637633920E0,9.993397713E0
5.735607342E0,-3.428496838E0,1.170764685E0,1.142034245E1
5.755565838E0,-2.834734917E0,6.991068721E-1,1.199973869E1
5.775585370E0,-1.381454349E0,5.434837937E-1,1.127668953E1
5.795604901E0,-1.072602391E0,5.817909837E-1,1.012507915E1
5.815593915E0,-1.165976286E0,7.685387731E-1,9.418789864E0
5.835582928E0,-1.817199111E0,9.935936928E-1,9.016563416E0
5.855571942E0,-2.073378563E0,1.139639974E0,8.657433510E0
5.875560956E0,-1.510741234E0,1.158793569E0,8.027758598E0
5.895549969E0,-1.393425345E0,1.312022567E0,7.206547260E0
5.915508465E0,-1.663970232E0,1.534683347E0,6.859387875E0
5.935527997E0,-1.137245774E0,1.429338455E0,7.977479935E0
5.955486493E0,-8.188169599E-1,1.249773264E0,8.887276649E0
5.975506024E0,-1.290474772E0,1.472434044E0,8.813055992E0
5.995464520E0,-1.309628367E0,1.661576033E0,8.322244644E0
6.015484051E0,-8.595184088E-1,1.675941229E0,7.884106159E0
6.035503583E0,-8.355764151E-1,1.735796213E0,8.001421928E0
6.055492596E0,-1.077390790E0,1.685518026E0,8.030152321E0
6.075481610E0,-1.539471745E0,1.735796213E0,8.250418663E0
6.095470624E0,-1.728613615E0,1.795651317E0,8.860940933E0
6.115429120E0,-1.158793569E0,1.623268723E0,9.378087997E0
6.135448651E0,-7.900865674E-1,1.546654344E0,9.430760384E0
6.155407147E0,-1.371877551E0,2.023100376E0,9.469067574E0
6.175396161E0,-1.496376038E0,2.092532396E0,1.010592556E1
6.195385174E0,-9.193734527E-1,2.066195965E0,9.921571732E0
6.215404706E0,-7.350199223E-1,2.243366957E0,9.265560150E0
6.235424237E0,-1.168370485E0,2.497152328E0,9.308655739E0
6.255413251E0,-1.410184860E0,2.343923569E0,1.006522369E1
6.275402264E0,-1.357512355E0,2.312798738E0,1.056561184E1
6.295391278E0,-8.331822157E-1,2.420537949E0,9.911994934E0
6.315380292E0,-2.035071403E-1,2.511517525E0,9.524134636E0
6.335399823E0,-3.471592367E-1,2.504334927E0,1.023042393E1
6.355388836E0,-8.140286058E-2,2.401384354E0,1.101093388E1
6.375377850E0,-2.298433632E-1,2.293645144E0,1.086967564E1
6.395366864E0,-5.051765442E-1,2.221819162E0,1.033337498E1
6.415386395E0,-4.548983276E-1,1.742978811E0,1.052969933E1
6.435375409E0,1.077390760E-1,1.182735682E0,1.119289303E1
6.455364422E0,8.643068075E-1,6.991068721E-1,1.100614548E1
6.475383954E0,7.134721279E-1,7.398083210E-1,9.993397713E0
6.495372967E0,3.519476354E-1,1.139639974E0,9.275136948E0
6.515361981E0,-1.412578970E-1,1.462857246E0,8.465897560E0
6.535350995E0,-3.854664862E-1,1.798045516E0,7.632715225E0
6.555340008E0,-8.092401624E-1,1.699883223E0,7.268796444E0
6.575329022E0,-1.154005170E0,1.400607944E0,8.195352554E0
6.595318036E0,-9.696516991E-1,9.576807022E-1,9.449913979E0
6.615307049E0,-4.668693244E-1,6.799532771E-1,9.531316757E0
6.635296063E0,-2.154781520E-1,6.871358752E-1,8.446743965E0
6.655285077E0,-2.178723514E-1,8.092401624E-1,7.826645374E0
6.675274090E0,1.987187415E-1,9.361328483E-1,8.590395927E0
6.695263104E0,5.027823448E-1,1.158793569E0,9.117119789E0
6.715252118E0,6.488286853E-1,1.675941229E0,8.451532364E0
6.735271649E0,8.619126081E-1,2.118868589E0,7.845798969E0
6.755230145E0,6.177040339E-1,2.324769735E0,8.106766701E0
6.775219159E0,4.668693244E-1,2.410961151E0,8.643068314E0
6.795238690E0,4.094084799E-1,2.384624958E0,9.030928612E0
6.815227704E0,9.289502501E-1,2.300827742E0,9.464279175E0
6.835216717E0,1.185129881E0,2.224213362E0,9.737217903E0
6.855205731E0,7.350199223E-1,2.329558372E0,1.001733971E1
6.875194745E0,2.992752194E-1,2.408566952E0,9.811438560E0
6.895214276E0,1.604115069E-1,2.501940727E0,9.837775230E0
6.915203290E0,2.298433632E-1,2.353500366E0,1.020408726E1
6.935222821E0,7.422025204E-1,1.872265697E0,1.096783829E1
6.955181317E0,6.320692301E-1,1.424550056E0,1.193030739E1
6.975200848E0,9.576806426E-2,1.256955862E0,1.238041687E1
6.995189862E0,3.758896589E-1,1.405396342E0,1.133175659E1
7.015178876E0,1.149216816E-1,1.534683347E0,1.008916569E1
7.035167889E0,-9.097966552E-1,1.300051570E0,1.018493366E1
7.055126385E0,-2.032677174E0,1.041477680E0,1.159511852E1
7.075145917E0,-2.047042370E0,5.722141862E-1,1.227746677E1
7.095134930E0,-1.204283476E0,4.070142806E-1,1.197579670E1
7.115123944E0,-3.782838583E-1,2.250549644E-1,1.106839466E1
7.135112958E0,2.585737705E-1,2.729389966E-1,9.775525093E0
7.155071454E0,-1.244984865E-1,6.105214357E-1,8.422801971E0
7.175060467E0,-7.541735172E-1,1.137245774E0,7.735665798E0
7.195079999E0,-9.864110947E-1,1.288080573E0,6.871358871E0
7.215069012E0,-1.177947283E0,1.572990537E0,6.105214119E0
7.235058026E0,-9.193734527E-1,1.659181833E0,5.849034786E0
7.255016522E0,-3.495534360E-1,1.386242747E0,6.694188118E0
7.275036053E0,1.005564705E-1,1.170764685E0,8.214506149E0
7.295025067E0,1.244984865E-1,9.840168953E-1,8.911218643E0
7.315014081E0,-4.764461517E-1,1.237802267E0,8.836998940E0
7.335033612E0,-9.026140571E-1,1.462857246E0,8.195352554E0
7.355053143E0,-4.668693244E-1,1.546654344E0,7.529764175E0
7.375042157E0,-3.351882398E-1,1.496376038E0,7.520187378E0
7.395031170E0,2.394201607E-2,1.601720929E0,8.240841866E0
7.415050702E0,-7.565677166E-1,1.728613615E0,8.784325600E0
7.435070233E0,-1.750161409E0,1.594538331E0,8.461109161E0
7.455059247E0,-1.422155857E0,1.465251446E0,8.736441612E0
7.475048260E0,-6.607996821E-1,1.154005170E0,1.065898609E1
7.495037274E0,-2.442085743E-1,8.427590132E-1,1.205241108E1
7.515026288E0,-1.410184860E0,8.451532125E-1,1.216972733E1
7.535015301E0,-2.552218914E0,1.015141487E0,1.219127464E1
7.554973797E0,-2.691082716E0,1.170764685E0,1.211944866E1
7.574993329E0,-1.960851192E0,1.065419793E0,1.097980881E1
7.594951825E0,-5.889736414E-1,1.113303781E0,1.019690514E1
7.614940838E0,-1.029506698E-1,1.223437071E0,9.536105156E0
7.634929852E0,-1.261744261E0,1.769315004E0,9.698910713E0
7.654888348E0,-1.972822189E0,1.903390408E0,1.005085850E1
7.674907879E0,-1.266532660E0,2.161964178E0,9.569623947E0
7.694896893E0,-3.902548850E-1,2.171540976E0,8.762778282E0
7.714885907E0,-5.267243981E-1,1.829170108E0,8.398859978E0
7.734905438E0,-7.972691655E-1,1.407790542E0,9.232041359E0
7.754894452E0,-2.681505978E-1,9.313444495E-1,1.072841740E1
7.774883465E0,-1.580173075E-1,4.764461517E-1,1.145146656E1
7.794872479E0,-6.560112834E-1,1.915361285E-1,1.081221485E1
7.814892010E0,-5.291185975E-1,3.447650373E-1,1.004128170E1
7.834911542E0,-5.698199868E-1,1.651999205E-1,9.713275909E0
7.854900555E0,-8.020575643E-1,-8.379705995E-2,9.457097054E0
7.874889569E0,-1.333570361E0,-1.101332754E-1,9.334992409E0
7.894909100E0,-1.558625340E0,2.082955539E-1,9.030928612E0
7.914928631E0,-1.244984865E0,2.896983922E-1,7.843404770E0
7.934917645E0,-1.165976286E0,3.016694188E-1,6.900089264E0
7.954876141E0,-1.233013868E0,3.519476354E-1,7.175422668E0
7.974895672E0,-1.204283476E0,4.094084799E-1,8.446743965E0
7.994915204E0,-1.458068848E0,1.795651317E-1,9.239224434E0
8.014904217E0,-1.826775908E0,2.513911724E-1,9.617507935E0
8.034862713E0,-1.307234168E0,3.998316824E-1,9.334992409E0
8.054882245E0,-1.268926859E-1,3.567360640E-1,8.796297073E0
8.074901776E0,5.746084079E-2,5.961562395E-1,8.121131897E0
8.094890790E0,-9.097966552E-2,1.053448796E0,7.848193169E0
8.114879803E0,-7.709329724E-1,1.338358760E0,8.729259491E0
8.134868817E0,-5.195417404E-1,1.441309452E0,9.725247383E0
8.154857831E0,3.351882473E-2,1.594538331E0,9.988609314E0
8.174846844E0,1.939303428E-1,1.666364431E0,8.949525833E0
8.194835858E0,4.094084799E-1,1.877054095E0,7.718906403E0
8.214824872E0,1.675941199E-1,2.082955360E0,7.443572998E0
8.234813885E0,1.699883193E-1,1.908178806E0,8.470685959E0
8.254833417E0,-1.101332754E-1,1.283292055E0,9.823410034E0
8.274852948E0,-8.140285611E-1,9.050082564E-1,1.103248119E1
8.294841961E0,-1.520318031E0,6.296750307E-1,1.195664310E1
8.314830975E0,-1.460463047E0,2.585737705E-1,1.160469532E1
8.334819989E0,-1.386242747E0,1.244984865E-1,1.074517727E1
8.354809003E0,-1.838746905E0,-2.154781483E-2,1.062546730E1
8.374798016E0,-1.697489023E0,-3.543418646E-1,1.131020927E1
8.394756512E0,-1.833958507E0,-3.854664862E-1,1.261026001E1
8.414776044E0,-1.709460020E0,-1.651999205E-1,1.267490387E1
8.434795575E0,-1.807622313E0,-7.182604820E-2,1.102529907E1
8.454754071E0,-2.135627985E0,3.519476354E-1,9.394847870E0
8.474773602E0,-2.039859772E0,5.985504389E-1,8.640673637E0
8.494762616E0,-1.702277422E0,6.799532771E-1,8.334216118E0
8.514751629E0,-1.302445769E0,7.685387731E-1,7.872135162E0
8.534740643E0,-1.632845521E0,8.547300100E-1,7.771578789E0
8.554729657E0,-1.867477298E0,9.265560508E-1,7.999027729E0
8.574718670E0,-1.666364431E0,8.379706144E-1,8.078036308E0
8.594707684E0,-1.216254473E0,6.200982332E-1,8.559270859E0
8.614727215E0,-4.620809257E-1,4.932055473E-1,8.872911453E0
8.634685711E0,2.873042040E-2,6.033388376E-1,8.935160637E0
8.654705243E0,-3.663128614E-1,8.834604025E-1,8.446743965E0
8.674724774E0,-8.499416113E-1,1.118092179E0,8.176198959E0
8.694683270E0,-7.015010715E-1,1.355118155E0,8.446743965E0
8.714702801E0,-4.381389022E-1,1.163581967E0,8.722076416E0
8.734691815E0,-2.250549644E-1,1.072602391E0,8.774748802E0
8.754680829E0,-4.501099288E-1,1.058237195E0,8.688557625E0
8.774669842E0,-7.900865674E-1,1.077390790E0,9.109937668E0
8.794628338E0,-4.932055473E-1,8.643068075E-1,9.526528358E0
8.814647870E0,4.908113480E-1,8.954314590E-1,9.538499832E0
8.834667401E0,5.602431893E-1,6.224924326E-1,9.402029991E0
8.854656415E0,-6.655880809E-1,3.208230138E-1,1.026633644E1
8.874645428E0,-1.103726983E0,2.202665508E-1,1.114500904E1
8.894634442E0,-1.489193439E0,2.801215947E-1,1.150413895E1
8.914623456E0,-7.900865674E-1,4.788403511E-1,1.111867237E1
8.934612469E0,1.604115069E-1,7.613561153E-1,1.020648193E1
8.954601483E0,6.177040339E-1,8.475474119E-1,9.459490776E0
8.974621014E0,-3.184288144E-1,1.103726983E0,9.485827446E0
8.994579510E0,-8.810662031E-1,1.400607944E0,1.001015759E1
9.014599042E0,-1.132457376E0,1.127668977E0,1.045547867E1
9.034557538E0,-1.096544385E0,6.727706790E-1,1.102769279E1
9.054577069E0,-8.667010069E-1,1.484405100E-1,1.141555405E1
9.074596600E0,6.943184882E-2,-2.944868207E-1,1.197579670E1
9.094555096E0,9.097966552E-1,-5.530605912E-1,1.166933918E1
9.114574628E0,4.716577232E-1,-1.843535304E-1,1.029985619E1
9.134563641E0,8.858546615E-2,1.412578970E-1,8.791508675E0
9.154552655E0,-4.884171486E-1,3.687070608E-1,8.025363922E0
9.174541669E0,-6.033388376E-1,3.687070608E-1,8.037335396E0
9.194500165E0,-1.101332754E-1,2.561795712E-1,8.793902397E0
9.214519696E0,1.412578970E-1,1.173158810E-1,9.076418877E0
9.234539227E0,1.651999205E-1,1.077390760E-1,8.865729332E0
9.254497723E0,4.022258818E-1,-6.943184882E-2,9.038111687E0
9.274517254E0,6.392518282E-1,-1.268926859E-1,8.985439301E0
9.294475751E0,5.003881454E-1,1.197100803E-2,8.657433510E0
9.314495282E0,-6.344634295E-1,4.381389022E-1,8.406042099E0
9.334453778E0,-4.070143029E-2,2.059013397E-1,8.274360657E0
9.354412274E0,5.027823523E-2,3.016694188E-1,8.667010307E0
9.374431805E0,4.165911078E-1,7.230489254E-1,8.573636055E0
9.394390301E0,1.508347094E-1,7.230489254E-1,8.480262756E0
9.414409833E0,-4.237737060E-1,1.132457376E0,9.246406555E0
9.434368329E0,-4.237737060E-1,1.379060149E0,9.569623947E0
9.454357342E0,-1.197100878E-1,1.482010841E0,9.040505409E0
9.474315838E0,-1.556231081E-1,1.611297727E0,8.698134422E0
9.494304852E0,8.858546615E-2,1.625662923E0,9.057265282E0
9.514293866E0,1.987187415E-1,1.426944256E0,9.634267807E0
9.534313397E0,-6.703764945E-2,1.436521053E0,9.627084732E0
9.554271893E0,-2.274491638E-1,1.335964561E0,9.821015358E0
9.574291424E0,1.053448766E-1,1.264138460E0,1.045308495E1
9.594249920E0,1.556231081E-1,1.122880578E0,1.131260300E1
9.614269452E0,7.398083210E-1,1.110909581E0,1.164539719E1
9.634227948E0,1.295263171E0,1.041477680E0,1.070687008E1
9.654247479E0,1.027112484E0,9.959878922E-1,9.299078941E0
9.674236493E0,-2.370259613E-1,6.943184733E-1,9.677363396E0
9.694194989E0,-2.133233786E0,2.130839527E-1,1.181299114E1
9.714214520E0,-3.268085241E0,-2.130839527E-1,1.485362720E1
9.734173016E0,-2.207453966E0,-1.072602391E0,1.612015915E1
9.754192547E0,-7.110779285E-1,-1.388636947E0,1.469082165E1
9.774151044E0,-4.764461517E-1,-1.089361787E0,1.178186703E1
9.794140057E0,-9.720458984E-1,-5.075707436E-1,9.270348549E0
9.814159588E0,-1.288080573E0,-2.322375625E-1,7.668628216E0
9.834179120E0,-1.728613615E0,1.197100878E-1,7.390900612E0
9.854168133E0,-2.109291792E0,3.926490843E-1,7.460332394E0
9.874157147E0,-1.726219416E0,6.607996821E-1,7.204153061E0
9.894115643E0,-9.792284966E-1,5.889736414E-1,6.651092529E0
9.914135174E0,-5.913678408E-1,7.182605267E-1,6.780379295E0
9.934093670E0,-4.764461517E-1,8.690952063E-1,7.273584843E0
9.954082684E0,-2.753331959E-1,1.065419793E0,7.161057472E0
9.974071698E0,-1.795651317E-1,1.300051570E0,7.129932880E0
9.994030194E0,-8.379705995E-2,1.510741234E0,7.426813602E0
1.001404973E1,-2.657563984E-1,1.728613615E0,7.603984833E0
1.003403874E1,-5.530605912E-1,1.915361404E0,7.776367188E0
1.005402775E1,-4.094084799E-1,1.862688899E0,8.243236542E0
1.007401677E1,-4.237737060E-1,1.812410712E0,8.147468567E0
1.009400578E1,-4.525041282E-1,1.745373011E0,8.228871346E0
1.011396428E1,-8.810662031E-1,1.558625340E0,9.069235802E0
1.013395329E1,-1.213860273E0,1.663970232E0,1.005804157E1
1.015391179E1,-1.180341482E0,1.623268723E0,1.060391903E1
1.017393132E1,-3.591302633E-1,1.522712231E0,1.074517727E1
1.019392033E1,5.267243832E-2,1.606509328E0,1.019211674E1
1.021390934E1,-1.268926859E-1,1.759738207E0,9.198522568E0
1.023389836E1,-6.416460276E-1,1.757344007E0,9.275136948E0
1.025388737E1,-1.168370485E0,1.541865945E0,1.090319443E1
1.027384587E1,-5.578489900E-1,1.723825216E0,1.156878281E1
1.029383488E1,1.795651317E-1,1.769315004E0,1.055842972E1
1.031382390E1,5.985504389E-1,1.975216389E0,9.375694275E0
1.033381291E1,4.644751251E-1,2.039859772E0,9.076418877E0
1.035377140E1,-1.867477298E-1,1.912967205E0,9.744400978E0
1.037379094E1,-6.320692301E-1,1.944091797E0,1.038844109E1
1.039374943E1,-4.405331016E-1,1.845929503E0,1.041477776E1
1.041376896E1,3.663128614E-1,1.764526606E0,1.024718285E1
1.043372746E1,8.140285611E-1,1.879448295E0,1.002212811E1
1.045374699E1,9.217676520E-1,1.932120800E0,9.715670586E0
1.047370549E1,1.556231081E-1,2.094926596E0,9.583989143E0
1.049372502E1,-2.130839527E-1,2.267308950E0,9.593565941E0
1.051368351E1,-8.619125932E-2,1.812410712E0,1.054885292E1
1.053370305E1,1.340752989E-1,1.161187768E0,1.105881786E1
1.055366154E1,3.687070608E-1,1.063025594E0,9.976638794E0
1.057368107E1,-2.825157940E-1,9.600749016E-1,8.097189903E0
1.059363957E1,-9.241618514E-1,8.714894056E-1,7.156269073E0
1.061362858E1,-8.786720037E-1,6.751648784E-1,7.939172745E0
1.063358708E1,-1.604115069E-1,1.651999205E-1,9.162610054E0
1.065348546E1,1.963245422E-1,-1.316810995E-1,9.531316757E0
1.067347447E1,1.867477298E-1,-3.016694188E-1,9.241618156E0
1.069346349E1,2.681505978E-1,-8.379705995E-2,8.966285706E0
1.071345250E1,4.932055473E-1,3.615244627E-1,8.676587105E0
1.073344152E1,8.906430602E-1,1.072602391E0,7.862558365E0
1.075343053E1,1.501164436E0,2.446874142E0,7.204153061E0
1.077345006E1,1.680729628E0,3.478775024E0,6.471527100E0
1.079340856E1,-5.267243981E-1,3.485957623E0,7.663839817E0
1.081342809E1,-1.984793186E0,3.083731890E0,1.074038887E1
1.083341710E1,-1.795651317E0,2.363077164E0,1.345062542E1
1.085337560E1,-8.858546019E-1,1.398213744E0,1.455435181E1
1.087339513E1,-4.381389022E-1,6.200982332E-1,1.346977901E1
1.089338414E1,-5.841852427E-1,7.350199223E-1,1.099417400E1
1.091337316E1,1.460463107E-1,7.062895298E-1,9.660603523E0
1.093333165E1,5.626373887E-1,4.884171486E-1,9.809044838E0
1.095335118E1,-4.070142806E-1,6.320692301E-1,9.495404243E0
1.097334020E1,-1.144428372E0,1.221042871E0,8.717288017E0
1.099329869E1,-1.905784607E0,1.539471745E0,8.034940720E0
1.101331822E1,-2.779668093E0,1.786074519E0,8.063671112E0
1.103327672E1,-3.452438831E0,1.651999116E0,9.287108421E0
1.105329625E1,-2.470816135E0,9.050082564E-1,1.106121159E1
1.107331578E1,-6.727706790E-1,6.153098345E-1,1.208592987E1
1.109330480E1,-2.657563984E-1,8.044517636E-1,1.171961689E1
1.111329381E1,-4.692635238E-1,1.113303781E0,1.089122391E1
1.113331334E1,5.027823523E-2,5.506663918E-1,1.181538582E1
1.115333287E1,-1.244984865E-1,1.221042871E-1,1.176510715E1
1.117332189E1,-1.843535304E-1,1.244984865E-1,1.011789608E1
1.119331090E1,8.140286058E-2,2.873041928E-1,7.563282967E0
1.121333043E1,-5.698199868E-1,6.320692301E-1,5.374982834E0
1.123331945E1,-2.197877169E0,1.233013868E0,3.952826977E0
1.125330846E1,-1.695094824E0,1.477222443E0,4.678270340E0
1.127329747E1,8.140286058E-2,1.132457376E0,6.584054470E0
1.129328649E1,8.307880163E-1,1.027112484E0,8.228871346E0
1.131324498E1,5.722141862E-1,8.140285611E-1,7.029376030E0
1.133326451E1,4.333505034E-1,1.007958889E0,5.985504150E0
1.135322301E1,3.687070608E-1,1.235408068E0,7.201758862E0
1.137321202E1,4.405331016E-1,1.051054597E0,9.370905876E0
1.139323155E1,4.644751251E-1,7.302315235E-1,9.967061996E0
1.141319005E1,2.298433632E-1,6.823474765E-1,9.196128845E0
1.143320958E1,7.948749661E-1,9.409212470E-1,9.009381294E0
1.145319860E1,1.158793569E0,1.529894829E0,8.425195694E0
1.147315709E1,4.932055473E-1,2.382230759E0,7.996633530E0
1.149317662E1,-4.189853072E-1,3.093308687E0,7.548917770E0
1.151313512E1,-1.206677675E0,3.337517262E0,8.125920296E0
1.153315465E1,-2.753331959E-1,3.069366693E0,9.588777542E0
1.155317418E1,4.381389022E-1,2.389413357E0,1.017056847E1
1.157313268E1,1.376665950E0,1.946485996E0,1.018732834E1
1.159315221E1,2.020706177E0,2.276885748E0,1.083136845E1
1.161311070E1,1.738190413E0,2.252943754E0,1.066616821E1
1.163313024E1,6.751648784E-1,2.358288765E0,8.956708908E0
1.165311925E1,-1.508347094E-1,2.525882721E0,8.609549522E0
1.167310826E1,-1.098938584E0,1.625662923E0,1.113303757E1
1.169312779E1,-2.106897533E-1,4.812345505E-1,1.323035812E1
1.171308629E1,2.135627985E0,-9.097966552E-2,1.269166279E1
1.173310582E1,2.758120298E0,5.243301988E-1,1.139879417E1
1.175309484E1,1.027112484E0,1.058237195E0,1.020169353E1
1.177305333E1,5.674257874E-1,1.180341482E0,1.063264942E1
1.179307286E1,1.651999116E0,6.991068721E-1,1.116655636E1
1.181306188E1,2.784456491E0,9.624691010E-1,1.072841740E1
1.183305089E1,3.083731890E0,1.206677675E0,9.892841339E0
1.185303990E1,7.158663273E-1,5.530605912E-1,9.083600998E0
1.187302892E1,-5.458779931E-1,5.267243832E-2,9.109937668E0
1.189301793E1,2.418143749E-1,-7.876923680E-1,1.114740276E1
1.191297643E1,2.092532396E0,-1.446097851E0,1.312022495E1
1.193299596E1,2.719813108E0,-1.987187386E0,1.239238834E1
1.195295445E1,1.438915253E0,-1.501164436E0,1.007001209E1
1.197297399E1,1.867477298E-1,-5.195417404E-1,8.726864815E0
1.199293248E1,1.134851575E0,-3.830722719E-2,9.172186852E0
1.201295201E1,1.596932530E0,2.609679997E-1,9.378087997E0
1.203291051E1,1.364694953E0,9.121908545E-1,8.930372238E0
1.205289952E1,1.082179189E0,1.283292055E0,8.257601738E0
1.207288854E1,9.959878922E-1,1.137245774E0,7.841010571E0
1.209287755E1,1.209071875E0,1.218648672E0,7.800309181E0
1.211286656E1,1.096544385E0,1.264138460E0,8.384494781E0
1.213285558E1,1.120486379E0,1.288080573E0,8.547300339E0
1.215284459E1,1.350329757E0,1.510741234E0,9.026140213E0
1.217280309E1,3.758896589E-1,1.781286120E0,9.437943459E0
1.219282262E1,1.723825186E-1,2.353500366E0,9.220070839E0
1.221278111E1,8.619126081E-1,2.504334927E0,9.521739960E0
1.223280065E1,8.690952063E-1,2.102109194E0,9.129091263E0
1.225275914E1,5.865794420E-1,2.159569979E0,9.059659004E0
1.227277867E1,3.375824392E-1,2.123656988E0,1.051054573E1
1.229276769E1,1.221042871E-1,1.968033791E0,1.261265469E1
1.231272618E1,3.519476354E-1,1.199495077E0,1.222000504E1
1.233274571E1,7.086837292E-1,1.103726983E0,9.971850395E0
1.235273473E1,6.368576288E-1,1.252167463E0,1.013226128E1
1.237272374E1,4.932055473E-1,1.005564690E0,1.157596493E1
1.239271276E1,4.548983276E-2,9.792284966E-1,1.064940929E1
1.241270177E1,-9.217676520E-1,8.092401624E-1,9.042900085E0
1.243266026E1,-1.142034173E0,8.044517636E-1,8.597578049E0
1.245267980E1,-1.063025594E0,1.098938584E0,8.930372238E0
1.247269933E1,-1.201889277E0,1.412579060E0,8.394071579E0
1.249268834E1,-1.309628367E0,1.690306425E0,6.794744492E0
1.251264684E1,-1.371877551E0,1.903390408E0,5.935225964E0
1.253263585E1,-1.113303781E0,2.145204782E0,7.429207802E0
1.255259435E1,-1.244984865E0,2.025494576E0,9.557653427E0
1.257258336E1,-1.429338455E0,1.924938202E0,9.500192642E0
1.259254186E1,-1.716642618E0,1.939303398E0,8.288725853E0
1.261256139E1,-1.249773264E0,2.063801765E0,8.207323074E0
1.263251988E1,-1.376665950E0,2.006340981E0,8.932766914E0
1.265253942E1,-9.840168953E-1,2.140416384E0,8.760383606E0
1.267249791E1,-9.552865028E-1,2.523488522E0,7.553706169E0
1.269248692E1,-1.029506683E0,2.849100113E0,7.012616634E0
1.271250646E1,-9.840168953E-1,2.978386879E0,8.355764389E0
1.273246495E1,-1.278503656E0,3.014299870E0,9.502586365E0
1.275242345E1,-9.888052940E-1,3.047818661E0,8.956708908E0
1.277244298E1,-4.548983276E-2,2.995146275E0,8.647856712E0
1.279240148E1,1.077390760E-1,2.609679937E0,9.172186852E0
1.281242101E1,-8.882488012E-1,2.475604534E0,9.126696587E0
1.283237950E1,-2.489969730E0,2.537853718E0,8.726864815E0
1.285236852E1,-2.995146275E0,2.509123325E0,1.109473038E1
1.287232701E1,-1.826775908E0,1.587355733E0,1.154005241E1
1.289231603E1,-9.624691010E-1,1.125274777E0,1.082418633E1
1.291227452E1,-8.188169599E-1,1.036689281E0,9.720458984E0
1.293229405E1,-2.466027737E-1,1.355118155E0,8.968679428E0
1.295225255E1,-2.537853718E-1,1.829170108E0,8.947132111E0
1.297227208E1,2.489969730E-1,2.229001760E0,9.054870605E0
1.299223058E1,7.661445439E-2,2.322375536E0,8.784325600E0
1.301221959E1,-5.339069963E-1,2.444479942E0,8.844181061E0
1.303220861E1,-9.409212470E-1,1.752555609E0,8.681375504E0
1.305219762E1,-3.758896589E-1,1.070208192E0,8.200140953E0
1.307218663E1,5.363011956E-1,4.429273009E-1,8.985439301E0
1.309217565E1,1.539471745E0,1.556231081E-1,1.054406452E1
1.311216466E1,2.873042107E0,3.950432837E-1,1.146822643E1
1.313215367E1,2.542642117E0,1.067813993E0,1.100375080E1
1.315211217E1,1.565807939E0,1.848323703E0,1.028309631E1
1.317210118E1,7.254431248E-1,1.927332401E0,9.394847870E0
1.319209020E1,-9.504981041E-1,2.082955360E0,9.255983353E0
1.321207921E1,-1.443703651E0,1.810016513E0,9.220070839E0
1.323203771E1,-9.792284966E-1,1.307234168E0,9.057265282E0
1.325205724E1,-2.753331959E-1,7.398083210E-1,9.569623947E0
1.327207677E1,-2.394201607E-2,4.548983276E-1,1.033576870E1
1.329203526E1,4.644751251E-1,8.379705995E-2,1.072362900E1
1.331199376E1,4.237737060E-1,9.576806426E-2,1.021845245E1
1.333201329E1,1.101332754E-1,4.285621047E-1,9.198522568E0
1.335203282E1,2.154781483E-2,5.123591423E-1,8.408436775E0
1.337199132E1,1.316810995E-1,7.445967197E-1,7.965508938E0
1.339201085E1,7.709329724E-1,8.786720037E-1,7.965508938E0
1.341196935E1,1.010353088E0,1.029506683E0,8.044517517E0
1.343195836E1,8.978256583E-1,1.223437071E0,7.929595947E0
1.345191686E1,6.033388376E-1,1.273715258E0,8.185775757E0
1.347193639E1,5.770025849E-1,1.316810966E0,8.650250435E0
1.349189488E1,7.398083210E-1,1.426944256E0,8.956708908E0
1.351191442E1,8.427590132E-1,1.553836942E0,9.574412346E0
1.353187291E1,6.392518282E-1,1.470039845E0,9.670180321E0
1.355183141E1,2.394201700E-3,1.515529633E0,9.552865028E0
1.357185094E1,-4.070142806E-1,1.577778935E0,9.301473618E0
1.359180944E1,-6.631938815E-1,1.537077546E0,9.425971985E0
1.361179845E1,1.244984865E-1,1.225831270E0,9.904812813E0
1.363175695E1,7.829039693E-1,1.012747288E0,1.010113716E1
1.365177648E1,8.930372596E-1,1.003170490E0,1.033576870E1
1.367173497E1,8.810662031E-1,1.165976286E0,1.108754826E1
1.369175450E1,7.589619160E-1,9.792284966E-1,1.082418633E1
1.371171300E1,7.206547260E-1,7.493851185E-1,9.907206535E0
1.373173253E1,5.003881454E-1,1.795651317E-1,1.103248119E1
1.375172154E1,-2.920926213E-1,-4.836287498E-1,1.301009178E1
1.377168004E1,-8.068459630E-1,-6.033388376E-1,1.357033539E1
1.379169957E1,-9.074024558E-1,-6.560112834E-1,1.226549530E1
1.381168858E1,-3.016694188E-1,-5.339069963E-1,1.015859795E1
1.383164708E1,1.244984865E-1,-4.836287498E-1,9.629479408E0
1.385166661E1,5.410895944E-1,-4.860229492E-1,9.686940193E0
1.387162511E1,-4.740519226E-1,-2.106897533E-1,8.815450668E0
1.389164464E1,-1.843535304E0,2.777273953E-1,7.484274387E0
1.391163365E1,-1.606509328E0,6.057330370E-1,6.591237068E0
1.393162267E1,-3.375824392E-1,5.219359994E-1,7.184999466E0
1.395161168E1,-1.197100878E-1,2.609679997E-1,8.046912193E0
1.397160070E1,2.178723514E-1,1.699883193E-1,8.573636055E0
1.399158971E1,5.578489900E-1,8.858546615E-2,8.645462036E0
1.401154820E1,8.140285611E-1,1.364694983E-1,9.050082207E0
1.403156774E1,9.002198577E-1,4.094084799E-1,9.071630478E0
1.405152623E1,1.314416766E0,5.434837937E-1,8.343792915E0
1.407154576E1,1.316810966E0,6.727706790E-1,8.391676903E0
1.409150426E1,1.132457376E0,8.643068075E-1,9.198522568E0
1.411152379E1,7.685387731E-1,8.403648138E-1,9.811438560E0
1.413148229E1,7.876923680E-1,9.097966552E-1,1.024239445E1
1.415150182E1,1.525106430E0,9.169792533E-1,1.022084713E1
1.417149083E1,2.406172752E0,9.026140571E-1,9.751583099E0
1.419144933E1,2.276885748E0,8.427590132E-1,9.557653427E0
1.421146886E1,7.852981687E-1,8.355764151E-1,1.041477776E1
1.423142736E1,1.580173075E-1,8.810662031E-1,1.163582039E1
1.425144689E1,2.777273953E-1,6.464344859E-1,1.165976238E1
1.427140538E1,4.548983276E-1,4.668693244E-1,1.008198357E1
1.429142491E1,3.926490843E-1,4.165911078E-1,9.224859238E0
1.431144445E1,4.285621047E-1,2.442085743E-1,9.945513725E0
1.433143346E1,6.033388376E-1,1.867477298E-1,1.090080070E1
1.435139195E1,1.058237195E0,4.788403213E-2,1.079066753E1
1.437141149E1,1.738190413E0,-3.351882473E-2,9.832986832E0
1.439136998E1,1.963245392E0,-3.830722719E-2,9.062053680E0
1.441138951E1,2.032677174E0,-4.548983276E-2,9.263166428E0
1.443134801E1,2.078166962E0,-1.915361285E-1,1.005325317E1
1.445136754E1,2.499546528E0,-4.070143029E-2,1.079545593E1
1.447132604E1,2.597708941E0,3.591302410E-2,1.024239445E1
1.449134557E1,2.090138197E0,3.782838583E-1,9.308655739E0
1.451130406E1,8.619126081E-1,4.285621047E-1,8.789113998E0
1.453132360E1,2.274491638E-1,5.793967843E-1,8.705317497E0
1.455128209E1,-5.506663769E-2,3.375824392E-1,8.535328865E0
1.457127111E1,-1.412578970E-1,2.944868207E-1,8.714894295E0
1.459126012E1,-7.900865376E-2,6.703764945E-2,9.191340446E0
1.461124913E1,1.364694983E-1,1.125274822E-1,9.124302864E0
1.463123815E1,5.913678408E-1,3.663128614E-1,8.427590370E0
1.465122716E1,6.655880809E-1,6.943184733E-1,7.910442352E0
1.467121617E1,6.129156351E-1,8.355764151E-1,7.860164165E0
1.469120519E1,3.399766386E-1,1.051054597E0,8.487444878E0
1.471119420E1,4.788403213E-2,1.371877551E0,9.368511200E0
1.473121373E1,-1.436520964E-1,1.510741234E0,9.555258751E0
1.475123326E1,-4.596867263E-1,1.592144132E0,9.703699112E0
1.477119176E1,-2.609679997E-1,1.589749932E0,9.464279175E0
1.479121129E1,-1.723825186E-1,1.637633920E0,8.734047890E0
1.481120030E1,-3.232172430E-1,1.714248419E0,8.066065788E0
1.483115880E1,-4.908113480E-1,1.812410712E0,8.540117264E0
1.485117833E1,-6.344634295E-1,1.843535304E0,9.773131371E0
1.487119786E1,-7.493851185E-1,1.750161409E0,1.051054573E1
1.489115636E1,-9.672574997E-1,1.431732655E0,1.125514221E1
1.491117589E1,-5.770025849E-1,1.142034173E0,1.155202293E1
1.493116490E1,-4.094084799E-1,1.192312479E0,1.037168217E1
1.495115392E1,-8.762778044E-1,1.371877551E0,9.847352028E0
1.497111241E1,-1.903390408E0,9.744400978E-1,1.011789608E1
1.499110143E1,-2.533065319E0,8.667010069E-1,9.974244118E0
1.501112096E1,-3.014299870E0,6.847416759E-1,1.003409958E1
1.503107945E1,-2.087743998E0,2.777273953E-1,1.089361763E1
1.505109899E1,-1.347935557E0,-2.633621916E-2,1.126232433E1
1.507105748E1,-7.996633649E-1,1.532289088E-1,1.040998936E1
1.509107701E1,-4.548983276E-2,6.703764945E-2,9.921571732E0
1.511109654E1,-2.896983922E-1,6.224924326E-2,9.493009567E0
1.513105504E1,-1.199495077E0,3.926490843E-1,9.076418877E0
1.515107457E1,-1.616086125E0,6.871358752E-1,8.628703117E0
1.517106358E1,-1.637633920E0,7.350199223E-1,8.463502884E0
1.519105260E1,-1.539471745E0,6.392518282E-1,8.463502884E0
1.521107213E1,-1.266532660E0,6.009446383E-1,7.881711960E0
1.523103063E1,-7.613561153E-1,4.908113480E-1,7.333439827E0
1.525105016E1,-6.033388376E-1,5.554547906E-1,7.443572998E0
1.527100865E1,-1.149216771E0,7.206547260E-1,7.929595947E0
1.529102819E1,-1.266532660E0,8.379706144E-1,8.070854187E0
1.531098668E1,-1.482010841E0,8.259995580E-1,8.372523308E0
1.533100621E1,-1.094150186E0,6.416460276E-1,8.975862503E0
1.535096471E1,-9.744400978E-1,6.655880809E-1,8.959102631E0
1.537098424E1,-1.237802267E0,8.427590132E-1,9.021351814E0
1.539094274E1,-1.654393315E0,8.834604025E-1,9.174580574E0
1.541096227E1,-1.692700624E0,1.019929886E0,9.425971985E0
1.543092076E1,-1.623268723E0,1.082179189E0,9.940725327E0
1.545094029E1,-1.503558636E0,1.137245774E0,1.016338634E1
1.547092931E1,-1.048660398E0,1.271321058E0,1.020648193E1
1.549091832E1,-8.403648138E-1,1.326387763E0,1.003649330E1
1.551087682E1,-1.084573388E0,1.391031146E0,9.368511200E0
1.553086583E1,-1.690306425E0,1.438915253E0,9.217676163E0
1.555088536E1,-1.601720929E0,1.264138460E0,1.003409958E1
1.557087438E1,-6.727706790E-1,1.326387763E0,1.067335129E1
1.559083287E1,6.703764945E-2,1.584961534E0,1.044350815E1
1.561085240E1,-2.466027737E-1,1.752555609E0,9.394847870E0
1.563081090E1,-3.687070608E-1,2.054224968E0,8.834604263E0
1.565083043E1,-4.213795066E-1,1.982398987E0,9.461885452E0
1.567084996E1,-5.003881454E-1,1.668758631E0,1.031661510E1
1.569080846E1,-4.525041282E-1,1.467645645E0,1.077151299E1
1.571079747E1,-7.733271718E-1,1.264138460E0,1.135809326E1
1.573081700E1,-1.067813993E0,8.379706144E-1,1.143710136E1
1.575077550E1,-9.792284966E-1,5.817909837E-1,1.118331623E1
1.577079503E1,-3.303998411E-1,5.123591423E-1,1.069011021E1
1.579081456E1,-2.370259613E-1,5.027823448E-1,9.979032516E0
1.581080358E1,-6.081272364E-1,5.626373887E-1,9.282320023E0
1.583079259E1,-1.134851575E0,5.985504389E-1,9.097966194E0
1.585081212E1,-1.343147159E0,5.291185975E-1,9.318233490E0
1.587083165E1,-6.392518282E-1,3.830722570E-1,9.136273384E0
1.589082067E1,6.464344263E-2,1.221042871E-1,8.748413086E0
1.591080968E1,-3.591302410E-2,4.788403213E-2,8.236053467E0
1.593079869E1,-4.644751251E-1,1.604115069E-1,8.271966934E0
1.595075719E1,-3.375824392E-1,2.466027737E-1,8.401253700E0
1.597077672E1,-8.619125932E-2,3.256114423E-1,7.984662533E0
1.599079625E1,4.165911078E-1,3.615244627E-1,8.192957878E0
1.601078527E1,6.512228847E-1,5.434837937E-1,8.875306129E0
1.603077428E1,3.998316824E-1,8.331822157E-1,9.157821655E0
1.605076329E1,2.753331959E-1,1.077390790E0,8.748413086E0
1.607075231E1,5.267243981E-1,1.048660398E0,9.198522568E0
1.609074132E1,5.219359994E-1,9.337386489E-1,1.024239445E1
1.611069982E1,6.560112834E-1,1.046266198E0,1.039322948E1
1.613068883E1,4.908113480E-1,1.256955862E0,9.660603523E0
1.615067784E1,3.040636182E-1,1.300051570E0,9.880870819E0
1.617066686E1,-2.346317619E-1,1.213860273E0,1.059434223E1
1.619062535E1,-2.609679997E-1,1.063025594E0,1.089122391E1
1.621061437E1,-1.580173075E-1,9.768342972E-1,1.183453941E1
1.623057286E1,-1.077390760E-1,6.727706790E-1,1.255279922E1
1.625059239E1,-4.692635238E-1,3.711012602E-1,1.201171017E1
1.627058141E1,-8.882488012E-1,5.817909837E-1,1.074996567E1
1.629057042E1,-9.959878922E-1,5.913678408E-1,9.758766174E0
1.631058995E1,-1.007958889E0,3.495534360E-1,9.069235802E0
1.633054845E1,-1.407790542E0,5.099649429E-1,9.459490776E0
1.635056798E1,-1.601720929E0,4.812345505E-1,1.006043530E1
1.637052648E1,-1.007958889E0,3.734954596E-1,1.024239445E1
1.639054601E1,-5.578489900E-1,1.532289088E-1,9.373299599E0
1.641053502E1,-1.003170490E0,1.412578970E-1,8.791508675E0
1.643052403E1,-1.194706678E0,2.442085743E-1,9.124302864E0
1.645051305E1,-7.852981687E-1,3.447650373E-1,9.557653427E0
1.647047154E1,-3.040636182E-1,2.873041928E-1,8.602366447E0
1.649049108E1,-5.841852427E-1,5.602431893E-1,7.582436562E0
1.651051061E1,-1.307234168E0,7.206547260E-1,7.501033783E0
1.653049962E1,-1.019929886E0,8.116343617E-1,8.267178535E0
1.655048863E1,-2.657563984E-1,6.320692301E-1,9.095572472E0
1.657050816E1,1.675941199E-1,7.972691655E-1,8.971074104E0
1.659046666E1,-2.633621991E-1,1.110909581E0,8.154650688E0
1.661045568E1,-8.643068075E-1,1.362300754E0,7.857769966E0
1.663041417E1,-1.517923832E0,1.599326730E0,7.462726593E0
1.665040319E1,-1.692700624E0,1.702277422E0,7.730877399E0
1.667036168E1,-1.223437071E0,1.465251446E0,8.992621422E0
1.669035070E1,-2.202665508E-1,1.151610970E0,9.327810287E0
1.671037023E1,-9.576806799E-3,1.089361787E0,9.380482674E0
1.673035924E1,1.436521020E-2,1.357512355E0,9.629479408E0
1.675034825E1,-4.405331016E-1,1.525106430E0,9.610325813E0
1.677036778E1,-5.434837937E-1,1.496376038E0,1.061828423E1
1.679038732E1,-7.900865376E-2,1.194706678E0,1.111867237E1
1.681037633E1,5.602431893E-1,1.228225470E0,1.107318306E1
1.683036534E1,5.147533417E-1,1.247379065E0,1.079066753E1
1.685032384E1,3.351882398E-1,1.374271750E0,1.082658005E1
1.687034337E1,-1.819593310E-1,1.379060149E0,1.110670185E1
1.689030187E1,1.436520964E-1,1.326387763E0,1.026394272E1
1.691032140E1,2.011129409E-1,1.161187768E0,9.217676163E0
1.693027989E1,6.224924326E-1,1.110909581E0,9.682151794E0
1.695029942E1,1.060631394E0,8.667010069E-1,1.060391903E1
1.697025792E1,6.129156351E-1,9.768342972E-1,1.062307262E1
1.699027745E1,-4.788403213E-2,9.193734527E-1,8.978256226E0
1.701023595E1,-2.609679997E-1,8.834604025E-1,8.173804283E0
1.703022496E1,3.998316824E-1,6.703764796E-1,9.591172218E0
1.705021398E1,1.189918280E0,3.495534360E-1,1.031900978E1
1.707017247E1,1.510741234E0,3.495534360E-1,1.036689377E1
1.709019200E1,1.340752959E0,6.177040339E-1,9.519346237E0
1.711015050E1,1.086967587E0,7.829039693E-1,8.614337921E0
1.713013951E1,5.482721925E-1,8.978256583E-1,8.044517517E0
1.715015904E1,0.000000000E0,9.935936928E-1,8.145073891E0
1.717011754E1,3.232172430E-1,9.504981041E-1,8.908824921E0
1.719010655E1,9.840168953E-1,8.044517636E-1,9.244012833E0
1.721006505E1,1.053448796E0,7.038952708E-1,8.726864815E0
1.723008458E1,7.278373241E-1,9.121908545E-1,8.245630264E0
1.725007360E1,3.040636182E-1,1.189918280E0,8.616731644E0
1.727009313E1,6.751648784E-1,1.175553083E0,8.841787338E0
1.729008214E1,8.283938169E-1,1.187524080E0,8.432378769E0
1.731007115E1,6.464344859E-1,1.288080573E0,8.329427719E0
1.733009069E1,6.057330370E-1,1.240196466E0,8.892065048E0
1.735007970E1,5.698199868E-1,1.252167463E0,9.550470352E0
1.737006871E1,7.422025502E-2,1.352723956E0,9.971850395E0
1.739005773E1,2.154781520E-1,1.395819545E0,9.670180321E0
1.741004674E1,4.644751251E-1,1.515529633E0,9.349357605E0
1.743000524E1,4.908113480E-1,1.587355733E0,9.619902611E0
1.745002477E1,4.333505034E-1,1.611297727E0,1.001015759E1
1.747004430E1,-1.005564705E-1,1.728613615E0,1.016578007E1
1.749003331E1,-5.075707436E-1,1.764526606E0,1.018253994E1
1.750999181E1,-3.280056417E-1,1.570596337E0,1.062786102E1
1.753001134E1,-1.221042871E-1,1.405396342E0,1.112346077E1
1.755003087E1,4.046200812E-1,1.230619669E0,1.137245846E1
1.757005040E1,1.987187415E-1,9.457096457E-1,1.119768143E1
1.759000890E1,-1.460463107E-1,9.648633003E-1,1.058955383E1
1.760999791E1,-3.758896589E-1,1.194706678E0,9.598354340E0
1.763001744E1,-1.247379065E0,8.882488012E-1,9.315838814E0
1.764997594E1,-2.097320795E0,4.094084799E-1,1.023281765E1
1.766999547E1,-2.185906172E0,6.703764945E-2,1.127190113E1
1.768995397E1,-1.328781962E0,-2.944868207E-1,1.184650993E1
1.770997350E1,-5.195417404E-1,-6.009446383E-1,1.142991924E1
1.772993199E1,-5.889736414E-1,-4.453215301E-1,1.000536919E1
1.774995152E1,-9.504981041E-1,-1.484405100E-1,8.475474358E0
1.776994054E1,-1.450886250E0,2.154781520E-1,7.407660007E0
1.778992955E1,-1.599326730E0,4.788403511E-1,7.017405033E0
1.780991857E1,-1.350329757E0,5.458779931E-1,7.230489254E0
1.782990758E1,-1.118092179E0,3.639186621E-1,8.018181801E0
1.784989659E1,-1.074996591E0,4.261679053E-1,8.676587105E0
1.786988561E1,-2.681505978E-1,4.118026793E-1,8.705317497E0
1.788987462E1,1.699883193E-1,6.081272364E-1,8.255207062E0
1.790986363E1,-1.843535304E-1,9.433154464E-1,7.702147007E0
1.792985265E1,-7.541735172E-1,1.240196466E0,7.819462776E0
1.794981114E1,-7.565677166E-1,1.213860273E0,8.628703117E0
1.796980016E1,-3.543418646E-1,1.228225470E0,9.162610054E0
1.798981969E1,-3.040636182E-1,1.261744261E0,9.236829758E0
1.800980870E1,-3.878606856E-1,1.328781962E0,9.088389397E0
1.802979772E1,-4.477157295E-1,1.364694953E0,9.208099365E0
1.804978673E1,-5.099649429E-1,1.534683347E0,9.495404243E0
1.806977574E1,-6.727706790E-1,1.529894829E0,9.694122314E0
1.808973424E1,-2.873041928E-1,1.455674648E0,1.013226128E1
1.810972325E1,3.232172430E-1,1.446097851E0,1.077390766E1
1.812974278E1,9.576806799E-3,1.489193439E0,1.053688145E1
1.814973180E1,-6.177040339E-1,1.572990537E0,1.036210537E1
1.816972081E1,-6.272808313E-1,1.338358760E0,1.056800652E1
1.818970982E1,-1.532289088E-1,1.268926859E0,1.078108978E1
1.820969884E1,2.370259613E-1,1.491587639E0,1.073799419E1
1.822968785E1,1.125274822E-1,1.802833915E0,1.033098030E1
1.824970738E1,-1.915361285E-1,1.728613615E0,1.028549004E1
1.826972692E1,6.871358752E-1,1.527500629E0,1.005804157E1
1.828971593E1,2.130839586E0,1.453280449E0,1.023521233E1
1.830970494E1,2.363077164E0,1.280897856E0,1.028309631E1
1.832969396E1,2.140416384E0,8.906430602E-1,1.042914295E1
1.834968297E1,1.666364431E0,6.560112834E-1,1.100375080E1
1.836967198E1,1.865083098E0,5.458779931E-1,1.110670185E1
1.838966100E1,1.831564307E0,5.171475410E-1,1.104205799E1
1.840968053E1,2.248155355E0,5.386953950E-1,1.038365269E1
1.842963902E1,2.631227732E0,5.889736414E-1,9.306262016E0
1.844965856E1,2.147598982E0,5.434837937E-1,8.303091049E0
1.846961705E1,1.302445769E0,5.003881454E-1,7.999027729E0
1.848963658E1,8.427590132E-1,5.865794420E-1,8.525752068E0
1.850959508E1,9.121908545E-1,5.841852427E-1,8.906430244E0
1.852961461E1,9.959878922E-1,6.775590777E-1,8.336610794E0
1.854963414E1,7.829039693E-1,7.613561153E-1,7.383718014E0
1.856962316E1,8.619125932E-2,1.003170490E0,6.866570473E0
1.858961217E1,4.165911078E-1,1.134851575E0,8.013393402E0
1.860960118E1,1.079784989E0,7.565677166E-1,9.239224434E0
1.862959020E1,1.386242747E0,1.007958889E0,9.564835548E0
1.864957921E1,1.225831270E0,1.448492050E0,8.075642586E0
1.866953771E1,3.064578176E-1,1.642422318E0,7.302315235E0
1.868952672E1,-1.364694983E-1,1.948880196E0,7.778761387E0
1.870954625E1,-2.370259613E-1,1.941697598E0,8.748413086E0
1.872953527E1,-3.830722719E-2,2.188300371E0,8.963891029E0
1.874952428E1,1.771709323E-1,2.207453966E0,9.050082207E0
1.876951329E1,3.088520169E-1,2.140416384E0,9.078812599E0
1.878950231E1,3.040636182E-1,2.085349798E0,8.834604263E0
1.880949132E1,-1.675941236E-2,1.994369984E0,9.277531624E0
1.882948033E1,-4.022258818E-1,1.764526606E0,1.020169353E1
1.884946935E1,-5.123591423E-1,1.477222443E0,1.142752457E1
1.886948888E1,4.548983276E-2,1.331176162E0,1.204522896E1
1.888944737E1,-1.795651317E-1,1.501164436E0,1.202128696E1
1.890946691E1,-9.217676520E-1,1.637633920E0,1.082897472E1
1.892945592E1,-1.268926859E0,1.666364431E0,9.102754593E0
1.894941442E1,-1.601720929E0,1.644816518E0,8.027758598E0
1.896943395E1,-2.705447912E0,8.595184088E-1,8.133103371E0
1.898939244E1,-3.347094059E0,1.819593310E-1,1.007958889E1
1.900938146E1,-2.820369720E0,-3.663128614E-1,1.199016190E1
1.902933995E1,-1.726219416E0,-4.740519226E-1,1.318247414E1
1.904935948E1,-8.044517636E-1,-4.477157295E-1,1.315135002E1
1.906937902E1,-9.169792533E-1,-1.987187415E-1,1.102290440E1
1.908933751E1,-1.065419793E0,1.699883193E-1,8.760383606E0
1.910935704E1,-1.611297727E0,3.782838583E-1,7.620744228E0
1.912934606E1,-1.838746905E0,5.195417404E-1,7.939172745E0
1.914933507E1,-1.666364431E0,5.817909837E-1,8.463502884E0
1.916932408E1,-9.648633003E-1,6.009446383E-1,8.434772491E0
1.918931310E1,-4.788403511E-1,6.009446383E-1,8.008605003E0
1.920930211E1,-6.224924326E-1,6.823474765E-1,7.577648163E0
1.922929112E1,-8.595184088E-1,8.523358107E-1,7.678205013E0
1.924928014E1,-7.374141216E-1,9.313444495E-1,7.757213593E0
1.926923863E1,-5.554547906E-1,1.000776291E0,7.802703381E0
1.928925816E1,-7.733271718E-1,1.007958889E0,7.939172745E0
1.930927770E1,-1.288080573E0,1.084573388E0,7.972691536E0
1.932926671E1,-2.092532396E0,1.201889277E0,8.082824707E0
1.934925572E1,-2.609679937E0,1.039083481E0,8.688557625E0
1.936921422E1,-2.078166962E0,6.057330370E-1,1.011789608E1
1.938923375E1,-8.906430602E-1,1.723825186E-1,1.103008747E1
1.940922277E1,-2.082955539E-1,1.580173075E-1,1.062067890E1
1.942918126E1,-9.289502501E-1,4.668693244E-1,9.567230225E0
1.944920079E1,-1.584961534E0,8.523358107E-1,9.370905876E0
1.946918981E1,-2.056619167E0,1.132457376E0,1.005325317E1
1.948917882E1,-1.996764183E0,1.201889277E0,1.049618053E1
1.950916783E1,-1.589749932E0,1.158793569E0,1.039083576E1
1.952915685E1,-1.570596337E0,1.000776291E0,1.023521233E1
1.954911534E1,-1.493981838E0,8.451532125E-1,1.084573364E1
1.956913487E1,-8.451532125E-1,7.852981687E-1,1.112585545E1
1.958909337E1,-8.619125932E-2,9.840168953E-1,1.065898609E1
1.960911290E1,1.604115069E-1,1.199495077E0,1.036689377E1
1.962907140E1,9.576806799E-3,1.048660398E0,1.061110210E1
1.964909093E1,-2.681505978E-1,9.792284966E-1,1.065180302E1
1.966907994E1,-7.110779285E-1,7.900865674E-1,1.005804157E1
1.968903844E1,-8.523358107E-1,5.027823448E-1,9.595960617E0
1.970905797E1,-8.259995580E-1,1.292868853E-1,9.919178009E0
1.972901647E1,-5.602431893E-1,8.619125932E-2,1.018972206E1
1.974903600E1,-1.580173075E-1,1.436521020E-2,1.015620327E1
1.976899449E1,-1.292868853E-1,8.379705995E-2,1.013465595E1
1.978901402E1,-2.466027737E-1,1.149216816E-1,9.849745750E0
1.980900304E1,-5.698199868E-1,2.082955539E-1,9.282320023E0
1.982899205E1,-1.321599364E0,9.576806799E-3,8.966285706E0
1.984898107E1,-1.106121182E0,-4.118026793E-1,9.382876396E0
1.986897008E1,-8.547300100E-1,-6.105214357E-1,9.512163162E0
1.988895909E1,-6.488286853E-1,-3.711012602E-1,9.030928612E0
1.990894811E1,-4.548983276E-1,-2.082955539E-1,8.231265068E0
1.992893712E1,-5.219359994E-1,-6.224924326E-2,7.898471355E0
1.994889562E1,-4.884171486E-1,2.873041928E-1,7.872135162E0
1.996888463E1,-1.604115069E-1,7.661445141E-1,7.582436562E0
1.998884313E1,1.556231081E-1,1.051054597E0,7.596801758E0
2.000883214E1,1.316810995E-1,1.130063176E0,7.805097580E0
2.002885167E1,-1.987187415E-1,1.264138460E0,7.908048153E0
2.004884069E1,-6.655880809E-1,1.300051570E0,8.485051155E0
2.006882970E1,-7.134721279E-1,1.149216771E0,9.074024200E0
2.008881871E1,-2.513911724E-1,1.221042871E0,9.524134636E0
2.010877721E1,8.379705995E-2,1.326387763E0,9.852140427E0
2.012876622E1,5.746084079E-2,1.367089152E0,9.931148529E0
2.014872472E1,-1.508347094E-1,1.355118155E0,9.603142738E0
2.016874425E1,-5.841852427E-1,1.565807939E0,9.708487511E0
2.018873326E1,-2.729389966E-1,1.393425345E0,1.019211674E1
2.020872228E1,2.322375625E-1,1.187524080E0,1.076433086E1
2.022871129E1,1.867477298E-1,1.161187768E0,1.086967564E1
2.024873082E1,-5.410895944E-1,1.118092179E0,1.066137981E1
2.026868932E1,-4.860229492E-1,1.122880578E0,1.075235939E1
2.028870885E1,2.059013397E-1,1.036689281E0,1.076433086E1
2.030866734E1,-8.140286058E-2,5.746083856E-1,9.550470352E0
2.032868688E1,-1.362300754E0,2.944868207E-1,9.265560150E0
2.034864537E1,-2.710236311E0,-9.097966552E-2,1.095586681E1
2.036866490E1,-1.812410712E0,-5.578489900E-1,1.341950035E1
2.038862340E1,-4.189853072E-1,-1.223437071E0,1.408269405E1
2.040864293E1,2.657563984E-1,-1.383848548E0,1.215057373E1
2.042866246E1,-2.729389966E-1,-9.768342972E-1,1.003409958E1
2.044862096E1,-9.050082564E-1,-7.637503147E-1,9.337387085E0
2.046864049E1,-6.775590777E-1,-6.464344859E-1,9.155426979E0
2.048862950E1,-3.830722570E-1,-7.829039693E-1,8.633491516E0
2.050858800E1,-2.992752194E-1,-4.740519226E-1,7.929595947E0
2.052857701E1,-3.782838583E-1,-2.394201700E-3,7.031770229E0
2.054856603E1,-3.687070608E-1,3.974374831E-1,6.186617374E0
2.056855504E1,-4.548983276E-2,5.051765442E-1,6.026205540E0
2.058854405E1,8.499416113E-1,2.322375625E-1,7.450755596E0
2.060850255E1,1.352723956E0,1.340752989E-1,8.367734909E0
2.062852208E1,1.165976286E0,1.508347094E-1,9.097966194E0
2.064851110E1,5.817909837E-1,2.298433632E-1,8.851364136E0
2.066850011E1,-3.351882398E-1,2.442085743E-1,7.795520782E0
2.068848912E1,-1.956062794E0,2.537853718E-1,8.010998726E0
2.070844762E1,-1.738190413E0,1.675941199E-1,1.015141487E1
2.072846715E1,-1.508347094E-1,-1.987187415E-1,1.128866100E1
2.074845616E1,7.948749661E-1,-3.088520169E-1,1.075954247E1
2.076844518E1,-6.224924326E-2,1.149216816E-1,9.133879662E0
2.078840367E1,-8.690952063E-1,4.788403511E-1,8.255207062E0
2.080842320E1,-1.194706678E0,8.116343617E-1,8.408436775E0
2.082844274E1,-6.153098345E-1,8.188169599E-1,8.942343712E0
2.084843175E1,-4.141969085E-1,9.457096457E-1,9.543288231E0
2.086839024E1,-3.998316824E-1,8.595184088E-1,1.040998936E1
2.088837926E1,-1.163581967E0,8.499416113E-1,1.163342571E1
2.090833776E1,-1.534683347E0,8.499416113E-1,1.195903778E1
2.092835729E1,-6.871358752E-1,6.847416759E-1,1.129823780E1
2.094834630E1,2.489969730E-1,6.200982332E-1,1.138203526E1
2.096830480E1,1.297657371E0,4.716577232E-1,1.208592987E1
2.098832433E1,1.584961534E0,4.644751251E-1,1.221042824E1
2.100828282E1,1.206677675E0,6.727706790E-1,1.200931549E1
2.102830236E1,5.554547906E-1,5.506663918E-1,1.082418633E1
2.104829137E1,-1.628057212E-1,6.679822803E-1,9.689333916E0
2.106828038E1,-2.585737705E-1,7.924807668E-1,8.520963669E0
2.108826940E1,5.746084079E-2,8.954314590E-1,7.960720539E0
2.110825841E1,1.987187415E-1,6.919242740E-1,8.171410561E0
2.112821691E1,1.939303428E-1,4.141969085E-1,9.085995674E0
2.114823644E1,3.639186621E-1,3.160346150E-1,9.445125580E0
2.116819493E1,3.711012602E-1,3.016694188E-1,9.165003777E0
2.118821446E1,3.974374831E-1,3.351882398E-1,8.836998940E0
2.120817296E1,2.418143749E-1,3.998316824E-1,8.192957878E0
2.122819249E1,-1.053448766E-1,5.698199868E-1,7.745242596E0
2.124815099E1,-3.926490843E-1,5.746083856E-1,7.776367188E0
2.126810948E1,-8.882488012E-1,7.086837292E-1,8.226476669E0
2.128812902E1,-9.983820915E-1,7.302315235E-1,8.554482460E0
2.130814855E1,-6.177040339E-1,6.751648784E-1,8.652645111E0
2.132810704E1,-2.681505978E-1,5.889736414E-1,8.341399193E0
2.134812657E1,-2.059013397E-1,6.177040339E-1,8.238448143E0
2.136811559E1,8.379705995E-2,6.967126727E-1,8.669404030E0
2.138807408E1,7.182605099E-3,8.116343617E-1,8.937555313E0
2.140809361E1,-6.009446383E-1,8.475474119E-1,8.734047890E0
2.142811315E1,-5.554547906E-1,1.118092179E0,8.724471092E0
2.144810216E1,7.661445439E-2,1.165976286E0,9.153033257E0
2.146809117E1,2.729389966E-1,1.177947283E0,9.157821655E0
2.148804967E1,4.572925270E-1,1.225831270E0,9.519346237E0
2.150806920E1,3.734954596E-1,9.864110947E-1,1.042674828E1
2.152802770E1,-1.675941199E-1,9.816226959E-1,1.084333992E1
2.154801671E1,-6.153098345E-1,1.173158884E0,1.055124664E1
2.156803624E1,-8.092401624E-1,1.072602391E0,1.105642319E1
2.158799474E1,-5.506663769E-2,8.667010069E-1,1.134133339E1
2.160801427E1,2.322375625E-1,4.165911078E-1,1.128866100E1
2.162797277E1,1.436521020E-2,3.040636182E-1,1.136767006E1
2.164799230E1,-2.825157940E-1,1.388636976E-1,1.179862595E1
2.166795079E1,-8.164227605E-1,-1.125274822E-1,1.159751320E1
2.168793981E1,-1.613691926E0,-3.064578176E-1,1.113782597E1
2.170789830E1,-1.941697598E0,-4.165911078E-1,1.103248119E1
2.172791783E1,-1.297657371E0,-6.679822803E-1,1.136527538E1
2.174790685E1,-8.259995580E-1,-9.648633003E-1,1.131260300E1
2.176792638E1,-8.690952063E-1,-8.954314590E-1,1.057518864E1
2.178788487E1,-6.584054828E-1,-7.517793179E-1,1.011789608E1
2.180787389E1,-4.357447028E-1,-5.674257874E-1,9.112331390E0
2.182786290E1,-4.405331016E-1,-3.160346150E-1,7.577648163E0
2.184785192E1,-7.996633649E-1,-7.422025502E-2,6.366182327E0
2.186784093E1,-1.065419793E0,1.843535304E-1,6.538564682E0
2.188782994E1,-1.180341482E0,2.226607651E-1,7.345410824E0
2.190781896E1,-7.661445141E-1,2.825157940E-1,7.539340973E0
2.192780797E1,-6.416460276E-1,3.758896589E-1,7.153874874E0
2.194779698E1,-2.992752194E-1,4.668693244E-1,7.429207802E0
2.196775548E1,2.633621991E-1,6.248866320E-1,8.327033043E0
2.198777501E1,2.705447972E-1,8.331822157E-1,8.798690796E0
2.200776402E1,6.464344263E-2,1.108515382E0,8.851364136E0
2.202775304E1,1.173158810E-1,1.019929886E0,8.580819130E0
2.204774205E1,-2.394201607E-2,1.005564690E0,8.432378769E0
2.206773107E1,-2.777273953E-1,1.022324085E0,8.358158112E0
2.208772008E1,-5.554547906E-1,1.264138460E0,8.875306129E0
2.210770909E1,-6.320692301E-1,1.367089152E0,9.188945770E0
2.212772862E1,-5.410895944E-1,1.405396342E0,9.186552048E0
2.214768712E1,1.197100803E-2,1.340752959E0,9.682151794E0
2.216767613E1,3.519476354E-1,1.192312479E0,1.003649330E1
2.218763463E1,3.280056417E-1,1.036689281E0,1.053448772E1
2.220765416E1,1.053448766E-1,8.427590132E-1,1.157596493E1
2.222767369E1,-4.548983276E-2,6.105214357E-1,1.208592987E1
2.224766271E1,1.604115069E-1,6.440402865E-1,1.207635307E1
2.226765172E1,3.112462163E-1,8.307880163E-1,1.093910789E1
2.228764073E1,2.705447972E-1,8.906430602E-1,1.024000072E1
2.230762975E1,5.027823523E-2,1.005564690E0,1.014902115E1
2.232761876E1,-3.543418646E-1,7.924807668E-1,1.028788471E1
2.234760778E1,-5.458779931E-1,4.309563041E-1,1.084812832E1
2.236759679E1,-2.178723514E-1,2.394201756E-1,1.127429581E1
2.238758580E1,2.705447972E-1,-1.675941236E-2,1.105402946E1
2.240760533E1,8.188169599E-1,-9.576806426E-2,1.062546730E1
2.242756383E1,9.648633003E-1,9.816227108E-2,1.030943298E1
2.244758336E1,9.002198577E-1,1.556231081E-1,1.003649330E1
2.246757237E1,4.381389022E-1,2.825157940E-1,8.865729332E0
2.248753087E1,-6.368576288E-1,3.495534360E-1,8.121131897E0
2.250748937E1,-1.599326730E0,4.022258818E-1,8.212111473E0
2.252750890E1,-1.498770237E0,3.351882398E-1,8.592789650E0
2.254752843E1,-8.643068075E-1,1.268926859E-1,8.501810074E0
2.256748692E1,-4.189853072E-1,8.619125932E-2,8.090007782E0
2.258750646E1,-4.094084799E-1,1.963245422E-1,7.821856976E0
2.260749547E1,-4.525041282E-1,2.801215947E-1,8.159439087E0
2.262748448E1,-2.298433632E-1,4.141969085E-1,8.492233276E0
2.264744298E1,1.819593310E-1,5.267243981E-1,8.487444878E0
2.266746251E1,1.149216816E-1,7.589619160E-1,8.365341187E0
2.268745152E1,1.412578970E-1,9.337386489E-1,8.147468567E0
2.270741002E1,6.703764945E-2,9.935936928E-1,9.193734169E0
2.272742955E1,-1.436521020E-2,1.082179189E0,9.710882187E0
2.274744908E1,-2.178723514E-1,1.158793569E0,8.927978516E0
2.276743810E1,-4.046200812E-1,1.252167463E0,8.892065048E0
2.278742711E1,2.106897533E-1,1.048660398E0,1.056800652E1
2.280741612E1,1.031900883E0,9.433154464E-1,1.088643551E1
2.282740514E1,4.812345505E-1,1.098938584E0,9.940725327E0
2.284739415E1,0.000000000E0,1.115697980E0,9.634267807E0
2.286738316E1,2.992752194E-1,7.158663273E-1,1.197819138E1
2.288737218E1,9.361328483E-1,-3.351882473E-2,1.391270638E1
2.290736119E1,3.519476354E-1,1.053448766E-1,1.393425369E1
2.292731969E1,-8.882488012E-1,5.434837937E-1,1.277067184E1
2.294733922E1,-1.771709204E0,1.007958889E0,1.155920601E1
2.296729772E1,-2.375048161E0,8.116343617E-1,1.015859795E1
2.298731725E1,-2.154781580E0,2.849099934E-1,9.959878922E0
2.300727574E1,-8.475474119E-1,-5.267243832E-2,1.058237171E1
2.302729528E1,7.661445141E-1,-2.777273953E-1,1.050575733E1
2.304725377E1,1.570596337E0,-2.130839527E-1,9.916783333E0
2.306727330E1,1.426944256E0,4.070143029E-2,9.102754593E0
2.308723180E1,1.177947283E0,3.447650373E-1,8.085219383E0
2.310719029E1,4.381389022E-1,7.469909191E-1,7.331045628E0
2.312720982E1,-1.005564705E-1,9.361328483E-1,7.053318024E0
2.314716832E1,-6.631938815E-1,1.022324085E0,7.115567684E0
2.316715734E1,-8.475474119E-1,1.106121182E0,7.637503624E0
2.318711583E1,-1.891419291E-1,8.762778044E-1,8.336610794E0
2.320710484E1,5.410895944E-1,6.536170840E-1,8.504204750E0
2.322706334E1,9.097966552E-1,7.110779285E-1,8.228871346E0
2.324708287E1,5.051765442E-1,8.259995580E-1,8.121131897E0
2.326704137E1,1.173158810E-1,1.039083481E0,8.362946510E0
2.328706090E1,-4.357447028E-1,1.216254473E0,8.722076416E0
2.330701940E1,-3.519476354E-1,1.357512355E0,8.477868080E0
2.332703893E1,-2.106897533E-1,1.438915253E0,7.951143742E0
2.334699742E1,-5.003881454E-1,1.455674648E0,8.044517517E0
2.336701695E1,-3.902548850E-1,1.319205165E0,8.719682693E0
2.338697545E1,-1.316810995E-1,1.273715258E0,9.208099365E0
2.340699498E1,8.619125932E-2,1.441309452E0,9.457097054E0
2.342695348E1,2.489969730E-1,1.630451322E0,9.528923035E0
2.344697301E1,2.154781483E-2,1.618480325E0,9.698910713E0
2.346693150E1,-3.112462163E-2,1.474828243E0,9.349357605E0
2.348695104E1,-1.747767180E-1,1.355118155E0,9.612719536E0
2.350690953E1,-9.576806799E-3,1.051054597E0,1.071884060E1
2.352689855E1,1.173158810E-1,1.005564690E0,1.134612179E1
2.354685704E1,-4.070143029E-2,1.154005170E0,1.072362900E1
2.356684606E1,-5.746084079E-2,1.407790542E0,1.000297451E1
2.358680455E1,2.226607651E-1,1.391031146E0,9.907206535E0
2.360682408E1,2.801215947E-1,1.244984865E0,9.830592155E0
2.362678258E1,3.471592367E-1,1.209071875E0,9.777919769E0
2.364680211E1,2.178723514E-1,9.959878922E-1,9.595960617E0
2.366676061E1,-1.532289088E-1,9.121908545E-1,1.028309631E1
2.368678014E1,2.657563984E-1,6.248866320E-1,1.097980881E1
2.370673863E1,6.272808313E-1,2.011129409E-1,1.104684639E1
2.372675817E1,5.913678408E-1,5.985504389E-2,1.057997704E1
2.374671666E1,5.363011956E-1,-6.943184882E-2,1.046745014E1
2.376673619E1,4.285621047E-1,-1.197100803E-2,1.058955383E1
2.378669469E1,1.819593310E-1,2.059013397E-1,9.876082420E0
2.380668370E1,-1.292868853E-1,4.692635238E-1,8.884882927E0
2.382667272E1,-4.596867263E-1,5.482721925E-1,8.248024940E0
2.384666173E1,-1.987187415E-1,6.488286853E-1,8.216899872E0
2.386665074E1,-9.816227108E-2,5.841852427E-1,8.274360657E0
2.388663976E1,-1.197100803E-2,5.746083856E-1,8.274360657E0
2.390662877E1,1.795651317E-1,6.607996821E-1,8.544905663E0
2.392661778E1,4.501099288E-1,8.283938169E-1,8.571242332E0
2.394660680E1,4.764461517E-1,8.619126081E-1,8.482656479E0
2.396659581E1,6.129156351E-1,1.130063176E0,8.334216118E0
2.398658482E1,5.698199868E-1,1.338358760E0,8.580819130E0
2.400657384E1,8.331822157E-1,1.379060149E0,9.119514465E0
2.402656285E1,8.164227605E-1,1.410184860E0,9.337387085E0
2.404655187E1,4.453215301E-1,1.472434044E0,9.548076630E0
2.406654088E1,2.777273953E-1,1.580173135E0,1.015141487E1
2.408652989E1,5.674257874E-1,1.611297727E0,1.008677197E1
2.410651891E1,5.650315881E-1,1.690306425E0,9.696516991E0
2.412647740E1,3.687070608E-1,1.702277422E0,9.631873131E0
2.414649694E1,1.675941236E-2,1.647210717E0,1.009156036E1
2.416648595E1,1.675941236E-2,1.462857246E0,1.071405220E1
2.418647496E1,6.943184882E-2,1.194706678E0,1.087925243E1
2.420643346E1,5.147533417E-1,1.331176162E0,1.084812832E1
2.422645299E1,3.208230138E-1,1.271321058E0,9.935936928E0
2.424641149E1,-6.488286853E-1,1.386242747E0,9.586383820E0
2.426643102E1,-1.656787634E0,1.158793569E0,9.943120003E0
2.428638951E1,-1.841141105E0,7.350199223E-1,1.047463226E1
2.430640904E1,-1.235408068E0,8.619125932E-2,1.087446404E1
2.432636754E1,-4.860229492E-1,-3.112462163E-1,1.100375080E1
2.434638707E1,-2.657563984E-1,-5.099649429E-1,1.111867237E1
2.436634557E1,3.016694188E-1,-3.854664862E-1,1.146104336E1
2.438636510E1,2.346317619E-1,-3.303998411E-1,1.051293945E1
2.440632360E1,-1.077390760E-1,3.591302410E-2,8.590395927E0
2.442628209E1,-9.600749016E-1,3.136404157E-1,7.740454197E0
2.444630162E1,-1.163581967E0,5.410895944E-1,8.118738174E0
2.446626012E1,-8.451532125E-1,4.572925270E-1,8.429984093E0
2.448627965E1,-3.782838583E-1,3.495534360E-1,8.604761124E0
2.450623815E1,-8.858546615E-2,1.412578970E-1,8.774748802E0
2.452622716E1,2.154781520E-1,2.154781520E-1,9.141061783E0
2.454621617E1,2.920926213E-1,3.639186621E-1,9.069235802E0
2.456623570E1,1.987187415E-1,4.908113480E-1,8.693346024E0
2.458619420E1,-1.005564705E-1,6.272808313E-1,8.283937454E0
2.460618321E1,-4.908113480E-1,8.451532125E-1,8.432378769E0
2.462617223E1,-6.296750307E-1,8.714894056E-1,8.511386871E0
2.464616124E1,-9.265560508E-1,8.643068075E-1,8.494627953E0
2.466615026E1,-9.313444495E-1,8.882488012E-1,8.865729332E0
2.468613927E1,-9.648633003E-1,8.667010069E-1,9.095572472E0
2.470612828E1,-7.326257229E-1,9.337386489E-1,8.678980827E0
2.472611730E1,-3.950432837E-1,1.058237195E0,8.772355080E0
2.474607579E1,-1.436521020E-2,1.098938584E0,9.344569206E0
2.476609532E1,3.519476354E-1,1.295263171E0,9.725247383E0
2.478605382E1,2.298433632E-1,1.467645645E0,9.548076630E0
2.480607335E1,-7.422025502E-2,1.496376038E0,9.552865028E0
2.482603185E1,-4.525041282E-1,1.285686255E0,9.677363396E0
2.484605138E1,-1.139639974E0,1.079784989E0,1.000776291E1
2.486600987E1,-9.289502501E-1,1.082179189E0,1.096304989E1
2.488599889E1,-2.370259613E-1,9.816226959E-1,1.180580902E1
2.490598790E1,-4.189853072E-1,9.576807022E-1,1.103248119E1
2.492594640E1,-7.900865674E-1,1.144428372E0,9.698910713E0
2.494596593E1,-1.295263171E0,9.792284966E-1,9.208099365E0
2.496592442E1,-1.266532660E0,8.978256583E-1,1.028309631E1
2.498594396E1,-6.512228847E-1,6.991068721E-1,1.121922874E1
2.500590245E1,2.442085743E-1,5.147533417E-1,1.074278259E1
2.502592198E1,2.274491638E-1,4.668693244E-1,9.706093788E0
2.504588048E1,6.943184882E-2,4.716577232E-1,9.703699112E0
2.506590001E1,0.000000000E0,2.825157940E-1,1.033816338E1
2.508585851E1,1.197100803E-2,2.489969730E-1,1.045787334E1
2.510587804E1,2.298433632E-1,1.197100878E-1,1.010831928E1
2.512583653E1,-2.250549644E-1,1.268926859E-1,9.303867340E0
2.514585607E1,-9.648633003E-1,2.657563984E-1,9.083600998E0
2.516581456E1,-1.671152830E0,2.609679997E-1,9.270348549E0
2.518580358E1,-9.816226959E-1,1.604115069E-1,9.378087997E0
2.520579259E1,-3.543418646E-1,2.489969730E-1,8.906430244E0
2.522578160E1,7.182604820E-2,4.213795066E-1,8.204929352E0
2.524574010E1,-1.675941199E-1,6.200982332E-1,7.864952564E0
2.526575963E1,-3.327940404E-1,9.744400978E-1,7.711723804E0
2.528574864E1,-1.819593310E-1,9.504981041E-1,8.180987358E0
2.530573766E1,2.226607651E-1,1.010353088E0,8.650250435E0
2.532572667E1,6.536170840E-1,1.149216771E0,8.303091049E0
2.534571569E1,5.219359994E-1,1.304839969E0,8.090007782E0
2.536570470E1,-1.364694983E-1,1.350329757E0,8.250418663E0
2.538569371E1,-1.819593310E-1,1.580173135E0,9.229647636E0
2.540568273E1,2.178723514E-1,1.467645645E0,9.943120003E0
2.542567174E1,4.908113480E-1,1.443703651E0,9.466673851E0
2.544566075E1,3.399766386E-1,1.565807939E0,8.595184326E0
2.546561925E1,5.051765442E-1,1.608903527E0,8.872911453E0
2.548560826E1,4.237737060E-1,1.434126854E0,9.895236015E0
2.550556676E1,-2.082955539E-1,1.113303781E0,1.065180302E1
2.552558629E1,-4.213795066E-1,6.153098345E-1,1.154962921E1
2.554557530E1,-6.703764945E-2,5.770025849E-1,1.174834728E1
2.556553380E1,-5.267243832E-2,5.051765442E-1,1.014183807E1
2.558552281E1,-5.506663918E-1,5.650315881E-1,9.739612579E0
2.560551183E1,-1.766920805E0,7.661445439E-2,1.062546730E1
2.562547032E1,-2.432508945E0,-2.968810201E-1,1.165736771E1
2.564545934E1,-1.752555609E0,-5.363011956E-1,1.211466026E1
2.566541783E1,-6.727706790E-1,-6.943184733E-1,1.159751320E1
2.568543736E1,1.795651317E-1,-6.560112834E-1,1.021366405E1
2.570542638E1,5.171475410E-1,-4.572925270E-1,9.662998199E0
2.572541539E1,-2.394201607E-2,-2.226607651E-1,9.466673851E0
2.574540441E1,-7.015010715E-1,-4.788403213E-2,8.836998940E0
2.576539342E1,-1.060631394E0,8.619125932E-2,8.090007782E0
2.578535192E1,-6.631938815E-1,1.197100878E-1,8.228871346E0
2.580537145E1,7.182605099E-3,1.316810995E-1,8.341399193E0
2.582539098E1,3.878606856E-1,1.508347094E-1,8.202534676E0
2.584537999E1,3.615244627E-1,2.274491638E-1,8.073247910E0
2.586536900E1,1.268926859E-1,5.315127969E-1,8.121131897E0
2.588535802E1,-1.675941236E-2,7.254431248E-1,8.348581314E0
2.590534703E1,2.322375625E-1,7.852981687E-1,8.212111473E0
2.592536656E1,4.932055473E-1,7.709329724E-1,8.552088737E0
2.594538610E1,3.423708379E-1,7.900865674E-1,8.717288017E0
2.596534459E1,-1.915361285E-1,8.667010069E-1,8.669404030E0
2.598536412E1,-8.212111592E-1,9.217676520E-1,9.481039047E0
2.600532262E1,-5.985504389E-1,6.943184733E-1,1.103726959E1
2.602534215E1,4.070143029E-2,4.333505034E-1,1.143470764E1
2.604530065E1,2.298433632E-1,4.740519226E-1,1.062786102E1
2.606532018E1,3.399766386E-1,8.307880163E-1,9.773131371E0
2.608527867E1,5.339069963E-1,8.786720037E-1,1.019451046E1
2.610529820E1,2.537853718E-1,8.212111592E-1,1.099417400E1
2.612528722E1,-5.746084079E-2,5.817909837E-1,1.056561184E1
2.614527623E1,-4.884171486E-1,2.801215947E-1,1.077390766E1
2.616526524E1,-6.775590777E-1,1.915361285E-1,1.116655636E1
2.618525426E1,-1.484405100E-1,4.716577232E-1,1.077630138E1
2.620521276E1,-3.567360640E-1,3.854664862E-1,9.940725327E0
2.622523229E1,-3.184288144E-1,4.932055473E-1,9.864110947E0
2.624519078E1,-6.943184733E-1,3.998316824E-1,1.067813969E1
2.626521031E1,-5.051765442E-1,3.998316824E-1,1.120246983E1
2.628516881E1,2.633621916E-2,3.806780577E-1,1.070926380E1
2.630518834E1,4.309563041E-1,2.681505978E-1,9.356540680E0
2.632514684E1,7.182605267E-1,2.753331959E-1,8.894459724E0
2.634516637E1,8.236053586E-1,2.609679997E-1,9.548076630E0
2.636512486E1,3.351882398E-1,2.944868207E-1,1.025197124E1
2.638514440E1,2.873042040E-2,4.908113480E-1,1.019451046E1
2.640510289E1,1.987187415E-1,6.081272364E-1,9.380482674E0
2.642512242E1,3.471592367E-1,7.254431248E-1,8.288725853E0
2.644508092E1,5.674257874E-1,8.571242094E-1,7.445967197E0
2.646510045E1,2.729389966E-1,9.409212470E-1,7.366958618E0
2.648508946E1,2.801215947E-1,9.576807022E-1,8.082824707E0
2.650507848E1,2.154781520E-1,8.882488012E-1,9.145850182E0
2.652506749E1,7.182605099E-3,9.457096457E-1,8.458714485E0
2.654502599E1,-3.351882473E-2,1.252167463E0,7.309497833E0
2.656504552E1,-9.576806426E-2,1.465251446E0,7.354987621E0
2.658500402E1,7.900865376E-2,1.477222443E0,8.157045364E0
2.660502355E1,1.699883193E-1,1.426944256E0,8.846575737E0
2.662504308E1,3.064578176E-1,1.561019540E0,9.174580574E0
2.664503209E1,3.806780577E-1,1.740584612E0,8.913613319E0
2.666499059E1,2.705447972E-1,1.814804912E0,8.461109161E0
2.668497960E1,-6.224924326E-2,1.884236693E0,8.422801971E0
2.670499913E1,-4.572925270E-1,1.910573006E0,9.097966194E0
2.672498815E1,-5.602431893E-1,1.889025092E0,1.016338634E1
2.674497716E1,-3.184288144E-1,1.716642618E0,1.043393135E1
2.676496617E1,-5.123591423E-1,1.776497602E0,9.686940193E0
2.678495519E1,-7.948749661E-1,1.948880196E0,9.246406555E0
2.680497472E1,-8.667010069E-1,1.814804912E0,9.897629738E0
2.682493321E1,-1.130063176E0,1.333570361E0,1.064940929E1
2.684495274E1,-1.450886250E0,1.211466074E0,1.209790134E1
2.686491124E1,-1.319205165E0,9.289502501E-1,1.241872406E1
2.688493077E1,-9.145850539E-1,9.888052940E-1,1.085531044E1
2.690488927E1,-4.333505034E-1,1.204283476E0,9.572018623E0
2.692490880E1,-6.296750307E-1,1.527500629E0,9.318233490E0
2.694489781E1,-1.197100878E0,1.134851575E0,1.027830791E1
2.696485631E1,-1.661576033E0,8.475474119E-1,1.169088650E1
2.698487584E1,-1.984793186E0,6.584054828E-1,1.212423706E1
2.700483434E1,-1.410184860E0,5.913678408E-1,1.171722317E1
2.702485387E1,-5.147533417E-1,6.368576288E-1,1.059913063E1
2.704484288E1,2.370259613E-1,6.775590777E-1,9.105149269E0
2.706483190E1,1.340752989E-1,6.488286853E-1,8.051700592E0
2.708482091E1,-7.829039693E-1,9.576807022E-1,8.104372978E0
2.710480992E1,-9.074024558E-1,1.137245774E0,8.461109161E0
2.712482945E1,-9.169792533E-1,9.433154464E-1,8.588001251E0
2.714484899E1,-7.278373241E-1,9.600749016E-1,8.525752068E0
2.716483800E1,-2.059013397E-1,9.744400978E-1,8.360552788E0
2.718482701E1,6.871358752E-1,9.169792533E-1,8.252813339E0
2.720478551E1,3.327940404E-1,1.031900883E0,8.224082947E0
2.722480504E1,-3.232172430E-1,1.515529633E0,8.343792915E0
2.724476354E1,-4.501099288E-1,1.659181833E0,8.774748802E0
2.726478307E1,-1.101332754E-1,1.671152830E0,9.090784073E0
2.728477208E1,1.819593310E-1,1.774103403E0,8.101978302E0
2.730473058E1,4.548983276E-2,2.003946781E0,7.551311970E0
2.732471959E1,-1.003170490E0,2.070984364E0,8.453926086E0
2.734473912E1,-1.561019540E0,2.176329374E0,9.557653427E0
2.736472814E1,-8.810662031E-1,1.862688899E0,1.002212811E1
2.738471715E1,-1.771709323E-1,1.793257117E0,9.835380554E0
2.740473668E1,-6.943184882E-2,1.826775908E0,9.172186852E0
2.742472570E1,-1.273715258E0,1.884236693E0,9.217676163E0
2.744468419E1,-2.564189911E0,1.503558636E0,9.660603523E0
2.746467320E1,-2.233790159E0,1.496376038E0,1.039322948E1
2.748466222E1,-6.775590777E-1,1.292868972E0,1.085291672E1
2.750468175E1,7.661445141E-1,1.264138460E0,1.042435455E1
2.752464024E1,4.692635238E-1,1.582567334E0,9.500192642E0
2.754465978E1,-1.340752989E-1,1.879448295E0,8.508993149E0
2.756464879E1,-4.525041282E-1,1.819593310E0,8.485051155E0
2.758463780E1,2.537853718E-1,1.608903527E0,9.773131371E0
2.760465734E1,1.331176162E0,1.388636947E0,1.081939793E1
2.762467687E1,1.826775908E0,1.259350061E0,1.032379818E1
2.764466588E1,1.209071875E0,1.510741234E0,9.718064308E0
2.766462438E1,9.265560508E-1,1.472434044E0,1.002691650E1
2.768461339E1,1.084573388E0,1.300051570E0,1.040998936E1
2.770463292E1,1.417367458E0,1.264138460E0,9.890447617E0
2.772459142E1,1.266532660E0,1.323993564E0,9.109937668E0
2.774461095E1,6.200982332E-1,1.276109457E0,8.772355080E0
2.776459996E1,-2.394201607E-2,1.151610970E0,8.820239067E0
2.778458898E1,5.913678408E-1,8.595184088E-1,9.368511200E0
2.780457799E1,1.113303781E0,4.932055473E-1,9.655815125E0
2.782456700E1,1.065419793E0,6.464344859E-1,9.449913979E0
2.784455602E1,6.129156351E-1,7.852981687E-1,8.949525833E0
2.786451451E1,2.322375625E-1,1.120486379E0,8.736441612E0
2.788453404E1,3.878606856E-1,1.185129881E0,8.530540466E0
2.790455358E1,9.552865028E-1,1.264138460E0,8.547300339E0
2.792451207E1,1.285686255E0,1.326387763E0,8.518569946E0
2.794453160E1,1.060631394E0,1.532289028E0,8.377311707E0
2.796452062E1,2.777273953E-1,1.826775908E0,8.638279915E0
2.798450963E1,-1.197100803E-2,2.032677174E0,9.332598686E0
2.800452916E1,3.854664862E-1,1.915361404E0,9.227252960E0
2.802454869E1,5.913678408E-1,1.814804912E0,8.834604263E0
2.804453771E1,4.213795066E-1,1.759738207E0,9.780313492E0
2.806452672E1,2.825157940E-1,1.589749932E0,1.066137981E1
2.808454625E1,1.915361360E-2,1.355118155E0,1.067335129E1
2.810456578E1,2.968810201E-1,1.539471745E0,1.110909557E1
2.812455480E1,7.757213712E-1,1.446097851E0,1.081939793E1
2.814454381E1,7.517793179E-1,1.460463047E0,9.797073364E0
2.816456334E1,2.082955539E-1,1.436521053E0,1.037168217E1
2.818455236E1,-6.823474765E-1,9.074024558E-1,1.086009884E1
2.820454137E1,-1.769315004E0,5.746083856E-1,1.133893967E1
2.822449986E1,-1.467645645E0,3.232172430E-1,1.142273617E1
2.824448888E1,-5.770025849E-1,1.101332754E-1,1.147301483E1
2.826444737E1,3.615244627E-1,-5.027823523E-2,1.108275986E1
2.828446691E1,4.477157295E-1,7.661445439E-2,9.962273598E0
2.830445592E1,-3.232172430E-1,3.663128614E-1,8.561665535E0
2.832441442E1,-1.383848548E0,6.200982332E-1,7.900865555E0
2.834443395E1,-1.774103403E0,6.919242740E-1,7.718906403E0
2.836439244E1,-1.240196466E0,5.650315881E-1,8.693346024E0
2.838441197E1,-2.418143749E-1,4.381389022E-1,9.251194954E0
2.840440099E1,-3.064578176E-1,3.878606856E-1,8.652645111E0
2.842435948E1,-1.079784989E0,7.661445141E-1,7.584830761E0
2.844437902E1,-1.663970232E0,9.576807022E-1,7.058106422E0
2.846439855E1,-1.953668594E0,1.271321058E0,7.927201748E0
2.848435704E1,-2.245761156E0,1.218648672E0,8.767566681E0
2.850437657E1,-1.508347034E0,9.744400978E-1,9.100360870E0
2.852436559E1,-4.955997467E-1,9.840168953E-1,9.045293808E0
2.854435460E1,-4.070143029E-2,1.039083481E0,8.599972725E0
2.856437413E1,-7.948749661E-1,1.182735682E0,8.410830498E0
2.858439366E1,-1.580173135E0,1.386242747E0,8.813055992E0
2.860438268E1,-1.898601890E0,1.395819545E0,9.373299599E0
2.862437169E1,-1.029506683E0,1.355118155E0,9.665391922E0
2.864439122E1,5.506663769E-2,1.173158884E0,9.641449928E0
2.866441075E1,4.309562966E-2,1.180341482E0,9.739612579E0
2.868439977E1,-2.968810201E-1,1.256955862E0,9.792284966E0
2.870435826E1,-4.644751251E-1,1.182735682E0,1.015859795E1
2.872437779E1,-6.584054828E-1,1.063025594E0,1.051533413E1
2.874436681E1,-4.022258818E-1,9.457096457E-1,1.020648193E1
2.876438634E1,1.173158810E-1,8.523358107E-1,9.876082420E0
2.878440587E1,1.005564690E0,7.422025204E-1,9.504981041E0
2.880439488E1,8.307880163E-1,6.775590777E-1,9.504981041E0
2.882438390E1,6.943184733E-1,4.979939461E-1,9.782708168E0
2.884434239E1,2.178723514E-1,2.106897533E-1,1.057279491E1
2.886436192E1,3.567360640E-1,-2.633621916E-2,1.121444035E1
2.888435094E1,7.565677166E-1,-2.035071403E-1,1.149216843E1
2.890433995E1,1.302445769E0,-2.418143749E-1,1.127429581E1
2.892432897E1,1.113303781E0,-6.943184882E-2,1.066616821E1
2.894431798E1,8.714894056E-1,3.064578176E-1,1.000297451E1
2.896433751E1,6.392518282E-1,6.320692301E-1,9.662998199E0
2.898432652E1,6.416460276E-1,5.530605912E-1,9.459490776E0
2.900431554E1,3.543418646E-1,3.567360640E-1,9.500192642E0
2.902430455E1,1.723825186E-1,9.337386489E-2,9.524134636E0
2.904432408E1,3.399766386E-1,-9.097966552E-2,9.646238327E0
2.906434361E1,4.812345505E-1,-2.394201607E-2,9.493009567E0
2.908433263E1,4.908113480E-1,1.963245422E-1,8.087613106E0
2.910432164E1,1.388636976E-1,3.806780577E-1,7.134721279E0
2.912431066E1,9.576806426E-2,6.560112834E-1,7.417236805E0
2.914429967E1,-5.027823523E-2,6.799532771E-1,8.362946510E0
2.916428868E1,3.543418646E-1,9.026140571E-1,8.707711220E0
2.918430821E1,6.895300746E-1,8.810662031E-1,8.779537201E0
2.920429723E1,7.278373241E-1,9.433154464E-1,8.461109161E0
2.922425572E1,6.392518282E-1,1.182735682E0,8.236053467E0
2.924427526E1,3.160346150E-1,1.161187768E0,8.573636055E0
2.926423375E1,2.394201756E-1,1.280897856E0,9.196128845E0
2.928425328E1,4.955997467E-1,1.426944256E0,9.581595421E0
2.930427281E1,6.129156351E-1,1.419761658E0,9.600749016E0
2.932426183E1,9.002198577E-1,1.383848548E0,9.670180321E0
2.934425084E1,4.141969085E-1,1.307234168E0,9.722852707E0
2.936423986E1,-4.022258818E-1,1.309628367E0,9.751583099E0
2.938422887E1,-2.801215947E-1,1.079784989E0,1.071405220E1
2.940424840E1,1.867477298E-1,3.854664862E-1,1.190397072E1
2.942426793E1,1.012747288E0,5.195417404E-1,1.161906052E1
2.944422643E1,7.637503147E-1,5.434837937E-1,9.938331604E0
2.946424596E1,-1.154005170E0,7.015010715E-1,8.729259491E0
2.948420445E1,-3.256114244E0,4.525041282E-1,1.049378586E1
2.950422399E1,-2.932897091E0,-7.996633649E-1,1.319923401E1
2.952418248E1,-9.121908545E-1,-1.656787634E0,1.406114674E1
2.954417150E1,6.248866320E-1,-1.841141105E0,1.324232960E1
2.956419103E1,2.561795712E-1,-1.462857246E0,1.069250488E1
2.958414952E1,-1.070208192E0,-5.171475410E-1,8.796297073E0
2.960413854E1,-1.991975784E0,1.268926859E-1,7.764396191E0
2.962415807E1,-1.328781962E0,2.274491638E-1,7.498639584E0
2.964414708E1,-3.088520169E-1,1.436520964E-1,7.153874874E0
2.966416661E1,-3.543418646E-1,2.489969730E-1,6.548141479E0
2.968412511E1,-6.177040339E-1,1.005564705E-1,6.430825710E0
2.970414464E1,-9.409212470E-1,-2.394201607E-2,7.582436562E0
2.972413365E1,-1.312022567E0,2.059013397E-1,8.832210541E0
2.974409215E1,-6.775590777E-1,3.423708379E-1,8.966285706E0
2.976411168E1,-5.099649429E-1,4.525041282E-1,8.327033043E0
2.978413121E1,-7.805097699E-1,9.696516991E-1,8.130708694E0
2.980412023E1,-1.127668977E0,1.115697980E0,8.257601738E0
2.982407872E1,-1.388636947E0,1.197100878E0,8.805873871E0
2.984409825E1,-8.140285611E-1,9.528923035E-1,9.325415611E0
2.986405675E1,-1.197100878E-1,5.482721925E-1,9.811438560E0
2.988404576E1,2.633621991E-1,4.740519226E-1,1.042435455E1
2.990400426E1,2.418143749E-1,5.051765442E-1,1.080024433E1
2.992399327E1,6.703764945E-2,4.477157295E-1,1.097980881E1
2.994395177E1,2.633621916E-2,5.099649429E-1,1.094150162E1
2.996397130E1,-1.939303428E-1,5.482721925E-1,1.086249352E1
2.998392980E1,1.316810995E-1,4.692635238E-1,1.131978607E1
3.000394933E1,6.536170840E-1,2.657563984E-1,1.129344940E1
3.002396886E1,4.501099288E-1,1.651999205E-1,1.030943298E1
3.004392736E1,-2.154781520E-1,2.442085743E-1,1.002691650E1
3.006394689E1,-5.458779931E-1,4.118026793E-1,1.078108978E1
3.008393590E1,-1.604115069E-1,5.770025849E-1,1.112106705E1
3.010392491E1,6.751648784E-1,8.283938169E-1,1.016099167E1
3.012394445E1,8.164227605E-1,1.000776291E0,8.755595207E0
3.014390294E1,3.208230138E-1,1.118092179E0,8.465897560E0
3.016392247E1,-3.567360640E-1,7.733271718E-1,9.339780807E0
3.018391149E1,-3.950432837E-1,1.484405100E-1,1.068532181E1
3.020386998E1,2.968810201E-1,-3.663128614E-1,1.162384892E1
3.022388951E1,1.295263171E0,-6.727706790E-1,1.198537350E1
3.024384801E1,1.817199111E0,-7.613561153E-1,1.197579670E1
3.026386754E1,1.917755604E0,-7.086837292E-1,1.113543224E1
3.028382604E1,1.288080573E0,-2.106897533E-1,9.957485199E0
3.030381505E1,6.655880809E-1,2.681505978E-1,8.899248123E0
3.032383458E1,2.082955539E-1,4.932055473E-1,8.276755333E0
3.034382360E1,-5.267243832E-2,6.847416759E-1,7.855375767E0
3.036381261E1,-5.746084079E-2,6.727706790E-1,7.752425194E0
3.038383214E1,2.896983922E-1,5.770025849E-1,7.817068577E0
3.040379064E1,5.578489900E-1,5.602431893E-1,7.982268333E0
3.042381017E1,3.974374831E-1,6.703764796E-1,7.635109425E0
3.044379918E1,1.723825186E-1,9.720458984E-1,7.419631004E0
3.046378820E1,1.723825186E-1,1.103726983E0,8.125920296E0
3.048374669E1,4.070142806E-1,1.352723956E0,8.805873871E0
3.050376622E1,4.189853072E-1,1.450886250E0,8.264783859E0
3.052375524E1,3.256114423E-1,1.853112102E0,7.874529362E0
3.054371373E1,7.182605099E-3,2.133233786E0,8.734047890E0
3.056370274E1,-2.466027737E-1,2.173935175E0,9.251194954E0
3.058372228E1,-5.243301988E-1,2.379836559E0,9.097966194E0
3.060371129E1,-5.602431893E-1,2.475604534E0,8.741230011E0
3.062366979E1,-1.771709323E-1,2.343923569E0,9.191340446E0
3.064368932E1,1.244984865E-1,2.245761156E0,9.969455719E0
3.066370885E1,-4.213795066E-1,2.272097349E0,9.591172218E0
3.068369786E1,-9.409212470E-1,2.391807556E0,8.951920509E0
3.070368688E1,-1.422155857E0,2.420537949E0,9.478644371E0
3.072367589E1,-1.331176162E0,2.147598982E0,1.060152531E1
3.074366490E1,-1.221042871E0,1.865083098E0,1.097262669E1
3.076365392E1,-1.103726983E0,1.841141105E0,1.117134476E1
3.078364293E1,-7.445967197E-1,1.697489023E0,1.115937424E1
3.080366246E1,-1.070208192E0,1.635239720E0,1.096065521E1
3.082362096E1,-9.145850539E-1,1.513135433E0,9.859322548E0
3.084364049E1,-1.503558636E0,1.436521053E0,9.490615845E0
3.086359899E1,-2.248155355E0,8.571242094E-1,1.009156036E1
3.088358800E1,-2.272097349E0,3.782838583E-1,1.115697956E1
3.090360753E1,-2.042253971E0,2.106897533E-1,1.144667816E1
3.092356603E1,-1.180341482E0,7.182605099E-3,1.120486355E1
3.094355504E1,-6.631938815E-1,1.436521020E-2,1.053209305E1
3.096354405E1,-6.799532771E-1,3.926490843E-1,9.864110947E0
3.098353307E1,-7.541735172E-1,6.775590777E-1,9.504981041E0
3.100352208E1,-7.996633649E-1,8.331822157E-1,9.382876396E0
3.102348058E1,-1.199495077E0,1.142034173E0,8.564059258E0
3.104346959E1,-1.180341482E0,1.180341482E0,7.984662533E0
3.106348912E1,-7.350199223E-1,1.149216771E0,8.044517517E0
3.108344762E1,-4.141969085E-1,1.405396342E0,7.903259754E0
3.110346715E1,-7.637503147E-1,1.455674648E0,7.809885979E0
3.112345616E1,-6.416460276E-1,1.644816518E0,8.169015884E0
3.114344518E1,-2.394201607E-2,1.651999116E0,8.339004517E0
3.116343419E1,1.843535304E-1,1.668758631E0,8.135497093E0
3.118342320E1,-4.812345505E-1,2.001552582E0,7.697358608E0
3.120338170E1,-3.519476354E-1,2.327163935E0,8.082824707E0
3.122340123E1,-4.094084799E-1,2.252943754E0,8.200140953E0
3.124339024E1,-4.525041282E-1,2.434903145E0,8.185775757E0
3.126337926E1,-1.185129881E0,2.406172752E0,8.487444878E0
3.128336827E1,-1.034295082E0,2.430114746E0,9.334992409E0
3.130335729E1,-4.788403511E-1,2.353500366E0,9.849745750E0
3.132337682E1,-1.532289088E-1,2.272097349E0,9.708487511E0
3.134339635E1,-7.182605099E-3,2.504334927E0,9.768342972E0
3.136338536E1,-2.154781520E-1,2.746149302E0,9.667786598E0
3.138337438E1,-5.075707436E-1,2.834734917E0,1.021127033E1
3.140336339E1,-4.525041282E-1,2.815581083E0,1.051533413E1
3.142335240E1,-4.884171486E-1,2.667140722E0,9.864110947E0
3.144334142E1,2.370259613E-1,2.619256735E0,9.909601212E0
3.146329991E1,8.930372596E-1,2.588132143E0,1.043393135E1
3.148328893E1,1.161187768E0,2.671929121E0,1.087685871E1
3.150324742E1,7.829039693E-1,2.810792685E0,1.067813969E1
3.152326695E1,8.762778044E-1,2.750937700E0,1.024239445E1
3.154325597E1,9.121908545E-1,2.264914751E0,9.682151794E0
3.156321446E1,4.429273009E-1,1.948880196E0,9.756371498E0
3.158323400E1,2.753331959E-1,1.515529633E0,1.038365269E1
3.160322301E1,6.320692301E-1,1.125274777E0,1.095586681E1
3.162321202E1,1.022324085E0,1.103726983E0,1.096544361E1
3.164320104E1,1.137245774E0,1.120486379E0,1.015620327E1
3.166319005E1,9.217676520E-1,1.496376038E0,9.263166428E0
3.168317906E1,7.445967197E-1,1.666364431E0,8.990227699E0
3.170316808E1,3.543418646E-1,1.699883223E0,8.657433510E0
3.172318761E1,-1.460463107E-1,1.776497602E0,8.157045364E0
3.174317662E1,-1.580173075E-1,1.742978811E0,7.364564419E0
3.176313512E1,-1.197100803E-2,1.630451322E0,6.871358871E0
3.178315465E1,1.292868853E-1,1.575384736E0,6.957550049E0
3.180314366E1,-5.746084079E-2,1.546654344E0,7.467514992E0
3.182313268E1,-2.753331959E-1,1.697489023E0,8.291120529E0
3.184312169E1,-5.195417404E-1,1.970427990E0,8.769960403E0
3.186308019E1,-2.537853718E-1,2.233790159E0,7.912836552E0
3.188309972E1,5.099649429E-1,2.319981337E0,6.845022678E0
3.190311925E1,5.123591423E-1,2.432508945E0,7.139509678E0
3.192310826E1,6.967126727E-1,2.521094322E0,7.996633530E0
3.194309728E1,3.519476354E-1,2.700659513E0,8.401253700E0
3.196308629E1,-3.112462163E-1,3.169923067E0,8.418013573E0
3.198307530E1,-5.626373887E-1,3.177105665E0,8.339004517E0
3.200309484E1,-2.346317619E-1,3.055001259E0,8.446743965E0
3.202311437E1,2.825157940E-1,2.901772499E0,8.805873871E0
3.204310338E1,4.261679053E-1,2.760514498E0,9.969455719E0
3.206309239E1,8.044517636E-1,2.592920542E0,1.056561184E1
3.208308141E1,-2.753331959E-1,2.485181332E0,1.090080070E1
3.210307042E1,-1.323993564E0,2.422932148E0,1.149935055E1
3.212305944E1,-5.746084079E-2,1.991975784E0,1.186326981E1
3.214304845E1,1.130063176E0,1.687912226E0,1.120486355E1
3.216306798E1,4.932055473E-1,1.862688899E0,1.020169353E1
3.218308751E1,-1.264138460E0,1.946485996E0,1.054885292E1
3.220304601E1,-2.987963676E0,1.331176162E0,1.186326981E1
3.222306554E1,-2.705447912E0,6.248866320E-1,1.342668343E1
3.224305455E1,-1.455674648E0,5.746084079E-2,1.406832886E1
3.226304357E1,-3.950432837E-1,-5.027823523E-2,1.307473564E1
3.228303258E1,-3.447650373E-1,3.998316824E-1,1.051772785E1
3.230302159E1,-9.648633003E-1,1.063025594E0,8.255207062E0
3.232301061E1,-1.745373011E0,1.508347034E0,7.457938194E0
3.234299962E1,-1.343147159E0,1.491587639E0,7.340622425E0
3.236301915E1,-6.943184733E-1,1.290474772E0,7.165845871E0
3.238303868E1,-2.226607651E-1,1.280897856E0,6.871358871E0
3.240302770E1,-7.685387731E-1,1.240196466E0,7.474697590E0
3.242301671E1,-5.937620401E-1,1.089361787E0,8.846575737E0
3.244303624E1,1.675941236E-2,1.036689281E0,9.136273384E0
3.246305577E1,3.136404157E-1,1.163581967E0,8.271966934E0
3.248304479E1,3.208230138E-1,1.501164436E0,7.733271599E0
3.250300328E1,-2.394201700E-3,1.565807939E0,8.075642586E0
3.252299230E1,-3.830722570E-1,1.735796213E0,8.734047890E0
3.254301183E1,-6.536170840E-1,1.975216389E0,8.595184326E0
3.256300084E1,-7.805097699E-1,2.039859772E0,8.207323074E0
3.258295934E1,-7.781155705E-1,2.011129379E0,8.152256966E0
3.260297887E1,-4.285621047E-1,1.963245392E0,8.698134422E0
3.262296788E1,-2.896983922E-1,1.886630893E0,9.459490776E0
3.264295690E1,-3.806780577E-1,1.836352706E0,1.034534550E1
3.266294591E1,-4.046200812E-1,1.987187386E0,1.069011021E1
3.268296544E1,-1.771709323E-1,1.874659896E0,1.023042393E1
3.270298497E1,-1.699883193E-1,1.853112102E0,1.035731697E1
3.272297399E1,-1.436521020E-2,1.589749932E0,1.074517727E1
3.274299352E1,-5.746084079E-2,1.453280449E0,1.042195988E1
3.276301305E1,-1.005564705E-1,1.754949808E0,1.032619190E1
3.278303258E1,-2.154781483E-2,1.975216389E0,1.031182671E1
3.280302159E1,6.703764945E-2,2.147598982E0,1.022802925E1
3.282301061E1,2.082955539E-1,2.238578558E0,1.001494598E1
3.284303014E1,6.440402865E-1,2.154781580E0,9.634267807E0
3.286304967E1,4.596867263E-1,1.898601890E0,9.514557838E0
3.288303868E1,3.112462163E-2,1.759738207E0,9.641449928E0
3.290302770E1,6.272808313E-1,1.493981838E0,1.067813969E1
3.292301671E1,1.089361787E0,1.113303781E0,1.122641182E1
3.294300572E1,1.632845521E0,1.031900883E0,1.074757099E1
3.296299474E1,1.541865945E0,1.247379065E0,9.634267807E0
3.298295323E1,1.015141487E0,1.441309452E0,8.851364136E0
3.300297276E1,-1.197100803E-2,1.484405041E0,8.236053467E0
3.302299230E1,-5.626373887E-1,1.414973259E0,7.896077156E0
3.304298131E1,1.604115069E-1,1.012747288E0,7.455543995E0
3.306297032E1,4.165911078E-1,6.536170840E-1,7.098807812E0
3.308298986E1,3.806780577E-1,6.224924326E-1,6.347028732E0
3.310297887E1,6.727706790E-1,4.860229492E-1,7.465120792E0
3.312293736E1,1.491587639E0,1.747767180E-1,9.349357605E0
3.314295690E1,1.618480325E0,1.556231081E-1,1.006522369E1
3.316294591E1,1.771709204E0,4.932055473E-1,9.720458984E0
3.318293492E1,1.862688899E0,8.643068075E-1,8.746018410E0
3.320292394E1,1.872265697E0,1.388636947E0,8.245630264E0
3.322291295E1,1.101332784E0,1.738190413E0,7.843404770E0
3.324293248E1,5.458779931E-1,2.214636564E0,8.180987358E0
3.326295201E1,4.596867263E-1,2.288856745E0,8.908824921E0
3.328297154E1,3.926490843E-1,2.308010340E0,9.478644371E0
3.330296056E1,5.602431893E-1,2.288856745E0,9.859322548E0
3.332298009E1,8.595184088E-1,2.181117773E0,1.005085850E1
3.334299962E1,1.010353088E0,2.173935175E0,9.991003990E0
3.336298863E1,7.038952708E-1,2.121262789E0,1.025197124E1
3.338297765E1,3.926490843E-1,1.946485996E0,1.063504410E1
3.340299718E1,-5.315127969E-1,1.709460020E0,1.179144382E1
3.342301671E1,-5.003881454E-1,1.482010841E0,1.248097324E1
3.344300572E1,2.513911724E-1,1.438915253E0,1.131739140E1
3.346299474E1,3.543418646E-1,1.441309452E0,9.425971985E0
3.348298375E1,-9.337386489E-2,1.474828243E0,8.827422142E0
3.350297276E1,-4.836287498E-1,9.504981041E-1,1.083615685E1
3.352296178E1,-1.520318031E0,2.705447972E-1,1.247618484E1
3.354298131E1,-1.929726601E0,-1.005564705E-1,1.278024864E1
3.356297032E1,-9.768342972E-1,-1.005564705E-1,1.227986050E1
3.358292882E1,9.576806799E-3,-1.675941236E-2,1.093671322E1
3.360297887E1,5.458779931E-1,2.609679997E-1,9.639056206E0
3.362296788E1,2.992752194E-1,4.429273009E-1,9.074024200E0
3.364298741E1,-6.799532771E-1,6.679822803E-1,9.014169693E0
3.366300694E1,-1.446097851E0,9.600749016E-1,8.535328865E0
3.368299596E1,-6.847416759E-1,9.768342972E-1,7.594407558E0
3.370298497E1,1.221042871E-1,7.517793179E-1,6.708553314E0
3.372297399E1,-2.681505978E-1,8.954314590E-1,6.667851925E0
3.374296300E1,-1.182735682E0,1.096544385E0,7.206547260E0
3.376292150E1,-8.331822157E-1,9.457096457E-1,8.240841866E0
3.378294103E1,-3.734954596E-1,7.996633649E-1,9.081207275E0
3.380293004E1,-7.900865376E-2,9.409212470E-1,8.853757858E0
3.382291905E1,-2.059013397E-1,1.309628367E0,7.963114738E0
3.384290807E1,-5.051765442E-1,1.422155857E0,7.433996201E0
3.386289708E1,-6.081272364E-1,1.599326730E0,7.860164165E0
3.388288610E1,-4.189853072E-1,1.587355733E0,8.482656479E0
3.390287511E1,-7.613561153E-1,1.529894829E0,9.119514465E0
3.392286412E1,-1.082179189E0,1.563413739E0,1.006761837E1
3.394282262E1,-4.094084799E-1,1.412579060E0,1.080024433E1
3.396281163E1,7.900865376E-2,1.273715258E0,1.062546730E1
3.398283116E1,-1.268926859E-1,1.525106430E0,9.859322548E0
3.400282018E1,-2.729389966E-1,1.630451322E0,9.629479408E0
3.402277867E1,1.197100878E-1,1.537077546E0,9.919178009E0
3.404279820E1,4.955997467E-1,1.347935557E0,1.063025570E1
3.406278722E1,5.099649429E-1,1.163581967E0,1.137006378E1
3.408277623E1,1.651999205E-1,1.094150186E0,1.152808094E1
3.410276524E1,1.125274822E-1,1.359906554E0,1.080742645E1
3.412278478E1,3.184288144E-1,1.608903527E0,1.037886429E1
3.414280431E1,5.793967843E-1,1.623268723E0,9.945513725E0
3.416279332E1,3.902548850E-1,1.587355733E0,9.428366661E0
3.418278234E1,-1.149216816E-1,1.362300754E0,9.622296333E0
3.420280187E1,-2.466027737E-1,9.888052940E-1,1.080503273E1
3.422282140E1,4.213795066E-1,4.237737060E-1,1.142752457E1
3.424281041E1,1.017535686E0,2.106897533E-1,1.121204662E1
3.426279943E1,9.002198577E-1,2.418143749E-1,1.069250488E1
3.428278844E1,1.034295082E0,2.059013397E-1,1.062307262E1
3.430274694E1,9.696516991E-1,2.178723514E-1,1.051293945E1
3.432276647E1,3.040636182E-1,5.386953950E-1,9.557653427E0
3.434278600E1,-3.591302410E-2,6.703764796E-1,8.738836288E0
3.436277501E1,-3.280056417E-1,6.871358752E-1,8.116343498E0
3.438276402E1,-4.189853072E-1,7.733271718E-1,7.776367188E0
3.440275304E1,-3.112462163E-2,7.110779285E-1,7.728483200E0
3.442274205E1,2.394201607E-2,7.565677166E-1,7.726089001E0
3.444273107E1,-1.197100878E-1,9.504981041E-1,7.848193169E0
3.446272008E1,-1.316810995E-1,1.022324085E0,8.006210327E0
3.448267858E1,3.543418646E-1,1.036689281E0,7.793126583E0
3.450269811E1,2.130839527E-1,1.242590666E0,7.685387611E0
3.452268712E1,4.955997467E-1,1.405396342E0,7.589619160E0
3.454270665E1,4.285621047E-1,1.405396342E0,7.960720539E0
3.456269566E1,2.992752194E-1,1.517923832E0,8.343792915E0
3.458268468E1,3.734954596E-1,1.675941229E0,8.475474358E0
3.460267369E1,4.572925270E-1,1.795651317E0,8.786720276E0
3.462266271E1,2.777273953E-1,1.807622313E0,9.382876396E0
3.464265172E1,2.394201700E-3,1.774103403E0,1.003649330E1
3.466261022E1,-9.097966552E-2,1.903390408E0,9.928754807E0
3.468259923E1,5.746084079E-2,2.080561161E0,9.938331604E0
3.470261876E1,2.992752194E-1,2.097320795E0,9.651026726E0
3.472260778E1,7.422025502E-2,2.173935175E0,9.294290543E0
3.474259679E1,-1.628057212E-1,2.166752577E0,9.576807022E0
3.476255528E1,9.816227108E-2,1.893813491E0,1.074517727E1
3.478257482E1,1.244984865E-1,1.604115129E0,1.164060879E1
3.480256383E1,2.609679997E-1,1.431732655E0,1.130302620E1
3.482255284E1,-4.261679053E-1,1.388636947E0,1.040759468E1
3.484254186E1,-1.414973259E0,1.225831270E0,1.057997704E1
3.486250035E1,-2.030282974E0,1.029506683E0,1.216015053E1
3.488251988E1,-1.980004787E0,3.471592367E-1,1.305797577E1
3.490253942E1,-1.134851575E0,-6.703764945E-2,1.301488018E1
3.492252843E1,-7.278373241E-1,-2.489969730E-1,1.187763500E1
3.494251744E1,-8.068459630E-1,-3.351882473E-2,1.018493366E1
3.496250646E1,-9.145850539E-1,2.130839527E-1,9.193734169E0
3.498249547E1,-6.248866320E-1,4.189853072E-1,8.975862503E0
3.500251500E1,-4.692635238E-1,4.189853072E-1,8.537723541E0
3.502253453E1,-3.663128614E-1,4.620809257E-1,7.946355343E0
3.504249303E1,-4.022258818E-1,4.788403511E-1,7.659051418E0
3.506251256E1,-5.267243981E-1,5.267243981E-1,7.702147007E0
3.508247106E1,-2.537853718E-1,5.099649429E-1,7.580042362E0
3.510249059E1,1.197100803E-2,6.799532771E-1,7.491456985E0
3.512244908E1,4.596867263E-1,6.224924326E-1,8.396465302E0
3.514246861E1,6.057330370E-1,7.230489254E-1,8.808267593E0
3.516248815E1,2.681505978E-1,1.058237195E0,8.228871346E0
3.518250768E1,1.604115069E-1,1.300051570E0,7.374141216E0
3.520249669E1,-1.029506698E-1,1.391031146E0,7.259219646E0
3.522245519E1,-6.200982332E-1,1.414973259E0,8.530540466E0
3.524250524E1,-6.105214357E-1,1.256955862E0,9.311050415E0
3.526249425E1,-3.519476354E-1,1.228225470E0,8.923190117E0
3.528251378E1,-5.458779931E-1,1.278503656E0,8.916007042E0
3.530253331E1,-8.547300100E-1,1.228225470E0,9.835380554E0
3.532252232E1,-8.068459630E-1,1.474828243E0,1.021366405E1
3.534251134E1,-8.690952063E-1,1.601720929E0,9.828198433E0
3.536250035E1,-8.595184088E-1,1.738190413E0,9.581595421E0
3.538248937E1,-6.799532771E-1,1.721431017E0,1.014662647E1
3.540247838E1,-6.105214357E-1,1.675941229E0,1.005564690E1
3.542243688E1,-9.648633003E-1,1.527500629E0,1.011550236E1
3.544245641E1,-1.180341482E0,1.448492050E0,1.090558910E1
3.546247594E1,-3.950432837E-1,1.314416766E0,1.084573364E1
3.548246495E1,7.829039693E-1,1.484405041E0,1.003649330E1
3.550245397E1,1.264138460E0,1.814804912E0,9.155426979E0
3.552241246E1,1.113303781E0,2.006340981E0,8.959102631E0
3.554243199E1,5.291185975E-1,2.025494576E0,9.203310966E0
3.556242101E1,-5.027823523E-2,1.589749932E0,1.044111347E1
3.558241002E1,5.506663769E-2,9.720458984E-1,1.163342571E1
3.560239903E1,7.158663273E-1,4.381389022E-1,1.175313568E1
3.562238805E1,1.261744261E0,1.867477298E-1,1.105402946E1
3.564237706E1,8.236053586E-1,1.939303428E-1,1.053688145E1
3.566236608E1,-2.705447972E-1,2.992752194E-1,1.068532181E1
3.568235509E1,-8.571242094E-1,3.280056417E-1,1.066856289E1
3.570237462E1,-4.261679053E-1,1.891419291E-1,9.892841339E0
3.572236363E1,-1.268926859E-1,6.224924326E-2,9.016563416E0
3.574235265E1,-1.149216816E-1,1.053448766E-1,8.350975990E0
3.576240270E1,-2.657563984E-1,1.987187415E-1,8.180987358E0
3.578239171E1,-3.423708379E-1,2.466027737E-1,7.730877399E0
3.580241124E1,3.040636182E-1,9.576806426E-2,8.750806808E0
3.582240026E1,4.094084799E-1,5.746084079E-2,9.524134636E0
3.584238927E1,3.447650373E-1,2.346317619E-1,8.489839554E0
3.586237828E1,5.123591423E-1,4.285621047E-1,7.903259754E0
3.588239781E1,-6.464344263E-2,6.248866320E-1,8.944737434E0
3.590241734E1,1.029506698E-1,7.757213712E-1,9.581595421E0
3.592240636E1,1.149216816E-1,9.002198577E-1,9.363722801E0
3.594239537E1,-4.548983276E-1,1.118092179E0,8.834604263E0
3.596238439E1,-6.799532771E-1,1.391031146E0,8.307879448E0
3.598237340E1,-3.567360640E-1,1.489193439E0,7.831433773E0
3.600239293E1,-2.298433632E-1,1.647210717E0,7.678205013E0
3.602241246E1,4.788403399E-3,1.632845521E0,8.159439087E0
3.604240148E1,2.442085743E-1,1.742978811E0,8.932766914E0
3.606239049E1,-1.963245422E-1,1.704671621E0,9.476250648E0
3.608237950E1,-3.639186621E-1,1.903390408E0,1.026154804E1
3.610236852E1,-1.532289088E-1,1.661576033E0,1.099656868E1
3.612238805E1,-5.554547906E-1,1.206677675E0,1.142273617E1
3.614240758E1,-3.806780577E-1,7.493851185E-1,1.147301483E1
3.616239659E1,1.053448766E-1,7.996633649E-1,1.190157700E1
3.618241612E1,2.442085743E-1,6.703764796E-1,1.177707863E1
3.620243566E1,4.070143029E-2,8.738836050E-1,1.095107841E1
3.622245519E1,-1.185129881E0,6.224924326E-1,1.066856289E1
3.624244420E1,-2.602497339E0,4.381389022E-1,1.073560047E1
3.626246373E1,-2.413355350E0,2.178723514E-1,1.090558910E1
3.628245274E1,-1.137245774E0,-3.040636182E-1,1.130063248E1
3.630244176E1,5.746084079E-2,-4.189853072E-1,1.152808094E1
3.632243077E1,5.482721925E-1,-4.716577232E-1,1.057758331E1
3.634241979E1,-3.926490843E-1,-1.077390760E-1,9.085995674E0
3.636240880E1,-1.204283476E0,1.460463107E-1,7.704541206E0
3.638236730E1,-1.663970232E0,4.070142806E-1,7.441178799E0
3.640235631E1,-1.027112484E0,3.351882398E-1,8.099584579E0
3.642237584E1,-2.992752194E-1,1.556231081E-1,8.121131897E0
3.644236486E1,-2.489969730E-1,1.819593310E-1,7.371747017E0
3.646232335E1,-8.427590132E-1,4.716577232E-1,7.230489254E0
3.648237340E1,-6.560112834E-1,5.458779931E-1,7.757213593E0
3.650236241E1,-2.274491638E-1,6.584054828E-1,8.896853447E0
3.652235143E1,1.819593310E-1,7.182605267E-1,8.987833023E0
3.654234044E1,-5.506663769E-2,8.547300100E-1,8.233659744E0
3.656232945E1,-4.716577232E-1,1.134851575E0,7.876923561E0
3.658231847E1,-9.289502501E-1,1.350329757E0,8.434772491E0
3.660233800E1,-1.185129881E0,1.400607944E0,9.318233490E0
3.662235753E1,-1.060631394E0,1.386242747E0,9.974244118E0
3.664234654E1,-6.847416759E-1,1.407790542E0,9.433155060E0
3.666230504E1,-9.457096457E-1,1.498770237E0,8.784325600E0
3.668229405E1,-1.635239720E0,1.719036818E0,9.155426979E0
3.670231358E1,-1.400607944E0,1.678335428E0,1.004367638E1
3.672230260E1,-8.595184088E-1,1.532289028E0,1.018253994E1
3.674229161E1,-6.536170840E-1,1.661576033E0,9.854534149E0
3.676228063E1,-5.410895944E-1,1.611297727E0,9.524134636E0
3.678226964E1,-9.289502501E-1,1.556231141E0,9.904812813E0
3.680225865E1,-1.321599364E0,1.429338455E0,1.029746151E1
3.682227818E1,-1.271321058E0,1.307234168E0,1.030943298E1
3.684226720E1,-8.140286058E-2,1.273715258E0,1.042435455E1
3.686225621E1,4.501099288E-1,1.000776291E0,1.030943298E1
3.688224523E1,6.224924326E-2,1.065419793E0,9.995792389E0
3.690223424E1,-3.303998411E-1,1.165976286E0,1.016338634E1
3.692225377E1,-1.628057212E-1,9.864110947E-1,1.026633644E1
3.694227330E1,2.705447972E-1,8.379706144E-1,9.988609314E0
3.696226232E1,6.105214357E-1,6.584054828E-1,9.708487511E0
3.698225133E1,6.967126727E-1,4.357447028E-1,1.001255131E1
3.700224034E1,4.836287498E-1,2.681505978E-1,1.041717148E1
3.702222936E1,3.303998411E-1,2.154781520E-1,1.035971069E1
3.704221837E1,1.532289088E-1,1.556231081E-1,9.988609314E0
3.706217687E1,3.543418646E-1,4.070143029E-2,9.528923035E0
3.708219640E1,2.537853718E-1,3.830722719E-2,8.947132111E0
3.710215489E1,-6.368576288E-1,2.250549644E-1,8.243236542E0
3.712217443E1,-1.177947283E0,4.333505034E-1,8.583212852E0
3.714219396E1,-6.991068721E-1,1.891419291E-1,9.433155060E0
3.716215245E1,-3.782838583E-1,1.244984865E-1,9.272743225E0
3.718217198E1,-3.399766386E-1,2.968810201E-1,8.190564156E0
3.720216100E1,-3.998316824E-1,5.530605912E-1,7.469909191E0
3.722215001E1,-2.849099934E-1,6.991068721E-1,8.245630264E0
3.724216954E1,2.873042040E-2,6.584054828E-1,8.674192429E0
3.726218907E1,0.000000000E0,7.972691655E-1,8.212111473E0
3.728217809E1,-1.101332754E-1,1.017535686E0,7.793126583E0
3.730216710E1,7.661445439E-2,1.012747288E0,8.980650902E0
3.732215611E1,2.777273953E-1,1.007958889E0,9.763554573E0
3.734214513E1,-2.202665508E-1,1.175553083E0,9.495404243E0
3.736216466E1,-3.782838583E-1,1.340752959E0,9.655815125E0
3.738215367E1,-5.722141862E-1,1.192312479E0,1.049857426E1
3.740214269E1,-6.440402865E-1,1.233013868E0,1.096304989E1
3.742210118E1,-3.711012602E-1,1.335964561E0,1.018732834E1
3.744209020E1,1.795651317E-1,1.350329757E0,9.988609314E0
3.746207921E1,-9.576806799E-3,1.582567334E0,1.068053341E1
3.748206822E1,-2.873041928E-1,1.862688899E0,1.142273617E1
3.750202672E1,-6.033388376E-1,1.908178806E0,1.156159973E1
3.752204625E1,-3.064578176E-1,1.946485996E0,1.153526402E1
3.754200475E1,-5.985504389E-2,1.716642618E0,1.053448772E1
3.756199376E1,-4.381389022E-1,1.824381709E0,9.765948296E0
3.758201329E1,-1.063025594E0,1.553836942E0,1.046745014E1
3.760200231E1,-1.513135433E0,1.134851575E0,1.153526402E1
3.762196080E1,-1.436521053E0,7.302315235E-1,1.164539719E1
3.764198033E1,-6.679822803E-1,2.920926213E-1,1.150892735E1
3.766196935E1,2.442085743E-1,-3.351882473E-2,1.089361763E1
3.768195836E1,1.508347094E-1,1.149216816E-1,9.919178009E0
3.770194737E1,4.788403213E-2,2.633621991E-1,9.514557838E0
3.772193639E1,-3.016694188E-1,3.639186621E-1,9.282320023E0
3.774192540E1,-3.303998411E-1,5.315127969E-1,8.487444878E0
3.776191442E1,-5.171475410E-1,6.943184733E-1,7.651868820E0
3.778190343E1,-7.541735172E-1,8.762778044E-1,7.070077419E0
3.780192296E1,-6.560112834E-1,1.091755986E0,6.878541470E0
3.782194249E1,-6.009446383E-1,1.149216771E0,7.204153061E0
3.784193151E1,-4.429273009E-1,1.168370485E0,7.879317760E0
3.786192052E1,-1.963245422E-1,1.223437071E0,8.544905663E0
3.788194005E1,7.182604820E-2,1.331176162E0,8.726864815E0
3.790195958E1,2.178723514E-1,1.467645645E0,8.568847656E0
3.792194860E1,-9.576806426E-2,1.635239720E0,8.118738174E0
3.794193761E1,-4.836287498E-1,1.745373011E0,8.547300339E0
3.796192662E1,-1.197100803E-2,1.721431017E0,9.059659004E0
3.798188512E1,-2.394201700E-3,1.635239720E0,9.229647636E0
3.800193517E1,-6.081272364E-1,1.754949808E0,9.215282440E0
3.802192418E1,-8.188169599E-1,1.853112102E0,9.629479408E0
3.804191320E1,-7.398083210E-1,1.867477298E0,9.691728592E0
3.806187169E1,-7.613561153E-1,2.001552582E0,9.481039047E0
3.808186070E1,1.005564705E-1,2.030282974E0,9.660603523E0
3.810188024E1,4.429273009E-1,2.068590164E0,9.684545517E0
3.812186925E1,9.576806799E-3,2.334346771E0,9.895236015E0
3.814185826E1,-5.195417404E-1,2.262520552E0,1.046266174E1
3.816187779E1,-1.022324085E0,1.944091797E0,1.018972206E1
3.818189732E1,-5.291185975E-1,1.977610588E0,9.536105156E0
3.820188634E1,2.777273953E-1,1.742978811E0,9.674968719E0
3.822187535E1,1.211466074E0,1.750161409E0,1.033576870E1
3.824183385E1,1.228225470E0,1.877054095E0,1.055842972E1
3.826182286E1,8.451532125E-1,2.097320795E0,1.051772785E1
3.828178136E1,1.139639974E0,2.104503393E0,1.031661510E1
3.830180089E1,1.084573388E0,1.584961534E0,9.868899345E0
3.832178990E1,8.714894056E-1,1.211466074E0,9.773131371E0
3.834174840E1,8.667010069E-1,9.552865028E-1,1.030943298E1
3.836176793E1,8.427590132E-1,7.709329724E-1,1.073799419E1
3.838172643E1,4.668693244E-1,7.254431248E-1,1.073081207E1
3.840174596E1,4.525041282E-1,9.217676520E-1,1.006522369E1
3.842173497E1,6.248866320E-1,1.039083481E0,9.519346237E0
3.844169347E1,5.195417404E-1,1.168370485E0,8.621520042E0
3.846171300E1,8.858546615E-2,1.400607944E0,7.687781811E0
3.848170201E1,-2.298433632E-1,1.446097851E0,7.972691536E0
3.850169103E1,-3.878606856E-1,1.584961534E0,8.228871346E0
3.852168004E1,-3.543418646E-1,1.640028119E0,7.718906403E0
3.854163854E1,2.106897533E-1,1.637633920E0,8.214506149E0
3.856165807E1,9.050082564E-1,1.568202138E0,8.078036308E0
3.858167760E1,6.751648784E-1,1.817199111E0,7.661445618E0
3.860166661E1,2.968810201E-1,2.006340981E0,7.453149796E0
3.862165563E1,-1.915361285E-1,2.166752577E0,8.236053467E0
3.864164464E1,1.005564705E-1,2.145204782E0,9.184157372E0
3.866163365E1,5.961562395E-1,2.178723574E0,8.724471092E0
3.868162267E1,6.105214357E-1,2.296039343E0,7.924807549E0
3.870161168E1,-1.771709323E-1,2.293645144E0,7.766790390E0
3.872160070E1,-4.788403213E-2,2.370259762E0,8.746018410E0
3.874158971E1,2.298433632E-1,2.298433542E0,9.926360130E0
3.876157872E1,4.213795066E-1,2.284068346E0,9.856928825E0
3.878153722E1,6.224924326E-2,2.509123325E0,9.062053680E0
3.880155675E1,-3.399766386E-1,2.499546528E0,9.030928612E0
3.882154576E1,-2.178723514E-1,2.334346771E0,9.976638794E0
3.884156529E1,3.351882473E-2,1.795651317E0,1.103008747E1
3.886155431E1,2.968810201E-1,1.630451322E0,1.202846909E1
3.888151280E1,-9.864110947E-1,1.771709204E0,1.216493893E1
3.890153234E1,-3.038241863E0,2.166752577E0,1.263420200E1
3.892149083E1,-2.643198729E0,2.240972757E0,1.198537350E1
3.894151036E1,-1.472434044E0,1.584961534E0,1.109473038E1
3.896149938E1,-8.188169599E-1,5.339069963E-1,1.176989555E1
3.898148839E1,-4.596867263E-1,3.351882398E-1,1.212902546E1
3.900147740E1,-1.000776291E0,4.548983276E-1,1.157357121E1
3.902146642E1,-1.932120800E0,8.044517636E-1,9.880870819E0
3.904142491E1,-2.126051188E0,1.051054597E0,8.449137688E0
3.906144444E1,-1.027112484E0,9.241618514E-1,8.161833763E0
3.908143346E1,-1.412578970E-1,6.584054828E-1,8.607154846E0
3.910142247E1,-8.140286058E-2,7.110779285E-1,8.140285492E0
3.912144200E1,-9.097966552E-1,8.212111592E-1,7.058106422E0
3.914146153E1,-1.745373011E0,1.165976286E0,6.591237068E0
3.916142003E1,-2.365471363E0,1.292868972E0,6.916848660E0
3.918143956E1,-1.266532660E0,9.648633003E-1,7.275979042E0
3.920142858E1,1.843535304E-1,6.703764796E-1,7.704541206E0
3.922138707E1,6.153098345E-1,7.637503147E-1,7.678205013E0
3.924140660E1,1.963245422E-1,9.935936928E-1,7.661445618E0
3.926136510E1,-7.517793179E-1,1.335964561E0,8.226476669E0
3.928138463E1,-1.534683347E0,1.520318031E0,8.508993149E0
3.930140416E1,-1.053448796E0,1.496376038E0,8.494627953E0
3.932136266E1,-4.333505034E-1,1.347935557E0,8.386888504E0
3.934138219E1,-2.250549644E-1,1.352723956E0,8.554482460E0
3.936134068E1,-5.817909837E-1,1.417367458E0,9.576807022E0
3.938132970E1,-1.051054597E0,1.460463047E0,1.039801788E1
3.940134923E1,-1.094150186E0,1.553836942E0,1.047463226E1
3.942130773E1,-6.248866320E-1,1.647210717E0,1.005325317E1
3.944132726E1,-3.591302410E-2,1.666364431E0,9.809044838E0
3.946128575E1,2.873041928E-1,1.572990537E0,1.017775154E1
3.948130528E1,-3.591302410E-2,1.503558636E0,1.069011021E1
3.950126378E1,-4.022258818E-1,1.582567334E0,1.132457447E1
3.952128331E1,-3.782838583E-1,1.551442742E0,1.162145519E1
3.954124181E1,-1.891419291E-1,1.659181833E0,1.135569859E1
3.956123082E1,3.136404157E-1,1.637633920E0,1.030224991E1
3.958118932E1,5.075707436E-1,1.618480325E0,1.017056847E1
3.960120885E1,4.022258818E-1,1.419761658E0,1.086967564E1
3.962122838E1,-4.788403213E-2,8.475474119E-1,1.152808094E1
3.964121739E1,-3.639186621E-1,4.046200812E-1,1.209550667E1
3.966117589E1,5.985504389E-2,1.795651317E-1,1.213620853E1
3.968119542E1,8.858546615E-2,1.460463107E-1,1.065659142E1
3.970118444E1,2.657563984E-1,4.070142806E-1,9.473855972E0
3.972117345E1,1.628057212E-1,6.464344859E-1,8.623914719E0
3.974116246E1,2.466027737E-1,7.781155705E-1,8.097189903E0
3.976118199E1,2.849099934E-1,7.422025204E-1,7.989450932E0
3.978120152E1,-2.418143749E-1,7.182605267E-1,8.240841866E0
3.980119054E1,-6.536170840E-1,7.134721279E-1,8.441955566E0
3.982117955E1,-1.053448766E-1,5.985504389E-1,8.975862503E0
3.984116857E1,5.267243981E-1,4.668693244E-1,8.355764389E0
3.986115758E1,8.164227605E-1,5.195417404E-1,7.929595947E0
3.988114659E1,7.254431248E-1,5.770025849E-1,8.197746277E0
3.990113561E1,5.386953950E-1,7.230489254E-1,8.676587105E0
3.992112462E1,3.711012602E-1,9.361328483E-1,8.532935143E0
3.994108312E1,1.460463107E-1,1.142034173E0,8.279149055E0
3.996113316E1,1.364694983E-1,1.156399369E0,7.740454197E0
3.998112218E1,5.410895944E-1,1.146822572E0,8.233659744E0
4.000111119E1,7.158663273E-1,1.213860273E0,8.532935143E0
4.002110021E1,3.663128614E-1,1.254561663E0,8.913613319E0
4.004108922E1,-2.825157940E-1,1.244984865E0,9.390059471E0
4.006107823E1,-2.418143749E-1,1.168370485E0,1.017296314E1
4.008112828E1,1.436520964E-1,1.201889277E0,1.049378586E1
4.010111730E1,3.495534360E-1,1.242590666E0,9.926360130E0
4.012107579E1,3.543418646E-1,1.455674648E0,9.337387085E0
4.014109532E1,2.873042040E-2,1.584961534E0,9.935936928E0
4.016108434E1,-3.974374831E-1,1.654393315E0,1.102051067E1
4.018107335E1,-6.033388376E-1,1.529894829E0,1.111627865E1
4.020106236E1,-4.764461517E-1,1.412579060E0,1.087925243E1
4.022102086E1,-5.027823448E-1,1.300051570E0,1.091995430E1
4.024104039E1,-7.900865674E-1,1.386242747E0,1.136527538E1
4.026105992E1,-1.632845521E0,1.367089152E0,1.175074196E1
4.028104894E1,-2.715024710E0,1.096544385E0,1.141555405E1
4.030103795E1,-3.129221678E0,8.355764151E-1,1.190875912E1
4.032102696E1,-2.138022184E0,4.620809257E-1,1.210029507E1
4.034104650E1,-1.127668977E0,1.819593310E-1,1.195664310E1
4.036103551E1,-4.692635238E-1,2.992752194E-1,1.018014526E1
4.038102452E1,-6.033388376E-1,6.919242740E-1,8.061277390E0
4.040104405E1,-5.889736414E-1,1.180341482E0,6.687005520E0
4.042103307E1,-3.591302633E-1,1.371877551E0,6.351817131E0
4.044102208E1,-2.418143749E-1,1.359906554E0,6.727706909E0
4.046101110E1,3.112462163E-2,1.307234168E0,6.979097843E0
4.048100011E1,1.268926859E-1,1.290474772E0,7.244854450E0
4.050098912E1,5.506663769E-2,1.206677675E0,7.785943985E0
4.052097814E1,2.274491638E-1,1.034295082E0,8.556877136E0
4.054096715E1,6.943184733E-1,9.457096457E-1,9.006986618E0
4.056095616E1,9.552865028E-1,8.619126081E-1,9.339780807E0
4.058094518E1,5.267243981E-1,9.864110947E-1,9.208099365E0
4.060096471E1,1.532289088E-1,1.201889277E0,8.652645111E0
4.062098424E1,-2.657563984E-1,1.391031146E0,8.475474358E0
4.064097325E1,-3.232172430E-1,1.343147159E0,8.293514252E0
4.066096227E1,3.112462163E-1,1.276109457E0,8.602366447E0
4.068095128E1,4.548983276E-1,1.139639974E0,8.906430244E0
4.070097081E1,5.027823523E-2,1.194706678E0,9.382876396E0
4.072095982E1,-1.675941199E-1,1.154005170E0,9.955090523E0
4.074094884E1,6.943184882E-2,1.335964561E0,9.940725327E0
4.076093785E1,2.370259613E-1,1.498770237E0,9.691728592E0
4.078092687E1,1.436520964E-1,1.450886250E0,9.655815125E0
4.080094640E1,-3.854664862E-1,1.295263171E0,1.051533413E1
4.082093541E1,-6.009446383E-1,1.154005170E0,1.109712505E1
4.084092443E1,-8.475474119E-1,8.978256583E-1,1.101093388E1
4.086091344E1,-5.482721925E-1,1.051054597E0,1.038125896E1
4.088090245E1,-6.655880809E-1,1.118092179E0,9.710882187E0
4.090089147E1,-2.968810201E-1,1.446097851E0,9.842563629E0
4.092091100E1,3.711012602E-1,1.580173135E0,9.904812813E0
4.094093053E1,4.333505034E-1,1.632845521E0,9.473855972E0
4.096091954E1,2.753331959E-1,1.757344007E0,9.430760384E0
4.098090856E1,-1.412578970E-1,1.534683347E0,9.730035782E0
4.100089757E1,-8.379705995E-2,1.165976286E0,1.027830791E1
4.102088658E1,9.337386489E-2,6.177040339E-1,1.086967564E1
4.104090611E1,4.477157295E-1,3.878606856E-1,1.132457447E1
4.106092565E1,4.118026793E-1,2.130839527E-1,1.177468395E1
4.108091466E1,4.692635238E-1,3.280056417E-1,1.097502041E1
4.110090367E1,3.758896589E-1,5.865794420E-1,9.605537415E0
4.112089269E1,5.027823523E-2,6.440402865E-1,8.367734909E0
4.114088170E1,1.867477298E-1,5.243301988E-1,8.159439087E0
4.116090123E1,3.327940404E-1,3.734954596E-1,8.951920509E0
4.118092076E1,-1.508347094E-1,3.040636182E-1,9.418789864E0
4.120090978E1,-1.843535304E-1,3.303998411E-1,9.291896820E0
4.122089879E1,-6.943184882E-2,2.106897533E-1,9.289502144E0
4.124088780E1,2.154781520E-1,2.322375625E-1,9.203310966E0
4.126087682E1,3.878606856E-1,3.280056417E-1,8.410830498E0
4.128089635E1,-1.221042871E-1,6.392518282E-1,7.733271599E0
4.130091588E1,-7.829039693E-1,8.858546019E-1,7.706935406E0
4.132090489E1,-3.016694188E-1,8.331822157E-1,8.547300339E0
4.134089391E1,2.825157940E-1,6.895300746E-1,8.841787338E0
4.136077734E1,3.351882398E-1,9.289502501E-1,8.762778282E0
4.138076635E1,3.184288144E-1,9.409212470E-1,9.023746490E0
4.140075537E1,4.022258818E-1,1.027112484E0,9.579200745E0
