"Time (s)","Acceleration x (m/s^2)","Acceleration y (m/s^2)","Acceleration z (m/s^2)"
5.841151200E-2,-1.756050110E0,5.940000057E0,8.754000664E0
7.799991600E-2,-1.900050044E0,5.968950272E0,8.860050201E0
9.759191600E-2,-2.226000071E0,5.940000057E0,9.127950668E0
1.171848190E-1,-2.521950006E0,5.767950058E0,9.424950600E0
1.367767270E-1,-2.628000021E0,5.518950462E0,9.721950531E0
1.563684820E-1,-2.350050211E0,5.232000351E0,1.012395000E1
1.759604810E-1,-1.708050132E0,4.876950264E0,1.051695061E1
1.955530110E-1,-1.038000107E0,4.531949997E0,1.063200092E1
2.151496980E-1,-6.070500016E-1,4.360050201E0,1.041105080E1
2.347490580E-1,-3.769500256E-1,4.321950436E0,1.008600044E1
2.543459960E-1,-1.570500135E-1,4.312050343E0,9.904050827E0
2.739462270E-1,1.870500147E-1,4.282950401E0,9.789000511E0
2.935446830E-1,6.370500326E-1,4.216050148E0,9.655050278E0
3.131416300E-1,1.087050080E0,4.168050289E0,9.396000862E0
3.327403750E-1,1.422000051E0,4.149000168E0,9.022950172E0
3.523379760E-1,1.623000026E0,4.120950222E0,8.629950523E0
3.719348270E-1,1.671000123E0,4.120950222E0,8.343000412E0
3.915370340E-1,1.594950080E0,4.129950047E0,8.188950539E0
4.111348220E-1,1.450950027E0,4.033950329E0,8.083950043E0
4.307361490E-1,1.240050077E0,3.814050198E0,7.969050407E0
4.503342360E-1,9.910500646E-1,3.583950281E0,7.930950165E0
4.699263460E-1,7.710000277E-1,3.450000048E0,8.122050285E0
4.895091010E-1,6.469500065E-1,3.393000126E0,8.533950806E0
5.090927070E-1,6.370500326E-1,3.354000092E0,8.821050644E0
5.286745680E-1,7.140000463E-1,3.286950111E0,8.812050819E0
5.482610430E-1,7.420500517E-1,3.325950146E0,8.601000786E0
5.678435050E-1,6.940500140E-1,3.487950087E0,8.467050552E0
5.874257400E-1,6.370500326E-1,3.594000101E0,8.553000450E0
6.070056540E-1,6.180000305E-1,3.594000101E0,8.592000008E0
6.265844130E-1,6.270000339E-1,3.574950218E0,8.437950134E0
6.461564130E-1,6.660000086E-1,3.670050144E0,8.275950432E0
6.657330290E-1,7.810500264E-1,3.919050217E0,8.209050179E0
6.853133470E-1,9.529500604E-1,4.188000202E0,8.218050003E0
7.048928230E-1,1.116000056E0,4.341000080E0,8.266050339E0
7.244782660E-1,1.269000053E0,4.321950436E0,8.323050499E0
7.440616540E-1,1.288050056E0,4.177950382E0,8.362050056E0
7.636432560E-1,1.030050039E0,4.033950329E0,8.563050270E0
7.832287600E-1,6.180000305E-1,3.958050251E0,8.965050697E0
8.028081450E-1,3.210000098E-1,3.900000095E0,9.385950089E0
8.223952510E-1,2.440500110E-1,3.795000076E0,9.846000671E0
8.419788560E-1,2.830500007E-1,3.679950237E0,1.038300037E1
8.615610820E-1,2.920500040E-1,3.556050062E0,1.076595020E1
8.811446980E-1,3.210000098E-1,3.364050150E0,1.086105061E1
9.007283850E-1,4.930500090E-1,3.115050077E0,1.081305027E1
9.203146160E-1,7.710000277E-1,2.962050200E0,1.072695065E1
9.399007030E-1,9.910500646E-1,3.000000238E0,1.054500008E1
9.594819340E-1,1.087050080E0,3.076950073E0,1.027695084E1
9.790597900E-1,1.212000012E0,2.989950180E0,1.005705070E1
9.986339580E-1,1.336050034E0,2.799000025E0,9.865050316E0
1.018213650E0,1.279050112E0,2.635950089E0,9.607050896E0
1.037789424E0,1.164000034E0,2.539950132E0,9.328950882E0
1.057368117E0,1.135050058E0,2.491950035E0,8.994000435E0
1.076944491E0,1.164000034E0,2.454000235E0,8.649000168E0
1.096514044E0,1.297950029E0,2.338950157E0,8.362050056E0
1.116084428E0,1.480050087E0,2.041949987E0,8.161050797E0
1.135657664E0,1.528050065E0,1.755000114E0,8.103000641E0
1.155233958E0,1.279050112E0,1.707000136E0,8.179950714E0
1.174807189E0,7.420500517E-1,1.840950131E0,8.524950027E0
1.194377731E0,-2.295000106E-2,2.089950085E0,9.070050240E0
1.213954962E0,-5.400000215E-1,2.349000216E0,9.376950264E0
1.233534030E0,-6.259500384E-1,2.464050055E0,9.358050346E0
1.253111265E0,-6.070500016E-1,2.502000093E0,9.013050079E0
1.272692779E0,-5.110500455E-1,2.539950132E0,8.544000626E0
1.292268169E0,-4.440000355E-1,2.646000147E0,8.161050797E0
1.311845684E0,-5.020500422E-1,2.788950205E0,7.854000568E0
1.331423857E0,-6.360000372E-1,2.836950064E0,7.653000355E0
1.351004780E0,-8.850000501E-1,2.713050127E0,7.672050476E0
1.370586227E0,-1.018950105E0,2.502000093E0,8.074049950E0
1.390166862E0,-7.510500550E-1,2.176050186E0,8.965050697E0
1.409747179E0,-2.140500098E-1,1.659000039E0,9.931950569E0
1.429325103E0,1.390500069E-1,1.171050072E0,1.055505085E1
1.448905021E0,7.200000435E-2,9.120000601E-1,1.095705032E1
1.468493713E0,-2.239500135E-1,7.690500617E-1,1.133100033E1
1.488088491E0,-4.920000136E-1,5.770500302E-1,1.177095032E1
1.507681414E0,-5.299500227E-1,3.660000265E-1,1.249905014E1
1.527273122E0,-4.440000355E-1,-1.605000161E-2,1.293000031E1
1.546861717E0,-3.960000277E-1,-2.359500080E-1,1.232700062E1
1.566450944E0,-2.239500135E-1,-1.879500151E-1,1.141695023E1
1.586043266E0,3.589500189E-1,-4.660500288E-1,1.111995029E1
1.605635582E0,1.212000012E0,-8.869500160E-1,1.148400021E1
1.625231270E0,1.719000101E0,-7.819500566E-1,1.182900047E1
1.644829933E0,1.852950096E0,-3.510000110E-1,1.163700008E1
1.664423759E0,2.083050013E0,-2.650500238E-1,1.072695065E1
1.684013096E0,2.380050182E0,-4.180500209E-1,9.415050507E0
1.703609332E0,2.446950197E0,-3.610500097E-1,8.437950134E0
1.723206005E0,2.265000105E0,1.950000064E-3,8.188950539E0
1.742799548E0,1.900950074E0,4.429500103E-1,8.332950592E0
1.762391274E0,1.470000029E0,6.730500460E-1,8.389950752E0
1.781983500E0,1.096950054E0,5.580000281E-1,8.437950134E0
1.801573736E0,8.290500641E-1,3.570000231E-1,8.649000168E0
1.821161039E0,5.890500546E-1,3.570000231E-1,9.042000771E0
1.840748091E0,3.589500189E-1,5.389500260E-1,9.424950600E0
1.860339895E0,2.160000056E-1,6.630000472E-1,9.472949982E0
1.879927298E0,1.770000011E-1,7.110000253E-1,9.280950546E0
1.899519841E0,1.290000081E-1,9.120000601E-1,9.223950386E0
1.919105351E0,4.950000439E-3,1.314000010E0,9.232950211E0
1.938689121E0,-1.469999999E-1,1.803000093E0,9.051000595E0
1.958272736E0,-2.809500098E-1,2.310000181E0,8.611050606E0
1.977860515E0,-4.150500298E-1,2.875950098E0,8.103000641E0
1.997446895E0,-5.500500202E-1,3.460050106E0,7.720050335E0
2.017023497E0,-5.779500008E-1,4.006050110E0,7.585950375E0
2.036604473E0,-4.630500078E-1,4.369950294E0,7.672050476E0
2.056183487E0,-2.719500065E-1,4.513050079E0,7.758000374E0
2.075760092E0,-1.279500127E-1,4.504050255E0,7.797000408E0
2.095334304E0,-9.000000358E-2,4.350000381E0,8.065050125E0
2.114907521E0,-2.050500065E-1,4.101000309E0,8.716050148E0
2.134482808E0,-4.630500078E-1,3.862050295E0,9.520950317E0
2.154061275E0,-7.600500584E-1,3.583950281E0,1.022895050E1
2.173632058E0,-9.810000658E-1,3.229950190E0,1.078500080E1
2.193203198E0,-1.095000029E0,2.847000122E0,1.124400043E1
2.212776424E0,-1.162050009E0,2.559000015E0,1.162800026E1
2.232347174E0,-1.171950102E0,2.406000137E0,1.186695099E1
2.251913963E0,-9.229500294E-1,2.301000118E0,1.178100014E1
2.271488973E0,-5.400000215E-1,2.167050123E0,1.143600082E1
2.291061896E0,-2.809500098E-1,2.023050070E0,1.110105038E1
2.310639530E0,-2.530499995E-1,1.918050051E0,1.075605011E1
2.330220472E0,-3.480000198E-1,1.840950131E0,1.025805092E1
2.349796093E0,-5.400000215E-1,1.812000036E0,9.712050438E0
2.369372400E0,-7.510500550E-1,1.870050073E0,9.280950546E0
2.388947486E0,-8.940000534E-1,1.966050148E0,8.956050873E0
2.408522939E0,-9.610500336E-1,1.975050092E0,8.620050430E0
2.428097727E0,-1.018950105E0,1.918050051E0,8.323050499E0
2.447670270E0,-1.123950005E0,1.899000049E0,8.094000816E0
2.467249727E0,-1.230000019E0,1.899000049E0,8.017050743E0
2.486828473E0,-1.258050084E0,1.870050073E0,8.140950203E0
2.506409039E0,-1.210050106E0,1.783950090E0,8.295000076E0
2.525990251E0,-1.191000104E0,1.717050076E0,8.400000572E0
2.545566010E0,-1.162050009E0,1.678050041E0,8.544000626E0
2.565147164E0,-1.009050012E0,1.669050097E0,8.659049988E0
2.584735832E0,-7.600500584E-1,1.726050138E0,8.821050644E0
2.604322279E0,-5.500500202E-1,1.879950047E0,9.079950333E0
2.623904442E0,-4.440000355E-1,2.061000109E0,9.214050293E0
2.643483813E0,-3.960000277E-1,2.224050045E0,9.223950386E0
2.663065592E0,-3.390000165E-1,2.290950060E0,9.328950882E0
2.682646577E0,-1.950000077E-1,2.233950138E0,9.607050896E0
2.702222808E0,-5.205000192E-2,2.041949987E0,1.004700089E1
2.721799202E0,-2.295000106E-2,1.822050095E0,1.040205002E1
2.741375750E0,-1.469999999E-1,1.678050041E0,1.044000053E1
2.760953082E0,-3.010500073E-1,1.525050044E0,1.033500004E1
2.780533688E0,-4.060500264E-1,1.333950043E0,1.039200020E1
2.800114318E0,-5.020500422E-1,1.200000048E0,1.062195015E1
2.819690827E0,-5.970000029E-1,1.189950109E0,1.074600029E1
2.839265986E0,-4.920000136E-1,1.267050028E0,1.073700047E1
2.858844996E0,-7.995000482E-2,1.314000010E0,1.078500080E1
2.878424991E0,4.930500090E-1,1.257000089E0,1.092795086E1
2.898005087E0,9.340500236E-1,1.113000035E0,1.099500084E1
2.917582544E0,1.000950098E0,1.055999994E0,1.081305027E1
2.937164750E0,8.569500446E-1,1.228050113E0,1.037295055E1
2.956748674E0,7.519500256E-1,1.506000042E0,9.931950569E0
2.976338822E0,7.420500517E-1,1.698000073E0,9.625950813E0
2.995918578E0,7.620000243E-1,1.812000036E0,9.376950264E0
3.015496419E0,8.089500666E-1,1.927050114E0,9.175950050E0
3.035079477E0,8.860500455E-1,1.993950129E0,9.003000259E0
3.054661308E0,8.479500413E-1,2.052000046E0,8.697000504E0
3.074248356E0,6.180000305E-1,2.137950182E0,8.247000694E0
3.093831034E0,3.109500110E-1,2.215050220E0,7.902000427E0
3.113411967E0,9.105000645E-2,2.215050220E0,7.816050529E0
3.132998823E0,-6.105000153E-2,2.205000162E0,7.912050247E0
3.152581524E0,-1.950000077E-1,2.233950138E0,8.094000816E0
3.172163068E0,-3.100500107E-1,2.263050079E0,8.304000854E0
3.191744702E0,-4.060500264E-1,2.310000181E0,8.544000626E0
3.211324389E0,-5.209500194E-1,2.406000137E0,8.754000664E0
3.230903078E0,-6.169500351E-1,2.521050215E0,8.994000435E0
3.250483466E0,-6.070500016E-1,2.578950167E0,9.271950722E0
3.270061241E0,-5.209500194E-1,2.569050074E0,9.511050224E0
3.289634553E0,-4.920000136E-1,2.598000050E0,9.693000793E0
3.309210251E0,-5.590500236E-1,2.646000147E0,9.904050827E0
3.328788019E0,-6.550500393E-1,2.683950186E0,1.009500027E1
3.348364404E0,-6.360000372E-1,2.713050127E0,1.026795006E1
3.367941880E0,-4.830000103E-1,2.655000210E0,1.052595043E1
3.387518885E0,-3.480000198E-1,2.512050152E0,1.080405045E1
3.407101952E0,-3.769500256E-1,2.445000172E0,1.090905094E1
3.426683722E0,-5.500500202E-1,2.539950132E0,1.079400063E1
3.446263168E0,-6.169500351E-1,2.578950167E0,1.068900013E1
3.465839370E0,-4.920000136E-1,2.502000093E0,1.079400063E1
3.485420303E0,-2.430000156E-1,2.406000137E0,1.101495075E1
3.504999980E0,7.200000435E-2,2.301000118E0,1.100505066E1
3.524573539E0,3.310500085E-1,2.167050123E0,1.084200096E1
3.544149317E0,3.499500155E-1,2.052000046E0,1.061205006E1
3.563724625E0,1.290000081E-1,2.014050007E0,1.015305042E1
3.583314158E0,-1.860000044E-1,2.032950163E0,9.529950142E0
3.602902230E0,-4.630500078E-1,2.071050167E0,9.031949997E0
3.622492000E0,-6.450000405E-1,2.052000046E0,8.697000504E0
3.642084082E0,-7.600500584E-1,2.023050070E0,8.447999954E0
3.661669020E0,-8.370000124E-1,1.975050092E0,8.275950432E0
3.681248101E0,-7.890000343E-1,1.908000112E0,8.209050179E0
3.700820726E0,-5.970000029E-1,1.822050095E0,8.371050835E0
3.720396649E0,-3.390000165E-1,1.726050138E0,8.638950348E0
3.739971419E0,-1.570500135E-1,1.669050097E0,8.773950577E0
3.759552351E0,-1.090500057E-1,1.707000136E0,8.793000221E0
3.779133597E0,-1.570500135E-1,1.831950068E0,8.782950401E0
3.798706894E0,-2.430000156E-1,1.984950066E0,8.802000046E0
3.818281043E0,-3.289500177E-1,2.100000143E0,8.830950737E0
3.837864664E0,-3.480000198E-1,2.196000099E0,8.878950119E0
3.857453269E0,-3.100500107E-1,2.310000181E0,8.994000435E0
3.877044966E0,-2.239500135E-1,2.434950113E0,9.031949997E0
3.896635428E0,-1.570500135E-1,2.512050152E0,8.946000099E0
3.916224135E0,-1.090500057E-1,2.559000015E0,8.782950401E0
3.935820438E0,-5.205000192E-2,2.587950230E0,8.572050095E0
3.955415207E0,1.200000048E-1,2.559000015E0,8.323050499E0
3.975006207E0,2.539499998E-1,2.454000235E0,8.256000519E0
3.994593284E0,4.450500309E-1,1.936950088E0,8.505000114E0
4.014182264E0,2.539499998E-1,1.591950059E0,9.415050507E0
4.033772943E0,-4.920000136E-1,1.908000112E0,1.068900013E1
4.053360404E0,-9.420000315E-1,2.167050123E0,1.139805031E1
4.072951697E0,-8.749500513E-1,2.205000162E0,1.133100033E1
4.092542151E0,-5.500500202E-1,2.242950201E0,1.090905094E1
4.112132693E0,-1.090500057E-1,2.397000074E0,1.073700047E1
4.131722856E0,3.589500189E-1,2.617050171E0,1.078500080E1
4.151315395E0,7.140000463E-1,2.770050049E0,1.075605011E1
4.170903372E0,8.860500455E-1,2.751000166E0,1.070805073E1
4.190497245E0,8.290500641E-1,2.713050127E0,1.073700047E1
4.210093010E0,6.660000086E-1,2.683950186E0,1.071795082E1
4.229684626E0,6.079500318E-1,2.550000191E0,1.050705051E1
4.249271086E0,6.850500107E-1,2.416050196E0,1.021005058E1
4.268861932E0,7.330500484E-1,2.358000040E0,9.999000549E0
4.288459106E0,7.330500484E-1,2.329950094E0,9.826950073E0
4.308057264E0,7.140000463E-1,2.233950138E0,9.636000633E0
4.327656370E0,6.079500318E-1,2.119050026E0,9.319050789E0
4.347249620E0,3.589500189E-1,2.109000206E0,8.802000046E0
4.366841029E0,7.200000435E-2,2.196000099E0,8.161050797E0
4.386422865E0,-6.105000153E-2,2.310000181E0,7.585950375E0
4.406012476E0,-1.090500057E-1,2.464050055E0,7.240950108E0
4.425597092E0,-2.239500135E-1,2.703000069E0,7.183950424E0
4.445181408E0,-4.440000355E-1,2.943000078E0,7.347000122E0
4.464767562E0,-6.739500165E-1,3.096000195E0,7.605000496E0
4.484344111E0,-7.789500356E-1,3.238950253E0,7.902000427E0
4.503919543E0,-6.739500165E-1,3.412050247E0,8.236949921E0
4.523499851E0,-4.249500334E-1,3.546000242E0,8.629950523E0
4.543080702E0,-2.719500065E-1,3.603000164E0,9.079950333E0
4.562658549E0,-3.289500177E-1,3.583950281E0,9.549000740E0
4.582238573E0,-5.500500202E-1,3.441000223E0,9.913050652E0
4.601820472E0,-8.269500136E-1,3.238950253E0,1.010505009E1
4.621396712E0,-1.027950048E0,3.133950233E0,1.021005058E1
4.640968759E0,-9.709500670E-1,3.096000195E0,1.024800014E1
4.660539741E0,-6.739500165E-1,3.076950073E0,1.034400082E1
4.680109269E0,-3.679500222E-1,3.076950073E0,1.056405067E1
4.699677597E0,-2.050500065E-1,3.096000195E0,1.070805073E1
4.719247755E0,-2.910000086E-1,3.220050097E0,1.056405067E1
4.738815520E0,-4.249500334E-1,3.402000189E0,1.021005058E1
4.758386284E0,-3.289500177E-1,3.526950121E0,1.001895046E1
4.777959534E0,-4.050000105E-3,3.622950077E0,1.017195034E1
4.797534620E0,3.210000098E-1,3.718050241E0,1.034400082E1
4.817108779E0,5.599500537E-1,3.690000057E0,1.027695084E1
4.836677717E0,6.079500318E-1,3.535950184E0,1.009500027E1
4.856248102E0,3.880500197E-1,3.373950243E0,9.885000229E0
4.875824409E0,6.195000187E-2,3.238950253E0,9.577950478E0
4.895397093E0,-1.860000044E-1,3.192000151E0,9.214050293E0
4.914967174E0,-3.390000165E-1,3.201000214E0,8.908050537E0
4.934539857E0,-3.960000277E-1,3.163050175E0,8.716050148E0
4.954114549E0,-3.580500185E-1,3.019050121E0,8.638950348E0
4.973696117E0,-2.719500065E-1,2.884950161E0,8.649000168E0
4.993265453E0,-1.660500020E-1,2.847000122E0,8.649000168E0
5.012837064E0,-1.305000018E-2,2.847000122E0,8.524950027E0
5.032408222E0,1.579500139E-1,2.866050243E0,8.362050056E0
5.051975539E0,2.730000019E-1,2.895000219E0,8.371050835E0
5.071545707E0,2.830500007E-1,2.914050102E0,8.515049934E0
5.091120163E0,2.250000089E-1,2.932950258E0,8.629950523E0
5.110689101E0,1.870500147E-1,3.028950214E0,8.620050430E0
5.130262625E0,1.770000011E-1,3.201000214E0,8.544000626E0
5.149834698E0,2.059500068E-1,3.393000126E0,8.437950134E0
5.169411929E0,2.539499998E-1,3.556050062E0,8.410050392E0
5.188990625E0,3.210000098E-1,3.679950237E0,8.447999954E0
5.208563847E0,3.979500234E-1,3.757050276E0,8.515049934E0
5.228141693E0,4.360500276E-1,3.805050135E0,8.638950348E0
5.247717751E0,3.780000210E-1,3.852000237E0,8.821050644E0
5.267300208E0,3.019500077E-1,3.880950212E0,9.090000153E0
5.286877660E0,3.210000098E-1,3.871950150E0,9.454050064E0
5.306454001E0,4.549500346E-1,3.814050198E0,9.931950569E0
5.326029602E0,6.079500318E-1,3.757050276E0,1.038300037E1
5.345602587E0,6.850500107E-1,3.690000057E0,1.063200092E1
5.365178823E0,5.700000525E-1,3.661050081E0,1.057395077E1
5.384749285E0,2.350500077E-1,3.718050241E0,1.017195034E1
5.404317040E0,-2.295000106E-2,3.795000076E0,9.607050896E0
5.423886558E0,5.295000225E-2,3.814050198E0,9.214050293E0
5.443460006E0,4.930500090E-1,3.805050135E0,9.243000031E0
5.463036035E0,1.105949998E0,3.679950237E0,9.559050560E0
5.482610804E0,1.498950124E0,3.441000223E0,9.817050934E0
5.502183487E0,1.480050087E0,3.268050194E0,9.760050774E0
5.521753343E0,1.297950029E0,3.211050034E0,9.376950264E0
5.541329871E0,1.240050077E0,3.220050097E0,8.917050362E0
5.560912121E0,1.354950070E0,3.268050194E0,8.638950348E0
5.580493665E0,1.528050065E0,3.354000092E0,8.716050148E0
5.600082184E0,1.662000060E0,3.450000048E0,8.994000435E0
5.619669044E0,1.662000060E0,3.526950121E0,9.166050911E0
5.639254828E0,1.470000029E0,3.535950184E0,9.070050240E0
5.658837597E0,1.153950095E0,3.546000242E0,8.668050766E0
5.678416655E0,8.670000434E-1,3.583950281E0,8.140950203E0
5.697996332E0,6.559500098E-1,3.594000101E0,7.749000549E0
5.717577563E0,4.650000334E-1,3.565050125E0,7.615050316E0
5.737157862E0,2.160000056E-1,3.556050062E0,7.701000214E0
5.756733324E0,-5.205000192E-2,3.574950218E0,7.825050354E0
5.776314770E0,-2.430000156E-1,3.631950140E0,7.902000427E0
5.795896001E0,-2.340000123E-1,3.679950237E0,7.998000145E0
5.815476924E0,-6.105000153E-2,3.775950193E0,8.227950096E0
5.835061309E0,1.200000048E-1,3.985950232E0,8.553000450E0
5.854650842E0,3.210000098E-1,4.140000343E0,8.745000839E0
5.874240362E0,5.509500504E-1,4.063050270E0,8.812050819E0
5.893818823E0,6.370500326E-1,3.900000095E0,8.802000046E0
5.913396073E0,4.840500355E-1,3.775950193E0,8.830950737E0
5.932973304E0,1.200000048E-1,3.736950159E0,9.003000259E0
5.952546227E0,-3.769500256E-1,3.843000174E0,9.463050842E0
5.972121521E0,-8.179500103E-1,3.967050076E0,1.022895050E1
5.991699381E0,-1.027950048E0,3.919050217E0,1.099500084E1
6.011275073E0,-1.114950061E0,3.757050276E0,1.129200077E1
6.030850872E0,-1.267950058E0,3.670050144E0,1.105305099E1
6.050429872E0,-1.420950055E0,3.631950140E0,1.064100075E1
6.070012420E0,-1.488000035E0,3.622950077E0,1.047795010E1
6.089594881E0,-1.516950130E0,3.651000261E0,1.066995049E1
6.109171103E0,-1.450050116E0,3.535950184E0,1.094805050E1
6.128749625E0,-1.239000082E0,3.192000151E0,1.085205078E1
6.148321861E0,-1.027950048E0,2.808000088E0,1.024800014E1
6.167891399E0,-9.420000315E-1,2.674050093E0,9.540000916E0
6.187466491E0,-9.520500302E-1,2.761050224E0,9.098999977E0
6.207041659E0,-9.040500522E-1,2.827950239E0,8.887950897E0
6.226613039E0,-7.600500584E-1,2.799000025E0,8.773950577E0
6.246186236E0,-6.550500393E-1,2.808000088E0,8.802000046E0
6.265758467E0,-6.070500016E-1,2.836950064E0,8.850000381E0
6.285330251E0,-4.729500115E-1,2.761050224E0,8.601000786E0
6.304905005E0,-1.570500135E-1,2.607000113E0,8.161050797E0
6.324475774E0,1.870500147E-1,2.550000191E0,7.873050213E0
6.344046145E0,2.440500110E-1,2.646000147E0,7.950000286E0
6.363615390E0,-1.305000018E-2,2.770050049E0,8.371050835E0
6.383183995E0,-3.289500177E-1,2.761050224E0,8.860050201E0
6.402751693E0,-5.209500194E-1,2.646000147E0,9.175950050E0
6.422317616E0,-5.110500455E-1,2.569050074E0,9.205050468E0
6.441888000E0,-3.480000198E-1,2.598000050E0,9.031949997E0
6.461456611E0,-1.090500057E-1,2.683950186E0,8.917050362E0
6.481028909E0,7.200000435E-2,2.740950108E0,8.935950279E0
6.500600972E0,1.870500147E-1,2.770050049E0,9.061050415E0
6.520174438E0,3.019500077E-1,2.683950186E0,9.166050911E0
6.539743351E0,4.260000288E-1,2.569050074E0,9.271950722E0
6.559313524E0,5.130000114E-1,2.502000093E0,9.454050064E0
6.578884370E0,5.800500512E-1,2.416050196E0,9.760050774E0
6.598453832E0,6.270000339E-1,2.320050001E0,1.014300060E1
6.618024384E0,5.800500512E-1,2.233950138E0,1.045005035E1
6.637594246E0,4.069500268E-1,2.157000065E0,1.051695061E1
6.657169952E0,2.059500068E-1,2.119050026E0,1.023900032E1
6.676743400E0,1.009500027E-1,2.100000143E0,9.904050827E0
6.696318486E0,2.400000021E-2,2.215050220E0,1.001895046E1
6.715888101E0,-1.950000077E-1,2.703000069E0,1.065105057E1
6.735460409E0,-3.769500256E-1,3.133950233E0,1.141695023E1
6.755031420E0,-1.860000044E-1,3.000000238E0,1.183800030E1
6.774607112E0,2.059500068E-1,2.598000050E0,1.173300076E1
6.794179737E0,4.930500090E-1,2.301000118E0,1.115805054E1
6.813748020E0,7.140000463E-1,2.100000143E0,1.036305046E1
6.833316049E0,6.750000119E-1,1.966050148E0,9.741000175E0
6.852885987E0,2.059500068E-1,1.993950129E0,9.481950760E0
6.872461058E0,-3.679500222E-1,2.089950085E0,9.262050629E0
6.892034294E0,-5.879999995E-1,2.109000206E0,8.956050873E0
6.911608746E0,-3.010500073E-1,2.032950163E0,8.725950241E0
6.931182520E0,1.770000011E-1,1.947000146E0,8.620050430E0
6.950751213E0,4.069500268E-1,1.927050114E0,8.563050270E0
6.970321597E0,2.350500077E-1,1.984950066E0,8.400000572E0
6.989893968E0,-2.140500098E-1,2.128950119E0,8.151000023E0
7.009463737E0,-7.410000563E-1,2.406000137E0,7.959000587E0
7.029035414E0,-1.075950027E0,2.788950205E0,7.777950287E0
7.048607415E0,-1.086000085E0,3.115050077E0,7.642950535E0
7.068177256E0,-8.850000501E-1,3.307050228E0,7.624050140E0
7.087748630E0,-6.840000153E-1,3.402000189E0,7.567050457E0
7.107321644E0,-5.209500194E-1,3.487950087E0,7.471050262E0
7.126901938E0,-3.870000243E-1,3.613050222E0,7.528950214E0
7.146480655E0,-3.679500222E-1,3.699000120E0,7.834950447E0
7.166057241E0,-4.249500334E-1,3.679950237E0,8.400000572E0
7.185641346E0,-5.500500202E-1,3.450000048E0,8.946000099E0
7.205228144E0,-7.219500542E-1,3.067050219E0,9.310050011E0
7.224816447E0,-9.040500522E-1,2.683950186E0,9.529950142E0
7.244411842E0,-9.610500336E-1,2.301000118E0,9.865050316E0
7.264014823E0,-8.460000157E-1,1.860000134E0,1.058400059E1
7.283617038E0,-8.179500103E-1,1.449000120E0,1.134000015E1
7.303216115E0,-1.027950048E0,1.219050050E0,1.171395016E1
7.322821572E0,-1.324950099E0,1.132050037E0,1.180005074E1
7.342413890E0,-1.507050037E0,1.093950033E0,1.183800030E1
7.361999808E0,-1.516950130E0,1.093950033E0,1.190505028E1
7.381580668E0,-1.488000035E0,1.246950030E0,1.180995083E1
7.401159843E0,-1.479000092E0,1.486950040E0,1.138800049E1
7.420737064E0,-1.450050116E0,1.659000039E0,1.077495098E1
7.440317295E0,-1.402050018E0,1.744950056E0,1.022895050E1
7.459899833E0,-1.335000038E0,1.774050117E0,9.904050827E0
7.479478304E0,-1.267950058E0,1.803000093E0,9.741000175E0
7.499057655E0,-1.171950102E0,1.812000036E0,9.682950020E0
7.518632626E0,-1.009050012E0,1.707000136E0,9.664050102E0
7.538207165E0,-7.699500322E-1,1.506000042E0,9.645000458E0
7.557786136E0,-5.400000215E-1,1.314000010E0,9.520950317E0
7.577364982E0,-3.580500185E-1,1.219050050E0,9.243000031E0
7.596942751E0,-3.010500073E-1,1.267050028E0,8.908050537E0
7.616519458E0,-4.150500298E-1,1.438950062E0,8.677950859E0
7.636097617E0,-5.689499974E-1,1.563000083E0,8.581950188E0
7.655677607E0,-5.779500008E-1,1.611000061E0,8.553000450E0
7.675258853E0,-4.440000355E-1,1.669050097E0,8.563050270E0
7.694841593E0,-3.010500073E-1,1.765050054E0,8.601000786E0
7.714426824E0,-1.660500020E-1,1.840950131E0,8.686950684E0
7.734011449E0,-6.105000153E-2,1.879950047E0,8.734950066E0
7.753591069E0,-2.295000106E-2,1.851000071E0,8.677950859E0
7.773168915E0,-9.900000691E-2,1.792950034E0,8.611050606E0
7.792747761E0,-2.430000156E-1,1.735950112E0,8.659049988E0
7.812326227E0,-4.060500264E-1,1.687950134E0,8.869050026E0
7.831894540E0,-6.169500351E-1,1.573050022E0,9.195000648E0
7.851473233E0,-7.990500331E-1,1.381950021E0,9.559050560E0
7.871050170E0,-9.040500522E-1,1.200000048E0,9.894000053E0
7.890626247E0,-9.229500294E-1,1.075049996E0,1.016205025E1
7.910203184E0,-8.850000501E-1,9.510000348E-1,1.042095089E1
7.929778539E0,-8.850000501E-1,8.359500170E-1,1.061205006E1
7.949353001E0,-9.709500670E-1,8.160000443E-1,1.073700047E1
7.968929852E0,-9.520500302E-1,9.979500771E-1,1.082295036E1
7.988507713E0,-7.320000529E-1,1.390950084E0,1.111995029E1
8.008083712E0,-3.390000165E-1,1.659000039E0,1.160805035E1
8.027654266E0,8.205000311E-2,1.506000042E0,1.176195049E1
8.047223805E0,7.200000435E-2,1.257000089E0,1.146495056E1
8.066798871E0,-4.729500115E-1,1.276050091E0,1.098600006E1
8.086368097E0,-1.162050009E0,1.516050100E0,1.047795010E1
8.105937343E0,-1.525950074E0,1.755000114E0,1.005705070E1
8.125510160E0,-1.431000113E0,1.908000112E0,9.789000511E0
8.145083391E0,-1.057050109E0,1.947000146E0,9.616050720E0
8.164661540E0,-7.320000529E-1,1.812000036E0,9.415050507E0
8.184240309E0,-7.410000563E-1,1.602000117E0,9.127950668E0
8.203822170E0,-1.057050109E0,1.429050088E0,8.725950241E0
8.223400708E0,-1.479000092E0,1.410000086E0,8.209050179E0
8.242976079E0,-1.795050144E0,1.495950103E0,7.738950253E0
8.262551684E0,-1.881000042E0,1.582950115E0,7.471050262E0
8.282128910E0,-1.852050066E0,1.602000117E0,7.318050385E0
8.301708602E0,-1.986000061E0,1.774050117E0,7.203000546E0
8.321290204E0,-2.206050158E0,2.167050123E0,7.393950462E0
8.340880035E0,-2.187000036E0,2.454000235E0,7.845000267E0
8.360464252E0,-1.900050044E0,2.454000235E0,8.188950539E0
8.380045478E0,-1.546050072E0,2.368050098E0,8.437950134E0
8.399627645E0,-1.354050040E0,2.338950157E0,8.638950348E0
8.419213483E0,-1.383000016E0,2.310000181E0,8.754000664E0
8.438797280E0,-1.507050037E0,2.215050220E0,9.031949997E0
8.458384362E0,-1.842000127E0,2.148000002E0,9.520950317E0
8.477966828E0,-2.245050192E0,2.157000065E0,9.979950905E0
8.497540905E0,-2.436000109E0,2.176050186E0,1.042095089E1
8.517109227E0,-2.311950207E0,2.157000065E0,1.091895008E1
8.536683073E0,-2.062950134E0,2.089950085E0,1.134000015E1
8.556259145E0,-1.996050119E0,2.071050167E0,1.146495056E1
8.575838549E0,-2.139000177E0,2.071050167E0,1.143600082E1
8.595417245E0,-2.254050016E0,1.936950088E0,1.136895084E1
8.614997309E0,-2.245050192E0,1.726050138E0,1.130205059E1
8.634577236E0,-2.158950090E0,1.563000083E0,1.113900089E1
8.654157563E0,-2.101050138E0,1.534950018E0,1.082295036E1
8.673734563E0,-2.101050138E0,1.630950093E0,1.046895027E1
8.693308333E0,-2.062950134E0,1.755000114E0,1.016205025E1
8.712887394E0,-1.957050085E0,1.870050073E0,9.913050652E0
8.732466548E0,-1.870950103E0,1.956000090E0,9.741000175E0
8.752039766E0,-1.765950084E0,1.984950066E0,9.693000793E0
8.771616679E0,-1.555050015E0,1.908000112E0,9.750000000E0
8.791193227E0,-1.276950002E0,1.744950056E0,9.769950867E0
8.810770227E0,-1.066950083E0,1.563000083E0,9.645000458E0
8.830345271E0,-9.420000315E-1,1.390950084E0,9.463050842E0
8.849927348E0,-9.130500555E-1,1.257000089E0,9.310050011E0
8.869500353E0,-9.610500336E-1,1.200000048E0,9.175950050E0
8.889073569E0,-1.018950105E0,1.200000048E0,9.070050240E0
8.908646809E0,-9.810000658E-1,1.237950087E0,8.974950790E0
8.928214425E0,-8.179500103E-1,1.324050069E0,8.850000381E0
8.947782502E0,-5.779500008E-1,1.495950103E0,8.697000504E0
8.967355651E0,-3.580500185E-1,1.726050138E0,8.485950470E0
8.986928261E0,-1.950000077E-1,1.947000146E0,8.227950096E0
9.006498800E0,-1.380000114E-1,2.109000206E0,8.017050743E0
9.026067723E0,-2.140500098E-1,2.196000099E0,7.845000267E0
9.045635419E0,-3.679500222E-1,2.224050045E0,7.729950428E0
9.065205184E0,-5.500500202E-1,2.242950201E0,7.681950569E0
9.084774199E0,-7.320000529E-1,2.253000021E0,7.701000214E0
9.104345814E0,-8.179500103E-1,2.215050220E0,7.845000267E0
9.123914496E0,-7.789500356E-1,2.080950022E0,8.218050003E0
9.143487665E0,-6.360000372E-1,1.840950131E0,8.965050697E0
9.163055377E0,-5.110500455E-1,1.621050119E0,9.979950905E0
9.182630236E0,-4.830000103E-1,1.534950018E0,1.066995049E1
9.202202866E0,-6.640500426E-1,1.621050119E0,1.075605011E1
9.221770501E0,-1.048050046E0,1.870050073E0,1.071795082E1
9.241341952E0,-1.392000079E0,2.205000162E0,1.100505066E1
9.260910568E0,-1.488000035E0,2.445000172E0,1.156095028E1
9.280485265E0,-1.267950058E0,2.397000074E0,1.200105095E1
9.300058188E0,-9.330000281E-1,2.176050186E0,1.205895042E1
9.319630568E0,-7.120500207E-1,2.023050070E0,1.173300076E1
9.339207188E0,-5.500500202E-1,1.993950129E0,1.129200077E1
9.358777626E0,-3.199500144E-1,1.984950066E0,1.103400040E1
9.378351395E0,2.400000021E-2,1.918050051E0,1.095705032E1
9.397927087E0,3.310500085E-1,1.774050117E0,1.083300018E1
9.417501862E0,4.840500355E-1,1.630950093E0,1.045005035E1
9.437080011E0,3.400500119E-1,1.621050119E0,9.778950691E0
9.456668616E0,-4.200000316E-2,1.783950090E0,8.887950897E0
9.476258141E0,-4.630500078E-1,2.014050007E0,7.959000587E0
9.495847982E0,-7.600500584E-1,2.205000162E0,7.308000565E0
9.515436664E0,-8.659500480E-1,2.358000040E0,6.982950211E0
9.535027111E0,-8.850000501E-1,2.530950069E0,6.772050381E0
9.554623717E0,-9.520500302E-1,2.751000166E0,6.609000206E0
9.574221486E0,-1.075950027E0,2.971050024E0,6.619050503E0
9.593816895E0,-1.201050043E0,3.133950233E0,6.849000454E0
9.613414126E0,-1.219950080E0,3.277950048E0,7.279950142E0
9.633009531E0,-1.153050065E0,3.402000189E0,7.882950306E0
9.652607483E0,-1.057050109E0,3.478950262E0,8.485950470E0
9.672199521E0,-1.086000085E0,3.556050062E0,9.013050079E0
9.691792680E0,-1.287000060E0,3.642000198E0,9.385950089E0
9.711374531E0,-1.507050037E0,3.718050241E0,9.607050896E0
9.730962006E0,-1.680000067E0,3.814050198E0,9.808050156E0
9.750545097E0,-1.833000064E0,3.967050076E0,1.020105076E1
9.770125646E0,-1.938000083E0,4.120950222E0,1.074600029E1
9.789704742E0,-1.957050085E0,4.234950066E0,1.123500061E1
9.809282275E0,-1.890000105E0,4.312050343E0,1.155105019E1
9.828858362E0,-1.756050110E0,4.321950436E0,1.170405102E1
9.848437670E0,-1.641000032E0,4.282950401E0,1.178100014E1
9.868011824E0,-1.593000054E0,4.188000202E0,1.177095032E1
9.887592828E0,-1.555050015E0,3.967050076E0,1.167495060E1
9.907176185E0,-1.479000092E0,3.565050125E0,1.148400021E1
9.926756117E0,-1.468950033E0,3.105000257E0,1.125405025E1
9.946334886E0,-1.546050072E0,2.674050093E0,1.090905094E1
9.965919208E0,-1.593000054E0,2.281949997E0,1.037295055E1
9.985502948E0,-1.612950087E0,1.966050148E0,9.760050774E0
1.000508140E1,-1.651050091E0,1.812000036E0,9.195000648E0
1.002465554E1,-1.728000045E0,1.755000114E0,8.773950577E0
1.004423639E1,-1.756050110E0,1.698000073E0,8.485950470E0
1.006382038E1,-1.785000086E0,1.639950037E0,8.332950592E0
1.008340690E1,-1.957050085E0,1.698000073E0,8.256000519E0
1.010299204E1,-2.119950056E0,1.879950047E0,8.266050339E0
1.012257917E1,-2.091000080E0,2.071050167E0,8.352000237E0
1.014216471E1,-2.091000080E0,2.329950094E0,8.447999954E0
1.016174831E1,-2.302050114E0,2.635950089E0,8.428950310E0
1.018133202E1,-2.551050186E0,2.932950258E0,8.161050797E0
1.020091826E1,-2.695050240E0,3.192000151E0,7.777950287E0
1.022050156E1,-2.628000021E0,3.354000092E0,7.471050262E0
1.024008342E1,-2.331000090E0,3.402000189E0,7.288950443E0
1.025966619E1,-1.986000061E0,3.393000126E0,7.231950283E0
1.027925200E1,-1.765950084E0,3.430950165E0,7.231950283E0
1.029883917E1,-1.708050132E0,3.517050266E0,7.270050526E0
1.031842224E1,-1.842000127E0,3.583950281E0,7.356000423E0
1.033800739E1,-2.082000017E0,3.622950077E0,7.480950356E0
1.035759484E1,-2.293050051E0,3.661050081E0,7.663050175E0
1.037718130E1,-2.416950226E0,3.727950096E0,7.854000568E0
1.039676500E1,-2.464950085E0,3.852000237E0,8.161050797E0
1.041634646E1,-2.379000187E0,4.024950027E0,8.668050766E0
1.043592646E1,-2.139000177E0,4.188000202E0,9.291000366E0
1.045550684E1,-1.870950103E0,4.312050343E0,9.789000511E0
1.047509024E1,-1.708050132E0,4.341000080E0,1.005705070E1
1.049467916E1,-1.680000067E0,4.273950100E0,1.016205025E1
1.051426741E1,-1.737000108E0,4.255050182E0,1.018095016E1
1.053385172E1,-1.728000045E0,4.321950436E0,1.023900032E1
1.055344094E1,-1.431000113E0,4.273950100E0,1.040205002E1
1.057302901E1,-9.040500522E-1,4.006050110E0,1.051695061E1
1.059261418E1,-4.540500343E-1,3.670050144E0,1.032495022E1
1.061219518E1,-2.910000086E-1,3.487950087E0,9.894000053E0
1.063178044E1,-3.480000198E-1,3.430950165E0,9.433950424E0
1.065136014E1,-3.580500185E-1,3.268050194E0,9.013050079E0
1.067094038E1,-1.380000114E-1,3.076950073E0,8.649000168E0
1.069051647E1,3.109500110E-1,2.923050165E0,8.371050835E0
1.071008878E1,6.940500140E-1,2.904000044E0,8.400000572E0
1.072966872E1,7.710000277E-1,3.067050219E0,8.802000046E0
1.074925220E1,6.750000119E-1,3.085950136E0,9.205050468E0
1.076883553E1,5.130000114E-1,2.836950064E0,9.280950546E0
1.078841837E1,2.639999986E-1,2.607000113E0,9.031949997E0
1.080800206E1,-7.995000482E-2,2.626950026E0,8.686950684E0
1.082759128E1,-4.440000355E-1,2.799000025E0,8.419050217E0
1.084717644E1,-6.259500384E-1,2.943000078E0,8.256000519E0
1.086675744E1,-6.169500351E-1,3.144000053E0,8.218050003E0
1.088634114E1,-5.209500194E-1,3.487950087E0,8.295000076E0
1.090592360E1,-4.249500334E-1,3.852000237E0,8.362050056E0
1.092550637E1,-3.769500256E-1,4.111050129E0,8.380949974E0
1.094509129E1,-5.110500455E-1,4.273950100E0,8.428950310E0
1.096467895E1,-7.699500322E-1,4.369950294E0,8.563050270E0
1.098426411E1,-9.900000691E-1,4.378950119E0,8.716050148E0
1.100385032E1,-1.105050087E0,4.282950401E0,8.830950737E0
1.102343401E1,-1.171950102E0,4.159049988E0,8.926950455E0
1.104302046E1,-1.210050106E0,4.111050129E0,9.109050751E0
1.106260323E1,-1.239000082E0,4.081950188E0,9.367050171E0
1.108218755E1,-1.219950080E0,4.006050110E0,9.664050102E0
1.110176969E1,-1.171950102E0,3.880950212E0,9.922950745E0
1.112135462E1,-1.249050021E0,3.843000174E0,1.008600044E1
1.114093545E1,-1.440000057E0,3.891000271E0,1.020105076E1
1.116051369E1,-1.573950052E0,3.871950150E0,1.033500004E1
1.118009333E1,-1.612950087E0,3.805050135E0,1.050705051E1
1.119966840E1,-1.584000111E0,3.843000174E0,1.068900013E1
1.121924966E1,-1.411050081E0,3.880950212E0,1.082295036E1
1.123883004E1,-1.095000029E0,3.709050179E0,1.087095070E1
1.125841865E1,-8.080500364E-1,3.373950243E0,1.079400063E1
1.127800451E1,-7.030500174E-1,3.028950214E0,1.054500008E1
1.129758876E1,-7.890000343E-1,2.779950142E0,1.022895050E1
1.131717214E1,-9.330000281E-1,2.530950069E0,9.942000389E0
1.133676015E1,-1.038000107E0,2.329950094E0,9.693000793E0
1.135634916E1,-1.171950102E0,2.253000021E0,9.481950760E0
1.137594453E1,-1.258050084E0,2.253000021E0,9.300000191E0
1.139554665E1,-1.134000063E0,2.196000099E0,9.127950668E0
1.141515002E1,-8.749500513E-1,2.148000002E0,8.917050362E0
1.143474694E1,-6.450000405E-1,2.167050123E0,8.754000664E0
1.145434017E1,-4.920000136E-1,2.242950201E0,8.620050430E0
1.147393340E1,-3.769500256E-1,2.368050098E0,8.458050728E0
1.149352377E1,-3.100500107E-1,2.539950132E0,8.314050674E0
1.151310839E1,-3.289500177E-1,2.722050190E0,8.236949921E0
1.153269182E1,-3.480000198E-1,2.866050243E0,8.227950096E0
1.155227481E1,-2.910000086E-1,3.019050121E0,8.389950752E0
1.157185457E1,-1.570500135E-1,3.144000053E0,8.677950859E0
1.159143826E1,-4.050000105E-3,3.153000116E0,8.812050819E0
1.161102555E1,4.950000439E-3,3.096000195E0,8.764050484E0
1.163060842E1,-1.759500057E-1,3.144000053E0,8.754000664E0
1.165019327E1,-4.060500264E-1,3.316050053E0,8.869050026E0
1.166978002E1,-5.020500422E-1,3.450000048E0,9.042000771E0
1.168936218E1,-4.440000355E-1,3.421050072E0,9.243000031E0
1.170894533E1,-3.289500177E-1,3.345000267E0,9.415050507E0
1.172852781E1,-1.950000077E-1,3.354000092E0,9.559050560E0
1.174810897E1,-4.050000105E-3,3.469050169E0,9.721950531E0
1.176769336E1,2.830500007E-1,3.583950281E0,9.865050316E0
1.178727174E1,5.320500135E-1,3.642000198E0,9.913050652E0
1.180685421E1,6.180000305E-1,3.727950096E0,9.837000847E0
1.182643575E1,5.130000114E-1,3.919050217E0,9.693000793E0
1.184602044E1,3.880500197E-1,4.081950188E0,9.597000122E0
1.186560653E1,5.320500135E-1,4.092000008E0,9.673950195E0
1.188519206E1,9.720000625E-1,4.063050270E0,9.931950569E0
1.190477605E1,1.518000126E0,4.024950027E0,1.014300060E1
1.192435761E1,1.948950052E0,3.718050241E0,1.008600044E1
1.194393914E1,2.074050188E0,3.144000053E0,9.760050774E0
1.196352381E1,1.719000101E0,2.646000147E0,9.310050011E0
1.198310656E1,1.039050102E0,2.434950113E0,8.878950119E0
1.200268595E1,3.499500155E-1,2.406000137E0,8.638950348E0
1.202226319E1,-7.995000482E-2,2.386950016E0,8.668050766E0
1.204183514E1,-1.469999999E-1,2.329950094E0,8.926950455E0
1.206140723E1,4.950000439E-3,2.281949997E0,9.223950386E0
1.208098014E1,1.099500060E-1,2.329950094E0,9.376950264E0
1.210055237E1,8.205000311E-2,2.464050055E0,9.291000366E0
1.212013237E1,4.950000439E-3,2.569050074E0,9.022950172E0
1.213970568E1,-9.900000691E-2,2.674050093E0,8.725950241E0
1.215927697E1,-2.140500098E-1,2.904000044E0,8.524950027E0
1.217885367E1,-3.199500144E-1,3.220050097E0,8.380949974E0
1.219842564E1,-3.769500256E-1,3.478950262E0,8.236949921E0
1.221800011E1,-3.100500107E-1,3.651000261E0,8.131950378E0
1.223758402E1,-7.995000482E-2,3.814050198E0,8.113050461E0
1.225716308E1,2.160000056E-1,3.976950169E0,8.218050003E0
1.227674040E1,4.549500346E-1,4.081950188E0,8.389950752E0
1.229631824E1,6.079500318E-1,4.072950363E0,8.581950188E0
1.231589693E1,7.039500475E-1,4.044000149E0,8.734950066E0
1.233547486E1,7.140000463E-1,4.101000309E0,8.887950897E0
1.235504867E1,5.700000525E-1,4.225950241E0,9.118050575E0
1.237462428E1,3.310500085E-1,4.303050041E0,9.406050682E0
1.239420520E1,1.009500027E-1,4.245000362E0,9.760050774E0
1.241378252E1,-3.195000067E-2,4.063050270E0,1.018095016E1
1.243336035E1,2.400000021E-2,3.862050295E0,1.058400059E1
1.245293162E1,2.639999986E-1,3.709050179E0,1.086105061E1
1.247250215E1,5.029500127E-1,3.450000048E0,1.098600006E1
1.249207410E1,5.029500127E-1,3.115050077E0,1.095705032E1
1.251165051E1,1.290000081E-1,2.962050200E0,1.066995049E1
1.253122651E1,-3.870000243E-1,2.884950161E0,1.021005058E1
1.255080221E1,-7.510500550E-1,2.703000069E0,9.894000053E0
1.257037515E1,-9.040500522E-1,2.512050152E0,9.894000053E0
1.258994468E1,-9.040500522E-1,2.473050117E0,1.000905037E1
1.260951908E1,-8.370000124E-1,2.491950035E0,1.002795029E1
1.262908901E1,-8.179500103E-1,2.416050196E0,9.894000053E0
1.264866030E1,-9.520500302E-1,2.310000181E0,9.616050720E0
1.266824463E1,-1.171950102E0,2.224050045E0,9.339000702E0
1.268783026E1,-1.344000101E0,2.157000065E0,9.127950668E0
1.270741234E1,-1.402050018E0,2.148000002E0,8.965050697E0
1.272699610E1,-1.324950099E0,2.185950041E0,8.869050026E0
1.274658319E1,-1.114950061E0,2.224050045E0,8.830950737E0
1.276617092E1,-8.269500136E-1,2.253000021E0,8.898000717E0
1.278575678E1,-5.400000215E-1,2.301000118E0,9.022950172E0
1.280533583E1,-2.430000156E-1,2.397000074E0,9.109050751E0
1.282492002E1,4.305000231E-2,2.512050152E0,9.013050079E0
1.284450339E1,1.680000126E-1,2.655000210E0,8.734950066E0
1.286408378E1,5.295000225E-2,2.904000044E0,8.505000114E0
1.288365968E1,-1.660500020E-1,3.192000151E0,8.458050728E0
1.290323793E1,-3.580500185E-1,3.364050150E0,8.515049934E0
1.292282561E1,-5.110500455E-1,3.382950068E0,8.611050606E0
1.294241207E1,-6.259500384E-1,3.345000267E0,8.697000504E0
1.296199240E1,-6.840000153E-1,3.345000267E0,8.764050484E0
1.298157265E1,-6.360000372E-1,3.402000189E0,8.812050819E0
1.300115787E1,-5.209500194E-1,3.498000145E0,8.860050201E0
1.302073794E1,-3.870000243E-1,3.603000164E0,8.869050026E0
1.304031233E1,-2.910000086E-1,3.699000120E0,8.841000557E0
1.305988995E1,-3.010500073E-1,3.766050100E0,8.812050819E0
1.307946317E1,-3.480000198E-1,3.823950291E0,8.802000046E0
1.309904217E1,-3.480000198E-1,3.832950115E0,8.841000557E0
1.311862094E1,-3.010500073E-1,3.823950291E0,8.926950455E0
1.313819849E1,-3.010500073E-1,3.852000237E0,9.109050751E0
1.315777463E1,-3.289500177E-1,3.814050198E0,9.424950600E0
1.317735156E1,-3.199500144E-1,3.613050222E0,9.846000671E0
1.319692781E1,-3.010500073E-1,3.364050150E0,1.020105076E1
1.321650661E1,-2.050500065E-1,3.105000257E0,1.035405064E1
1.323608206E1,8.205000311E-2,2.788950205E0,1.038300037E1
1.325565530E1,5.029500127E-1,2.473050117E0,1.044000053E1
1.327523283E1,8.860500455E-1,2.272050142E0,1.042095089E1
1.329481028E1,1.068000078E0,2.148000002E0,1.021005058E1
1.331438545E1,9.910500646E-1,2.052000046E0,9.817050934E0
1.333396638E1,6.850500107E-1,2.100000143E0,9.367050171E0
1.335354445E1,3.589500189E-1,2.310000181E0,9.042000771E0
1.337311615E1,3.019500077E-1,2.512050152E0,8.917050362E0
1.339268907E1,5.599500537E-1,2.559000015E0,8.935950279E0
1.341226544E1,9.150000215E-1,2.491950035E0,9.013050079E0
1.343184206E1,1.030050039E0,2.464050055E0,9.031949997E0
1.345141898E1,8.479500413E-1,2.464050055E0,8.917050362E0
1.347099712E1,5.029500127E-1,2.473050117E0,8.716050148E0
1.349057303E1,1.200000048E-1,2.502000093E0,8.524950027E0
1.351015027E1,-1.950000077E-1,2.635950089E0,8.458050728E0
1.352972726E1,-4.060500264E-1,2.856000185E0,8.553000450E0
1.354930196E1,-4.729500115E-1,3.048000097E0,8.707050323E0
1.356887404E1,-4.150500298E-1,3.153000116E0,8.860050201E0
1.358844264E1,-2.910000086E-1,3.238950253E0,9.022950172E0
1.360801181E1,-1.279500127E-1,3.316050053E0,9.205050468E0
1.362758448E1,5.295000225E-2,3.354000092E0,9.376950264E0
1.364716169E1,1.290000081E-1,3.393000126E0,9.540000916E0
1.366673646E1,1.500000060E-2,3.441000223E0,9.703050613E0
1.368630968E1,-1.469999999E-1,3.412050247E0,9.856050491E0
1.370588099E1,-2.430000156E-1,3.259050131E0,9.961050034E0
1.372545083E1,-3.010500073E-1,3.096000195E0,1.003800011E1
1.374502497E1,-3.390000165E-1,3.028950214E0,1.010505009E1
1.376459852E1,-3.390000165E-1,2.971050024E0,1.012395000E1
1.378416651E1,-2.809500098E-1,2.875950098E0,1.004700089E1
1.380372905E1,-2.050500065E-1,2.779950142E0,9.894000053E0
1.382328895E1,-1.759500057E-1,2.722050190E0,9.703050613E0
1.384286124E1,-2.340000123E-1,2.713050127E0,9.481950760E0
1.386243079E1,-3.480000198E-1,2.751000166E0,9.243000031E0
1.388200010E1,-4.249500334E-1,2.788950205E0,9.042000771E0
1.390157172E1,-4.830000103E-1,2.847000122E0,8.926950455E0
1.392114532E1,-5.779500008E-1,3.010050058E0,8.887950897E0
1.394071764E1,-6.840000153E-1,3.172050238E0,8.908050537E0
1.396028625E1,-6.930000186E-1,3.181950092E0,9.042000771E0
1.397985232E1,-6.169500351E-1,3.105000257E0,9.291000366E0
1.399942278E1,-5.500500202E-1,3.028950214E0,9.520950317E0
1.401899448E1,-5.970000029E-1,2.952000141E0,9.664050102E0
1.403855825E1,-7.789500356E-1,2.875950098E0,9.703050613E0
1.405812678E1,-9.520500302E-1,2.827950239E0,9.682950020E0
1.407769450E1,-9.610500336E-1,2.731950045E0,9.712050438E0
1.409726711E1,-8.179500103E-1,2.587950230E0,9.952050209E0
1.411683879E1,-6.169500351E-1,2.397000074E0,1.033500004E1
1.413640904E1,-4.440000355E-1,2.119050026E0,1.058400059E1
1.415598190E1,-3.580500185E-1,1.735950112E0,1.050705051E1
1.417555790E1,-4.350000322E-1,1.420050025E0,1.011405087E1
1.419513512E1,-6.930000186E-1,1.294950008E0,9.559050560E0
1.421471210E1,-9.610500336E-1,1.333950043E0,9.022950172E0
1.423428994E1,-1.075950027E0,1.477050066E0,8.572050095E0
1.425386656E1,-1.038000107E0,1.650000095E0,8.266050339E0
1.427344257E1,-9.040500522E-1,1.870050073E0,8.140950203E0
1.429301979E1,-7.410000563E-1,2.157000065E0,8.218050003E0
1.431260379E1,-6.070500016E-1,2.454000235E0,8.428950310E0
1.433218681E1,-4.920000136E-1,2.626950026E0,8.601000786E0
1.435176866E1,-4.150500298E-1,2.646000147E0,8.697000504E0
1.437135366E1,-4.249500334E-1,2.655000210E0,8.754000664E0
1.439093949E1,-5.110500455E-1,2.731950045E0,8.860050201E0
1.441052476E1,-5.970000029E-1,2.847000122E0,9.013050079E0
1.443011153E1,-5.590500236E-1,2.943000078E0,9.175950050E0
1.444969551E1,-4.920000136E-1,3.048000097E0,9.328950882E0
1.446928341E1,-4.440000355E-1,3.133950233E0,9.492000580E0
1.448886987E1,-4.150500298E-1,3.144000053E0,9.616050720E0
1.450845697E1,-4.150500298E-1,3.067050219E0,9.673950195E0
1.452804443E1,-4.830000103E-1,3.028950214E0,9.655050278E0
1.454763420E1,-6.360000372E-1,3.028950214E0,9.616050720E0
1.456722160E1,-7.699500322E-1,2.989950180E0,9.607050896E0
1.458680566E1,-8.560500145E-1,2.914050102E0,9.712050438E0
1.460638991E1,-8.940000534E-1,2.827950239E0,9.931950569E0
1.462597055E1,-8.560500145E-1,2.713050127E0,1.011405087E1
1.464554959E1,-6.840000153E-1,2.550000191E0,1.024800014E1
1.466513428E1,-4.249500334E-1,2.338950157E0,1.039200020E1
1.468472160E1,-2.239500135E-1,2.176050186E0,1.057395077E1
1.470430414E1,-1.759500057E-1,2.137950182E0,1.066995049E1
1.472388035E1,-1.660500020E-1,2.137950182E0,1.053600025E1
1.474345304E1,-1.380000114E-1,2.109000206E0,1.022895050E1
1.476302251E1,-1.090500057E-1,2.137950182E0,9.931950569E0
1.478259020E1,1.500000060E-2,2.185950041E0,9.741000175E0
1.480215942E1,3.589500189E-1,2.119050026E0,9.682950020E0
1.482173079E1,7.999500632E-1,2.004000187E0,9.837000847E0
1.484129825E1,1.039050102E0,2.014050007E0,1.009500027E1
1.486086709E1,1.011000037E0,2.032950163E0,1.035405064E1
1.488043601E1,9.049500227E-1,1.840950131E0,1.047795010E1
1.490000340E1,8.089500666E-1,1.573050022E0,1.032495022E1
1.491956717E1,6.850500107E-1,1.458000064E0,1.005705070E1
1.493913301E1,5.599500537E-1,1.495950103E0,9.856050491E0
1.495869970E1,4.450500309E-1,1.611000061E0,9.682950020E0
1.497826563E1,4.170000255E-1,1.707000136E0,9.472949982E0
1.499783386E1,4.360500276E-1,1.783950090E0,9.184950829E0
1.501740125E1,4.069500268E-1,1.888950109E0,8.841000557E0
1.503696962E1,2.830500007E-1,2.032950163E0,8.476950645E0
1.505654306E1,5.295000225E-2,2.205000162E0,8.188950539E0
1.507610952E1,-1.469999999E-1,2.368050098E0,8.035950661E0
1.509567082E1,-2.620500028E-1,2.491950035E0,8.035950661E0
1.511523138E1,-3.480000198E-1,2.598000050E0,8.179950714E0
1.513479907E1,-4.350000322E-1,2.740950108E0,8.380949974E0
1.515436861E1,-4.630500078E-1,2.836950064E0,8.524950027E0
1.517393783E1,-4.440000355E-1,2.856000185E0,8.620050430E0
1.519350707E1,-4.350000322E-1,2.847000122E0,8.745000839E0
1.521306859E1,-5.110500455E-1,2.866050243E0,8.956050873E0
1.523263534E1,-6.640500426E-1,2.847000122E0,9.195000648E0
1.525220641E1,-8.179500103E-1,2.779950142E0,9.376950264E0
1.527177572E1,-8.850000501E-1,2.703000069E0,9.549000740E0
1.529134671E1,-8.659500480E-1,2.646000147E0,9.730950356E0
1.531091532E1,-8.749500513E-1,2.550000191E0,9.979950905E0
1.533048391E1,-9.330000281E-1,2.358000040E0,1.030605030E1
1.535005383E1,-9.420000315E-1,2.148000002E0,1.067895031E1
1.536962854E1,-9.130500555E-1,1.966050148E0,1.085205078E1
1.538920553E1,-9.040500522E-1,1.840950131E0,1.078500080E1
1.540878699E1,-8.460000157E-1,1.840950131E0,1.073700047E1
1.542836269E1,-7.890000343E-1,1.908000112E0,1.062195015E1
1.544793192E1,-7.990500331E-1,1.993950129E0,1.041105080E1
1.546749964E1,-8.749500513E-1,1.966050148E0,1.016205025E1
1.548707134E1,-1.038000107E0,1.899000049E0,1.004700089E1
1.550664894E1,-1.267950058E0,1.947000146E0,1.001895046E1
1.552622002E1,-1.344000101E0,2.071050167E0,9.961050034E0
1.554579657E1,-1.123950005E0,2.148000002E0,9.913050652E0
1.556537480E1,-8.269500136E-1,2.176050186E0,9.778950691E0
1.558495388E1,-7.410000563E-1,2.148000002E0,9.511050224E0
1.560453318E1,-8.659500480E-1,2.041949987E0,9.109050751E0
1.562410803E1,-1.134000063E0,1.899000049E0,8.697000504E0
1.564368705E1,-1.392000079E0,1.812000036E0,8.389950752E0
1.566326705E1,-1.536000013E0,1.792950034E0,8.179950714E0
1.568284828E1,-1.411050081E0,1.803000093E0,8.017050743E0
1.570243238E1,-1.018950105E0,1.755000114E0,7.854000568E0
1.572201330E1,-6.739500165E-1,1.698000073E0,7.921050549E0
1.574159112E1,-5.879999995E-1,1.726050138E0,8.352000237E0
1.576116251E1,-5.779500008E-1,1.717050076E0,8.887950897E0
1.578074181E1,-4.630500078E-1,1.525050044E0,9.291000366E0
1.580032066E1,-2.809500098E-1,1.333950043E0,9.492000580E0
1.581989875E1,-1.660500020E-1,1.353000045E0,9.511050224E0
1.583947598E1,-2.140500098E-1,1.573050022E0,9.540000916E0
1.585905268E1,-3.580500185E-1,1.840950131E0,9.682950020E0
1.587862955E1,-4.540500343E-1,2.032950163E0,9.865050316E0
1.589820924E1,-4.830000103E-1,2.119050026E0,9.970950127E0
1.591779268E1,-5.209500194E-1,2.148000002E0,1.000905037E1
1.593737630E1,-5.500500202E-1,2.157000065E0,1.002795029E1
1.595695730E1,-5.689499974E-1,2.215050220E0,9.970950127E0
1.597653854E1,-5.400000215E-1,2.310000181E0,9.874950409E0
1.599611821E1,-4.540500343E-1,2.397000074E0,9.760050774E0
1.601570152E1,-2.809500098E-1,2.425050020E0,9.673950195E0
1.603528520E1,-4.200000316E-2,2.416050196E0,9.693000793E0
1.605486467E1,2.160000056E-1,2.386950016E0,9.952050209E0
1.607444334E1,4.069500268E-1,2.349000216E0,1.026795006E1
1.609402465E1,5.220000148E-1,2.368050098E0,1.050705051E1
1.611360433E1,6.469500065E-1,2.310000181E0,1.072695065E1
1.613318856E1,8.760000467E-1,2.109000206E0,1.093800068E1
1.615277531E1,1.096950054E0,1.956000090E0,1.104300022E1
1.617235193E1,1.105949998E0,1.918050051E0,1.092795086E1
1.619192268E1,9.720000625E-1,1.888950109E0,1.061205006E1
1.621149597E1,8.190000653E-1,1.831950068E0,1.021005058E1
1.623106922E1,6.940500140E-1,1.792950034E0,9.913050652E0
1.625063939E1,5.509500504E-1,1.726050138E0,9.655050278E0
1.627020678E1,4.549500346E-1,1.591950059E0,9.300000191E0
1.628977707E1,4.740000367E-1,1.410000086E0,8.956050873E0
1.630934824E1,5.220000148E-1,1.189950109E0,8.802000046E0
1.632891872E1,4.840500355E-1,9.220500588E-1,8.917050362E0
1.634849164E1,3.310500085E-1,6.820500493E-1,9.195000648E0
1.636806456E1,1.200000048E-1,5.200500488E-1,9.367050171E0
1.638763906E1,-1.469999999E-1,5.200500488E-1,9.310050011E0
1.640721322E1,-4.060500264E-1,5.959500074E-1,9.051000595E0
1.642678792E1,-6.070500016E-1,5.580000281E-1,8.782950401E0
1.644635560E1,-8.179500103E-1,5.770500302E-1,8.649000168E0
1.646592454E1,-1.038000107E0,7.489500642E-1,8.745000839E0
1.648549569E1,-1.153050065E0,9.120000601E-1,8.917050362E0
1.650506371E1,-1.095000029E0,1.008000016E0,9.109050751E0
1.652463141E1,-9.130500555E-1,1.075049996E0,9.339000702E0
1.654420095E1,-7.320000529E-1,1.209000111E0,9.568050385E0
1.656377634E1,-6.070500016E-1,1.314000010E0,9.931950569E0
1.658334858E1,-5.689499974E-1,1.305000067E0,1.035405064E1
1.660292898E1,-6.840000153E-1,1.333950043E0,1.054500008E1
1.662250660E1,-8.560500145E-1,1.486950040E0,1.052595043E1
1.664208167E1,-1.027950048E0,1.735950112E0,1.034400082E1
1.666165667E1,-1.191000104E0,2.023050070E0,1.006605053E1
1.668122898E1,-1.306050062E0,2.310000181E0,9.817050934E0
1.670080135E1,-1.297050118E0,2.550000191E0,9.750000000E0
1.672038097E1,-1.162050009E0,2.713050127E0,9.894000053E0
1.673996251E1,-9.520500302E-1,2.779950142E0,1.017195034E1
1.675954753E1,-7.510500550E-1,2.788950205E0,1.038300037E1
1.677913082E1,-6.259500384E-1,2.799000025E0,1.042995071E1
1.679871798E1,-6.070500016E-1,2.818050146E0,1.031505013E1
1.681830254E1,-7.120500207E-1,2.895000219E0,1.006605053E1
1.683788352E1,-8.269500136E-1,2.962050200E0,9.826950073E0
1.685746813E1,-8.370000124E-1,2.943000078E0,9.645000458E0
1.687704997E1,-7.990500331E-1,2.914050102E0,9.501000404E0
1.689662720E1,-7.320000529E-1,2.866050243E0,9.376950264E0
1.691620619E1,-6.450000405E-1,2.770050049E0,9.252000809E0
1.693578465E1,-6.259500384E-1,2.683950186E0,9.147000313E0
1.695536096E1,-7.410000563E-1,2.683950186E0,8.994000435E0
1.697493817E1,-8.850000501E-1,2.722050190E0,8.782950401E0
1.699452064E1,-1.018950105E0,2.770050049E0,8.553000450E0
1.701409580E1,-1.182000041E0,2.827950239E0,8.295000076E0
1.703368035E1,-1.372950077E0,2.914050102E0,8.046000481E0
1.705326225E1,-1.498050094E0,3.000000238E0,7.825050354E0
1.707284679E1,-1.507050037E0,2.980950117E0,7.576050282E0
1.709243573E1,-1.459050059E0,2.895000219E0,7.414050579E0
1.711202128E1,-1.498050094E0,2.904000044E0,7.567050457E0
1.713160066E1,-1.546050072E0,3.085950136E0,8.035950661E0
1.715118094E1,-1.450050116E0,3.153000116E0,8.563050270E0
1.717076096E1,-1.239000082E0,3.028950214E0,8.926950455E0
1.719033635E1,-1.123950005E0,2.952000141E0,9.070050240E0
1.720990805E1,-1.105050087E0,3.028950214E0,9.022950172E0
1.722948712E1,-1.143000007E0,3.229950190E0,8.946000099E0
1.724906135E1,-1.219950080E0,3.441000223E0,8.917050362E0
1.726863304E1,-1.210050106E0,3.603000164E0,8.935950279E0
1.728820928E1,-1.000050068E0,3.699000120E0,9.051000595E0
1.730778753E1,-6.930000186E-1,3.736950159E0,9.262050629E0
1.732736505E1,-4.249500334E-1,3.766050100E0,9.454050064E0
1.734694505E1,-2.530499995E-1,3.747000217E0,9.559050560E0
1.736652128E1,-2.620500028E-1,3.757050276E0,9.588000298E0
1.738609982E1,-3.480000198E-1,3.766050100E0,9.673950195E0
1.740567548E1,-4.060500264E-1,3.775950193E0,9.865050316E0
1.742525484E1,-4.350000322E-1,3.757050276E0,1.005705070E1
1.744483384E1,-4.150500298E-1,3.622950077E0,1.013400078E1
1.746440901E1,-3.679500222E-1,3.316050053E0,1.004700089E1
1.748398522E1,-4.150500298E-1,3.000000238E0,9.808050156E0
1.750356037E1,-5.299500227E-1,2.703000069E0,9.568050385E0
1.752314030E1,-6.070500016E-1,2.338950157E0,9.472949982E0
1.754271908E1,-6.360000372E-1,2.041949987E0,9.520950317E0
1.756229856E1,-6.550500393E-1,1.879950047E0,9.712050438E0
1.758187754E1,-6.169500351E-1,1.765050054E0,9.999000549E0
1.760146093E1,-5.299500227E-1,1.678050041E0,1.031505013E1
1.762104069E1,-4.060500264E-1,1.621050119E0,1.056405067E1
1.764061569E1,-7.995000482E-2,1.486950040E0,1.070805073E1
1.766019014E1,4.450500309E-1,1.246950030E0,1.073700047E1
1.767976593E1,9.150000215E-1,1.018050075E0,1.071795082E1
1.769934347E1,1.078050017E0,9.220500588E-1,1.062195015E1
1.771892040E1,9.720000625E-1,9.700500369E-1,1.028700066E1
1.773849848E1,7.620000243E-1,1.123050094E0,9.682950020E0
1.775807602E1,4.260000288E-1,1.401000023E0,8.994000435E0
1.777765330E1,4.950000439E-3,1.744950056E0,8.476950645E0
1.779722775E1,-2.809500098E-1,1.966050148E0,8.247000694E0
1.781680314E1,-3.390000165E-1,2.041949987E0,8.179950714E0
1.783637904E1,-2.809500098E-1,2.137950182E0,8.256000519E0
1.785595287E1,-2.620500028E-1,2.272050142E0,8.476950645E0
1.787552954E1,-2.340000123E-1,2.338950157E0,8.754000664E0
1.789510648E1,-1.469999999E-1,2.320050001E0,9.051000595E0
1.791467969E1,-1.279500127E-1,2.263050079E0,9.319050789E0
1.793425500E1,-2.620500028E-1,2.196000099E0,9.549000740E0
1.795383223E1,-5.209500194E-1,2.137950182E0,9.703050613E0
1.797341169E1,-7.789500356E-1,2.071050167E0,9.712050438E0
1.799299016E1,-1.000050068E0,2.041949987E0,9.616050720E0
1.801256614E1,-1.230000019E0,2.100000143E0,9.454050064E0
1.803214483E1,-1.440000057E0,2.310000181E0,9.291000366E0
1.805172298E1,-1.573950052E0,2.607000113E0,9.252000809E0
1.807129806E1,-1.525950074E0,2.779950142E0,9.367050171E0
1.809087382E1,-1.344000101E0,2.713050127E0,9.529950142E0
1.811044862E1,-1.324950099E0,2.512050152E0,9.760050774E0
1.813002157E1,-1.584000111E0,2.301000118E0,1.014300060E1
1.814959780E1,-1.966950059E0,1.993950129E0,1.063200092E1
1.816917049E1,-2.311950207E0,1.602000117E0,1.108200073E1
1.818874918E1,-2.560950041E0,1.237950087E0,1.146495056E1
1.820832802E1,-2.628000021E0,9.310500622E-1,1.170405102E1
1.822790679E1,-2.464950085E0,5.770500302E-1,1.171395016E1
1.824747872E1,-2.302050114E0,3.379500210E-1,1.143600082E1
1.826704674E1,-2.416950226E0,4.429500103E-1,1.094805050E1
1.828661420E1,-2.647050142E0,7.300500274E-1,1.038300037E1
1.830618282E1,-2.752050161E0,8.830500245E-1,9.856050491E0
1.832575361E1,-2.781000137E0,9.409500360E-1,9.463050842E0
1.834532780E1,-2.818950176E0,1.018050075E0,9.157050133E0
1.836490441E1,-2.829000235E0,1.104000092E0,8.946000099E0
1.838448401E1,-2.761950016E0,1.161000013E0,8.860050201E0
1.840406378E1,-2.532000065E0,1.209000111E0,8.965050697E0
1.842364215E1,-2.226000071E0,1.314000010E0,9.195000648E0
1.844321946E1,-1.918950081E0,1.381950021E0,9.376950264E0
1.846279846E1,-1.593000054E0,1.324050069E0,9.328950882E0
1.848237392E1,-1.324950099E0,1.305000067E0,8.983950615E0
1.850194437E1,-1.276950002E0,1.449000120E0,8.496000290E0
1.852152070E1,-1.383000016E0,1.726050138E0,8.122050285E0
1.854109449E1,-1.525950074E0,1.993950129E0,7.902000427E0
1.856066650E1,-1.689000130E0,2.148000002E0,7.806000233E0
1.858023908E1,-1.881000042E0,2.224050045E0,7.825050354E0
1.859981877E1,-2.082000017E0,2.272050142E0,7.882950306E0
1.861939876E1,-2.197050095E0,2.281949997E0,8.006999969E0
1.863898090E1,-2.215950012E0,2.242950201E0,8.236949921E0
1.865855540E1,-2.254050016E0,2.167050123E0,8.592000008E0
1.867813533E1,-2.359950066E0,2.061000109E0,8.898000717E0
1.869771166E1,-2.484000206E0,1.966050148E0,9.070050240E0
1.871729012E1,-2.560950041E0,1.803000093E0,9.243000031E0
1.873686927E1,-2.512950182E0,1.563000083E0,9.444000244E0
1.875644833E1,-2.350050211E0,1.342950106E0,9.616050720E0
1.877602580E1,-2.110949993E0,1.228050113E0,9.721950531E0
1.879560311E1,-1.881000042E0,1.305000067E0,9.730950356E0
1.881517943E1,-1.822950125E0,1.563000083E0,9.636000633E0
1.883475133E1,-1.977000117E0,1.822050095E0,9.559050560E0
1.885432093E1,-2.082000017E0,1.860000134E0,9.636000633E0
1.887389376E1,-2.005050182E0,1.650000095E0,9.942000389E0
1.889346307E1,-1.890000105E0,1.410000086E0,1.047795010E1
1.891302822E1,-1.822950125E0,1.324050069E0,1.105305099E1
1.893259570E1,-1.708050132E0,1.285950065E0,1.147395039E1
1.895216463E1,-1.392000079E0,1.171050072E0,1.172295094E1
1.897173353E1,-9.610500336E-1,1.045950055E0,1.171395016E1
1.899130369E1,-5.970000029E-1,1.018050075E0,1.134000015E1
1.901086884E1,-3.870000243E-1,1.123050094E0,1.073700047E1
1.903043723E1,-2.050500065E-1,1.257000089E0,1.019100094E1
1.905000462E1,1.500000060E-2,1.429050088E0,9.837000847E0
1.906957200E1,1.290000081E-1,1.678050041E0,9.673950195E0
1.908914269E1,1.960500032E-1,1.735950112E0,9.433950424E0
1.910871345E1,3.400500119E-1,1.534950018E0,8.812050819E0
1.912828576E1,3.019500077E-1,1.486950040E0,8.017050743E0
1.914785466E1,-9.000000358E-2,1.803000093E0,7.441950321E0
1.916742183E1,-7.789500356E-1,2.224050045E0,7.260000229E0
1.918699098E1,-1.593000054E0,2.626950026E0,7.375050545E0
1.920656392E1,-2.245050192E0,2.923050165E0,7.615050316E0
1.922613811E1,-2.580000162E0,3.085950136E0,7.882950306E0
1.924571019E1,-2.637000084E0,3.259050131E0,8.170050621E0
1.926528308E1,-2.427000046E0,3.450000048E0,8.419050217E0
1.928485080E1,-2.044049978E0,3.583950281E0,8.745000839E0
1.930441388E1,-1.680000067E0,3.642000198E0,9.184950829E0
1.932398434E1,-1.536000013E0,3.642000198E0,9.616050720E0
1.934355295E1,-1.573950052E0,3.546000242E0,9.913050652E0
1.936312341E1,-1.660050035E0,3.316050053E0,1.003800011E1
1.938269603E1,-1.728000045E0,3.096000195E0,1.001895046E1
1.940226672E1,-1.785000086E0,2.980950117E0,9.904050827E0
1.942183142E1,-1.795050144E0,2.914050102E0,9.778950691E0
1.944140221E1,-1.728000045E0,2.856000185E0,9.664050102E0
1.946097106E1,-1.612950087E0,2.827950239E0,9.568050385E0
1.948053973E1,-1.420950055E0,2.788950205E0,9.492000580E0
1.950011296E1,-1.162050009E0,2.665050030E0,9.472949982E0
1.951968056E1,-1.027950048E0,2.559000015E0,9.511050224E0
1.953925162E1,-1.018950105E0,2.539950132E0,9.529950142E0
1.955881970E1,-9.610500336E-1,2.502000093E0,9.424950600E0
1.957838802E1,-9.709500670E-1,2.473050117E0,9.339000702E0
1.959796023E1,-1.201050043E0,2.559000015E0,9.424950600E0
1.961753601E1,-1.479000092E0,2.512050152E0,9.655050278E0
1.963711137E1,-1.612950087E0,2.224050045E0,1.007595062E1
1.965669383E1,-1.621950030E0,1.879950047E0,1.045905018E1
1.967626605E1,-1.612950087E0,1.621050119E0,1.055505085E1
1.969583403E1,-1.612950087E0,1.438950062E0,1.027695084E1
1.971539994E1,-1.699050069E0,1.267050028E0,9.894000053E0
1.973497154E1,-1.918950081E0,1.093950033E0,9.741000175E0
1.975454567E1,-2.139000177E0,9.409500360E-1,9.721950531E0
1.977412575E1,-2.178000212E0,8.359500170E-1,9.741000175E0
1.979370538E1,-2.005050182E0,7.969500422E-1,9.760050774E0
1.981328568E1,-1.689000130E0,7.969500422E-1,9.750000000E0
1.983286422E1,-1.306050062E0,8.550000191E-1,9.703050613E0
1.985244200E1,-9.810000658E-1,1.027050018E0,9.549000740E0
1.987202477E1,-8.179500103E-1,1.305000067E0,9.232950211E0
1.989160292E1,-8.080500364E-1,1.602000117E0,8.878950119E0
1.991118237E1,-8.940000534E-1,1.888950109E0,8.601000786E0
1.993076053E1,-9.900000691E-1,2.137950182E0,8.467050552E0
1.995032814E1,-1.018950105E0,2.368050098E0,8.428950310E0
1.996989770E1,-1.027950048E0,2.578950167E0,8.437950134E0
1.998946670E1,-1.038000107E0,2.770050049E0,8.476950645E0
2.000903287E1,-1.105050087E0,2.943000078E0,8.533950806E0
2.002859904E1,-1.219950080E0,3.085950136E0,8.601000786E0
2.004817198E1,-1.315950036E0,3.144000053E0,8.629950523E0
2.006773844E1,-1.363950014E0,3.144000053E0,8.533950806E0
2.008730401E1,-1.411050081E0,3.172050238E0,8.266050339E0
2.010686854E1,-1.507050037E0,3.229950190E0,7.891950607E0
2.012643255E1,-1.555050015E0,3.268050194E0,7.567050457E0
2.014599602E1,-1.383000016E0,3.268050194E0,7.557000160E0
2.016556461E1,-8.940000534E-1,3.220050097E0,8.055000305E0
2.018512801E1,-2.809500098E-1,3.201000214E0,8.898000717E0
2.020469263E1,9.105000645E-2,3.268050194E0,9.712050438E0
2.022426273E1,1.390500069E-1,3.249000072E0,1.026795006E1
2.024383536E1,3.405000269E-2,3.048000097E0,1.068900013E1
2.026341667E1,-1.305000018E-2,2.875950098E0,1.127295017E1
2.028299474E1,1.870500147E-1,2.866050243E0,1.205895042E1
2.030256859E1,6.750000119E-1,2.884950161E0,1.286295033E1
2.032214399E1,1.087050080E0,2.923050165E0,1.353300095E1
2.034171968E1,1.249950051E0,3.028950214E0,1.387800026E1
2.036129577E1,1.393950105E0,3.096000195E0,1.368705082E1
2.038086677E1,1.623000026E0,3.010050058E0,1.299705029E1
2.040043823E1,1.852950096E0,2.751000166E0,1.206795025E1
2.042001015E1,1.900950074E0,2.445000172E0,1.120605087E1
2.043958646E1,1.642950058E0,2.167050123E0,1.045905018E1
2.045916215E1,1.105949998E0,1.966050148E0,9.778950691E0
2.047873856E1,4.840500355E-1,1.984950066E0,9.061050415E0
2.049831231E1,-1.305000018E-2,2.310000181E0,8.275950432E0
2.051788439E1,-2.719500065E-1,2.674050093E0,7.528950214E0
2.053746187E1,-3.010500073E-1,2.904000044E0,6.877050400E0
2.055703333E1,-2.620500028E-1,3.144000053E0,6.244950294E0
2.057659695E1,-3.769500256E-1,3.412050247E0,5.746950150E0
2.059616165E1,-6.930000186E-1,3.613050222E0,5.488950253E0
2.061572742E1,-1.134000063E0,3.775950193E0,5.422050476E0
2.063529016E1,-1.603050113E0,3.928950071E0,5.488950253E0
2.065485631E1,-2.005050182E0,4.054049969E0,5.671050072E0
2.067442406E1,-2.167950153E0,4.140000343E0,6.006000519E0
2.069398654E1,-2.082000017E0,4.188000202E0,6.456000328E0
2.071354891E1,-1.929000139E0,4.216050148E0,6.954000473E0
2.073311107E1,-1.929000139E0,4.159049988E0,7.461000443E0
2.075268039E1,-2.110949993E0,3.976950169E0,7.912050247E0
2.077225017E1,-2.512950182E0,3.823950291E0,8.314050674E0
2.079181794E1,-3.010950089E0,3.795000076E0,8.745000839E0
2.081138411E1,-3.384000063E0,3.775950193E0,9.262050629E0
2.083094956E1,-3.460950136E0,3.594000101E0,9.913050652E0
2.085051298E1,-3.460950136E0,3.220050097E0,1.050705051E1
2.087007568E1,-3.700050116E0,2.856000185E0,1.096695042E1
2.088964405E1,-3.814950228E0,2.539950132E0,1.126395035E1
2.090921420E1,-3.460950136E0,2.329950094E0,1.131195068E1
2.092877350E1,-2.848050117E0,2.253000021E0,1.134000015E1
2.094833504E1,-2.272950172E0,2.196000099E0,1.156095028E1
2.096790127E1,-1.737000108E0,2.004000187E0,1.185705090E1
2.098747204E1,-1.201050043E0,1.678050041E0,1.185705090E1
2.100704180E1,-8.460000157E-1,1.401000023E0,1.133100033E1
2.102661655E1,-7.789500356E-1,1.294950008E0,1.050705051E1
2.104618762E1,-8.940000534E-1,1.353000045E0,9.778950691E0
2.106576248E1,-1.095000029E0,1.591950059E0,9.291000366E0
2.108533624E1,-1.276950002E0,1.899000049E0,8.994000435E0
2.110491355E1,-1.276950002E0,2.157000065E0,8.802000046E0
2.112449039E1,-1.114950061E0,2.349000216E0,8.773950577E0
2.114406247E1,-9.229500294E-1,2.521050215E0,8.917050362E0
2.116363594E1,-7.030500174E-1,2.626950026E0,9.136950493E0
2.118321255E1,-4.830000103E-1,2.694000244E0,9.310050011E0
2.120279009E1,-2.719500065E-1,2.694000244E0,9.367050171E0
2.122236827E1,-9.900000691E-2,2.646000147E0,9.310050011E0
2.124194467E1,-7.995000482E-2,2.674050093E0,9.109050751E0
2.126152122E1,-2.239500135E-1,2.836950064E0,8.850000381E0
2.128110094E1,-3.769500256E-1,2.989950180E0,8.638950348E0
2.130068132E1,-4.249500334E-1,3.096000195E0,8.505000114E0
2.132025580E1,-4.350000322E-1,3.201000214E0,8.458050728E0
2.133983183E1,-4.729500115E-1,3.229950190E0,8.611050606E0
2.135941022E1,-5.590500236E-1,3.067050219E0,8.965050697E0
2.137898937E1,-7.030500174E-1,2.751000166E0,9.300000191E0
2.139857114E1,-7.320000529E-1,2.397000074E0,9.339000702E0
2.141814990E1,-4.920000136E-1,2.176050186E0,9.271950722E0
2.143772691E1,-3.195000067E-2,2.290950060E0,9.540000916E0
2.145730128E1,5.509500504E-1,2.464050055E0,1.008600044E1
2.147687921E1,1.048950076E0,2.406000137E0,1.032495022E1
2.149645954E1,1.135050058E0,2.205000162E0,1.017195034E1
2.151605083E1,6.750000119E-1,2.100000143E0,9.952050209E0
2.153564776E1,-5.205000192E-2,2.176050186E0,9.741000175E0
2.155524381E1,-6.360000372E-1,2.329950094E0,9.501000404E0
2.157483386E1,-9.229500294E-1,2.464050055E0,9.214050293E0
2.159442871E1,-8.659500480E-1,2.521050215E0,9.070050240E0
2.161402011E1,-4.729500115E-1,2.425050020E0,9.157050133E0
2.163361086E1,-4.050000105E-3,2.290950060E0,9.376950264E0
2.165320469E1,2.730000019E-1,2.263050079E0,9.673950195E0
2.167280254E1,3.499500155E-1,2.272050142E0,1.004700089E1
2.169239753E1,3.400500119E-1,2.224050045E0,1.041105080E1
2.171198930E1,3.979500234E-1,2.137950182E0,1.073700047E1
2.173158621E1,7.420500517E-1,1.975050092E0,1.107195091E1
2.175118190E1,1.354950070E0,1.812000036E0,1.137900066E1
2.177077597E1,1.968000054E0,1.735950112E0,1.156995010E1
2.179036528E1,2.370000124E0,1.639950037E0,1.150305080E1
2.180995750E1,2.514000177E0,1.468050122E0,1.114905071E1
2.182955142E1,2.418000221E0,1.353000045E0,1.051695061E1
2.184914797E1,2.131050110E0,1.438950062E0,9.636000633E0
2.186874336E1,1.747950077E0,1.659000039E0,8.668050766E0
2.188833452E1,1.317000031E0,1.908000112E0,7.873050213E0
2.190791113E1,8.290500641E-1,2.233950138E0,7.308000565E0
2.192749359E1,7.200000435E-2,2.598000050E0,6.973050117E0
2.194709351E1,-5.209500194E-1,3.028950214E0,6.772050381E0
2.196668860E1,-3.289500177E-1,3.172050238E0,6.895950317E0
2.198627139E1,3.400500119E-1,3.058050156E0,7.165050507E0
2.200585362E1,9.529500604E-1,3.211050034E0,7.260000229E0
2.202543567E1,1.336050034E0,3.450000048E0,7.461000443E0
2.204502006E1,1.441950083E0,3.574950218E0,7.825050354E0
2.206460092E1,1.240050077E0,3.613050222E0,8.209050179E0
2.208418277E1,8.569500446E-1,3.661050081E0,8.458050728E0
2.210376737E1,4.260000288E-1,3.823950291E0,8.659049988E0
2.212335328E1,1.099500060E-1,4.149000168E0,8.935950279E0
2.214294273E1,-4.050000105E-3,4.465050220E0,9.232950211E0
2.216252950E1,5.295000225E-2,4.705049992E0,9.529950142E0
2.218211757E1,2.160000056E-1,4.753050327E0,9.942000389E0
2.220170278E1,2.920500040E-1,4.570950031E0,1.042095089E1
2.222128926E1,1.489500105E-1,4.408050060E0,1.061205006E1
2.224087196E1,-1.189500093E-1,4.437000275E0,1.044000053E1
2.226045472E1,-2.719500065E-1,4.552050114E0,1.016205025E1
2.228004066E1,-1.660500020E-1,4.513050079E0,1.012395000E1
2.229962679E1,1.489500105E-1,4.234950066E0,1.032495022E1
2.231921411E1,4.450500309E-1,3.784950256E0,1.036305046E1
2.233880222E1,5.320500135E-1,3.325950146E0,1.012395000E1
2.235839578E1,3.780000210E-1,3.010050058E0,9.846000671E0
2.237798410E1,8.205000311E-2,2.856000185E0,9.625950813E0
2.239757426E1,-1.090500057E-1,2.713050127E0,9.511050224E0
2.241716096E1,-1.189500093E-1,2.539950132E0,9.511050224E0
2.243675646E1,3.405000269E-2,2.464050055E0,9.501000404E0
2.245635524E1,3.019500077E-1,2.473050117E0,9.358050346E0
2.247595025E1,6.370500326E-1,2.454000235E0,9.147000313E0
2.249554162E1,8.959500194E-1,2.397000074E0,8.908050537E0
2.251513734E1,8.380500674E-1,2.349000216E0,8.782950401E0
2.253473157E1,5.029500127E-1,2.329950094E0,8.697000504E0
2.255432509E1,1.489500105E-1,2.386950016E0,8.410050392E0
2.257391485E1,-7.995000482E-2,2.530950069E0,8.035950661E0
2.259349953E1,-2.050500065E-1,2.779950142E0,7.786950588E0
2.261308993E1,-2.620500028E-1,3.076950073E0,7.758000374E0
2.263267953E1,-2.050500065E-1,3.334950209E0,7.921050549E0
2.265226406E1,-2.295000106E-2,3.469050169E0,8.179950714E0
2.267184530E1,6.195000187E-2,3.546000242E0,8.496000290E0
2.269142414E1,-5.205000192E-2,3.583950281E0,8.917050362E0
2.271100559E1,-1.950000077E-1,3.546000242E0,9.415050507E0
2.273058688E1,-2.620500028E-1,3.508050203E0,9.874950409E0
2.275016746E1,-3.100500107E-1,3.517050266E0,1.013400078E1
2.276974654E1,-3.390000165E-1,3.546000242E0,1.019100094E1
2.278932378E1,-3.580500185E-1,3.594000101E0,1.018095016E1
2.280890347E1,-3.480000198E-1,3.699000120E0,1.010505009E1
2.282848767E1,-1.570500135E-1,3.823950291E0,1.002795029E1
2.284807073E1,1.870500147E-1,3.910050154E0,9.990000725E0
2.286765912E1,5.320500135E-1,3.928950071E0,1.001895046E1
2.288723851E1,8.479500413E-1,3.823950291E0,1.012395000E1
2.290681780E1,1.153950095E0,3.603000164E0,1.021005058E1
2.292640396E1,1.413000107E0,3.345000267E0,1.021005058E1
2.294598611E1,1.603950024E0,3.153000116E0,1.007595062E1
2.296557043E1,1.719000101E0,3.076950073E0,9.817050934E0
2.298515627E1,1.795950055E0,3.105000257E0,9.433950424E0
2.300474277E1,1.872000098E0,3.181950092E0,8.974950790E0
2.302432824E1,1.930050135E0,3.259050131E0,8.524950027E0
2.304391130E1,1.900950074E0,3.297000170E0,8.140950203E0
2.306350185E1,1.786050081E0,3.364050150E0,7.882950306E0
2.308308393E1,1.623000026E0,3.469050169E0,7.701000214E0
2.310266547E1,1.489050031E0,3.594000101E0,7.585950375E0
2.312224678E1,1.384050012E0,3.718050241E0,7.528950214E0
2.314182548E1,1.260000110E0,3.871950150E0,7.548000336E0
2.316140950E1,1.153950095E0,4.015050411E0,7.720050335E0
2.318098705E1,1.135050058E0,4.111050129E0,7.950000286E0
2.320056407E1,1.153950095E0,4.140000343E0,8.074049950E0
2.322014193E1,1.164000034E0,4.159049988E0,8.074049950E0
2.323972155E1,1.212000012E0,4.168050289E0,7.969050407E0
2.325929609E1,1.288050056E0,4.140000343E0,7.786950588E0
2.327887326E1,1.345950007E0,4.072950363E0,7.519050121E0
2.329845058E1,1.269000053E0,4.072950363E0,7.299000263E0
2.331802968E1,1.011000037E0,4.168050289E0,7.347000122E0
2.333760721E1,6.079500318E-1,4.255050182E0,7.786950588E0
2.335719217E1,1.680000126E-1,4.282950401E0,8.458050728E0
2.337678388E1,-1.860000044E-1,4.264050007E0,9.022950172E0
2.339637305E1,-4.440000355E-1,4.225950241E0,9.424950600E0
2.341595928E1,-6.070500016E-1,4.245000362E0,9.808050156E0
2.343554019E1,-7.410000563E-1,4.341000080E0,1.029600048E1
2.345512872E1,-8.850000501E-1,4.408050060E0,1.075605011E1
2.347471834E1,-9.709500670E-1,4.312050343E0,1.099500084E1
2.349431034E1,-1.075950027E0,4.159049988E0,1.104300022E1
2.351390472E1,-1.171950102E0,4.197000027E0,1.102395058E1
2.353350448E1,-1.038000107E0,4.341000080E0,1.094805050E1
2.355309517E1,-5.689499974E-1,4.398000240E0,1.074600029E1
2.357267947E1,-6.105000153E-2,4.398000240E0,1.042995071E1
2.359226569E1,2.539499998E-1,4.369950294E0,1.021005058E1
2.361184937E1,5.320500135E-1,4.188000202E0,1.005705070E1
2.363143572E1,5.890500546E-1,3.900000095E0,9.693000793E0
2.365102838E1,2.250000089E-1,3.679950237E0,9.147000313E0
2.367062284E1,-2.620500028E-1,3.565050125E0,8.629950523E0
2.369021813E1,-6.550500393E-1,3.498000145E0,8.304000854E0
2.370980157E1,-8.659500480E-1,3.364050150E0,8.323050499E0
2.372938526E1,-9.610500336E-1,3.211050034E0,8.544000626E0
2.374896795E1,-8.940000534E-1,3.124950171E0,8.773950577E0
2.376855541E1,-6.360000372E-1,3.048000097E0,8.983950615E0
2.378814055E1,-1.860000044E-1,2.914050102E0,9.118050575E0
2.380772802E1,2.830500007E-1,2.779950142E0,9.147000313E0
2.382731746E1,5.320500135E-1,2.740950108E0,9.070050240E0
2.384690947E1,5.029500127E-1,2.799000025E0,8.869050026E0
2.386649971E1,3.589500189E-1,2.856000185E0,8.515049934E0
2.388608493E1,2.250000089E-1,2.971050024E0,8.113050461E0
2.390567162E1,1.200000048E-1,3.172050238E0,7.834950447E0
2.392525563E1,6.195000187E-2,3.421050072E0,7.701000214E0
2.394483970E1,9.105000645E-2,3.642000198E0,7.768050194E0
2.396442834E1,2.059500068E-1,3.805050135E0,7.978950500E0
2.398401936E1,3.109500110E-1,3.852000237E0,8.314050674E0
2.400360495E1,3.880500197E-1,3.766050100E0,8.773950577E0
2.402319379E1,4.450500309E-1,3.631950140E0,9.195000648E0
2.404278302E1,4.260000288E-1,3.535950184E0,9.501000404E0
2.406236649E1,3.210000098E-1,3.546000242E0,9.750000000E0
2.408195010E1,2.639999986E-1,3.594000101E0,1.006605053E1
2.410153379E1,3.310500085E-1,3.574950218E0,1.042095089E1
2.412111910E1,3.880500197E-1,3.535950184E0,1.065105057E1
2.414070550E1,3.019500077E-1,3.565050125E0,1.060305023E1
2.416030005E1,1.870500147E-1,3.565050125E0,1.040205002E1
2.417989420E1,1.680000126E-1,3.478950262E0,1.033500004E1
2.419948312E1,4.170000255E-1,3.192000151E0,1.059300041E1
2.421906827E1,1.039050102E0,2.694000244E0,1.092795086E1
2.423865781E1,1.642950058E0,2.167050123E0,1.096695042E1
2.425824764E1,1.852950096E0,1.851000071E0,1.064100075E1
2.427783694E1,1.642950058E0,1.774050117E0,9.990000725E0
2.429742488E1,1.173000097E0,1.774050117E0,9.291000366E0
2.431701265E1,6.559500098E-1,1.765050054E0,8.830950737E0
2.433659667E1,2.639999986E-1,1.765050054E0,8.563050270E0
2.435618213E1,5.295000225E-2,1.726050138E0,8.275950432E0
2.437576438E1,4.305000231E-2,1.611000061E0,7.845000267E0
2.439534746E1,1.500000060E-2,1.429050088E0,7.519050121E0
2.441493241E1,-2.239500135E-1,1.228050113E0,7.749000549E0
2.443451979E1,-5.590500236E-1,1.123050094E0,8.447999954E0
2.445410738E1,-7.699500322E-1,1.161000013E0,9.031949997E0
2.447369053E1,-7.030500174E-1,1.228050113E0,9.367050171E0
2.449326921E1,-5.689499974E-1,1.237950087E0,9.481950760E0
2.451284798E1,-6.169500351E-1,1.200000048E0,9.376950264E0
2.453242736E1,-8.940000534E-1,1.180050015E0,9.214050293E0
2.455200308E1,-1.306050062E0,1.314000010E0,9.184950829E0
2.457158469E1,-1.612950087E0,1.563000083E0,9.280950546E0
2.459116715E1,-1.689000130E0,1.765050054E0,9.348000526E0
2.461075329E1,-1.641000032E0,1.918050051E0,9.376950264E0
2.463033445E1,-1.564950109E0,2.080950022E0,9.367050171E0
2.464991206E1,-1.479000092E0,2.224050045E0,9.291000366E0
2.466949484E1,-1.450050116E0,2.263050079E0,9.090000153E0
2.468907914E1,-1.546050072E0,2.253000021E0,8.860050201E0
2.470866498E1,-1.669950128E0,2.233950138E0,8.754000664E0
2.472825635E1,-1.717950106E0,2.157000065E0,8.860050201E0
2.474784588E1,-1.516950130E0,1.956000090E0,9.291000366E0
2.476743174E1,-1.095000029E0,1.582950115E0,1.001895046E1
2.478701913E1,-7.699500322E-1,1.237950087E0,1.083300018E1
2.480660652E1,-7.410000563E-1,1.045950055E0,1.146495056E1
2.482619330E1,-8.749500513E-1,8.550000191E-1,1.190505028E1
2.484578006E1,-9.900000691E-1,6.820500493E-1,1.227900028E1
2.486536490E1,-9.420000315E-1,6.919500232E-1,1.261395073E1
2.488494736E1,-5.400000215E-1,7.300500274E-1,1.281495094E1
2.490452561E1,1.099500060E-1,6.439500451E-1,1.277700043E1
2.492410408E1,5.890500546E-1,6.630000472E-1,1.244205093E1
2.494368001E1,6.079500318E-1,8.550000191E-1,1.178100014E1
2.496325976E1,2.539499998E-1,1.093950033E0,1.075605011E1
2.498284038E1,-2.340000123E-1,1.342950106E0,9.625950813E0
2.500242522E1,-7.699500322E-1,1.621050119E0,8.725950241E0
2.502200799E1,-1.324950099E0,1.918050051E0,8.161050797E0
2.504159477E1,-1.699050069E0,2.119050026E0,7.834950447E0
2.506118431E1,-1.737000108E0,2.167050123E0,7.749000549E0
2.508078500E1,-1.450050116E0,2.089950085E0,7.950000286E0
2.510038132E1,-1.038000107E0,1.956000090E0,8.352000237E0
2.511997969E1,-6.450000405E-1,1.792950034E0,8.764050484E0
2.513957323E1,-3.289500177E-1,1.563000083E0,8.926950455E0
2.515916367E1,-9.000000358E-2,1.314000010E0,8.745000839E0
2.517875476E1,4.950000439E-3,1.228050113E0,8.352000237E0
2.519834737E1,4.950000439E-3,1.390950084E0,7.978950500E0
2.521793781E1,-2.295000106E-2,1.707000136E0,7.806000233E0
2.523752958E1,-3.195000067E-2,2.061000109E0,7.797000408E0
2.525712249E1,-9.000000358E-2,2.434950113E0,8.017050743E0
2.527671351E1,-1.950000077E-1,2.770050049E0,8.410050392E0
2.529630215E1,-2.430000156E-1,2.952000141E0,8.812050819E0
2.531588992E1,-2.239500135E-1,2.980950117E0,9.136950493E0
2.533548807E1,-1.950000077E-1,2.932950258E0,9.415050507E0
2.535509414E1,-2.140500098E-1,2.856000185E0,9.730950356E0
2.537469352E1,-2.809500098E-1,2.740950108E0,1.023900032E1
2.539429452E1,-3.199500144E-1,2.502000093E0,1.098600006E1
2.541389420E1,-2.719500065E-1,2.109000206E0,1.193400097E1
2.543349968E1,-2.430000156E-1,1.765050054E0,1.268100071E1
2.545310714E1,-3.580500185E-1,1.611000061E0,1.270005035E1
2.547271392E1,-7.120500207E-1,1.717050076E0,1.217295074E1
2.549232101E1,-1.372950077E0,2.215050220E0,1.152195072E1
2.551192893E1,-2.034000158E0,2.875950098E0,1.092795086E1
2.553153365E1,-2.379000187E0,3.172050238E0,1.053600025E1
2.555113796E1,-2.542050123E0,3.192000151E0,1.039200020E1
2.557074290E1,-2.628000021E0,3.201000214E0,1.026795006E1
2.559034995E1,-2.475000143E0,3.048000097E0,9.970950127E0
2.560995671E1,-2.110949993E0,2.731950045E0,9.501000404E0
2.562956195E1,-1.747050047E0,2.530950069E0,9.051000595E0
2.564916681E1,-1.420950055E0,2.626950026E0,8.878950119E0
2.566877121E1,-1.018950105E0,2.827950239E0,8.983950615E0
2.568837173E1,-5.779500008E-1,2.914050102E0,9.184950829E0
2.570796415E1,-3.480000198E-1,2.808000088E0,9.271950722E0
2.572754839E1,-4.150500298E-1,2.598000050E0,9.051000595E0
2.574712994E1,-6.450000405E-1,2.445000172E0,8.447999954E0
2.576671303E1,-9.229500294E-1,2.397000074E0,7.642950535E0
2.578629917E1,-1.048050046E0,2.473050117E0,7.087950230E0
2.580588078E1,-9.810000658E-1,2.569050074E0,7.078050137E0
2.582546354E1,-9.040500522E-1,2.550000191E0,7.375050545E0
2.584504754E1,-1.009050012E0,2.473050117E0,7.576050282E0
2.586463924E1,-1.383000016E0,2.530950069E0,7.633950233E0
2.588422570E1,-1.900050044E0,2.799000025E0,7.663050175E0
2.590380872E1,-2.368950129E0,3.220050097E0,7.720050335E0
2.592339678E1,-2.665950060E0,3.690000057E0,7.690950394E0
2.594298286E1,-2.770950079E0,3.976950169E0,7.537950516E0
2.596256529E1,-2.770950079E0,3.967050076E0,7.519050121E0
2.598214413E1,-2.743050098E0,3.814050198E0,7.738950253E0
2.600173173E1,-2.724000216E0,3.651000261E0,8.161050797E0
2.602132012E1,-2.829000235E0,3.526950121E0,8.697000504E0
2.604091172E1,-3.154950142E0,3.498000145E0,9.214050293E0
2.606050277E1,-3.586050272E0,3.526950121E0,9.664050102E0
2.608009139E1,-3.825000286E0,3.402000189E0,1.003800011E1
2.609968069E1,-3.910950184E0,3.172050238E0,1.021005058E1
2.611927393E1,-4.111950397E0,2.980950117E0,1.018095016E1
2.613885917E1,-4.476000309E0,2.751000166E0,1.005705070E1
2.615844340E1,-4.609950066E0,2.445000172E0,9.741000175E0
2.617803204E1,-4.063950062E0,2.205000162E0,9.262050629E0
2.619762411E1,-3.030000210E0,2.014050007E0,8.974950790E0
2.621720987E1,-2.235000134E0,1.669050097E0,9.157050133E0
2.623680501E1,-2.226000071E0,1.219050050E0,9.703050613E0
2.625639549E1,-2.829000235E0,1.027050018E0,1.004700089E1
2.627599273E1,-3.499050140E0,1.161000013E0,9.904050827E0
2.629558873E1,-3.873000145E0,1.285950065E0,9.481950760E0
2.631518533E1,-3.997050285E0,1.294950008E0,9.184950829E0
2.633477579E1,-3.958950281E0,1.305000067E0,9.262050629E0
2.635436679E1,-3.777000189E0,1.285950065E0,9.588000298E0
2.637395304E1,-3.471000195E0,1.200000048E0,9.922950745E0
2.639354650E1,-3.135000229E0,1.123050094E0,1.013400078E1
2.641313859E1,-2.800050020E0,1.018050075E0,1.023900032E1
2.643272689E1,-2.484000206E0,9.220500588E-1,1.024800014E1
2.645230590E1,-2.263950109E0,9.600000381E-1,1.015305042E1
2.647188260E1,-2.062950134E0,1.132050037E0,9.922950745E0
2.649146127E1,-1.747050047E0,1.362000108E0,9.501000404E0
2.651104189E1,-1.420950055E0,1.630950093E0,8.935950279E0
2.653062350E1,-1.191000104E0,1.927050114E0,8.380949974E0
2.655020312E1,-1.048050046E0,2.263050079E0,7.998000145E0
2.656978804E1,-9.130500555E-1,2.598000050E0,7.854000568E0
2.658937358E1,-7.600500584E-1,2.866050243E0,7.882950306E0
2.660895666E1,-6.450000405E-1,3.010050058E0,8.026950836E0
2.662854290E1,-6.739500165E-1,3.019050121E0,8.295000076E0
2.664812806E1,-9.900000691E-1,2.952000141E0,8.629950523E0
2.666772198E1,-1.468950033E0,2.875950098E0,8.994000435E0
2.668732527E1,-1.842000127E0,2.875950098E0,9.376950264E0
2.670692556E1,-1.833000064E0,2.847000122E0,9.703050613E0
2.672652987E1,-1.555050015E0,2.770050049E0,9.952050209E0
2.674613487E1,-1.324950099E0,2.799000025E0,1.017195034E1
2.676573539E1,-1.219950080E0,2.884950161E0,1.025805092E1
2.678534067E1,-1.162050009E0,2.962050200E0,1.015305042E1
2.680494684E1,-1.075950027E0,3.067050219E0,9.942000389E0
2.682454991E1,-8.850000501E-1,3.144000053E0,9.778950691E0
2.684415300E1,-6.739500165E-1,3.153000116E0,9.712050438E0
2.686373845E1,-5.970000029E-1,3.192000151E0,9.712050438E0
2.688332191E1,-5.970000029E-1,3.211050034E0,9.769950867E0
2.690290377E1,-5.689499974E-1,3.220050097E0,9.826950073E0
2.692249270E1,-4.630500078E-1,3.297000170E0,9.817050934E0
2.694207878E1,-2.719500065E-1,3.402000189E0,9.721950531E0
2.696166901E1,-3.195000067E-2,3.316050053E0,9.501000404E0
2.698126125E1,3.405000269E-2,3.201000214E0,9.319050789E0
2.700085079E1,-1.660500020E-1,3.345000267E0,9.328950882E0
2.702043857E1,-4.249500334E-1,3.603000164E0,9.376950264E0
2.704002342E1,-4.440000355E-1,3.670050144E0,9.385950089E0
2.705960995E1,-2.340000123E-1,3.574950218E0,9.367050171E0
2.707919419E1,-3.195000067E-2,3.498000145E0,9.300000191E0
2.709877674E1,1.099500060E-1,3.450000048E0,9.109050751E0
2.711835976E1,1.579500139E-1,3.421050072E0,8.793000221E0
2.713795051E1,9.105000645E-2,3.450000048E0,8.428950310E0
2.715754381E1,-9.900000691E-2,3.546000242E0,8.055000305E0
2.717713794E1,-3.480000198E-1,3.670050144E0,7.729950428E0
2.719672864E1,-5.779500008E-1,3.814050198E0,7.489950180E0
2.721631603E1,-7.120500207E-1,3.948000193E0,7.366050243E0
2.723590501E1,-7.320000529E-1,4.101000309E0,7.336950302E0
2.725549580E1,-7.320000529E-1,4.234950066E0,7.375050545E0
2.727508010E1,-7.990500331E-1,4.312050343E0,7.480950356E0
2.729466679E1,-1.048050046E0,4.321950436E0,7.633950233E0
2.731425509E1,-1.498050094E0,4.369950294E0,7.777950287E0
2.733384559E1,-2.023950100E0,4.513050079E0,7.891950607E0
2.735343421E1,-2.475000143E0,4.791000366E0,8.094000816E0
2.737302896E1,-2.743050098E0,5.155050278E0,8.524950027E0
2.739262098E1,-2.838000059E0,5.452050209E0,9.223950386E0
2.741221227E1,-2.934000254E0,5.557050228E0,1.000905037E1
2.743179913E1,-3.040050030E0,5.422950268E0,1.077495098E1
2.745138651E1,-3.019950151E0,5.125950336E0,1.137900066E1
2.747097329E1,-2.704050064E0,4.906050205E0,1.179000092E1
2.749056159E1,-2.167950153E0,4.753050327E0,1.203900051E1
2.751015690E1,-1.632000089E0,4.483950138E0,1.211595058E1
2.752975113E1,-1.287000060E0,4.140000343E0,1.195305061E1
2.754934151E1,-1.018950105E0,3.699000120E0,1.129200077E1
2.756893049E1,-6.169500351E-1,3.037950039E0,1.017195034E1
2.758852057E1,-2.620500028E-1,2.445000172E0,9.205050468E0
2.760811327E1,-3.390000165E-1,2.281949997E0,8.524950027E0
2.762770436E1,-8.659500480E-1,2.416050196E0,7.978950500E0
2.764730623E1,-1.468950033E0,2.445000172E0,7.729950428E0
2.766689848E1,-1.977000117E0,2.349000216E0,7.777950287E0
2.768647909E1,-2.379000187E0,2.416050196E0,8.131950378E0
2.770606715E1,-2.542050123E0,2.761050224E0,8.773950577E0
2.772565638E1,-2.226000071E0,3.058050156E0,9.433950424E0
2.774524335E1,-1.584000111E0,2.962050200E0,9.856050491E0
2.776483165E1,-1.143000007E0,2.655000210E0,9.931950569E0
2.778441996E1,-1.276950002E0,2.338950157E0,9.673950195E0
2.780400830E1,-1.938000083E0,2.089950085E0,9.079950333E0
2.782359753E1,-2.857950211E0,1.984950066E0,8.352000237E0
2.784318467E1,-3.633000135E0,2.041949987E0,7.758000374E0
2.786278181E1,-3.862950087E0,2.281949997E0,7.432950497E0
2.788238743E1,-3.490050077E0,2.655000210E0,7.240950108E0
2.790199266E1,-2.818950176E0,3.105000257E0,7.144950390E0
2.792159628E1,-2.119950056E0,3.441000223E0,7.318050385E0
2.794119657E1,-1.459050059E0,3.498000145E0,7.786950588E0
2.796079234E1,-9.130500555E-1,3.316050053E0,8.314050674E0
2.798039412E1,-7.219500542E-1,3.076950073E0,8.697000504E0
2.799999541E1,-1.123950005E0,2.884950161E0,9.109050751E0
2.801958918E1,-1.996050119E0,2.665050030E0,9.760050774E0
2.803919011E1,-2.752050161E0,2.445000172E0,1.047795010E1
2.805878771E1,-2.944050074E0,2.176050186E0,1.086105061E1
2.807837812E1,-2.599050045E0,1.870050073E0,1.089000034E1
2.809796652E1,-2.197050095E0,1.783950090E0,1.066995049E1
2.811755504E1,-2.044049978E0,1.966050148E0,1.029600048E1
2.813714187E1,-1.929000139E0,2.301000118E0,1.000905037E1
2.815672979E1,-1.632000089E0,2.703000069E0,9.798000336E0
2.817631944E1,-1.230000019E0,3.096000195E0,9.472949982E0
2.819590836E1,-7.699500322E-1,3.345000267E0,9.051000595E0
2.821549626E1,-2.239500135E-1,3.373950243E0,8.668050766E0
2.823508332E1,3.310500085E-1,3.382950068E0,8.314050674E0
2.825467377E1,6.559500098E-1,3.556050062E0,7.978950500E0
2.827426338E1,7.230000496E-1,3.832950115E0,7.690950394E0
2.829385844E1,7.230000496E-1,4.081950188E0,7.423050404E0
2.831345958E1,8.190000653E-1,4.245000362E0,7.393950462E0
2.833305743E1,1.030050039E0,4.360050201E0,7.701000214E0
2.835265104E1,1.221000075E0,4.350000381E0,8.140950203E0
2.837224882E1,1.288050056E0,4.168050289E0,8.505000114E0
2.839184735E1,1.135050058E0,3.919050217E0,8.638950348E0
2.841144643E1,8.190000653E-1,3.709050179E0,8.620050430E0
2.843103535E1,5.130000114E-1,3.517050266E0,8.649000168E0
2.845061743E1,3.310500085E-1,3.382950068E0,8.802000046E0
2.847019558E1,2.250000089E-1,3.334950209E0,8.946000099E0
2.848977504E1,1.099500060E-1,3.345000267E0,9.013050079E0
2.850936050E1,-5.205000192E-2,3.364050150E0,9.013050079E0
2.852894647E1,-2.239500135E-1,3.373950243E0,8.974950790E0
2.854853597E1,-3.679500222E-1,3.373950243E0,8.908050537E0
2.856813259E1,-4.920000136E-1,3.354000092E0,8.946000099E0
2.858772282E1,-5.689499974E-1,3.382950068E0,9.098999977E0
2.860731206E1,-5.689499974E-1,3.354000092E0,9.195000648E0
2.862689361E1,-5.689499974E-1,3.201000214E0,9.214050293E0
2.864647886E1,-6.739500165E-1,3.048000097E0,9.328950882E0
2.866607117E1,-8.179500103E-1,2.971050024E0,9.607050896E0
2.868566187E1,-8.659500480E-1,2.932950258E0,1.005705070E1
2.870525418E1,-7.600500584E-1,2.808000088E0,1.067895031E1
2.872484990E1,-5.970000029E-1,2.587950230E0,1.128300095E1
2.874444098E1,-5.970000029E-1,2.377950191E0,1.162800026E1
2.876403760E1,-8.179500103E-1,2.263050079E0,1.164705086E1
2.878363852E1,-1.134000063E0,2.205000162E0,1.140705013E1
2.880323576E1,-1.372950077E0,2.242950201E0,1.108200073E1
2.882282870E1,-1.392000079E0,2.406000137E0,1.081305027E1
2.884242036E1,-1.123950005E0,2.539950132E0,1.060305023E1
2.886201058E1,-6.640500426E-1,2.482950211E0,1.044000053E1
2.888160288E1,-1.570500135E-1,2.338950157E0,1.021995068E1
2.890119488E1,2.250000089E-1,2.233950138E0,9.913050652E0
2.892078958E1,4.260000288E-1,2.224050045E0,9.472949982E0
2.894037336E1,4.650000334E-1,2.281949997E0,8.956050873E0
2.895995513E1,2.639999986E-1,2.445000172E0,8.716050148E0
2.897954198E1,-2.140500098E-1,2.674050093E0,8.917050362E0
2.899912344E1,-6.169500351E-1,2.799000025E0,9.232950211E0
2.901870866E1,-6.450000405E-1,2.674050093E0,9.376950264E0
2.903829574E1,-3.870000243E-1,2.397000074E0,9.262050629E0
2.905788348E1,-1.759500057E-1,2.224050045E0,9.031949997E0
2.907746925E1,-1.090500057E-1,2.196000099E0,8.802000046E0
2.909705395E1,-7.095000148E-2,2.148000002E0,8.533950806E0
2.911663704E1,4.950000439E-3,2.052000046E0,8.304000854E0
2.913622655E1,6.195000187E-2,2.061000109E0,8.103000641E0
2.915581360E1,1.489500105E-1,2.215050220E0,7.882950306E0
2.917540223E1,2.250000089E-1,2.434950113E0,7.690950394E0
2.919498585E1,3.310500085E-1,2.665050030E0,7.596000195E0
2.921456769E1,4.650000334E-1,2.895000219E0,7.653000355E0
2.923414900E1,5.599500537E-1,3.153000116E0,7.921050549E0
2.925373598E1,6.079500318E-1,3.354000092E0,8.295000076E0
2.927332280E1,5.989500284E-1,3.334950209E0,8.638950348E0
2.929290618E1,5.599500537E-1,3.172050238E0,8.887950897E0
2.931248704E1,4.260000288E-1,3.028950214E0,8.994000435E0
2.933206704E1,2.250000089E-1,2.980950117E0,9.022950172E0
2.935164525E1,1.009500027E-1,2.932950258E0,9.031949997E0
2.937122463E1,1.009500027E-1,2.818050146E0,9.175950050E0
2.939080304E1,2.639999986E-1,2.626950026E0,9.529950142E0
2.941038214E1,6.180000305E-1,2.434950113E0,1.001895046E1
2.942996313E1,1.011000037E0,2.329950094E0,1.045005035E1
2.944954408E1,1.297950029E0,2.290950060E0,1.077495098E1
2.946912431E1,1.432050109E0,2.205000162E0,1.110105038E1
2.948870492E1,1.461000085E0,1.936950088E0,1.144605064E1
2.950828222E1,1.528050065E0,1.698000073E0,1.178100014E1
2.952786184E1,1.815000057E0,1.543950081E0,1.201995087E1
2.954744131E1,2.302950144E0,1.324050069E0,1.212600040E1
2.956701579E1,2.599950075E0,1.132050037E0,1.205895042E1
2.958658586E1,2.505000114E0,1.045950055E0,1.163700008E1
2.960615915E1,2.208000183E0,9.220500588E-1,1.085205078E1
2.962573567E1,1.795950055E0,7.780500650E-1,1.014300060E1
2.964531659E1,1.345950007E0,7.969500422E-1,9.673950195E0
2.966489691E1,1.135050058E0,9.409500360E-1,9.396000862E0
2.968447455E1,1.288050056E0,1.055999994E0,9.175950050E0
2.970404776E1,1.614000082E0,1.123050094E0,8.802000046E0
2.972362127E1,1.815000057E0,1.171050072E0,8.256000519E0
2.974319758E1,1.699950099E0,1.237950087E0,7.672050476E0
2.976278217E1,1.249950051E0,1.390950084E0,7.165050507E0
2.978236855E1,6.370500326E-1,1.621050119E0,6.829050541E0
2.980195316E1,9.105000645E-2,1.879950047E0,6.742950439E0
2.982154270E1,-2.430000156E-1,2.205000162E0,6.868050098E0
2.984112461E1,-3.769500256E-1,2.550000191E0,7.165050507E0
2.986069869E1,-3.390000165E-1,2.799000025E0,7.690950394E0
2.988027469E1,-1.660500020E-1,2.895000219E0,8.410050392E0
2.989984793E1,4.950000439E-3,2.818050146E0,9.166050911E0
2.991941870E1,1.500000060E-2,2.703000069E0,9.894000053E0
2.993899202E1,-1.090500057E-1,2.607000113E0,1.052595043E1
2.995856709E1,-2.050500065E-1,2.473050117E0,1.092795086E1
2.997814156E1,-2.430000156E-1,2.301000118E0,1.102395058E1
2.999771694E1,-2.809500098E-1,2.148000002E0,1.091895008E1
3.001728894E1,-3.769500256E-1,2.109000206E0,1.071795082E1
3.003686457E1,-5.299500227E-1,2.176050186E0,1.051695061E1
3.005643688E1,-6.259500384E-1,2.242950201E0,1.039200020E1
3.007601071E1,-5.970000029E-1,2.224050045E0,1.038300037E1
3.009558549E1,-5.299500227E-1,2.205000162E0,1.042095089E1
3.011516126E1,-5.110500455E-1,2.338950157E0,1.036305046E1
3.013473880E1,-5.209500194E-1,2.578950167E0,1.026795006E1
3.015431634E1,-3.580500185E-1,2.665050030E0,1.036305046E1
3.017389627E1,4.950000439E-3,2.646000147E0,1.059300041E1
3.019346894E1,4.260000288E-1,2.635950089E0,1.088100052E1
3.021304310E1,8.670000434E-1,2.406000137E0,1.122495079E1
3.023261511E1,1.240050077E0,1.947000146E0,1.139805031E1
3.025219234E1,1.374000072E0,1.554000020E0,1.118700027E1
3.027176895E1,1.231050014E0,1.342950106E0,1.062195015E1
3.029134589E1,8.569500446E-1,1.228050113E0,9.942000389E0
3.031092127E1,4.069500268E-1,1.141950011E0,9.406050682E0
3.033049933E1,1.500000060E-2,1.123050094E0,9.070050240E0
3.035007255E1,-1.759500057E-1,1.180050015E0,8.956050873E0
3.036965049E1,-1.189500093E-1,1.267050028E0,9.061050415E0
3.038923142E1,1.290000081E-1,1.276050091E0,9.214050293E0
3.040881510E1,3.499500155E-1,1.246950030E0,9.271950722E0
3.042839841E1,4.069500268E-1,1.237950087E0,9.280950546E0
3.044799318E1,3.499500155E-1,1.276050091E0,9.205050468E0
3.046758804E1,2.539499998E-1,1.401000023E0,9.042000771E0
3.048718742E1,1.870500147E-1,1.602000117E0,8.841000557E0
3.050678430E1,1.770000011E-1,1.783950090E0,8.668050766E0
3.052637699E1,2.730000019E-1,1.936950088E0,8.544000626E0
3.054596613E1,4.170000255E-1,2.109000206E0,8.389950752E0
3.056555359E1,5.220000148E-1,2.358000040E0,8.209050179E0
3.058513044E1,6.559500098E-1,2.607000113E0,8.065050125E0
3.060470396E1,8.959500194E-1,2.779950142E0,8.006999969E0
3.062428774E1,1.231050014E0,2.866050243E0,8.026950836E0
3.064386712E1,1.537050128E0,2.923050165E0,8.113050461E0
3.066344682E1,1.690950036E0,3.058050156E0,8.247000694E0
3.068302457E1,1.555950046E0,3.249000072E0,8.485950470E0
3.070260280E1,1.279050112E0,3.325950146E0,8.821050644E0
3.072217973E1,1.105949998E0,3.192000151E0,9.147000313E0
3.074175542E1,1.135050058E0,3.010050058E0,9.520950317E0
3.076132926E1,1.212000012E0,2.962050200E0,9.922950745E0
3.078090650E1,1.153950095E0,3.058050156E0,1.028700066E1
3.080048618E1,1.048950076E0,3.076950073E0,1.059300041E1
3.082006401E1,1.011000037E0,2.914050102E0,1.090905094E1
3.083963778E1,9.910500646E-1,2.827950239E0,1.119705009E1
3.085921571E1,9.720000625E-1,2.827950239E0,1.129200077E1
3.087878864E1,9.910500646E-1,2.722050190E0,1.115805054E1
3.089836456E1,9.720000625E-1,2.617050171E0,1.091895008E1
3.091793911E1,8.569500446E-1,2.655000210E0,1.067895031E1
3.093750865E1,7.519500256E-1,2.761050224E0,1.042095089E1
3.095707911E1,7.519500256E-1,2.827950239E0,1.014300060E1
3.097664612E1,1.020000100E0,2.761050224E0,9.990000725E0
3.099621634E1,1.461000085E0,2.539950132E0,1.001895046E1
3.101578865E1,1.786050081E0,2.349000216E0,1.009500027E1
3.103535911E1,1.930050135E0,2.272050142E0,1.002795029E1
3.105492548E1,1.996950150E0,2.157000065E0,9.636000633E0
3.107449479E1,1.930050135E0,2.032950163E0,8.983950615E0
3.109406094E1,1.681050062E0,2.061000109E0,8.332950592E0
3.111362731E1,1.402950048E0,2.148000002E0,7.786950588E0
3.113319571E1,1.201950073E0,2.224050045E0,7.299000263E0
3.115276089E1,1.030050039E0,2.416050196E0,6.849000454E0
3.117233112E1,8.089500666E-1,2.779950142E0,6.504000187E0
3.119190310E1,4.930500090E-1,3.229950190E0,6.303000450E0
3.121147201E1,1.489500105E-1,3.642000198E0,6.292950153E0
3.123104085E1,-1.189500093E-1,3.948000193E0,6.504000187E0
3.125061447E1,-2.809500098E-1,4.120950222E0,6.858000278E0
3.127017816E1,-3.580500185E-1,4.177950382E0,7.299000263E0
3.128974300E1,-3.870000243E-1,4.140000343E0,7.825050354E0
3.130930883E1,-4.440000355E-1,4.015050411E0,8.458050728E0
3.132887659E1,-5.689499974E-1,3.891000271E0,9.118050575E0
3.134844491E1,-7.320000529E-1,3.747000217E0,9.750000000E0
3.136801106E1,-8.179500103E-1,3.526950121E0,1.026795006E1
3.138757536E1,-7.789500356E-1,3.325950146E0,1.064100075E1
3.140714675E1,-6.360000372E-1,3.192000151E0,1.097595024E1
3.142671659E1,-4.150500298E-1,3.133950233E0,1.122495079E1
3.144628575E1,-2.530499995E-1,3.249000072E0,1.123500061E1
3.146585532E1,-2.430000156E-1,3.450000048E0,1.105305099E1
3.148542550E1,-3.289500177E-1,3.565050125E0,1.090905094E1
3.150499688E1,-4.060500264E-1,3.651000261E0,1.084200096E1
3.152456674E1,-4.350000322E-1,3.766050100E0,1.076595020E1
3.154414027E1,-3.679500222E-1,3.823950291E0,1.066995049E1
3.156371034E1,-1.759500057E-1,3.814050198E0,1.061205006E1
3.158328180E1,1.290000081E-1,3.775950193E0,1.059300041E1
3.160285473E1,3.979500234E-1,3.651000261E0,1.056405067E1
3.162242821E1,5.220000148E-1,3.421050072E0,1.045905018E1
3.164200484E1,4.930500090E-1,3.153000116E0,1.023900032E1
3.166157652E1,3.690000176E-1,2.875950098E0,9.885000229E0
3.168114893E1,1.960500032E-1,2.617050171E0,9.444000244E0
3.170072147E1,-4.050000105E-3,2.482950211E0,9.031949997E0
3.172029201E1,-1.660500020E-1,2.491950035E0,8.754000664E0
3.173986370E1,-2.340000123E-1,2.617050171E0,8.611050606E0
3.175943415E1,-1.660500020E-1,2.770050049E0,8.553000450E0
3.177900856E1,6.195000187E-2,2.904000044E0,8.553000450E0
3.179857818E1,3.880500197E-1,2.980950117E0,8.592000008E0
3.181814981E1,6.750000119E-1,3.058050156E0,8.601000786E0
3.183772156E1,8.760000467E-1,3.153000116E0,8.544000626E0
3.185729663E1,9.430500269E-1,3.181950092E0,8.400000572E0
3.187687200E1,8.760000467E-1,3.229950190E0,8.199000359E0
3.189644580E1,7.230000496E-1,3.345000267E0,8.006999969E0
3.191602496E1,6.079500318E-1,3.526950121E0,7.882950306E0
3.193560273E1,5.800500512E-1,3.736950159E0,7.882950306E0
3.195517627E1,6.469500065E-1,3.919050217E0,7.978950500E0
3.197474958E1,8.190000653E-1,4.054049969E0,8.103000641E0
3.199432121E1,1.057950020E0,4.140000343E0,8.227950096E0
3.201389876E1,1.240050077E0,4.197000027E0,8.304000854E0
3.203347515E1,1.249950051E0,4.245000362E0,8.323050499E0
3.205305021E1,1.068000078E0,4.273950100E0,8.371050835E0
3.207262766E1,8.670000434E-1,4.245000362E0,8.476950645E0
3.209220499E1,7.900500298E-1,4.149000168E0,8.659049988E0
3.211179106E1,7.810500264E-1,4.081950188E0,8.983950615E0
3.213137174E1,8.760000467E-1,4.092000008E0,9.319050789E0
3.215094313E1,9.430500269E-1,4.245000362E0,9.492000580E0
3.217052378E1,9.240000248E-1,4.456050396E0,9.588000298E0
3.219010618E1,1.105949998E0,4.531949997E0,9.682950020E0
3.220969050E1,1.518000126E0,4.561050415E0,9.808050156E0
3.222927509E1,1.911000133E0,4.666050434E0,9.970950127E0
3.224886779E1,2.302950144E0,4.627950191E0,1.010505009E1
3.226845177E1,2.677050114E0,4.303050041E0,1.003800011E1
3.228803293E1,2.763000250E0,3.900000095E0,9.769950867E0
3.230761792E1,2.466000080E0,3.709050179E0,9.472949982E0
3.232720282E1,2.064000130E0,3.651000261E0,9.280950546E0
3.234678489E1,1.815000057E0,3.556050062E0,9.166050911E0
3.236636467E1,1.729050040E0,3.498000145E0,9.166050911E0
3.238594590E1,1.738050103E0,3.508050203E0,9.280950546E0
3.240553236E1,1.786050081E0,3.498000145E0,9.328950882E0
3.242511782E1,1.795950055E0,3.421050072E0,9.175950050E0
3.244470406E1,1.719000101E0,3.259050131E0,8.754000664E0
3.246428367E1,1.450950027E0,3.144000053E0,8.161050797E0
3.248387266E1,1.078050017E0,3.211050034E0,7.642950535E0
3.250346035E1,8.479500413E-1,3.307050228E0,7.240950108E0
3.252304865E1,6.850500107E-1,3.373950243E0,6.868050098E0
3.254263872E1,4.069500268E-1,3.526950121E0,6.646950245E0
3.256222803E1,8.205000311E-2,3.814050198E0,6.646950245E0
3.258181718E1,-6.105000153E-2,4.140000343E0,6.820050240E0
3.260139603E1,1.290000081E-1,4.350000381E0,7.126050472E0
3.262097879E1,5.130000114E-1,4.474950314E0,7.548000336E0
3.264056058E1,9.240000248E-1,4.561050415E0,8.035950661E0
3.266014068E1,1.164000034E0,4.599000454E0,8.467050552E0
3.267971760E1,1.096950054E0,4.599000454E0,8.773950577E0
3.269929630E1,7.900500298E-1,4.561050415E0,8.994000435E0
3.271887331E1,4.260000288E-1,4.494000435E0,9.195000648E0
3.273844622E1,1.579500139E-1,4.483950138E0,9.454050064E0
3.275802344E1,1.770000011E-1,4.465050220E0,9.817050934E0
3.277760620E1,4.930500090E-1,4.389000416E0,1.023900032E1
3.279718581E1,8.089500666E-1,4.321950436E0,1.055505085E1
3.281676458E1,9.430500269E-1,4.293000221E0,1.072695065E1
3.283634406E1,9.150000215E-1,4.255050182E0,1.086105061E1
3.285593544E1,8.479500413E-1,4.216050148E0,1.094805050E1
3.287551943E1,8.670000434E-1,4.197000027E0,1.092795086E1
3.289510059E1,1.020000100E0,4.063050270E0,1.089000034E1
3.291468036E1,1.144950032E0,3.832950115E0,1.087095070E1
3.293426182E1,1.057950020E0,3.631950140E0,1.078500080E1
3.295384313E1,8.479500413E-1,3.487950087E0,1.054500008E1
3.297342558E1,6.180000305E-1,3.307050228E0,1.013400078E1
3.299300710E1,3.780000210E-1,3.144000053E0,9.645000458E0
3.301258490E1,1.770000011E-1,3.085950136E0,9.175950050E0
3.303216159E1,1.500000060E-2,3.067050219E0,8.821050644E0
3.305173976E1,-9.900000691E-2,3.010050058E0,8.563050270E0
3.307132337E1,-1.759500057E-1,2.932950258E0,8.400000572E0
3.309090254E1,-2.239500135E-1,2.923050165E0,8.332950592E0
3.311048367E1,-1.380000114E-1,2.989950180E0,8.419050217E0
3.313006560E1,1.579500139E-1,3.076950073E0,8.601000786E0
3.314964306E1,6.180000305E-1,3.076950073E0,8.830950737E0
3.316922190E1,1.087050080E0,3.028950214E0,9.003000259E0
3.318880213E1,1.365000010E0,3.019050121E0,9.022950172E0
3.320838492E1,1.384050012E0,3.085950136E0,8.908050537E0
3.322796437E1,1.153950095E0,3.286950111E0,8.764050484E0
3.324754192E1,8.760000467E-1,3.594000101E0,8.629950523E0
3.326712123E1,7.519500256E-1,3.948000193E0,8.467050552E0
3.328670124E1,7.140000463E-1,4.293000221E0,8.247000694E0
3.330628902E1,5.890500546E-1,4.743000031E0,8.055000305E0
3.332587546E1,2.830500007E-1,5.337000370E0,8.103000641E0
3.334545579E1,-1.380000114E-1,5.940000057E0,8.410050392E0
3.336504191E1,-6.169500351E-1,6.438000202E0,8.802000046E0
3.338462831E1,-1.143000007E0,6.850050449E0,9.223950386E0
3.340421137E1,-1.546050072E0,7.042050362E0,9.778950691E0
3.342379170E1,-1.525950074E0,6.840000153E0,1.049700069E1
3.344337240E1,-1.230000019E0,6.418950081E0,1.114905071E1
3.346295117E1,-9.130500555E-1,6.036000252E0,1.152195072E1
3.348252956E1,-6.360000372E-1,5.691000462E0,1.156095028E1
3.350211241E1,-3.199500144E-1,5.452050209E0,1.125405025E1
3.352169292E1,1.680000126E-1,5.269950390E0,1.068900013E1
3.354127362E1,8.860500455E-1,5.040000439E0,1.012395000E1
3.356085445E1,1.480050087E0,4.839000225E0,9.826950073E0
3.358043302E1,1.719000101E0,4.695000172E0,9.750000000E0
3.360001786E1,1.747950077E0,4.389000416E0,9.682950020E0
3.361960124E1,1.747950077E0,3.832950115E0,9.540000916E0
3.363918218E1,1.671000123E0,3.259050131E0,9.406050682E0
3.365875918E1,1.441950083E0,3.000000238E0,9.454050064E0
3.367834282E1,1.279050112E0,3.000000238E0,9.636000633E0
3.369792229E1,1.489050031E0,2.962050200E0,9.750000000E0
3.371750314E1,2.083050013E0,2.952000141E0,9.760050774E0
3.373708846E1,2.926050186E0,3.153000116E0,9.655050278E0
3.375667176E1,3.778050184E0,3.421050072E0,9.481950760E0
3.377625854E1,4.305000305E0,3.747000217E0,9.385950089E0
3.379584570E1,4.410000324E0,4.168050289E0,9.501000404E0
3.381542939E1,4.372050285E0,4.531949997E0,9.607050896E0
3.383501217E1,4.372050285E0,4.695000172E0,9.645000458E0
3.385459588E1,4.285950184E0,4.552050114E0,9.568050385E0
3.387418073E1,3.960000277E0,3.958050251E0,9.280950546E0
3.389376255E1,3.298950195E0,3.172050238E0,8.841000557E0
3.391334592E1,2.524050236E0,2.694000244E0,8.437950134E0
3.393293308E1,2.007000208E0,2.799000025E0,8.094000816E0
3.395251546E1,1.968000054E0,3.345000267E0,7.797000408E0
3.397209799E1,2.418000221E0,3.814050198E0,7.738950253E0
3.399167244E1,3.040950060E0,3.852000237E0,7.930950165E0
3.401126032E1,3.385950089E0,3.556050062E0,8.295000076E0
3.403084962E1,3.280050039E0,3.229950190E0,8.686950684E0
3.405044069E1,2.782050133E0,2.980950117E0,8.935950279E0
3.407002738E1,2.101950169E0,2.703000069E0,8.908050537E0
3.408961913E1,1.327050090E0,2.368050098E0,8.601000786E0
3.410919935E1,4.549500346E-1,2.052000046E0,8.227950096E0
3.412877629E1,-5.110500455E-1,1.860000134E0,7.978950500E0
3.414835597E1,-1.459050059E0,1.831950068E0,7.701000214E0
3.416793654E1,-2.206050158E0,1.803000093E0,7.270050526E0
3.418751106E1,-2.791050196E0,1.582950115E0,6.810000420E0
3.420708797E1,-3.451050282E0,1.113000035E0,6.532950401E0
3.422666182E1,-4.312950134E0,5.869500041E-1,6.561000347E0
3.424623935E1,-5.452950478E0,3.469500244E-1,6.724050522E0
3.426581682E1,-6.697950363E0,5.670000315E-1,6.685950279E0
3.428539782E1,-7.588950157E0,1.065000057E0,6.397950172E0
3.430497314E1,-7.752000332E0,1.573050022E0,6.111000061E0
3.432454769E1,-7.147950172E0,2.023050070E0,5.986950397E0
3.434412610E1,-6.094950199E0,2.386950016E0,6.073050499E0
3.436370181E1,-5.070000172E0,2.779950142E0,6.418050289E0
3.438327665E1,-4.360949993E0,3.307050228E0,6.991950512E0
3.440285011E1,-3.901950121E0,3.718050241E0,7.758000374E0
3.442242434E1,-3.480000257E0,3.795000076E0,8.697000504E0
3.444199848E1,-3.087000132E0,3.747000217E0,9.826950073E0
3.446157202E1,-2.608950138E0,3.718050241E0,1.097595024E1
3.448114836E1,-1.938000083E0,3.631950140E0,1.194405079E1
3.450072498E1,-1.162050009E0,3.478950262E0,1.261395073E1
3.452029544E1,-4.150500298E-1,3.373950243E0,1.294005108E1
3.453986398E1,2.160000056E-1,3.364050150E0,1.291095066E1
3.455942900E1,8.380500674E-1,3.412050247E0,1.264305019E1
3.457900346E1,1.546950102E0,3.487950087E0,1.228800011E1
3.459857517E1,2.245950222E0,3.642000198E0,1.190505028E1
3.461814768E1,2.754000187E0,3.919050217E0,1.149300098E1
3.463771908E1,2.983050108E0,4.149000168E0,1.106205082E1
3.465729329E1,2.859000206E0,4.216050148E0,1.072695065E1
3.467686738E1,2.457000017E0,4.092000008E0,1.044000053E1
3.469643937E1,1.939950109E0,3.900000095E0,1.015305042E1
3.471601360E1,1.354950070E0,3.805050135E0,9.913050652E0
3.473558748E1,8.760000467E-1,3.823950291E0,9.712050438E0
3.475515725E1,8.959500194E-1,3.832950115E0,9.529950142E0
3.477472933E1,1.384050012E0,3.766050100E0,9.481950760E0
3.479429858E1,1.852950096E0,3.699000120E0,9.760050774E0
3.481387204E1,1.996950150E0,3.661050081E0,1.036305046E1
3.483344373E1,1.939950109E0,3.661050081E0,1.080405045E1
3.485301545E1,1.920000076E0,3.699000120E0,1.072695065E1
3.487258539E1,1.987050056E0,3.747000217E0,1.021995068E1
3.489215332E1,2.111999989E0,3.747000217E0,9.492000580E0
3.491172409E1,2.188950062E0,3.718050241E0,8.935950279E0
3.493129547E1,2.160000086E0,3.736950159E0,8.725950241E0
3.495086508E1,2.131050110E0,3.823950291E0,8.734950066E0
3.497043432E1,2.140950203E0,3.880950212E0,8.782950401E0
3.499000355E1,2.092950106E0,3.891000271E0,8.850000381E0
3.500957546E1,1.987050056E0,3.823950291E0,8.926950455E0
3.502914561E1,1.930050135E0,3.631950140E0,9.051000595E0
3.504871823E1,1.852950096E0,3.508050203E0,9.300000191E0
3.506829275E1,1.729050040E0,3.526950121E0,9.703050613E0
3.508786653E1,1.671000123E0,3.478950262E0,1.013400078E1
3.510744662E1,1.699950099E0,3.297000170E0,1.046895027E1
3.512703056E1,1.729050040E0,3.067050219E0,1.065105057E1
3.514661094E1,1.681050062E0,2.836950064E0,1.055505085E1
3.516619158E1,1.498950124E0,2.646000147E0,1.030605030E1
3.518576296E1,1.231050014E0,2.559000015E0,1.006605053E1
3.520533125E1,1.057950020E0,2.598000050E0,9.874950409E0
3.522490357E1,1.173000097E0,2.683950186E0,9.769950867E0
3.524448172E1,1.480050087E0,2.731950045E0,9.703050613E0
3.526406014E1,1.690950036E0,2.788950205E0,9.529950142E0
3.528363583E1,1.623000026E0,2.875950098E0,9.166050911E0
3.530320976E1,1.297950029E0,2.962050200E0,8.611050606E0
3.532278386E1,8.760000467E-1,3.133950233E0,8.017050743E0
3.534235894E1,4.740000367E-1,3.354000092E0,7.537950516E0
3.536193002E1,9.105000645E-2,3.642000198E0,7.203000546E0
3.538150456E1,-3.199500144E-1,4.015050411E0,7.011000156E0
3.540107965E1,-7.990500331E-1,4.408050060E0,7.021050453E0
3.542065718E1,-1.258050084E0,4.753050327E0,7.183950424E0
3.544023746E1,-1.612950087E0,5.011050224E0,7.432950497E0
3.545981256E1,-1.948050141E0,5.164050102E0,7.758000374E0
3.547938908E1,-2.197050095E0,5.269950390E0,8.218050003E0
3.549896882E1,-2.091000080E0,5.346000195E0,8.782950401E0
3.551855066E1,-1.555050015E0,5.442000389E0,9.444000244E0
3.553812688E1,-8.460000157E-1,5.586000443E0,1.010505009E1
3.555770141E1,-2.239500135E-1,5.719950199E0,1.070805073E1
3.557727612E1,2.160000056E-1,5.701050282E0,1.119705009E1
3.559685119E1,5.509500504E-1,5.461050034E0,1.155105019E1
3.561642726E1,8.380500674E-1,5.155050278E0,1.173300076E1
3.563599949E1,8.959500194E-1,4.983000278E0,1.173300076E1
3.565557271E1,7.330500484E-1,4.935000420E0,1.152195072E1
3.567514563E1,5.800500512E-1,4.791000366E0,1.111995029E1
3.569471795E1,4.170000255E-1,4.494000435E0,1.054500008E1
3.571429394E1,1.770000011E-1,4.264050007E0,9.846000671E0
3.573387250E1,6.195000187E-2,4.177950382E0,9.232950211E0
3.575345403E1,5.700000525E-1,4.072950363E0,8.841000557E0
3.577303218E1,1.566000104E0,3.928950071E0,8.629950523E0
3.579261551E1,2.284050226E0,3.805050135E0,8.419050217E0
3.581220237E1,2.188950062E0,3.565050125E0,8.151000023E0
3.583178728E1,1.402950048E0,3.048000097E0,7.978950500E0
3.585136729E1,3.499500155E-1,2.272050142E0,7.921050549E0
3.587094752E1,-6.739500165E-1,1.563000083E0,7.950000286E0
3.589052726E1,-1.344000101E0,1.123050094E0,8.094000816E0
3.591010910E1,-1.354050040E0,7.780500650E-1,8.295000076E0
3.592969241E1,-8.269500136E-1,4.620000124E-1,8.515049934E0
3.594927703E1,-1.759500057E-1,3.180000186E-1,8.686950684E0
3.596886665E1,3.979500234E-1,3.760500252E-1,8.734950066E0
3.598845335E1,7.620000243E-1,5.200500488E-1,8.686950684E0
3.600803244E1,8.089500666E-1,7.590000629E-1,8.572050095E0
3.602760757E1,5.220000148E-1,1.171050072E0,8.362050056E0
3.604718041E1,9.105000645E-2,1.707000136E0,8.122050285E0
3.606675123E1,-1.660500020E-1,2.242950201E0,7.921050549E0
3.608632901E1,-9.000000358E-2,2.646000147E0,7.797000408E0
3.610590415E1,2.350500077E-1,2.895000219E0,7.729950428E0
3.612548526E1,5.890500546E-1,3.076950073E0,7.749000549E0
3.614506433E1,8.760000467E-1,3.249000072E0,7.854000568E0
3.616464382E1,1.105949998E0,3.364050150E0,8.026950836E0
3.618422035E1,1.306950092E0,3.421050072E0,8.179950714E0
3.620379851E1,1.470000029E0,3.526950121E0,8.284950256E0
3.622337768E1,1.642950058E0,3.718050241E0,8.428950310E0
3.624295029E1,1.891950130E0,3.823950291E0,8.745000839E0
3.626252628E1,2.111999989E0,3.795000076E0,9.252000809E0
3.628210219E1,2.160000086E0,3.622950077E0,9.750000000E0
3.630167335E1,1.911000133E0,3.421050072E0,1.006605053E1
3.632125358E1,1.509000063E0,3.211050034E0,1.015305042E1
3.634083582E1,1.327050090E0,2.866050243E0,1.021995068E1
3.636040773E1,1.441950083E0,2.539950132E0,1.047795010E1
3.637998005E1,1.498950124E0,2.482950211E0,1.083300018E1
3.639955175E1,1.413000107E0,2.512050152E0,1.130205059E1
3.641912599E1,1.393950105E0,2.397000074E0,1.180995083E1
3.643870042E1,1.432050109E0,2.167050123E0,1.200105095E1
3.645827401E1,1.288050056E0,2.004000187E0,1.170405102E1
3.647784440E1,1.011000037E0,1.927050114E0,1.111005020E1
3.649742048E1,7.420500517E-1,1.908000112E0,1.055505085E1
3.651699672E1,4.740000367E-1,1.975050092E0,1.021995068E1
3.653657586E1,2.639999986E-1,2.119050026E0,1.004700089E1
3.655614971E1,3.210000098E-1,2.205000162E0,9.846000671E0
3.657572480E1,5.989500284E-1,2.215050220E0,9.540000916E0
3.659529681E1,8.290500641E-1,2.320050001E0,9.184950829E0
3.661487189E1,8.569500446E-1,2.683950186E0,8.821050644E0
3.663444361E1,7.900500298E-1,3.115050077E0,8.410050392E0
3.665401160E1,6.750000119E-1,3.412050247E0,7.987950325E0
3.667358815E1,4.840500355E-1,3.613050222E0,7.663050175E0
3.669316816E1,2.830500007E-1,3.823950291E0,7.500000477E0
3.671274545E1,1.680000126E-1,4.054049969E0,7.509000301E0
3.673232261E1,7.200000435E-2,4.245000362E0,7.710000515E0
3.675189797E1,-7.095000148E-2,4.417050362E0,8.094000816E0
3.677147245E1,-2.050500065E-1,4.522950172E0,8.572050095E0
3.679104853E1,-2.340000123E-1,4.531949997E0,9.031949997E0
3.681062260E1,-1.860000044E-1,4.513050079E0,9.444000244E0
3.683019375E1,-1.189500093E-1,4.552050114E0,9.789000511E0
3.684976939E1,-6.105000153E-2,4.599000454E0,9.970950127E0
3.686934792E1,-4.050000105E-3,4.609050274E0,9.952050209E0
3.688892416E1,3.405000269E-2,4.618950367E0,9.846000671E0
3.690850198E1,3.405000269E-2,4.638000011E0,9.789000511E0
3.692808258E1,3.405000269E-2,4.590000153E0,9.885000229E0
3.694766904E1,1.500000060E-2,4.426949978E0,1.011405087E1
3.696725001E1,-9.000000358E-2,4.188000202E0,1.045905018E1
3.698682964E1,-2.340000123E-1,3.919050217E0,1.090905094E1
3.700640902E1,-2.719500065E-1,3.622950077E0,1.135905075E1
3.702598878E1,-9.000000358E-2,3.334950209E0,1.173300076E1
3.704556656E1,2.830500007E-1,3.085950136E0,1.193400097E1
3.706514140E1,7.039500475E-1,2.818050146E0,1.192395020E1
3.708471403E1,9.820500612E-1,2.550000191E0,1.162800026E1
3.710429212E1,9.820500612E-1,2.368050098E0,1.103400040E1
3.712387191E1,8.190000653E-1,2.272050142E0,1.024800014E1
3.714345220E1,6.750000119E-1,2.224050045E0,9.433950424E0
3.716303036E1,6.180000305E-1,2.215050220E0,8.707050323E0
3.718261126E1,6.370500326E-1,2.263050079E0,8.161050797E0
3.720218964E1,8.190000653E-1,2.358000040E0,7.902000427E0
3.722176718E1,1.173000097E0,2.521050215E0,7.864050388E0
3.724134480E1,1.509000063E0,2.694000244E0,7.864050388E0
3.726092327E1,1.633050084E0,2.818050146E0,8.006999969E0
3.728050475E1,1.566000104E0,2.799000025E0,8.352000237E0
3.730008569E1,1.461000085E0,2.626950026E0,8.677950859E0
3.731966609E1,1.402950048E0,2.482950211E0,8.869050026E0
3.733924580E1,1.413000107E0,2.482950211E0,8.898000717E0
3.735882302E1,1.432050109E0,2.626950026E0,8.793000221E0
3.737839896E1,1.317000031E0,2.884950161E0,8.620050430E0
3.739797465E1,1.057950020E0,3.181950092E0,8.352000237E0
3.741755164E1,8.290500641E-1,3.430950165E0,8.006999969E0
3.743713041E1,6.469500065E-1,3.622950077E0,7.749000549E0
3.745670919E1,4.740000367E-1,3.795000076E0,7.720050335E0
3.747629102E1,2.830500007E-1,3.891000271E0,7.998000145E0
3.749587095E1,8.205000311E-2,3.852000237E0,8.515049934E0
3.751544948E1,-1.090500057E-1,3.709050179E0,8.887950897E0
3.753503040E1,-1.950000077E-1,3.498000145E0,9.079950333E0
3.755460520E1,-1.570500135E-1,3.307050228E0,9.291000366E0
3.757418335E1,-9.000000358E-2,3.286950111E0,9.520950317E0
3.759375864E1,-4.200000316E-2,3.373950243E0,9.673950195E0
3.761333624E1,-1.305000018E-2,3.450000048E0,9.712050438E0
3.763291553E1,-2.295000106E-2,3.508050203E0,9.703050613E0
3.765249429E1,-7.995000482E-2,3.565050125E0,9.865050316E0
3.767207243E1,-1.380000114E-1,3.661050081E0,1.026795006E1
3.769165372E1,-3.195000067E-2,3.690000057E0,1.088100052E1
3.771123494E1,3.499500155E-1,3.478950262E0,1.152195072E1
3.773081456E1,8.569500446E-1,3.192000151E0,1.207800102E1
3.775039640E1,1.365000010E0,3.000000238E0,1.252800083E1
3.776997609E1,1.911000133E0,2.761050224E0,1.270005035E1
3.778955181E1,2.457000017E0,2.454000235E0,1.251795101E1
3.780912450E1,2.773050070E0,2.215050220E0,1.207800102E1
3.782869650E1,2.859000206E0,2.071050167E0,1.144605064E1
3.784827058E1,2.878050089E0,1.936950088E0,1.065105057E1
3.786784572E1,2.887950182E0,1.803000093E0,9.808050156E0
3.788742479E1,2.791950226E0,1.774050117E0,8.898000717E0
3.790700625E1,2.562000036E0,1.851000071E0,7.950000286E0
3.792658603E1,2.227050066E0,1.984950066E0,7.050000191E0
3.794617218E1,1.834050059E0,2.137950182E0,6.388950348E0
3.796575589E1,1.402950048E0,2.301000118E0,6.102000237E0
3.798533250E1,1.020000100E0,2.502000093E0,6.091950417E0
3.800490966E1,6.660000086E-1,2.694000244E0,6.274050236E0
3.802448258E1,2.639999986E-1,2.884950161E0,6.609000206E0
3.804406329E1,-1.189500093E-1,3.115050077E0,6.963000298E0
3.806364135E1,-4.249500334E-1,3.297000170E0,7.318050385E0
3.808321987E1,-5.970000029E-1,3.393000126E0,7.738950253E0
3.810279887E1,-6.450000405E-1,3.469050169E0,8.188950539E0
3.812238224E1,-6.450000405E-1,3.546000242E0,8.533950806E0
3.814196200E1,-7.120500207E-1,3.594000101E0,8.764050484E0
3.816154408E1,-9.130500555E-1,3.622950077E0,8.935950279E0
3.818112530E1,-1.258050084E0,3.679950237E0,9.118050575E0
3.820070439E1,-1.689000130E0,3.843000174E0,9.396000862E0
3.822027424E1,-1.996050119E0,4.006050110E0,9.865050316E0
3.823984323E1,-1.966950059E0,4.006050110E0,1.046895027E1
3.825941021E1,-1.708050132E0,3.919050217E0,1.104300022E1
3.827897176E1,-1.402050018E0,3.823950291E0,1.143600082E1
3.829853922E1,-1.171950102E0,3.736950159E0,1.156095028E1
3.831810930E1,-1.095000029E0,3.718050241E0,1.146495056E1
3.833767923E1,-9.420000315E-1,3.718050241E0,1.136895084E1
3.835724724E1,-6.169500351E-1,3.642000198E0,1.137900066E1
3.837681916E1,-2.719500065E-1,3.469050169E0,1.130205059E1
3.839638502E1,-7.095000148E-2,3.192000151E0,1.098600006E1
3.841595187E1,-1.090500057E-1,2.914050102E0,1.046895027E1
3.843552110E1,-3.010500073E-1,2.751000166E0,9.874950409E0
3.845508602E1,-4.729500115E-1,2.731950045E0,9.367050171E0
3.847465548E1,-5.400000215E-1,2.799000025E0,9.003000259E0
3.849422787E1,-5.110500455E-1,2.914050102E0,8.745000839E0
3.851379362E1,-4.060500264E-1,2.980950117E0,8.505000114E0
3.853335800E1,-2.620500028E-1,2.962050200E0,8.314050674E0
3.855292779E1,-1.279500127E-1,2.923050165E0,8.236949921E0
3.857250356E1,-6.105000153E-2,2.904000044E0,8.151000023E0
3.859207554E1,-5.205000192E-2,2.904000044E0,7.998000145E0
3.861165024E1,-9.900000691E-2,2.943000078E0,7.825050354E0
3.863122019E1,-1.860000044E-1,3.096000195E0,7.663050175E0
3.865079309E1,-2.239500135E-1,3.201000214E0,7.537950516E0
3.867037484E1,-1.860000044E-1,3.181950092E0,7.432950497E0
3.868995116E1,-1.469999999E-1,3.067050219E0,7.384950161E0
3.870952809E1,-2.430000156E-1,2.904000044E0,7.441950321E0
3.872910655E1,-4.440000355E-1,2.646000147E0,7.615050316E0
3.874868286E1,-6.739500165E-1,2.301000118E0,7.939950466E0
3.876825732E1,-9.420000315E-1,1.966050148E0,8.447999954E0
3.878783517E1,-1.219950080E0,1.717050076E0,9.042000771E0
3.880740969E1,-1.372950077E0,1.477050066E0,9.655050278E0
3.882698222E1,-1.249050021E0,1.200000048E0,1.022895050E1
3.884655977E1,-1.000050068E0,9.979500771E-1,1.072695065E1
3.886613144E1,-8.850000501E-1,1.027050018E0,1.107195091E1
3.888570506E1,-9.229500294E-1,1.276050091E0,1.111995029E1
3.890527852E1,-9.709500670E-1,1.525050044E0,1.096695042E1
3.892485634E1,-9.420000315E-1,1.717050076E0,1.087095070E1
3.894443488E1,-8.080500364E-1,1.947000146E0,1.085205078E1
3.896400925E1,-5.500500202E-1,2.196000099E0,1.087095070E1
3.898358218E1,-1.660500020E-1,2.338950157E0,1.092795086E1
3.900315727E1,2.639999986E-1,2.358000040E0,1.099500084E1
3.902273028E1,6.469500065E-1,2.386950016E0,1.102395058E1
3.904230248E1,1.039050102E0,2.425050020E0,1.103400040E1
3.906187208E1,1.498950124E0,2.349000216E0,1.102395058E1
3.908144772E1,1.948950052E0,2.205000162E0,1.097595024E1
3.910102042E1,2.217000008E0,2.023050070E0,1.090905094E1
3.912059726E1,2.236050129E0,1.851000071E0,1.070805073E1
3.914017089E1,2.169000149E0,1.726050138E0,1.026795006E1
3.915974620E1,2.140950203E0,1.630950093E0,9.597000122E0
3.917931980E1,2.083050013E0,1.563000083E0,8.812050819E0
3.919889235E1,1.882050037E0,1.650000095E0,8.113050461E0
3.921846593E1,1.422000051E0,1.888950109E0,7.624050140E0
3.923804386E1,8.479500413E-1,2.215050220E0,7.308000565E0
3.925762787E1,3.589500189E-1,2.530950069E0,7.078050137E0
3.927721059E1,2.400000021E-2,2.761050224E0,6.916050434E0
3.929678473E1,-2.239500135E-1,2.962050200E0,6.886950493E0
3.931635895E1,-4.830000103E-1,3.133950233E0,7.069050312E0
3.933594141E1,-8.179500103E-1,3.181950092E0,7.432950497E0
3.935552565E1,-1.239000082E0,3.115050077E0,7.825050354E0
3.937511520E1,-1.747050047E0,3.000000238E0,8.236949921E0
3.939470449E1,-2.272950172E0,2.866050243E0,8.686950684E0
3.941429148E1,-2.713950157E0,2.694000244E0,9.118050575E0
3.943387733E1,-3.163950205E0,2.512050152E0,9.529950142E0
3.945345670E1,-3.613950253E0,2.386950016E0,9.979950905E0
3.947303208E1,-3.835050106E0,2.301000118E0,1.048800087E1
3.949260594E1,-3.643050194E0,2.185950041E0,1.094805050E1
3.951218108E1,-3.289050102E0,2.109000206E0,1.124400043E1
3.953176660E1,-3.040050030E0,2.196000099E0,1.143600082E1
3.955134413E1,-2.848050117E0,2.301000118E0,1.169505024E1
3.957091667E1,-2.637000084E0,2.310000181E0,1.200105095E1
3.959048752E1,-2.302050114E0,2.224050045E0,1.216395092E1
3.961006659E1,-1.861950040E0,1.947000146E0,1.215405083E1
3.962964559E1,-1.603050113E0,1.543950081E0,1.205895042E1
3.964922720E1,-1.651050091E0,1.276050091E0,1.181895065E1
3.966880989E1,-1.765950084E0,1.141950011E0,1.133100033E1
3.968838780E1,-1.737000108E0,1.065000057E0,1.063200092E1
3.970796442E1,-1.699050069E0,1.045950055E0,9.922950745E0
3.972754096E1,-1.795050144E0,1.171050072E0,9.358050346E0
3.974711885E1,-1.890000105E0,1.381950021E0,8.887950897E0
3.976669479E1,-1.833000064E0,1.554000020E0,8.437950134E0
3.978626894E1,-1.728000045E0,1.698000073E0,7.987950325E0
3.980583942E1,-1.641000032E0,1.879950047E0,7.642950535E0
3.982541233E1,-1.564950109E0,2.080950022E0,7.441950321E0
3.984498626E1,-1.383000016E0,2.224050045E0,7.393950462E0
3.986455784E1,-1.075950027E0,2.272050142E0,7.480950356E0
3.988413167E1,-7.699500322E-1,2.320050001E0,7.672050476E0
3.990370642E1,-6.070500016E-1,2.434950113E0,7.891950607E0
3.992327819E1,-5.779500008E-1,2.617050171E0,8.094000816E0
3.994285349E1,-5.970000029E-1,2.770050049E0,8.266050339E0
3.996242773E1,-5.879999995E-1,2.895000219E0,8.352000237E0
3.998200240E1,-5.779500008E-1,3.096000195E0,8.400000572E0
4.000157779E1,-6.259500384E-1,3.345000267E0,8.533950806E0
4.002114519E1,-6.640500426E-1,3.508050203E0,8.764050484E0
4.004071235E1,-6.360000372E-1,3.535950184E0,9.051000595E0
4.006028558E1,-6.640500426E-1,3.517050266E0,9.406050682E0
4.007985392E1,-7.410000563E-1,3.517050266E0,9.894000053E0
4.009942344E1,-6.070500016E-1,3.469050169E0,1.041105080E1
4.011899607E1,-1.380000114E-1,3.441000223E0,1.078500080E1
4.013856365E1,7.039500475E-1,3.508050203E0,1.078500080E1
4.015813449E1,1.825050116E0,3.574950218E0,1.025805092E1
4.017770887E1,2.754000187E0,3.651000261E0,9.252000809E0
4.019728119E1,3.070050240E0,3.699000120E0,8.332950592E0
4.021685574E1,2.848950148E0,3.699000120E0,8.275950432E0
4.023642651E1,2.590950012E0,3.661050081E0,8.965050697E0
4.025599782E1,2.706000090E0,3.565050125E0,9.826950073E0
4.027556620E1,3.070050240E0,3.393000126E0,1.053600025E1
4.029514036E1,3.442950249E0,3.153000116E0,1.083300018E1
4.031471296E1,3.634950161E0,2.884950161E0,1.068900013E1
4.033428980E1,3.538950205E0,2.713050127E0,1.036305046E1
4.035386795E1,3.175050259E0,2.683950186E0,1.002795029E1
4.037344826E1,2.658000231E0,2.779950142E0,9.636000633E0
4.039302832E1,2.169000149E0,2.914050102E0,9.109050751E0
4.041260978E1,1.815000057E0,3.028950214E0,8.601000786E0
4.043219256E1,1.671000123E0,3.211050034E0,8.256000519E0
4.045177719E1,1.651950121E0,3.565050125E0,7.987950325E0
4.047135973E1,1.662000060E0,4.024950027E0,7.567050457E0
4.049094334E1,1.699950099E0,4.389000416E0,7.039950371E0
4.051052649E1,1.758000135E0,4.513050079E0,6.676050186E0
4.053011011E1,1.719000101E0,4.522950172E0,6.532950401E0
4.054969750E1,1.585050106E0,4.579950333E0,6.561000347E0
4.056928118E1,1.546950102E0,4.647000313E0,6.609000206E0
4.058886496E1,1.662000060E0,4.675950050E0,6.637950420E0
4.060844127E1,1.758000135E0,4.723950386E0,6.724050522E0
4.062802096E1,1.699950099E0,4.867950439E0,6.886950493E0
4.064760304E1,1.633050084E0,4.963050365E0,7.002000332E0
4.066718280E1,1.681050062E0,4.963050365E0,7.087950230E0
4.068674980E1,1.681050062E0,4.992000103E0,7.231950283E0
4.070631849E1,1.633050084E0,5.011050224E0,7.414050579E0
4.072588988E1,1.585050106E0,4.963050365E0,7.681950569E0
4.074546641E1,1.498950124E0,4.992000103E0,8.103000641E0
4.076504118E1,1.470000029E0,5.050050259E0,8.629950523E0
4.078461634E1,1.594950080E0,5.059050083E0,9.109050751E0
4.080418926E1,1.690950036E0,5.173950195E0,9.472949982E0
4.082376520E1,1.603950024E0,5.433000088E0,9.741000175E0
4.084333450E1,1.413000107E0,5.653050423E0,1.004700089E1
4.086290620E1,1.288050056E0,5.739000320E0,1.049700069E1
4.088248428E1,1.365000010E0,5.710050106E0,1.085205078E1
4.090205594E1,1.690950036E0,5.461050034E0,1.098600006E1
4.092162886E1,2.121000051E0,5.020950317E0,1.098600006E1
4.094121326E1,2.389950037E0,4.570950031E0,1.070805073E1
4.096078426E1,2.245950222E0,4.207050323E0,1.015305042E1
4.098035910E1,1.747950077E0,3.910050154E0,9.549000740E0
4.099993502E1,1.144950032E0,3.690000057E0,9.031949997E0
4.101950925E1,5.599500537E-1,3.651000261E0,8.707050323E0
4.103908647E1,1.579500139E-1,3.757050276E0,8.553000450E0
