"Time (s)","Acceleration x (m/s^2)","Acceleration y (m/s^2)","Acceleration z (m/s^2)"
2.627436900E-2,-1.969950080E0,3.223950148E0,1.094100094E1
4.627437000E-2,-2.389050007E0,2.884050131E0,9.988950729E0
6.716293900E-2,-2.965950251E0,2.700000048E0,8.988000870E0
8.805064400E-2,-2.764950037E0,3.049050093E0,8.632950783E0
1.089334310E-1,-2.101950169E0,3.346050262E0,8.566050529E0
1.298164940E-1,-1.816950083E0,3.367950201E0,8.467950821E0
1.507028710E-1,-2.197950125E0,3.046950102E0,8.581050873E0
1.715891760E-1,-2.752950191E0,2.841000080E0,8.707950592E0
1.924722680E-1,-2.550000191E0,2.937000036E0,8.821949959E0
2.133553490E-1,-2.233950138E0,3.157050133E0,8.845950127E0
2.342281760E-1,-1.989000082E0,3.162000179E0,8.980950356E0
2.551009890E-1,-2.047049999E0,2.992050171E0,9.391950607E0
2.759720710E-1,-1.912950039E0,3.109050035E0,9.535950661E0
2.968431480E-1,-1.731000066E0,3.391950130E0,9.057000160E0
3.177143390E-1,-1.756950140E0,3.442050219E0,9.012000084E0
3.385855320E-1,-1.860000134E0,3.391950130E0,9.048000336E0
3.594538190E-1,-1.834050059E0,3.310050249E0,9.250950813E0
3.803221280E-1,-1.671000123E0,3.310050249E0,9.627000809E0
4.011998480E-1,-1.393050075E0,3.403950214E0,9.735000610E0
4.220775370E-1,-1.036050081E0,3.442050219E0,9.505050659E0
4.429535440E-1,-7.399500608E-1,3.169050217E0,8.707950592E0
4.638295470E-1,-1.041000009E0,2.962950230E0,7.780950546E0
4.847086300E-1,-1.447950125E0,2.893950224E0,7.579950333E0
5.055877050E-1,-1.138950109E0,2.487000227E0,7.855050564E0
5.264674160E-1,-6.700500250E-1,1.986000061E0,8.406000137E0
5.473471470E-1,-1.039050102E0,1.653000116E0,9.234000206E0
5.682293960E-1,-1.678050041E0,1.363950014E0,9.804000854E0
5.891116670E-1,-2.289000034E0,1.029000044E0,9.865950584E0
6.099940110E-1,-2.518950224E0,6.259500384E-1,9.514050484E0
6.308763580E-1,-2.266950130E0,7.480500340E-1,9.430950165E0
6.517657110E-1,-1.984950066E0,1.290000081E0,9.550050735E0
6.726550560E-1,-1.771950126E0,1.270050049E0,9.186000824E0
6.935372370E-1,-1.743000031E0,1.029000044E0,8.878050804E0
7.144194360E-1,-1.960950136E0,1.255950093E0,9.343950272E0
7.353049710E-1,-1.993950129E0,1.600950122E0,9.976950645E0
7.561905080E-1,-2.149950027E0,1.585950017E0,1.015800095E1
7.770786050E-1,-2.659950018E0,1.387950063E0,1.063695049E1
7.979667580E-1,-2.917950153E0,8.830500245E-1,1.079805088E1
8.188542550E-1,-2.752950191E0,6.960000396E-1,1.105395031E1
8.397417580E-1,-2.454000235E0,1.129050016E0,1.168095016E1
8.606231390E-1,-2.164050102E0,1.321050048E0,1.167405033E1
8.815045660E-1,-1.282950044E0,1.447950125E0,1.075005054E1
9.023863540E-1,1.050000042E-1,1.771050096E0,9.577050209E0
9.232681610E-1,1.183950067E0,1.986000061E0,9.976950645E0
9.441556370E-1,-3.589500189E-1,1.111950040E0,1.298895073E1
9.650430600E-1,-3.061950207E0,-1.480500102E-1,1.589295101E1
9.859310530E-1,-2.581050158E0,-1.567950130E0,1.561305046E1
1.006819056E0,-1.063050032E0,-2.557050228E0,1.334505081E1
1.027703461E0,6.720000505E-1,-2.377050161E0,1.181295013E1
1.048587888E0,-1.483950019E0,-1.055999994E0,1.173900032E1
1.069468227E0,-1.515000105E0,-1.003050089E0,1.151100063E1
1.090348536E0,-5.790000558E-1,-1.326000094E0,1.053405094E1
1.111231731E0,-1.027050018E0,-1.219050050E0,9.376049995E0
1.132114960E0,-8.310000300E-1,-8.640000224E-1,8.641050339E0
1.152993601E0,-1.120500043E-1,-4.305000231E-2,8.072999954E0
1.173872258E0,2.310000062E-1,7.630500197E-1,7.888950348E0
1.194744711E0,7.489500642E-1,1.014000058E0,7.209000111E0
1.215617138E0,8.230500221E-1,1.318050027E0,6.679950237E0
1.236500070E0,2.939999998E-1,1.540950060E0,6.703950405E0
1.257383027E0,-2.820000052E-1,1.636950135E0,6.969000340E0
1.278271779E0,-6.850500107E-1,1.785000086E0,7.351950169E0
1.299160508E0,-7.590000629E-1,1.966950059E0,7.362000465E0
1.320047487E0,-5.550000072E-1,2.271000147E0,7.189950466E0
1.340934450E0,-1.170000061E-1,2.575050116E0,7.495950222E0
1.361822617E0,6.195000187E-2,2.653950214E0,7.873950481E0
1.382710772E0,1.759500057E-1,2.551050186E0,7.846050262E0
1.403599367E0,5.205000192E-2,2.274000168E0,8.097000122E0
1.424487984E0,-8.400000632E-2,1.735050082E0,8.659950256E0
1.445374578E0,1.605000161E-2,1.510050058E0,9.583950043E0
1.466261157E0,1.410000026E-1,1.303950071E0,1.071600056E1
1.487143768E0,8.830500245E-1,6.000000238E-1,1.120005035E1
1.508026387E0,1.026000023E0,3.730500042E-1,1.171005058E1
1.528904699E0,3.220500052E-1,1.095000096E-2,1.268895054E1
1.549783046E0,-1.008000016E0,-1.012950063E0,1.286895084E1
1.570665606E0,-1.969950080E0,-2.056950092E0,1.388895035E1
1.591548181E0,-1.969950080E0,-2.394000053E0,1.426200104E1
1.612426171E0,-1.441050053E0,-2.148000002E0,1.341195107E1
1.633304176E0,-5.100000501E-1,-1.330950022E0,1.224195099E1
1.654184057E0,9.829500318E-1,1.469999999E-1,1.072605038E1
1.675063940E0,8.805000782E-2,3.708000183E0,6.817950249E0
1.695939123E0,-7.230000496E-1,1.831050038E0,6.571950436E0
1.716814320E0,-1.510950089E0,1.162950039E0,6.523950100E0
1.737688662E0,-2.122950077E0,7.720500231E-1,7.242000580E0
1.758563007E0,-2.716950178E0,6.340500116E-1,7.771050453E0
1.779447406E0,-3.237000227E0,5.190000534E-1,7.884000301E0
1.800331825E0,-3.675000191E0,6.910500526E-1,7.696950436E0
1.821210267E0,-3.483000278E0,9.090000391E-1,7.756950378E0
1.842088734E0,-3.088050127E0,1.239000082E0,7.945950508E0
1.862979325E0,-2.734050035E0,1.375950098E0,8.204999924E0
1.883869936E0,-2.590050220E0,1.360950112E0,8.371950150E0
1.904754402E0,-2.550000191E0,1.239000082E0,8.635950089E0
1.925638907E0,-2.860950232E0,1.075950027E0,8.917950630E0
1.946515821E0,-3.403950214E0,5.470499992E-1,9.091050148E0
1.967392748E0,-3.310950041E0,2.029500157E-1,1.000305080E1
1.988271826E0,-3.969000101E0,8.680500388E-1,1.025895023E1
2.009150863E0,-4.000950336E0,1.360950112E0,1.015605068E1
2.030035006E0,-5.179050446E0,1.467000127E0,1.032795048E1
2.050919157E0,-3.625050068E0,1.414050102E0,9.694050789E0
2.071802394E0,-1.795050144E0,1.004999995E0,1.182000065E1
2.092685627E0,-2.605050087E0,2.295000106E-2,1.491105080E1
2.113569319E0,-4.069950104E0,-1.867950082E0,1.568505096E1
2.134453012E0,-4.101000309E0,-3.136050224E0,1.523400116E1
2.155332736E0,-3.067050219E0,-3.678000212E0,1.407795048E1
2.176212469E0,-2.422950029E0,-3.637050152E0,1.235400105E1
2.197098612E0,-2.724000216E0,-2.503950119E0,1.109205055E1
2.217984763E0,-2.121000051E0,-1.923000097E0,1.001700020E1
2.238872457E0,-8.449500203E-1,-1.575000048E0,1.004595089E1
2.259760152E0,-8.590500355E-1,-1.444050074E0,9.292050362E0
2.280644645E0,-7.900500298E-1,-1.012950063E0,8.602050781E0
2.301529108E0,1.240500063E-1,-1.080000028E-1,7.909950256E0
2.322413064E0,1.114950061E0,1.182000041E0,7.213950157E0
2.343297027E0,1.764000058E0,2.130000114E0,6.703950405E0
2.364186720E0,1.824000120E0,2.479950190E0,6.498000145E0
2.385076411E0,1.546050072E0,2.395950079E0,6.904950142E0
2.405963716E0,9.829500318E-1,2.128050089E0,7.156050205E0
2.426850989E0,3.420000076E-1,1.885950089E0,7.057950497E0
2.447738041E0,-5.070000291E-1,1.918950081E0,6.601050377E0
2.468625080E0,-6.409500241E-1,1.902000070E0,6.622050285E0
2.489499748E0,-7.780500650E-1,1.600950122E0,7.137000561E0
2.510374407E0,-1.470000029E0,1.371000051E0,7.411950588E0
2.531252410E0,-1.707000136E0,1.974000096E0,8.362950325E0
2.552130407E0,-1.024950027E0,1.639050126E0,9.117000580E0
2.573014370E0,-1.021950006E0,4.830000103E-1,9.342000008E0
2.593898523E0,-5.119500160E-1,1.450050116E0,9.828000069E0
2.614778322E0,9.210000634E-1,1.399950027E0,1.087005043E1
2.635658133E0,-1.069950104E0,-3.139500022E-1,1.251195049E1
2.656535039E0,-2.575950146E0,-2.968950033E0,1.383600044E1
2.677411964E0,-4.786050320E0,-3.864000082E0,1.470795059E1
2.698291989E0,-6.001950264E0,-2.607000113E0,1.448700047E1
2.719171988E0,-4.840950012E0,-3.019050121E0,1.245000076E1
2.740055112E0,-3.466950178E0,-1.362000108E0,1.110195065E1
2.760938229E0,-1.840950131E0,7.530000210E-1,1.017795086E1
2.781813941E0,-1.044000030E0,1.303950071E0,1.044795036E1
2.802689638E0,-1.096050024E0,1.114950061E0,1.039995003E1
2.823577005E0,-1.599000096E0,1.303950071E0,9.555000305E0
2.844464382E0,-1.609050035E0,1.633950114E0,7.864950180E0
2.865346471E0,-1.447950125E0,2.282999992E0,6.475950241E0
2.886228632E0,-1.210950017E0,3.100050211E0,5.656950474E0
2.907113231E0,-9.310500622E-1,3.595050097E0,5.004000187E0
2.927997806E0,-1.000950098E0,3.732000113E0,4.534049988E0
2.948883003E0,-1.479000092E0,3.598050117E0,4.632000446E0
2.969768234E0,-1.951050043E0,3.253050089E0,6.097950459E0
2.990652721E0,-2.155050039E0,2.416950226E0,7.912950516E0
3.011537224E0,-2.940000057E0,1.926000118E0,9.091050148E0
3.032421796E0,-4.017000198E0,1.938000083E0,9.385050774E0
3.053306373E0,-4.587000370E0,2.131950140E0,9.297000885E0
3.074192850E0,-4.426949978E0,2.512950182E0,8.707950592E0
3.095079311E0,-4.423950195E0,3.391950130E0,7.860000610E0
3.115958840E0,-3.322950125E0,3.865950108E0,7.447950363E0
3.136838383E0,-2.221950054E0,3.190950155E0,1.066800022E1
3.157713481E0,-3.001950026E0,-4.090500176E-1,1.498995113E1
3.178588406E0,-3.948000193E0,-5.221950054E0,1.884705162E1
3.199473695E0,-6.136050224E0,-7.450950146E0,2.017905045E1
3.220358960E0,-9.682050705E0,-7.827000141E0,1.904805183E1
3.241243691E0,-9.205950737E0,-7.506000519E0,1.707795143E1
3.262128464E0,-7.491000175E0,-7.507950306E0,1.404405022E1
3.283007212E0,-5.365050316E0,-5.818050385E0,1.238295078E1
3.303885945E0,-3.723000288E0,-4.330950260E0,1.001700020E1
3.324777345E0,-2.392050028E0,-2.326950073E0,6.871050358E0
3.345668724E0,-1.642050028E0,-5.050500035E-1,4.624950409E0
3.366555997E0,-7.950000167E-1,5.500500202E-1,3.069000244E0
3.387443272E0,-9.300000221E-2,9.619500637E-1,2.370000124E0
3.408325939E0,-1.510500014E-1,1.491000056E0,2.269050121E0
3.429208556E0,2.119500041E-1,2.071950197E0,2.499000072E0
3.450098108E0,1.030950069E0,2.760000229E0,3.033000231E0
3.470987643E0,1.528950095E0,3.411000252E0,3.904950142E0
3.491876669E0,1.599000096E0,3.625950098E0,4.321050167E0
3.512765710E0,8.230500221E-1,3.190950155E0,4.198950291E0
3.533650199E0,1.549500078E-1,3.028050184E0,4.256999969E0
3.554534662E0,-1.870500147E-1,3.138000250E0,5.772000313E0
3.575424082E0,-9.430500269E-1,2.647050142E0,7.315950394E0
3.596313503E0,-5.839500427E-1,1.828050137E0,8.371950150E0
3.617199037E0,3.679500222E-1,1.414050102E0,9.061950684E0
3.638084580E0,6.070500016E-1,1.819050074E0,1.079100037E1
3.658971418E0,1.570500135E-1,1.621950030E0,1.236600018E1
3.679858301E0,3.460500240E-1,8.730000257E-1,1.219095039E1
3.700743220E0,-2.200500071E-1,-1.920000017E-1,1.242105103E1
3.721628147E0,-2.701050043E0,-1.482000113E0,1.495695114E1
3.742513954E0,-3.996000290E0,-3.510000229E0,1.722900009E1
3.763399801E0,-3.877950191E0,-3.723000288E0,1.786305046E1
3.784286627E0,-3.199050188E0,-3.129000187E0,1.784700012E1
3.805173436E0,-2.394000053E0,-2.659950018E0,1.611300087E1
3.826060511E0,-5.980500579E-1,-9.360000491E-1,1.370400047E1
3.846947590E0,1.120050073E0,5.620500445E-1,1.131495094E1
3.867833721E0,1.824000120E0,1.512000084E0,9.421050072E0
3.888719840E0,1.522050023E0,1.870950103E0,7.743000507E0
3.909600631E0,9.019500613E-1,2.002950191E0,6.205950260E0
3.930481440E0,3.970500231E-1,2.161050081E0,4.989000320E0
3.951367292E0,-7.200000435E-2,2.616000175E0,4.111050129E0
3.972253137E0,-2.770500183E-1,3.151950121E0,3.562050104E0
3.993136333E0,-3.420000076E-1,3.547050238E0,3.732000113E0
4.014019566E0,-5.479500294E-1,3.066000223E0,4.410000324E0
4.034900765E0,-1.233000040E0,1.540950060E0,5.656950474E0
4.055781960E0,-2.667000055E0,2.890500128E-1,7.663950443E0
4.076671233E0,-4.116000175E0,3.559500277E-1,1.100595093E1
4.097560498E0,-4.659000397E0,1.240500063E-1,1.259595013E1
4.118445364E0,-5.104050159E0,-2.350500077E-1,1.279905033E1
4.139330253E0,-4.285950184E0,-5.295000225E-2,1.159005070E1
4.160211640E0,-3.946050167E0,9.619500637E-1,1.142505074E1
4.181093027E0,-2.844000101E0,1.572000027E0,1.144695091E1
4.201978172E0,-1.690050125E0,1.285050035E0,1.218405056E1
4.222863287E0,-2.329050064E0,-7.905000448E-2,1.515795040E1
4.243752037E0,-3.724950075E0,-1.633050084E0,1.733699989E1
4.264640768E0,-4.328999996E0,-2.180999994E0,1.805700111E1
4.285527077E0,-4.077000141E0,-2.032950163E0,1.595700073E1
4.306413388E0,-3.033000231E0,-1.164000034E0,1.284495068E1
4.327294091E0,-1.888950109E0,-4.020000100E-1,1.101105022E1
4.348174748E0,-8.550000191E-1,-3.060000241E-1,1.104900074E1
4.369057152E0,-5.310000181E-1,-5.505000427E-2,1.027800083E1
4.389939575E0,-5.070000291E-1,1.639500111E-1,9.067049980E0
4.410822165E0,-1.630500108E-1,2.340000123E-1,7.867050171E0
4.431704782E0,3.630000055E-1,3.510000110E-1,6.246000290E0
4.452600211E0,1.218000054E0,6.240000129E-1,4.939050198E0
4.473495628E0,7.369500399E-1,1.486050129E0,4.177950382E0
4.494379577E0,4.129500091E-1,2.640000105E0,3.901950121E0
4.515263546E0,5.710500479E-1,3.351000071E0,3.913950205E0
4.536150957E0,9.930000305E-1,3.877950191E0,3.754050255E0
4.557038378E0,1.213050008E0,4.666050434E0,3.793950081E0
4.577929094E0,1.692000031E0,5.131950378E0,5.157000065E0
4.598819825E0,1.797000051E0,5.166000366E0,6.232050419E0
4.619708111E0,1.194000006E0,4.977000237E0,7.087050438E0
4.640596422E0,6.960000396E-1,4.732950211E0,8.197950363E0
4.661480737E0,5.160000324E-1,4.417050362E0,8.937000275E0
4.682365046E0,6.070500016E-1,4.134000301E0,9.390000343E0
4.703258454E0,1.255950093E0,4.267950058E0,9.778050423E0
4.724151835E0,1.728000045E0,4.852050304E0,9.067049980E0
4.745041387E0,2.995050192E0,4.993950367E0,8.692950249E0
4.765930970E0,3.742050171E0,4.201050282E0,1.034805012E1
4.786817551E0,2.824950218E0,1.771050096E0,1.343595028E1
4.807704128E0,-7.050000131E-3,-6.060000062E-1,1.634505081E1
4.828591652E0,-3.844950199E0,-1.635000110E0,1.588605118E1
4.849479229E0,-4.798050404E0,-1.591950059E0,1.400400066E1
4.870366438E0,-3.427950144E0,-7.110000253E-1,1.193295097E1
4.891253671E0,-1.138950109E0,1.012050033E0,9.604950905E0
4.912140434E0,4.590000212E-1,3.459000111E0,8.584950447E0
4.933027205E0,1.432950020E0,3.468000174E0,8.893950462E0
4.953914748E0,7.440000176E-1,3.162000179E0,9.013950348E0
4.974802287E0,-5.149500370E-1,2.311950207E0,8.394000053E0
4.995689088E0,-1.494000077E0,1.752000093E0,7.218000412E0
5.016575859E0,-1.936950088E0,1.933950067E0,5.896950245E0
5.037463219E0,-1.822050095E0,2.755050182E0,5.209950447E0
5.058350566E0,-1.503000021E0,3.279000044E0,5.188050270E0
5.079246569E0,-1.105949998E0,3.715050220E0,5.575950146E0
5.100142566E0,-9.690000415E-1,3.697950125E0,6.493050098E0
5.121032456E0,-9.739500284E-1,3.151950121E0,7.597050190E0
5.141922345E0,-1.551000118E0,2.422049999E0,8.908950806E0
5.162809243E0,-2.566050053E0,1.945950150E0,1.013895035E1
5.183696128E0,-3.012000084E0,2.143949986E0,1.073595047E1
5.204587115E0,-2.881950140E0,2.872050047E0,9.883050919E0
5.225478076E0,-1.939050078E0,4.167000294E0,9.349050522E0
5.246371636E0,-7.129500508E-1,5.085000038E0,1.027605057E1
5.267265177E0,-6.940500140E-1,3.595050097E0,1.242600060E1
5.288157468E0,-1.630050063E0,1.081050038E0,1.640295029E1
5.309049777E0,-3.859050274E0,-2.191050053E0,1.750200081E1
5.329940933E0,-6.730050087E0,-3.936000109E0,1.680495071E1
5.350832128E0,-7.912950516E0,-4.516050339E0,1.574400043E1
5.371713192E0,-7.228050232E0,-4.024950027E0,1.402500057E1
5.392594273E0,-5.134950161E0,-2.932950258E0,1.170795059E1
5.413482633E0,-3.450000048E0,-1.683000088E0,9.514050484E0
5.434370974E0,-2.677050114E0,-6.750000119E-1,8.017950058E0
5.455259892E0,-2.368050098E0,-2.230500132E-1,7.312050343E0
5.476148777E0,-2.140050173E0,5.700000376E-2,7.161000252E0
5.497041449E0,-1.969950080E0,4.159500301E-1,7.126950264E0
5.517934104E0,-1.575000048E0,7.990500331E-1,7.168050289E0
5.538825174E0,-9.769500494E-1,1.191000104E0,6.940950394E0
5.559716253E0,-5.980500579E-1,1.594050050E0,6.406950474E0
5.580597604E0,-5.310000181E-1,2.014950037E0,5.854050159E0
5.601478993E0,-2.100000083E-1,2.391000032E0,5.551950455E0
5.622364128E0,5.400000140E-2,2.796000242E0,5.326950073E0
5.643249319E0,-1.905000024E-2,3.174000263E0,5.101950169E0
5.664131311E0,-2.340000123E-1,3.349050045E0,5.197950363E0
5.685013314E0,-3.850500286E-1,3.052050114E0,5.776950359E0
5.705906387E0,-5.260500312E-1,2.956050158E0,6.433050156E0
5.726799460E0,-8.710500598E-1,3.021000147E0,7.201950550E0
5.747685448E0,-1.228050113E0,2.889000177E0,8.513999939E0
5.768571455E0,-1.162950039E0,2.632950068E0,9.589050293E0
5.789457764E0,-1.087050080E0,2.901000023E0,1.065405083E1
5.810344071E0,-3.040500283E-1,3.210000038E0,1.189695072E1
5.831231150E0,1.260000020E-1,2.905950069E0,1.328100109E1
5.852118229E0,-1.077000022E0,2.197050095E0,1.632600021E1
5.873004703E0,-1.858050108E0,4.279500246E-1,1.887405014E1
5.893891166E0,-2.434950113E0,-8.020500541E-1,1.945800018E1
5.914774889E0,-2.296050072E0,-1.039050102E0,1.778400040E1
5.935658584E0,-1.317000031E0,0.000000000E0,1.482000065E1
5.956554927E0,6.700500250E-1,1.114950061E0,1.145400047E1
5.977451228E0,2.236050129E0,2.269050121E0,9.292050362E0
5.998345218E0,2.446050167E0,2.878950119E0,8.368050575E0
6.019239223E0,1.618050098E0,2.781000137E0,7.462950230E0
6.040122619E0,6.340500116E-1,2.488950014E0,5.911050320E0
6.061006008E0,-7.905000448E-2,2.653950214E0,4.743000031E0
6.081892472E0,-2.200500071E-1,2.994000196E0,4.276050091E0
6.102778931E0,-6.030000448E-1,3.267000198E0,3.993000269E0
6.123665259E0,-1.132050037E0,3.543000221E0,4.008000374E0
6.144551608E0,-1.302000046E0,3.741000175E0,4.180050373E0
6.165441793E0,-1.174950004E0,3.973950148E0,4.675950050E0
6.186331946E0,-8.740500212E-1,4.189050198E0,5.487000465E0
6.207216252E0,-7.560000420E-1,4.147950172E0,6.270000458E0
6.228100565E0,-9.649500251E-1,3.949950218E0,7.102950573E0
6.248988871E0,-1.434000015E0,3.780000210E0,8.061000824E0
6.269877176E0,-1.810050130E0,3.805950165E0,8.224050522E0
6.290761596E0,-1.726050138E0,4.394999981E0,8.185950279E0
6.311646061E0,-1.149000049E0,4.936050415E0,8.566050529E0
6.332528530E0,-4.950000346E-1,5.547000408E0,8.869950294E0
6.353410993E0,2.100000158E-2,5.415000439E0,1.028505039E1
6.374293305E0,-6.630000472E-1,4.194000244E0,1.254600048E1
6.395175614E0,-1.872000098E0,2.616000175E0,1.425000095E1
6.416053158E0,-3.237000227E0,1.183950067E0,1.522695065E1
6.436930701E0,-4.683000088E0,5.329500437E-1,1.360095024E1
6.457808644E0,-5.203050137E0,1.012050033E0,1.299600029E1
6.478686643E0,-4.812000275E0,1.486050129E0,1.109895039E1
6.499561231E0,-3.900000095E0,1.725000024E0,1.028295040E1
6.520435850E0,-2.881950140E0,1.455000043E0,1.029000092E1
6.541317647E0,-2.715000153E0,1.543050051E0,1.025700092E1
6.562199450E0,-2.266950130E0,1.630050063E0,9.763050079E0
6.583077201E0,-1.459950089E0,1.869000077E0,8.971050262E0
6.603954936E0,-5.599500537E-1,2.359950066E0,8.370000839E0
6.624841381E0,3.370500207E-1,2.914950132E0,7.603950500E0
6.645727840E0,6.790500283E-1,3.339000225E0,6.646050453E0
6.666605229E0,3.060000241E-1,3.480000257E0,6.000000477E0
6.687482618E0,9.000000544E-3,3.568950176E0,5.674050331E0
6.708350762E0,-1.390500069E-1,3.616950274E0,6.355950356E0
6.729218883E0,-4.740000367E-1,3.430050135E0,7.066950321E0
6.750089981E0,-1.036050081E0,3.130950212E0,7.281000137E0
6.770961094E0,-1.252050042E0,3.076050043E0,7.582050323E0
6.791836180E0,-1.446000099E0,3.126000166E0,8.083050728E0
6.812711219E0,-1.858050108E0,3.199950218E0,8.782050133E0
6.833586599E0,-1.482000113E0,3.040050030E0,9.285000801E0
6.854461984E0,-1.092000008E0,3.033000231E0,9.775050163E0
6.875336811E0,-1.053000093E0,3.088050127E0,1.161405087E1
6.896211584E0,-1.048050046E0,3.115950108E0,1.349100018E1
6.917088956E0,-4.090500176E-1,3.283950090E0,1.335495090E1
6.937966339E0,6.700500250E-1,3.061050177E0,1.280400085E1
6.958848204E0,1.632000089E0,2.149049997E0,1.411905098E1
6.979730051E0,2.122950077E0,5.689499974E-1,1.585500050E1
7.000612803E0,1.287000060E0,-6.079500318E-1,1.688400078E1
7.021495574E0,2.509500086E-1,2.599500120E-1,1.514805031E1
7.042373123E0,4.540500343E-1,-1.398000121E0,1.244295025E1
7.063250666E0,1.357050061E0,-6.370500326E-1,9.898050308E0
7.084123151E0,2.209050179E0,9.880500436E-1,7.482000351E0
7.104995614E0,2.856000185E0,2.563050032E0,6.189000130E0
7.125877065E0,2.500950098E0,3.229050159E0,5.461050034E0
7.146758484E0,1.564950109E0,3.202950239E0,5.365050316E0
7.167647889E0,5.119500160E-1,3.021000147E0,5.442000389E0
7.188537272E0,-1.699500084E-1,2.925000191E0,5.347950459E0
7.209423858E0,-5.839500427E-1,3.175950050E0,5.086950302E0
7.230310479E0,-6.960000396E-1,3.556950092E0,5.386950493E0
7.251197041E0,-3.400500119E-1,4.021049976E0,5.662050247E0
7.272083618E0,-1.270500124E-1,4.408950329E0,5.418000221E0
7.292966696E0,-4.309500158E-1,4.411950111E0,6.193950176E0
7.313849815E0,-2.730000019E-1,3.708000183E0,7.956000328E0
7.334736918E0,-3.349500299E-1,3.022950172E0,1.055100060E1
7.355623993E0,-1.362000108E0,2.608950138E0,1.240005016E1
7.376507666E0,-2.674050093E0,2.659050226E0,1.225395012E1
7.397391363E0,-3.136050224E0,3.001050234E0,1.053900051E1
7.418278086E0,-2.823000193E0,4.045050144E0,9.973950386E0
7.439164815E0,-1.326000094E0,4.689000130E0,1.123095036E1
7.460052968E0,-3.090000153E-1,4.351950169E0,1.345995045E1
7.480941123E0,-2.749500275E-1,2.857950211E0,1.578000069E1
7.501831107E0,-1.312050104E0,1.045050025E0,1.614405060E1
7.522721108E0,-2.997000217E0,-8.595000207E-2,1.452600098E1
7.543603123E0,-4.052999973E0,-2.820000052E-1,1.221795082E1
7.564485166E0,-4.096050262E0,1.240500063E-1,1.007205009E1
7.585363626E0,-2.989950180E0,6.619500518E-1,8.916000366E0
7.606242089E0,-1.939050078E0,1.183950067E0,8.887050629E0
7.627120097E0,-1.326000094E0,1.519050121E0,9.198000908E0
7.647998098E0,-8.140500188E-1,1.450050116E0,9.253050804E0
7.668880738E0,-7.489500642E-1,1.416000009E0,8.712000847E0
7.689763353E0,-7.440000176E-1,1.516950130E0,7.867050171E0
7.710640234E0,-7.320000529E-1,1.812000036E0,7.177950382E0
7.731517123E0,-4.639500082E-1,2.155950069E0,6.220050335E0
7.752394527E0,-2.970000207E-1,2.709000111E0,5.497050285E0
7.773271950E0,-2.370000184E-1,3.262050152E0,5.475000381E0
7.794144702E0,-2.509500086E-1,3.672000170E0,5.776950359E0
7.815017435E0,-6.220500469E-1,4.081050396E0,6.055050373E0
7.835896082E0,-8.779500127E-1,4.371000290E0,6.603000164E0
7.856774695E0,-1.246950030E0,4.159950256E0,7.300050259E0
7.877656435E0,-1.752000093E0,3.865950108E0,7.891050339E0
7.898538166E0,-1.654050112E0,3.949950218E0,8.274000168E0
7.919419038E0,-1.186950088E0,3.816000223E0,9.400050163E0
7.940299925E0,-3.780000210E-1,3.613950253E0,1.148700047E1
7.961183001E0,-3.600000218E-2,3.193050146E0,1.387395096E1
7.982066118E0,-9.600000083E-2,2.113049984E0,1.483200073E1
8.002948381E0,-5.505000427E-2,1.029000044E0,1.448295116E1
8.023830652E0,-4.995000362E-2,2.719500065E-1,1.456905079E1
8.044712838E0,-8.760000467E-1,-6.030000448E-1,1.564395046E1
8.065595031E0,-2.350950003E0,-1.498950124E0,1.393005085E1
8.086473001E0,-2.539950132E0,-1.602000117E0,1.295505047E1
8.107350964E0,-1.210950017E0,-8.119500279E-1,1.158300018E1
8.128239395E0,5.929500461E-1,-4.020000100E-1,8.989950180E0
8.149127854E0,1.282950044E0,1.948050141E0,7.315950394E0
8.170017255E0,2.962950230E0,3.451950073E0,6.945000172E0
8.190906680E0,2.560950041E0,3.708000183E0,7.309050560E0
8.211787483E0,8.179500103E-1,2.587050200E0,7.642050266E0
8.232668258E0,-8.569500446E-1,1.591050029E0,7.807050228E0
8.253561736E0,-1.915050149E0,1.219950080E0,7.410000324E0
8.274455229E0,-2.052000046E0,1.693950057E0,6.924000263E0
8.295346577E0,-1.594050050E0,2.520000219E0,6.627000332E0
8.316237964E0,-1.264050007E0,3.219000101E0,6.286950111E0
8.337118120E0,-1.411950111E0,3.628950119E0,6.088050365E0
8.357998281E0,-1.390950084E0,3.661950111E0,5.827050209E0
8.378888449E0,-1.374000072E0,3.547050238E0,6.196050167E0
8.399778636E0,-1.474950075E0,3.364950180E0,7.740000248E0
8.420666743E0,-1.567950130E0,3.229050159E0,9.069000244E0
8.441554862E0,-2.109000206E0,3.138000250E0,9.711000443E0
8.462442651E0,-3.100050211E0,3.010950089E0,9.256050110E0
8.483330498E0,-3.369000196E0,3.238950253E0,8.887050629E0
8.504221461E0,-3.024000168E0,3.604950190E0,9.792000771E0
8.525112382E0,-2.961000204E0,3.262050152E0,1.174800014E1
8.545998158E0,-4.135050297E0,1.785000086E0,1.492095089E1
8.566883893E0,-4.906050205E0,-2.939999998E-1,1.713795090E1
8.587769752E0,-5.161950111E0,-1.791000128E0,1.770300102E1
8.608655599E0,-5.952000141E0,-2.040000200E0,1.636695099E1
8.629537899E0,-5.647950172E0,-1.293000102E0,1.330200100E1
8.650420172E0,-3.940950155E0,-1.480500102E-1,1.109895039E1
8.671301734E0,-2.230950117E0,6.720000505E-1,1.017300034E1
8.692183311E0,-1.348050117E0,1.072050095E0,1.010595036E1
8.713062064E0,-1.228050113E0,1.237050056E0,1.001205063E1
8.733940835E0,-1.288050056E0,1.183950067E0,9.475950241E0
8.754819210E0,-1.045950055E0,1.159950018E0,8.140049934E0
8.775697633E0,-7.279500365E-1,1.438050032E0,7.126950264E0
8.796576446E0,1.800000109E-2,1.687050104E0,6.217950344E0
8.817455253E0,6.390000582E-1,2.227950096E0,5.509050369E0
8.838333496E0,9.859500527E-1,2.827050209E0,5.025000095E0
8.859211767E0,1.407000065E0,3.229050159E0,4.585050106E0
8.880099229E0,1.153050065E0,3.508950233E0,4.561050415E0
8.900986648E0,8.089500666E-1,3.526050091E0,5.061000347E0
8.921871697E0,3.220500052E-1,3.154950142E0,5.878050327E0
8.942756778E0,-6.405000389E-2,2.937000036E0,6.301050186E0
8.963644466E0,1.120500043E-1,2.772000074E0,7.048050404E0
8.984532157E0,4.210500121E-1,2.355000019E0,8.206950188E0
9.005422533E0,7.990500331E-1,1.909950137E0,9.121950150E0
9.026312840E0,-9.000000544E-3,1.591050029E0,1.041000080E1
9.047198306E0,-5.940000415E-1,1.452000022E0,1.126905060E1
9.068083811E0,3.580500185E-1,1.656000137E0,1.098705006E1
9.088973856E0,8.470500112E-1,1.912050128E0,1.115700054E1
9.109863893E0,5.569500327E-1,1.171950102E0,1.307205105E1
9.130761361E0,-1.150500029E-1,1.380000114E-1,1.498095036E1
9.151658858E0,-1.144050002E0,-4.570500255E-1,1.543605042E1
9.172550261E0,-1.297050118E0,-1.530000120E-1,1.415895081E1
9.193441690E0,-1.395000052E-2,9.829500318E-1,1.239495087E1
9.214331483E0,1.174950004E0,2.038950205E0,1.150395012E1
9.235221330E0,1.291950107E0,2.472000122E0,1.109205055E1
9.256107794E0,4.399500191E-1,2.326050043E0,1.005795002E1
9.276994257E0,-3.660000265E-1,2.142000198E0,8.674050331E0
9.297876761E0,-8.400000334E-1,2.211000204E0,7.362000465E0
9.318759224E0,-1.149000049E0,2.592000008E0,6.478050232E0
9.339641405E0,-1.266000032E0,3.154950142E0,5.989950180E0
9.360523560E0,-1.068000078E0,3.484950066E0,5.617050171E0
9.381415700E0,-9.340500236E-1,3.804000139E0,5.406000137E0
9.402307849E0,-1.008000016E0,3.916050196E0,5.949000359E0
9.423203052E0,-1.045950055E0,3.241050243E0,7.615950584E0
9.444098247E0,-1.438950062E0,2.419950008E0,9.439949989E0
9.464982793E0,-2.695950031E0,1.990950108E0,1.072095013E1
9.485867416E0,-3.912000179E0,1.483050108E0,1.100595093E1
9.506750041E0,-4.539000034E0,1.318050027E0,1.002900028E1
9.527632656E0,-3.640950203E0,1.618050098E0,8.599950790E0
9.548520784E0,-1.471950054E0,2.559000015E0,1.009395027E1
9.569408935E0,6.599999964E-2,2.934000254E0,1.158105087E1
9.590295077E0,3.030000031E-1,2.199000120E0,1.217400074E1
9.611181234E0,-3.370500207E-1,1.123950005E0,1.384995079E1
9.632065265E0,-1.201950073E0,-1.600500047E-1,1.547595119E1
9.652949306E0,-2.180999994E0,-4.909500182E-1,1.538805103E1
9.673836804E0,-2.073000193E0,-1.480500102E-1,1.295505047E1
9.694724301E0,-1.180050015E0,8.539500237E-1,1.117800045E1
9.715602660E0,8.805000782E-2,1.467000127E0,1.068000031E1
9.736481013E0,7.030500174E-1,1.705950022E0,1.054905033E1
9.757359355E0,7.699500322E-1,1.639050126E0,1.012995052E1
9.778237662E0,6.340500116E-1,1.528950095E0,9.802050591E0
9.799118710E0,5.520000458E-1,1.548000097E0,9.297000885E0
9.819999749E0,9.499500394E-1,1.528950095E0,8.262000084E0
9.840876395E0,1.303950071E0,1.729950070E0,7.186950207E0
9.861753052E0,1.450050116E0,2.152050018E0,6.490050316E0
9.882627343E0,1.395000100E0,2.602050066E0,5.839050293E0
9.903501614E0,1.321050048E0,2.953950167E0,5.374950409E0
9.924374237E0,1.225050092E0,3.313050270E0,5.560950279E0
9.945246854E0,9.640500546E-1,3.430050135E0,6.318000317E0
9.966122413E0,3.580500185E-1,3.195000172E0,7.513050556E0
9.986997950E0,-2.820000052E-1,2.641950130E0,8.811000824E0
1.000787638E1,-6.730500460E-1,1.929000139E0,9.603000641E0
1.002875484E1,-9.649500251E-1,1.693950057E0,9.507000923E0
1.004962907E1,-1.192050099E0,1.912050128E0,9.423000336E0
1.007050327E1,-1.020000100E0,2.061000109E0,9.832950592E0
1.009138217E1,-8.569500446E-1,2.431950092E0,1.022100067E1
1.011226106E1,9.000000544E-3,2.788050175E0,9.952950478E0
1.013313857E1,8.779500127E-1,3.186000109E0,1.093695068E1
1.015401611E1,2.580000162E-1,2.266050100E0,1.405605030E1
1.017490443E1,-5.149500370E-1,7.770000100E-1,1.630905151E1
1.019579273E1,-9.169500470E-1,-2.149500102E-1,1.622805023E1
1.021667660E1,-6.559500098E-1,7.095000148E-2,1.340295029E1
1.023756045E1,3.870000243E-1,1.384950042E0,1.073805046E1
1.025844496E1,1.444950104E0,2.496000051E0,9.589050293E0
1.027932946E1,1.576950073E0,2.962950230E0,8.515950203E0
1.030021590E1,6.649500132E-1,2.881950140E0,7.459950447E0
1.032110232E1,-6.100500226E-1,2.455950022E0,7.222950459E0
1.034199403E1,-1.345050097E0,2.014950037E0,7.470000267E0
1.036288572E1,-1.803000093E0,1.926000118E0,7.327950478E0
1.038377574E1,-1.884000063E0,2.226000071E0,6.853950500E0
1.040466578E1,-1.720950127E0,2.688000202E0,6.316050529E0
1.042555223E1,-1.752000093E0,3.090000153E0,6.033000469E0
1.044643869E1,-1.563000083E0,3.279000044E0,6.897000313E0
1.046732883E1,-1.513050079E0,3.034950256E0,8.052000046E0
1.048821894E1,-2.170950174E0,2.515050173E0,9.079050064E0
1.050910241E1,-2.731950045E0,2.163000107E0,1.059195042E1
1.052998595E1,-3.261000156E0,2.223000050E0,1.111095047E1
1.055087290E1,-3.430950165E0,2.917950153E0,1.070205021E1
1.057175982E1,-3.613050222E0,3.592950106E0,1.074705029E1
1.059264538E1,-3.889950275E0,3.655050278E0,1.150200081E1
1.061353092E1,-3.406950235E0,4.042950153E0,1.194900036E1
1.063442558E1,-1.671000123E0,4.326000214E0,1.163100052E1
1.065532023E1,-2.599950075E0,3.646050215E0,1.235205078E1
1.067620887E1,-4.750050068E0,1.584000111E0,1.350795078E1
1.069709749E1,-6.189000130E0,6.105000153E-2,1.366395092E1
1.071798284E1,-6.223050117E0,-2.710500062E-1,1.234200096E1
1.073886819E1,-4.876950264E0,8.149500489E-1,1.055400085E1
1.075975499E1,-3.306000233E0,1.701000094E0,9.354000092E0
1.078064176E1,-2.274000168E0,1.905000091E0,8.973000526E0
1.080153212E1,-2.338950157E0,1.567050099E0,9.124050140E0
1.082242247E1,-2.574000120E0,1.018950105E0,8.988000870E0
1.084330397E1,-2.502000093E0,8.230500221E-1,8.667000771E0
1.086418551E1,-1.816950083E0,1.050000072E0,8.313000679E0
1.088506642E1,-7.800000310E-1,1.579050064E0,7.627950191E0
1.090594734E1,1.140000075E-1,2.161050081E0,6.847050190E0
1.092682099E1,4.180500209E-1,2.836050034E0,6.676950455E0
1.094769465E1,-4.740000367E-1,3.552000284E0,6.943050385E0
1.096857091E1,-1.285050035E0,3.334050179E0,7.479000568E0
1.098944722E1,-2.065950155E0,3.106950045E0,8.194950104E0
1.101032030E1,-2.308050156E0,3.435000181E0,7.612950325E0
1.103119338E1,-1.906050086E0,4.126950264E0,6.445050240E0
1.105206634E1,-1.630050063E0,4.752000332E0,6.883050442E0
1.107293930E1,-1.762050033E0,4.468950272E0,8.028000832E0
1.109381761E1,-1.942050099E0,4.165050030E0,8.485050201E0
1.111469588E1,-2.370000124E0,4.120050430E0,8.214000702E0
1.113557495E1,-2.932950258E0,4.870950222E0,6.940950394E0
1.115645403E1,-1.624950051E0,5.542050362E0,5.533050060E0
1.117732876E1,-7.680000067E-1,5.037000179E0,5.916000366E0
1.119820354E1,-9.190500379E-1,3.033000231E0,9.459000587E0
1.121907775E1,-1.980000138E0,9.499500394E-1,1.337205029E1
1.123995195E1,-3.796950102E0,-2.590500116E-1,1.531605053E1
1.126081945E1,-4.839000225E0,-1.680000126E-1,1.404900074E1
1.128168695E1,-3.265950203E0,1.014000058E0,1.090800095E1
1.130255741E1,-9.600000381E-1,2.922000170E0,8.712000847E0
1.132342791E1,5.479500294E-1,4.285050392E0,8.395950317E0
1.134429975E1,3.390000165E-1,4.218000412E0,8.530050278E0
1.136517160E1,-1.008000016E0,3.516000271E0,7.992000580E0
1.138605052E1,-2.202000141E0,3.106950045E0,6.904950142E0
1.140692944E1,-2.782050133E0,3.406050205E0,5.901000500E0
1.142780754E1,-2.569050074E0,4.036050320E0,5.344050407E0
1.144868566E1,-2.254950047E0,4.669950008E0,5.353050232E0
1.146956402E1,-2.290950060E0,4.930950165E0,5.443950176E0
1.149044236E1,-2.689050198E0,4.800000191E0,6.165000439E0
1.151131404E1,-2.952000141E0,4.383000374E0,7.519950390E0
1.153218574E1,-3.664950132E0,3.913950205E0,9.531000137E0
1.155306720E1,-4.477050304E0,3.339000225E0,1.112295055E1
1.157394858E1,-5.317050457E0,3.136050224E0,1.117095089E1
1.159482628E1,-5.641050339E0,3.604950190E0,1.063500023E1
1.161570398E1,-5.380050182E0,3.994950294E0,1.011300087E1
1.163658119E1,-4.968000412E0,4.447950363E0,9.613050461E0
1.165745842E1,-3.166950226E0,4.864050388E0,1.069200039E1
1.167834054E1,-1.972950101E0,4.372950077E0,1.356600094E1
1.169922265E1,-2.278950214E0,2.464950085E0,1.505700111E1
1.172010928E1,-3.376050234E0,5.310000181E-1,1.494000053E1
1.174099590E1,-5.167050362E0,-7.050000131E-3,1.199700069E1
1.176188221E1,-5.188050270E0,7.009500265E-1,9.616950035E0
1.178276852E1,-4.174950123E0,1.885950089E0,8.032050133E0
1.180365606E1,-3.148050070E0,2.796000242E0,7.422000408E0
1.182454364E1,-1.711950064E0,2.781000137E0,7.372050285E0
1.184543113E1,-1.233000040E0,2.392950058E0,7.668000221E0
1.186631863E1,-2.314950228E0,2.041050196E0,8.581050873E0
1.188719619E1,-3.178950071E0,1.342050076E0,9.256050110E0
1.190807378E1,-3.478950262E0,1.213050008E0,9.349050522E0
1.192896333E1,-2.668950081E0,1.522050023E0,8.800950050E0
1.194985286E1,-2.101950169E0,2.068050146E0,7.861950397E0
1.197073040E1,-2.085000038E0,3.021000147E0,6.766050339E0
1.199160794E1,-1.657050133E0,4.069050312E0,5.572950363E0
1.201249724E1,-1.264050007E0,5.158950329E0,4.513050079E0
1.203338658E1,-1.414950013E0,5.544000149E0,4.599000454E0
1.205426552E1,-1.503000021E0,5.401050091E0,5.913000107E0
1.207514445E1,-2.008949995E0,5.281050205E0,6.643950462E0
1.209602632E1,-1.678050041E0,5.013000011E0,6.877950191E0
1.211690821E1,-9.790500402E-1,4.492950439E0,7.762050152E0
1.213779160E1,-1.009950042E0,3.637950182E0,8.784000397E0
1.215867498E1,-1.642050028E0,2.925000191E0,9.901950836E0
1.217954942E1,-1.960950136E0,3.205050230E0,1.048395061E1
1.220042389E1,-1.099500060E-1,3.328950167E0,8.880000114E0
1.222130800E1,4.129500091E-1,3.286050081E0,9.498000145E0
1.224219211E1,-4.860000312E-1,1.857000113E0,1.293105030E1
1.226307739E1,-1.180050015E0,3.630000055E-1,1.496895027E1
1.228396266E1,-2.322000027E0,-5.050500035E-1,1.372095108E1
1.230485032E1,-2.248050213E0,1.999500096E-1,1.249095058E1
1.232573798E1,-1.233000040E0,1.536000013E0,1.034295082E1
1.234662460E1,-3.610500097E-1,2.647050142E0,9.213000298E0
1.236751122E1,-1.770000011E-1,2.893950224E0,9.580950737E0
1.238839943E1,-6.289500594E-1,2.419950008E0,9.790050507E0
1.240928762E1,-1.693050027E0,2.167950153E0,8.869950294E0
1.243017435E1,-2.245950222E0,2.250000000E0,7.443000317E0
1.245106108E1,-2.313000202E0,2.656950235E0,6.301050186E0
1.247194956E1,-2.053950071E0,3.418050051E0,5.896950245E0
1.249283802E1,-2.011049986E0,4.179000378E0,5.631000042E0
1.251372076E1,-1.867050052E0,4.723050117E0,5.422950268E0
1.253460354E1,-1.731000066E0,4.843050003E0,5.755050182E0
1.255549063E1,-1.957950115E0,4.359000206E0,6.984000206E0
1.257637770E1,-2.506950140E0,3.693000078E0,8.458950043E0
1.259726727E1,-3.529050112E0,3.066000223E0,9.388050079E0
1.261815681E1,-4.852950096E0,2.757000208E0,9.691950798E0
1.263904312E1,-4.719000340E0,2.677950144E0,9.751049995E0
1.265992943E1,-3.796950102E0,2.961000204E0,1.125000095E1
1.268081481E1,-3.658050060E0,3.532950163E0,1.431300068E1
1.270170020E1,-2.458950043E0,2.772000074E0,1.638405037E1
1.272258587E1,-1.278000116E0,1.381050110E0,1.696095085E1
1.274347157E1,-1.732950091E0,7.530000210E-1,1.715505028E1
1.276435498E1,-2.539950132E0,9.570000172E-1,1.557705116E1
1.278523841E1,-2.205000162E0,1.371000051E0,1.311105061E1
1.280611749E1,-1.740000129E0,2.341050148E0,1.139205074E1
1.282699657E1,-6.990000606E-1,2.677950144E0,1.137495041E1
1.284787547E1,-4.159500301E-1,2.286000013E0,1.172400093E1
1.286875439E1,-9.960000515E-1,1.512000084E0,1.140405083E1
1.288964054E1,-1.537050128E0,9.760500193E-1,1.032105064E1
1.291052669E1,-1.482000113E0,9.660000205E-1,8.896950722E0
1.293141357E1,-7.950000167E-1,1.254000068E0,7.192050457E0
1.295230046E1,-1.579500139E-1,1.759050131E0,5.848950386E0
1.297318326E1,-9.105000645E-2,2.298000097E0,4.801950455E0
1.299406607E1,-7.969500422E-1,2.653950214E0,4.027050018E0
1.301495558E1,-1.450950027E0,2.731050014E0,3.814050198E0
1.303584508E1,-1.489050031E0,2.815050125E0,4.087049961E0
1.305672989E1,-6.250500083E-1,3.475950241E0,4.692000389E0
1.307761471E1,3.420000076E-1,4.455000401E0,4.957950115E0
1.309850269E1,8.200500607E-1,5.119950294E0,4.921950340E0
1.311939069E1,9.070500135E-1,5.254950047E0,5.059050083E0
1.314027267E1,8.230500221E-1,4.843050003E0,5.884950161E0
1.316115464E1,2.869500220E-1,4.090950012E0,6.699000359E0
1.318203173E1,-8.070000410E-1,3.696000099E0,8.049000740E0
1.320290885E1,-2.770500183E-1,3.394050121E0,8.820000648E0
1.322378187E1,5.279999971E-1,3.235950232E0,9.829950333E0
1.324465491E1,-3.090000153E-1,2.407950163E0,1.205700016E1
1.326553081E1,-1.300050020E0,1.153050065E0,1.475295067E1
1.328640669E1,-1.506000042E0,-8.895000070E-2,1.473900032E1
1.330728666E1,-1.570050120E0,1.305000018E-2,1.455195045E1
1.332816662E1,-5.119500160E-1,9.780000448E-1,1.284495068E1
1.334903944E1,1.066950083E0,2.434050083E0,1.160895061E1
1.336991225E1,1.963050127E0,3.301050186E0,1.116900063E1
1.339079897E1,1.134000063E0,2.973000050E0,1.079805088E1
1.341168570E1,-6.870000362E-1,2.427000046E0,9.819000244E0
1.343257246E1,-1.675950050E0,2.281050205E0,8.647950172E0
1.345345924E1,-1.786050081E0,2.688000202E0,7.651950359E0
1.347433866E1,-1.429050088E0,3.319950104E0,6.897000313E0
1.349521809E1,-1.087050080E0,4.117050171E0,5.964000225E0
1.351609786E1,-7.060500383E-1,4.881000042E0,5.097000122E0
1.353697767E1,-5.380499959E-1,5.410050392E0,4.585050106E0
1.355785996E1,-8.659500480E-1,5.389050484E0,5.334000111E0
1.357874226E1,-1.105949998E0,4.444950104E0,7.434000492E0
1.359962615E1,-1.489050031E0,3.643050194E0,9.124050140E0
1.362051003E1,-2.487000227E0,2.913000107E0,1.034295082E1
1.364139791E1,-3.567000151E0,2.446050167E0,1.114995098E1
1.366228576E1,-3.919050217E0,2.673000097E0,1.126905060E1
1.368317278E1,-3.220050097E0,3.205050230E0,1.124295044E1
1.370405983E1,-2.491950035E0,4.066950321E0,1.204995060E1
1.372494660E1,-2.146950006E0,4.033050060E0,1.337205029E1
1.374583337E1,-2.209950209E0,2.797950029E0,1.445100021E1
1.376671325E1,-2.566050053E0,8.989500403E-1,1.524195099E1
1.378759310E1,-3.943050146E0,-4.260000288E-1,1.548300076E1
1.380847879E1,-5.419950485E0,-9.910500646E-1,1.417395115E1
1.382936448E1,-5.680950165E0,-1.173000097E0,1.225605011E1
1.385025190E1,-5.065950394E0,-6.250500083E-1,1.101600075E1
1.387113932E1,-3.301050186E0,7.605000585E-2,1.066095066E1
1.389202685E1,-2.095050097E0,5.760000348E-1,1.055400085E1
1.391291439E1,-1.636950135E0,6.139500141E-1,9.904950142E0
1.393380127E1,-1.570050120E0,5.950500369E-1,9.049950600E0
1.395468816E1,-1.282950044E0,7.270500064E-1,8.169000626E0
1.397557214E1,-7.540500164E-1,8.830500245E-1,7.419000149E0
1.399645614E1,-1.630500108E-1,1.105050087E0,6.568950176E0
1.401734246E1,1.020000055E-1,1.423950076E0,5.875050068E0
1.403822877E1,1.410000026E-1,1.753950119E0,5.329050064E0
1.405910955E1,9.000000544E-3,2.170950174E0,4.755000114E0
1.407999036E1,7.605000585E-2,2.745000124E0,4.120050430E0
1.410087366E1,3.299999982E-2,3.331950188E0,3.486000061E0
1.412175689E1,-2.149500102E-1,3.849000216E0,2.887050152E0
1.414263823E1,-3.280500174E-1,4.012050152E0,2.856000185E0
1.416351962E1,-1.270500124E-1,3.817950249E0,4.168050289E0
1.418440252E1,6.580500603E-1,3.471000195E0,6.519000530E0
1.420528540E1,1.194000006E0,2.905950069E0,9.208050728E0
1.422616845E1,1.069500074E-1,2.559000015E0,1.228905106E1
1.424705153E1,-7.830000520E-1,1.849950075E0,1.380495071E1
1.426793588E1,-3.589500189E-1,1.402050018E0,1.382205105E1
1.428882023E1,-5.719500184E-1,1.279950023E0,1.447995090E1
1.430970235E1,-1.149000049E0,5.089499950E-1,1.635000038E1
1.433058451E1,-1.924950123E0,-4.210500121E-1,1.687395096E1
1.435146464E1,-2.535000086E0,-7.279500365E-1,1.569405079E1
1.437234480E1,-2.824950218E0,-8.190000653E-1,1.381905079E1
1.439322062E1,-1.756950140E0,5.040000081E-1,1.274700069E1
1.441409643E1,-3.919500113E-1,1.360950112E0,1.220100021E1
1.443497312E1,-5.580000281E-1,1.423950076E0,1.118295097E1
1.445584977E1,-1.477050066E0,1.153050065E0,9.570000648E0
1.447673284E1,-2.059050083E0,1.153050065E0,7.762050152E0
1.449761592E1,-2.052000046E0,1.483050108E0,6.292050362E0
1.451849824E1,-1.972950101E0,2.187000036E0,5.322000027E0
1.453938055E1,-2.017950058E0,2.890950203E0,4.849950314E0
1.456025552E1,-1.884000063E0,3.195000172E0,4.459950447E0
1.458113045E1,-1.885950089E0,3.136050224E0,3.993000269E0
1.460200688E1,-2.025000095E0,3.013050079E0,4.636950016E0
1.462288334E1,-2.518950224E0,2.532000065E0,6.775050163E0
1.464376349E1,-2.950050116E0,1.825950146E0,8.335950851E0
1.466464360E1,-3.531000137E0,1.621950030E0,9.061950684E0
1.468551702E1,-3.481050253E0,1.957950115E0,9.292050362E0
1.470639045E1,-2.503950119E0,2.946000099E0,9.186000824E0
1.472727167E1,-1.432050109E0,3.921000242E0,9.523950577E0
1.474815289E1,-7.395000011E-2,4.938000202E0,1.004400063E1
1.476903095E1,1.134000063E0,5.128050327E0,1.169295025E1
1.478990896E1,2.595000155E-2,3.837000132E0,1.354200077E1
1.481079172E1,-1.566000104E0,1.582050085E0,1.455900097E1
1.483167449E1,-3.091050148E0,5.895000324E-2,1.360095024E1
1.485255663E1,-4.168050289E0,-2.659500241E-1,1.235895061E1
1.487343879E1,-4.309050083E0,-2.730000019E-1,1.208100033E1
1.489432370E1,-3.225000143E0,-5.719500184E-1,1.239705086E1
1.491520858E1,-2.659950018E0,-5.650500059E-1,1.291200066E1
1.493609583E1,-2.988000154E0,-5.269500017E-1,1.293300056E1
1.495698306E1,-3.412050247E0,-7.009500265E-1,1.183200073E1
1.497786596E1,-3.510000229E0,-6.990000606E-1,1.018200016E1
1.499874893E1,-2.983050108E0,-2.320500165E-1,8.470950127E0
1.501963661E1,-2.025000095E0,5.070000291E-1,7.111050129E0
1.504052430E1,-1.008000016E0,1.215000033E0,6.055050373E0
1.506139977E1,-3.829500079E-1,2.074949980E0,5.413050175E0
1.508227528E1,-1.069500074E-1,2.683050156E0,5.241000175E0
1.510316162E1,6.000000052E-3,3.127950191E0,5.229000092E0
1.512404796E1,-2.920500040E-1,3.420000076E0,5.221050262E0
1.514493239E1,-6.250500083E-1,3.612000227E0,5.509050369E0
1.516581686E1,-1.057950020E0,3.610050201E0,6.186000347E0
1.518669881E1,-1.104000092E0,3.109050035E0,7.024050236E0
1.520758078E1,-8.040000200E-1,2.764050245E0,7.518000126E0
1.522847252E1,-2.440500110E-1,2.446050167E0,8.176050186E0
1.524936425E1,-2.939999998E-1,2.213999987E0,9.660000801E0
1.527024901E1,-8.280000687E-1,1.902000070E0,1.126200008E1
1.529113379E1,-2.970000207E-1,1.099950075E0,1.242600060E1
1.531201539E1,1.960500032E-1,2.359500080E-1,1.342005062E1
1.533289705E1,-4.620000124E-1,-1.285950065E0,1.574205112E1
1.535378322E1,-1.863000035E0,-2.422950029E0,1.783005142E1
1.537466942E1,-5.890500546E-1,-8.710500598E-1,1.672095108E1
1.539554691E1,-2.013000011E0,-2.458950043E0,1.395300102E1
1.541642442E1,-5.700000376E-2,-4.260000288E-1,1.084605026E1
1.543730337E1,1.747050047E0,1.917000055E0,9.025950432E0
1.545818233E1,2.293050051E0,2.881950140E0,8.146950722E0
1.547905171E1,8.179500103E-1,2.401050091E0,7.624950409E0
1.549992110E1,-8.760000467E-1,1.720950127E0,6.916950226E0
1.552080293E1,-1.888950109E0,1.519050121E0,6.249000072E0
1.554168477E1,-2.226000071E0,1.740000129E0,6.154950142E0
1.556255940E1,-2.119050026E0,2.329050064E0,5.949000359E0
1.558343403E1,-1.872000098E0,3.010950089E0,5.772000313E0
1.560430567E1,-1.699950099E0,3.331950188E0,5.799000263E0
1.562517733E1,-1.434000015E0,3.294000149E0,6.177000523E0
1.564605501E1,-1.609050035E0,2.899050236E0,7.501050472E0
1.566693270E1,-1.912950039E0,2.350050211E0,8.563950539E0
1.568781381E1,-2.422950029E0,2.163000107E0,9.571950912E0
1.570869493E1,-3.064050198E0,2.149049997E0,1.001205063E1
1.572956269E1,-3.577050209E0,2.257050037E0,1.008900070E1
1.575043050E1,-3.313050270E0,2.263950109E0,9.852000237E0
1.577131749E1,-2.811000109E0,2.839050055E0,1.038105011E1
1.579220445E1,-1.498950124E0,3.114000082E0,1.134600067E1
1.581309131E1,-2.302950144E0,2.290050030E0,1.339605045E1
1.583397820E1,-3.835050106E0,4.005000368E-2,1.599105072E1
1.585486376E1,-5.224050045E0,-1.638000131E0,1.719495010E1
1.587574934E1,-6.127050400E0,-2.362950087E0,1.571295071E1
1.589663225E1,-5.820000172E0,-1.812000036E0,1.327305031E1
1.591751513E1,-4.518000126E0,-7.330500484E-1,1.186995029E1
1.593839761E1,-3.049950123E0,-1.770000011E-1,1.159500027E1
1.595928008E1,-2.383949995E0,-2.130000144E-1,1.168395042E1
1.598016291E1,-2.521050215E0,-2.299500108E-1,1.094595051E1
1.600104572E1,-2.428050041E0,-6.900000572E-2,9.640950203E0
1.602193016E1,-2.029950142E0,3.250500262E-1,8.206950188E0
1.604281462E1,-1.366950035E0,7.480500340E-1,6.976050377E0
1.606369644E1,-2.800500095E-1,1.510050058E0,5.983050346E0
1.608457825E1,6.529500484E-1,2.410050154E0,5.166000366E0
1.610545970E1,1.144050002E0,3.178950071E0,4.498050213E0
1.612634112E1,1.110000014E0,3.564000130E0,4.101000309E0
1.614721867E1,9.090000391E-1,3.781950235E0,3.952950239E0
1.616809622E1,4.900500178E-1,3.708000183E0,4.144050121E0
1.618897989E1,-6.900000572E-2,3.520950079E0,4.446000099E0
1.620986354E1,-5.580000281E-1,3.193050146E0,4.375950336E0
1.623074727E1,-5.410500169E-1,2.863050222E0,3.943050146E0
1.625163100E1,1.450500041E-1,2.884050131E0,3.648000240E0
1.627251748E1,7.009500265E-1,2.632950068E0,4.702050209E0
1.629340394E1,5.020500422E-1,1.527000070E0,6.150000095E0
1.631428813E1,-7.905000448E-2,5.350500345E-1,8.356050491E0
1.633517228E1,1.690500081E-1,-7.489500642E-1,9.988950729E0
1.635605507E1,4.500000179E-2,-2.197950125E0,1.162605095E1
1.637693784E1,-4.159500301E-1,-3.850050211E0,1.435095024E1
1.639781385E1,-1.756950140E0,-5.050050259E0,1.810500145E1
1.641868985E1,-3.316050053E0,-5.434950352E0,2.021895027E1
1.643956489E1,-2.751000166E0,-5.662050247E0,1.931400108E1
1.646043997E1,-1.249950051E0,-4.129950047E0,1.681500053E1
1.648131303E1,-1.600500047E-1,-1.911000133E0,1.379100037E1
1.650218607E1,7.770000100E-1,-2.899500132E-1,1.199700069E1
1.652306241E1,2.170500159E-1,4.950000346E-1,1.110900021E1
1.654393875E1,-9.790500402E-1,6.340500116E-1,9.912000656E0
1.656482057E1,-1.527000070E0,8.370000124E-1,8.398950577E0
1.658570237E1,-1.612950087E0,1.363950014E0,7.300050259E0
1.660658514E1,-1.539000034E0,2.142000198E0,6.703950405E0
1.662746791E1,-1.213950038E0,2.593950033E0,6.141000271E0
1.664835330E1,-6.799500585E-1,2.872050047E0,5.350950241E0
1.666923869E1,-1.309500039E-1,3.103950262E0,4.632000446E0
1.669012143E1,-1.150500029E-1,3.205050230E0,4.764000416E0
1.671100420E1,-4.470000267E-1,2.254050016E0,6.735000134E0
1.673189652E1,-1.353000045E0,8.830500245E-1,8.917950630E0
1.675278886E1,-3.130950212E0,1.380000114E-1,1.071600056E1
1.677367528E1,-3.940950155E0,-4.090500176E-1,1.187505054E1
1.679456171E1,-3.421050072E0,-4.810500145E-1,1.153305054E1
1.681544925E1,-2.695950031E0,-2.299500108E-1,1.253595066E1
1.683633679E1,-2.656950235E0,4.590000212E-1,1.432500076E1
1.685722138E1,-2.131050110E0,2.119500041E-1,1.383900070E1
1.687810600E1,-2.835000038E0,-6.000000238E-2,1.296000099E1
1.689899281E1,-3.771000147E0,-5.050500035E-1,1.357305050E1
1.691987962E1,-4.458000183E0,-9.840000272E-1,1.269405079E1
1.694077172E1,-4.210950375E0,-8.140500188E-1,1.070400047E1
1.696166384E1,-4.044000149E0,-2.659500241E-1,9.531000137E0
1.698254002E1,-3.747000217E0,-2.269500047E-1,9.553050041E0
1.700341622E1,-2.559000015E0,-1.020000100E0,1.089105034E1
1.702430025E1,-2.491950035E0,-1.213950038E0,1.199295044E1
1.704518424E1,-3.067050219E0,-1.159050107E0,1.218900013E1
1.706607117E1,-3.459000111E0,-9.619500637E-1,1.093905067E1
1.708695810E1,-3.258000135E0,-6.180000305E-1,8.913000107E0
1.710784757E1,-2.449050188E0,-5.700000376E-2,7.126950264E0
1.712873707E1,-1.474950075E0,6.289500594E-1,5.965950489E0
1.714962530E1,-8.089500666E-1,1.194000006E0,5.398950100E0
1.717051349E1,-2.250000089E-1,1.584000111E0,5.028000355E0
1.719139550E1,1.740000099E-1,1.962000132E0,4.792950153E0
1.721227750E1,2.050500065E-1,2.305050135E0,5.154000282E0
1.723316286E1,2.509500086E-1,2.128050089E0,5.712000370E0
1.725404820E1,1.759500057E-1,1.845000029E0,6.289050102E0
1.727493641E1,1.140000075E-1,1.543050051E0,7.000050545E0
1.729582460E1,-4.995000362E-2,1.132050037E0,7.825950146E0
1.731670365E1,-3.919500113E-1,5.520000458E-1,8.728950500E0
1.733758269E1,-9.570000172E-1,-6.195000187E-2,9.361050606E0
1.735847208E1,-1.587000132E0,-3.109500110E-1,1.012305069E1
1.737936146E1,-4.360500276E-1,-4.720500112E-1,1.127400017E1
1.740024888E1,6.070500016E-1,-9.049500227E-1,1.246695042E1
1.742113631E1,3.795000166E-2,-2.065950155E0,1.393395042E1
1.744202117E1,-1.486950040E0,-3.304050207E0,1.590705109E1
1.746290606E1,-3.165000200E0,-4.096950054E0,1.669500160E1
1.748378605E1,-4.195050240E0,-4.386000156E0,1.562895107E1
1.750466606E1,-3.414000273E0,-3.361950159E0,1.327305031E1
1.752554422E1,-6.169500351E-1,-1.708950043E0,1.141500092E1
1.754642238E1,1.507950068E0,1.810500026E-1,9.744000435E0
1.756731038E1,2.427000046E0,1.467000127E0,8.475000381E0
1.758819838E1,1.951050043E0,1.843050122E0,7.111050129E0
1.760908487E1,6.600000262E-1,1.816050053E0,6.387000084E0
1.762997137E1,-3.400500119E-1,1.684950113E0,6.471000195E0
1.765085030E1,-6.990000606E-1,1.632000089E0,6.639000416E0
1.767172922E1,-8.040000200E-1,1.749000072E0,6.397050381E0
1.769261532E1,-7.870500088E-1,1.930950046E0,6.592950344E0
1.771350144E1,-8.980500698E-1,2.013000011E0,7.156050205E0
1.773438273E1,-1.063050032E0,2.083950043E0,7.756950378E0
1.775526401E1,-1.120050073E0,2.002950191E0,8.334000587E0
1.777614368E1,-1.242000103E0,1.876050115E0,8.872950554E0
1.779702337E1,-1.609050035E0,1.749000072E0,9.048000336E0
1.781790298E1,-2.180999994E0,1.665000081E0,9.079050064E0
1.783878263E1,-2.581050158E0,1.570050120E0,8.929950714E0
1.785966679E1,-1.735950112E0,1.423950076E0,8.727000237E0
1.788055098E1,-7.039500475E-1,1.390050054E0,9.826050758E0
1.790143388E1,-6.319500208E-1,4.180500209E-1,1.219395065E1
1.792231677E1,-3.660000265E-1,-1.312050104E0,1.510305119E1
1.794319590E1,0.000000000E0,-2.737050056E0,1.812405014E1
1.796407502E1,-6.679500341E-1,-4.137000084E0,1.919895172E1
1.798496398E1,-2.242950201E0,-5.004000187E0,1.833300018E1
1.800585290E1,-3.273000240E0,-5.245950222E0,1.600094986E1
1.802673965E1,-3.133950233E0,-4.462950230E0,1.461195087E1
1.804762643E1,-1.896000147E0,-3.526950121E0,1.356795025E1
1.806850940E1,-1.309500039E-1,-2.550000191E0,1.215105057E1
1.808939232E1,6.720000505E-1,-1.501050115E0,1.005300045E1
1.811027796E1,4.995000362E-2,-7.570500374E-1,8.381999969E0
1.813116361E1,-4.995000362E-2,-3.019500077E-1,7.393050194E0
1.815205332E1,7.249500155E-1,1.930500120E-1,6.651000500E0
1.817294305E1,1.002000093E0,8.059500456E-1,5.965950489E0
1.819382562E1,1.359000087E0,1.102950096E0,5.503950119E0
1.821470820E1,1.732950091E0,1.452000022E0,4.764000416E0
1.823558946E1,1.684950113E0,1.990950108E0,4.045950413E0
1.825647073E1,1.105050087E0,2.524950027E0,3.519000053E0
1.827734888E1,5.569500327E-1,2.721000195E0,3.217050076E0
1.829822703E1,-1.720500141E-1,2.944050074E0,3.835050106E0
1.831911116E1,9.300000221E-2,2.235000134E0,4.453050137E0
1.833999527E1,3.390000165E-1,1.372950077E0,5.863050461E0
1.836088264E1,-1.699500084E-1,4.540500343E-1,7.168050289E0
1.838177003E1,-9.169500470E-1,4.050000105E-3,8.668950081E0
1.840265590E1,-8.880000710E-1,1.639500111E-1,1.018200016E1
1.842354175E1,8.110500574E-1,2.170500159E-1,1.142295074E1
1.844442226E1,2.238000154E0,-6.705000252E-2,1.318995094E1
1.846530277E1,1.885950089E0,-8.599500656E-1,1.646700096E1
1.848618735E1,2.719500065E-1,-2.047049999E0,1.901700020E1
1.850707192E1,-7.905000448E-2,-2.289000034E0,1.927800179E1
1.852795870E1,1.333050013E0,-1.846050143E0,1.662104988E1
1.854884547E1,2.299950123E0,-2.130000144E-1,1.339800072E1
1.856973057E1,3.058950186E0,1.369050026E0,1.077405071E1
1.859061569E1,3.327000141E0,2.419950008E0,9.265050888E0
1.861149178E1,2.287950039E0,2.946000099E0,7.987050533E0
1.863236790E1,1.101000071E0,2.961000204E0,6.747000217E0
1.865324557E1,3.510000110E-1,2.842950106E0,5.863050461E0
1.867412326E1,-1.960500032E-1,2.812050104E0,5.614050388E0
1.869500466E1,-2.299500108E-1,2.755050182E0,5.514000416E0
1.871588605E1,-2.629500031E-1,2.808000088E0,5.358000278E0
1.873677113E1,-3.640500307E-1,3.040050030E0,4.932000160E0
1.875765621E1,-5.029500127E-1,3.115950108E0,5.218950272E0
1.877853027E1,-1.032000065E0,2.673000097E0,6.162000179E0
1.879940432E1,-1.342950106E0,1.942950130E0,7.848000526E0
1.882028603E1,-2.077950001E0,1.347000122E0,9.246000290E0
1.884116772E1,-3.181950092E0,1.041000009E0,1.007700062E1
1.886204924E1,-3.768000126E0,7.939500213E-1,1.073595047E1
1.888293078E1,-3.178950071E0,8.610000610E-1,1.140795040E1
1.890381429E1,-1.618050098E0,1.536000013E0,1.237995052E1
1.892469779E1,3.439500034E-1,2.001000166E0,1.352505112E1
1.894559215E1,8.640000224E-1,1.528950095E0,1.554105091E1
1.896648649E1,2.595000155E-2,-1.390500069E-1,1.730805016E1
1.898737432E1,-1.020000100E0,-1.635000110E0,1.783200073E1
1.900826217E1,-2.784000158E0,-2.071050167E0,1.695105171E1
1.902914588E1,-2.812950134E0,-2.119050026E0,1.508595085E1
1.905002957E1,-2.011049986E0,-1.449000120E0,1.342905045E1
1.907091252E1,-9.049500227E-1,-7.039500475E-1,1.237605095E1
1.909179544E1,-5.550000072E-1,-3.060000241E-1,1.148700047E1
1.911268251E1,-7.080000043E-1,-1.819500029E-1,9.976950645E0
1.913356959E1,-7.399500608E-1,6.405000389E-2,8.061000824E0
1.915445281E1,-5.239500403E-1,5.980500579E-1,6.418950081E0
1.917533605E1,-1.939500123E-1,1.215000033E0,5.830050468E0
1.919621728E1,2.389500141E-1,1.687050104E0,5.722050190E0
1.921709848E1,3.220500052E-1,1.966950059E0,5.511000156E0
1.923798114E1,4.639500082E-1,2.131950140E0,5.032050133E0
1.925886380E1,6.169500351E-1,2.379000187E0,4.788000107E0
1.927974839E1,3.679500222E-1,2.776050091E0,4.549050331E0
1.930063300E1,1.090500057E-1,3.006000042E0,4.546050072E0
1.932152057E1,-2.149500102E-1,2.901000023E0,4.483950138E0
1.934240810E1,-9.120000601E-1,2.944050074E0,4.684950352E0
1.936329398E1,-1.743000031E0,2.743050098E0,5.074950218E0
1.938417994E1,-2.041949987E0,2.116050005E0,5.302950382E0
1.940506383E1,-7.639500499E-1,1.275000095E0,5.799000263E0
1.942594772E1,-5.670000315E-1,8.110500574E-1,7.921950340E0
1.944683695E1,-4.639500082E-1,-2.939999998E-1,1.095105076E1
1.946772618E1,1.759500057E-1,-2.157000065E0,1.338795090E1
1.948860516E1,-3.250500262E-1,-3.784950256E0,1.557705116E1
1.950948425E1,-1.621050119E0,-4.551000118E0,1.832999992E1
1.953036715E1,-2.431950092E0,-4.831950188E0,1.956300163E1
1.955125003E1,-1.375950098E0,-4.393050194E0,1.874895096E1
1.957212976E1,9.040500522E-1,-2.976000071E0,1.627799988E1
1.959300949E1,3.054000139E0,-1.096950054E0,1.325205040E1
1.961389608E1,3.673950195E0,1.303950071E0,9.237000465E0
1.963478270E1,3.222000122E0,3.010950089E0,7.153950214E0
1.965566495E1,1.960050106E0,3.487950087E0,6.208050251E0
1.967654726E1,9.450000525E-1,3.013050079E0,6.043050289E0
1.969742772E1,9.495000541E-2,2.692950010E0,6.055050373E0
1.971830818E1,-2.029500157E-1,2.725950241E0,5.983050346E0
1.973919707E1,-5.670000315E-1,2.805000067E0,5.716950417E0
1.976008599E1,-7.609500289E-1,3.058950186E0,5.593050480E0
1.978096535E1,-8.500500321E-1,3.211950064E0,5.538000107E0
1.980184474E1,-1.093950033E0,3.022950172E0,6.055050373E0
1.982273070E1,-1.092000008E0,2.254050016E0,7.350000381E0
1.984361666E1,-1.081950068E0,1.600950122E0,8.808000565E0
1.986450471E1,-1.012950063E0,1.444950104E0,1.073805046E1
1.988539275E1,-1.374000072E0,1.042950034E0,1.185795021E1
1.990627423E1,-2.353049994E0,5.380499959E-1,1.169100094E1
1.992715573E1,-2.539950132E0,3.610500097E-1,1.148700047E1
1.994803211E1,-1.812000036E0,6.379500031E-1,1.256205082E1
1.996890846E1,-1.044000030E0,4.230000079E-1,1.483005047E1
1.998978785E1,-1.120050073E0,-7.950000167E-1,1.677900124E1
2.001066723E1,-1.968000054E0,-2.275050163E0,1.883505058E1
2.003154600E1,-3.475950241E0,-3.220050097E0,1.877595139E1
2.005242478E1,-3.919050217E0,-3.385050058E0,1.661805153E1
2.007330510E1,-3.007050037E0,-2.554950237E0,1.370205021E1
2.009418536E1,-1.363950014E0,-1.482000113E0,1.106805038E1
2.011506354E1,1.020000055E-1,-2.869500220E-1,9.124050140E0
2.013594169E1,6.700500250E-1,8.110500574E-1,7.975050449E0
2.015682759E1,4.039500058E-1,1.348950028E0,7.282950401E0
2.017771347E1,2.430000156E-1,1.540950060E0,6.961950302E0
2.019859234E1,3.660000265E-1,1.536000013E0,6.916950226E0
2.021947123E1,3.370500207E-1,1.528950095E0,6.888000488E0
2.024035697E1,3.799500167E-1,1.669950128E0,6.352050304E0
2.026124270E1,4.450500309E-1,1.942950130E0,5.923050404E0
2.028212620E1,4.810500145E-1,2.163000107E0,5.856000423E0
2.030300970E1,2.650500238E-1,2.146950006E0,5.964000225E0
2.032389758E1,1.800000109E-2,2.113049984E0,6.073950291E0
2.034478546E1,-1.099500060E-1,2.142000198E0,6.222000122E0
2.036567160E1,-2.200500071E-1,2.251950026E0,6.253050327E0
2.038655772E1,-2.890500128E-1,2.398050070E0,5.755050182E0
2.040744693E1,-5.580000281E-1,2.083950043E0,5.734050274E0
2.042833616E1,-4.360500276E-1,1.588950038E0,6.208050251E0
2.044922479E1,-2.340000123E-1,1.428000093E0,7.825950146E0
2.047011345E1,-4.005000368E-2,8.830500245E-1,9.720000267E0
2.049099515E1,4.210500121E-1,-1.650000066E-1,1.122900009E1
2.051187685E1,-1.219500080E-1,-1.597050071E0,1.248600101E1
2.053275436E1,-1.927050114E0,-3.124950171E0,1.573005104E1
2.055363190E1,-3.973950148E0,-4.243050098E0,1.767405128E1
2.057451895E1,-5.562000275E0,-4.414950371E0,1.676399994E1
2.059540602E1,-4.077000141E0,-3.771000147E0,1.571805096E1
2.061628596E1,-1.198950052E0,-1.975050092E0,1.340295029E1
2.063716593E1,1.374000072E0,4.110000134E-1,1.108500099E1
2.065804502E1,2.815050125E0,1.938000083E0,9.976950645E0
2.067892410E1,1.893000126E0,1.740000129E0,9.469050407E0
2.069980768E1,3.299999982E-2,8.730000257E-1,8.632950783E0
2.072069125E1,-1.159050107E0,6.570000052E-1,7.117950439E0
2.074157583E1,-1.624950051E0,1.000050068E0,6.049950123E0
2.076246041E1,-1.474950075E0,1.536000013E0,5.557050228E0
2.078334278E1,-9.670500755E-1,2.182950020E0,5.395950317E0
2.080422512E1,-8.230500221E-1,2.757000208E0,5.176050186E0
2.082510216E1,-6.919500232E-1,2.932050228E0,5.346000195E0
2.084597920E1,-9.619500637E-1,2.520000219E0,6.166950226E0
2.086685951E1,-1.261950016E0,1.969950080E0,7.969950199E0
2.088773982E1,-1.779000044E0,9.970500469E-1,9.514050484E0
2.090861464E1,-2.008949995E0,-6.340500116E-1,1.140105057E1
2.092948945E1,-3.880950212E0,-4.189500213E-1,1.139400101E1
2.095036649E1,-3.064050198E0,7.579500079E-1,1.207395077E1
2.097124353E1,-6.730500460E-1,1.819050074E0,1.213095093E1
2.099212018E1,-4.240500331E-1,3.057000160E0,1.288995075E1
2.101299684E1,-1.198950052E0,3.004050255E0,1.286895084E1
2.103386530E1,-1.834050059E0,1.837950110E0,1.296000099E1
2.105473377E1,-2.602050066E0,4.969500303E-1,1.443495083E1
2.107560959E1,-3.768000126E0,-1.021950006E0,1.558395100E1
2.109648540E1,-4.603950024E0,-1.627950072E0,1.428900051E1
2.111736557E1,-4.285950184E0,-1.149000049E0,1.174605083E1
2.113824577E1,-3.127050161E0,-3.019500077E-1,1.006305027E1
2.115912752E1,-1.609050035E0,8.505000174E-2,9.571950912E0
2.118000922E1,-7.729500532E-1,4.849500358E-1,9.112050056E0
2.120089075E1,-5.820000172E-1,7.170000076E-1,8.758049965E0
2.122177229E1,-9.889500737E-1,6.100500226E-1,8.578050613E0
2.124265044E1,-1.606050134E0,2.890500128E-1,8.146950722E0
2.126352860E1,-1.494000077E0,5.020500422E-1,7.612950325E0
2.128440892E1,-1.180050015E0,7.750500441E-1,6.760950089E0
2.130528923E1,-6.870000362E-1,1.102950096E0,6.061950207E0
2.132618428E1,-4.309500158E-1,1.443000078E0,5.731050491E0
2.134707935E1,-2.460000068E-1,1.717950106E0,5.470050335E0
2.136796592E1,-3.105000220E-2,1.986000061E0,5.985000134E0
2.138885251E1,1.480500102E-1,2.211000204E0,6.331950188E0
2.140973484E1,2.479500175E-1,2.226000071E0,6.498000145E0
2.143061719E1,-3.105000220E-2,1.777950048E0,7.138950348E0
2.145149252E1,-2.509500086E-1,1.359000087E0,8.523000717E0
2.147236786E1,-4.500000179E-2,1.239000082E0,9.400050163E0
2.149324816E1,2.430000156E-1,1.057050109E0,9.901950836E0
2.151412846E1,3.780000210E-1,8.629500270E-1,1.087695026E1
2.153500834E1,1.330050111E0,6.190500259E-1,1.167405033E1
2.155588823E1,2.191950083E0,3.610500097E-1,1.318695068E1
2.157677851E1,1.290000081E0,-2.200500071E-1,1.445595074E1
2.159766878E1,-2.580000162E-1,-1.450950027E0,1.484895039E1
2.161855112E1,-1.197000027E0,-2.758050203E0,1.430295086E1
2.163943347E1,-2.029950142E0,-3.148050070E0,1.276605034E1
2.166031790E1,-1.216050029E0,-2.362950087E0,1.206405067E1
2.168120232E1,1.134000063E0,-1.390950084E0,1.177005100E1
2.170208895E1,3.034950256E0,1.360500008E-1,1.153800011E1
2.172297557E1,3.511950254E0,1.242000103E0,9.943050385E0
2.174386697E1,1.855050087E0,1.788000107E0,8.370000839E0
2.176475835E1,6.889500618E-1,1.339950085E0,7.345050335E0
2.178563798E1,-8.100000024E-2,8.779500127E-1,6.829950333E0
2.180651768E1,-5.310000181E-1,1.066950083E0,6.877950191E0
2.182740384E1,-2.939999998E-1,1.420950055E0,7.111050129E0
2.184828999E1,-1.530000120E-1,1.801950097E0,7.114950180E0
2.186916846E1,2.530499995E-1,2.017050028E0,6.795000553E0
2.189004693E1,5.020500422E-1,1.882950068E0,6.768000126E0
2.191092877E1,3.030000031E-1,1.680000067E0,7.246950150E0
2.193181062E1,-5.700000376E-2,9.499500394E-1,8.767050743E0
2.195269260E1,-1.177950025E0,3.750000298E-1,9.865950584E0
2.197357460E1,-2.353049994E0,1.260000020E-1,1.016805077E1
2.199445375E1,-2.947050095E0,1.930500120E-1,9.895050049E0
2.201533286E1,-2.557050228E0,5.830500126E-1,9.828000069E0
2.203621541E1,4.489500225E-1,8.590500355E-1,9.928950310E0
2.205709798E1,1.929000139E0,3.220500052E-1,1.375500107E1
2.207798508E1,1.765950084E0,-2.016000032E0,1.798500061E1
2.209887220E1,2.820000052E-1,-4.188000202E0,2.049195099E1
2.211974882E1,-2.332050085E0,-4.662000179E0,1.893600082E1
2.214062544E1,-2.944950104E0,-4.305000305E0,1.694400024E1
2.216150513E1,-2.526000023E0,-3.430950165E0,1.334100056E1
2.218238482E1,-1.965000153E0,-2.095050097E0,9.835050583E0
2.220326277E1,-7.660500407E-1,-1.006049991E0,8.098950386E0
2.222414073E1,-6.490500569E-1,-7.395000011E-2,7.213950157E0
2.224501502E1,-1.519950032E0,3.529500067E-1,6.900000095E0
2.226588933E1,-1.855050087E0,3.000000119E-2,6.943050385E0
2.228676533E1,-2.659950018E0,-2.080500126E-1,7.234950542E0
2.230764133E1,-2.428050041E0,-5.239500403E-1,7.338000298E0
2.232851719E1,-1.411950111E0,-8.100000024E-2,7.489050388E0
2.234939308E1,-5.170500278E-1,5.520000458E-1,7.483950138E0
2.237027247E1,7.800000161E-2,6.930000186E-1,7.675950527E0
2.239115182E1,1.639500111E-1,1.999500096E-1,8.047050476E0
2.241203847E1,4.090500176E-1,-3.349500299E-1,7.798050404E0
2.243292512E1,3.580500185E-1,-6.580500603E-1,7.882050514E0
2.245381446E1,-4.639500082E-1,-9.840000272E-1,7.441050529E0
2.247470381E1,2.599500120E-1,-8.359500170E-1,8.272050858E0
2.249559133E1,5.790000558E-1,-9.979500771E-1,8.607000351E0
2.251647888E1,7.200000286E-1,-1.089000106E0,8.575950623E0
2.253736323E1,8.160000443E-1,-7.350000143E-1,8.748000145E0
2.255824758E1,8.970000148E-1,-4.450500309E-1,9.012000084E0
2.257913127E1,1.797000051E0,-6.319500208E-1,8.257050514E0
2.260001497E1,1.687050104E0,-1.615950108E0,9.238950729E0
2.262089974E1,-1.324050069E0,-3.723000288E0,1.467705059E1
2.264178447E1,-5.119050026E0,-4.744950294E0,1.773195076E1
2.266267141E1,-5.574000359E0,-4.482000351E0,1.483005047E1
2.268355833E1,-2.242950201E0,-2.731950045E0,1.349400043E1
2.270443787E1,7.270500064E-1,-4.260000288E-1,8.719950676E0
2.272531741E1,2.692950010E0,2.233050108E0,6.439950466E0
2.274619927E1,3.805950165E0,1.546050072E0,6.454950333E0
2.276708111E1,-2.730000019E-1,1.102950096E0,8.230950356E0
2.278797010E1,-1.531950116E0,-1.159050107E0,9.495000839E0
2.280885906E1,-4.699950218E0,-1.068000078E0,8.940000534E0
2.282974657E1,-4.993950367E0,-6.610500216E-1,7.633050442E0
2.285063407E1,-4.579950333E0,5.860500336E-1,7.927050591E0
2.287152054E1,-3.606000185E0,1.278000116E0,8.025000572E0
2.289240700E1,-2.760000229E0,1.464000106E0,7.668000221E0
2.291329673E1,-2.334000111E0,1.381050110E0,7.692000389E0
2.293418642E1,-2.932950258E0,1.210950017E0,7.945950508E0
2.295507213E1,-3.424050093E0,7.129500508E-1,8.583000183E0
2.297595783E1,-3.675000191E0,3.150000274E-1,9.049950600E0
2.299684136E1,-3.546000242E0,1.159500033E-1,9.262950897E0
2.301772490E1,-3.880950212E0,1.860000044E-1,9.529050827E0
2.303861343E1,-4.159049988E0,2.410500050E-1,1.006305027E1
2.305950193E1,-4.426949978E0,3.169500232E-1,1.108305073E1
2.308038115E1,-4.305000305E0,3.220500052E-1,1.201905060E1
2.310126034E1,-3.097950220E0,2.500500083E-1,1.161705017E1
2.312214033E1,-1.858050108E0,2.029500157E-1,1.240395069E1
2.314302033E1,4.369500279E-1,-5.269500017E-1,1.335495090E1
2.316389923E1,-1.600500047E-1,-9.480000734E-1,1.514805031E1
2.318477816E1,-8.209500313E-1,-1.843950033E0,1.567695045E1
2.320565877E1,-7.249500155E-1,-2.655000210E0,1.457595062E1
2.322653938E1,-1.312050104E0,-2.254950047E0,1.300800037E1
2.324741730E1,-2.107050180E0,-1.312050104E0,1.145100021E1
2.326829519E1,-1.498950124E0,-9.889500737E-1,1.089795017E1
2.328916840E1,-1.186950088E0,-4.090500176E-1,9.652950287E0
2.331004163E1,-1.173000097E0,2.170500159E-1,9.036000252E0
2.333092004E1,-1.585050106E0,7.270500064E-1,7.288050175E0
2.335179846E1,-1.984950066E0,1.431000113E0,5.830050468E0
2.337267662E1,-1.642050028E0,1.954950094E0,5.257050037E0
2.339355482E1,-9.430500269E-1,2.163000107E0,4.933950424E0
2.341442785E1,-6.130500436E-1,2.611050129E0,5.277000427E0
2.343530089E1,5.205000192E-2,2.836050034E0,5.643000126E0
2.345617672E1,1.050000042E-1,2.968050241E0,6.474000454E0
2.347705260E1,-4.380000234E-1,2.829000235E0,6.895050526E0
2.349793118E1,-1.004999995E0,2.532000065E0,6.895050526E0
2.351880976E1,-1.519950032E0,2.227950096E0,7.165950298E0
2.353969764E1,-1.795050144E0,1.725000024E0,7.788000584E0
2.356058552E1,-1.812000036E0,1.428000093E0,8.593050003E0
2.358146813E1,-1.563000083E0,1.072050095E0,9.607950211E0
2.360235075E1,-2.683950186E0,4.540500343E-1,1.103505039E1
2.362323196E1,-3.759000063E0,-7.695000619E-2,1.235205078E1
2.364411319E1,-2.049000025E0,-1.270500124E-1,1.273200035E1
2.366499627E1,-9.769500494E-1,2.029500157E-1,1.312305069E1
2.368587934E1,-1.201950073E0,-5.460000038E-1,1.487505054E1
2.370675749E1,-1.864950061E0,-1.338000059E0,1.542600060E1
2.372763561E1,-1.906050086E0,-1.120050073E0,1.399395084E1
2.374851734E1,-1.057950020E0,-1.939500123E-1,1.151400089E1
2.376939907E1,-3.040500283E-1,1.041000009E0,9.249000549E0
2.379027762E1,-1.270500124E-1,2.266050100E0,7.852950573E0
2.381115620E1,-2.970000207E-1,2.949000120E0,7.410000324E0
2.383204295E1,-9.019500613E-1,3.025050163E0,7.774050236E0
2.385292972E1,-1.839000106E0,2.749950171E0,8.037000656E0
2.387381558E1,-2.728950024E0,2.851050138E0,7.491000175E0
2.389470143E1,-2.961000204E0,3.235950232E0,7.020000458E0
2.391559286E1,-2.808000088E0,3.757950068E0,6.631950378E0
2.393648428E1,-2.313000202E0,4.450050354E0,6.261000156E0
2.395737305E1,-1.218000054E0,5.008050442E0,6.498000145E0
2.397826182E1,-3.250500262E-1,5.602050304E0,7.077000141E0
2.399914653E1,-2.850000262E-1,5.623050213E0,7.867050171E0
2.402003126E1,-1.080000043E0,4.597949982E0,9.226950645E0
2.404091070E1,-2.748000145E0,3.040050030E0,1.111395073E1
2.406179013E1,-4.711950302E0,1.753950119E0,1.224405098E1
2.408267239E1,-5.097000122E0,1.752000093E0,1.149705029E1
2.410355466E1,-4.092000008E0,2.523000002E0,1.010595036E1
2.412443778E1,-2.665050030E0,2.661000013E0,9.463950157E0
2.414532090E1,-2.182950020E0,2.332950115E0,1.062300014E1
2.416620551E1,-2.143050194E0,2.083950043E0,1.179405022E1
2.418709013E1,-1.876950145E0,2.044049978E0,1.194495010E1
2.420797550E1,-1.942050099E0,1.618050098E0,1.314705086E1
2.422886089E1,-2.782050133E0,4.129500091E-1,1.448295116E1
2.424974160E1,-3.499950171E0,-7.300500274E-1,1.464300060E1
2.427062238E1,-3.766050100E0,-1.213950038E0,1.376895046E1
2.429150174E1,-3.732000113E0,-1.149000049E0,1.289805031E1
2.431238109E1,-3.274950266E0,-1.057950020E0,1.241595078E1
2.433325867E1,-2.559000015E0,-8.760000467E-1,1.216305065E1
2.435413625E1,-1.882050037E0,-6.319500208E-1,1.144905090E1
2.437500838E1,-1.357050061E0,-3.829500079E-1,1.016100025E1
2.439588053E1,-6.370500326E-1,-1.200000010E-2,8.878050804E0
2.441675470E1,4.500000179E-2,4.540500343E-1,7.812000275E0
2.443762885E1,7.129500508E-1,9.589500427E-1,6.838050365E0
2.445850548E1,1.194000006E0,1.608000040E0,5.965950489E0
2.447938210E1,1.575000048E0,2.233050108E0,5.142000198E0
2.450025643E1,1.705950022E0,2.866950035E0,4.897950172E0
2.452113074E1,1.398000121E0,3.306000233E0,5.097000122E0
2.454200700E1,1.014000058E0,3.439950228E0,5.272050381E0
2.456288327E1,7.920000553E-1,3.403950214E0,5.281050205E0
2.458375772E1,7.489500642E-1,3.364950180E0,5.503950119E0
2.460463218E1,7.920000553E-1,3.178950071E0,5.908950329E0
2.462551824E1,6.700500250E-1,3.124050140E0,5.988000393E0
2.464640427E1,8.320500255E-1,3.346050262E0,5.827050209E0
2.466728237E1,1.137000084E0,3.567000151E0,6.097950459E0
2.468816050E1,7.920000553E-1,3.508950233E0,7.429050446E0
2.470904925E1,1.708950043E0,2.665950060E0,9.309000015E0
2.472993801E1,2.446050167E0,2.319000006E0,1.065195084E1
2.475081896E1,1.192050099E0,1.573950052E0,1.223400021E1
2.477169992E1,-8.110500574E-1,2.620500028E-1,1.427205086E1
2.479257946E1,-1.543950081E0,-6.970500350E-1,1.488495064E1
2.481345900E1,-1.768950105E0,-1.048950076E0,1.398000050E1
2.483434659E1,-1.450950027E0,-5.869500041E-1,1.316595078E1
2.485523413E1,-4.500000179E-2,6.190500259E-1,1.235400105E1
2.487611947E1,3.990000188E-1,1.648950100E0,1.141095066E1
2.489700486E1,-9.795000404E-2,1.869000077E0,1.046700096E1
2.491789224E1,-9.529500604E-1,1.717950106E0,9.877950668E0
2.493877962E1,-1.396050096E0,1.876050115E0,9.232050896E0
2.495966343E1,-1.324050069E0,2.227950096E0,8.380050659E0
2.498054728E1,-9.690000415E-1,2.644950151E0,7.374000549E0
2.500142141E1,-7.300500274E-1,3.136050224E0,6.475950241E0
2.502229553E1,-5.890500546E-1,3.255000114E0,6.486000538E0
2.504317660E1,-5.260500312E-1,2.908050060E0,7.567950249E0
2.506405767E1,-7.660500407E-1,2.245050192E0,8.953950882E0
2.508494692E1,-1.257000089E0,1.669950128E0,9.904950142E0
2.510583615E1,-2.158950090E0,1.297050118E0,1.055595016E1
2.512671894E1,-2.095050097E0,1.540950060E0,9.924000740E0
2.514760175E1,-1.615950108E0,1.974000096E0,9.481050491E0
2.516848818E1,-1.285050035E0,2.307000160E0,9.478950500E0
2.518937460E1,-1.372050047E0,2.677950144E0,9.967050552E0
2.521025888E1,-9.019500613E-1,2.836050034E0,1.049100018E1
2.523114319E1,-6.490500569E-1,2.548950195E0,1.177695084E1
2.525202954E1,-2.455950022E0,9.619500637E-1,1.456200027E1
2.527291589E1,-5.158950329E0,-1.101000071E0,1.763295174E1
2.529379755E1,-7.159050465E0,-2.056950092E0,1.757595062E1
2.531467921E1,-6.892950535E0,-1.699950099E0,1.394400024E1
2.533555874E1,-5.811000347E0,-4.050000310E-1,1.083405018E1
2.535643828E1,-4.728000164E0,3.559500277E-1,9.526050568E0
2.537731860E1,-4.498950005E0,3.060000241E-1,1.007505035E1
2.539819890E1,-4.105950356E0,7.304999977E-2,1.095300007E1
2.541908350E1,-3.378000259E0,1.069500074E-1,1.065195084E1
2.543996811E1,-2.869950056E0,4.300500154E-1,9.502050400E0
2.546084938E1,-2.226000071E0,6.889500618E-1,8.716950417E0
2.548173065E1,-1.444050074E0,8.370000124E-1,7.896000385E0
2.550261530E1,-8.070000410E-1,1.270050049E0,7.081950188E0
2.552349991E1,-2.100000083E-1,1.675050020E0,6.258000374E0
2.554438117E1,2.770500183E-1,2.245050192E0,5.320050240E0
2.556526240E1,7.249500155E-1,2.977950096E0,4.840950012E0
2.558614960E1,7.320000529E-1,3.391950130E0,5.041950226E0
2.560703679E1,2.220000178E-1,3.100050211E0,6.045000076E0
2.562792634E1,3.495000303E-2,2.542050123E0,7.021950245E0
2.564881588E1,-3.250500262E-1,1.974000096E0,7.948950291E0
2.566970324E1,-6.370500326E-1,1.539000034E0,8.226000786E0
2.569059063E1,-1.530000120E-1,1.321050048E0,7.920000553E0
2.571147508E1,-1.395000052E-2,1.432950020E0,8.254950523E0
2.573235955E1,-3.250500262E-1,1.423950076E0,9.076050758E0
2.575324408E1,8.640000224E-1,8.850000501E-1,9.529050827E0
2.577412858E1,1.204050064E0,6.100500226E-1,1.073295021E1
2.579501169E1,-1.939500123E-1,-2.350500077E-1,1.311795044E1
2.581589476E1,-2.179050207E0,-1.426950097E0,1.527300072E1
2.583678208E1,-3.309000254E0,-2.136000156E0,1.520100117E1
2.585766942E1,-2.677050114E0,-1.693050027E0,1.309200096E1
2.587855432E1,-7.200000286E-1,-6.000000238E-2,1.084800053E1
2.589943925E1,9.040500522E-1,1.548000097E0,9.771000862E0
2.592032452E1,1.398000121E0,2.170950174E0,9.478950500E0
2.594120975E1,1.690500081E-1,1.936050057E0,9.370950699E0
2.596209164E1,-1.185000062E0,1.728000045E0,8.751000404E0
2.598297352E1,-1.687950134E0,1.918950081E0,7.860000610E0
2.600385285E1,-1.482000113E0,2.427000046E0,7.333050251E0
2.602473220E1,-1.336050034E0,3.030000210E0,6.784950256E0
2.604560895E1,-1.189950109E0,3.420000076E0,6.145950317E0
2.606648572E1,-1.233000040E0,3.499050140E0,6.001950264E0
2.608735972E1,-1.402950048E0,3.274050236E0,6.897000313E0
2.610823372E1,-1.555950046E0,2.890950203E0,8.145000458E0
2.612910850E1,-2.032050133E0,2.287950039E0,9.246000290E0
2.614998327E1,-2.482950211E0,1.984050035E0,1.011495018E1
2.617085606E1,-2.545050144E0,1.954950094E0,1.096095085E1
2.619172887E1,-2.656950235E0,1.771050096E0,1.113495064E1
2.621260590E1,-2.695950031E0,1.597950101E0,1.122405052E1
2.623348294E1,-2.017950058E0,1.858950138E0,1.158300018E1
2.625435635E1,-1.138950109E0,1.900050044E0,1.241205025E1
2.627522978E1,-2.482950211E0,5.260500312E-1,1.468095112E1
2.629611295E1,-4.606050014E0,-1.663950086E0,1.746105003E1
2.631699614E1,-5.686050415E0,-2.904000044E0,1.837605095E1
2.633787121E1,-4.999050140E0,-3.168000221E0,1.643400002E1
2.635874629E1,-4.081950188E0,-2.281949997E0,1.363995075E1
2.637961941E1,-2.884950161E0,-1.531950116E0,1.225800037E1
2.640049252E1,-2.221950054E0,-1.173000097E0,1.182300091E1
2.642137107E1,-2.350950003E0,-8.190000653E-1,1.067595005E1
2.644224964E1,-2.422950029E0,-4.600500166E-1,8.964000702E0
2.646313032E1,-2.037000179E0,-1.395000052E-2,7.531950474E0
2.648401098E1,-1.483950019E0,4.830000103E-1,6.639000416E0
2.650488400E1,-1.021950006E0,9.520500302E-1,5.929950237E0
2.652575704E1,-6.850500107E-1,1.552950025E0,5.233050346E0
2.654663382E1,-3.469500244E-1,2.125050068E0,5.257050037E0
2.656751059E1,-1.579500139E-1,2.596950054E0,5.746050358E0
2.658838508E1,-2.179500163E-1,2.962950230E0,6.136050224E0
2.660925955E1,-4.639500082E-1,3.198000193E0,6.028050423E0
2.663014547E1,-4.860000312E-1,3.303000212E0,5.092050076E0
2.665103135E1,-2.850000262E-1,3.451950073E0,4.750050068E0
2.667191840E1,-3.795000166E-2,3.133050203E0,5.700000286E0
2.669280544E1,3.660000265E-1,2.154000044E0,6.943050385E0
2.671368320E1,6.600000262E-1,1.357050061E0,7.953000546E0
2.673456094E1,1.840500087E-1,7.630500197E-1,8.502000809E0
2.675544203E1,-1.004999995E0,1.189050078E0,8.092050552E0
2.677632311E1,-2.059500068E-1,1.543050051E0,7.411950588E0
2.679720277E1,1.564950109E0,1.462050080E0,8.502000809E0
2.681808243E1,1.299000025E0,5.070000291E-1,1.141095066E1
2.683896150E1,-5.740500093E-1,-1.195050001E0,1.465500069E1
2.685984058E1,-1.968000054E0,-2.161950111E0,1.710405159E1
2.688072063E1,-1.386000037E0,-2.281949997E0,1.700100136E1
2.690160067E1,4.969500303E-1,-1.101000071E0,1.426695061E1
2.692247739E1,2.311950207E0,1.120050073E0,1.154205036E1
2.694335412E1,3.148050070E0,2.551050186E0,9.349050522E0
2.696423342E1,2.370000124E0,2.926950216E0,7.879050255E0
2.698511269E1,7.699500322E-1,2.398050070E0,7.093950272E0
2.700599457E1,-8.830500245E-1,2.049000025E0,6.706050396E0
2.702687641E1,-2.047049999E0,2.001000166E0,6.280050278E0
2.704775928E1,-2.644950151E0,2.226000071E0,5.952000141E0
2.706864217E1,-3.049950123E0,2.532000065E0,5.791050434E0
2.708952695E1,-3.562050104E0,2.152050018E0,6.546000481E0
2.711041172E1,-4.264050007E0,1.627050042E0,7.498050213E0
2.713129539E1,-4.423950195E0,1.459950089E0,8.410950661E0
2.715217908E1,-4.189949989E0,1.402050018E0,9.249000549E0
2.717306972E1,-3.940950155E0,1.318050027E0,1.009095001E1
2.719396037E1,-3.940950155E0,1.227000117E0,1.080300045E1
2.721484154E1,-3.649050236E0,1.359000087E0,1.134600067E1
2.723572278E1,-3.000000238E0,1.644000053E0,1.125300026E1
2.725659736E1,-2.286000013E0,1.960050106E0,1.173405075E1
2.727747197E1,-1.696950078E0,1.408950090E0,1.328805065E1
2.729834225E1,-1.942050099E0,-3.520500064E-1,1.571595097E1
2.731921256E1,-2.839050055E0,-2.490000010E0,1.813395119E1
2.734009407E1,-3.981000185E0,-3.625050068E0,1.924500084E1
2.736097556E1,-4.675950050E0,-4.510950089E0,1.807605171E1
2.738185036E1,-4.755000114E0,-4.519950390E0,1.610805130E1
2.740272518E1,-3.490950108E0,-3.931050301E0,1.449495029E1
2.742359564E1,-1.927050114E0,-2.770050049E0,1.273695087E1
2.744446610E1,-7.729500532E-1,-1.840950131E0,1.070400047E1
2.746533944E1,-2.250000089E-1,-9.649500251E-1,8.815050125E0
2.748621278E1,1.069500074E-1,-2.749500275E-1,7.294950485E0
2.750709123E1,4.999500215E-1,2.820000052E-1,6.316050529E0
2.752796969E1,8.440500498E-1,6.190500259E-1,5.779050350E0
2.754884574E1,1.222950101E0,1.030950069E0,5.214000225E0
2.756972178E1,1.438050032E0,1.528950095E0,4.756950378E0
2.759060948E1,1.519950032E0,1.905000091E0,4.342950344E0
2.761149717E1,1.335000038E0,2.203950167E0,4.336050034E0
2.763238148E1,1.033950090E0,2.496000051E0,4.252050400E0
2.765326579E1,9.709500670E-1,2.785950184E0,4.281000137E0
2.767415157E1,9.739500284E-1,3.045000076E0,4.690050125E0
2.769503738E1,1.255950093E0,2.784000158E0,5.158950329E0
2.771591940E1,1.897950053E0,2.239950180E0,6.007050514E0
2.773680141E1,2.686050177E0,1.909950137E0,8.887050629E0
2.775768530E1,3.105000257E0,1.038000107E0,1.138200092E1
2.777856914E1,2.022000074E0,4.590000212E-1,1.228905106E1
2.779946024E1,1.993950129E0,-5.770500302E-1,1.109205055E1
2.782035136E1,2.338050127E0,1.549500078E-1,9.772950172E0
2.784123996E1,2.109000206E0,7.870500088E-1,1.100400066E1
2.786212858E1,6.499500275E-1,-6.195000187E-2,1.332405090E1
2.788300532E1,-3.520500064E-1,-1.294950008E0,1.400400066E1
2.790388206E1,-7.300500274E-1,-1.549050093E0,1.292205048E1
2.792476264E1,-6.060000062E-1,-2.920500040E-1,1.156905079E1
2.794564326E1,6.670500040E-1,1.036050081E0,1.106400013E1
2.796652422E1,1.339950085E0,1.812000036E0,1.105200100E1
2.798740518E1,1.239000082E0,1.977000117E0,1.104705048E1
2.800828681E1,1.069500074E-1,1.996050119E0,1.009905052E1
2.802916847E1,-7.279500365E-1,2.074949980E0,8.748000145E0
2.805005030E1,-1.153950095E0,2.436000109E0,7.654050350E0
2.807093214E1,-1.039050102E0,3.070950031E0,7.048050404E0
2.809181599E1,-6.030000448E-1,3.672000170E0,6.643950462E0
2.811269984E1,-6.460500360E-1,3.910950184E0,6.028050423E0
2.813357707E1,-1.678050041E0,3.717000246E0,6.109950066E0
2.815445430E1,-2.619000196E0,2.536950111E0,7.740000248E0
2.817533203E1,-3.313050270E0,1.644000053E0,9.262950897E0
2.819620976E1,-3.847050190E0,1.384950042E0,1.053195095E1
2.821708341E1,-4.273950100E0,1.144050002E0,1.084605026E1
2.823795707E1,-3.916950226E0,1.369050026E0,1.018695068E1
2.825883060E1,-2.617050171E0,1.747050047E0,9.808950424E0
2.827970414E1,-9.600000381E-1,2.295000076E0,1.078800011E1
2.830057989E1,-2.320500165E-1,1.764000058E0,1.318005085E1
2.832145562E1,-1.204050064E0,-2.149500102E-1,1.585200119E1
2.834233463E1,-2.418000221E0,-2.179050207E0,1.840695000E1
2.836321367E1,-3.466950178E0,-2.952000141E0,1.900995064E1
2.838408379E1,-3.451950073E0,-2.914050102E0,1.621605110E1
2.840495395E1,-2.965950251E0,-1.903050065E0,1.282305050E1
2.842582782E1,-2.080049992E0,-1.077000022E0,1.080705070E1
2.844670166E1,-1.408050060E0,-4.600500166E-1,9.739050865E0
2.846758463E1,-1.276050091E0,6.795000285E-2,8.545050621E0
2.848846759E1,-1.245000005E0,6.120000482E-1,7.912950516E0
2.850934347E1,-9.910500646E-1,8.629500270E-1,7.489050388E0
2.853021933E1,-5.740500093E-1,9.930000305E-1,7.153950214E0
2.855109991E1,-2.220000178E-1,1.297050118E0,6.574050426E0
2.857198048E1,1.720500141E-1,1.813950062E0,5.923050404E0
2.859285433E1,7.870500088E-1,2.329050064E0,5.254950047E0
2.861372818E1,1.266000032E0,2.926950216E0,4.968000412E0
2.863461328E1,1.491000056E0,3.373050213E0,5.032050133E0
2.865549836E1,1.303950071E0,3.640950203E0,5.013000011E0
2.867638010E1,9.139500260E-1,3.739050150E0,5.020050049E0
2.869726184E1,5.089499950E-1,3.640950203E0,5.347950459E0
2.871814724E1,8.805000782E-2,3.282000065E0,5.863050461E0
2.873903262E1,2.700000107E-1,2.808000088E0,6.792000294E0
2.875992119E1,1.363950014E0,2.503050089E0,7.716000557E0
2.878080977E1,2.037000179E0,2.104050159E0,9.282000542E0
2.880169618E1,2.269050121E0,1.345050097E0,1.106400013E1
2.882258264E1,3.496950150E0,6.310500503E-1,1.218600082E1
2.884346542E1,3.478050232E0,3.220500052E-1,1.308705044E1
2.886434820E1,1.540950060E0,-5.479500294E-1,1.489905071E1
2.888523218E1,-9.220500588E-1,-2.124000072E0,1.610805130E1
2.890611618E1,-2.683950186E0,-3.187050104E0,1.582095051E1
2.892700098E1,-2.803050041E0,-2.968950033E0,1.347495079E1
2.894788575E1,-2.320500165E-1,-1.702050090E0,1.269600105E1
2.896877043E1,1.150950074E0,5.830500126E-1,1.142295074E1
2.898965508E1,1.315950036E0,1.677000046E0,1.071195030E1
2.901053798E1,2.749500275E-1,8.710500598E-1,9.828000069E0
2.903142086E1,-5.650500059E-1,5.740500093E-1,8.557050705E0
2.905230115E1,-8.550000191E-1,9.880500436E-1,7.351950169E0
2.907318146E1,-8.089500666E-1,1.711050034E0,6.598050117E0
2.909405747E1,-6.679500341E-1,2.247000217E0,6.232050419E0
2.911493351E1,-7.249500155E-1,2.680950165E0,5.614050388E0
2.913581598E1,-6.439500451E-1,2.958000183E0,5.212050438E0
2.915669844E1,-8.569500446E-1,2.854950190E0,5.451000214E0
2.917758240E1,-1.008000016E0,2.226000071E0,7.282950401E0
2.919846636E1,-1.149000049E0,1.275000095E0,9.052050591E0
2.921935761E1,-2.025000095E0,5.899500251E-1,1.009905052E1
2.924024884E1,-3.031050205E0,3.769500256E-1,1.087200069E1
2.926114436E1,-3.679950237E0,4.399500191E-1,1.060905075E1
2.928203994E1,-3.816000223E0,8.370000124E-1,9.340050697E0
2.930292792E1,-3.021000147E0,1.572000027E0,9.364050865E0
2.932381592E1,-5.359500051E-1,1.600950122E0,1.066800022E1
2.934470021E1,-1.276050091E0,4.440000355E-1,1.382895088E1
2.936558449E1,-2.904000044E0,-2.619000196E0,1.750695038E1
2.938647207E1,-4.168050289E0,-4.611000061E0,1.897905159E1
2.940735964E1,-4.975050449E0,-5.421000481E0,1.817700005E1
2.942825182E1,-4.723950386E0,-5.061000347E0,1.588995075E1
2.944914398E1,-3.459000111E0,-3.804000139E0,1.334505081E1
2.947002736E1,-1.398000121E0,-2.641050100E0,1.102995014E1
2.949091075E1,-1.789500117E-1,-1.417050123E0,9.052050591E0
2.951179168E1,-2.820000052E-1,-5.509500504E-1,7.594050407E0
2.953267260E1,-7.470000386E-1,1.549500078E-1,6.696000099E0
2.955354948E1,-1.537050128E0,1.909500062E-1,5.776950359E0
2.957442637E1,-1.432050109E0,5.830500126E-1,5.095050335E0
2.959530237E1,-9.049500227E-1,1.054949999E0,4.860000134E0
2.961617837E1,-4.879500270E-1,1.558050036E0,4.957950115E0
2.963705642E1,-3.180000186E-1,1.756050110E0,5.053950310E0
2.965793446E1,-3.949500322E-1,1.819050074E0,5.005950451E0
2.967881043E1,-3.010500073E-1,1.804050088E0,4.941000462E0
2.969968639E1,-7.395000011E-2,1.977000117E0,4.927050114E0
2.972056086E1,3.420000076E-1,2.005050182E0,5.073000431E0
2.974143533E1,1.090950012E0,1.677000046E0,5.590050220E0
2.976232092E1,1.486050129E0,1.179000020E0,6.756000519E0
2.978320650E1,1.074000001E0,4.440000355E-1,8.439000130E0
2.980407940E1,3.700500131E-1,-7.920000553E-1,1.035000038E1
2.982495234E1,-2.730000019E-1,-1.867950082E0,1.205505085E1
2.984582555E1,-4.399500191E-1,-2.100000143E0,1.301505089E1
2.986669874E1,7.080000043E-1,-2.071050167E0,1.351305103E1
2.988756925E1,1.954950094E0,-2.107050180E0,1.396305084E1
2.990843976E1,2.343000174E0,-2.490000010E0,1.554795074E1
2.992931315E1,8.280000687E-1,-2.871000051E0,1.753305054E1
2.995018653E1,-3.589500189E-1,-3.226950169E0,1.676895142E1
2.997106871E1,-4.305000231E-2,-2.581050158E0,1.493295097E1
2.999195086E1,2.037000179E0,-1.317000031E0,1.257405090E1
3.001282194E1,3.511950254E0,6.840000153E-1,1.053195095E1
3.003369302E1,3.591000080E0,2.034000158E0,9.388050079E0
3.005456545E1,2.359950066E0,1.879050136E0,9.249000549E0
3.007543787E1,1.036050081E0,1.195950031E0,9.234000206E0
3.009631499E1,1.360500008E-1,9.709500670E-1,8.422950745E0
3.011719210E1,-2.419500053E-1,1.242000103E0,7.290000439E0
3.013806345E1,-2.149500102E-1,1.669950128E0,6.319950104E0
3.015893484E1,-2.269500047E-1,2.194950104E0,5.776950359E0
3.017981344E1,-1.939500123E-1,2.499000072E0,5.758050442E0
3.020069206E1,-1.669500023E-1,2.487000227E0,5.676000118E0
3.022156374E1,-2.389500141E-1,2.484000206E0,6.328050137E0
3.024243540E1,-5.100000501E-1,2.130000114E0,8.008049965E0
3.026330926E1,-9.840000272E-1,1.558050036E0,9.244050026E0
3.028418310E1,-1.704000115E0,1.207950115E0,9.376049995E0
3.030505882E1,-1.798050046E0,1.227000117E0,8.940000534E0
3.032593455E1,-1.675950050E0,9.810000658E-1,9.210000038E0
3.034680437E1,-1.266000032E0,1.000050068E0,1.092000008E1
3.036767423E1,-3.469500244E-1,1.054949999E0,1.316295052E1
3.038855173E1,-3.610500097E-1,4.159500301E-1,1.484700108E1
3.040942926E1,-1.423950076E0,-1.321950078E0,1.645995140E1
3.043030597E1,-3.189000130E0,-2.856000185E0,1.813395119E1
3.045118270E1,-4.681050301E0,-3.634050131E0,1.736100006E1
3.047206743E1,-4.977000237E0,-3.538950205E0,1.424595070E1
3.049295220E1,-4.027050018E0,-2.590950012E0,1.198800087E1
3.051383084E1,-2.430000067E0,-1.699950099E0,1.123605061E1
3.053470949E1,-1.900950074E0,-9.360000491E-1,1.067295074E1
3.055558639E1,-1.996950150E0,-6.870000362E-1,1.016805077E1
3.057646327E1,-1.716000080E0,-4.620000124E-1,9.297000885E0
3.059734182E1,-1.354950070E0,-6.900000572E-2,8.202000618E0
3.061822044E1,-7.920000553E-1,4.180500209E-1,7.165950298E0
3.063909890E1,1.140000075E-1,1.038000107E0,6.543000221E0
3.065997737E1,8.160000443E-1,1.747050047E0,6.178950310E0
3.068085073E1,1.098000050E0,2.331000090E0,5.731050491E0
3.070172411E1,9.550500512E-1,2.640000105E0,5.334000111E0
3.072260446E1,5.640000105E-1,2.760000229E0,4.891050339E0
3.074348476E1,1.020000055E-1,2.833950043E0,5.074950218E0
3.076435936E1,-1.000500023E-1,2.668950081E0,6.048000336E0
3.078523398E1,1.759500057E-1,2.191950083E0,6.592950344E0
3.080611031E1,2.939999998E-1,1.857000113E0,7.180050373E0
3.082698665E1,1.740000099E-1,1.339950085E0,7.252050400E0
3.084786557E1,-5.790000558E-1,9.450000525E-1,7.530000210E0
3.086874449E1,-1.870500147E-1,5.070000291E-1,7.968000412E0
3.088962000E1,1.849950075E0,1.050000079E-3,8.881950378E0
3.091049555E1,1.720500141E-1,-1.108950019E0,1.174395084E1
3.093137403E1,-2.514000177E0,-3.043050051E0,1.618500137E1
3.095225249E1,-4.390950203E0,-4.288050175E0,1.824195099E1
3.097312850E1,-3.883050203E0,-4.707000256E0,1.600800133E1
3.099400447E1,-1.824000120E0,-2.734050035E0,1.390995026E1
3.101487710E1,1.347000122E0,-2.869500220E-1,1.160505009E1
3.103574972E1,2.935050249E0,1.873950124E0,1.005105019E1
3.105662442E1,2.760000229E0,2.365050077E0,9.616950035E0
3.107749907E1,1.195950031E0,1.849950075E0,9.354000092E0
3.109837214E1,-1.750500053E-1,1.327950120E0,8.298000336E0
3.111924522E1,-4.810500145E-1,1.369050026E0,7.041000366E0
3.114012534E1,-2.509500086E-1,1.929000139E0,6.438000202E0
3.116100545E1,-1.120500043E-1,2.596950054E0,6.052050114E0
3.118188317E1,1.605000161E-2,3.109050035E0,5.442000389E0
3.120276087E1,1.639500111E-1,3.364950180E0,4.867050171E0
3.122364394E1,4.879500270E-1,3.409050226E0,5.073000431E0
3.124452701E1,9.690000415E-1,3.163950205E0,6.586050510E0
3.126540276E1,1.600950122E0,2.614050150E0,8.410950661E0
3.128627849E1,1.026000023E0,1.909950137E0,1.007700062E1
3.130715796E1,-9.550500512E-1,1.273050070E0,1.212900066E1
3.132803746E1,-3.273000240E0,4.300500154E-1,1.408500099E1
3.134891335E1,-4.663950443E0,-6.060000062E-1,1.680495071E1
3.136978923E1,-4.317000389E0,-6.079500318E-1,1.510695076E1
3.139065842E1,-3.064050198E0,-4.720500112E-1,1.375200081E1
3.141152762E1,-3.237000227E0,-1.120500043E-1,1.457400036E1
3.143240022E1,-4.696950436E0,-1.288050056E0,1.724595070E1
3.145327283E1,-5.332050323E0,-3.466950178E0,1.694895172E1
3.147414362E1,-5.904000282E0,-4.180050373E0,1.462395096E1
3.149501439E1,-5.997000217E0,-3.385050058E0,1.187505054E1
3.151588671E1,-5.377050400E0,-2.277000189E0,1.036200047E1
3.153675902E1,-5.218950272E0,-1.498950124E0,9.234000206E0
3.155764350E1,-4.029000282E0,-1.024950027E0,8.454000473E0
3.157852800E1,-3.166950226E0,-5.869500041E-1,7.708950520E0
3.159940537E1,-2.695950031E0,-2.970000207E-1,6.613050461E0
3.162028276E1,-2.278950214E0,-1.099500060E-1,5.989950180E0
3.164115780E1,-1.693050027E0,3.169500232E-1,5.518050194E0
3.166203284E1,-1.171050072E0,7.870500088E-1,5.037000179E0
3.168291260E1,-8.520000577E-1,1.246050000E0,4.767000198E0
3.170379232E1,-2.850000262E-1,1.672950029E0,4.840950012E0
3.172466735E1,6.070500016E-1,1.783050060E0,5.130000114E0
3.174554239E1,-1.050000042E-1,2.137050152E0,5.407950401E0
3.176642178E1,-1.120050073E0,1.950000048E0,5.341050148E0
3.178730117E1,-1.168050051E0,1.534050107E0,5.254950047E0
3.180817329E1,-1.398000121E0,1.395000100E0,5.662050247E0
3.182904545E1,-1.210950017E0,7.800000310E-1,6.708000183E0
3.184992442E1,-4.380000234E-1,2.890500128E-1,8.230950356E0
3.187080338E1,4.995000362E-2,-3.690000176E-1,1.003395081E1
3.189167902E1,3.559500277E-1,-6.340500116E-1,1.208100033E1
3.191255468E1,1.323000073E0,-1.055999994E0,1.201200104E1
3.193343235E1,1.536000013E0,-1.386000037E0,1.148505020E1
3.195431004E1,-1.000950098E0,-1.771950126E0,1.237995052E1
3.197519081E1,-2.428050041E0,-2.980950117E0,1.556505108E1
3.199607158E1,-2.478000164E0,-3.819000244E0,1.662795067E1
3.201694442E1,-1.639950037E0,-3.493050098E0,1.614195061E1
3.203781723E1,2.749500275E-1,-2.287050009E0,1.481805038E1
3.205869826E1,2.367000103E0,-4.879500270E-1,1.270605087E1
3.207957929E1,3.229050159E0,1.357050061E0,1.083795071E1
3.210045376E1,2.230950117E0,1.902000070E0,9.847050667E0
3.212132822E1,4.995000362E-2,1.270050049E0,8.977950096E0
3.214220612E1,-1.378950119E0,9.709500670E-1,8.037000656E0
3.216308400E1,-1.752000093E0,1.219950080E0,7.089000225E0
3.218396012E1,-1.317000031E0,1.809000134E0,6.604950428E0
3.220483624E1,-7.540500164E-1,2.464950085E0,6.411000252E0
3.222571994E1,-4.810500145E-1,3.042000055E0,6.012000084E0
3.224660367E1,-5.550000072E-1,3.211950064E0,5.620950222E0
3.226749551E1,-1.015050054E0,2.701950073E0,6.067050457E0
3.228838736E1,-1.590000033E0,1.825950146E0,7.525050163E0
3.230927936E1,-2.092050076E0,1.452000022E0,8.647950172E0
3.233017136E1,-2.920950174E0,1.195950031E0,9.358950615E0
3.235105168E1,-3.543000221E0,1.099950075E0,1.005600071E1
3.237193199E1,-3.220050097E0,6.810000539E-1,1.051995087E1
3.239282477E1,-2.740950108E0,8.850000501E-1,1.110195065E1
3.241371753E1,-9.910500646E-1,1.093050003E0,1.144395065E1
3.243459692E1,-1.507950068E0,4.489500225E-1,1.335195065E1
3.245547632E1,-3.357000113E0,-1.966050148E0,1.655100060E1
3.247636214E1,-5.269950390E0,-3.496050119E0,1.866105080E1
3.249724794E1,-5.740950108E0,-4.129950047E0,1.771005058E1
3.251812981E1,-5.032950401E0,-3.484050274E0,1.440795040E1
3.253901170E1,-3.888000250E0,-2.125950098E0,1.189905071E1
3.255989895E1,-2.860950232E0,-1.477050066E0,1.065705013E1
3.258078618E1,-2.578050137E0,-1.333950043E0,1.021800041E1
3.260167596E1,-2.758050203E0,-1.132050037E0,1.008405018E1
3.262256577E1,-2.751000166E0,-8.740500212E-1,9.270000458E0
3.264345347E1,-2.365050077E0,-4.210500121E-1,8.029950142E0
3.266434116E1,-1.704000115E0,5.895000324E-2,6.826050282E0
3.268522518E1,-9.240000248E-1,7.129500508E-1,5.920950413E0
3.270610922E1,-9.300000221E-2,1.428000093E0,5.173950195E0
3.272698892E1,3.340500295E-1,2.190000057E0,4.623000145E0
3.274786861E1,2.989500165E-1,2.695050240E0,4.506000042E0
3.276874749E1,4.200000316E-2,2.824050188E0,4.726050377E0
3.278962637E1,-1.530000120E-1,2.889000177E0,4.920000076E0
3.281051453E1,-2.749500275E-1,2.520000219E0,5.533050060E0
3.283140268E1,-8.310000300E-1,2.167950153E0,6.100050449E0
3.285227920E1,-9.139500260E-1,1.965000153E0,6.832950115E0
3.287315567E1,-5.239500403E-1,1.624950051E0,7.419000149E0
3.289403860E1,1.360500008E-1,1.381050110E0,7.675950527E0
3.291492151E1,4.110000134E-1,1.318050027E0,8.059050560E0
3.293580459E1,6.270000339E-1,6.480000019E-1,9.214950562E0
3.295668767E1,2.310000062E-1,-4.050000310E-1,1.102800083E1
3.297756629E1,-1.312050104E0,-1.683000088E0,1.385295105E1
3.299844491E1,-2.859000206E0,-2.722050190E0,1.677405167E1
3.301932928E1,-3.346950054E0,-3.144000053E0,1.784895134E1
3.304021362E1,-2.719950199E0,-2.935050249E0,1.601700020E1
3.306109807E1,-9.340500236E-1,-1.338000059E0,1.264095020E1
3.308198253E1,1.603050113E0,4.590000212E-1,1.035705090E1
3.310286253E1,2.559000015E0,1.792050123E0,9.427950859E0
3.312374254E1,1.386000037E0,1.882950068E0,9.819000244E0
3.314463111E1,-3.949500322E-1,1.042950034E0,1.016100025E1
3.316551969E1,-1.603950024E0,7.530000210E-1,9.337050438E0
3.318640051E1,-1.798050046E0,1.017000079E0,8.241000175E0
3.320728132E1,-1.326000094E0,1.600950122E0,7.342950344E0
3.322816082E1,-8.860500455E-1,2.470050097E0,6.421050072E0
3.324904033E1,-5.100000501E-1,2.890950203E0,5.704950333E0
3.326992145E1,-4.549500346E-1,3.042000055E0,4.876950264E0
3.329080257E1,-7.750500441E-1,3.033000231E0,4.972050190E0
3.331168206E1,-1.398000121E0,2.344950199E0,6.718050480E0
3.333256156E1,-1.903050065E0,1.600950122E0,8.569050789E0
3.335344402E1,-2.692950010E0,1.146000028E0,9.772950172E0
3.337432648E1,-3.225000143E0,8.899500370E-1,1.031205082E1
3.339520582E1,-3.940950155E0,8.800500631E-1,1.040805054E1
3.341608521E1,-3.450000048E0,8.299500346E-1,1.062105083E1
3.343696568E1,-2.350950003E0,1.297050118E0,1.190400028E1
3.345784618E1,-1.554000020E0,1.327950120E0,1.319205093E1
3.347872826E1,-2.125950098E0,5.760000348E-1,1.479405117E1
3.349961038E1,-2.839050055E0,-1.123050094E0,1.667805099E1
3.352049827E1,-3.844950199E0,-2.380050182E0,1.748295021E1
3.354138615E1,-4.812000275E0,-2.883000135E0,1.635000038E1
3.356226876E1,-4.888950348E0,-2.461050034E0,1.397295094E1
3.358315138E1,-3.948000193E0,-1.647000074E0,1.186305046E1
3.360403107E1,-2.598000050E0,-1.012950063E0,1.076700020E1
3.362491076E1,-1.924950123E0,-6.199500561E-1,1.035495090E1
3.364579493E1,-2.155050039E0,-4.519500136E-1,1.012695026E1
3.366667908E1,-2.212050200E0,-3.730500042E-1,9.184050560E0
3.368755980E1,-1.882050037E0,-8.400000632E-2,7.764000416E0
3.370844054E1,-1.197000027E0,3.630000055E-1,6.660000324E0
3.372932329E1,-4.860000312E-1,9.690000415E-1,5.892000198E0
3.375020606E1,1.600500047E-1,1.642050028E0,5.419950485E0
3.377108057E1,4.690500200E-1,2.092050076E0,5.089950085E0
3.379195508E1,5.640000105E-1,2.523000002E0,4.920000076E0
3.381283365E1,5.140500069E-1,2.878950119E0,4.807050228E0
3.383371222E1,2.200500071E-1,3.136050224E0,4.659000397E0
3.385458792E1,-2.560500205E-1,2.773950100E0,4.987050056E0
3.387546362E1,-6.460500360E-1,2.146950006E0,5.746050358E0
3.389634103E1,-1.111050010E0,1.692000031E0,6.627000332E0
3.391721845E1,-9.739500284E-1,1.618050098E0,7.561050415E0
3.393808860E1,-3.850500286E-1,1.302000046E0,8.217000008E0
3.395895876E1,-2.080500126E-1,9.589500427E-1,9.684000015E0
3.397983955E1,-1.012950063E0,3.580500185E-1,1.182495022E1
3.400072032E1,-1.362000108E0,-3.640500307E-1,1.381500053E1
3.402159523E1,-1.053000093E0,-5.790000558E-1,1.486305046E1
3.404247016E1,-1.168050051E0,-6.730500460E-1,1.594095039E1
3.406334968E1,-1.293000102E0,-1.132050037E0,1.652700043E1
3.408422918E1,-1.177950025E0,-1.365000010E0,1.502805042E1
3.410510625E1,-2.920500040E-1,-4.240500331E-1,1.263705063E1
3.412598333E1,1.345050097E0,8.299500346E-1,1.106595039E1
3.414686148E1,2.403000116E0,1.819050074E0,1.002405071E1
3.416773964E1,2.167950153E0,2.410050154E0,9.145950317E0
3.418861470E1,1.180050015E0,2.428950071E0,8.380050659E0
3.420948982E1,1.519500017E-1,2.185050011E0,7.873950481E0
3.423036607E1,-5.980500579E-1,2.142000198E0,7.506000519E0
3.425124234E1,-1.072050095E0,2.137050152E0,7.491000175E0
3.427211024E1,-1.173000097E0,2.368950129E0,7.077000141E0
3.429297812E1,-1.150950074E0,2.701950073E0,6.307950497E0
3.431385381E1,-9.910500646E-1,2.998950243E0,5.901000500E0
3.433472950E1,-8.310000300E-1,3.061050177E0,6.478050232E0
3.435560146E1,-8.760000467E-1,2.664000034E0,7.900950432E0
3.437647342E1,-1.129950047E0,2.320950031E0,8.932950020E0
3.439734910E1,-1.453050017E0,2.355000019E0,9.394950867E0
3.441822479E1,-1.921950102E0,2.479950190E0,9.378000259E0
3.443910007E1,-2.169000149E0,2.520000219E0,9.169950485E0
3.445997535E1,-1.855050087E0,2.661000013E0,9.222000122E0
3.448084580E1,-1.408050060E0,2.965950251E0,1.015395069E1
3.450171627E1,-4.879500270E-1,2.817000151E0,1.146795082E1
3.452259288E1,-1.245000005E0,1.660950065E0,1.404405022E1
3.454346945E1,-3.189000130E0,-2.400000021E-2,1.697294998E1
3.456434396E1,-4.221000195E0,-1.270950079E0,1.813395119E1
3.458521847E1,-4.972950459E0,-2.136000156E0,1.638105011E1
3.460610127E1,-4.764000416E0,-1.654050112E0,1.337895107E1
3.462698403E1,-3.322950125E0,-5.220000148E-1,1.156905079E1
3.464786800E1,-1.863000035E0,1.240500063E-1,1.107300091E1
3.466875197E1,-1.531950116E0,2.530499995E-1,1.090095043E1
3.468962838E1,-2.128050089E0,1.639500111E-1,1.033305073E1
3.471050485E1,-2.296050072E0,9.705000371E-2,9.289050102E0
3.473137564E1,-1.920000076E0,3.319500089E-1,8.107049942E0
3.475224645E1,-1.162950039E0,7.840500474E-1,7.402950287E0
3.477311875E1,-2.939999998E-1,1.285050035E0,6.796950340E0
3.479399102E1,2.310000062E-1,1.833000064E0,6.013950348E0
3.481486913E1,4.729500115E-1,2.343000174E0,5.257050037E0
3.483574728E1,3.799500167E-1,2.784000158E0,4.893000126E0
3.485663917E1,1.909500062E-1,3.037050247E0,5.250000477E0
3.487753101E1,2.295000106E-2,3.064050198E0,5.722050190E0
3.489842100E1,-7.395000011E-2,2.884050131E0,6.097950459E0
3.491931101E1,-3.919500113E-1,2.359950066E0,6.268050194E0
3.494019767E1,-2.989500165E-1,2.161050081E0,6.652950287E0
3.496108433E1,-3.299999982E-2,2.113049984E0,7.411950588E0
3.498196934E1,3.580500185E-1,1.660950065E0,7.996050358E0
3.500285438E1,-4.260000288E-1,1.287000060E0,9.234000206E0
3.502373948E1,-1.360050082E0,1.074000001E0,1.094400024E1
3.504462460E1,-5.260500312E-1,6.360000372E-1,1.250700092E1
3.506550950E1,-2.629500031E-1,7.650000453E-1,1.327095032E1
3.508639443E1,-1.789500117E-1,6.409500241E-1,1.451400089E1
3.510727718E1,-1.339500099E-1,2.220000178E-1,1.565100098E1
3.512815995E1,-1.000500023E-1,1.800000109E-2,1.403700066E1
3.514904790E1,4.180500209E-1,7.480500340E-1,1.166205025E1
3.516993586E1,1.504950047E0,1.729950070E0,1.057305050E1
3.519081554E1,1.975050092E0,2.422049999E0,1.017495060E1
3.521169524E1,1.243950009E0,2.560950041E0,9.766050339E0
3.523257605E1,-5.700000376E-2,2.259000063E0,9.427950859E0
3.525345685E1,-8.280000687E-1,2.152050018E0,8.751000404E0
3.527433751E1,-9.450000525E-1,2.491050005E0,7.812000275E0
3.529521812E1,-8.740500212E-1,2.989950180E0,6.940950394E0
3.531610060E1,-7.920000553E-1,3.478050232E0,6.160050392E0
3.533698306E1,-6.850500107E-1,3.777000189E0,5.485050201E0
3.535787149E1,-6.460500360E-1,3.928050280E0,5.140050411E0
3.537875991E1,-1.008000016E0,3.652950287E0,6.373050213E0
3.539964657E1,-1.282950044E0,2.970000029E0,8.194950104E0
3.542053319E1,-1.723950028E0,2.367000103E0,9.616950035E0
3.544140886E1,-2.485050201E0,2.074949980E0,1.029000092E1
3.546228456E1,-3.057000160E0,2.095950127E0,1.023795033E1
3.548316887E1,-2.866050243E0,2.286000013E0,9.534000397E0
3.550405317E1,-2.076000214E0,2.551050186E0,9.631950378E0
3.552493518E1,-1.398000121E0,2.968050241E0,1.103700066E1
3.554581723E1,-7.420500517E-1,2.872050047E0,1.244505024E1
3.556669377E1,-1.168050051E0,1.813950062E0,1.442295074E1
3.558757035E1,-2.218950033E0,-1.290000081E-1,1.613205147E1
3.560845268E1,-3.667950153E0,-1.273950100E0,1.627095032E1
3.562933498E1,-4.470000267E0,-1.561050057E0,1.499295044E1
3.565022286E1,-4.328999996E0,-1.228050113E0,1.328295040E1
3.567111075E1,-3.190950155E0,-7.249500155E-1,1.216005039E1
3.569199826E1,-2.049000025E0,-2.080500126E-1,1.177695084E1
3.571288576E1,-1.855050087E0,2.500500083E-1,1.067295074E1
3.573377395E1,-1.815000057E0,5.400000215E-1,9.024000168E0
3.575466214E1,-1.353000045E0,9.660000205E-1,7.414950371E0
3.577555353E1,-7.200000286E-1,1.572000027E0,6.451950073E0
3.579644491E1,-1.030500084E-1,2.049000025E0,6.198000431E0
3.581733708E1,2.050500065E-1,2.427000046E0,6.186000347E0
3.583822924E1,6.550500393E-1,2.857950211E0,5.731050491E0
3.585911596E1,8.490000367E-1,3.247950077E0,5.200050354E0
3.588000269E1,2.790000141E-1,3.688950062E0,4.891050339E0
3.590088176E1,-1.905000024E-2,3.727050066E0,4.981950283E0
3.592176084E1,-1.069500074E-1,3.490050077E0,5.454000473E0
3.594264714E1,-3.420000076E-1,2.956050158E0,6.222000122E0
3.596353344E1,-5.959500074E-1,2.575050116E0,6.940950394E0
3.598440839E1,-4.930500090E-1,2.190000057E0,7.618050575E0
3.600528336E1,4.759500325E-1,1.747050047E0,8.485050201E0
3.602615840E1,3.180000186E-1,1.516950130E0,1.033605003E1
3.604703344E1,3.495000303E-2,1.120050073E0,1.242300034E1
3.606791311E1,6.120000482E-1,2.740500271E-1,1.310805035E1
3.608879280E1,7.920000553E-1,-2.509500086E-1,1.301505089E1
3.610966527E1,5.209500194E-1,-5.770500302E-1,1.497795105E1
3.613053774E1,-4.830000103E-1,-1.357950091E0,1.628505135E1
3.615142241E1,-1.228050113E0,-1.951050043E0,1.533705044E1
3.617230702E1,-8.380500674E-1,-1.188000083E0,1.222695065E1
3.619318643E1,8.880000710E-1,5.689499974E-1,1.005600071E1
3.621406586E1,2.170950174E0,2.107950211E0,8.430000305E0
3.623495111E1,1.933950067E0,2.949000120E0,7.158000469E0
3.625583634E1,5.710500479E-1,2.866950035E0,6.637050152E0
3.627672059E1,-3.829500079E-1,2.314050198E0,6.556950092E0
3.629760487E1,-7.320000529E-1,2.191950083E0,6.565050125E0
3.631848877E1,-7.200000286E-1,2.623050213E0,6.280050278E0
3.633937265E1,-7.009500265E-1,2.986950159E0,5.806050301E0
3.636025415E1,-7.080000043E-1,3.199950218E0,5.581050396E0
3.638113565E1,-1.017000079E0,2.920050144E0,6.205950260E0
3.640201629E1,-1.278000116E0,2.403000116E0,7.704000473E0
3.642289695E1,-1.591950059E0,1.633950114E0,9.478950500E0
3.644378306E1,-2.559000015E0,1.114950061E0,1.137495041E1
3.646466917E1,-3.189000130E0,8.179500103E-1,1.249305058E1
3.648555598E1,-3.436050177E0,8.149500489E-1,1.245705032E1
3.650644279E1,-2.334000111E0,1.273050070E0,1.203600025E1
3.652732412E1,-9.810000658E-1,2.163000107E0,1.280895042E1
3.654820547E1,-1.960500032E-1,2.611050129E0,1.395795059E1
3.656908860E1,-2.509500086E-1,1.624950051E0,1.441800022E1
3.658997172E1,-7.180500627E-1,-3.730500042E-1,1.535895061E1
3.661085733E1,-1.987050056E0,-1.839000106E0,1.687395096E1
3.663174298E1,-3.016950130E0,-2.818050146E0,1.696800041E1
3.665263194E1,-3.448050261E0,-3.072000027E0,1.545900059E1
3.667352086E1,-2.947050095E0,-2.590950012E0,1.338405037E1
3.669440167E1,-1.507950068E0,-1.657050133E0,1.184400082E1
3.671528248E1,-3.600000218E-2,-7.279500365E-1,1.029300022E1
3.673616846E1,9.300000221E-2,3.000000119E-2,9.139050484E0
3.675705442E1,-1.270500124E-1,4.350000322E-1,7.915050507E0
3.677793861E1,-1.150500029E-1,7.030500174E-1,6.811050415E0
3.679882281E1,5.400000140E-2,9.739500284E-1,5.824950218E0
3.681970446E1,2.550000250E-1,1.360950112E0,5.229000092E0
3.684058612E1,4.399500191E-1,1.785000086E0,4.843050003E0
3.686146676E1,8.760000467E-1,2.203950167E0,4.426949978E0
3.688234742E1,1.138950109E0,2.503050089E0,4.336050034E0
3.690322543E1,1.216050029E0,2.464950085E0,4.575000286E0
3.692410355E1,7.300500274E-1,2.026950121E0,5.145000458E0
3.694498016E1,2.595000155E-2,1.576950073E0,5.608950138E0
3.696585677E1,1.930500120E-1,1.261050105E0,5.869950294E0
3.698673247E1,1.113000035E0,9.060000181E-1,6.150000095E0
3.700760816E1,1.207950115E0,8.080500364E-1,7.644000530E0
3.702848432E1,4.090500176E-1,5.110500455E-1,9.672000885E0
3.704936048E1,4.759500325E-1,-6.780000329E-1,1.156200027E1
3.707023790E1,9.589500427E-1,-1.626000047E0,1.286895084E1
3.709111533E1,1.840500087E-1,-2.281949997E0,1.551900101E1
3.711199684E1,-1.004999995E0,-2.956950188E0,1.818195152E1
3.713287834E1,-9.670500755E-1,-3.256050110E0,1.793505096E1
3.715375802E1,4.110000134E-1,-2.083050013E0,1.454700089E1
3.717463772E1,2.310000181E0,1.620000005E-1,1.196100044E1
3.719552115E1,3.727050066E0,2.013000011E0,1.075005054E1
3.721640453E1,3.378000259E0,2.815050125E0,9.856950760E0
3.723729101E1,1.729950070E0,2.566050053E0,8.587950706E0
3.725817751E1,3.630000055E-1,2.320950031E0,7.101000309E0
3.727906423E1,-2.580000162E-1,2.641950130E0,6.337050438E0
3.729995096E1,-4.039500058E-1,3.315000057E0,6.304050446E0
3.732083253E1,-8.595000207E-2,3.799050093E0,6.076050282E0
3.734171411E1,1.330500096E-1,4.182000160E0,5.635950089E0
3.736259935E1,1.570500135E-1,4.303950310E0,5.650050163E0
3.738348454E1,3.390000165E-1,3.829950094E0,6.852000237E0
3.740436916E1,-1.980000138E-1,3.466050148E0,8.470950127E0
3.742525378E1,-8.020500541E-1,3.022950172E0,9.715950012E0
3.744612956E1,-1.104000092E0,2.440950155E0,1.037205029E1
3.746700525E1,-1.707000136E0,2.037000179E0,1.048395061E1
3.748788774E1,-2.065950155E0,1.857000113E0,1.101600075E1
3.750877024E1,-1.183050036E0,2.262000084E0,1.209300041E1
3.752965253E1,2.170500159E-1,2.025000095E0,1.361100101E1
3.755053481E1,8.089500666E-1,1.210500076E-1,1.609605026E1
3.757142024E1,1.950000064E-3,-1.816950083E0,1.876800156E1
3.759230566E1,-1.750050068E0,-2.827950239E0,1.937700081E1
3.761319426E1,-3.124050140E0,-3.697050095E0,1.656795120E1
3.763408287E1,-3.418950081E0,-2.959050179E0,1.320195103E1
3.765496097E1,-1.774050117E0,-1.609050035E0,1.165005016E1
3.767583909E1,-2.320500165E-1,-4.810500145E-1,1.108995056E1
3.769672142E1,1.480500102E-1,1.159500033E-1,1.021605015E1
3.771760372E1,-1.309500039E-1,3.460500240E-1,8.629050255E0
3.773848639E1,-2.059500068E-1,7.320000529E-1,7.221000195E0
3.775936904E1,1.480500102E-1,1.198950052E0,6.238950253E0
3.778024346E1,8.520000577E-1,1.768050075E0,5.712000370E0
3.780111789E1,1.443000078E0,2.323950052E0,5.466000080E0
3.782199528E1,1.917000055E0,2.680950165E0,5.050950050E0
3.784287266E1,2.061000109E0,3.112050056E0,4.939050198E0
3.786375070E1,2.128050089E0,3.519000053E0,5.386950493E0
3.788462874E1,1.965000153E0,3.520950079E0,5.596950054E0
3.790551721E1,1.381050110E0,3.085050106E0,5.451000214E0
3.792640567E1,9.109500647E-1,2.571000099E0,5.727000237E0
3.794728096E1,9.210000634E-1,2.005050182E0,6.352050304E0
3.796815631E1,7.009500265E-1,1.315950036E0,7.060050488E0
3.798903754E1,1.810500026E-1,5.500500202E-1,8.140049934E0
3.800991877E1,-8.089500666E-1,8.295000345E-2,1.027605057E1
3.803079913E1,-7.129500508E-1,-1.093950033E0,1.183200073E1
3.805167948E1,-1.353000045E0,-1.993950129E0,1.319205093E1
3.807255806E1,-2.992950201E0,-2.775000095E0,1.557405090E1
3.809343664E1,-3.973950148E0,-3.262950182E0,1.757595062E1
3.811431479E1,-3.246000051E0,-3.481050253E0,1.575195122E1
3.813519298E1,-1.221000075E0,-1.990050077E0,1.521000099E1
3.815606929E1,1.408950090E0,-2.130000144E-1,1.337595081E1
3.817694560E1,3.082950115E0,1.414050102E0,1.177905083E1
3.819782435E1,3.124050140E0,1.966950059E0,1.026105022E1
3.821870308E1,1.326000094E0,1.989000082E0,8.977950096E0
3.823957957E1,-2.800500095E-1,1.699050069E0,8.047050476E0
3.826045608E1,-7.249500155E-1,1.713000059E0,7.063050270E0
3.828133408E1,-3.349500299E-1,2.250000000E0,6.165000439E0
3.830221208E1,-5.700000376E-2,2.914950132E0,5.904000282E0
3.832308559E1,-2.939999998E-1,3.358050108E0,5.908950329E0
3.834395914E1,-4.260000288E-1,3.367950201E0,5.551950455E0
3.836483573E1,-2.629500031E-1,3.223950148E0,5.461050034E0
3.838571230E1,-4.399500191E-1,3.235950232E0,6.639000416E0
3.840658537E1,-1.081950068E0,2.865000248E0,7.858050346E0
3.842745845E1,-1.957950115E0,2.367000103E0,8.350950241E0
3.844833370E1,-2.776950121E0,2.344950199E0,8.053950310E0
3.846920897E1,-2.620950222E0,2.719050169E0,7.708950520E0
3.849007855E1,-1.429050088E0,2.745000124E0,8.779050827E0
3.851094810E1,-7.990500331E-1,3.085050106E0,1.022805023E1
3.853182513E1,-5.260500312E-1,2.653950214E0,1.200195026E1
3.855270217E1,-1.321050048E0,1.066950083E0,1.386195087E1
3.857358168E1,-2.698050022E0,-9.550500512E-1,1.537305069E1
3.859446122E1,-4.630050182E0,-1.768950105E0,1.661805153E1
3.861533949E1,-5.020950317E0,-1.984950066E0,1.552905083E1
3.863621780E1,-4.309050083E0,-1.413000107E0,1.315395069E1
3.865709074E1,-2.800950050E0,-9.169500470E-1,1.261500072E1
3.867796366E1,-1.348050117E0,-7.489500642E-1,1.370205021E1
3.869883647E1,-1.111050010E0,-4.000500143E-1,1.335495090E1
3.871970928E1,-1.444050074E0,1.260000020E-1,1.135305023E1
3.874058313E1,-1.041000009E0,4.489500225E-1,8.855999947E0
3.876145698E1,-4.830000103E-1,9.160500169E-1,6.948000431E0
3.878233386E1,-1.069500074E-1,1.515000105E0,5.961000443E0
3.880321074E1,2.629500031E-1,1.996050119E0,5.617050171E0
3.882408262E1,3.700500131E-1,2.238000154E0,5.299950123E0
3.884495450E1,2.050500065E-1,2.395950079E0,5.182950020E0
3.886582570E1,-1.600500047E-1,2.380950212E0,5.350950241E0
3.888669693E1,-3.420000076E-1,2.155950069E0,5.515950203E0
3.890758353E1,-4.120500088E-1,1.846950054E0,6.019050121E0
3.892847014E1,-4.690500200E-1,1.512000084E0,6.643950462E0
3.894934198E1,-1.819500029E-1,1.419000030E0,7.218000412E0
3.897021384E1,-7.395000011E-2,1.179000020E0,8.109000206E0
3.899108832E1,1.140000075E-1,5.380499959E-1,8.953950882E0
3.901196278E1,-5.940000415E-1,1.800000109E-2,9.883050919E0
3.903283584E1,-1.408050060E0,-2.110500038E-1,1.058205032E1
3.905370892E1,-2.299500108E-1,-7.230000496E-1,1.096095085E1
3.907458645E1,-5.100000501E-1,-8.640000224E-1,1.202100086E1
3.909546399E1,-2.337000132E0,-1.627950072E0,1.432905102E1
3.911633534E1,-3.808950186E0,-2.526000023E0,1.618500137E1
3.913720669E1,-3.816000223E0,-3.022050142E0,1.552395058E1
3.915808428E1,-2.128050089E0,-1.996950150E0,1.346700096E1
3.917896181E1,3.660000265E-1,-1.200000048E-1,1.201200104E1
3.919983938E1,2.302950144E0,1.459950089E0,1.138395023E1
3.922071695E1,2.242950201E0,2.049000025E0,1.148700047E1
3.924160075E1,3.990000188E-1,1.609950066E0,1.073295021E1
3.926248455E1,-1.135050058E0,1.206000090E0,9.538050652E0
3.928337071E1,-1.654050112E0,1.174950004E0,8.253000259E0
3.930425686E1,-1.051050067E0,1.831050038E0,7.515000343E0
3.932514454E1,-1.669500023E-1,2.761950016E0,7.146000385E0
3.934603224E1,5.599500537E-1,3.303000212E0,6.732000351E0
3.936691193E1,7.800000310E-1,3.564000130E0,6.640950203E0
3.938779163E1,2.359500080E-1,3.343950272E0,6.967050552E0
3.940866491E1,-3.640500307E-1,2.815050125E0,7.948950291E0
3.942953818E1,-9.790500402E-1,2.367000103E0,9.040050507E0
3.945041855E1,-1.513050079E0,2.257050037E0,9.706050873E0
3.947129885E1,-1.527000070E0,2.386050224E0,9.727950096E0
3.949217203E1,-1.300050020E0,2.685000181E0,9.400050163E0
3.951304523E1,-1.470000029E0,2.412000179E0,9.514050484E0
3.953392483E1,-1.885950089E0,2.506050110E0,1.055100060E1
3.955480440E1,-7.300500274E-1,2.566050053E0,1.058700085E1
3.957568778E1,2.939999998E-1,2.680950165E0,1.195905018E1
3.959657117E1,-6.060000062E-1,1.788000107E0,1.464300060E1
3.961744578E1,-1.245000005E0,1.999500096E-1,1.668300056E1
3.963832036E1,-1.936950088E0,-6.900000572E-1,1.653195000E1
3.965919531E1,-2.284050226E0,-7.330500484E-1,1.437705040E1
3.968007027E1,-1.807050109E0,-1.960500032E-1,1.226805019E1
3.970094946E1,-6.799500585E-1,3.580500185E-1,1.171005058E1
3.972182870E1,3.820500076E-1,7.650000453E-1,1.123395061E1
3.974270282E1,7.150500417E-1,1.048050046E0,9.943050385E0
3.976357694E1,8.590500355E-1,1.552950025E0,8.389050484E0
3.978445217E1,1.198950052E0,1.984050035E0,7.450950146E0
3.980532740E1,1.386000037E0,2.213999987E0,7.033950329E0
3.982620375E1,1.374000072E0,2.317050219E0,6.507000446E0
3.984708010E1,1.146000028E0,2.590050220E0,5.655000210E0
3.986795658E1,9.450000525E-1,2.877000093E0,5.134950161E0
3.988883304E1,5.430000424E-1,2.985000134E0,5.371950150E0
3.990971471E1,4.519500136E-1,3.088050127E0,5.997000217E0
3.993059636E1,3.750000298E-1,3.207000256E0,6.667950153E0
3.995147316E1,4.590000212E-1,3.175950050E0,6.993000507E0
3.997234998E1,2.479500175E-1,3.267000198E0,7.177950382E0
3.999322592E1,4.995000362E-2,3.514050245E0,7.330950260E0
4.001410188E1,4.879500270E-1,3.564000130E0,7.953000546E0
4.003497790E1,1.162950039E0,3.226950169E0,8.944950104E0
4.005585394E1,1.398000121E0,2.743050098E0,1.032405090E1
4.007673102E1,1.006950021E0,2.773950100E0,1.057005024E1
4.009760810E1,1.896000147E0,2.608950138E0,9.607950211E0
4.011848843E1,3.208050251E0,2.626050234E0,1.090095043E1
4.013936874E1,2.749950171E0,2.092050076E0,1.327095032E1
4.016025410E1,2.032050133E0,9.379500151E-1,1.569600105E1
4.018113949E1,9.280500412E-1,-3.795000166E-2,1.494000053E1
4.020201592E1,6.270000339E-1,4.800000191E-1,1.265295029E1
4.022289238E1,2.631000042E0,1.785000086E0,9.913950920E0
4.024377251E1,4.441050053E0,3.784050226E0,8.595000267E0
4.026465266E1,4.563000202E0,4.708950043E0,8.770050049E0
4.028553589E1,3.030000210E0,3.946950197E0,8.788949966E0
4.030641913E1,1.156050086E0,3.034950256E0,8.286000252E0
4.032729922E1,-4.305000231E-2,2.740050077E0,7.588950157E0
4.034817934E1,-3.370500207E-1,3.033000231E0,7.125000477E0
4.036905537E1,7.304999977E-2,3.652950287E0,6.847050190E0
4.038993141E1,3.730500042E-1,4.170000076E0,6.246000290E0
4.041080616E1,4.249500334E-1,4.495950222E0,5.362950325E0
4.043168092E1,3.540000021E-1,4.773000240E0,4.981950283E0
4.045255873E1,2.700000107E-1,4.828050137E0,5.569050312E0
4.047343654E1,3.850500286E-1,4.558050156E0,7.075050354E0
4.049431745E1,6.405000389E-2,4.198950291E0,8.562000275E0
4.051519837E1,-6.010500193E-1,4.021049976E0,9.319950104E0
4.053608087E1,-1.194000006E0,3.916050196E0,9.742050171E0
4.055696337E1,-1.735950112E0,3.940050125E0,9.660000801E0
4.057785244E1,-1.714050055E0,4.195950031E0,9.832950592E0
4.059874151E1,-1.366950035E0,4.824000359E0,9.912000656E0
4.061963379E1,-3.400500119E-1,4.869000435E0,1.033095074E1
4.064052606E1,-3.300000131E-1,4.318050385E0,1.246905041E1
4.066139977E1,-1.084050059E0,2.764050245E0,1.523400116E1
4.068227347E1,-2.466000080E0,9.060000181E-1,1.635704994E1
4.070315272E1,-4.084050179E0,1.450500041E-1,1.474605083E1
4.072403198E1,-4.330950260E0,6.529500484E-1,1.241205025E1
4.074491321E1,-3.088050127E0,1.464000106E0,1.122195053E1
4.076579444E1,-1.396050096E0,1.752000093E0,1.109700012E1
4.078668027E1,-4.450500309E-1,1.843050122E0,1.125300026E1
4.080756612E1,-3.109500110E-1,1.771050096E0,1.053405094E1
4.082845460E1,-3.919500113E-1,1.821000099E0,9.129000664E0
4.084934306E1,-1.870500147E-1,1.912050128E0,7.555950165E0
4.087022166E1,1.549500078E-1,2.365050077E0,6.172050476E0
4.089110024E1,3.750000298E-1,2.875050068E0,5.185950279E0
4.091198520E1,3.300000131E-1,3.279000044E0,4.482000351E0
4.093287016E1,3.495000303E-2,3.660000086E0,4.189949989E0
4.095375248E1,-1.630500108E-1,3.982950211E0,4.407000065E0
4.097463478E1,-3.010500073E-1,4.029000282E0,4.671000004E0
4.099551373E1,-5.530500412E-1,3.883050203E0,4.764000416E0
4.101639266E1,-6.750000119E-1,3.669000149E0,5.013000011E0
4.103727894E1,-7.849500179E-1,3.588000059E0,5.482050419E0
4.105816520E1,-5.980500579E-1,3.439950228E0,6.037950516E0
4.107905273E1,-2.539499998E-1,2.986950159E0,7.410000324E0
4.109994028E1,-5.340000391E-1,2.025000095E0,9.164999962E0
4.112081887E1,-1.000950098E0,7.870500088E-1,1.080300045E1
4.114169749E1,-1.123050094E0,-6.495000422E-2,1.138395023E1
4.116258320E1,-2.869500220E-1,-7.519500256E-1,1.228500080E1
4.118346889E1,-3.010500073E-1,-2.155050039E0,1.496400070E1
4.120435858E1,-8.880000710E-1,-4.176000118E0,1.834905052E1
4.122524827E1,-1.840950131E0,-4.309950352E0,2.046105003E1
4.124613530E1,-1.399950027E0,-3.534000158E0,1.849305153E1
4.126702238E1,7.969500422E-1,-2.272050142E0,1.656795120E1
4.128790965E1,2.496000051E0,-6.850500107E-1,1.240905094E1
4.130879692E1,3.961950302E0,1.768050075E0,9.486000061E0
4.132967287E1,4.519950390E0,3.270000219E0,8.125950813E0
4.135054884E1,3.781950235E0,4.030950069E0,7.281000137E0
4.137142777E1,3.009000063E0,4.129050255E0,6.081000328E0
4.139230669E1,2.343000174E0,4.014000416E0,5.620950222E0
4.141317872E1,1.429050088E0,3.555000067E0,6.007050514E0
4.143405076E1,3.610500097E-1,2.869950056E0,6.736950397E0
4.145493074E1,-4.399500191E-1,2.503050089E0,7.417050362E0
4.147581070E1,-1.024950027E0,2.580000162E0,7.402950287E0
4.149668609E1,-1.252050042E0,2.424000025E0,7.486050129E0
4.151756148E1,-1.386000037E0,2.065050125E0,7.759050369E0
4.153844041E1,-1.341000080E0,2.038950205E0,8.233050346E0
4.155931933E1,-1.273950100E0,1.986000061E0,8.992050171E0
4.158020132E1,-1.561050057E0,1.825950146E0,9.330000877E0
4.160108332E1,-2.250000000E0,1.636950135E0,9.186000824E0
4.162196584E1,-2.758050203E0,1.675050020E0,8.965950012E0
4.164284834E1,-2.674050093E0,1.723050117E0,9.094950676E0
4.166373107E1,-2.574000120E0,1.725000024E0,1.058205032E1
4.168461380E1,-2.932950258E0,1.606050134E0,1.246905041E1
4.170550138E1,-3.796950102E0,6.340500116E-1,1.416195107E1
4.172638895E1,-3.895050287E0,-7.330500484E-1,1.489200115E1
4.174727819E1,-2.719950199E0,-1.816950083E0,1.571100044E1
4.176816742E1,-3.109950066E0,-2.083050013E0,1.689405060E1
4.178904866E1,-3.591000080E0,-2.466000080E0,1.704195023E1
4.180992990E1,-3.322950125E0,-2.832000017E0,1.532505035E1
4.183081637E1,-2.607000113E0,-2.770050049E0,1.302705097E1
4.185170283E1,-1.944000125E0,-1.863000035E0,1.160505009E1
4.187258284E1,-1.369050026E0,-1.113000035E0,9.948000908E0
4.189346284E1,-1.144050002E0,-5.359500051E-1,7.675950527E0
4.191434346E1,-7.009500265E-1,8.295000345E-2,5.631000042E0
4.193522408E1,-2.389500141E-1,9.180000424E-1,4.351950169E0
4.195610235E1,1.669500023E-1,1.807050109E0,4.019999981E0
4.197698062E1,3.540000021E-1,2.436000109E0,4.144050121E0
4.199786750E1,4.009500146E-1,2.721000195E0,3.964050293E0
4.201875442E1,3.679500222E-1,2.800050020E0,3.663000107E0
4.203962951E1,2.869500220E-1,2.926950216E0,3.478050232E0
4.206050464E1,-1.950000064E-3,2.689950228E0,3.487950087E0
4.208138601E1,-3.540000021E-1,1.933950067E0,4.174950123E0
4.210226739E1,6.599999964E-2,1.411950111E0,5.185950279E0
4.212314508E1,6.720000505E-1,1.189050078E0,6.535950184E0
4.214402277E1,2.580000162E-1,8.659500480E-1,8.098950386E0
4.216489795E1,-6.010500193E-1,-2.710500062E-1,9.550050735E0
4.218577314E1,-5.479500294E-1,-1.846050143E0,1.026900005E1
4.220665840E1,-4.549500346E-1,-2.965950251E0,1.090305042E1
4.222754362E1,-6.889500618E-1,-4.092000008E0,1.216995049E1
4.224842349E1,-1.021950006E0,-5.902050495E0,1.360095024E1
4.226930338E1,-2.059050083E0,-7.321950436E0,1.580400085E1
4.229018338E1,-2.587950230E0,-8.353950500E0,1.941195107E1
4.231106339E1,-4.027050018E0,-8.088000298E0,1.896195030E1
4.233193921E1,-2.860950232E0,-6.985950470E0,1.759305000E1
4.235281506E1,3.150000274E-1,-5.179050446E0,1.601295090E1
4.237368902E1,3.016050100E0,-2.502000093E0,1.381500053E1
4.239456302E1,3.627000093E0,-7.695000619E-2,1.071900082E1
4.241544114E1,3.253050089E0,1.141050100E0,9.169950485E0
4.243631926E1,2.314950228E0,1.309050083E0,8.004000664E0
4.245720296E1,9.040500522E-1,1.495050073E0,7.093950272E0
4.247808665E1,-3.730500042E-1,1.833000064E0,6.270000458E0
4.249897219E1,-8.350500464E-1,2.125050068E0,5.607000351E0
4.251985773E1,-8.040000200E-1,2.463000059E0,5.089950085E0
4.254073513E1,-6.250500083E-1,2.695050240E0,4.609050274E0
4.256161252E1,-5.839500427E-1,2.728950024E0,4.407000065E0
4.258249177E1,-7.660500407E-1,2.403000116E0,4.728000164E0
4.260337100E1,-6.490500569E-1,1.960050106E0,5.953950405E0
4.262425397E1,-7.905000448E-2,1.548000097E0,7.740000248E0
4.264513693E1,-4.860000312E-1,8.869500160E-1,9.019050598E0
4.266601982E1,-1.635000110E0,-6.900000572E-2,9.808950424E0
4.268690271E1,-1.726050138E0,-5.700000525E-1,1.155900097E1
4.270778810E1,-1.444050074E0,-8.140500188E-1,1.191795063E1
4.272867349E1,-1.125000000E0,-5.820000172E-1,1.225395012E1
4.274955813E1,-1.669500023E-1,1.279500127E-1,1.218900013E1
4.277044275E1,2.347950220E0,2.980500162E-1,1.235205078E1
4.279132105E1,3.604950190E0,-9.150000215E-1,1.429095078E1
4.281219936E1,2.455950022E0,-2.485050201E0,1.612500000E1
4.283308293E1,-8.040000200E-1,-2.907000065E0,1.711905098E1
4.285396647E1,-2.383949995E0,-3.438000202E0,1.594095039E1
4.287485157E1,-2.107050180E0,-3.804000139E0,1.419300079E1
4.289573664E1,-1.534050107E0,-3.553050280E0,1.269900036E1
4.291661897E1,-1.230000019E0,-2.827950239E0,1.140105057E1
4.293750127E1,-1.399950027E0,-2.107050180E0,1.037895012E1
4.295838117E1,-1.089000106E0,-2.004000187E0,1.063695049E1
4.297926105E1,-1.405050039E0,-2.205000162E0,9.991050720E0
4.300013921E1,-1.900950074E0,-1.960950136E0,8.806050301E0
4.302101737E1,-1.597050071E0,-1.510950089E0,7.587000370E0
4.304190446E1,-5.770500302E-1,-7.279500365E-1,6.622050285E0
4.306279153E1,9.930000305E-1,3.559500277E-1,6.222000122E0
4.308367921E1,2.282999992E0,1.474050045E0,6.538050175E0
4.310456690E1,1.255950093E0,2.166000128E0,6.133950233E0
4.312545583E1,-1.249950051E0,2.428950071E0,4.671000004E0
4.314634475E1,-2.704950094E0,2.170950174E0,3.562050104E0
4.316722706E1,-2.052000046E0,2.302050114E0,2.764950037E0
4.318810937E1,-4.360500276E-1,2.941950083E0,3.619950056E0
4.320898945E1,3.940500319E-1,3.744000196E0,4.876950264E0
4.322986956E1,8.160000443E-1,3.837000132E0,5.815050125E0
4.325074880E1,8.350500464E-1,3.367950201E0,6.916950226E0
4.327162803E1,1.381050110E0,3.193050146E0,8.353050232E0
4.329250929E1,2.841000080E0,3.102000237E0,1.016100025E1
4.331339056E1,3.871050119E0,2.002950191E0,1.268205070E1
4.333427419E1,3.301050186E0,-4.570500255E-1,1.507395077E1
4.335515785E1,6.600000262E-1,-2.515950203E0,1.744005013E1
4.337604075E1,-2.610000134E0,-3.280050039E0,1.826805115E1
4.339692368E1,-4.393050194E0,-2.694000244E0,1.680000114E1
4.341780989E1,-1.936950088E0,-2.061000109E0,1.584705067E1
4.343869608E1,1.390050054E0,-9.390000701E-1,1.503600025E1
