"Time (s)","Acceleration x (m/s^2)","Acceleration y (m/s^2)","Acceleration z (m/s^2)"
1.312177900E-2,-5.922235921E-2,3.680759430E0,8.115258217E0
3.323490400E-2,6.017948985E-1,4.051646709E0,9.320044518E0
5.334808100E-2,9.361918569E-1,4.188037872E0,9.478569031E0
7.346120600E-2,6.382854581E-1,4.243072987E0,8.992227554E0
9.357438300E-2,1.133599758E0,4.065405846E0,8.271389961E0
1.136875080E-1,1.675574064E0,4.452444553E0,8.417949677E0
1.338006850E-1,1.059422255E0,4.581058979E0,8.581260681E0
1.539138620E-1,1.094716311E0,4.319045067E0,8.577073097E0
1.740269870E-1,1.152742267E0,4.604389191E0,8.585447311E0
1.941401120E-1,1.324427366E0,4.671388149E0,8.560921669E0
2.142532890E-1,1.275972724E0,4.542773724E0,8.934800148E0
2.343664140E-1,1.356730461E0,4.274777889E0,9.302696228E0
2.544795910E-1,1.601994753E0,4.017549038E0,9.601799011E0
2.745927160E-1,1.714457393E0,3.957130432E0,9.567103386E0
2.947058930E-1,1.310070395E0,3.932005882E0,8.991629601E0
3.148190180E-1,8.626125455E-1,3.946362734E0,8.276175499E0
3.349321430E-1,7.698906660E-1,3.976871252E0,7.956135273E0
3.550453200E-1,9.421738982E-1,4.016352654E0,8.115856171E0
3.751584450E-1,1.396211982E0,3.915256023E0,8.535198212E0
3.952716220E-1,1.102493048E0,4.152145386E0,8.295317650E0
4.153847470E-1,3.822534084E-1,4.423132420E0,7.857431412E0
4.354978720E-1,2.572284266E-2,4.211966038E0,8.006384850E0
4.556110500E-1,-5.144568533E-2,4.074976921E0,8.389236450E0
4.757241750E-1,9.810572863E-2,4.186243057E0,8.711071014E0
4.958373520E-1,5.150550604E-1,4.318446636E0,8.934800148E0
5.159504770E-1,7.322037220E-1,4.396213531E0,8.964112282E0
5.360636020E-1,6.604190469E-1,4.377070904E0,9.040681839E0
5.561767790E-1,6.783652306E-1,4.332205296E0,9.126823425E0
5.762899040E-1,7.447660565E-1,4.363312244E0,9.145368576E0
5.964030290E-1,8.554341197E-1,4.432703972E0,9.133403778E0
6.165162060E-1,9.343972206E-1,4.462614059E0,9.192625999E0
6.366293310E-1,1.007976532E0,4.491926193E0,9.182456970E0
6.567424560E-1,1.053440213E0,4.529015064E0,8.933005333E0
6.768556330E-1,1.189232826E0,4.679762840E0,8.811569214E0
6.969687580E-1,1.031306505E0,4.813162804E0,8.875576973E0
7.170818830E-1,9.200403094E-1,4.865804672E0,9.340383530E0
7.371950080E-1,6.466603279E-1,4.888536453E0,1.010010433E1
7.573081850E-1,4.510470629E-1,4.766502857E0,1.050748253E1
7.774213100E-1,3.858426511E-1,4.720440865E0,1.025025368E1
7.975344350E-1,3.601198196E-1,4.829912663E0,9.634700775E0
8.176475600E-1,3.110669367E-2,5.297709465E0,8.828917503E0
8.377607370E-1,-2.255235314E-1,5.394618511E0,8.182855606E0
8.578738620E-1,-1.232303679E-1,5.069194794E0,8.499305725E0
8.779869870E-1,-3.708875179E-2,4.669593334E0,9.553344727E0
8.981001120E-1,4.683950245E-1,3.983451605E0,1.097408295E1
9.182132890E-1,6.586244106E-1,3.430111170E0,1.196291637E1
9.383264140E-1,3.517449200E-1,3.145365477E0,1.203589821E1
9.584395390E-1,-1.908276081E-1,2.895913601E0,1.107398319E1
9.785526640E-1,-6.496513486E-1,2.829512835E0,9.546764374E0
9.986657890E-1,-9.182456732E-1,2.987439156E0,8.300702095E0
1.018778966E0,-1.211366415E0,3.334996462E0,7.558328629E0
1.038892091E0,-1.405185103E0,3.580260992E0,7.540382385E0
1.059005216E0,-1.133599758E0,3.555734396E0,8.258229256E0
1.079118341E0,-8.333004713E-1,3.532404423E0,8.916254997E0
1.099231466E0,-3.822534084E-1,3.419343472E0,9.262018204E0
1.119344591E0,2.045863420E-1,3.212364435E0,9.591629982E0
1.139457768E0,3.822534084E-1,3.150151014E0,1.006660461E1
1.159570893E0,1.734796353E-2,3.089732170E0,1.012881851E1
1.179684018E0,-6.227321029E-1,3.130410194E0,9.289535522E0
1.199797143E0,-8.368897438E-1,3.354139090E0,8.336593628E0
1.219910268E0,-5.748756528E-1,3.641875982E0,7.721638680E0
1.240023393E0,-2.333002165E-2,3.857230186E0,7.640881062E0
1.260136518E0,7.866404653E-1,3.941577196E0,7.810771465E0
1.280249695E0,1.003190875E0,4.167698860E0,7.926225185E0
1.300362820E0,2.183450609E-1,4.186841488E0,8.051250458E0
1.320475945E0,-6.179464459E-1,4.178466320E0,8.230711937E0
1.340589070E0,-8.668000102E-1,4.241876125E0,8.262416840E0
1.360702195E0,-4.360919297E-1,4.406980991E0,7.901100159E0
1.380815320E0,1.136590727E-2,4.680959225E0,7.639684677E0
1.400928445E0,1.304088384E-1,4.910670280E0,7.811967850E0
1.421041570E0,4.785645381E-2,4.960919380E0,8.070990562E0
1.441154695E0,-8.075776696E-2,4.972883701E0,8.255238533E0
1.461267820E0,-2.344966233E-1,5.046463013E0,8.362317085E0
1.481380945E0,-2.823530734E-1,5.124229908E0,8.600402832E0
1.501494070E0,1.806581169E-1,5.164309502E0,8.920442581E0
1.521607195E0,6.687939167E-1,5.261816978E0,9.272188187E0
1.541720320E0,9.714859724E-1,5.311468124E0,9.450452805E0
1.561833445E0,7.788637877E-1,5.621338367E0,9.155537605E0
1.581946570E0,8.679963946E-1,5.262415409E0,8.921639442E0
1.602059695E0,1.405185103E0,4.708476543E0,9.374481201E0
1.622172820E0,2.219342947E0,4.503292084E0,9.767501831E0
1.642285945E0,2.967100143E0,3.912265062E0,9.845867157E0
1.662399070E0,2.715853691E0,3.351148129E0,1.001396275E1
1.682512195E0,1.727019787E0,2.973680258E0,1.033460140E1
1.702625320E0,4.666004181E-1,2.660818815E0,1.017129040E1
1.722738445E0,-5.611169338E-1,2.591426849E0,9.433703423E0
1.742851570E0,-8.123632669E-1,2.933002472E0,8.738588333E0
1.762964695E0,-4.582255483E-1,3.507279873E0,8.516056061E0
1.783077820E0,-1.674975902E-1,3.792623997E0,8.491529465E0
1.803190945E0,3.481557071E-1,3.692723513E0,8.526823044E0
1.823304070E0,1.156929731E0,3.492922783E0,8.904291153E0
1.843417143E0,1.704886079E0,3.193820000E0,9.794421196E0
1.863530268E0,1.456630826E0,2.872583628E0,1.055414295E1
1.883643393E0,5.174478889E-1,2.777468920E0,1.037109184E1
1.903756518E0,-3.601198196E-1,2.999403238E0,9.407979965E0
1.923869643E0,-5.156532526E-1,3.348157167E0,8.368897438E0
1.943982768E0,-9.631111473E-2,3.644867182E0,7.626523972E0
1.964095893E0,2.691925466E-1,4.009174347E0,7.162914753E0
1.984209018E0,5.569294691E-1,4.255036831E0,7.068397999E0
2.004322143E0,6.161518097E-1,4.364508629E0,7.470392227E0
2.024435216E0,4.600201547E-1,4.247858524E0,8.170292854E0
2.044548341E0,1.537388563E-1,4.067200184E0,8.761320114E0
2.064661466E0,-2.967100143E-1,4.091726780E0,9.050253868E0
2.084774591E0,-7.298108935E-1,4.344767570E0,9.069396019E0
2.104887716E0,-6.538388133E-1,4.659423828E0,9.074779510E0
2.125000841E0,-4.354937077E-1,4.906482697E0,9.090931892E0
2.145113914E0,-5.587241054E-1,5.170291424E0,9.128020287E0
2.165227039E0,-3.254238665E-1,5.514259815E0,9.151350021E0
2.185340164E0,-1.220339537E-1,5.654838085E0,9.023932457E0
2.205453289E0,2.093719840E-1,5.640480995E0,9.016156197E0
2.225566362E0,-3.349951655E-2,5.882156372E0,8.821739197E0
2.245679487E0,-1.029511929E0,6.282355785E0,8.456833839E0
2.265792612E0,-1.515254974E0,6.030511379E0,9.140582085E0
2.285905737E0,-9.625129104E-1,5.233701229E0,1.087178993E1
2.306018862E0,2.512463741E-2,3.998406649E0,1.338126278E1
2.326131935E0,9.020941257E-1,2.730808735E0,1.508076477E1
2.346245060E0,7.393822074E-1,2.096710920E0,1.438026619E1
2.366358185E0,-3.744767308E-1,2.169093609E0,1.151605701E1
2.386471310E0,-9.828519225E-1,2.646461725E0,8.410771370E0
2.406584383E0,-6.681957245E-1,2.995813847E0,6.932007313E0
2.426697508E0,2.063809484E-1,3.234498024E0,7.564908981E0
2.446810633E0,1.271785259E0,3.248256683E0,8.848658562E0
2.466923706E0,2.030309916E0,3.273381472E0,8.728418350E0
2.487036831E0,2.117648125E0,3.376870871E0,7.546364307E0
2.507149956E0,1.935195327E0,3.354737282E0,6.932007313E0
2.527263029E0,1.782054663E0,3.200400352E0,7.486543655E0
2.547376154E0,1.402792215E0,3.061018467E0,8.387441635E0
2.567489279E0,8.769695163E-1,3.022733212E0,8.827720642E0
2.587602352E0,5.036891699E-1,3.175873756E0,8.538787842E0
2.607715477E0,3.996013701E-1,3.451646566E0,7.966903210E0
2.627828602E0,5.359922647E-1,3.841676712E0,7.705487251E0
2.647941675E0,9.026923180E-1,4.164707661E0,7.600203037E0
2.668054800E0,1.021137118E0,4.427918434E0,7.415357590E0
2.688167925E0,9.068797827E-1,4.627120972E0,7.155138016E0
2.708280997E0,7.142575383E-1,4.694717884E0,7.292725086E0
2.728394122E0,5.347958803E-1,4.601397991E0,8.161917686E0
2.748507247E0,3.948157430E-1,4.540380955E0,9.002396584E0
2.768620320E0,2.955136001E-1,4.615755081E0,9.199805260E0
2.788733445E0,4.091726840E-1,4.743172646E0,8.988039970E0
2.808846518E0,7.627122402E-1,4.887340069E0,9.041878700E0
2.828959643E0,1.222134113E0,5.011168957E0,9.386445045E0
2.849072716E0,1.457229018E0,5.108676434E0,9.605388641E0
2.869185841E0,1.553540111E0,5.162514687E0,9.458230019E0
2.889298966E0,1.167099237E0,5.615356445E0,9.142376900E0
2.909412039E0,8.823533654E-1,5.927021503E0,8.714659691E0
2.929525164E0,1.707278967E0,5.456233978E0,8.782855988E0
2.949638237E0,2.672782898E0,4.993820667E0,1.005105114E1
2.969751362E0,3.311666489E0,4.171886444E0,1.212921810E1
2.989864435E0,3.269193888E0,3.005385160E0,1.461595917E1
3.009977560E0,2.200798512E0,2.076371908E0,1.491207027E1
3.030090633E0,3.990031779E-1,1.997408748E0,1.238824081E1
3.050203758E0,-6.771687865E-1,2.723630428E0,8.958129883E0
3.070316831E0,-6.592226624E-1,3.519842148E0,6.711269379E0
3.090429956E0,2.685943544E-1,4.113262177E0,5.857629776E0
3.110543029E0,1.094118118E0,4.515854359E0,5.831308842E0
3.130656154E0,1.795215130E0,4.586442947E0,6.373282909E0
3.150769227E0,2.009372711E0,4.491926193E0,6.973881721E0
3.170882352E0,1.479362607E0,4.221537113E0,7.390830994E0
3.190995425E0,6.610172391E-1,3.769293785E0,7.712067604E0
3.211108550E0,-1.214357466E-1,3.606581926E0,8.013563156E0
3.231221622E0,-6.221339107E-1,3.762115479E0,8.306085587E0
3.251334747E0,-5.874379873E-1,4.037888050E0,8.075178146E0
3.271447820E0,-1.477568001E-1,4.392025948E0,7.565506935E0
3.291560945E0,5.371887088E-1,4.656432629E0,7.354938507E0
3.311674018E0,9.667003751E-1,4.908875465E0,7.403991699E0
3.331787143E0,9.152546525E-1,5.127220631E0,7.359724045E0
3.351900216E0,5.856433511E-1,5.211567879E0,7.344171047E0
3.372013289E0,3.128615618E-1,5.231906891E0,7.470990658E0
3.392126414E0,1.746760458E-1,5.218147755E0,7.919644833E0
3.412239487E0,3.050848842E-2,5.256433010E0,8.379665375E0
3.432352612E0,-1.615155339E-1,5.446662426E0,8.642276764E0
3.452465685E0,-3.224328458E-1,5.463412285E0,8.933603287E0
3.472578758E0,-4.474578202E-1,5.280361176E0,9.729216576E0
3.492691883E0,-2.859423161E-1,5.488536835E0,1.014257717E1
3.512804956E0,1.208375469E-1,5.549553871E0,1.018624592E1
3.532918029E0,3.367897868E-1,5.577669621E0,9.945169449E0
3.553031154E0,-1.100698411E-1,6.022136211E0,9.292527199E0
3.573144227E0,-5.982056726E-3,5.700301647E0,9.441479683E0
3.593257352E0,1.663011760E-1,5.477170944E0,1.052004433E1
3.613370425E0,9.870393574E-2,5.185246468E0,1.121755219E1
3.633483497E0,5.216353536E-1,4.156332970E0,1.183191013E1
3.653596622E0,6.376872063E-1,3.339782238E0,1.230269718E1
3.673709695E0,-6.281159073E-2,3.142374277E0,1.134138107E1
3.693822768E0,-1.085145116E0,3.688536167E0,8.876773834E0
3.713935893E0,-1.360319614E0,4.073182583E0,6.812964439E0
3.734048966E0,-6.149554253E-1,4.173082829E0,6.250650883E0
3.754162039E0,2.518445849E-1,4.122833252E0,7.332805157E0
3.774275164E0,8.177471161E-1,3.796811342E0,8.767302513E0
3.794388237E0,8.231309652E-1,3.568894863E0,9.247661591E0
3.814501310E0,6.987041831E-1,3.408575773E0,9.001200676E0
3.834614383E0,3.493520916E-1,3.399602890E0,8.788239479E0
3.854727508E0,-3.170489892E-2,3.396611691E0,8.592027664E0
3.874840581E0,-4.319044948E-1,3.584448338E0,8.152944565E0
3.894953654E0,-4.917250574E-1,3.875176191E0,7.487142086E0
3.915066727E0,-3.278166950E-1,4.232305050E0,6.933203697E0
3.935179852E0,-4.606183618E-2,4.472783566E0,6.716653347E0
3.955292925E0,3.385843933E-1,4.509872437E0,7.059424877E0
3.975405997E0,5.395814776E-1,4.488337040E0,7.497311592E0
3.995519070E0,3.625126183E-1,4.561318398E0,7.556533813E0
4.015632195E0,2.572284266E-2,4.691727161E0,7.547560692E0
4.035745268E0,-1.022931710E-1,4.898705959E0,7.871190071E0
4.055858341E0,3.948157281E-2,5.142175674E0,8.254639626E0
4.075971414E0,2.967100143E-1,5.288736343E0,8.443074226E0
4.096084539E0,3.972085714E-1,5.377869129E0,8.376673698E0
4.116197612E0,3.631108403E-1,5.444868088E0,8.240880966E0
4.136310685E0,4.420739710E-1,5.255236626E0,8.414361000E0
4.156423758E0,6.005984545E-1,4.913661480E0,9.202198029E0
4.176536831E0,6.191428304E-1,4.755136967E0,1.025085258E1
4.196649904E0,2.901297510E-1,4.922036171E0,1.084905815E1
4.216763029E0,-5.144568533E-2,5.334199905E0,1.003489971E1
4.236876102E0,1.183250785E0,4.722833633E0,9.721440315E0
4.256989175E0,2.370090723E0,4.267001152E0,1.080239773E1
4.277102247E0,2.583650351E0,4.202394962E0,1.168056393E1
4.297215320E0,2.325225353E0,3.689732552E0,1.123549843E1
4.317328393E0,2.148754835E0,2.935395241E0,1.048415279E1
4.337441518E0,2.044667006E0,2.617748022E0,1.045543861E1
4.357554591E0,1.535593987E0,2.665604353E0,1.003310490E1
4.377667664E0,7.992027402E-1,3.002394199E0,8.742177963E0
4.397780737E0,4.797609448E-1,3.427718401E0,7.204789162E0
4.417893810E0,9.924231768E-1,3.772284985E0,6.392425537E0
4.438006883E0,1.984846354E0,3.796213150E0,7.128218651E0
4.458119956E0,2.503490686E0,3.515654564E0,8.586644173E0
4.478233029E0,2.129612207E0,3.192025423E0,9.711869240E0
4.498346154E0,1.319641709E0,2.915654421E0,1.000199890E1
4.518459227E0,3.475574851E-1,2.836691141E0,9.464211464E0
4.538572300E0,-2.356930375E-1,2.955734253E0,8.528019905E0
4.558685372E0,-1.908276081E-1,3.288934708E0,7.872984886E0
4.578798445E0,5.742774159E-2,3.559323788E0,7.526623726E0
4.598911518E0,1.363908947E-1,3.632902861E0,7.532007694E0
4.619024591E0,2.871387079E-2,3.884149313E0,7.933403492E0
4.639137664E0,-5.563312769E-2,4.199403763E0,8.182855606E0
4.659250737E0,6.580262445E-3,4.228715897E0,8.249256134E0
4.679363810E0,1.142572835E-1,4.110270977E0,8.549555779E0
4.699476883E0,3.589233849E-3,4.077968121E0,8.917451859E0
4.719589956E0,-2.464607358E-1,4.180261135E0,8.885746956E0
4.739703029E0,-4.025924206E-1,4.341776848E0,8.687142372E0
4.759816102E0,-2.338984162E-1,4.604987144E0,8.654839516E0
4.779929175E0,9.332008660E-2,4.862813950E0,8.682356834E0
4.800042247E0,3.972085714E-1,4.980062008E0,8.646464348E0
4.820155320E0,5.706881881E-1,4.880161762E0,9.090332985E0
4.840268393E0,4.366901219E-1,4.652843475E0,9.903892517E0
4.860381466E0,-2.703889608E-1,4.664807796E0,1.044227791E1
4.880494539E0,-1.218544960E0,4.993820667E0,1.037288570E1
4.900607612E0,-1.564307809E0,5.103890896E0,1.024666500E1
4.920720685E0,-5.665007830E-1,4.649852753E0,1.093280697E1
4.940833758E0,1.124626637E0,3.868596077E0,1.308515072E1
4.960946831E0,2.067996979E0,2.851646423E0,1.526860142E1
4.981059904E0,1.504487276E0,1.966302037E0,1.537209129E1
5.001172977E0,-3.146561682E-1,1.639083505E0,1.277587795E1
5.021286050E0,-1.487139225E0,2.086541414E0,9.663414001E0
5.041399122E0,-1.654038668E0,2.594418049E0,7.735995770E0
5.061512195E0,-9.966106415E-1,2.831905603E0,7.253841877E0
5.081625268E0,-2.207378894E-1,3.002992392E0,7.837690353E0
5.101738341E0,2.225325108E-1,3.102892876E0,8.411968231E0
5.121851414E0,5.246263742E-1,3.013161898E0,8.380263329E0
5.141964487E0,8.452646136E-1,2.778067112E0,8.245666504E0
5.162077508E0,9.553344250E-1,2.585444927E0,8.483752251E0
5.182190581E0,6.520441771E-1,2.464607239E0,8.800801277E0
5.202303654E0,4.067798331E-2,2.586043119E0,8.612366676E0
5.222416727E0,-1.010967568E-1,2.876770973E0,8.001000404E0
5.242529800E0,2.949153781E-1,3.221935749E0,7.544569969E0
5.262642872E0,7.908278704E-1,3.567698479E0,7.383054256E0
5.282755945E0,1.136590719E0,3.814757586E0,7.575078487E0
5.302869018E0,1.222732425E0,3.984049797E0,7.802994728E0
5.322982091E0,9.266205430E-1,4.072584152E0,8.084749222E0
5.343095164E0,6.562315822E-1,4.140779495E0,8.394619942E0
5.363208185E0,6.107679605E-1,4.302893162E0,8.655437469E0
5.383321258E0,6.981059909E-1,4.502095699E0,8.726624489E0
5.403434331E0,7.238288522E-1,4.711467743E0,8.594420433E0
5.423547404E0,8.817551732E-1,4.880760193E0,8.501698494E0
5.443660477E0,1.092323542E0,4.944767952E0,8.554341316E0
5.463773550E0,1.285543919E0,4.959722996E0,8.858827591E0
5.483886570E0,1.392024517E0,4.966901779E0,9.071190834E0
5.503999643E0,1.249053478E0,4.844867706E0,9.090931892E0
5.524112716E0,3.840480447E-1,5.204389095E0,8.867800713E0
5.544225789E0,3.828516230E-2,5.180460930E0,8.155936241E0
5.564338862E0,1.156331539E0,4.231108665E0,8.577073097E0
5.584451935E0,2.147558212E0,3.516851187E0,1.058824062E1
5.604564956E0,1.924427629E0,3.074178934E0,1.266700459E1
5.624678029E0,1.189831018E0,2.650051117E0,1.367498112E1
5.644791102E0,3.475574851E-1,2.386242390E0,1.290867996E1
5.664904175E0,-9.690931439E-2,2.547159672E0,1.105364418E1
5.685017247E0,2.560320199E-1,2.850450039E0,9.735796928E0
5.705130268E0,1.018744230E0,2.971287489E0,9.360123634E0
5.725243341E0,1.552941918E0,3.088535786E0,9.468997002E0
5.745356414E0,1.497906923E0,3.072384357E0,9.297312737E0
5.765469487E0,1.028315544E0,2.969492912E0,8.751151085E0
5.785582508E0,6.430711150E-1,2.944368362E0,8.384450912E0
5.805695581E0,4.181457460E-1,2.934198856E0,8.159524918E0
5.825808654E0,2.087737769E-1,2.985644341E0,7.921439171E0
5.845921727E0,-5.024927482E-2,3.162713289E0,7.691130161E0
5.866034747E0,-2.081755698E-1,3.358924866E0,7.392027378E0
5.886147820E0,-2.099701911E-1,3.551547050E0,7.107879639E0
5.906260893E0,-3.649054468E-2,3.739981890E0,7.330412388E0
5.926373966E0,-1.573280841E-1,3.973282099E0,7.603193760E0
5.946486987E0,-1.878365725E-1,4.068396568E0,8.109873772E0
5.966600060E0,4.845465720E-2,4.074976921E0,8.751151085E0
5.986713133E0,1.561316848E-1,4.127619267E0,9.021539688E0
6.006826154E0,2.452643216E-2,4.179064751E0,8.889934540E0
6.026939227E0,-2.733799815E-1,4.280161381E0,8.511270523E0
6.047052300E0,-5.395814776E-1,4.387240410E0,8.352746010E0
6.067165320E0,-5.718846321E-1,4.485944271E0,8.584849358E0
6.087278393E0,-4.725824594E-1,4.506881237E0,9.166305542E0
6.107391466E0,-1.375873089E-1,4.391427994E0,9.817750931E0
6.127504487E0,3.110669367E-2,4.320241451E0,1.043270683E1
6.147617560E0,-1.854437590E-2,4.279563427E0,1.073121166E1
6.167730633E0,-1.040877849E-1,4.630710125E0,1.043809032E1
6.187843654E0,-3.936193287E-1,5.368896008E0,9.589237213E0
6.207956727E0,-1.890329868E-1,5.758327484E0,9.232108116E0
6.228069800E0,8.189435601E-1,5.319842815E0,1.045304585E1
6.248182820E0,1.204187989E0,4.773681164E0,1.219741344E1
6.268295893E0,1.122832060E0,3.902693748E0,1.343928814E1
6.288408966E0,5.030909777E-1,3.003590584E0,1.309472179E1
6.308521987E0,-3.224328458E-1,2.501097918E0,1.129352474E1
6.328635060E0,-9.074779749E-1,2.732603550E0,9.363713264E0
6.348748133E0,-1.098305583E0,3.153740168E0,7.889136314E0
6.368861154E0,-8.237292171E-1,3.394218922E0,6.902096748E0
6.388974227E0,-2.063809484E-1,3.471985579E0,6.830910206E0
6.409087247E0,3.852444589E-1,3.261417150E0,7.892127514E0
6.429200320E0,3.810569942E-1,2.989233732E0,8.878568649E0
6.449313393E0,-2.273181453E-2,2.785843849E0,9.110671997E0
6.469426414E0,-2.865405083E-1,2.744567633E0,8.840881348E0
6.489539487E0,-3.182454109E-1,2.879761934E0,8.553742409E0
6.509652508E0,-2.261217386E-1,3.128017426E0,8.260024071E0
6.529765581E0,-5.682953820E-2,3.438486099E0,7.773682594E0
6.549878654E0,1.615155302E-2,3.703491211E0,7.427919865E0
6.569991675E0,3.349951655E-2,3.926023722E0,7.278966427E0
6.590104747E0,4.666004330E-2,4.047459602E0,7.362715244E0
6.610217768E0,2.033899166E-2,4.088735580E0,7.628318787E0
6.630330841E0,4.666004330E-2,4.167698860E0,7.966304779E0
6.650443862E0,9.152546525E-2,4.409373760E0,8.124829292E0
6.670556935E0,2.536391914E-1,4.703691006E0,7.990232944E0
6.690669956E0,4.522434771E-1,4.853840828E0,8.088338852E0
6.710783029E0,4.037888348E-1,4.970490932E0,8.604590416E0
6.730896102E0,2.368894368E-1,5.065605640E0,9.215357780E0
6.751009122E0,3.278166950E-1,5.200201988E0,9.511469841E0
6.771122195E0,5.521438122E-1,5.288736343E0,9.515059471E0
6.791235216E0,5.473581553E-1,5.294120312E0,9.367900848E0
6.811348289E0,2.769692242E-1,5.270790100E0,9.312865257E0
6.831461310E0,-3.254238665E-1,5.299503803E0,9.578469276E0
6.851574383E0,-8.865407705E-1,5.341976643E0,9.580264091E0
6.871687404E0,1.375873089E-1,4.836492538E0,9.825528145E0
6.891800477E0,1.978266120E0,3.974478483E0,1.140419292E1
6.911913497E0,2.297109842E0,3.379862070E0,1.318146133E1
6.932026570E0,1.143171072E0,2.876172781E0,1.359482193E1
6.952139591E0,2.805584669E-1,2.359323025E0,1.226680565E1
6.972252664E0,5.922235847E-1,2.318047047E0,1.096929741E1
6.992365685E0,1.133599758E0,2.542374134E0,1.001994514E1
7.012478758E0,1.189232826E0,2.844467878E0,8.694320679E0
7.032591779E0,1.188634634E0,3.180061340E0,7.154539585E0
7.052704852E0,1.219741344E0,3.623929977E0,6.049055576E0
7.072817872E0,1.450648785E0,3.795614958E0,5.897111416E0
7.092930945E0,1.607976794E0,3.766302824E0,6.485745907E0
7.113043966E0,1.347757339E0,3.695116282E0,7.118049145E0
7.133156987E0,8.189435601E-1,3.625724554E0,7.336394310E0
7.153270060E0,3.361915946E-1,3.557528973E0,7.656434059E0
7.173383081E0,-6.221338734E-2,3.605385542E0,8.076972961E0
7.193496154E0,-2.697907388E-1,3.693919897E0,8.371888161E0
7.213609175E0,-1.758724600E-1,3.822534084E0,8.311469078E0
7.233722247E0,2.267199457E-1,4.027120590E0,7.997411251E0
7.253835268E0,6.023930907E-1,4.335794449E0,7.687541008E0
7.273948341E0,8.279166222E-1,4.566103935E0,7.472784996E0
7.294061362E0,8.392825127E-1,4.662415028E0,7.731209755E0
7.314174435E0,6.000002623E-1,4.655236244E0,8.323433876E0
7.334287456E0,4.163511395E-1,4.661816597E0,8.910871506E0
7.354400477E0,4.713860750E-1,4.726422787E0,9.326624870E0
7.374513550E0,5.485545993E-1,4.858626366E0,9.457033157E0
7.394626570E0,4.654040039E-1,5.027320385E0,9.295517921E0
7.414739643E0,3.702892959E-1,5.072783947E0,9.214161873E0
7.434852664E0,2.967100143E-1,4.963910580E0,9.742975235E0
7.454965685E0,2.835494876E-1,4.794020176E0,1.048953629E1
7.475078758E0,2.434697002E-1,4.753342152E0,1.114098263E1
7.495191779E0,-8.913264424E-2,5.160121918E0,1.092024422E1
7.515304800E0,3.182454109E-1,5.116453171E0,1.032024384E1
7.535417872E0,1.110269666E0,4.767100811E0,1.098664474E1
7.555530893E0,1.411167145E0,4.341776848E0,1.222373486E1
7.575643966E0,1.449452281E0,3.625724554E0,1.311745358E1
7.595756987E0,1.222732425E0,2.876172781E0,1.334297752E1
7.615870060E0,5.551348329E-1,2.638087034E0,1.205683517E1
7.635983081E0,-1.621137410E-1,3.052045345E0,9.644271851E0
7.656096102E0,-4.336991012E-1,3.527618885E0,7.381259441E0
7.676209175E0,-1.668993831E-1,3.978067636E0,6.162116528E0
7.696322195E0,6.909275651E-1,4.000201225E0,6.772884369E0
7.716435216E0,1.304088354E0,3.627519131E0,8.299505234E0
7.736548289E0,1.124626637E0,3.222533941E0,8.969495773E0
7.756661310E0,6.562315822E-1,2.842075109E0,8.815158844E0
7.776774331E0,2.141576260E-1,2.712264538E0,8.624331474E0
7.796887404E0,6.340979785E-2,2.691925526E0,8.742775917E0
7.817000425E0,4.426721856E-2,2.731407166E0,8.720044136E0
7.837113497E0,-1.028913707E-1,2.993421078E0,8.321041107E0
7.857226518E0,-4.923232496E-1,3.385245800E0,7.961519241E0
7.877339539E0,-7.399803996E-1,3.859024763E0,7.355536938E0
7.897452612E0,-6.221339107E-1,4.379463673E0,6.974479675E0
7.917565633E0,-1.680957973E-1,4.697110653E0,7.089933395E0
7.937678654E0,1.238285750E-1,4.780859470E0,7.440482140E0
7.957791727E0,9.810572863E-2,4.800600529E0,7.747361660E0
7.977904747E0,-1.100698411E-1,4.773082733E0,8.004590034E0
7.998017768E0,-2.422732860E-1,4.717449665E0,8.245068550E0
8.018130841E0,-1.022931710E-1,4.679762840E0,8.504690170E0
8.038243862E0,2.410768867E-1,4.723432064E0,8.751749039E0
8.058356883E0,4.917250574E-1,4.752145767E0,8.733802795E0
8.078469956E0,4.899304509E-1,4.766502857E0,8.624929428E0
8.098582977E0,2.841476798E-1,4.594817638E0,9.050253868E0
8.118695997E0,-1.884347796E-1,4.317250252E0,1.007198906E1
8.138809018E0,-1.253839016E0,4.517649174E0,1.019761181E1
8.158922091E0,-1.515254974E0,4.004986763E0,9.152546883E0
8.179035112E0,-9.511470050E-2,3.696312666E0,9.360123634E0
8.199148185E0,2.149951220E0,3.943969965E0,1.177448177E1
8.219261206E0,3.783650875E0,3.779463291E0,1.374676609E1
8.239374227E0,3.165106058E0,3.699902058E0,1.310967731E1
8.259487300E0,2.009970903E0,3.635295868E0,1.099741268E1
8.279600320E0,1.356730461E0,3.811168194E0,9.068199158E0
8.299713341E0,1.142572761E0,4.515256405E0,7.106683254E0
8.319826362E0,1.751546144E0,5.216353416E0,5.796612740E0
8.339939435E0,2.792423964E0,5.616552830E0,5.420341492E0
8.360052456E0,4.063013077E0,5.436492920E0,6.273382664E0
8.380165477E0,4.872983456E0,4.734797955E0,7.896913052E0
8.400278550E0,4.835296154E0,3.900899172E0,9.385248184E0
8.420391570E0,3.763910055E0,3.255435228E0,1.063370419E1
8.440504591E0,2.179861546E0,2.873780012E0,1.093041420E1
8.460617664E0,9.134600163E-1,3.080160856E0,9.586843491E0
8.480730685E0,7.543373108E-1,3.618546009E0,7.917252064E0
8.500843706E0,1.313061476E0,4.022335052E0,6.759724140E0
8.520956779E0,1.664208174E0,4.351347923E0,6.464210510E0
8.541069800E0,1.752742529E0,4.311268330E0,7.054639339E0
8.561182820E0,1.545165181E0,4.025924206E0,7.802994728E0
8.581295841E0,1.037886858E0,3.950550079E0,7.851449490E0
8.601408914E0,7.268198729E-1,3.981656790E0,7.691130161E0
8.621521935E0,6.496513486E-1,4.083950043E0,8.050651550E0
8.641634956E0,6.526423693E-1,4.158725739E0,8.730812073E0
8.661747977E0,5.407779217E-1,4.276572227E0,8.858229637E0
8.681861050E0,4.049852192E-1,4.423132420E0,8.392227173E0
8.701974070E0,4.426721931E-1,4.460819721E0,8.141578674E0
8.722087091E0,5.635097623E-1,4.371088982E0,8.548358917E0
8.742200164E0,7.094719410E-1,4.271786690E0,9.365508080E0
8.762313185E0,6.532405615E-1,4.269393921E0,1.009113121E1
8.782426206E0,1.728814393E-1,4.493721008E0,1.040339470E1
8.802539227E0,-8.889335990E-1,5.371288776E0,9.323035240E0
8.822652300E0,-1.135394335E0,5.544768333E0,7.759325504E0
8.842765320E0,-9.032905847E-2,4.831707001E0,8.601000786E0
8.862878341E0,1.189831018E0,3.735196114E0,1.098305607E1
8.882991362E0,1.544566989E0,2.690130949E0,1.329691505E1
8.903104435E0,5.288137794E-1,2.066800594E0,1.415414429E1
8.923217456E0,-1.448255897E0,2.310270309E0,1.257248878E1
8.943330477E0,-2.520240545E0,3.126222849E0,9.997811317E0
8.963443497E0,-1.651047587E0,3.498306751E0,8.491529465E0
8.983556570E0,3.296113312E-1,3.390629768E0,8.669795036E0
9.003669591E0,2.025524378E0,2.976671457E0,9.908679008E0
9.023782612E0,2.286940336E0,2.611765862E0,1.081854916E1
9.043895633E0,1.078564763E0,2.210369825E0,1.050748253E1
9.064008706E0,-2.482553422E-1,1.914856315E0,9.389435768E0
9.084121727E0,-1.096511006E0,2.109273195E0,8.607581139E0
9.104234747E0,-1.089930773E0,2.449054003E0,8.318648338E0
9.124347820E0,-5.485545993E-1,2.776272535E0,8.086544037E0
9.144460841E0,1.854437590E-2,3.129213810E0,7.934001446E0
9.164573862E0,5.335994363E-1,3.361915827E0,8.017750740E0
9.184686883E0,9.553344250E-1,3.482155085E0,8.225327492E0
9.204799904E0,9.559326172E-1,3.711866140E0,8.153543472E0
9.224912977E0,5.898307562E-1,3.946362734E0,7.971688747E0
9.245025997E0,2.793620527E-1,4.104289055E0,7.963313580E0
9.265139018E0,1.268195957E-1,4.280759811E0,8.185846329E0
9.285252039E0,5.982056726E-3,4.383052826E0,8.523234367E0
9.305365112E0,-1.064806059E-1,4.467400074E0,8.693124771E0
9.325478133E0,5.324030295E-2,4.554738045E0,8.884550095E0
9.345591154E0,4.229314029E-1,4.556532383E0,9.312267303E0
9.365704175E0,4.743770957E-1,4.462614059E0,9.654440880E0
9.385817247E0,3.966103494E-1,4.280759811E0,1.028375340E1
9.405930268E0,4.151547253E-1,4.075575352E0,1.116072273E1
9.426043289E0,3.948157430E-1,3.997808456E0,1.153579807E1
9.446156310E0,4.271188378E-1,3.972085476E0,1.108893871E1
9.466269383E0,6.173482537E-1,4.107280254E0,1.153579807E1
9.486382404E0,1.190429255E-1,4.717449665E0,1.064925671E1
9.506495425E0,-1.770688742E-1,5.441278458E0,9.112466812E0
9.526608445E0,1.453041553E0,5.268397331E0,9.661619186E0
9.546721518E0,3.720241070E0,4.823930264E0,1.100578785E1
9.566834539E0,4.896911621E0,4.125226021E0,1.168893814E1
9.586947560E0,3.872185230E0,3.241078377E0,1.115713406E1
9.607060581E0,1.865205288E0,2.933600664E0,9.887143135E0
9.627173654E0,5.036891699E-1,3.086741209E0,8.185248375E0
9.647286675E0,-6.879365444E-2,3.591626883E0,6.673582554E0
9.667399695E0,2.386840582E-1,4.150351048E0,5.984449387E0
9.687512716E0,1.336989641E0,4.442275047E0,6.066403389E0
9.707625737E0,2.821736097E0,4.278367043E0,6.814160824E0
9.727738810E0,4.141975880E0,3.867997885E0,7.766504288E0
9.747851831E0,4.136591911E0,3.521636724E0,8.499904633E0
9.767964852E0,2.811566591E0,3.306880951E0,8.420941353E0
9.788077872E0,1.215553880E0,3.209373474E0,7.834699631E0
9.808190945E0,1.202393398E-1,3.321835995E0,7.645068169E0
9.828303966E0,-1.310070455E-1,3.701696634E0,7.893921852E0
9.848416987E0,3.607180119E-1,4.128815651E0,7.996214867E0
9.868530008E0,1.007976532E0,4.506881237E0,7.715656757E0
9.888643029E0,1.545165181E0,4.841876507E0,7.339385033E0
9.908756102E0,1.789233088E0,4.909473896E0,7.272984505E0
9.928869122E0,1.666002750E0,4.779663086E0,7.637291908E0
9.948982143E0,1.374078393E0,4.691727161E0,8.132007599E0
9.969095164E0,1.180259824E0,4.646263599E0,8.585447311E0
9.989208185E0,1.201795220E0,4.582255363E0,8.785846710E0
1.000932126E1,1.048056364E0,4.880161762E0,8.968298912E0
1.002943428E1,4.743770957E-1,4.832305431E0,9.125029564E0
1.004954730E1,-5.000999570E-1,4.703093052E0,8.376075745E0
1.006966032E1,-1.292722464E0,4.580460548E0,7.893921852E0
1.008977339E1,-1.494915962E0,4.588237286E0,8.388637543E0
1.010988641E1,-1.366899967E0,4.658227444E0,9.612566948E0
1.012999944E1,-1.151545882E0,5.150550842E0,1.004746246E1
1.015011246E1,-1.079761267E0,5.931807518E0,9.165108681E0
1.017022548E1,-1.155733347E0,6.259026051E0,8.461619377E0
1.019033855E1,-4.779663086E-1,6.031707764E0,8.935996056E0
1.021045157E1,2.398804724E-1,5.358128071E0,1.037647533E1
1.023056459E1,9.948160052E-1,4.517649174E0,1.207179070E1
1.025067761E1,1.042074203E0,3.959523201E0,1.261196995E1
1.027079063E1,3.140579760E-1,3.604787350E0,1.164646626E1
1.029090371E1,-5.904290080E-1,3.732803345E0,9.585049629E0
1.031101673E1,-1.344766378E0,4.265206337E0,7.685746193E0
1.033112975E1,-2.048854351E0,4.677968502E0,6.455835342E0
1.035124277E1,-2.221735716E0,4.885545731E0,6.543771744E0
1.037135579E1,-1.302293777E0,4.793421745E0,7.680362701E0
1.039146881E1,1.794616925E-3,4.367499352E0,8.867800713E0
1.041158188E1,1.048654556E0,3.745365620E0,1.047398281E1
1.043169490E1,1.156929731E0,3.376272678E0,1.139282703E1
1.045180792E1,1.914258115E-2,3.429512978E0,1.032622623E1
1.047192094E1,-1.102493048E0,3.505485058E0,8.452047348E0
1.049203397E1,-1.323829174E0,3.703491211E0,7.473383427E0
1.051214704E1,-9.188438654E-1,3.992424488E0,7.308876991E0
1.053226006E1,-3.726821244E-1,4.116253376E0,7.560721397E0
1.055237308E1,8.075776696E-2,4.083351612E0,7.913064480E0
1.057248610E1,3.948157430E-1,4.153341770E0,8.169694901E0
1.059259912E1,4.013960063E-1,4.338785648E0,7.881958008E0
1.061271220E1,5.503492057E-2,4.449453831E0,7.427321434E0
1.063282522E1,-3.421736360E-1,4.457230568E0,7.325626373E0
1.065293824E1,-5.772684813E-1,4.579862595E0,7.613363266E0
1.067305126E1,-5.635097623E-1,4.724628448E0,7.697112083E0
1.069316428E1,-4.384847581E-1,4.838885784E0,7.633104324E0
1.071327730E1,-2.787638307E-1,4.905286312E0,7.882555962E0
1.073339037E1,-5.742774159E-2,4.922036171E0,8.447860718E0
1.075350339E1,1.495514158E-2,4.890929699E0,8.802596092E0
1.077361641E1,6.460621208E-2,4.808377266E0,8.955737114E0
1.079372944E1,1.968096644E-1,4.671388149E0,9.285946846E0
1.081384246E1,9.750752151E-2,4.677968502E0,9.958928108E0
1.083395548E1,-6.275177598E-1,5.020740032E0,1.014796066E1
1.085406850E1,-7.304090858E-1,4.920839787E0,9.926026344E0
1.087418157E1,7.094719410E-1,4.387240410E0,1.010907745E1
1.089429459E1,2.523829699E0,4.065405846E0,1.088794136E1
1.091440761E1,3.557528973E0,3.406183004E0,1.184028435E1
1.093452063E1,3.355335474E0,2.581257343E0,1.222552872E1
1.095463365E1,2.355733871E0,2.206182480E0,1.161416245E1
1.097474668E1,1.068395257E0,2.135594130E0,1.022034359E1
1.099485970E1,2.338984162E-1,2.419741869E0,8.962915421E0
1.101497277E1,4.767699242E-1,2.894717216E0,8.469395638E0
1.103508579E1,1.412961721E0,3.256631613E0,8.618349075E0
1.105519881E1,2.267797709E0,3.361317635E0,8.900103569E0
1.107531183E1,2.705085993E0,3.229114056E0,9.018548965E0
1.109542485E1,2.694318295E0,3.011965513E0,9.279964447E0
1.111553787E1,1.918445587E0,2.759522676E0,9.547960281E0
1.113565094E1,7.375875711E-1,2.452643156E0,9.433105469E0
1.115576397E1,-5.162515044E-1,2.383849621E0,8.891130447E0
1.117587699E1,-1.237687469E0,2.568096876E0,8.166105270E0
1.119599001E1,-1.164706469E0,2.844467878E0,7.417151928E0
1.121610303E1,-6.939185858E-1,2.998805046E0,7.071987152E0
1.123621605E1,1.268195957E-1,3.161516905E0,7.235297680E0
1.125632907E1,8.374879360E-1,3.384049416E0,7.452445984E0
1.127644209E1,8.919246197E-1,3.605983734E0,7.386643410E0
1.129655516E1,6.400800347E-1,3.680161238E0,7.606184959E0
1.131666819E1,6.777670383E-1,3.699902058E0,8.240880966E0
1.133678121E1,9.930213690E-1,3.819543123E0,8.858827591E0
1.135689423E1,1.082752228E0,4.010969162E0,9.375079155E0
1.137700725E1,1.001994491E0,4.160520554E0,9.739984512E0
1.139712027E1,9.146564603E-1,4.229313850E0,1.006480980E1
1.141723329E1,1.033699393E0,4.161118507E0,1.040638542E1
1.143734631E1,1.150349498E0,4.098307133E0,1.080000496E1
1.145745933E1,1.089930773E0,4.073182583E0,1.112243748E1
1.147757235E1,6.185446382E-1,4.299304008E0,1.117807102E1
1.149768542E1,-4.666004330E-2,4.745565414E0,1.063310528E1
1.151779844E1,4.965107143E-2,4.539782524E0,1.065224838E1
1.153791147E1,7.405785918E-1,4.156332970E0,1.161595726E1
1.155802449E1,1.167099237E0,3.893720627E0,1.236670589E1
1.157813751E1,1.345364571E0,3.239283562E0,1.274237919E1
1.159825053E1,9.625129104E-1,2.677568436E0,1.230927753E1
1.161836355E1,3.457628787E-1,2.410170555E0,1.104407310E1
1.163847657E1,-2.656033039E-1,2.594418049E0,9.360722542E0
1.165858959E1,-8.045865893E-1,3.032304525E0,7.743772507E0
1.167870266E1,-9.900303483E-1,3.413959742E0,6.819544315E0
1.169881569E1,-5.970092416E-1,3.473780155E0,7.156334400E0
1.171892871E1,4.384847581E-1,3.135195971E0,8.595019341E0
1.173904173E1,1.296311617E0,2.747558594E0,9.705288887E0
1.175915475E1,1.825125456E0,2.309073925E0,1.032622623E1
1.177926777E1,1.380658627E0,2.146361828E0,1.068156052E1
1.179938079E1,2.213360928E-2,2.219342947E0,9.655637741E0
1.181949381E1,-8.793623447E-1,2.365903378E0,8.162516594E0
1.183960683E1,-9.176474810E-1,2.640479803E0,7.054639339E0
1.185971985E1,-5.964110494E-1,2.982055187E0,6.342176437E0
1.187983287E1,1.525424421E-1,3.182454109E0,6.136991978E0
1.189994589E1,9.625129104E-1,3.268595695E0,6.888936520E0
1.192005891E1,1.229312658E0,3.488735437E0,7.877770424E0
1.194017194E1,9.367900491E-1,3.711866140E0,8.294719696E0
1.196028496E1,7.830511928E-1,3.862015724E0,8.332406998E0
1.198039798E1,1.052243710E0,4.061218262E0,8.453244209E0
1.200051105E1,1.353739381E0,4.218546391E0,8.876773834E0
1.202062407E1,1.378864050E0,4.328018188E0,9.348757744E0
1.204073709E1,1.238883972E0,4.319045067E0,9.535996437E0
1.206085011E1,1.042074203E0,4.266402721E0,9.556335449E0
1.208096313E1,8.506484628E-1,4.210171223E0,9.270393372E0
1.210107615E1,6.747759581E-1,4.171288013E0,8.694320679E0
1.212118918E1,5.629115105E-1,4.123431683E0,8.414361000E0
1.214130220E1,9.858429432E-1,4.083351612E0,9.065806389E0
1.216141522E1,1.673779488E0,4.430311203E0,9.822537422E0
1.218152824E1,2.647060156E0,4.131208420E0,1.076949692E1
1.220164126E1,3.391826153E0,3.461217880E0,1.228056431E1
1.222175428E1,2.968296528E0,3.070589542E0,1.293260860E1
1.224186730E1,2.238485575E0,2.499901533E0,1.226381397E1
1.226198032E1,1.996810555E0,1.986042738E0,1.161057377E1
1.228209334E1,1.978864312E0,1.941177368E0,1.127498055E1
1.230220636E1,1.448854089E0,2.292324066E0,1.005464077E1
1.232231938E1,7.998009920E-1,2.617748022E0,8.338987350E0
1.234243240E1,5.742774606E-1,3.013161898E0,6.867401123E0
1.236254542E1,7.441678643E-1,3.471985579E0,6.294320107E0
1.238265844E1,1.468594909E0,3.518645763E0,6.866204739E0
1.240277147E1,2.400599241E0,3.194418192E0,8.159524918E0
1.242288449E1,2.746960402E0,2.760719061E0,9.136395454E0
1.244299751E1,2.472383976E0,2.321038008E0,9.923633575E0
1.246311053E1,1.404586911E0,2.118844509E0,1.042792130E1
1.248322355E1,1.286142170E-1,2.100300074E0,1.006660461E1
1.250333657E1,-6.311069727E-1,2.310868502E0,9.355338097E0
1.252344959E1,-4.474578202E-1,2.606382132E0,8.992227554E0
1.254356261E1,3.391826153E-1,2.988635540E0,8.930612564E0
1.256367563E1,1.071386337E0,3.337987661E0,8.808578491E0
1.258378865E1,1.425524116E0,3.584448338E0,8.435895920E0
1.260390168E1,1.260419369E0,3.751347780E0,8.170292854E0
1.262401470E1,1.070788145E0,3.795614958E0,8.361719131E0
1.264412772E1,9.816554785E-1,3.821337700E0,8.785846710E0
1.266424074E1,7.052844763E-1,3.899104595E0,8.922835350E0
1.268435376E1,3.589234054E-1,4.022335052E0,9.059226990E0
1.270446678E1,1.848455518E-1,4.096512318E0,9.408578873E0
1.272457980E1,1.794617027E-1,4.137788773E0,9.597611427E0
1.274469282E1,3.254238665E-1,4.138386726E0,9.557532310E0
1.276480584E1,4.199403822E-1,4.031308174E0,9.670592308E0
1.278491886E1,2.374876440E-1,3.906881094E0,9.967302322E0
1.280503188E1,-2.033899277E-1,4.057629108E0,1.022453117E1
1.282514490E1,-8.039883971E-1,4.432703972E0,9.884750366E0
1.284525787E1,-7.196413875E-1,4.235894203E0,9.870393753E0
1.286537094E1,2.494517565E-1,3.777668715E0,1.077069283E1
1.288548391E1,6.861419082E-1,3.511467218E0,1.178106213E1
1.290559694E1,5.617151260E-1,2.900699139E0,1.228056431E1
1.292570996E1,3.110669367E-2,2.385644197E0,1.186959648E1
1.294582298E1,-4.731806815E-1,2.193022013E0,1.050449181E1
1.296593600E1,-8.105686903E-1,2.474776745E0,9.134600639E0
1.298604902E1,-1.126421213E0,2.830111027E0,8.008777618E0
1.300616204E1,-1.279561877E0,2.989233732E0,7.387241840E0
1.302627506E1,-1.107876897E0,3.058027267E0,7.618149281E0
1.304638808E1,-6.975077987E-1,3.013161898E0,8.535796165E0
1.306650110E1,-5.497509837E-1,2.944368362E0,9.078369141E0
1.308661412E1,-4.654040039E-1,2.724228621E0,9.123832703E0
1.310672714E1,-2.231307179E-1,2.529811859E0,9.201001167E0
1.312684016E1,-4.426721856E-2,2.583650351E0,9.291330338E0
1.314695313E1,-1.154536903E-1,2.734398127E0,8.986245155E0
1.316706615E1,-2.159522474E-1,3.016152859E0,8.670392990E0
1.318717918E1,-1.256231815E-1,3.296711445E0,8.432307243E0
1.320729220E1,6.819544733E-2,3.399602890E0,8.319246292E0
1.322740522E1,3.224328458E-1,3.518047571E0,8.222934723E0
1.324751824E1,4.576273263E-1,3.778266907E0,8.276175499E0
1.326763126E1,4.043870270E-1,3.891327858E0,8.778069496E0
1.328774428E1,2.596212626E-1,3.902095556E0,8.649456024E0
1.330785730E1,1.220339537E-1,4.037888050E0,7.826324463E0
1.332797027E1,1.603191197E-1,4.286143780E0,7.588837147E0
1.334808329E1,4.839483798E-1,4.436293125E0,7.987840176E0
1.336819631E1,1.016351461E0,4.467400074E0,8.590232849E0
1.338830933E1,1.393221021E0,4.450650215E0,9.090931892E0
1.340842235E1,1.320239902E0,4.370490551E0,9.418149948E0
1.342853537E1,1.048056364E0,4.227519512E0,9.702297211E0
1.344864839E1,8.368897438E-1,4.231706619E0,9.738788605E0
1.346876141E1,5.844469070E-1,4.480560303E0,9.693324089E0
1.348887438E1,5.491527915E-1,4.890331268E0,9.729216576E0
1.350898740E1,1.502692580E0,4.526622295E0,1.015693378E1
1.352910043E1,2.614757061E0,3.867399693E0,1.121515942E1
1.354921345E1,2.591426849E0,3.437289715E0,1.226022530E1
1.356932647E1,1.313659668E0,3.028715372E0,1.213579845E1
1.358943949E1,2.027917206E-1,2.756531715E0,1.125823021E1
1.360955246E1,-1.495514158E-2,2.801995277E0,1.074257755E1
1.362966548E1,3.966103494E-1,2.887538671E0,1.031904793E1
1.364977850E1,9.792626500E-1,3.136392355E0,8.665607452E0
1.366989152E1,1.567298889E0,3.619742393E0,7.353144169E0
1.369000454E1,2.152343988E0,3.814159393E0,7.343572617E0
1.371011751E1,2.556132793E0,3.726821184E0,8.285148621E0
1.373023053E1,2.526222467E0,3.324826956E0,9.303893089E0
1.375034355E1,2.225923300E0,2.823530674E0,1.007139015E1
1.377045657E1,1.783849239E0,2.423331022E0,1.026161957E1
1.379056959E1,1.030708313E0,2.246860504E0,9.687342644E0
1.381068261E1,2.997010350E-1,2.431705952E0,8.417351723E0
1.383079563E1,-9.451649338E-2,2.758326292E0,7.085746288E0
1.385090860E1,-2.135594189E-1,3.145963669E0,6.008975983E0
1.387102162E1,-1.238285750E-1,3.506083488E0,5.413761139E0
1.389113464E1,2.267199457E-1,3.703491211E0,5.427519798E0
1.391124766E1,4.588237405E-1,3.821935892E0,5.883950710E0
1.393136063E1,4.947160780E-1,3.882354736E0,6.228517532E0
1.395147365E1,3.337987661E-1,3.796213150E0,6.522834301E0
1.397158668E1,2.374876440E-1,3.629911900E0,7.129415035E0
1.399169970E1,2.937189937E-1,3.489931822E0,8.164909363E0
1.401181266E1,4.911268353E-1,3.422932863E0,9.483952522E0
1.403192569E1,5.808576941E-1,3.373879910E0,1.076171970E1
1.405203871E1,4.073780477E-1,3.352942705E0,1.145145130E1
1.407215173E1,9.152546525E-2,3.368496180E0,1.149512005E1
1.409226475E1,7.776673418E-3,3.340380430E0,1.131924725E1
1.411237772E1,1.848455518E-1,3.383451223E0,1.120140076E1
1.413249074E1,5.144568682E-1,3.505485058E0,1.096032429E1
1.415260376E1,3.517449200E-1,3.824328899E0,1.026640511E1
1.417271678E1,-1.657029688E-1,4.135993958E0,9.474979401E0
1.419282975E1,5.024927482E-2,3.618546009E0,1.008993530E1
1.421294277E1,7.274180651E-1,2.933002472E0,1.173858929E1
1.423305579E1,8.261220455E-1,2.792423964E0,1.306840134E1
1.425316881E1,7.752745152E-1,2.221137524E0,1.342672634E1
1.427328178E1,4.151547253E-1,1.884347796E0,1.296191978E1
1.429339480E1,7.178467698E-3,1.917249203E0,1.178106213E1
1.431350782E1,-6.281159073E-2,2.129612207E0,1.046680450E1
1.433362079E1,5.288137794E-1,2.341377020E0,1.038425159E1
1.435373381E1,8.213363886E-1,2.621935368E0,1.046441174E1
1.437384683E1,4.642075896E-1,2.772683144E0,9.995418549E0
1.439395985E1,-1.944168359E-1,2.755933523E0,9.775279045E0
1.441407282E1,-7.441678643E-1,2.612364054E0,9.952945709E0
1.443418584E1,-6.047859192E-1,2.366501570E0,1.015334511E1
1.445429886E1,4.187439568E-3,2.258824587E0,1.048833942E1
1.447441183E1,2.709871531E-1,2.194816589E0,1.041416264E1
1.449452485E1,3.170489892E-2,2.187039852E0,9.759127617E0
1.451463787E1,-3.421736360E-1,2.273181438E0,9.134002686E0
1.453475089E1,-6.221339107E-1,2.497508526E0,8.374280930E0
1.455486386E1,-6.083751321E-1,2.699702263E0,7.565506935E0
1.457497688E1,-2.829512656E-1,2.817548752E0,7.113861561E0
1.459508990E1,2.303091735E-1,2.904288530E0,7.205387115E0
1.461520287E1,6.000002623E-1,3.050848961E0,7.451848030E0
1.463531589E1,6.005984545E-1,3.219542980E0,7.543971539E0
1.465542891E1,1.052841991E-1,3.337389469E0,7.361518860E0
1.467554188E1,-2.626122832E-1,3.427718401E0,7.464410305E0
1.469565490E1,-2.931207716E-1,3.466003656E0,7.786244869E0
1.471576793E1,-1.441675574E-1,3.468396425E0,8.221738815E0
1.473588089E1,-5.826523304E-1,3.458226919E0,8.676374435E0
1.475599391E1,-1.239482164E0,3.538386583E0,9.295517921E0
1.477610688E1,-4.462614357E-1,3.737588882E0,9.677771568E0
1.479621990E1,1.222732425E0,4.149752617E0,9.843474388E0
1.481633293E1,2.562114954E0,4.436891556E0,9.996614456E0
1.483644589E1,3.334398270E0,4.513461590E0,1.007677460E1
1.485655891E1,3.059821844E0,4.777868748E0,9.816555023E0
1.487667194E1,2.332403898E0,5.146363258E0,9.101698875E0
1.489678490E1,2.620738983E0,4.695316315E0,8.804390907E0
1.491689792E1,2.907877684E0,4.052245140E0,9.997811317E0
1.493701094E1,2.108076811E0,3.802793503E0,1.082453156E1
1.495712391E1,8.159525394E-1,3.536591768E0,1.014138031E1
1.497723694E1,2.434697002E-1,3.106482029E0,9.475577354E0
1.499734990E1,5.347958803E-1,2.754737139E0,9.890732765E0
1.501746292E1,7.196413875E-1,2.694916487E0,1.039801121E1
1.503757594E1,3.014956415E-1,2.772084951E0,1.001396275E1
1.505768891E1,1.136590727E-2,2.949752092E0,9.046066284E0
1.507780194E1,3.487538993E-1,3.190829039E0,8.667402267E0
1.509791490E1,1.316052437E0,3.116651535E0,8.719446182E0
1.511802793E1,2.417349100E0,2.895913601E0,9.669994354E0
1.513814095E1,2.643470764E0,2.603390932E0,1.045663452E1
1.515825391E1,1.591227055E0,2.408974171E0,1.037827015E1
1.517836694E1,2.973082066E-1,2.504088879E0,8.837890625E0
1.519847990E1,-2.093719840E-1,2.818745136E0,7.381259441E0
1.521859293E1,-1.357926875E-1,3.095714331E0,6.516254425E0
1.523870595E1,1.112662554E-1,3.445664644E0,6.059823513E0
1.525881891E1,5.306084156E-1,3.692723513E0,6.105885029E0
1.527893194E1,9.780662656E-1,3.746562004E0,6.847062111E0
1.529904490E1,9.284151793E-1,3.750151396E0,7.707281590E0
1.531915792E1,4.755735099E-1,3.669991732E0,8.364111900E0
1.533927089E1,9.930214286E-2,3.717848301E0,8.927022934E0
1.535938391E1,-1.674975827E-2,4.024727821E0,9.294919968E0
1.537949688E1,2.392822644E-3,4.491926193E0,9.663414001E0
1.539960990E1,1.860419661E-1,4.621737003E0,1.028076267E1
1.541972292E1,2.315055877E-1,4.476373196E0,1.137428284E1
1.543983589E1,3.110669367E-2,4.346562386E0,1.241456223E1
1.545994891E1,-3.361915946E-1,4.288536549E0,1.245703506E1
1.548006188E1,-4.713860750E-1,4.289732933E0,1.123250771E1
1.550017490E1,-5.443671346E-2,4.379463673E0,9.791430473E0
1.552028787E1,3.942175210E-1,4.433900356E0,9.287740707E0
1.554040089E1,2.602194548E-1,4.566701889E0,9.340981483E0
1.556051386E1,-5.240281820E-1,4.704887390E0,9.188439369E0
1.558062688E1,-7.328019142E-1,4.333401680E0,9.339186668E0
1.560073985E1,-5.796613097E-1,4.042674065E0,9.988240242E0
1.562085287E1,-3.487538993E-1,3.589233875E0,1.055773163E1
1.564096584E1,-1.872383654E-1,3.012563705E0,1.085683441E1
1.566107886E1,1.208375469E-1,2.334796667E0,1.106620693E1
1.568119183E1,2.368894368E-1,1.804188251E0,1.094297600E1
1.570130485E1,-2.356930375E-1,1.700100541E0,1.025982571E1
1.572141782E1,-5.503492355E-1,2.052443504E0,8.588438988E0
1.574153084E1,-8.763712645E-1,2.585444927E0,6.656234264E0
1.576164381E1,-1.095314622E0,3.005385160E0,5.536393166E0
1.578175678E1,-9.074779749E-1,3.193221807E0,6.314659119E0
1.580186980E1,-3.349951804E-1,2.965305567E0,8.554939270E0
1.582198277E1,-3.589233849E-3,2.747558594E0,1.022752190E1
1.584209579E1,2.171486616E-1,2.547757864E0,1.087059307E1
1.586220876E1,1.417747438E-1,2.495713949E0,1.063370419E1
1.588232178E1,-3.852444589E-1,2.595614433E0,9.916455269E0
1.590243475E1,-7.268198729E-1,2.691327333E0,9.352945328E0
1.592254777E1,-6.675975323E-1,2.861217737E0,8.895915985E0
1.594266074E1,-2.709871531E-1,3.034099102E0,8.435297966E0
1.596277371E1,1.238285750E-1,3.174079180E0,8.219944000E0
1.598288673E1,5.054838061E-1,3.263810158E0,8.229515076E0
1.600299970E1,7.531409264E-1,3.342175007E0,8.197212219E0
1.602311272E1,7.555337548E-1,3.439084291E0,8.063812256E0
1.604322568E1,5.916253924E-1,3.501895905E0,7.983054638E0
1.606333871E1,4.444667995E-1,3.586242914E0,7.913064480E0
1.608345168E1,4.564309120E-1,3.652643681E0,7.855636597E0
1.610356464E1,6.299105883E-1,3.690928936E0,8.034500122E0
1.612367766E1,8.691928387E-1,3.755535126E0,8.273782730E0
1.614379063E1,1.033699393E0,3.876372576E0,8.404191017E0
1.616390365E1,1.266401410E0,3.945166349E0,8.626125336E0
1.618401662E1,1.507478237E0,3.951148272E0,9.119047165E0
1.620412959E1,1.633101463E0,3.997210264E0,9.674779892E0
1.622424261E1,1.726421595E0,4.219742775E0,9.873384476E0
1.624435558E1,1.862812400E0,4.366901398E0,9.724431038E0
1.626446855E1,2.261217356E0,4.138386726E0,9.959526062E0
1.628458157E1,2.818745136E0,3.701098442E0,1.100399303E1
1.630469454E1,3.116053343E0,3.230310678E0,1.238584805E1
1.632480751E1,2.706282377E0,2.638087034E0,1.361635685E1
1.634492053E1,2.076970100E0,2.051845312E0,1.409910965E1
1.636503350E1,1.913659930E0,1.666002750E0,1.361874962E1
1.638514652E1,1.977069736E0,1.649851203E0,1.238764286E1
1.640525949E1,1.890928149E0,1.863410592E0,1.106919765E1
1.642537246E1,1.731805444E0,2.084746838E0,9.656833649E0
1.644548548E1,1.726421595E0,2.373680115E0,8.207980156E0
1.646559844E1,2.144567251E0,2.614158630E0,7.432106972E0
1.648571141E1,2.914458036E0,2.549552441E0,7.757531166E0
1.650582444E1,3.469592810E0,2.209173441E0,8.690732002E0
1.652593740E1,3.030509949E0,1.899901152E0,9.323633194E0
1.654605037E1,1.626521230E0,1.717448473E0,9.269196510E0
1.656616339E1,3.613162339E-1,1.793420553E0,8.766703606E0
1.658627636E1,-2.279163599E-1,2.136790514E0,8.105687141E0
1.660638933E1,4.426721856E-2,2.497508526E0,7.378866673E0
1.662650230E1,4.516452849E-1,2.866003275E0,6.640082836E0
1.664661532E1,7.435696125E-1,3.156731367E0,6.393023968E0
1.666672829E1,8.081758618E-1,3.318845034E0,6.684350014E0
1.668684126E1,4.408775866E-1,3.413959742E0,7.012764931E0
1.670695428E1,-1.435693651E-1,3.413959742E0,7.223333359E0
1.672706725E1,-4.953143001E-1,3.429512978E0,7.619345665E0
1.674718022E1,-5.958128572E-1,3.580260992E0,8.094919205E0
1.676729318E1,-4.821537733E-1,3.738785267E0,8.419146538E0
1.678740621E1,-2.620140910E-1,3.839882135E0,8.616554260E0
1.680751918E1,-1.064806059E-1,3.881756544E0,9.047860146E0
1.682763214E1,-1.788634956E-1,3.813561201E0,9.735198975E0
1.684774511E1,-2.901297510E-1,3.635295868E0,1.049013424E1
1.686785813E1,-3.242274821E-1,3.477369547E0,1.121815109E1
1.688797110E1,-4.121637046E-1,3.401397467E0,1.163270760E1
1.690808407E1,-6.975077987E-1,3.703491211E0,1.127677536E1
1.692819704E1,-6.388836503E-1,3.595216036E0,1.057747269E1
1.694831006E1,2.195414752E-1,3.021536827E0,1.122592735E1
1.696842303E1,7.974081635E-1,2.803789854E0,1.245643616E1
1.698853600E1,1.037886858E0,2.377867460E0,1.310788250E1
1.700864897E1,8.404789567E-1,1.894517303E0,1.288535023E1
1.702876199E1,6.161518097E-1,1.636690736E0,1.228953743E1
1.704887496E1,3.583251834E-1,1.814357758E0,1.143111229E1
1.706898793E1,8.973085321E-3,2.166700840E0,1.013061333E1
1.708910089E1,-1.579262912E-1,2.411965132E0,8.903693199E0
1.710921386E1,4.067798331E-2,2.651247501E0,8.325826645E0
1.712932683E1,6.610172391E-1,2.604587555E0,8.867202759E0
1.714943985E1,1.141376376E0,2.328814745E0,9.857233047E0
1.716955282E1,1.167099237E0,2.031506538E0,1.033579731E1
1.718966579E1,8.566305041E-1,1.764706731E0,1.038903809E1
1.720977876E1,2.835494876E-1,1.698904037E0,9.986445427E0
1.722989173E1,-9.092725813E-2,1.934597135E0,9.044271469E0
1.725000475E1,1.375873014E-2,2.399402857E0,8.397012711E0
1.727011772E1,4.630111754E-1,2.753540754E0,7.998608112E0
1.729023068E1,9.140582681E-1,3.074178934E0,7.502695560E0
1.731034365E1,1.229312658E0,3.300898790E0,7.031907558E0
1.733045662E1,1.237687469E0,3.562912941E0,6.863811970E0
1.735056959E1,9.607182741E-1,3.701098442E0,7.039684296E0
1.737068256E1,6.885347366E-1,3.708875179E0,7.039684296E0
1.739079553E1,5.467599630E-1,3.734597921E0,7.012166977E0
1.741090855E1,5.347958803E-1,3.789034605E0,7.164111137E0
1.743102152E1,4.905286431E-1,3.896113396E0,7.558926582E0
1.745113449E1,5.018945336E-1,3.988237143E0,8.162516594E0
1.747124746E1,4.923232496E-1,3.975674868E0,8.455039024E0
1.749136042E1,4.851447940E-1,3.984647989E0,8.384450912E0
1.751147339E1,8.979067206E-1,4.070789337E0,9.342177391E0
1.753158636E1,1.514058471E0,4.079762459E0,1.081615639E1
1.755169933E1,1.278963685E0,4.419543266E0,1.060977554E1
1.757181230E1,1.097707391E0,4.794020176E0,1.016650486E1
1.759192532E1,1.948355794E0,4.435096741E0,1.145922756E1
1.761203829E1,2.992822886E0,3.946362734E0,1.413679600E1
1.763215126E1,3.189632654E0,3.561118364E0,1.450828171E1
1.765226423E1,2.805584431E0,3.169891834E0,1.326939774E1
1.767237720E1,2.976671457E0,2.829512835E0,1.345723438E1
1.769249016E1,3.092723370E0,2.596212626E0,1.380658627E1
1.771260313E1,2.227717876E0,2.379063845E0,1.255095291E1
1.773271610E1,1.677368641E0,2.464607239E0,1.063131142E1
1.775282907E1,1.477568030E0,2.816950560E0,8.822935104E0
1.777294204E1,1.441675663E0,3.311666489E0,7.098906517E0
1.779305501E1,1.902294040E0,3.760919094E0,6.392425537E0
1.781316798E1,2.507678032E0,3.923032761E0,6.370890141E0
1.783328095E1,2.805584431E0,3.824328899E0,6.120840549E0
1.785339391E1,2.799602509E0,3.795016766E0,5.821737289E0
1.787350688E1,2.170888424E0,3.976871252E0,5.971288681E0
1.789361985E1,1.467996716E0,4.023531437E0,6.522236347E0
1.791373282E1,9.326026440E-1,4.043870449E0,6.597012043E0
1.793384579E1,5.473581553E-1,4.213162422E0,6.059225082E0
1.795395876E1,1.998006850E-1,4.492524624E0,5.726622581E0
1.797407173E1,2.159522474E-1,4.730610371E0,6.319444656E0
1.799418470E1,7.322037220E-1,4.757529736E0,7.048657417E0
1.801429766E1,9.367900491E-1,5.001597404E0,7.254439831E0
1.803441063E1,6.502495408E-1,5.274379253E0,6.720242500E0
1.805452360E1,3.637090325E-1,5.350351334E0,6.443273067E0
1.807463657E1,2.584248483E-1,5.450850010E0,7.007380962E0
1.809474954E1,-2.153540403E-2,5.544768333E0,7.527221680E0
1.811486251E1,-3.637090325E-1,5.678168297E0,7.365706444E0
1.813497548E1,-5.958128572E-1,5.874977589E0,6.865008354E0
1.815508844E1,-6.167500615E-1,5.996413708E0,6.905087948E0
1.817520141E1,-4.486542344E-1,5.700900078E0,7.776075363E0
1.819531438E1,-1.100698411E-1,5.494519234E0,9.509675026E0
1.821542735E1,-1.003190875E0,6.111268997E0,9.593423843E0
1.823554032E1,-1.986042738E0,6.720840454E0,8.365307808E0
1.825565329E1,-2.042872429E0,6.721438885E0,7.581060410E0
1.827576621E1,-1.473978758E0,6.555137634E0,8.553144455E0
1.829587918E1,3.595215976E-1,5.815755367E0,1.246720409E1
1.831599214E1,1.685145378E0,4.801796913E0,1.608634758E1
1.833610511E1,1.054636598E0,3.790829182E0,1.671865273E1
1.835621808E1,-6.317051649E-1,3.092723370E0,1.428515148E1
1.837633105E1,-1.835893154E0,3.485744476E0,1.096690464E1
1.839644402E1,-2.583052158E0,4.386641979E0,8.069195747E0
1.841655699E1,-2.518445730E0,5.089533806E0,6.652047157E0
1.843666996E1,-1.924427629E0,5.571089268E0,6.488736629E0
1.845678293E1,-9.936196208E-1,5.523232937E0,7.279564857E0
1.847689584E1,1.728814393E-1,5.071587563E0,8.328817368E0
1.849700881E1,8.590233326E-1,4.552345276E0,9.090931892E0
1.851712178E1,1.023529887E0,4.192225456E0,1.001695347E1
1.853723475E1,4.785645306E-1,4.019343853E0,9.716055870E0
1.855734772E1,-5.162515044E-1,4.041477680E0,8.243872643E0
1.857746069E1,-1.165304661E0,4.173082829E0,7.009773731E0
1.859757365E1,-1.269392371E0,4.512265205E0,6.731009960E0
1.861768657E1,-8.656035662E-1,4.776672363E0,6.778866768E0
1.863779954E1,-3.750749528E-1,4.928616524E0,6.582056999E0
1.865791251E1,4.785645287E-3,5.151747227E0,6.355935097E0
1.867802548E1,4.438686073E-1,5.432305813E0,6.546762943E0
1.869813844E1,5.814558864E-1,5.515456200E0,6.745965004E0
1.871825141E1,5.724828243E-1,5.693123341E0,6.917650223E0
1.873836433E1,4.935196638E-1,5.854638577E0,6.612565517E0
1.875847730E1,3.631108403E-1,6.017949104E0,6.156134605E0
1.877859027E1,3.786641955E-1,6.114858150E0,6.326622963E0
1.879870324E1,5.778666735E-1,6.223731518E0,7.258029461E0
1.881881621E1,8.219345808E-1,6.442076683E0,7.900502205E0
1.883892912E1,9.278169870E-1,6.571289062E0,7.851449490E0
1.885904209E1,1.051047325E0,6.697510719E0,8.103293419E0
1.887915506E1,8.315058947E-1,7.258029461E0,8.105088234E0
1.889926803E1,5.784648657E-1,7.859824181E0,7.338787079E0
1.891938094E1,1.702493310E0,7.567899704E0,7.655237675E0
1.893949391E1,3.196810961E0,6.780063152E0,9.355338097E0
1.895960688E1,3.449851990E0,5.901896954E0,1.115474129E1
1.897971985E1,2.472982168E0,4.788038254E0,1.141017437E1
1.899983277E1,1.374078393E0,3.977469444E0,1.054935646E1
1.901994574E1,5.126622319E-1,3.643670797E0,9.159725189E0
1.904005871E1,-3.667000830E-1,3.856631994E0,7.603193760E0
1.906017168E1,-7.986045480E-1,4.625326157E0,6.242874146E0
1.908028459E1,-9.954141974E-1,5.316852093E0,5.573482037E0
1.910039756E1,-6.765705943E-1,5.366502762E0,6.177071571E0
1.912051053E1,4.791627228E-1,5.111069202E0,7.934001446E0
1.914062350E1,2.184048891E0,5.072185993E0,1.045783138E1
1.916073641E1,3.061018467E0,4.780859470E0,1.173858929E1
1.918084938E1,1.980060697E0,4.485944271E0,1.057627583E1
1.920096235E1,3.517449200E-1,4.507479668E0,8.246863365E0
1.922107527E1,-2.344966233E-1,4.765306473E0,6.867401123E0
1.924118824E1,-1.567298770E-1,5.094917774E0,6.333801746E0
1.926130121E1,9.391828626E-2,5.462215900E0,5.937789440E0
1.928141412E1,5.341976285E-1,5.779862881E0,5.815157413E0
1.930152709E1,1.007976532E0,5.924030781E0,6.449255466E0
1.932164006E1,9.792626500E-1,5.884549141E0,7.110272408E0
1.934175298E1,6.281159520E-1,5.617151260E0,7.563712597E0
1.936186594E1,3.206382394E-1,5.408377171E0,7.856235027E0
1.938197891E1,1.974078640E-2,5.257629395E0,8.335397720E0
1.940209183E1,-3.906283081E-1,5.257629395E0,8.747561455E0
1.942220480E1,-7.399803996E-1,5.357530117E0,8.416155815E0
1.944231777E1,-8.021938205E-1,5.422734261E0,7.973483086E0
1.946243068E1,-7.447660565E-1,5.508277893E0,7.844270706E0
1.948254365E1,-5.150550604E-1,5.434698582E0,7.966903210E0
1.950265662E1,-2.147558331E-1,5.260022163E0,8.306085587E0
1.952276954E1,-1.680957973E-1,5.079962254E0,8.491529465E0
1.954288251E1,-4.917250574E-1,5.072783947E0,8.511270523E0
1.956299542E1,-1.202393413E0,5.526223660E0,8.155936241E0
1.958310839E1,-1.648654819E0,5.630909920E0,7.778468132E0
1.960322131E1,-1.459023595E0,5.039284706E0,8.330612183E0
1.962333428E1,-7.453642488E-1,4.070191383E0,1.085683441E1
1.964344725E1,-2.859423161E-1,3.194418192E0,1.316471195E1
1.966356016E1,-8.901300430E-1,2.993421078E0,1.255334568E1
1.968367313E1,-1.639083505E0,3.161516905E0,1.010728264E1
1.970378605E1,-1.829312921E0,3.259024382E0,8.328219414E0
1.972389902E1,-1.858026743E0,3.407379389E0,8.062017441E0
1.974401194E1,-1.968096614E0,3.707080364E0,8.620741844E0
1.976412490E1,-1.923829436E0,3.683152199E0,9.399007797E0
1.978423787E1,-1.467398524E0,3.427120209E0,1.025145054E1
1.980435079E1,-9.236295223E-1,3.129213810E0,1.096152020E1
1.982446376E1,-6.173482537E-1,2.896511793E0,1.134556866E1
1.984457668E1,-1.076171994E0,2.934797049E0,1.091007519E1
1.986468964E1,-1.881955028E0,3.037090063E0,9.602995872E0
1.988480256E1,-2.330011129E0,3.207578659E0,8.740981102E0
1.990491553E1,-2.231905222E0,3.454039574E0,8.933603287E0
1.992502845E1,-1.895115495E0,3.640679598E0,8.944969177E0
1.994514141E1,-1.534995675E0,3.777668715E0,8.464610100E0
1.996525433E1,-1.124028444E0,3.885345697E0,8.276773453E0
1.998536730E1,-9.176474810E-1,4.036093712E0,8.351549149E0
2.000548022E1,-8.937192559E-1,4.053441525E0,8.361719131E0
2.002559318E1,-1.003190875E0,3.945764542E0,8.492725372E0
2.004570610E1,-1.168295622E0,3.791427374E0,8.883354187E0
2.006581907E1,-1.122832060E0,3.674777269E0,9.608379364E0
2.008593199E1,-9.613165259E-1,3.671786308E0,9.933204651E0
2.010604496E1,-7.004988194E-1,3.761517286E0,9.839884758E0
2.012615787E1,-4.977070987E-1,3.928416491E0,9.531210899E0
2.014627079E1,-3.523431420E-1,4.225126743E0,9.457033157E0
2.016638376E1,1.974078715E-1,4.534399033E0,9.437891006E0
2.018649668E1,1.059422255E0,4.806582451E0,8.992825508E0
2.020660964E1,1.393819213E0,5.035097122E0,8.480761528E0
2.022672256E1,9.032905698E-1,5.129015446E0,8.133204460E0
2.024683553E1,1.830509305E-1,4.966303349E0,8.353941917E0
2.026694844E1,-2.069791555E-1,4.620540619E0,8.998209953E0
2.028706136E1,-5.246263742E-1,4.523631096E0,9.282955170E0
2.030717433E1,-7.112665176E-1,4.899304390E0,9.165108681E0
2.032728725E1,2.213360928E-2,4.899304390E0,9.315258980E0
2.034740022E1,1.440479279E0,4.418945312E0,9.872786522E0
2.036751313E1,1.733001828E0,4.249652863E0,9.963713646E0
2.038762605E1,6.993024349E-1,4.139583111E0,8.900702477E0
2.040773902E1,-5.078766346E-1,4.179064751E0,7.715058327E0
2.042785194E1,-1.207777262E0,4.356133461E0,7.287939548E0
2.044796490E1,-1.570289850E0,4.654638290E0,7.895118237E0
2.046807782E1,-1.732403636E0,4.759922504E0,8.263612747E0
2.048819074E1,-1.219741344E0,4.757529736E0,8.079365730E0
2.050830371E1,1.651047617E-1,4.749154568E0,8.250452042E0
2.052841662E1,1.505085468E0,4.606781960E0,9.251250267E0
2.054852954E1,1.979462504E0,4.332205296E0,1.065105152E1
2.056864251E1,9.625129104E-1,3.991826296E0,1.165065384E1
2.058875543E1,-8.709874153E-1,3.808177233E0,1.082871914E1
2.060886834E1,-1.995614052E0,3.919443607E0,9.357132912E0
2.062898131E1,-1.865803480E0,4.081557274E0,8.429914474E0
2.064909423E1,-1.012762189E0,4.388436794E0,8.035098076E0
2.066920714E1,-8.973085321E-3,4.613361835E0,8.030312538E0
2.068932006E1,5.976074338E-1,4.629513741E0,8.266005516E0
2.070943303E1,7.429714203E-1,4.567898273E0,8.527421951E0
2.072954594E1,5.006981492E-1,4.369892120E0,8.763114929E0
2.074965886E1,1.740778536E-1,4.196412563E0,9.096315384E0
2.076977183E1,4.666004330E-2,4.226323128E0,9.281160355E0
2.078988475E1,1.800599098E-1,4.368695736E0,8.916853905E0
2.080999766E1,3.918247223E-1,4.509872437E0,8.473583221E0
2.083011058E1,5.138586760E-1,4.654039860E0,8.387441635E0
2.085022355E1,6.957131624E-1,4.730011940E0,8.518448830E0
2.087033647E1,7.752745152E-1,4.855037212E0,8.493324280E0
2.089044938E1,6.885347366E-1,4.914857864E0,8.350951195E0
2.091056230E1,5.509474277E-1,4.974080086E0,8.344968796E0
2.093067527E1,5.461617708E-1,5.090131760E0,8.604590416E0
2.095078818E1,6.293123364E-1,5.189434052E0,8.749954224E0
2.097090110E1,6.861419082E-1,5.333003521E0,9.078369141E0
2.099101402E1,9.230313301E-1,5.324030399E0,9.526425362E0
2.101112699E1,3.918247223E-1,5.590231895E0,8.528019905E0
2.103123990E1,-5.515456200E-1,6.333203316E0,7.109076023E0
2.105135282E1,-1.424925923E0,6.981658459E0,6.165107727E0
2.107146574E1,-1.247258782E0,6.660421848E0,6.253043652E0
2.109157865E1,-8.697910309E-1,6.440880299E0,7.199405193E0
2.111169162E1,-5.958128572E-1,6.288936138E0,8.502895355E0
2.113180454E1,-4.241278172E-1,5.752345562E0,9.596415520E0
2.115191746E1,-2.315055877E-1,5.257629395E0,1.000738239E1
2.117203037E1,-3.487538993E-1,4.942973614E0,9.342177391E0
2.119214329E1,-8.769695163E-1,4.727021217E0,8.547162056E0
2.121225621E1,-1.692921996E0,4.601995945E0,7.775477409E0
2.123236918E1,-2.507079840E0,4.736592293E0,7.303493023E0
2.125248209E1,-2.977269650E0,4.786243439E0,7.140182972E0
2.127259501E1,-2.933600664E0,4.587040901E0,7.717451096E0
2.129270793E1,-2.349153519E0,4.322035789E0,8.545966148E0
2.131282084E1,-1.510469317E0,4.031906128E0,8.964710236E0
2.133293376E1,-6.693921089E-1,3.832703590E0,9.294321060E0
2.135304668E1,-2.560320199E-1,3.918845177E0,9.748359680E0
2.137315964E1,-7.477570772E-1,4.167698860E0,9.013164520E0
2.139327256E1,-1.283749342E0,4.315455437E0,7.722237110E0
2.141338548E1,-1.396810174E0,4.563711166E0,6.982854843E0
2.143349839E1,-1.211964726E0,4.859822750E0,7.036693096E0
2.145361131E1,-8.285148144E-1,4.959722996E0,7.621738434E0
2.147372423E1,-3.667000830E-1,5.006981373E0,8.398209572E0
2.149383714E1,-1.417747438E-1,5.137390137E0,8.609973907E0
2.151395006E1,-4.905286431E-2,5.143970490E0,8.414361000E0
2.153406298E1,1.435693651E-1,5.164309502E0,8.498707771E0
2.155417589E1,5.066801906E-1,5.240281582E0,8.806783676E0
2.157428881E1,8.051848412E-1,5.298905849E0,8.857631683E0
2.159440178E1,9.014959335E-1,5.471189022E0,8.752346992E0
2.161451470E1,9.032905698E-1,5.708676815E0,8.599804878E0
2.163462761E1,9.296116233E-1,5.979663849E0,8.554939270E0
2.165474053E1,1.021735311E0,6.122036934E0,8.801998138E0
2.167485344E1,1.057627559E0,6.101099491E0,9.096315384E0
2.169496636E1,6.598208547E-1,6.301498413E0,8.980263710E0
2.171507928E1,-2.991028363E-3,7.189235687E0,8.557929993E0
2.173519220E1,8.991031051E-1,7.007380962E0,8.812766075E0
2.175530511E1,2.442473650E0,6.352943897E0,9.906884193E0
2.177541803E1,2.879163742E0,6.080760479E0,1.035613632E1
2.179553095E1,1.808973908E0,5.995217323E0,9.566504478E0
2.181564386E1,6.334998012E-1,5.662614822E0,8.958129883E0
2.183575678E1,1.698904037E-1,5.170291424E0,9.214759827E0
2.185586970E1,-2.572284266E-2,4.852046013E0,9.291928291E0
2.187598261E1,-1.944168359E-1,4.884349346E0,8.723034859E0
2.189609553E1,3.170489892E-2,5.005784988E0,8.209774017E0
2.191620845E1,6.825526357E-1,5.093721390E0,8.217551231E0
2.193632136E1,1.404586911E0,4.969294548E0,8.175676346E0
2.195643428E1,1.613360643E0,4.919044971E0,7.650452137E0
2.197654720E1,1.358525038E0,4.934000492E0,7.067201614E0
2.199666011E1,9.302098155E-1,4.874777794E0,6.821937561E0
2.201677303E1,4.396811724E-1,4.897509575E0,6.564708710E0
2.203688594E1,9.511470050E-2,5.029713154E0,6.263213158E0
2.205699881E1,5.383851007E-2,5.324030399E0,6.347560406E0
2.207711173E1,1.298106313E-1,5.594419479E0,6.522236347E0
2.209722464E1,2.697907388E-1,5.703292847E0,6.416353703E0
2.211733756E1,6.550351977E-1,5.734399319E0,6.550950050E0
2.213745048E1,8.027920127E-1,5.791228771E0,6.896713257E0
2.215756339E1,7.573283911E-1,5.749354839E0,7.079763889E0
2.217767631E1,5.796613097E-1,5.759523869E0,7.041478634E0
2.219778923E1,4.791627228E-1,5.870790482E0,7.097112179E0
2.221790214E1,5.377869010E-1,6.003592014E0,7.293323517E0
2.223801506E1,5.802595019E-1,6.115456581E0,7.183253765E0
2.225812798E1,3.445664644E-1,6.296712875E0,6.570691109E0
2.227824089E1,1.555334777E-1,6.548557281E0,6.254240036E0
2.229835376E1,9.870393574E-2,6.802794933E0,6.564110756E0
2.231846668E1,1.262213886E-1,6.871588230E0,7.222136974E0
2.233857959E1,4.725824669E-2,6.856035233E0,7.731808186E0
2.235869251E1,1.860419661E-1,6.816553593E0,8.508278847E0
2.237880543E1,4.187439755E-2,6.960721016E0,8.949754715E0
2.239891834E1,-8.033902049E-1,7.698308468E0,8.108677864E0
2.241903126E1,-1.471585870E0,7.834101200E0,7.142575741E0
2.243914412E1,-1.031306505E0,7.339385033E0,8.044670105E0
2.245925704E1,-9.631111473E-2,6.708876610E0,1.047517967E1
2.247936996E1,-1.136590727E-2,6.162116528E0,1.179302597E1
2.249948287E1,-4.468596280E-1,5.513661385E0,1.142273712E1
2.251959579E1,-8.183453679E-1,4.992026329E0,1.035553837E1
2.253970865E1,-1.047458172E0,4.998008251E0,9.414560318E0
2.255982157E1,-1.533799291E0,5.232504845E0,8.435297966E0
2.257993449E1,-1.907079697E0,5.203791142E0,7.804789066E0
2.260004740E1,-1.981257200E0,5.215157032E0,7.932207108E0
2.262016032E1,-1.576870084E0,5.199603558E0,8.509475708E0
2.264027318E1,-9.230313301E-1,5.030311584E0,8.635697365E0
2.266038610E1,-3.026920557E-1,4.914857864E0,8.417949677E0
2.268049902E1,2.171486616E-1,4.852046013E0,8.390432358E0
2.270061194E1,3.517449200E-1,4.795216560E0,8.249256134E0
2.272072480E1,-3.649054468E-2,4.771288395E0,7.752745152E0
2.274083772E1,-4.438686073E-1,4.867001057E0,7.033103943E0
2.276095063E1,-5.754738450E-1,5.143372059E0,6.512066841E0
2.278106355E1,-4.725824594E-1,5.465207100E0,6.162116528E0
2.280117641E1,-2.542374134E-1,5.614160061E0,5.902495384E0
2.282128933E1,1.579262912E-1,5.676971912E0,5.987440586E0
2.284140225E1,5.772684813E-1,5.730810165E0,6.382854462E0
2.286151516E1,5.742774606E-1,5.782854080E0,6.437889099E0
2.288162803E1,3.690928817E-1,5.761318684E0,6.165705681E0
2.290174094E1,1.585244983E-1,5.792425632E0,5.961717606E0
2.292185386E1,5.922235921E-2,5.912664890E0,6.031707764E0
2.294196673E1,9.990034252E-2,6.025127411E0,6.733402729E0
2.296207964E1,9.272187948E-2,6.032904148E0,7.278368473E0
2.298219256E1,9.391828626E-2,6.126822472E0,7.503891945E0
2.300230543E1,2.327020019E-1,6.216553211E0,7.606184959E0
2.302241834E1,5.168496966E-1,6.319444656E0,8.100900650E0
2.304253126E1,7.680960894E-1,6.412764549E0,8.666205406E0
2.306264412E1,8.249256015E-1,6.604788780E0,8.900702477E0
2.308275704E1,5.814558864E-1,7.344769001E0,8.939585686E0
2.310286996E1,6.951149702E-1,7.573283672E0,8.992227554E0
2.312298282E1,1.649253011E0,6.983452797E0,1.008215809E1
2.314309574E1,2.034497499E0,6.940382004E0,1.137189007E1
2.316320865E1,2.081755638E0,6.387639999E0,1.179601765E1
2.318332152E1,2.422732830E0,5.397011280E0,1.212323570E1
2.320343444E1,2.770888567E0,4.600201607E0,1.212622738E1
2.322354735E1,2.404786825E0,4.311866283E0,1.045184898E1
2.324366022E1,1.268195987E0,4.483551502E0,8.023134232E0
2.326377313E1,4.414757788E-1,4.791627407E0,6.296712875E0
2.328388600E1,6.161518395E-2,5.341976643E0,5.703890800E0
2.330399891E1,6.161518097E-1,5.590231895E0,5.891129494E0
2.332411183E1,1.993221283E0,5.412564754E0,6.402595043E0
2.334422470E1,3.116651535E0,5.289334297E0,6.945167542E0
2.336433761E1,3.537788391E0,4.939383984E0,7.835896015E0
2.338445048E1,2.748754978E0,4.571487427E0,8.737990379E0
2.340456339E1,1.156331539E0,4.314857483E0,8.051250458E0
2.342467626E1,-1.202393398E-1,4.429114819E0,6.809374809E0
2.344478918E1,-4.594219327E-1,4.685744762E0,6.262016773E0
2.346490209E1,-2.392822653E-1,5.180460930E0,6.343372822E0
2.348501496E1,3.337987661E-1,5.570491314E0,6.495915413E0
2.350512787E1,9.056833982E-1,5.748157978E0,6.396014690E0
2.352524074E1,1.340578914E0,5.886941910E0,6.359524250E0
2.354535365E1,1.384247899E0,5.963512421E0,6.489335060E0
2.356546652E1,1.167697430E0,5.896512985E0,7.067201614E0
2.358557944E1,9.080761671E-1,5.849853039E0,7.967501163E0
2.360569230E1,6.107679605E-1,5.857629776E0,8.589634895E0
2.362580522E1,3.020938635E-1,5.989234924E0,8.489136696E0
2.364591808E1,1.447657645E-1,6.229115486E0,7.840083599E0
2.366603100E1,3.122633696E-1,6.462415695E0,7.331608772E0
2.368614386E1,6.370890141E-1,6.644868374E0,7.427321434E0
2.370625678E1,8.410771489E-1,6.650850773E0,7.936394691E0
2.372636964E1,7.956135273E-1,6.555736065E0,8.578866959E0
2.374648256E1,5.485545993E-1,6.521039963E0,9.100502968E0
2.376659543E1,-1.710868180E-1,6.996015072E0,9.054440498E0
2.378670834E1,-5.910272002E-1,7.121638298E0,8.447860718E0
2.380682121E1,4.845465720E-2,6.838088989E0,8.452047348E0
2.382693407E1,7.411768436E-1,6.710670948E0,9.096315384E0
2.384704699E1,1.059422255E0,6.122036934E0,9.982257843E0
2.386715985E1,8.392825127E-1,5.306084156E0,1.094716358E1
2.388727277E1,2.470589429E-1,4.622933388E0,1.124088287E1
2.390738563E1,-5.868397355E-1,4.374079704E0,1.031007481E1
2.392749855E1,-1.414158225E0,4.782654285E0,8.813364029E0
2.394761141E1,-2.062014818E0,5.134399414E0,7.585845947E0
2.396772428E1,-1.929213285E0,5.180460930E0,7.435098171E0
2.398783720E1,-1.049850941E0,5.118845940E0,7.955537319E0
2.400795006E1,-1.220339537E-1,5.040481091E0,8.264809608E0
2.402806298E1,4.881358147E-1,4.758127689E0,8.334799767E0
2.404817584E1,4.971089065E-1,4.453042984E0,8.568697929E0
2.406828871E1,-2.895315289E-1,4.316651821E0,8.391031265E0
2.408840162E1,-1.046261668E0,4.319045067E0,7.843074322E0
2.410851449E1,-1.266999602E0,4.532006264E0,7.376473904E0
2.412862735E1,-1.012163997E0,4.806582451E0,6.899106026E0
2.414874027E1,-3.690928817E-1,4.970490932E0,6.548557281E0
2.416885313E1,3.391826153E-1,5.145166874E0,6.546762943E0
2.418896605E1,7.256234884E-1,5.408975601E0,6.528816700E0
2.420907891E1,6.987041831E-1,5.539982796E0,6.346961975E0
2.422919178E1,3.397808075E-1,5.630909920E0,6.126822472E0
2.424930470E1,1.794617064E-2,5.662016392E0,6.364908218E0
2.426941756E1,-1.447657645E-1,5.822933674E0,6.943373203E0
2.428953043E1,-1.501496136E-1,6.049654007E0,7.422535896E0
2.430964329E1,2.991028316E-2,6.222535133E0,7.742575645E0
2.432975621E1,3.104687333E-1,6.426523209E0,7.983652592E0
2.434986907E1,7.010970116E-1,6.558726788E0,8.216953278E0
2.436998194E1,1.070788145E0,6.615556240E0,8.618349075E0
2.439009485E1,1.227517962E0,6.661019802E0,9.101100922E0
2.441020772E1,1.010967612E0,6.723831654E0,9.304491043E0
2.443032058E1,3.690928817E-1,7.328617573E0,9.132805824E0
2.445043344E1,7.064808607E-1,7.339385033E0,9.301499367E0
2.447054636E1,2.215753794E0,6.524629116E0,1.072642612E1
2.449065923E1,3.034099102E0,6.124429703E0,1.216750336E1
2.451077209E1,2.601596355E0,5.630311489E0,1.186600780E1
2.453088501E1,1.674975872E0,5.039882660E0,1.030050373E1
2.455099787E1,1.543370605E0,4.550550461E0,9.393025398E0
2.457111074E1,1.654636860E0,4.214957237E0,8.930612564E0
2.459122360E1,1.259222865E0,4.408775806E0,8.180462837E0
2.461133647E1,6.418746710E-1,4.908875465E0,7.095317364E0
2.463144938E1,9.631111473E-2,5.361119270E0,6.193223000E0
2.465156225E1,4.510470629E-1,5.493322372E0,6.155536175E0
2.467167511E1,1.763510346E0,5.240880013E0,6.947560310E0
2.469178798E1,2.999403238E0,5.000401020E0,7.749155998E0
2.471190084E1,3.161516905E0,4.758726120E0,8.151748657E0
2.473201376E1,1.952543259E0,4.578067780E0,7.807780266E0
2.475212662E1,4.797609448E-1,4.583451748E0,6.723233223E0
2.477223949E1,-3.553341627E-1,4.853840828E0,5.946762562E0
2.479235235E1,-4.235295951E-1,5.185844898E0,5.661418438E0
2.481246527E1,-6.460621208E-2,5.542375565E0,5.763113499E0
2.483257813E1,6.358926296E-1,5.702694416E0,6.214758396E0
2.485269100E1,1.149751306E0,5.722435474E0,6.576673031E0
2.487280386E1,1.208375454E0,5.669195175E0,6.763313293E0
2.489291673E1,8.937192559E-1,5.597410202E0,6.872186661E0
2.491302959E1,5.886343718E-1,5.526223660E0,7.245467186E0
2.493314246E1,3.942175210E-1,5.612963676E0,7.640881062E0
2.495325537E1,2.159522474E-1,5.776872158E0,7.569096088E0
2.497336824E1,2.356930375E-1,5.936593056E0,7.128218651E0
2.499348110E1,4.307080805E-1,6.150750637E0,6.836294174E0
2.501359397E1,5.461617708E-1,6.341578007E0,7.170093060E0
2.503370683E1,5.150550604E-1,6.378666878E0,7.963313580E0
2.505381970E1,3.876372576E-1,6.372684956E0,8.657232285E0
2.507393256E1,1.423729509E-1,6.269195557E0,9.432506561E0
2.509404542E1,1.842473447E-1,6.187839508E0,1.046321487E1
2.511415829E1,-1.034895778E-1,7.196413994E0,1.017966557E1
2.513427115E1,-2.536391914E-1,7.686344624E0,8.961718559E0
2.515438407E1,8.985049129E-1,6.948158741E0,9.328418732E0
2.517449694E1,1.640878081E0,6.511468410E0,1.094118118E1
2.519460980E1,1.805384636E0,5.444868088E0,1.178943729E1
2.521472266E1,9.900303483E-1,4.669593334E0,1.090828037E1
2.523483553E1,4.618147612E-1,4.351946354E0,9.378069878E0
2.525494839E1,2.524427772E-1,4.389034748E0,8.241478920E0
2.527506126E1,-3.996013701E-1,4.802993298E0,7.125825882E0
2.529517412E1,-1.018146038E0,5.133202553E0,6.613761902E0
2.531528699E1,-8.973084688E-1,5.209175110E0,7.441080093E0
2.533539985E1,-3.589233849E-3,5.076373100E0,9.071788788E0
2.535551272E1,9.684949517E-1,4.983053207E0,9.525827408E0
2.537562558E1,1.780260086E0,4.832903385E0,9.421140671E0
2.539573845E1,1.871785522E0,4.673182487E0,9.392427444E0
2.541585131E1,7.830511928E-1,4.573282242E0,8.845068932E0
2.543596418E1,-3.038884699E-1,4.558327198E0,7.802994728E0
2.545607704E1,-8.913264275E-1,4.744369030E0,7.080362320E0
2.547618990E1,-7.932206988E-1,4.942375183E0,6.642475605E0
2.549630277E1,-7.896314561E-2,5.079364300E0,6.741777897E0
2.551641563E1,9.523434043E-1,5.160121918E0,7.133004189E0
2.553652850E1,1.521237016E0,5.297709465E0,7.197610378E0
2.555664136E1,1.378265858E0,5.391029358E0,7.095317364E0
2.557675423E1,7.525427341E-1,5.470590591E0,6.891927242E0
2.559686709E1,2.500499785E-1,5.595615864E0,6.873383045E0
2.561697996E1,1.938186288E-1,5.797809124E0,7.097112179E0
2.563709282E1,3.936193287E-1,6.047261238E0,7.479365349E0
2.565720568E1,6.723831892E-1,6.200999737E0,7.785048485E0
2.567731855E1,7.615157962E-1,6.290730953E0,7.749155998E0
2.569743136E1,8.877372146E-1,6.410371780E0,7.714460373E0
2.571754423E1,1.078564763E0,6.518048763E0,7.859225750E0
2.573765709E1,1.017547846E0,6.740581512E0,7.893921852E0
2.575776996E1,7.812566161E-1,6.939784050E0,7.798209190E0
2.577788282E1,3.320041299E-1,7.549355507E0,7.725227833E0
2.579799568E1,1.405783296E-1,7.773682594E0,7.607979774E0
2.581810855E1,1.765304923E0,6.765107632E0,8.837292671E0
2.583822141E1,3.383451223E0,6.390631199E0,1.077009487E1
2.585833428E1,3.272184849E0,6.199205399E0,1.139880848E1
2.587844714E1,2.119442701E0,5.584847927E0,1.030169964E1
2.589855996E1,1.843071699E0,4.995017052E0,9.296115875E0
2.591867282E1,2.562114954E0,4.769493580E0,9.026325226E0
2.593878569E1,2.968894720E0,4.880161762E0,8.582456589E0
2.595889855E1,2.733201742E0,5.169693470E0,7.738388538E0
2.597901141E1,2.289333105E0,5.302495003E0,6.857231617E0
2.599912428E1,2.120639086E0,5.234897614E0,6.821937561E0
2.601923709E1,2.183450699E0,5.085346222E0,7.716853142E0
2.603934996E1,2.036890268E0,4.814957142E0,8.701499939E0
2.605946282E1,1.286142230E0,4.558327198E0,8.965906143E0
2.607957569E1,4.755735099E-1,4.411766529E0,8.498707771E0
2.609968855E1,2.691925503E-2,4.432105541E0,7.745566845E0
2.611980141E1,-1.214357466E-1,4.734797955E0,7.088737011E0
2.613991423E1,-2.225325108E-1,5.191826820E0,6.439683914E0
2.616002709E1,-2.309073806E-1,5.596213818E0,5.759523869E0
2.618013996E1,-7.417750359E-2,5.860620975E0,5.382056236E0
2.620025282E1,2.991028428E-1,5.946762562E0,5.793622017E0
2.622036568E1,7.369893789E-1,5.937789440E0,7.003193855E0
2.624047850E1,7.034898400E-1,5.935994625E0,7.844270706E0
2.626059136E1,3.936193287E-1,5.887540340E0,8.015955925E0
2.628070423E1,1.453639716E-1,5.887540340E0,7.731209755E0
2.630081709E1,1.034895778E-1,5.998208046E0,7.518248558E0
2.632092990E1,1.537388563E-1,6.181259155E0,7.308876991E0
2.634104277E1,1.890329868E-1,6.448657036E0,7.019943237E0
2.636115563E1,1.280160099E-1,6.740581512E0,6.809973240E0
2.638126850E1,1.387837082E-1,6.875177860E0,6.873383045E0
2.640138131E1,2.464607358E-1,6.929016113E0,7.306483746E0
2.642149418E1,3.409772217E-1,6.863811970E0,7.910671711E0
2.644160704E1,1.585244983E-1,6.829115868E0,8.279764175E0
2.646171990E1,-4.025924206E-1,7.233502865E0,8.129614830E0
2.648183272E1,-9.152546525E-1,7.457829952E0,7.701898098E0
2.650194558E1,-5.264210105E-1,6.990631580E0,8.134998322E0
2.652205845E1,1.692921966E-1,6.821937561E0,9.300303459E0
2.654217126E1,5.994020700E-1,6.497709751E0,1.034237766E1
2.656228412E1,5.539384484E-1,5.802595139E0,1.095613670E1
2.658239699E1,1.411765367E-1,5.182255745E0,1.079162979E1
2.660250980E1,-3.314059377E-1,4.690530777E0,9.732806206E0
2.662262266E1,-1.039681435E0,4.774279594E0,8.512466431E0
2.664273553E1,-1.621137381E0,5.115256786E0,7.515257835E0
2.666284834E1,-1.745564103E0,5.299503803E0,7.129415035E0
2.668296121E1,-1.354337573E0,5.333601475E0,7.705487251E0
2.670307407E1,-8.021938205E-1,5.162514687E0,8.326424599E0
2.672318688E1,-4.552344978E-1,4.913063049E0,8.517251968E0
2.674329975E1,-1.076770201E-1,4.792225361E0,8.463413239E0
2.676341261E1,9.990034252E-2,4.782055855E0,8.374878883E0
2.678352542E1,-1.764706671E-1,4.823930264E0,8.051848412E0
2.680363829E1,-6.502495408E-1,5.041079044E0,7.652844906E0
2.682375115E1,-8.913264275E-1,5.277370453E0,7.232306480E0
2.684386397E1,-8.350951076E-1,5.407779217E0,6.679564476E0
2.686397683E1,-3.990031779E-1,5.485546112E0,6.496513367E0
2.688408964E1,1.076770201E-1,5.503491879E0,6.944569588E0
2.690420251E1,3.655036688E-1,5.574080467E0,7.309474945E0
2.692431537E1,2.949153781E-1,5.667998791E0,7.117451191E0
2.694442819E1,1.417747438E-1,5.771488190E0,6.740581512E0
2.696454105E1,3.948157281E-2,5.961119175E0,6.625725746E0
2.698465386E1,5.443671346E-2,6.193223000E0,6.762714863E0
2.700476673E1,-5.264209956E-2,6.358327866E0,6.710072994E0
2.702487954E1,-2.051845491E-1,6.540182590E0,6.671189308E0
2.704499240E1,-1.232303679E-1,6.637690067E0,7.017550468E0
2.706510527E1,7.477571070E-2,6.680162430E0,7.586444378E0
2.708521808E1,3.912265003E-1,6.686742783E0,7.936992645E0
2.710533095E1,7.471588850E-1,6.683153629E0,8.170292854E0
2.712544376E1,1.076770186E0,6.673582554E0,8.893523216E0
2.714555662E1,5.670989752E-1,7.424928665E0,9.030512810E0
2.716566944E1,5.659025311E-1,7.506284714E0,8.146365166E0
2.718578230E1,2.079362869E0,6.692126751E0,8.640482903E0
2.720589511E1,2.967698336E0,6.491727829E0,9.503094673E0
2.722600798E1,3.031706333E0,6.165705681E0,9.637093544E0
2.724612079E1,2.624328136E0,5.361119270E0,9.199206352E0
2.726623365E1,2.184647083E0,4.786841869E0,9.208778381E0
2.728634647E1,1.809572101E0,4.415356159E0,9.647262573E0
2.730645933E1,1.128215909E0,4.448257446E0,9.159127235E0
2.732657214E1,4.582255483E-1,5.054837704E0,7.487142086E0
2.734668501E1,6.161518097E-1,5.506483078E0,6.159125328E0
2.736679782E1,1.776072621E0,5.803791523E0,5.614758492E0
2.738691068E1,3.238087177E0,5.833103180E0,6.580860615E0
2.740702350E1,3.894917011E0,5.452644825E0,8.005785942E0
2.742713636E1,3.087937593E0,5.035695076E0,8.884550095E0
2.744724918E1,1.552941918E0,4.737190723E0,9.059824944E0
2.746736204E1,2.171486616E-1,4.688137531E0,8.304290771E0
2.748747485E1,-4.211367965E-1,4.918447018E0,7.651050568E0
2.750758772E1,-2.153540403E-2,5.274379253E0,7.451249599E0
2.752770053E1,8.285148144E-1,5.734997749E0,7.067201614E0
2.754781334E1,1.494317770E0,5.974878311E0,6.349354744E0
2.756792621E1,1.936391711E0,6.000600815E0,6.093322754E0
2.758803902E1,1.786242127E0,5.802595139E0,6.563512325E0
2.760815188E1,1.001396298E0,5.414359570E0,7.399205685E0
2.762826470E1,1.328016520E-1,5.113461971E0,8.185846329E0
2.764837751E1,-5.605186820E-1,5.109872818E0,8.567501068E0
2.766849037E1,-7.214360237E-1,5.101497650E0,8.573483467E0
2.768860318E1,-3.565305769E-1,5.173282623E0,8.413164139E0
2.770871600E1,4.187439755E-2,5.419743061E0,8.201399803E0
2.772882886E1,2.117647976E-1,5.621936798E0,7.828119278E0
2.774894168E1,1.405783296E-1,5.777470112E0,7.572685242E0
2.776905454E1,1.375873089E-1,5.876173973E0,7.854440212E0
2.778916735E1,3.463610709E-1,5.836692810E0,8.293522835E0
2.780928016E1,6.490531564E-1,5.778068542E0,8.467002869E0
2.782939303E1,3.894318938E-1,6.195616245E0,7.827520847E0
2.784950584E1,-7.627122402E-1,7.068996429E0,6.358926296E0
2.786961871E1,-1.121635556E0,7.145566463E0,6.025725842E0
2.788973152E1,6.041877344E-2,6.452844620E0,7.846663475E0
2.790984433E1,1.506281853E0,5.458028316E0,1.053619671E1
2.792995714E1,1.770688772E0,4.788636208E0,1.265743351E1
2.795007001E1,5.718846321E-1,4.229912281E0,1.264427280E1
2.797018282E1,-7.148557901E-1,3.938585997E0,1.081555843E1
2.799029563E1,-1.208973646E0,4.375874519E0,9.117850304E0
2.801040850E1,-8.721838593E-1,4.998606682E0,8.423334122E0
2.803052131E1,-1.316052526E-1,5.092525005E0,8.410771370E0
2.805063412E1,5.377869010E-1,5.151747227E0,8.580661774E0
2.807074699E1,1.131206870E0,5.248058319E0,8.457431793E0
2.809085980E1,1.577468276E0,5.042275429E0,8.178668022E0
2.811097261E1,1.640279889E0,4.676173687E0,8.161917686E0
2.813108543E1,9.894321561E-1,4.405784607E0,8.266005516E0
2.815119829E1,-2.512463741E-2,4.250251293E0,8.300103188E0
2.817131110E1,-7.316055298E-1,4.300500393E0,8.045268059E0
2.819142391E1,-8.327022791E-1,4.479363918E0,7.706085205E0
2.821153673E1,-4.642075896E-1,4.694119930E0,7.520641804E0
2.823164959E1,2.470589429E-1,4.853840828E0,7.687541008E0
2.825176240E1,7.549355626E-1,4.914259434E0,7.793423176E0
2.827187522E1,8.865407705E-1,4.958526611E0,7.668398380E0
2.829198803E1,7.663014531E-1,5.059623718E0,7.508677483E0
2.831210089E1,6.460621357E-1,5.181657314E0,7.531409264E0
2.833221371E1,4.971089065E-1,5.365306377E0,7.578667641E0
2.835232652E1,3.798605800E-1,5.513063431E0,7.377670288E0
2.837243933E1,3.738785386E-1,5.597410202E0,7.273582458E0
2.839255220E1,5.174478889E-1,5.663212776E0,7.490731239E0
2.841266501E1,6.741777658E-1,5.647659779E0,7.805985451E0
2.843277782E1,8.165507317E-1,5.501697540E0,8.154141426E0
2.845289063E1,9.846464992E-1,5.327619553E0,8.696115494E0
2.847300345E1,1.064207911E0,5.188836098E0,9.105288506E0
2.849311626E1,6.394818425E-1,5.393422127E0,9.071788788E0
2.851322912E1,-3.649054468E-2,5.868397713E0,8.197810173E0
2.853334194E1,3.649054468E-1,4.988437176E0,7.928617954E0
2.855345475E1,1.106680512E0,4.235296249E0,8.650053978E0
2.857356756E1,1.350150228E0,3.914657831E0,9.057432175E0
2.859368037E1,1.747358680E0,3.061616659E0,9.905089378E0
2.861379324E1,2.491526604E0,2.237887383E0,1.178943729E1
2.863390605E1,2.938386202E0,1.738983870E0,1.366899967E1
2.865401886E1,2.416152716E0,1.636690736E0,1.308515072E1
2.867413168E1,1.764706731E0,1.993221283E0,1.004207802E1
2.869424449E1,1.175474167E0,2.740380049E0,7.622336388E0
2.871435730E1,1.404586911E0,3.038286448E0,6.970890522E0
2.873447011E1,2.757129908E0,2.803191662E0,7.968099594E0
2.875458292E1,3.486342669E0,2.362912416E0,9.476176262E0
2.877469574E1,3.765106440E0,1.068395257E0,9.348159790E0
2.879480860E1,1.378864050E0,2.160120726E0,8.447261810E0
2.881492141E1,6.819544435E-1,1.902294040E0,8.557332039E0
2.883503423E1,8.315058947E-1,1.159322619E0,8.367700577E0
2.885514704E1,4.827519655E-1,1.549352646E0,7.701299667E0
2.887525985E1,6.400800347E-1,1.927418590E0,7.599006653E0
2.889537266E1,1.055832982E0,1.963909149E0,8.271389961E0
2.891548548E1,1.453041553E0,1.987239242E0,9.028717995E0
2.893559829E1,1.304686546E0,1.936989903E0,9.976874352E0
2.895571110E1,1.043868899E0,1.657029629E0,1.038724327E1
2.897582391E1,9.248259664E-1,1.657029629E0,1.050688457E1
2.899593673E1,1.269990563E0,1.898106575E0,9.136993408E0
2.901604954E1,8.925228715E-1,2.076371908E0,7.816154957E0
2.903616235E1,2.003988922E-1,1.926222205E0,8.001000404E0
2.905627516E1,-6.400800496E-2,1.951945066E0,9.275178909E0
2.907638798E1,-3.349951804E-1,2.063211441E0,1.001156998E1
2.909650084E1,-2.434697002E-1,1.655235052E0,1.019641590E1
2.911661365E1,-7.854440212E-1,1.277169108E0,1.019043350E1
2.913672641E1,-7.387840152E-1,1.176072359E0,1.058824062E1
2.915683928E1,9.990034699E-1,1.802393675E0,1.075095177E1
2.917695209E1,4.851447940E-1,1.954936147E0,1.111585712E1
2.919706490E1,6.849454641E-1,1.549950838E0,1.297268772E1
2.921717766E1,1.137787223E0,4.654040039E-1,1.451187134E1
2.923729048E1,1.373480201E0,-1.086939692E0,1.480618858E1
2.925740334E1,3.349951804E-1,-1.315454245E0,1.368814182E1
2.927751610E1,-5.814558864E-1,-7.106683254E-1,1.214776230E1
2.929762891E1,-5.090730190E-1,-1.537388563E-1,1.033579731E1
2.931774173E1,-7.196413875E-1,5.545366406E-1,8.422736168E0
2.933785454E1,-1.085743308E0,6.191428304E-1,7.531409264E0
2.935796735E1,-9.900303483E-1,5.718846321E-1,7.714460373E0
2.937808016E1,-1.256231871E-2,3.876372576E-1,8.723034859E0
2.939819298E1,1.569691658E0,-3.014956415E-1,9.346364975E0
2.941830579E1,2.758924484E0,-1.031306505E0,1.010788059E1
2.943841860E1,2.730210543E0,-1.300499082E0,1.139521980E1
2.945853141E1,1.027119160E0,-7.519445419E-1,1.170269775E1
2.947864423E1,-6.933203340E-1,-5.982056633E-2,1.086999512E1
2.949875704E1,-9.858429432E-1,3.906283081E-1,9.705886841E0
2.951886985E1,1.208375469E-1,8.141579032E-1,9.123234749E0
2.953898266E1,1.668395638E0,1.079761267E0,9.064012527E0
2.955909548E1,2.390429735E0,1.150349498E0,9.135796547E0
2.957920829E1,1.774876237E0,1.017547846E0,9.282357216E0
2.959932105E1,6.394818425E-1,6.203392744E-1,9.583852768E0
2.961943386E1,-8.733802289E-2,2.656033039E-1,9.817750931E0
2.963954668E1,-2.482553422E-1,2.763710022E-1,9.750752449E0
2.965965949E1,-7.776673418E-3,4.408775866E-1,9.503693581E0
2.967977230E1,3.792623878E-1,5.282155871E-1,9.485747337E0
2.969988511E1,4.073780477E-1,4.863412082E-1,9.424132347E0
2.971999792E1,2.051845491E-1,4.360919297E-1,9.354142189E0
2.974011074E1,1.196411345E-2,3.798605800E-1,9.461220741E0
2.976022350E1,2.273181453E-2,3.397808075E-1,9.717850685E0
2.978033631E1,2.554338276E-1,3.493520916E-1,9.817152977E0
2.980044912E1,5.126622319E-1,1.262213886E-1,9.674181938E0
2.982056194E1,1.316052489E-2,2.895315289E-1,9.863813400E0
2.984067475E1,4.384847581E-1,9.816554785E-1,9.774082184E0
2.986078756E1,3.038884699E-1,9.332008660E-2,1.014496994E1
2.988090032E1,1.612762451E0,-6.741777658E-1,1.150528908E1
2.990101313E1,1.783849239E0,-4.953143001E-1,1.297747326E1
2.992112595E1,1.378265858E0,-8.817551732E-1,1.265743351E1
2.994123876E1,9.565308690E-1,-1.332203984E0,1.225603771E1
2.996135157E1,5.653043389E-1,-1.060618639E0,1.178644657E1
2.998146438E1,4.103690982E-1,-6.334998012E-1,1.082812023E1
3.000157714E1,5.000999570E-1,-1.758724600E-1,9.409774780E0
3.002168996E1,8.183453679E-1,3.170489967E-1,7.888537884E0
3.004180277E1,1.357328653E0,4.989035130E-1,7.371089935E0
3.006191558E1,2.167897224E0,2.901297510E-1,8.148159027E0
3.008202834E1,2.943171740E0,-1.214357466E-1,9.265607834E0
3.010214115E1,3.213560820E0,-5.832505226E-1,1.019940662E1
3.012225397E1,2.464607239E0,-7.824530005E-1,1.088495064E1
3.014236678E1,1.112064362E0,-5.910272002E-1,1.044646549E1
3.016247959E1,2.596212626E-1,-1.088734269E-1,9.391828537E0
3.018259235E1,1.537388563E-1,3.451646566E-1,8.568099976E0
3.020270516E1,6.717849374E-1,7.058826685E-1,8.132007599E0
3.022281798E1,1.340578914E0,9.116654396E-1,8.064410210E0
3.024293079E1,1.807179332E0,1.003190875E0,8.613563538E0
3.026304355E1,1.939382792E0,8.817551732E-1,9.146564484E0
3.028315636E1,1.764108539E0,7.136593461E-1,9.394820213E0
3.030326918E1,1.340578914E0,6.311069727E-1,9.404989243E0
3.032338199E1,9.661021233E-1,6.053841114E-1,9.543772697E0
3.034349475E1,7.788637877E-1,6.580262184E-1,9.649057388E0
3.036360756E1,7.351947427E-1,7.310073376E-1,9.580264091E0
3.038372037E1,7.896314859E-1,7.357929349E-1,9.702297211E0
3.040383313E1,8.368897438E-1,7.148557901E-1,9.911669731E0
3.042394595E1,8.231309652E-1,6.197410822E-1,1.012881851E1
3.044405876E1,6.382854581E-1,5.826523304E-1,1.039322472E1
3.046417152E1,1.836491376E-1,9.858429432E-1,1.030289650E1
3.048428433E1,-5.383850932E-1,1.627119422E0,9.850652695E0
3.050439714E1,-4.438686073E-1,1.097707391E0,9.658628464E0
3.052450990E1,1.329811215E0,-4.510470629E-1,1.156271744E1
3.054462272E1,2.190629244E0,-1.192223907E0,1.465304756E1
3.056473553E1,9.050851464E-1,-1.010369420E0,1.566281891E1
3.058484829E1,-8.596215248E-1,-8.081758618E-1,1.276690483E1
3.060496110E1,-1.460818172E0,-4.821537733E-1,9.907482147E0
3.062507391E1,-1.085743308E0,8.255238086E-2,8.164310455E0
3.064518668E1,-7.459624410E-1,6.771687865E-1,7.277770042E0
3.066529949E1,-7.070791125E-1,8.877372146E-1,7.484150887E0
3.068541225E1,-8.823533654E-1,7.920243144E-1,8.476573944E0
3.070552506E1,-5.850451589E-1,4.091726840E-1,9.265607834E0
3.072563787E1,2.889333367E-1,-3.014956415E-1,9.748359680E0
3.074575063E1,9.619147182E-1,-8.638089895E-1,1.069950676E1
3.076586344E1,7.070791125E-1,-7.345965505E-1,1.188514996E1
3.078597626E1,-2.907279432E-1,-2.255235314E-1,1.132223892E1
3.080608902E1,-7.244270444E-1,1.052841991E-1,9.405587196E0
3.082620183E1,-3.164508045E-1,4.839483798E-1,8.079963684E0
3.084631459E1,3.798605800E-1,7.896314859E-1,7.831708431E0
3.086642740E1,9.822536707E-1,7.178468108E-1,8.635098457E0
3.088654022E1,8.745766878E-1,6.101697683E-1,9.438488960E0
3.090665298E1,1.902294010E-1,5.527420044E-1,9.803992271E0
3.092676579E1,-2.530409992E-1,5.952146053E-1,9.851250648E0
3.094687855E1,-3.343969584E-1,9.415757060E-1,9.547960281E0
3.096699136E1,-7.836493850E-2,1.232901812E0,9.151947975E0
3.098710418E1,2.817548811E-1,1.414756417E0,8.968897820E0
3.100721694E1,5.934200287E-1,1.516451359E0,8.986245155E0
3.102732975E1,8.297112584E-1,1.409372568E0,9.214759827E0
3.104744251E1,6.412764788E-1,1.182054400E0,9.708279610E0
3.106755532E1,2.967100143E-1,1.016949654E0,1.014616585E1
3.108766808E1,5.503492057E-2,1.010967612E0,1.018863869E1
3.110778089E1,4.905286431E-2,1.036092162E0,9.635896683E0
3.112789365E1,9.810572863E-2,9.996016622E-1,9.290133476E0
3.114800647E1,-6.939185411E-2,1.164706469E0,9.381659508E0
3.116811923E1,-3.164508045E-1,1.330409408E0,9.528220177E0
3.118823204E1,7.016952634E-1,1.758724600E-1,9.812965393E0
3.120834480E1,2.306082726E0,-7.256234884E-1,1.141316605E1
3.122845761E1,2.386242390E0,-9.696913958E-1,1.351107311E1
3.124857037E1,1.111466169E0,-1.273579836E0,1.386760330E1
3.126868318E1,2.392822690E-2,-1.350748420E0,1.271904850E1
3.128879594E1,-5.982056633E-2,-1.052842021E0,1.196949673E1
3.130890876E1,5.988038778E-1,-6.747759581E-1,1.100997543E1
3.132902152E1,1.200598717E0,-2.021935135E-1,9.839884758E0
3.134913433E1,1.565504193E0,2.075773627E-1,8.825926781E0
3.136924709E1,1.777867198E0,2.967100143E-1,8.311469078E0
3.138935990E1,2.191227436E0,1.106680483E-1,8.975478172E0
3.140947266E1,2.269592285E0,-3.768695518E-2,9.963713646E0
3.142958548E1,1.732403636E0,-1.609173268E-1,1.016231823E1
3.144969824E1,1.019940615E0,-1.405783296E-1,9.597013474E0
3.146981105E1,6.771687865E-1,1.381855011E-1,9.261420250E0
3.148992381E1,7.926225066E-1,4.217349887E-1,8.977870941E0
3.151003662E1,9.822536707E-1,6.789634228E-1,8.607581139E0
3.153014938E1,1.146162033E0,9.008977413E-1,8.396414757E0
3.155026214E1,1.332802176E0,9.637092948E-1,8.628518105E0
3.157037496E1,1.305284739E0,9.649057388E-1,9.065806389E0
3.159048772E1,1.001396298E0,1.074975610E0,9.020342827E0
3.161060053E1,6.759724021E-1,1.094716311E0,8.816354752E0
3.163071329E1,4.462614357E-1,1.113260746E0,8.898907661E0
3.165082610E1,1.938186288E-1,1.192223907E0,9.153742790E0
3.167093886E1,-7.477571070E-2,1.235892892E0,9.227920532E0
3.169105162E1,-2.650051117E-1,1.265205026E0,9.217152596E0
3.171116444E1,-3.487538993E-1,1.256830096E0,9.518050194E0
3.173127720E1,-4.438686073E-1,1.165304661E0,9.960124016E0
3.175139001E1,-4.923232496E-1,1.016351461E0,1.047577763E1
3.177150277E1,-4.624129832E-1,8.416753411E-1,1.086760235E1
3.179161553E1,-4.725824594E-1,8.650053740E-1,1.118465137E1
3.181172834E1,-5.407779217E-1,9.744769931E-1,1.160100269E1
3.183184110E1,-2.733799815E-1,6.825526357E-1,1.217946720E1
3.185195386E1,9.690931439E-2,4.295116663E-1,1.273220921E1
3.187206668E1,4.618147612E-1,-3.170489892E-2,1.318385410E1
3.189217944E1,3.942175210E-1,-4.265206456E-1,1.338186073E1
3.191229220E1,3.409772366E-2,-4.683950245E-1,1.259701443E1
3.193240501E1,-3.284149170E-1,-2.039881349E-1,1.087119102E1
3.195251777E1,-6.275177598E-1,3.816552162E-1,8.933603287E0
3.197263058E1,-8.368897438E-1,9.762716293E-1,7.142575741E0
3.199274334E1,-8.165507317E-1,1.273579836E0,6.623332977E0
3.201285610E1,-2.811566554E-2,9.768698215E-1,8.081160545E0
3.203296886E1,8.213363886E-1,4.414757788E-1,9.729815483E0
3.205308168E1,7.878368497E-1,-1.154536903E-1,1.062712383E1
3.207319444E1,-1.513460279E-1,-3.655036688E-1,1.106501007E1
3.209330725E1,-1.256231904E0,-1.208375469E-1,1.089571762E1
3.211342001E1,-1.488933921E0,3.158525825E-1,9.813564301E0
3.213353277E1,-7.752745152E-1,8.057830334E-1,8.704490662E0
3.215364553E1,-5.982056609E-4,1.293320656E0,8.081160545E0
3.217375834E1,4.839483798E-1,1.556531072E0,7.929215908E0
3.219387110E1,6.317051649E-1,1.657029629E0,8.187042236E0
3.221398386E1,3.433700502E-1,1.465005636E0,8.931210518E0
3.223409662E1,-1.429711580E-1,1.268195987E0,9.609575272E0
3.225420944E1,-5.288137794E-1,1.281954765E0,9.690931320E0
3.227432220E1,-5.210371017E-1,1.336989641E0,9.435498238E0
3.229443496E1,-2.039881349E-1,1.475773335E0,9.227322578E0
3.231454777E1,9.810572863E-2,1.689931035E0,9.150752068E0
3.233466053E1,1.070788130E-1,1.777269006E0,9.296713829E0
3.235477329E1,-1.782652885E-1,1.819741607E0,9.447462082E0
3.237488605E1,-4.606183469E-1,1.853839397E0,9.608977318E0
3.239499886E1,-4.229314029E-1,1.815554142E0,9.875777245E0
3.241511162E1,-7.118647546E-2,1.649253011E0,1.020000458E1
3.243522438E1,2.225325108E-1,1.444068432E0,1.052423191E1
3.245533714E1,2.333002090E-1,1.397408366E0,1.078804111E1
3.247544990E1,-2.057827413E-1,2.055434704E0,1.033220863E1
3.249556272E1,1.375873089E-1,1.590628862E0,1.016710377E1
3.251567548E1,1.316052437E0,5.491527915E-1,1.128514957E1
3.253578824E1,1.542174220E0,5.838487148E-1,1.226202011E1
3.255590100E1,9.134600163E-1,3.230310678E-1,1.244746304E1
3.257601376E1,1.298106313E-1,-6.699903309E-2,1.178465176E1
3.259612657E1,4.636093974E-1,-5.144568533E-2,1.120678520E1
3.261623933E1,1.166501045E0,2.536391914E-1,1.054397297E1
3.263635209E1,1.369292736E0,6.137589812E-1,9.421739578E0
3.265646485E1,1.199402332E0,8.955138922E-1,8.276175499E0
3.267657761E1,8.386843204E-1,1.146162033E0,7.802994728E0
3.269669042E1,8.733802438E-1,1.030110121E0,8.305487633E0
3.271680318E1,1.689931035E0,3.852444589E-1,9.135796547E0
3.273691594E1,2.264208317E0,-1.866401732E-1,1.003549862E1
3.275702871E1,1.724626899E0,-2.901297510E-1,1.112004471E1
3.277714147E1,2.985046208E-1,4.725824669E-2,1.098544884E1
3.279725423E1,-4.959124923E-1,4.648058116E-1,9.373882294E0
3.281736699E1,-1.902294010E-1,1.002592683E0,8.129614830E0
3.283747980E1,5.700899959E-1,1.544566989E0,7.436892986E0
3.285759256E1,1.253240824E0,1.801197290E0,7.624131203E0
3.287770532E1,1.482353687E0,1.737787485E0,8.359326363E0
3.289781808E1,1.132403374E0,1.452443361E0,9.139984131E0
3.291793084E1,4.761717021E-1,1.197009563E0,9.785448074E0
3.293804360E1,-2.811566554E-2,1.114457130E0,1.001216793E1
3.295815641E1,-9.511470050E-2,1.200598717E0,9.869794846E0
3.297826918E1,1.405783296E-1,1.405783296E0,9.612566948E0
3.299838194E1,3.547359705E-1,1.604985833E0,9.389435768E0
3.301849470E1,3.762713671E-1,1.746162295E0,9.377471924E0
3.303860746E1,2.261217386E-1,1.811964989E0,9.663414001E0
3.305872022E1,-4.785645287E-3,1.733001828E0,9.996614456E0
3.307883298E1,-7.477571070E-2,1.588834286E0,1.042552853E1
3.309894574E1,2.991028363E-3,1.466800332E0,1.085683441E1
3.311905850E1,1.459621787E-1,1.303490162E0,1.109432220E1
3.313917126E1,-8.195417374E-2,1.587637782E0,1.105603695E1
3.315928402E1,-5.976074338E-1,2.207977057E0,1.049850941E1
3.317939678E1,-3.074777126E-1,1.509272933E0,1.078205872E1
3.319950959E1,1.920240223E-1,9.296116233E-1,1.189771271E1
3.321962235E1,2.309073806E-1,7.268198729E-1,1.283689499E1
3.323973511E1,-3.014956415E-1,1.507478207E-1,1.282612801E1
3.325984787E1,-9.511470199E-1,-8.374879509E-2,1.173619652E1
3.327996063E1,-9.373882413E-1,9.152546525E-2,1.033160973E1
3.330007339E1,-7.818548083E-1,4.432703853E-1,9.184251785E0
3.332018615E1,-8.883354068E-1,9.690931439E-1,8.074580193E0
3.334029891E1,-8.129615188E-1,1.256830096E0,7.352545738E0
3.336041168E1,-2.679961324E-1,1.080359459E0,8.060222626E0
3.338052444E1,3.690928817E-1,8.338986635E-1,9.481559753E0
3.340063720E1,7.058826685E-1,5.234299302E-1,1.005224800E1
3.342074996E1,6.382854581E-1,1.920240223E-1,1.046022415E1
3.344086272E1,7.776673883E-2,2.650051117E-1,1.077129078E1
3.346097548E1,-6.233302951E-1,5.509474277E-1,1.008335495E1
3.348108824E1,-8.201399446E-1,8.853443861E-1,8.785248756E0
3.350120100E1,-5.479564071E-1,1.310070395E0,7.930412292E0
3.352131376E1,1.974078640E-2,1.564307809E0,7.641479015E0
3.354142652E1,4.695914388E-1,1.633101463E0,8.057231903E0
3.356153928E1,3.906283081E-1,1.652842283E0,8.810373306E0
3.358165204E1,-4.187439755E-2,1.672582984E0,9.364909172E0
3.360176480E1,-3.810569942E-1,1.720439434E0,9.284749985E0
3.362187756E1,-2.901297510E-1,1.822732687E0,8.944969177E0
3.364199032E1,1.124626622E-1,1.927418590E0,8.936594009E0
3.366210308E1,3.361915946E-1,2.084746838E0,9.330811501E0
3.368221584E1,2.315055877E-1,2.222932339E0,9.531210899E0
3.370232860E1,1.668993831E-1,2.175673962E0,9.600603104E0
3.372244136E1,2.793620527E-1,2.036292076E0,9.862616539E0
3.374255412E1,3.529413342E-1,2.033899307E0,1.026042366E1
3.376266688E1,3.290131092E-1,1.905285001E0,1.057926750E1
3.378277964E1,4.031906128E-1,1.702493310E0,1.078923702E1
3.380289240E1,6.215356588E-1,1.599003673E0,1.099681473E1
3.382300511E1,7.417750359E-1,1.555932879E0,1.095434189E1
3.384311792E1,2.368894368E-1,2.125424623E0,1.015872860E1
3.386323063E1,4.606183618E-2,2.018944025E0,9.632308006E0
3.388334339E1,1.205384374E0,7.674978375E-1,1.075334454E1
3.390345615E1,1.606182218E0,5.802595019E-1,1.173380375E1
3.392356891E1,1.274178028E0,5.659025311E-1,1.204546928E1
3.394368168E1,6.807580590E-1,1.034895778E-1,1.138026428E1
3.396379444E1,8.835497499E-1,-1.453639716E-1,1.140778160E1
3.398390720E1,9.661021233E-1,2.524427772E-1,1.094776154E1
3.400401996E1,6.191428304E-1,6.131607890E-1,9.503693581E0
3.402413272E1,4.456632137E-1,9.140582681E-1,8.196614265E0
3.404424548E1,6.999006271E-1,1.225125194E0,7.725826263E0
3.406435824E1,1.429711580E0,1.064207911E0,8.461020470E0
3.408447094E1,1.816750646E0,6.699903607E-1,9.590433121E0
3.410458371E1,1.721037745E0,3.020938635E-1,1.022991467E1
3.412469647E1,1.232303619E0,1.316052526E-1,1.043330479E1
3.414480923E1,5.132604837E-1,3.469592929E-1,1.000319481E1
3.416492199E1,1.555334777E-1,6.496513486E-1,9.122037888E0
3.418503475E1,2.153540403E-1,9.960124493E-1,8.438288689E0
3.420514751E1,4.055834413E-1,1.315454245E0,8.292326927E0
3.422526022E1,6.185446382E-1,1.399203062E0,8.361719131E0
3.424537298E1,7.585247755E-1,1.367498159E0,8.774480820E0
3.426548574E1,6.747759581E-1,1.306481123E0,9.266803741E0
3.428559850E1,4.779663086E-1,1.201795220E0,9.665208817E0
3.430571126E1,1.884347796E-1,1.241874933E0,9.614959717E0
3.432582402E1,1.561316848E-1,1.272981644E0,9.512666702E0
3.434593678E1,1.938186288E-1,1.330409408E0,9.610174179E0
3.436604949E1,2.638086975E-1,1.414756417E0,9.815358162E0
3.438616225E1,2.781656384E-1,1.424327731E0,9.962516785E0
3.440627501E1,1.070788130E-1,1.374078393E0,1.010728264E1
3.442638777E1,-3.948157281E-2,1.328016520E0,1.017727280E1
3.444650053E1,-8.255238086E-2,1.225723386E0,1.034477043E1
3.446661324E1,2.333002165E-2,1.069591761E0,1.060439205E1
3.448672600E1,-1.788634956E-1,1.338186026E0,1.056371403E1
3.450683876E1,-2.889333367E-1,1.402792215E0,1.028734303E1
3.452695152E1,3.337987661E-1,8.841479421E-1,1.067557812E1
3.454706428E1,6.909275651E-1,8.386843204E-1,1.160100269E1
3.456717699E1,6.311069727E-1,3.236292601E-1,1.246899891E1
3.458728975E1,2.889333367E-1,-4.366901219E-1,1.283330631E1
3.460740251E1,-1.944168359E-1,-5.814558864E-1,1.225364494E1
3.462751527E1,-5.545366406E-1,-2.907279432E-1,1.103270721E1
3.464762803E1,-7.136593461E-1,-8.733802289E-2,9.799206734E0
3.466774074E1,-6.729813814E-1,3.092723191E-1,8.852845192E0
3.468785350E1,-9.445667267E-1,9.786644578E-1,7.759325504E0
3.470796626E1,-1.375274777E0,1.318445325E0,7.207181931E0
3.472807902E1,-1.095912814E0,1.048654556E0,8.242077827E0
3.474819173E1,1.214357466E-1,6.472585201E-1,9.637691498E0
3.476830449E1,1.318445325E0,1.639083475E-1,1.051525879E1
3.478841725E1,1.702493310E0,-1.914258152E-1,1.164227867E1
3.480852996E1,2.709871531E-1,1.322034448E-1,1.120080280E1
3.482864272E1,-9.876375198E-1,4.839483798E-1,9.389435768E0
3.484875548E1,-1.387837172E0,8.590233326E-1,8.062017441E0
3.486886824E1,-1.091127157E0,1.200598717E0,7.363313675E0
3.488898094E1,-1.477568001E-1,1.200000525E0,7.855636597E0
3.490909371E1,5.958128572E-1,1.139581800E0,9.125627518E0
3.492920647E1,6.789634228E-1,1.070788145E0,9.948160172E0
3.494931923E1,3.475574851E-1,9.774680734E-1,1.025384331E1
3.496943194E1,-3.349951655E-2,1.091127157E0,1.001276588E1
3.498954470E1,-1.172483116E-1,1.307079315E0,9.368498802E0
3.500965746E1,3.290131316E-2,1.451845169E0,8.788837433E0
3.502977016E1,2.973082066E-1,1.488335729E0,8.737990379E0
3.504988293E1,5.180460811E-1,1.458425403E0,9.287740707E0
3.506999568E1,5.306084156E-1,1.350150228E0,9.886545181E0
3.509010839E1,5.395814776E-1,1.201196909E0,1.031486034E1
3.511022115E1,7.591229677E-1,1.139581800E0,1.042732334E1
3.513033391E1,1.012762189E0,1.202991605E0,1.042552853E1
3.515044662E1,8.015955687E-1,1.661815286E0,1.016710377E1
3.517055938E1,1.087537885E0,1.256830096E0,1.041236782E1
3.519067214E1,1.811366796E0,5.682953596E-1,1.146401310E1
3.521078485E1,2.203789711E0,2.650051117E-1,1.297687531E1
3.523089761E1,1.810768485E0,-6.400800496E-2,1.354038525E1
3.525101037E1,1.055234790E0,-3.541377485E-1,1.241157150E1
3.527112308E1,8.171489239E-1,-2.386840582E-1,1.106082249E1
3.529123584E1,8.739784956E-1,1.513460279E-1,9.951150894E0
3.531134860E1,1.004387259E0,4.905286431E-1,8.666205406E0
3.533146131E1,1.127617717E0,8.392825127E-1,7.595417500E0
3.535157407E1,1.553540111E0,9.427721500E-1,7.782057285E0
3.537168678E1,2.077568293E0,7.094719410E-1,8.972486496E0
3.539179954E1,2.307877541E0,3.936193287E-1,9.697511673E0
3.541191230E1,2.397010088E0,3.050848842E-2,9.848857880E0
3.543202501E1,2.149353027E0,-1.393819153E-1,9.939187050E0
3.545213777E1,1.382453322E0,4.366901144E-2,9.841679573E0
3.547225053E1,5.330012441E-1,1.800599098E-1,9.190233231E0
3.549236324E1,1.238285750E-1,4.139583111E-1,8.702695847E0
3.551247600E1,3.152543902E-1,7.746763229E-1,8.447860718E0
3.553258871E1,6.191428304E-1,9.714859724E-1,8.232506752E0
3.555270147E1,7.848458290E-1,1.028913736E0,8.364709854E0
3.557281423E1,8.979067206E-1,1.192223907E0,8.874979019E0
3.559292694E1,1.074975610E0,1.219143152E0,9.607182503E0
3.561303970E1,1.240678549E0,1.016949654E0,1.017428207E1
3.563315240E1,1.319641709E0,8.895317912E-1,1.032921696E1
3.565326516E1,1.153938770E0,8.141579032E-1,1.031127071E1
3.567337787E1,8.979067206E-1,7.423732281E-1,1.038485050E1
3.569349063E1,6.658028960E-1,7.453642488E-1,1.037587738E1
3.571360339E1,3.828516304E-1,8.033902049E-1,1.023589706E1
3.573371610E1,3.278166950E-1,7.615157962E-1,1.024487019E1
3.575382886E1,3.792623878E-1,6.311069727E-1,1.045783138E1
3.577394157E1,3.355933726E-1,4.941178858E-1,1.076770210E1
3.579405433E1,-2.512463741E-2,5.431707501E-1,1.077847004E1
3.581416704E1,-4.277170599E-1,8.446664214E-1,1.048295593E1
3.583427980E1,-1.417747438E-1,6.526423693E-1,1.037587738E1
3.585439251E1,6.861419082E-1,5.946164131E-1,1.060917759E1
3.587450527E1,1.301695466E0,4.642075896E-1,1.101296616E1
3.589461798E1,1.399801254E0,-8.315058798E-2,1.175474167E1
3.591473074E1,7.280163169E-1,-2.201396823E-1,1.197607708E1
3.593484345E1,8.315058798E-2,-2.638086975E-1,1.094716358E1
3.595495621E1,-2.380858511E-1,-3.128615618E-1,9.793225288E0
3.597506897E1,-2.787638307E-1,-1.196411345E-2,9.253643036E0
3.599518168E1,-3.541377485E-1,4.695914388E-1,8.502297401E0
3.601529444E1,-3.720839322E-1,7.417750359E-1,8.094321251E0
3.603540714E1,3.708875179E-2,7.507480979E-1,8.764909744E0
3.605551990E1,8.225327730E-1,7.549355626E-1,9.430113792E0
3.607563261E1,1.462014675E0,6.436693072E-1,9.422935486E0
3.609574532E1,1.732403636E0,1.836491376E-1,9.496515274E0
3.611585808E1,1.043868899E0,-4.965107143E-2,1.012702370E1
3.613597079E1,-1.052841991E-1,8.135596663E-2,1.049312592E1
3.615608355E1,-8.093722463E-1,2.506481707E-1,9.925428391E0
3.617619626E1,-8.763712645E-1,4.654040039E-1,9.012566566E0
3.619630902E1,-3.224328458E-1,8.003991842E-1,8.659625053E0
3.621642173E1,4.462614357E-1,1.032503009E0,8.835497856E0
3.623653449E1,9.230313301E-1,1.064207911E0,9.003593445E0
3.625664720E1,1.006181955E0,1.077368379E0,9.258428574E0
3.627675996E1,7.322037220E-1,1.043270707E0,9.368498802E0
3.629687266E1,3.511467278E-1,9.206385016E-1,9.409176826E0
3.631698543E1,1.968096644E-1,8.105686903E-1,9.745368004E0
3.633709813E1,2.871387303E-1,7.866404653E-1,9.963115692E0
3.635721084E1,4.432703853E-1,8.416753411E-1,9.775876999E0
3.637732360E1,5.551348329E-1,9.355936646E-1,9.590433121E0
3.639743631E1,5.964110494E-1,1.000798106E0,9.783055305E0
3.641754907E1,6.664010882E-1,9.415757060E-1,1.011625576E1
3.643766178E1,8.530412912E-1,8.727820516E-1,1.045424175E1
3.645777449E1,1.082752228E0,7.830511928E-1,1.065643597E1
3.647788725E1,1.020538807E0,7.902296782E-1,1.046740246E1
3.649799996E1,6.251249313E-1,1.277767301E0,9.976874352E0
3.651811272E1,7.345965505E-1,1.180858016E0,9.987043381E0
3.653822542E1,1.594218135E0,3.912265003E-1,1.109791183E1
3.655833813E1,1.918445587E0,3.547359705E-1,1.185045433E1
3.657845089E1,1.794616938E0,1.812563092E-1,1.183549881E1
3.659856360E1,1.249053478E0,-5.383851007E-2,1.130010509E1
3.661867636E1,1.143171072E0,-1.986042857E-1,1.136112213E1
3.663878907E1,1.070189953E0,-3.176472187E-1,1.116610718E1
3.665890178E1,7.178468108E-1,-2.464607358E-1,1.045543861E1
3.667901454E1,6.155536175E-1,8.793623000E-2,9.570094109E0
3.669912725E1,1.030708313E0,3.284149170E-1,9.067601204E0
3.671924001E1,1.762313843E0,2.703889608E-1,9.026923180E0
3.673935272E1,2.221137524E0,1.579262912E-1,9.230313301E0
3.675946542E1,2.205584288E0,-1.256231871E-2,9.419944763E0
3.677957819E1,1.751546144E0,-2.267199457E-1,9.482755661E0
3.679969089E1,1.021735311E0,-2.656033039E-1,9.413962364E0
3.681980360E1,3.954139352E-1,-1.525424421E-1,9.229117393E0
3.683991636E1,1.728814393E-1,1.082752272E-1,8.961120605E0
3.686002907E1,3.200400174E-1,4.654040039E-1,8.622536659E0
3.688014178E1,7.112665176E-1,7.046862841E-1,8.380263329E0
3.690025454E1,9.511470199E-1,8.434699774E-1,8.458627701E0
3.692036725E1,9.834501147E-1,8.877372146E-1,8.620741844E0
3.694047996E1,9.780662656E-1,8.255237937E-1,8.745168686E0
3.696059272E1,9.661021233E-1,7.268198729E-1,9.018548965E0
3.698070543E1,8.973084688E-1,6.352944374E-1,9.480961800E0
3.700081813E1,7.226324677E-1,5.880361795E-1,9.885348320E0
3.702093089E1,6.137589812E-1,6.089733839E-1,9.903294563E0
3.704104360E1,6.610172391E-1,6.879364848E-1,9.669994354E0
3.706115631E1,7.914260626E-1,7.627122402E-1,9.795019150E0
3.708126907E1,8.979067206E-1,6.717849374E-1,1.022393322E1
3.710138178E1,8.715856671E-1,5.539384484E-1,1.049312592E1
3.712149449E1,6.604190469E-1,4.510470629E-1,1.065763187E1
3.714160720E1,2.913261652E-1,3.936193287E-1,1.089093208E1
3.716171996E1,-1.830509305E-1,7.998009920E-1,1.085982513E1
3.718183266E1,-2.979064286E-1,7.998009920E-1,1.062413216E1
3.720194537E1,2.171486616E-1,4.438686073E-1,1.106919765E1
3.722205813E1,5.048855543E-1,3.846462369E-1,1.178764248E1
3.724217084E1,4.546363056E-1,-1.591227055E-1,1.241037464E1
3.726228355E1,6.041877344E-2,-6.382854581E-1,1.278485107E1
3.728239626E1,-1.543370634E-1,-6.675975323E-1,1.222433281E1
3.730250902E1,-3.296113312E-1,-3.014956415E-1,1.049611664E1
3.732262173E1,-7.070791125E-1,2.841476798E-1,8.944371223E0
3.734273444E1,-9.379864931E-1,6.526423693E-1,7.965706348E0
3.736284714E1,-7.513462901E-1,8.273184299E-1,8.085348129E0
3.738295990E1,1.423729509E-1,7.322037220E-1,9.336195946E0
3.740307261E1,8.691928387E-1,6.023930907E-1,1.023888779E1
3.742318532E1,1.127019525E0,2.703889608E-1,1.050688457E1
3.744329803E1,7.501499057E-1,-1.238285750E-1,1.074556828E1
3.746341079E1,-6.580262631E-2,-4.905286431E-2,1.087178993E1
3.748352350E1,-5.132604837E-1,2.273181528E-1,9.997811317E0
3.750363621E1,-5.473581553E-1,5.766702294E-1,8.648259163E0
3.752374891E1,-4.259224236E-1,8.769695163E-1,7.934599876E0
3.754386168E1,-1.363908947E-1,1.028315544E0,7.820940971E0
3.756397438E1,2.871387303E-1,9.643075466E-1,8.268997192E0
3.758408709E1,5.449653864E-1,9.164510965E-1,8.863015175E0
3.760419980E1,4.923232496E-1,9.290133715E-1,9.080163956E0
3.762431251E1,2.757728100E-1,9.990034699E-1,8.907281876E0
3.764442527E1,2.787638307E-1,1.118046403E0,8.685347557E0
3.766453798E1,4.660021961E-1,1.317847013E0,8.365905762E0
3.768465068E1,7.621139884E-1,1.412363529E0,8.291728973E0
3.770476339E1,9.110672474E-1,1.435095429E0,8.513064384E0
3.772487610E1,8.003991842E-1,1.305284739E0,8.830113411E0
3.774498886E1,6.047859192E-1,1.087537885E0,9.210572243E0
3.776510157E1,7.393822074E-1,7.555337548E-1,9.770493507E0
3.778521428E1,1.171286702E0,4.342973232E-1,1.041954613E1
3.780532699E1,1.251446247E0,3.044866920E-1,1.118285656E1
3.782543970E1,1.022333503E0,4.695914388E-1,1.179781246E1
3.784555240E1,9.158528447E-1,7.692924738E-1,1.139701462E1
3.786566516E1,1.841875196E0,-1.172483116E-1,1.201854992E1
3.788577787E1,2.520838737E0,-3.242274821E-1,1.346022511E1
3.790589058E1,2.270190477E0,-1.130608693E-1,1.361456299E1
3.792600329E1,1.359123230E0,-4.199403822E-1,1.248096275E1
3.794611600E1,9.768698215E-1,-7.328019142E-1,1.200598717E1
3.796622871E1,9.708877802E-1,-3.894318938E-1,1.157707405E1
3.798634147E1,7.339983582E-1,1.022931710E-1,1.021974564E1
3.800645418E1,5.982056856E-1,3.098705411E-1,8.551948547E0
3.802656688E1,9.272187948E-1,4.827519655E-1,7.651648521E0
3.804667959E1,1.969891191E0,4.187439680E-1,8.392227173E0
3.806679230E1,2.583052158E0,1.633101404E-1,9.579665184E0
3.808690501E1,2.255235434E0,-1.950150430E-1,9.705288887E0
3.810701772E1,1.313659668E0,-4.570291340E-1,9.310472488E0
3.812713043E1,4.995017350E-1,-4.480560422E-1,9.177073479E0
3.814724318E1,8.374879509E-2,-3.170489967E-1,9.023334503E0
3.816735589E1,4.606183618E-2,-8.015955985E-2,8.591429710E0
3.818746860E1,2.075773627E-1,2.763710022E-1,8.132605553E0
3.820758131E1,4.546363056E-1,5.365904570E-1,7.895118237E0
3.822769402E1,6.765705943E-1,6.669993401E-1,8.041080475E0
3.824780673E1,7.645068169E-1,7.465606928E-1,8.423334122E0
3.826791944E1,6.370890141E-1,7.597211599E-1,8.612366676E0
3.828803214E1,4.773681164E-1,7.052844763E-1,8.720642090E0
3.830814485E1,3.607180119E-1,8.117650747E-1,9.025128365E0
3.832825756E1,4.265206456E-1,8.321040869E-1,9.614959717E0
3.834837027E1,5.844469070E-1,8.745766878E-1,1.016231823E1
3.836848298E1,8.135597110E-1,9.146564603E-1,1.070728302E1
3.838859574E1,1.051047325E0,8.165507317E-1,1.083111191E1
3.840870844E1,1.066002488E0,8.668000102E-1,1.020239735E1
3.842882115E1,1.009771109E0,9.852447510E-1,9.684949875E0
3.844893386E1,9.349954724E-1,1.016351461E0,1.037527943E1
3.846904657E1,5.868397355E-1,1.255035520E0,1.057328510E1
3.848915928E1,-2.093719877E-2,1.557129383E0,1.046680450E1
3.850927199E1,-1.447657645E-1,1.378864050E0,1.173200989E1
3.852938470E1,2.207378894E-1,1.274776220E0,1.341117287E1
3.854949740E1,9.798609018E-1,8.189435601E-1,1.435753441E1
3.856961011E1,1.660020709E0,3.206382394E-1,1.535713577E1
3.858972282E1,2.143969059E0,3.601198196E-1,1.595653820E1
3.860983553E1,1.955534339E0,2.835494876E-1,1.414756393E1
3.862994824E1,9.044869542E-1,5.718846321E-1,1.136112213E1
3.865006094E1,-4.073780477E-1,1.466202021E0,9.739386559E0
3.867017365E1,-1.254437327E0,1.989033818E0,8.498707771E0
3.869028636E1,-1.817947030E0,2.258226395E0,7.563712597E0
3.871039907E1,-1.268195987E0,2.490928411E0,7.802994728E0
3.873051178E1,1.992024779E-1,2.392224550E0,8.250452042E0
3.875062449E1,1.886740685E0,2.059622049E0,8.437092781E0
3.877073720E1,2.998805046E0,1.856830359E0,9.291928291E0
3.879084990E1,2.583650351E0,1.706680775E0,9.750154495E0
3.881096261E1,8.045865893E-1,1.719841242E0,8.884550095E0
3.883107532E1,-5.162515044E-1,1.869990945E0,7.298707485E0
3.885118803E1,-1.058824062E0,2.179861546E0,6.797410965E0
3.887130074E1,-7.136593461E-1,2.487339020E0,7.007380962E0
3.889141345E1,-1.232303679E-1,2.900100946E0,6.582056999E0
3.891152615E1,5.455635786E-1,3.357728481E0,6.297909260E0
3.893163886E1,9.714859724E-1,3.711866140E0,6.501897335E0
3.895175157E1,7.866404653E-1,4.082753658E0,6.755536556E0
3.897186428E1,3.708875179E-1,4.290929317E0,6.424728870E0
3.899197699E1,3.768695593E-1,4.210769653E0,6.496513367E0
3.901208970E1,5.054838061E-1,4.044468403E0,7.008577347E0
3.903220240E1,3.361915946E-1,3.994817495E0,7.500302792E0
3.905231511E1,3.535395563E-1,4.048655987E0,8.324629784E0
3.907242782E1,6.592226624E-1,3.969692707E0,8.614759445E0
3.909254053E1,6.346961856E-1,3.920041800E0,8.248059273E0
3.911265324E1,7.256234884E-1,3.815355778E0,9.473184586E0
3.913276594E1,1.007378340E0,3.620340586E0,1.162253761E1
3.915287865E1,1.034895778E0,3.804588079E0,1.269990635E1
3.917299136E1,1.316052437E0,4.007379532E0,1.298883915E1
3.919310407E1,2.307279348E0,3.833899975E0,1.349432373E1
3.921321673E1,3.117249727E0,3.853640795E0,1.360379505E1
3.923332944E1,2.940180779E0,3.615555048E0,1.303011608E1
3.925344214E1,2.451446772E0,3.285943747E0,1.222732353E1
3.927355485E1,1.713859200E0,3.069393158E0,1.147358418E1
3.929366756E1,8.356932998E-1,2.927618504E0,9.853643417E0
3.931378027E1,1.447657645E-1,3.001796007E0,8.041080475E0
3.933389298E1,-1.704886109E-1,3.597010612E0,7.496115208E0
3.935400569E1,-1.166501045E-1,3.983451605E0,7.633702278E0
3.937411839E1,6.789634228E-1,4.107280254E0,7.768298626E0
3.939423110E1,1.568495274E0,4.155136585E0,8.140382767E0
3.941434381E1,2.217548370E0,4.019941807E0,8.356932640E0
3.943445647E1,2.212164640E0,3.937389612E0,8.563314438E0
3.945456918E1,1.540977836E0,3.817150354E0,8.294121742E0
3.947468188E1,6.634100676E-1,3.696312666E0,7.945965767E0
3.949479459E1,5.623133108E-2,3.561118364E0,7.885547161E0
3.951490730E1,-4.067798555E-1,3.555734396E0,8.264809608E0
3.953502001E1,-2.913261652E-1,3.591028690E0,8.422736168E0
3.955513272E1,-4.725824669E-2,4.194019794E0,8.282156944E0
3.957524543E1,4.157529473E-1,4.514060020E0,8.639286041E0
3.959535808E1,2.662015259E-1,4.527220249E0,8.723632812E0
3.961547079E1,-2.955136001E-1,4.359124660E0,8.573483467E0
3.963558350E1,-2.039881349E-1,4.212564468E0,8.782855988E0
3.965569621E1,-3.134597540E-1,4.325624943E0,9.439086914E0
3.967580891E1,-3.272185028E-1,4.339982033E0,9.769894600E0
3.969592162E1,2.105683982E-1,4.207778454E0,8.648857117E0
3.971603433E1,-1.328016520E-1,4.733003139E0,6.766902447E0
3.973614699E1,-1.090528965E0,5.568696499E0,5.478965759E0
3.975625970E1,-4.725824594E-1,5.434698582E0,5.384449005E0
3.977637240E1,-4.707878530E-1,5.234299660E0,6.858428001E0
3.979648511E1,-1.168893814E0,5.541179180E0,7.646264553E0
3.981659782E1,-1.013360381E0,6.028118610E0,6.964908600E0
3.983671053E1,1.202393398E-1,6.342176437E0,8.108677864E0
3.985682318E1,1.140778184E0,6.447460651E0,1.238465214E1
3.987693589E1,1.604985833E0,5.596213818E0,1.462313747E1
3.989704860E1,1.341775298E0,4.381258488E0,1.319940758E1
3.991716131E1,7.513462901E-1,3.986442566E0,1.001635551E1
3.993727402E1,6.855437160E-1,4.777270317E0,8.495717049E0
3.995738668E1,-4.301098585E-1,5.533402443E0,8.345566750E0
3.997749938E1,-1.055832982E0,5.036293507E0,8.200801849E0
3.999761209E1,-1.470987678E0,5.486742496E0,8.687142372E0
4.001772480E1,-2.152942181E0,5.521438122E0,8.846264839E0
4.003783746E1,-9.888339639E-1,5.034498692E0,9.209376335E0
4.005795016E1,-4.725824669E-2,4.871787071E0,9.757930756E0
4.007806287E1,4.295116663E-1,4.647459984E0,9.569496155E0
4.009817558E1,5.844469070E-1,4.295116425E0,8.734400749E0
4.011828829E1,2.673979402E-1,4.267001152E0,7.863413334E0
4.013840100E1,-2.105683982E-1,4.413561344E0,7.523034573E0
4.015851365E1,-7.142575383E-1,4.505086899E0,6.750751019E0
4.017862636E1,-1.052243710E0,4.696512699E0,5.989234924E0
4.019873907E1,-1.036092162E0,4.910670280E0,5.657230854E0
4.021885173E1,-7.106683254E-1,5.112265587E0,6.023931026E0
4.023896444E1,-5.413761139E-1,5.175675392E0,6.215955257E0
4.025907714E1,-4.887340367E-1,5.197210789E0,6.116652966E0
4.027918985E1,-5.102694035E-1,5.234299660E0,6.634698868E0
4.029930256E1,-6.442674994E-1,5.345565796E0,7.217351437E0
4.031941522E1,-7.734799385E-1,5.697310925E0,7.530810833E0
4.033952793E1,-4.654040039E-1,5.908477306E0,7.256833076E0
4.035964063E1,-9.391828626E-2,6.022734642E0,7.295716286E0
4.037975329E1,4.713860750E-1,6.063412666E0,8.155936241E0
4.039986600E1,6.963114142E-1,5.982655048E0,9.258428574E0
4.041997871E1,1.674975902E-1,6.250052929E0,9.964311600E0
4.044009141E1,-4.911268353E-1,6.806384087E0,1.059182930E1
4.046020407E1,5.108676553E-1,6.515655994E0,1.190070343E1
4.048031678E1,1.855633974E0,6.066403389E0,1.324367523E1
4.050042949E1,2.629113913E0,5.341976643E0,1.309711456E1
4.052054214E1,2.533401012E0,4.651647091E0,1.226142120E1
4.054065485E1,2.121237278E0,3.906881094E0,1.149332523E1
4.056076756E1,1.544566989E0,3.394218922E0,1.054636574E1
4.058088027E1,7.722834945E-1,3.336193085E0,9.134002686E0
4.060099292E1,7.716853172E-2,3.693919897E0,7.689933777E0
4.062110563E1,-2.811566591E-1,4.464408875E0,6.497709751E0
4.064121834E1,-1.190429255E-1,5.235496044E0,5.785246849E0
4.066133100E1,9.098708034E-1,5.648856163E0,5.802595139E0
4.068144371E1,2.267199516E0,5.644668579E0,6.370292187E0
4.070155641E1,3.276372433E0,5.290530682E0,7.100701332E0
4.072166907E1,3.046063185E0,4.942375183E0,8.036892891E0
4.074178178E1,1.904088616E0,4.345366001E0,8.574680328E0
4.076189449E1,4.145565331E-1,3.872783422E0,8.073383331E0
4.078200714E1,-4.396811724E-1,3.896711588E0,7.141977310E0
4.080211985E1,-4.522434771E-1,4.492524624E0,6.309873104E0
4.082223256E1,-9.870393574E-2,5.139782906E0,5.969494343E0
4.084234522E1,4.797609448E-1,5.606383324E0,6.156732559E0
4.086245792E1,1.042672515E0,5.837290764E0,6.471388817E0
4.088257063E1,1.227517962E0,5.879763603E0,6.675376892E0
4.090268329E1,8.871390224E-1,5.700900078E0,6.968497753E0
4.092279600E1,2.979064286E-1,5.413761139E0,7.511668682E0
4.094290865E1,-3.110669367E-2,5.245067120E0,8.299505234E0
4.096302136E1,1.052841991E-1,5.306084156E0,9.022137642E0
4.098313407E1,4.654040039E-1,5.329414368E0,9.442078590E0
4.100324673E1,2.392822653E-1,5.763711452E0,9.817152977E0
4.102335944E1,6.197410822E-1,5.971288681E0,9.607182503E0
4.104347214E1,9.403793216E-1,5.911468506E0,9.091529846E0
4.106358480E1,1.135394335E0,5.778666496E0,8.773882866E0
4.108369751E1,1.149751306E0,5.685945034E0,8.782855988E0
4.110381016E1,9.409775138E-1,5.619544029E0,8.706883430E0
4.112392287E1,4.073780477E-1,5.579464436E0,8.434700012E0
4.114403558E1,-5.491527915E-1,6.049654007E0,7.936992645E0
4.116414824E1,-1.217946768E0,6.455237389E0,7.545766354E0
4.118426095E1,-1.115055323E0,6.473183632E0,7.891529083E0
4.120437360E1,-9.242277741E-1,6.232106686E0,9.059824944E0
4.122448631E1,-6.981059909E-1,5.554339409E0,1.070429230E1
4.124459897E1,-4.959124923E-1,4.765306473E0,1.227517986E1
4.126471168E1,-3.074777126E-1,4.145565033E0,1.243609715E1
4.128482438E1,-3.888336718E-1,3.760919094E0,1.123849010E1
4.130493704E1,-4.695914388E-1,3.775275946E0,9.693922997E0
4.132504975E1,-5.581258535E-1,4.016352654E0,8.527421951E0
4.134516240E1,-9.475577474E-1,4.338785648E0,7.841877937E0
4.136527511E1,-1.486541033E0,4.695914268E0,7.270591736E0
4.138538777E1,-1.380658627E0,4.891527653E0,7.555935860E0
4.140550048E1,-8.105686903E-1,4.907679081E0,7.933403492E0
4.142561318E1,-2.877369225E-1,4.813162804E0,8.218149185E0
4.144572584E1,1.645065546E-1,4.630710125E0,8.742775917E0
4.146583855E1,3.702892959E-1,4.638486862E0,9.747162819E0
4.148595121E1,-1.686939895E-1,4.546362877E0,1.054457092E1
4.150606391E1,-9.990034699E-1,4.250251293E0,1.039621639E1
4.152617657E1,-1.562513232E0,4.092923164E0,9.122037888E0
4.154628928E1,-1.710868239E0,4.351946354E0,7.529016495E0
4.156640194E1,-1.619940877E0,4.928616524E0,6.524031162E0
4.158651464E1,-1.374078393E0,5.431109428E0,6.292525291E0
4.160662730E1,-1.184447169E0,5.660222054E0,6.748956203E0
4.162674001E1,-9.894321561E-1,5.582455158E0,7.362117290E0
4.164685301E1,-7.549355626E-1,5.349154949E0,7.710870743E0
4.166696571E1,-9.224331379E-1,5.204389095E0,7.528418064E0
4.168707837E1,-6.382854581E-1,5.277370453E0,6.899106026E0
4.170719108E1,3.708875179E-2,5.416153908E0,6.781259537E0
4.172730373E1,6.789634228E-1,5.411368370E0,7.353742123E0
4.174741644E1,9.918249846E-1,5.379663467E0,7.843672752E0
4.176752910E1,5.443671346E-1,5.490929604E0,7.666603565E0
4.178764181E1,-5.802594870E-2,5.389235020E0,7.453642368E0
4.180775446E1,-1.477568001E-1,5.467599869E0,7.820342541E0
4.182786717E1,1.118644550E-1,5.621338367E0,8.566305161E0
4.184797983E1,5.300102234E-1,5.842674732E0,9.026923180E0
4.186809254E1,9.619147182E-1,6.162116528E0,9.043074608E0
4.188820519E1,1.004387259E0,6.789634228E0,8.804390907E0
4.190831790E1,1.204786181E0,7.295117855E0,8.430512428E0
4.192843056E1,1.980060697E0,7.152146816E0,8.835497856E0
4.194854321E1,2.629113913E0,6.486942291E0,9.847063065E0
4.196865592E1,2.499303341E0,5.666203976E0,1.001635551E1
4.198876858E1,1.478764415E0,5.009972572E0,8.828917503E0
4.200888129E1,5.515456200E-1,4.675575256E0,7.398607731E0
4.202899394E1,-1.627119333E-1,4.768895626E0,6.372086525E0
4.204910665E1,-9.469595551E-1,5.399404526E0,5.809175014E0
4.206921931E1,-1.507478237E0,6.079564095E0,5.787639618E0
4.208933196E1,-1.362114310E0,6.276971817E0,6.649653912E0
4.210944467E1,-3.134597540E-1,5.904888153E0,8.015357971E0
4.212955733E1,8.165507317E-1,5.632106304E0,9.239884377E0
