"Time (s)","Acceleration x (m/s^2)","Acceleration y (m/s^2)","Acceleration z (m/s^2)"
1.213958800E-2,-5.340181828E0,4.779962540E0,5.967400551E0
3.093578600E-2,-4.765306473E0,4.827818871E0,6.209075451E0
4.973031700E-2,-3.928715706E0,4.621737003E0,7.181159973E0
6.852542100E-2,-3.439084291E0,4.396811485E0,7.972286701E0
8.732193200E-2,-3.248854876E0,4.197908401E0,8.250153542E0
1.061192240E-1,-3.357728481E0,4.231706619E0,8.162815094E0
1.249158380E-1,-3.319443226E0,4.353740692E0,7.974679470E0
1.437093280E-1,-3.181855917E0,4.393222332E0,8.107481003E0
1.625044840E-1,-3.138785124E0,4.275974274E0,7.963912010E0
1.813008380E-1,-3.096910715E0,3.987339735E0,7.965108395E0
2.000974010E-1,-2.525923491E0,3.460619688E0,8.193922043E0
2.188939110E-1,-2.218146563E0,2.924328327E0,8.295617104E0
2.376910990E-1,-2.333002090E0,2.461018085E0,8.797212601E0
2.564882340E-1,-2.854936600E0,2.338984251E0,1.038814068E1
2.752832860E-1,-2.373680115E0,1.947458506E0,1.103330517E1
2.940777130E-1,-1.988435626E0,1.171884894E0,1.090379333E1
3.128720880E-1,-2.467000246E0,5.506483316E-1,1.006480980E1
3.316661510E-1,-2.743670225E0,1.435693651E-1,9.545269012E0
3.504596400E-1,-3.569493294E0,-2.237289101E-1,9.060422897E0
3.692523490E-1,-4.588237286E0,1.938186288E-1,8.015357971E0
3.880465150E-1,-4.414757729E0,8.006982803E-1,7.794021606E0
4.068431300E-1,-4.080659866E0,1.890329868E-1,8.457132339E0
4.256382340E-1,-3.459423304E0,-3.245265782E-1,9.146564484E0
4.444331300E-1,-3.817449331E0,-3.819543123E-1,9.656535149E0
4.632293800E-1,-3.822235107E0,-6.595217586E-1,9.619445801E0
4.820244320E-1,-3.263211966E0,-6.355935335E-1,9.248259544E0
5.008183380E-1,-2.988934517E0,-4.334000051E-1,9.174081802E0
5.196129210E-1,-2.841775894E0,-1.280160099E-1,9.802496910E0
5.384077130E-1,-2.828615427E0,1.339980662E-1,1.050179958E1
5.572032860E-1,-3.339782238E0,-7.417750359E-2,1.036989498E1
5.759998490E-1,-3.592225075E0,-5.422734022E-1,1.029452133E1
5.947964630E-1,-3.744468451E0,-7.636095285E-1,1.038066292E1
6.135937550E-1,-3.463012457E0,-5.626124144E-1,1.091934681E1
6.323905780E-1,-3.501297712E0,-1.914258152E-1,1.141615677E1
6.511872440E-1,-3.732504129E0,-1.160518974E-1,1.088704395E1
6.699835460E-1,-3.693022728E0,-6.451647878E-1,1.012941647E1
6.887802130E-1,-4.423132420E0,-1.131206870E0,8.479864120E0
7.075777650E-1,-4.795515537E0,-5.985047817E-1,5.305186749E0
7.263749010E-1,-5.280062199E0,1.189831018E0,4.553541660E0
7.451712550E-1,-6.054738522E0,2.246860504E0,6.726224422E0
7.639677130E-1,-5.089832783E0,2.129612207E0,8.287241936E0
7.827644320E-1,-4.020839214E0,1.854138494E0,8.981459618E0
8.015614110E-1,-4.103391647E0,2.408375978E0,9.841081619E0
8.203577130E-1,-3.761218071E0,2.998505831E0,1.047069263E1
8.391552650E-1,-3.342175007E0,2.489732027E0,1.136830044E1
8.579521920E-1,-4.298706055E0,1.094118118E0,1.253898907E1
8.767493800E-1,-4.631308079E0,-2.045863420E-1,1.349671650E1
8.955467240E-1,-3.119642496E0,-1.407876968E0,1.330768299E1
9.143434420E-1,-1.783550143E0,-1.697408557E0,1.195843029E1
9.331425570E-1,-1.333400369E0,-8.656035662E-1,1.049222851E1
9.519410990E-1,-2.236092806E0,1.962114573E-1,9.392127991E0
9.707398490E-1,-6.403791308E-1,1.151545882E0,9.399306297E0
9.895397960E-1,9.541380405E-1,1.218544960E0,8.689236641E0
1.008341307E0,1.208973646E0,9.086744189E-1,6.856633186E0
1.027143026E0,-8.374879509E-2,3.556332588E-1,6.447161674E0
1.045942661E0,-1.285543919E0,-2.667997181E-1,6.878168583E0
1.064740838E0,-2.292324066E0,-7.121638656E-1,7.416852951E0
1.083540994E0,-3.951447487E0,-5.913262963E-1,8.014161110E0
1.102339692E0,-4.261617184E0,4.549354017E-1,8.029714584E0
1.121138286E0,-3.512065411E0,1.843370795E0,7.532904625E0
1.139937609E0,-2.780759096E0,2.813062191E0,7.269694328E0
1.158736828E0,-2.248056889E0,2.761616468E0,6.691528320E0
1.177533651E0,-1.511964798E0,2.123630047E0,6.951149940E0
1.196330474E0,-5.697908998E-1,1.253240824E0,7.869395256E0
1.215128963E0,-8.401798606E-1,6.451647878E-1,8.971888542E0
1.233928182E0,-1.995614052E0,7.253243923E-1,1.014257717E1
1.252728234E0,-2.092523336E0,7.779664397E-1,1.051137066E1
1.271528338E0,-1.856531262E0,9.062815905E-1,1.032203865E1
1.290325526E0,-2.340180635E0,9.972088337E-1,9.551250458E0
1.309122244E0,-3.077469110E0,9.816554785E-1,9.280861855E0
1.327919536E0,-3.651148319E0,9.517452121E-1,9.321539879E0
1.346716671E0,-3.971786499E0,7.636095285E-1,9.177671432E0
1.365513494E0,-3.888037682E0,3.783650696E-1,9.120243073E0
1.384311880E0,-3.629313707E0,-2.177468538E-1,9.304789543E0
1.403109380E0,-3.301496983E0,-5.985047817E-1,9.377771378E0
1.421906463E0,-3.358924866E0,-6.080760360E-1,9.945169449E0
1.440702921E0,-4.240081787E0,7.537391037E-2,1.098903847E1
1.459500838E0,-4.973781109E0,6.750751138E-1,1.176580811E1
1.478297192E0,-4.646861553E0,8.413762450E-1,1.229851055E1
1.497094119E0,-2.844168901E0,5.623133108E-2,1.277617741E1
1.515890682E0,-1.486840129E0,-6.966105103E-1,1.258684540E1
1.534789484E0,-1.332203984E0,-1.442572951E0,1.142931747E1
1.553587349E0,-2.365305185E0,-2.147558212E0,1.052572727E1
1.572391411E0,-3.766003847E0,-2.439482689E0,1.004566765E1
1.591197921E0,-4.577469826E0,-2.504088879E0,9.378967285E0
1.610002921E0,-4.749752998E0,-2.327019930E0,8.397312164E0
1.628809484E0,-4.372883320E0,-2.072184324E0,7.802396297E0
1.647614484E0,-3.537189960E0,-1.960619092E0,7.985447407E0
1.666421046E0,-2.853740215E0,-1.826620936E0,8.502595901E0
1.685226046E0,-2.199003935E0,-1.622034669E0,8.851051331E0
1.704032609E0,-1.666301847E0,-1.357328653E0,8.816354752E0
1.722837609E0,-1.452144265E0,-9.720842242E-1,8.841479301E0
1.741644119E0,-1.189831018E0,-4.345964193E-1,8.987442017E0
1.760449171E0,-8.584251404E-1,2.934198678E-1,8.797212601E0
1.779255682E0,-6.308078766E-1,1.116850019E0,8.172386169E0
1.798060734E0,-7.791628838E-1,1.954637051E0,7.498209000E0
1.816867244E0,-4.824528694E-1,2.462214470E0,7.095018387E0
1.835672296E0,3.589233849E-3,2.761616468E0,6.978667259E0
1.854478807E0,3.352942765E-1,3.000898600E0,6.856633186E0
1.873283807E0,5.662016869E-1,3.166302681E0,6.592226505E0
1.892090369E0,6.188437343E-1,3.273979664E0,6.556334019E0
1.910895369E0,1.830509305E-1,3.315854073E0,6.748956203E0
1.929701932E0,-4.298107624E-1,3.415156126E0,6.908079147E0
1.948506932E0,-8.174480200E-1,3.477369547E0,6.943971157E0
1.967313494E0,-6.834499836E-1,3.405584812E0,7.110571384E0
1.986118494E0,1.016949639E-1,2.804687262E0,8.679664612E0
2.004925057E0,-4.546362907E-2,1.460519075E0,1.196800137E1
2.023730057E0,-1.820638895E0,1.004985496E-1,1.414547062E1
2.042536619E0,-2.938685417E0,2.153540403E-1,1.343210983E1
2.061341619E0,-2.042274237E0,1.465304732E0,1.277378464E1
2.080148182E0,4.525425732E-1,1.727318883E0,1.135992527E1
2.098953182E0,2.752045155E0,1.776371717E0,1.124267673E1
2.117759744E0,3.785146236E0,2.037488461E0,1.228295708E1
2.136564744E0,3.577867985E0,2.504088879E0,1.288983631E1
2.155371307E0,3.473780155E0,3.326621771E0,1.258804131E1
2.174176307E0,3.574278831E0,3.811467409E0,1.160788155E1
2.192982921E0,3.297907829E0,4.106980801E0,1.064058304E1
2.211787869E0,2.984148979E0,3.885644913E0,9.441181183E0
2.230588078E0,2.947060108E0,3.385245800E0,9.148957253E0
2.249382244E0,2.949453115E0,2.772384167E0,9.535696983E0
2.268174588E0,2.833401203E0,2.007578135E0,9.961918831E0
2.286967140E0,2.255235434E0,1.471286774E0,1.016650486E1
2.305761828E0,1.722533226E0,1.388435364E0,9.675677299E0
2.324556046E0,1.496411443E0,1.516750455E0,8.588737488E0
2.343350213E0,1.269990563E0,1.738086581E0,7.358228683E0
2.362143859E0,1.055832982E0,1.899602056E0,6.224628925E0
2.380938130E0,6.571289301E-1,1.984846354E0,5.283651352E0
2.399733078E0,-2.033899166E-2,2.114058733E0,4.848157883E0
2.418526776E0,-6.918248534E-1,2.327019930E0,4.811069012E0
2.437319328E0,-1.080957651E0,2.415554523E0,5.220241547E0
2.456113859E0,-1.339382529E0,2.298306227E0,6.390930176E0
2.474909119E0,-1.746461391E0,2.050648928E0,7.564011574E0
2.493704015E0,-2.219342947E0,1.723729610E0,8.236992836E0
2.512497661E0,-2.513660192E0,1.480858088E0,8.824729919E0
2.531290526E0,-2.431107759E0,1.315454245E0,1.009830952E1
2.550084849E0,-2.112862349E0,1.255633712E0,1.163898849E1
2.568879536E0,-2.293520451E0,1.104885817E0,1.260598755E1
2.587674224E0,-2.157129526E0,8.715856671E-1,1.241575813E1
2.606468807E0,-2.499303341E0,1.998006850E-1,1.361755371E1
2.625263599E0,-1.983649969E0,-2.991028316E-2,1.495005703E1
2.644056932E0,-1.427019596E0,-8.973085135E-2,1.538794327E1
2.662851151E0,-1.602892041E0,-3.005983531E-1,1.490220070E1
2.681644328E0,-1.396810174E0,-9.146564603E-1,1.486002636E1
2.700438703E0,-1.210170031E0,-1.952244163E0,1.569213104E1
2.719231463E0,-1.447358608E0,-2.967399120E0,1.661516190E1
2.738026411E0,-1.844567180E0,-3.246462107E0,1.605015755E1
2.756823390E0,-1.814656854E0,-2.774776936E0,1.393370533E1
2.775619692E0,-1.581356645E0,-1.933101535E0,1.114217854E1
2.794414067E0,-1.669891119E0,-1.108475089E0,8.555238724E0
2.813207557E0,-1.971685886E0,-4.034897089E-1,6.963113785E0
2.832001411E0,-2.045863390E0,1.986042857E-1,6.465406895E0
2.850796255E0,-2.013560295E0,5.530411601E-1,5.992525101E0
2.869591046E0,-1.923530340E0,6.738786697E-1,5.571089268E0
2.888385265E0,-1.807478428E0,7.097710371E-1,5.480162144E0
2.907179224E0,-1.600499272E0,6.415755749E-1,5.909972668E0
2.925974744E0,-1.345364571E0,6.140581369E-1,6.702296257E0
2.944769119E0,-8.931210637E-1,7.265207767E-1,7.103393078E0
2.963562869E0,-5.147559643E-1,9.972088337E-1,6.982256413E0
2.982356255E0,-1.076770201E-1,1.256830096E0,6.612565517E0
3.001150421E0,-1.052841991E-1,1.332203984E0,6.886543751E0
3.019944067E0,4.764707983E-1,1.314257860E0,7.624131203E0
3.038737609E0,8.955138922E-1,1.478465319E0,8.380561829E0
3.057530474E0,9.110672474E-1,1.565803289E0,8.527720451E0
3.076325057E0,8.464609981E-1,1.696212173E0,8.359026909E0
3.095119953E0,7.408776879E-1,1.897209287E0,7.911269665E0
3.113914640E0,6.870391965E-1,2.143969059E0,7.396513939E0
3.132710421E0,9.481559992E-1,2.109273195E0,7.036394119E0
3.151505682E0,1.198205948E0,1.665105462E0,7.099803925E0
3.170300005E0,9.266205430E-1,9.960124493E-1,7.902894974E0
3.189093234E0,5.961119533E-1,5.757729411E-1,8.467900276E0
3.207887349E0,1.347757339E0,-7.169494629E-1,8.660522461E0
3.226680890E0,2.804687262E0,-2.714956284E0,1.037348461E1
3.245475005E0,3.616153240E0,-4.462614059E0,1.463510132E1
3.264268599E0,2.924328327E0,-4.692325115E0,1.848246193E1
3.283062244E0,1.705783486E0,-4.222135544E0,1.878874207E1
3.301855734E0,1.363310695E0,-4.234099865E0,1.575314808E1
3.320647036E0,1.501197100E0,-4.136891365E0,1.263739395E1
3.339438599E0,1.454537034E0,-3.424727440E0,1.120917797E1
3.358230890E0,1.453340650E0,-2.573779821E0,1.096271706E1
3.377025317E0,1.896012783E0,-1.928315997E0,1.059631634E1
3.395817974E0,2.385644197E0,-1.572981834E0,9.291629791E0
3.414610890E0,2.577368975E0,-1.339382529E0,7.774878979E0
3.433404536E0,2.288734913E0,-1.313061476E0,6.705885410E0
3.452199484E0,1.611266971E0,-1.317847013E0,6.510870457E0
3.470993026E0,8.656035662E-1,-1.158724308E0,7.023233414E0
3.489784901E0,1.639083475E-1,-9.756734371E-1,6.888936520E0
3.508576671E0,-3.077768087E-1,-8.186444640E-1,6.216254234E0
3.527370630E0,-5.267201066E-1,-6.882356405E-1,5.648856163E0
3.546163546E0,-6.906284094E-1,-4.465605319E-1,5.739783287E0
3.564956411E0,-7.911269665E-1,-3.053839803E-1,5.988935947E0
3.583750317E0,-8.727820516E-1,-5.889334679E-1,7.135696411E0
3.602544640E0,-8.365905881E-1,-9.888339639E-1,9.083154678E0
3.621338807E0,-1.048654556E0,-1.672283888E0,1.025264645E1
3.640131411E0,-1.569392562E0,-2.397608280E0,1.248634720E1
3.658924171E0,-2.390429735E0,-2.738884687E0,1.589312840E1
3.677717713E0,-3.230908871E0,-2.615654230E0,1.719811440E1
3.696509692E0,-3.807878017E0,-2.102094650E0,1.582253933E1
3.715301828E0,-3.727718592E0,-1.095314622E0,1.401386452E1
3.734094744E0,-3.128017426E0,5.503492057E-2,1.255454254E1
3.752887557E0,-2.428714991E0,1.339382529E0,1.157677460E1
3.771681619E0,-1.477268934E0,1.767996788E0,1.180050373E1
3.790474640E0,-4.010969102E-1,1.316650629E0,1.295444298E1
3.809268234E0,6.092724800E-1,5.973083377E-1,1.419691563E1
3.828063234E0,7.133602500E-1,1.052841991E-1,1.433360577E1
3.846856151E0,-1.663011760E-1,2.644068897E-1,1.239541912E1
3.865648026E0,-7.971090674E-1,5.051847100E-1,9.595518112E0
3.884440109E0,-1.229312658E0,9.014959335E-1,7.832306862E0
3.903232713E0,-1.465304732E0,1.381256819E0,7.291229725E0
3.922025630E0,-1.458126307E0,1.678265929E0,7.298408031E0
3.940817453E0,-1.167099237E0,1.907976985E0,7.427620411E0
3.959609849E0,-8.174480200E-1,2.068595171E0,7.212266445E0
3.978402505E0,-4.405784607E-1,1.888834357E0,6.842276573E0
3.997197349E0,-2.632104978E-2,1.295115232E0,7.328318596E0
4.015992036E0,2.596212626E-1,5.985047817E-1,8.755337715E0
4.034787453E0,5.111667514E-1,1.938186288E-1,1.010788059E1
4.053582609E0,8.174480200E-1,1.854437590E-1,1.018445110E1
4.072376411E0,1.037886858E0,4.657031000E-1,9.237491608E0
4.091170786E0,1.143171072E0,1.068993568E0,8.126624107E0
4.109966203E0,1.561017632E0,1.624427438E0,7.223034382E0
4.128761203E0,1.817049742E0,2.322234392E0,6.617351055E0
4.147555630E0,1.972882271E0,2.903989315E0,6.053542137E0
4.166349328E0,2.017149448E0,3.233301640E0,5.658427238E0
4.185144536E0,2.033899307E0,3.412763357E0,5.549553871E0
4.203940369E0,2.001596212E0,3.535993576E0,5.854638577E0
4.222735421E0,1.872084618E0,3.503690481E0,6.303592205E0
4.241528651E0,2.015953064E0,3.367299557E0,6.934400082E0
4.260321984E0,2.323430777E0,3.269193888E0,8.239385605E0
4.279116984E0,2.718545675E0,2.978166819E0,9.171689034E0
4.297912921E0,2.999702215E0,2.435893536E0,9.896116257E0
4.316706880E0,2.637189627E0,2.234896421E0,1.105603695E1
4.335501515E0,2.303091764E0,2.394019127E0,1.146879864E1
4.354297401E0,2.212164640E0,2.143969059E0,1.153968620E1
4.373092609E0,2.269592285E0,1.794317842E0,1.188903809E1
4.391888234E0,2.380858421E0,1.019940615E0,1.288864040E1
4.410683599E0,2.007578135E0,4.573282301E-1,1.433839130E1
4.429479796E0,1.205384374E0,6.128616929E-1,1.467936897E1
4.448274953E0,8.389834166E-1,9.457631707E-1,1.335553932E1
4.467069484E0,7.624131441E-1,1.234098315E0,1.154686451E1
4.485864119E0,7.624131441E-1,1.677069545E0,1.014138031E1
4.504658859E0,8.955138922E-1,2.137987137E0,8.884550095E0
4.523452036E0,1.280758262E0,2.471785784E0,7.797610760E0
4.542246099E0,1.783550143E0,2.652743101E0,7.102196693E0
4.561041203E0,2.079362869E0,2.490928411E0,6.801598549E0
4.579837349E0,2.208575249E0,1.975275040E0,7.162017345E0
4.598632661E0,1.959422588E0,1.314257860E0,7.743772507E0
4.617426463E0,1.456929922E0,8.512466550E-1,8.525327682E0
4.636220890E0,8.871390224E-1,6.511468887E-1,8.945567131E0
4.655015369E0,2.608176768E-1,7.887341380E-1,8.402097702E0
4.673809744E0,-3.948157281E-2,1.121635556E0,7.462316513E0
4.692604744E0,-1.196411327E-1,1.492822170E0,6.610172749E0
4.711400265E0,-1.519442350E-1,1.875673890E0,6.301199436E0
4.730196880E0,-1.244267747E-1,2.122433662E0,6.503692150E0
4.748991776E0,-2.416750938E-1,2.160718918E0,6.937989235E0
4.767787140E0,-2.850449979E-1,1.994417667E0,7.595417500E0
4.786584276E0,-4.357928336E-1,1.879263043E0,8.702695847E0
4.805381776E0,-9.361918569E-1,1.957029819E0,9.760622978E0
4.824176515E0,-1.345364571E0,1.892423630E0,1.083799076E1
4.842971724E0,-1.594517231E0,1.916351795E0,1.200509071E1
4.861768546E0,-1.720140338E0,1.930708766E0,1.288385487E1
4.880565369E0,-1.808674812E0,1.980060697E0,1.395284748E1
4.899360994E0,-1.519143224E0,2.124826431E0,1.423041534E1
4.918158234E0,-5.303093195E-1,2.048256159E0,1.410359573E1
4.936953703E0,1.746760458E-1,1.722533226E0,1.513430405E1
4.955748130E0,7.169494629E-1,1.027119160E0,1.651914978E1
4.974543546E0,8.739784956E-1,1.387837082E-1,1.704826355E1
4.993339588E0,2.727817893E-1,-3.113660514E-1,1.619851112E1
5.012136359E0,-5.530411601E-1,-6.580262631E-2,1.375783253E1
5.030932713E0,-1.001994491E0,3.233301640E-1,1.077817059E1
5.049728390E0,-1.289133191E0,8.246265054E-1,8.686843872E0
5.068522817E0,-1.474876046E0,1.322632670E0,7.506583691E0
5.087319588E0,-1.607677698E0,1.717747569E0,6.955935478E0
5.106115786E0,-1.805085540E0,2.039881229E0,6.689135551E0
5.124911515E0,-1.959422588E0,2.178664923E0,6.319145679E0
5.143706619E0,-1.879263043E0,2.006381750E0,6.224628925E0
5.162502765E0,-1.562214136E0,1.540678620E0,6.874579430E0
5.181298130E0,-1.089332461E0,8.787640929E-1,8.737391472E0
5.200094588E0,-7.971090674E-1,5.374878049E-1,1.070160007E1
5.218890109E0,-5.602195859E-1,7.983054519E-1,1.136949635E1
5.237684380E0,-4.546362907E-2,1.348953724E0,1.056042385E1
5.256479744E0,6.367899179E-1,2.042274237E0,8.939585686E0
5.275273599E0,9.852447510E-1,2.713759899E0,7.523333549E0
5.294067609E0,1.197009563E0,3.260818958E0,6.904489517E0
5.312861932E0,1.372882009E0,3.722932816E0,6.946363926E0
5.331657453E0,1.448554993E0,3.962215185E0,7.249355316E0
5.350452453E0,1.460519075E0,4.071088791E0,7.831110477E0
5.369246046E0,1.613659739E0,4.201497555E0,7.877770424E0
5.388040161E0,1.918744683E0,4.287938118E0,8.160422325E0
5.406835682E0,1.961815476E0,4.430311203E0,9.327521324E0
5.425632140E0,1.657927036E0,4.582255363E0,9.940383911E0
5.444427505E0,1.453340650E0,4.799104691E0,9.798908234E0
5.463223078E0,1.161117196E0,5.277669430E0,9.268898010E0
5.482017974E0,7.037889361E-1,6.036792278E0,8.160422325E0
5.500813078E0,6.954140663E-1,6.473781586E0,7.441977501E0
5.519608546E0,1.204187989E0,6.445965290E0,7.986643791E0
5.538404640E0,2.103291035E0,5.752943993E0,9.522537231E0
5.557200734E0,2.443071842E0,4.699503899E0,1.115055370E1
5.575997921E0,1.813460469E0,3.967000723E0,1.226022530E1
5.594793494E0,7.707880139E-1,3.631706476E0,1.156002522E1
5.613590994E0,-3.349951655E-2,3.401995659E0,9.737891197E0
5.632388599E0,-5.709872842E-1,3.334996462E0,8.338687897E0
5.651185630E0,-8.365905881E-1,3.602992773E0,7.297211647E0
5.669982244E0,-7.887341380E-1,4.024428368E0,6.209075451E0
5.688779015E0,-7.169494629E-1,4.326223373E0,5.324329376E0
5.707575161E0,-5.003990531E-1,4.441078663E0,5.053940296E0
5.726371776E0,-2.524427772E-1,4.277170658E0,5.554339409E0
5.745168234E0,-1.507478207E-1,4.049553394E0,6.792026997E0
5.763964744E0,-4.546362907E-2,4.130908966E0,7.648059368E0
5.782760213E0,3.589233849E-3,4.472185612E0,7.331907749E0
5.801555109E0,-1.088734269E-1,4.997709274E0,6.368198395E0
5.820350474E0,-1.555334777E-1,5.573482037E0,5.917151451E0
5.839146776E0,-3.340978622E-1,5.908776283E0,5.981757641E0
5.857944328E0,-6.415755749E-1,5.987739563E0,6.204289913E0
5.876741411E0,-7.013961077E-1,6.005685806E0,6.626922131E0
5.895536463E0,-4.274179339E-1,5.886941910E0,7.426424026E0
5.914329328E0,-7.776673883E-2,5.751747608E0,8.518149376E0
5.933124067E0,2.703889608E-1,5.775675774E0,9.400503159E0
5.951919432E0,3.376871049E-1,6.005685806E0,9.642177582E0
5.970714328E0,2.488535494E-1,6.279664040E0,9.260522842E0
5.989508651E0,5.171487927E-1,6.344270229E0,9.158528328E0
6.008304640E0,8.739784956E-1,6.387341022E0,9.624231339E0
6.027099901E0,9.074779749E-1,6.362216473E0,1.007438183E1
6.045895109E0,3.376871049E-1,6.430411816E0,9.820742607E0
6.064689484E0,-3.245265782E-1,6.683153629E0,9.116654396E0
6.083483911E0,-1.375873089E-1,6.622136593E0,8.532505989E0
6.102277765E0,6.738786697E-1,6.142076492E0,9.008976936E0
6.121073130E0,1.406680584E0,5.086243629E0,1.107398319E1
6.139869067E0,1.764407635E0,3.515654564E0,1.294846058E1
6.158664119E0,1.387238979E0,2.821436882E0,1.308485126E1
6.177458703E0,7.480561733E-1,3.120838881E0,1.100937653E1
6.196254224E0,3.233301640E-1,3.543172121E0,8.264510155E0
6.215048911E0,5.623133108E-2,3.967000723E0,6.763313293E0
6.233844588E0,-4.905286431E-2,4.384847641E0,6.599404812E0
6.252640265E0,-2.213360965E-1,4.731806755E0,6.798008919E0
6.271434224E0,-5.362913609E-1,4.852943420E0,6.563512325E0
6.290228130E0,-6.403791308E-1,4.870889664E0,6.259325027E0
6.309023286E0,-5.279164910E-1,4.824229717E0,6.361020088E0
6.327817765E0,-2.129612118E-1,4.675575256E0,6.885347366E0
6.346610838E0,1.926222295E-1,4.429114819E0,7.529315472E0
6.365403494E0,4.070789516E-1,4.242474556E0,8.117053032E0
6.384195786E0,4.142574072E-1,4.268795490E0,8.314759254E0
6.402990890E0,2.309073806E-1,4.439882278E0,8.054839134E0
6.421785994E0,1.507478207E-1,4.658825874E0,7.529315472E0
6.440580786E0,2.739782035E-1,4.838586330E0,7.051947594E0
6.459375994E0,4.345964193E-1,4.998905659E0,6.778866768E0
6.478170265E0,5.841478109E-1,5.045565605E0,6.861418724E0
6.496963755E0,8.054839373E-1,5.034798145E0,7.257730007E0
6.515755942E0,8.389834166E-1,5.021637440E0,7.437191963E0
6.534547921E0,6.846463680E-1,5.159224510E0,7.408477783E0
6.553342349E0,8.090731502E-1,5.022833824E0,7.817949772E0
6.572135994E0,8.318049908E-1,4.963013172E0,8.803194046E0
6.590930474E0,7.325028181E-1,5.009673119E0,9.878170013E0
6.609724796E0,3.783650696E-1,5.164010525E0,9.955936432E0
6.628519328E0,-1.698904037E-1,5.894419670E0,9.347860336E0
6.647313286E0,3.915255964E-1,6.144469261E0,9.074779510E0
6.666107453E0,2.006381750E0,5.592624664E0,1.022512913E1
6.684902244E0,3.257229805E0,4.398007870E0,1.234397411E1
6.703697036E0,3.726522207E0,3.055933714E0,1.421366596E1
6.722491619E0,3.242872953E0,2.644368172E0,1.429143238E1
6.741286724E0,2.527119875E0,2.797508717E0,1.227577877E1
6.760083286E0,2.078166485E0,2.852543592E0,1.006361389E1
6.778876828E0,1.521536112E0,3.041576624E0,8.514560699E0
6.797669224E0,1.119242787E0,3.413959742E0,7.489833832E0
6.816462557E0,1.167099237E0,3.792324781E0,6.629314899E0
6.835257557E0,1.279561877E0,4.129712582E0,5.933900833E0
6.854051724E0,1.344168067E0,4.301098824E0,5.718247890E0
6.872843755E0,1.393221021E0,4.393222332E0,5.991328716E0
6.891638703E0,1.423430324E0,4.370490551E0,6.301199436E0
6.910433599E0,1.592124343E0,4.368097782E0,6.594619274E0
6.929226776E0,1.495215058E0,4.319045067E0,6.646064758E0
6.948021255E0,1.096511006E0,4.325026989E0,6.783652306E0
6.966815057E0,7.253243923E-1,4.382454872E0,6.960721016E0
6.985609796E0,4.752743840E-1,4.485345840E0,7.048357964E0
7.004403286E0,4.417748749E-1,4.612165451E0,7.135696411E0
7.023197140E0,7.025925517E-1,4.767699242E0,7.286444187E0
7.041991099E0,9.900303483E-1,4.850550652E0,7.552047253E0
7.060785526E0,1.144367456E0,4.860121727E0,7.849056244E0
7.079580005E0,1.163509965E0,4.811069012E0,8.240582466E0
7.098375421E0,1.013958573E0,4.821836948E0,8.794819832E0
7.117169744E0,9.158528447E-1,4.875675201E0,9.201599121E0
7.135964901E0,7.971090674E-1,5.026422977E0,9.065208435E0
7.154759119E0,5.267201066E-1,5.235795021E0,8.934800148E0
7.173554119E0,2.009970993E-1,5.370092392E0,9.120243073E0
7.192350578E0,-1.375873089E-1,5.537590027E0,9.746265411E0
7.211145526E0,-1.411765367E-1,5.798407555E0,1.054965591E1
7.229940265E0,5.051847100E-1,5.465805054E0,1.119601727E1
7.248733546E0,1.119242787E0,4.910371304E0,1.229013538E1
7.267528963E0,1.461715579E0,3.934697628E0,1.321316624E1
7.286325265E0,1.338186026E0,2.929114103E0,1.338186073E1
7.305121463E0,5.554339290E-1,2.630011082E0,1.248395348E1
7.323915890E0,-1.663011760E-1,2.915953398E0,1.063460159E1
7.342710005E0,-5.793621540E-1,3.198605776E0,9.053244591E0
7.361504692E0,-7.935197949E-1,3.527618885E0,8.483453751E0
7.380297661E0,-7.109674215E-1,3.768396616E0,8.374580383E0
7.399141776E0,-4.417748749E-1,3.945465326E0,8.445168495E0
7.417995786E0,-1.423729509E-1,3.959822416E0,8.709874153E0
7.436801411E0,3.628117442E-1,3.904787540E0,8.768498421E0
7.455607140E0,1.015154958E0,3.751646757E0,8.809176445E0
7.474412869E0,1.347757339E0,3.537189960E0,9.522537231E0
7.493218599E0,1.334596872E0,3.299104214E0,1.005882835E1
7.512024328E0,1.030708313E0,3.209373474E0,9.792925835E0
7.530830057E0,7.265207767E-1,3.470191002E0,8.733802795E0
7.549635734E0,7.851449251E-1,3.835395575E0,7.372585773E0
7.568441463E0,8.234301209E-1,4.079463482E0,6.644868374E0
7.587247192E0,6.990033388E-1,4.183551311E0,6.710670948E0
7.606052921E0,5.757729411E-1,4.206283092E0,6.989434719E0
7.624858651E0,6.068796515E-1,4.154837608E0,7.089035988E0
7.643664432E0,6.439684033E-1,4.093820572E0,7.339086056E0
7.662470109E0,6.798607111E-1,4.136891365E0,7.764111042E0
7.681275890E0,8.464609981E-1,4.278367043E0,7.863413334E0
7.700081619E0,8.715856671E-1,4.378865242E0,7.874181271E0
7.718887349E0,7.360920906E-1,4.558327198E0,8.189136505E0
7.737693078E0,6.140581369E-1,4.712664127E0,8.836693764E0
7.756498807E0,6.571289301E-1,4.881657124E0,9.434001923E0
7.775304536E0,4.896313250E-1,5.277669430E0,9.254241943E0
7.794110265E0,2.787638307E-1,5.797211170E0,8.853444099E0
7.812915994E0,8.078767657E-1,5.758925915E0,8.568398476E0
7.831721724E0,1.909173369E0,5.104189873E0,9.119047165E0
7.850527453E0,2.688635349E0,3.768396616E0,1.101535892E1
7.869333182E0,2.500499725E0,2.682653189E0,1.318415356E1
7.888138963E0,1.684248090E0,2.598904610E0,1.330170155E1
7.906944692E0,1.204187989E0,2.807080030E0,1.139821053E1
7.925750474E0,1.135992527E0,3.021237612E0,9.761818886E0
7.944556151E0,1.114457130E0,3.279961586E0,8.981459618E0
7.963361932E0,9.553344250E-1,3.598206997E0,8.222636223E0
7.982163651E0,1.010369420E0,3.825824261E0,7.340282440E0
8.000957505E0,1.115653515E0,4.006482601E0,6.817151546E0
8.019752869E0,1.188634634E0,4.127319813E0,6.709474564E0
8.038548807E0,1.238883972E0,4.166801453E0,6.600601196E0
8.057345474E0,1.342971683E0,4.020839214E0,6.622136593E0
8.076141619E0,1.255633712E0,3.850949049E0,7.102196693E0
8.094936828E0,9.230313301E-1,3.702594042E0,7.748558044E0
8.113731515E0,3.556332588E-1,3.737289906E0,7.791628838E0
8.132525109E0,-1.914258115E-2,3.929912090E0,7.358228683E0
8.151320109E0,-1.304088384E-1,4.323830605E0,7.178767204E0
8.170115265E0,1.363908947E-1,4.643272400E0,7.268497944E0
8.188908651E0,4.310071766E-1,4.940281391E0,7.681559086E0
8.207702192E0,7.169494629E-1,5.053940296E0,8.081160545E0
8.226495890E0,8.186444640E-1,5.126921654E0,8.429615021E0
8.245288911E0,8.186444640E-1,5.256134033E0,8.775676727E0
8.264083130E0,8.823533654E-1,5.422734261E0,9.262915611E0
8.282876671E0,1.235294700E0,5.443073273E0,9.736694336E0
8.301672036E0,1.407876968E0,5.394020557E0,1.031725311E1
8.320466255E0,1.298704505E0,5.337789059E0,1.063340473E1
8.339261828E0,1.052243710E0,5.197509766E0,1.078056335E1
8.358057609E0,4.250251353E-1,5.231009483E0,1.059990501E1
8.376852505E0,5.742774159E-2,5.210670471E0,9.953543663E0
8.395645838E0,2.512463741E-2,4.892425060E0,9.639784813E0
8.414438130E0,3.329014480E-1,4.196712017E0,1.020479012E1
8.433231724E0,5.243272781E-1,3.156731367E0,1.152173996E1
8.452026463E0,2.991028316E-2,2.597707987E0,1.185434246E1
8.470820057E0,-6.116653085E-1,2.734098911E0,1.034118080E1
8.489612609E0,-7.779664397E-1,3.057130098E0,8.283653259E0
8.508406567E0,-7.396813035E-1,3.417548895E0,7.444370270E0
8.527199901E0,-6.547361016E-1,3.664308786E0,7.728219032E0
8.545993703E0,-6.308078766E-1,3.769593000E0,8.166404724E0
8.564786671E0,-5.135595798E-1,3.821038723E0,8.168797493E0
8.583580369E0,-1.196411327E-1,3.847359657E0,7.950751305E0
8.602373651E0,3.329014480E-1,3.909573078E0,7.875377655E0
8.621167765E0,6.834499836E-1,3.901198149E0,8.120641708E0
8.639960109E0,7.839485407E-1,3.815056562E0,8.493024826E0
8.658753286E0,6.966105103E-1,3.794717550E0,8.804390907E0
8.677546619E0,6.008976102E-1,3.946661949E0,8.764909744E0
8.696339849E0,5.638088584E-1,4.185944080E0,8.397312164E0
8.715133963E0,5.530411601E-1,4.430311203E0,7.880163193E0
8.733927974E0,6.152545214E-1,4.615755081E0,7.507780075E0
8.752721099E0,7.097710371E-1,4.735395908E0,7.296015263E0
8.771513703E0,6.439684033E-1,4.722235680E0,7.486244678E0
8.790308234E0,5.721837282E-1,4.664807796E0,8.006982803E0
8.809100994E0,6.499504447E-1,4.643272400E0,8.057231903E0
8.827894276E0,8.318049908E-1,4.638486862E0,7.935198307E0
8.846689692E0,8.608179688E-1,4.654039860E0,8.001000404E0
8.865482244E0,7.109674215E-1,4.467400074E0,8.501399994E0
8.884274015E0,5.518447161E-1,4.384847641E0,9.451948166E0
8.903066828E0,8.222336769E-1,4.296313286E0,9.573982239E0
8.921860369E0,7.073782086E-1,4.518845558E0,9.717552185E0
8.940653703E0,1.136590764E-1,5.388038158E0,9.838688850E0
8.959446515E0,2.249253243E-1,5.245366573E0,9.455537796E0
8.978239484E0,7.504490018E-1,4.392025948E0,9.638588905E0
8.997032036E0,1.630409479E0,3.037987471E0,1.052812099E1
9.015824901E0,2.099701881E0,2.036292076E0,1.182562828E1
9.034617921E0,1.732104540E0,2.015953064E0,1.226022530E1
9.053413442E0,1.259222865E0,2.385644197E0,1.116491032E1
9.072207036E0,1.217348576E0,2.510071039E0,1.001934624E1
9.090999119E0,1.442572951E0,2.692224503E0,9.892526627E0
9.109793078E0,1.790728688E0,2.954238653E0,9.894919395E0
9.128587401E0,2.367697954E0,3.196212769E0,9.184849739E0
9.147381099E0,3.130410194E0,3.390031576E0,8.400900841E0
9.166172713E0,3.540779352E0,3.449851990E0,8.303992271E0
9.184965369E0,3.393620729E0,3.314657450E0,8.175975800E0
9.203757817E0,3.037987471E0,3.005684376E0,7.558029652E0
9.222551255E0,2.551048040E0,2.854936600E0,6.842276573E0
9.241344536E0,1.872084618E0,2.895614386E0,6.136094570E0
9.260137609E0,1.138385415E0,3.060719252E0,5.390431404E0
9.278932088E0,4.884349108E-1,3.326621771E0,4.660022259E0
9.297726932E0,6.580262631E-2,3.546761274E0,4.041178226E0
9.316519484E0,-8.015955985E-2,3.679862022E0,3.743271828E0
9.335313286E0,1.890329868E-1,3.696611881E0,3.995714664E0
9.354108442E0,6.750751138E-1,3.676272869E0,4.703093052E0
9.372902244E0,1.097707391E0,3.269193888E0,6.134898186E0
9.391694328E0,1.535893083E0,2.628814697E0,8.773283958E0
9.410486671E0,1.808674812E0,2.325823545E0,1.223390388E1
9.429279171E0,1.821835399E0,2.274377823E0,1.446521091E1
9.448072713E0,1.899602056E0,2.365305185E0,1.464826202E1
9.466863911E0,1.631605983E0,3.055933714E0,1.354457283E1
9.485655421E0,7.576274872E-1,3.957429647E0,1.280249882E1
9.504448859E0,-2.273181453E-2,4.494917393E0,1.282403374E1
9.523242088E0,-4.357928336E-1,4.970191956E0,1.298435307E1
9.542034015E0,-4.106681943E-1,5.239384174E0,1.302622700E1
9.560825942E0,-7.657032460E-2,5.154438972E0,1.279890919E1
9.579619692E0,8.500502706E-1,4.869693279E0,1.249113274E1
9.598414119E0,1.771586061E0,4.165605068E0,1.285753345E1
9.617207036E0,2.122433662E0,3.128017426E0,1.314347553E1
9.636001411E0,1.653141379E0,2.752045155E0,1.175743294E1
9.654794224E0,8.365905881E-1,2.736491680E0,9.810872078E0
9.673587505E0,7.298108935E-2,2.832204819E0,8.514560699E0
9.692380578E0,-4.310071766E-1,2.962613583E0,7.886145115E0
9.711174380E0,-3.987040818E-1,3.166302681E0,7.584649563E0
9.729968442E0,2.249253243E-1,3.205784082E0,7.785646915E0
9.748763807E0,1.030708313E0,2.803490877E0,9.000602722E0
9.767558286E0,1.354935765E0,1.995614052E0,1.157797146E1
9.786352609E0,1.587338686E0,1.034297585E0,1.352303696E1
9.805147349E0,1.441376567E0,9.571290761E-2,1.436590862E1
9.823940265E0,9.948160052E-1,-6.008976102E-1,1.373599815E1
9.842733390E0,4.441677034E-1,-9.888339639E-1,1.223868942E1
9.861528390E0,-3.089732230E-1,-8.679963946E-1,1.098903847E1
9.880322765E0,-1.005583763E0,-5.231308341E-1,9.748658180E0
9.899117557E0,-1.382453322E0,-1.435693651E-1,8.246563911E0
9.917910994E0,-1.488036633E0,3.544368446E-1,6.891329288E0
9.936704067E0,-1.738086581E0,8.691928387E-1,5.880959988E0
9.955499015E0,-2.329412937E0,1.156331539E0,4.936692238E0
9.974294276E0,-2.713759899E0,1.326221943E0,4.344169617E0
9.993087401E0,-3.122035265E0,1.570588946E0,4.118945122E0
1.001188204E1,-3.539582968E0,1.917548299E0,3.878466368E0
1.003067740E1,-3.703790426E0,2.154736757E0,3.519243956E0
1.004947157E1,-3.632902861E0,2.301895380E0,3.254837036E0
1.006826511E1,-3.657130241E0,2.386840582E0,3.196212769E0
1.008705928E1,-3.659523249E0,2.350948334E0,3.684647799E0
1.010585422E1,-3.413959742E0,2.219342947E0,4.038785458E0
1.012464803E1,-2.790330410E0,2.044667006E0,4.056731701E0
1.014344256E1,-1.412662625E0,1.534696579E0,4.433900356E0
1.016223756E1,6.032904387E-1,7.360920906E-1,5.752943993E0
1.018103198E1,2.551048040E0,-3.975076675E-1,8.983852386E0
1.019982579E1,3.736093521E0,-1.153938770E0,1.297119236E1
1.021862000E1,4.478167534E0,-1.000798106E0,1.620329857E1
1.023741412E1,4.991727352E0,-2.321037948E-1,1.811486435E1
1.025620933E1,5.577071190E0,2.057827413E-1,1.876361847E1
1.027500485E1,6.042774677E0,8.030911088E-1,1.804307938E1
1.029379943E1,5.366502762E0,1.881655931E0,1.657089424E1
1.031259568E1,4.211368084E0,2.563012123E0,1.452742481E1
1.033139073E1,3.138785124E0,2.531905413E0,1.208794212E1
1.035018443E1,2.108076811E0,2.170290232E0,9.853045464E0
1.036897839E1,9.361918569E-1,1.677069545E0,8.096714020E0
1.038777407E1,-1.818545163E-1,9.230313301E-1,7.118946552E0
1.040657084E1,-1.124028444E0,-2.512463741E-2,7.153642178E0
1.042536516E1,-1.844567180E0,-9.337990284E-1,8.095517159E0
1.044415818E1,-2.929114103E0,-1.502393484E0,9.426823616E0
1.046295365E1,-3.688236952E0,-1.812264085E0,1.005165005E1
1.048174855E1,-3.699004650E0,-1.886441588E0,9.733105659E0
1.050054407E1,-3.553939819E0,-1.689033628E0,8.953942299E0
1.051934047E1,-3.423531055E0,-1.374078393E0,8.181958199E0
1.053813657E1,-3.368496180E0,-1.058225870E0,7.601399422E0
1.055693193E1,-3.557528973E0,-6.272186637E-1,7.383353233E0
1.057572683E1,-3.749253988E0,-1.435693651E-1,7.336693287E0
1.059452276E1,-3.762414455E0,3.484548032E-1,7.475477219E0
1.061331855E1,-3.540779352E0,8.282157183E-1,7.887341499E0
1.063211370E1,-3.338585854E0,1.319043517E0,8.258528709E0
1.065090886E1,-3.240479946E0,1.655534148E0,8.742177963E0
1.066970537E1,-3.244069338E0,1.925923109E0,9.311968803E0
1.068850261E1,-3.401995659E0,2.029113531E0,9.906884193E0
1.070729844E1,-3.703790426E0,1.922333837E0,1.037587738E1
1.072609407E1,-3.241676569E0,1.200598717E0,1.005763149E1
1.074488803E1,-1.718943954E0,3.317050338E-1,1.029811001E1
1.076368318E1,3.149552941E-1,-8.174480200E-1,1.176102257E1
1.078247865E1,2.033899307E0,-2.329412937E0,1.536880112E1
1.080127266E1,1.874477386E0,-3.275176048E0,1.945095634E1
1.082006641E1,7.145566344E-1,-3.393620729E0,2.094826508E1
1.083886073E1,1.328016520E-1,-3.405584812E0,1.934417725E1
1.085765730E1,-1.734796464E-1,-3.096910715E0,1.624517250E1
1.087645256E1,-4.298107624E-1,-2.452643156E0,1.290897942E1
1.089524735E1,-6.080760360E-1,-1.675873160E0,9.878170013E0
1.091404277E1,-7.660023570E-1,-9.900303483E-1,7.500601768E0
1.093283922E1,-1.085743308E0,-5.135595798E-1,6.109773636E0
1.095163553E1,-1.588535190E0,-2.970091105E-1,5.651248932E0
1.097043016E1,-2.228914261E0,-3.496512175E-1,5.659623623E0
1.098922662E1,-2.803490877E0,-6.487540603E-1,5.901597977E0
1.100802292E1,-3.259622574E0,-8.150551915E-1,6.310770512E0
1.102681938E1,-3.561118364E0,-6.164509058E-1,6.898507595E0
1.104561511E1,-3.699004650E0,-5.982056633E-2,7.514958382E0
1.106440969E1,-3.083451033E0,5.817549825E-1,8.186743736E0
1.108320526E1,-2.006381750E0,1.332203984E0,8.391329765E0
1.110200021E1,-6.834499836E-1,1.970489502E0,7.947162151E0
1.112079339E1,6.367899179E-1,2.513660192E0,7.092625618E0
1.113958948E1,1.513161182E0,2.810669184E0,6.158826351E0
1.115838537E1,1.482054472E0,2.938685417E0,5.555535793E0
1.117718011E1,1.091725349E0,2.786741018E0,5.554339409E0
1.119597537E1,7.540382147E-1,2.419143677E0,5.709873199E0
1.121476860E1,6.535396576E-1,2.073380709E0,5.970989704E0
1.123356381E1,5.937191248E-1,1.815853238E0,6.291627884E0
1.125236053E1,7.588238716E-1,1.656730533E0,6.552744865E0
1.127115730E1,8.811569214E-1,1.785943031E0,6.806384087E0
1.128995178E1,1.248455167E0,2.561815739E0,7.256533623E0
1.130874672E1,4.110570431E0,2.819044113E0,7.648059368E0
1.132754157E1,8.815158844E0,1.625623941E0,8.665307999E0
1.134633646E1,1.101296616E1,-1.208973646E0,1.097827053E1
1.136513276E1,8.160422325E0,-4.537988186E0,1.424716473E1
1.138392907E1,2.303091764E0,-6.082255840E0,1.714547157E1
1.140272558E1,-2.590529680E0,-6.067899227E0,1.725554085E1
1.142152032E1,-7.170392036E0,-5.614160061E0,1.535803318E1
1.144031599E1,-1.185673523E1,-4.316651821E0,1.344527054E1
1.145911250E1,-1.148794174E1,-3.492922783E0,1.230568886E1
1.147790855E1,-6.799205780E0,-3.139981508E0,1.183759308E1
1.149670308E1,-5.111667514E-1,-2.866900682E0,1.187228870E1
1.151549922E1,4.905585289E0,-2.421536446E0,1.138863945E1
1.153429433E1,6.022435665E0,-1.666301847E0,1.026819992E1
1.155308886E1,3.442673683E0,-1.094118118E0,9.272486687E0
1.157188412E1,2.799602449E-1,-1.153938770E0,8.342276573E0
1.159067954E1,-1.904387712E0,-1.048654556E0,7.154839039E0
1.160947443E1,-2.712563515E0,-6.655037999E-1,5.939883232E0
1.162827037E1,-2.653939486E0,-1.543370634E-1,4.927121162E0
1.164706683E1,-2.289931297E0,2.488535494E-1,4.181158543E0
1.166586276E1,-1.974078655E0,5.063810945E-1,3.889234066E0
1.168465776E1,-1.831406593E0,7.025925517E-1,4.023231983E0
1.170345266E1,-1.942672849E0,7.923234105E-1,4.412364960E0
1.172224672E1,-2.070987940E0,7.516453862E-1,5.089832783E0
1.174103985E1,-2.141576290E0,5.315057039E-1,5.762515068E0
1.175983464E1,-2.185843468E0,2.787638307E-1,6.909275532E0
1.177863006E1,-2.390429735E0,-1.004985496E-1,8.607880592E0
1.179742428E1,-2.851347208E0,-8.186444640E-1,1.075663471E1
1.181622000E1,-3.913162231E0,-2.330609322E0,1.369771290E1
1.183501709E1,-5.830710411E0,-3.780360699E0,1.758335876E1
1.185381271E1,-5.972186089E0,-5.178367138E0,1.888834381E1
1.187260740E1,-4.658825874E0,-5.809175014E0,1.691546059E1
1.189140313E1,-2.686242580E0,-5.181956768E0,1.507807255E1
1.191020000E1,-9.050851464E-1,-4.669593334E0,1.462313747E1
1.192899771E1,-8.255238086E-2,-4.293920040E0,1.542263889E1
1.194779214E1,2.934198678E-1,-4.093820572E0,1.599242973E1
1.196658532E1,5.315057039E-1,-3.671487331E0,1.532812309E1
1.198538026E1,4.609174728E-1,-2.656332254E0,1.328255844E1
1.200417719E1,2.416750938E-1,-1.624427438E0,1.040369415E1
1.202297250E1,-1.938186288E-1,-7.169494629E-1,8.102695465E0
1.204176740E1,-5.566303730E-1,-4.187439755E-2,6.781259537E0
1.206056339E1,-7.648059130E-1,1.878365725E-1,6.277271271E0
1.207935771E1,-1.068993568E0,1.926222295E-1,6.104988098E0
1.209815355E1,-1.201795220E0,7.298108935E-2,6.261717796E0
1.211694995E1,-1.061815023E0,5.982056726E-3,6.778866768E0
1.213574646E1,-8.198408484E-1,1.579262912E-1,7.543672562E0
1.215454344E1,-6.176473498E-1,6.403791308E-1,8.649754524E0
1.217333719E1,8.494520187E-2,1.091725349E0,1.014138031E1
1.219213136E1,7.468597889E-1,1.778764486E0,1.157797146E1
1.221092678E1,1.510768414E0,2.493321180E0,1.208674526E1
1.222972079E1,1.787139416E0,2.981756210E0,1.107996559E1
1.224851652E1,1.186241865E0,3.370888948E0,9.679266930E0
1.226731251E1,6.355935335E-1,3.713361740E0,8.343473434E0
1.228610917E1,3.005983531E-1,4.025625229E0,7.123732090E0
1.230490474E1,-1.208375469E-1,4.121337891E0,6.095416546E0
1.232369891E1,-3.496512175E-1,3.862913132E0,5.708676815E0
1.234249474E1,-5.554339290E-1,3.657130241E0,5.805585861E0
1.236128985E1,-9.170492887E-1,3.651148319E0,5.672784328E0
1.238008719E1,-1.265205026E0,3.476173162E0,5.500501156E0
1.239888339E1,-1.795514345E0,3.396013498E0,5.913562298E0
1.241767886E1,-2.231307030E0,3.271586657E0,6.594619274E0
1.243647500E1,-2.426322222E0,2.877668381E0,7.249355316E0
1.245527073E1,-2.545065880E0,2.589333296E0,7.986643791E0
1.247406553E1,-2.862114906E0,2.597707987E0,8.598309517E0
1.249286178E1,-2.847758055E0,2.533101797E0,9.005388260E0
1.251165855E1,-1.886441588E0,1.651944876E0,9.471091270E0
1.253045303E1,-1.507478207E-1,1.148554832E-1,1.119003487E1
1.254924579E1,1.381256819E0,-1.277169108E0,1.362114334E1
1.256803891E1,2.099701881E0,-1.638784409E0,1.634208107E1
1.258683313E1,1.756032705E0,-1.272383451E0,1.708295822E1
1.260562626E1,1.158724308E0,-1.078564763E0,1.538076496E1
1.262441954E1,7.600203156E-1,-7.229315639E-1,1.359003639E1
1.264321313E1,7.863413692E-1,-1.280160099E-1,1.217527962E1
1.266200839E1,1.309472203E0,5.602195859E-1,1.080808067E1
1.268080219E1,1.903191328E0,1.225723386E0,9.214759827E0
1.269959568E1,2.279163599E0,1.692622900E0,7.379764080E0
1.271838964E1,2.270788670E0,1.925923109E0,5.982954025E0
1.273718349E1,2.023131609E0,1.825424552E0,5.269294739E0
1.275597844E1,1.565803289E0,1.436590910E0,5.235795021E0
1.277477313E1,1.003190875E0,9.529415965E-1,5.689534187E0
1.279356902E1,3.161516786E-1,5.973083377E-1,6.148058891E0
1.281236355E1,-3.687937856E-1,5.027918816E-1,6.244967937E0
1.283115761E1,-5.255236626E-1,4.812564552E-1,5.895616055E0
1.284995261E1,-5.111667514E-1,4.369892478E-1,5.982954025E0
1.286874704E1,-1.128814101E0,2.946162820E-1,7.016055107E0
1.288754219E1,-1.450947881E0,2.679961324E-1,8.460721970E0
1.290633662E1,-1.778764486E0,2.667997181E-1,9.605089188E0
1.292513063E1,-1.745265007E0,1.674975902E-1,1.038694382E1
1.294392558E1,-1.742872238E0,9.092725813E-2,1.101296616E1
1.296272016E1,-1.778764486E0,4.307080805E-2,1.151216888E1
1.298151521E1,-1.900798440E0,-1.890329868E-1,1.192971611E1
1.300030855E1,-2.258824587E0,-5.781657696E-1,1.274148178E1
1.301910068E1,-2.547458887E0,-8.787640929E-1,1.398275852E1
1.303789308E1,-2.711367130E0,-1.065404296E0,1.446880054E1
1.305668553E1,-2.624029160E0,-9.553344250E-1,1.433839130E1
1.307547776E1,-1.777568102E0,-9.529415965E-1,1.423280811E1
1.309427198E1,-7.851449251E-1,-1.443769336E0,1.479542065E1
1.311311834E1,-2.117647976E-1,-2.130808592E0,1.649641800E1
1.313197162E1,-2.404786795E-1,-2.817847729E0,1.790190315E1
1.315077719E1,-8.186444640E-1,-2.926721096E0,1.743739510E1
1.316958292E1,-1.296311617E0,-2.445464849E0,1.510558987E1
1.318838865E1,-1.516750455E0,-1.735693693E0,1.209751320E1
1.320719433E1,-1.942672849E0,-9.242277741E-1,1.013898754E1
1.322600006E1,-2.409572363E0,-1.363908947E-1,9.544072151E0
1.324480579E1,-2.604886532E0,4.525425732E-1,8.904889107E0
1.326361152E1,-2.510071039E0,1.268794179E0,7.943572998E0
1.328241724E1,-2.164308071E0,2.358126640E0,7.106982231E0
1.330122297E1,-1.632802367E0,3.467798233E0,6.746563435E0
1.332002870E1,-1.092921734E0,4.255635262E0,6.576673031E0
1.333883443E1,-1.842473447E-1,4.614558697E0,6.843472958E0
1.335764016E1,1.342971683E0,4.830211639E0,8.306385040E0
1.337644589E1,2.764009237E0,4.978566647E0,9.585947037E0
1.339525167E1,3.567100286E0,5.052743912E0,9.399306297E0
1.341405740E1,3.117249727E0,4.818247318E0,7.594220638E0
1.343286313E1,2.250449657E0,4.222135544E0,5.837889194E0
1.345166886E1,1.545464277E0,3.950251102E0,5.180759907E0
1.347047459E1,1.133599758E0,3.955036640E0,5.324329376E0
1.348928032E1,9.014959335E-1,4.048357010E0,5.272883892E0
1.350808610E1,7.133602500E-1,4.102195263E0,4.896014214E0
1.352689183E1,3.819543123E-1,4.510470867E0,4.673182487E0
1.354569756E1,1.411765367E-1,5.227420330E0,4.626522541E0
1.356450329E1,2.225325108E-1,5.779264927E0,4.661218643E0
1.358330907E1,3.580260873E-1,6.089434624E0,4.801497936E0
1.360211485E1,8.500502706E-1,6.302395821E0,5.383252621E0
1.362092053E1,1.485643744E0,6.923632145E0,6.320342064E0
1.363972636E1,1.329811215E0,7.435995579E0,6.262914181E0
1.365853204E1,5.913262963E-1,7.175177574E0,5.737390518E0
1.367733782E1,5.805585980E-1,6.261717796E0,6.960721016E0
1.369623834E1,1.034297585E0,5.052743912E0,9.587142944E0
1.371543907E1,5.602195859E-1,4.669593334E0,1.215972614E1
1.373464256E1,-4.785645287E-3,4.873282433E0,1.267687511E1
1.375384282E1,-1.471585929E-1,4.723432064E0,1.081884861E1
1.377303995E1,-4.357928336E-1,4.827818871E0,8.141280174E0
1.379223454E1,-7.420741320E-1,5.321936607E0,6.016453266E0
1.381142646E1,-8.018946648E-1,5.766104221E0,4.588237286E0
1.383061620E1,-5.793621540E-1,6.149255276E0,3.825824261E0
1.384980386E1,-3.589234129E-2,6.320342064E0,3.746861219E0
1.386898980E1,7.537391037E-2,6.313163280E0,4.510470867E0
1.388817428E1,-3.230310604E-2,5.976971626E0,5.953043461E0
1.390735740E1,-1.052841991E-1,5.732604980E0,7.126124859E0
1.392653917E1,-3.149552941E-1,5.681159019E0,7.816753387E0
1.394571985E1,-5.099703074E-1,5.853442192E0,8.026124954E0
1.396489948E1,-6.990033388E-1,6.270092487E0,7.719843864E0
1.398407829E1,-7.636095285E-1,6.604190350E0,7.152445793E0
1.400325615E1,-6.906284094E-1,6.987041950E0,6.626922131E0
1.402243329E1,-4.692923427E-1,7.251748085E0,6.253343105E0
1.404160995E1,-2.404786795E-1,7.279265404E0,6.344270229E0
1.406078599E1,-2.153540403E-1,7.105785847E0,6.848258495E0
1.407996152E1,-4.202394783E-1,6.896114826E0,7.475477219E0
1.409913657E1,-7.325028181E-1,6.793223381E0,7.936394691E0
1.411831110E1,-9.086744189E-1,6.820741177E0,8.270492554E0
1.413748521E1,-9.278169870E-1,6.997809887E0,8.761320114E0
1.415657204E1,-1.076171994E0,7.211070061E0,9.435198784E0
1.417537355E1,-1.653141379E0,7.640881062E0,9.441181183E0
1.419416563E1,-2.276770830E0,8.183154106E0,8.260921478E0
1.421295933E1,-1.996810555E0,7.822735310E0,6.964310169E0
1.423175251E1,-9.780662656E-1,6.836294174E0,6.981060028E0
1.425054683E1,5.614160299E-1,5.184349537E0,8.770891190E0
1.426934209E1,9.672985673E-1,3.915555239E0,1.112064362E1
1.428813730E1,-1.447657645E-1,3.794717550E0,1.148076344E1
1.430693230E1,-1.188634634E0,3.791128397E0,9.463912964E0
1.432572605E1,-1.758425593E0,4.001696587E0,7.447959423E0
1.434451839E1,-1.843370795E0,4.459024906E0,6.637690067E0
1.436331141E1,-1.521536112E0,5.000102043E0,7.032804966E0
1.438210584E1,-1.220937729E0,5.602196217E0,7.422834873E0
1.440090058E1,-9.888339639E-1,6.082255840E0,7.152445793E0
1.441969485E1,-6.308078766E-1,6.402894497E0,6.585047722E0
1.443848870E1,-2.548356056E-1,6.480959892E0,6.343073845E0
1.445728141E1,-5.503492057E-2,6.320342064E0,6.716653347E0
1.447607511E1,-2.117647976E-1,5.970989704E0,7.458727360E0
1.449486792E1,-3.496512175E-1,5.538786411E0,8.064410210E0
1.451366094E1,-4.980062246E-1,5.303990364E0,8.244171143E0
1.453245313E1,-5.015954375E-1,5.334199905E0,7.898109436E0
1.455124584E1,-3.532404304E-1,5.561518192E0,7.465905666E0
1.457003870E1,-6.819544733E-2,5.879763603E0,6.955935478E0
1.458883297E1,3.424727321E-1,6.054738522E0,6.681957245E0
1.460762730E1,6.224330068E-1,6.100202084E0,6.708278179E0
1.462642162E1,5.781657696E-1,6.154040813E0,6.725028038E0
1.464521547E1,4.597210586E-1,6.468996048E0,6.768098831E0
1.466401006E1,7.265207767E-1,6.338288307E0,6.365805626E0
1.468280448E1,7.265207767E-1,6.326323986E0,6.429215431E0
1.470159948E1,5.135595798E-1,6.464210510E0,7.159624577E0
1.472039396E1,5.267201066E-1,6.298806667E0,7.596613884E0
1.473918907E1,4.022932947E-1,6.539584160E0,8.525327682E0
1.475798323E1,-1.052841991E-1,6.933203697E0,8.210671425E0
1.477677750E1,-2.069791555E-1,6.776473522E0,6.820741177E0
1.479557334E1,7.121638656E-1,6.089434624E0,6.561119556E0
1.481437214E1,2.492124796E0,5.074279308E0,8.594719887E0
1.483316636E1,3.805485249E0,4.272384644E0,1.173230839E1
1.485196297E1,3.664308786E0,4.139284134E0,1.320359516E1
1.487075829E1,2.743670225E0,4.056731701E0,1.204935741E1
1.488955448E1,1.981257200E0,3.764807224E0,1.005284595E1
1.490834917E1,1.351346612E0,3.697808266E0,8.641380310E0
1.492714417E1,9.122636318E-1,3.819842339E0,7.500601768E0
1.494593902E1,7.480561733E-1,4.051946163E0,6.332305908E0
1.496473402E1,7.169494629E-1,4.303491592E0,5.092225552E0
1.498352740E1,8.679963946E-1,4.380061626E0,4.255635262E0
1.500232110E1,1.059422255E0,4.390829563E0,3.895216227E0
1.502111428E1,1.228116274E0,4.130908966E0,3.958626032E0
1.503990797E1,1.198205948E0,3.703790426E0,4.717449665E0
1.505870063E1,1.102493048E0,3.405584812E0,5.785246849E0
1.507749542E1,8.341978192E-1,3.309871912E0,6.378965855E0
1.509628797E1,5.566303730E-1,3.424727440E0,6.488138676E0
1.511508183E1,5.327021480E-1,3.672683716E0,6.539584160E0
1.513387594E1,7.480561733E-1,3.793521166E0,6.849454880E0
1.515267053E1,1.015154958E0,3.821038723E0,7.428816795E0
1.517146402E1,1.347757339E0,3.792324781E0,8.001000404E0
1.519025860E1,1.730908036E0,3.636492252E0,8.603095055E0
1.520905084E1,1.839781523E0,3.428316593E0,9.401699066E0
1.522784631E1,1.608874083E0,3.293122053E0,1.000379372E1
1.524664126E1,1.158724308E0,3.262015581E0,1.037109184E1
1.526543626E1,6.930212379E-1,3.065505028E0,1.080449200E1
1.528422844E1,-3.230310604E-2,2.942274570E0,1.134437180E1
1.530302188E1,-9.445667267E-1,2.799901485E0,1.201825047E1
1.532181605E1,-1.942672849E0,2.651546478E0,1.304656601E1
1.534061079E1,-2.298306227E0,2.586940289E0,1.360319710E1
1.535940433E1,-1.482054472E0,2.011167526E0,1.395284748E1
1.537820001E1,-1.914258115E-2,1.048654556E0,1.576750469E1
1.539699329E1,1.412662625E0,-1.603191197E-1,1.868226242E1
1.541578652E1,1.984846354E0,-1.194616675E0,2.014517403E1
1.543457803E1,1.521536112E0,-1.498804331E0,1.901037788E1
1.545337157E1,7.241279483E-1,-9.984052777E-1,1.630020714E1
1.547216417E1,2.886342406E-1,-5.805585980E-1,1.316142178E1
1.549095865E1,-8.135596663E-2,-1.914258152E-1,1.097228813E1
1.550975193E1,-3.233301640E-1,3.161516786E-1,9.804889679E0
1.552854537E1,-4.872384965E-1,6.379863620E-1,8.801998138E0
1.554733855E1,-6.140581369E-1,8.234301209E-1,7.841877937E0
1.556613297E1,-7.025925517E-1,1.022333503E0,7.165606499E0
1.558492584E1,-6.020939946E-1,1.127617717E0,7.056733131E0
1.560372115E1,-3.699901998E-1,1.102493048E0,7.227819920E0
1.562251704E1,-8.853443712E-2,9.409775138E-1,7.415656567E0
1.564131266E1,4.666004330E-2,8.775677085E-1,7.869395256E0
1.566010698E1,4.666004330E-2,9.984052777E-1,8.129016876E0
1.567890178E1,7.178468257E-2,1.256830096E0,7.899305820E0
1.569769782E1,2.739782035E-1,1.665105462E0,7.217051983E0
1.571649454E1,7.444669604E-1,2.139183521E0,6.279664040E0
1.573528849E1,1.084546804E0,2.585743904E0,5.534000397E0
1.575408339E1,1.260419369E0,2.979363203E0,5.167599678E0
1.577287688E1,1.348953724E0,3.281157970E0,5.086243629E0
1.579167146E1,1.462911963E0,3.482155085E0,5.107779026E0
1.581046579E1,1.479661703E0,3.643670797E0,5.165206909E0
1.582925881E1,1.399203062E0,3.677469254E0,5.130510807E0
1.584805365E1,1.234098315E0,3.518047571E0,5.086243629E0
1.586684813E1,7.313064337E-1,3.500101328E0,5.147260666E0
1.588564198E1,2.021935135E-1,3.568296671E0,5.079065323E0
1.590443626E1,-6.939185411E-2,3.737289906E0,4.542773724E0
1.592323000E1,2.608176768E-1,3.652344704E0,3.556332588E0
1.594202516E1,1.369292736E0,3.004487991E0,2.401197433E0
1.596081891E1,2.951845884E0,1.807478428E0,7.420741320E-1
1.597961459E1,4.487739086E0,4.214358926E-1,2.392822690E-2
1.599840855E1,4.509274483E0,-1.950150430E-1,-6.595217586E-1
1.601720407E1,5.670391560E0,-1.809871197E0,1.820638895E0
1.603599990E1,7.205088139E0,-3.131606579E0,5.642873764E0
1.605479568E1,9.092725754E0,-4.543970108E0,8.318348885E0
1.607358933E1,1.048624611E1,-5.240580559E0,1.057956600E1
1.609238579E1,1.094088268E1,-5.859424591E0,1.057717323E1
1.611118172E1,1.133839035E1,-6.191129684E0,8.950352669E0
1.612997891E1,1.261077309E1,-6.286842346E0,8.449954033E0
1.614877521E1,1.278574848E1,-6.628118515E0,9.700801849E0
1.616757079E1,1.281326580E1,-6.661618233E0,1.214656639E1
1.618636547E1,1.179691505E1,-5.609374523E0,1.329691505E1
1.620516000E1,1.053649521E1,-4.417150497E0,1.168923759E1
1.622395422E1,9.947562218E0,-3.502494097E0,1.039412212E1
1.624274896E1,9.600303650E0,-2.899203777E0,1.198116207E1
1.626154230E1,8.476275444E0,-2.539083958E0,1.239422321E1
1.628033547E1,6.936792850E0,-2.161915302E0,1.104766178E1
1.629912974E1,5.966204166E0,-1.571785331E0,1.005165005E1
1.631792537E1,5.318347454E0,-1.054636598E0,9.288040161E0
1.633672016E1,4.791926384E0,-8.679963946E-1,8.627022743E0
1.635551553E1,3.640081406E0,-7.277171612E-1,7.394121170E0
1.637430865E1,2.508874655E0,-4.621138871E-1,6.283253193E0
1.639310266E1,2.470589399E0,-5.255236626E-1,6.006882191E0
1.641189735E1,3.162713289E0,-2.452643216E-1,6.273681641E0
1.643069209E1,4.140480518E0,-1.471585929E-1,7.789236069E0
1.644948526E1,5.446662426E0,-6.415755749E-1,1.009830952E1
1.646827876E1,6.732206345E0,-1.623231053E0,1.353859043E1
1.648707115E1,7.116553783E0,-2.474178553E0,1.532812309E1
1.650586464E1,7.505387306E0,-2.842972517E0,1.392533016E1
1.652465808E1,8.532505989E0,-2.524427891E0,1.227936745E1
1.654345214E1,9.053244591E0,-2.137987137E0,1.093848991E1
1.656224678E1,9.363413811E0,-2.109273195E0,1.113380337E1
1.658104068E1,9.334700584E0,-2.027917147E0,1.229133129E1
1.659983370E1,9.117850304E0,-1.910369754E0,1.214417267E1
1.661862881E1,9.384949684E0,-2.231307030E0,1.060229778E1
1.663742438E1,8.982656479E0,-2.793919563E0,8.275278091E0
1.665622053E1,7.929215908E0,-3.358924866E0,6.280860424E0
1.667501532E1,7.227819920E0,-3.825824261E0,5.187938690E0
1.669380896E1,7.931608677E0,-4.395615101E0,4.680361271E0
1.671260157E1,8.855836868E0,-4.910371304E0,5.349753380E0
1.673139573E1,9.711569786E0,-5.337789059E0,6.571887493E0
1.675019011E1,1.076620674E1,-6.140880108E0,6.376573086E0
1.676898448E1,1.184357452E1,-6.722635269E0,4.328616142E0
1.678777917E1,1.208076286E1,-6.442375660E0,1.581356645E0
1.680657370E1,1.122832012E1,-5.605785370E0,-1.885245085E0
1.682536891E1,1.071476078E1,-4.701896667E0,-4.579862595E0
1.684416688E1,1.046710396E1,-4.216153622E0,-5.885745525E0
1.686296287E1,1.016530895E1,-4.203890324E0,-5.441876888E0
1.688176271E1,9.577571869E0,-4.666004181E0,-4.055535316E0
1.690055938E1,8.506185532E0,-5.390431404E0,-2.682653189E0
1.691935553E1,6.949953556E0,-5.778068542E0,-1.726122379E0
1.693814881E1,5.575874805E0,-5.900401592E0,-1.134796143E0
1.695694318E1,4.682754040E0,-5.812764645E0,-8.090731502E-1
1.697573740E1,4.364508629E0,-5.691926956E0,-6.164509058E-1
1.699453240E1,4.332205296E0,-5.713462353E0,-6.750751138E-1
1.701332605E1,4.314259052E0,-6.067899227E0,-1.058225870E0
1.703211928E1,4.170390606E0,-6.878168583E0,-1.557428479E0
1.705091297E1,3.491726398E0,-7.542476177E0,-1.935494423E0
1.706970787E1,3.500101328E0,-8.100302696E0,-2.209771633E0
1.708850198E1,4.443471432E0,-9.168100357E0,-2.282752752E0
1.710729599E1,5.044369221E0,-9.820742607E0,-1.745265007E0
1.712608902E1,5.500501156E0,-9.911669731E0,-8.859425783E-1
1.714488323E1,5.681159019E0,-8.997013092E0,1.543370634E-1
1.716367683E1,6.496513367E0,-7.595417500E0,7.001997232E-1
1.718247105E1,7.883752346E0,-6.769295216E0,3.616153300E-1
1.720126563E1,8.671290398E0,-6.321538448E0,-1.543370634E-1
1.722005985E1,8.550452232E0,-5.984150410E0,-5.769693851E-1
1.723885308E1,8.488239288E0,-6.149255276E0,-1.088136077E0
1.725764667E1,8.437990189E0,-6.514459610E0,-1.338186026E0
1.727644193E1,8.531310081E0,-6.862615108E0,-1.188634634E0
1.729523553E1,8.843872070E0,-7.330711365E0,-8.377870321E-1
1.731402891E1,9.120243073E0,-7.626523972E0,-4.441677034E-1
1.733282370E1,9.272486687E0,-7.666005611E0,-1.555334777E-1
1.735161730E1,9.372985840E0,-7.504190922E0,-1.435693540E-2
1.737041204E1,9.369396210E0,-7.139285564E0,1.184447184E-1
1.738920573E1,9.335896492E0,-6.777669907E0,3.556332588E-1
1.740800063E1,9.303593636E0,-6.757331371E0,6.320042610E-1
1.742679474E1,9.047262192E0,-6.921239376E0,1.116850019E0
1.744558797E1,8.494221687E0,-6.873383045E0,1.648355722E0
1.746438126E1,8.323134422E0,-6.659225464E0,1.668694735E0
1.748317511E1,8.836693764E0,-6.474977970E0,1.198205948E0
1.750196922E1,9.315557480E0,-6.154040813E0,7.480561733E-1
1.752076365E1,1.009472084E1,-5.708676815E0,3.149552941E-1
1.753955730E1,1.126660538E1,-5.075475693E0,-2.632104978E-2
1.755835152E1,1.245643616E1,-4.403990269E0,-4.022932947E-1
1.757714490E1,1.291735363E1,-3.962215185E0,-1.148554832E-1
1.759594006E1,1.269841099E1,-4.001696587E0,6.774678826E-1
1.761473480E1,1.240977669E1,-4.453042984E0,1.773978829E0
1.763352990E1,1.290419388E1,-5.242973328E0,2.720938444E0
1.765232438E1,1.386311722E1,-6.742974281E0,3.138785124E0
1.767111818E1,1.386311722E1,-7.566404343E0,3.514458179E0
1.768991251E1,1.360080433E1,-7.272087097E0,3.852145433E0
1.770870693E1,1.379851055E1,-6.543173313E0,3.914358854E0
1.772750079E1,1.404138279E1,-5.378467083E0,3.760021687E0
1.774629542E1,1.431057453E1,-4.820640087E0,3.136392355E0
1.776508985E1,1.368814182E1,-5.545964718E0,2.143969059E0
1.778388469E1,1.186271763E1,-6.786045074E0,1.273579836E0
1.780267964E1,1.000977516E1,-7.987840176E0,5.123631358E-1
1.782147485E1,8.714659691E0,-8.915657043E0,6.460621208E-2
1.784026995E1,7.989036560E0,-9.141778946E0,2.033899277E-1
1.785906568E1,7.784450054E0,-8.956335068E0,5.338985324E-1
1.787785938E1,7.910073280E0,-8.824729919E0,5.949155092E-1
1.789665454E1,8.066802979E0,-8.778069496E0,6.439684033E-1
1.791544891E1,8.126624107E0,-8.801998138E0,7.384848595E-1
1.793424469E1,7.922037601E0,-8.806783676E0,7.671987414E-1
1.795303974E1,7.761718273E0,-8.613862038E0,7.348956466E-1
1.797183433E1,7.831110477E0,-8.318348885E0,5.853442550E-1
1.799062844E1,8.062017441E0,-7.996214867E0,3.484548032E-1
1.800942407E1,8.239385605E0,-7.613363266E0,1.686939895E-1
1.802821761E1,8.270492554E0,-7.333104134E0,-1.914258115E-2
1.804701214E1,8.005785942E0,-7.115357399E0,-1.902294010E-1
1.806580782E1,7.494619846E0,-6.939185619E0,-4.657031000E-1
1.808460162E1,7.000202656E0,-6.868597507E0,-7.121638656E-1
1.810339474E1,6.650850773E0,-6.880561352E0,-8.413762450E-1
1.812218839E1,6.224628925E0,-7.019644260E0,-9.888339639E-1
1.814098224E1,5.204688549E0,-7.152445793E0,-1.478465319E0
1.815977724E1,4.154837608E0,-7.966304779E0,-2.185843468E0
1.817857183E1,2.805883646E0,-9.020941734E0,-2.495713949E0
1.819736698E1,1.434198022E0,-9.481859207E0,-2.484946251E0
1.821616047E1,1.281954765E0,-9.400503159E0,-2.746062994E0
1.823495417E1,2.927917719E0,-9.910472870E0,-3.492922783E0
1.825374714E1,4.390829563E0,-1.032203865E1,-3.809074640E0
1.827254073E1,5.623731613E0,-1.000020409E1,-3.331407309E0
1.829133370E1,6.035595894E0,-9.274879456E0,-2.439482689E0
1.831012849E1,5.773283005E0,-8.136494637E0,-1.348953724E0
1.832892204E1,6.049952984E0,-7.049554825E0,-7.528418303E-1
1.834771542E1,6.942774773E0,-6.428019047E0,-1.011565804E0
1.836650933E1,7.305586815E0,-6.122933865E0,-1.587338686E0
1.838530454E1,7.209873676E0,-5.962615013E0,-2.030309916E0
1.840409787E1,7.329514980E0,-6.175576210E0,-2.249253273E0
1.842289266E1,7.531708241E0,-6.738188744E0,-2.154736757E0
1.844168839E1,7.744968891E0,-7.664809227E0,-1.782353759E0
1.846048615E1,7.850253105E0,-8.714659691E0,-1.200598717E0
1.847927954E1,7.700701237E0,-9.459127426E0,-4.657031000E-1
1.849807485E1,7.400103092E0,-9.678070068E0,2.117647976E-1
1.851686907E1,7.451549053E0,-9.422038078E0,8.114659786E-1
1.853566448E1,8.085946083E0,-8.846264839E0,1.444965720E0
1.855445896E1,8.825926781E0,-8.119445801E0,1.994417667E0
1.857325282E1,9.383752823E0,-7.512565613E0,2.456232548E0
1.859204782E1,9.599106789E0,-7.078268528E0,2.743670225E0
1.861084313E1,9.486644745E0,-6.964310169E0,2.643171787E0
1.862963761E1,9.401699066E0,-6.985845566E0,1.942672849E0
1.864843313E1,9.386145592E0,-6.841079712E0,9.457631707E-1
1.866722636E1,9.637392044E0,-6.411269188E0,1.914258115E-2
1.868602126E1,9.929615974E0,-5.701498032E0,-9.421738982E-1
1.870481547E1,1.029811001E1,-5.236991405E0,-1.696212173E0
1.872361141E1,1.086909771E1,-5.189135075E0,-1.787139416E0
1.874240657E1,1.152532959E1,-5.100600719E0,-1.332203984E0
1.876120256E1,1.237627697E1,-4.790730000E0,-8.584251404E-1
1.877999761E1,1.324427319E1,-4.468596458E0,-4.609174728E-1
1.879879297E1,1.382961750E1,-4.254438877E0,-1.399801224E-1
1.881758719E1,1.439821243E1,-4.577469826E0,-9.212367237E-2
1.883638209E1,1.453460312E1,-5.443073273E0,-2.874378264E-1
1.885517724E1,1.412513161E1,-6.180361748E0,-1.280160099E-1
1.887397334E1,1.372881985E1,-6.340681076E0,3.879363835E-1
1.889276787E1,1.316501141E1,-5.592624664E0,1.004387259E0
1.891161594E1,1.251147175E1,-4.829015255E0,9.242277741E-1
1.893047037E1,1.182921791E1,-5.061119080E0,4.426721856E-2
1.894927626E1,1.077936649E1,-6.101398468E0,-7.360920906E-1
1.896808219E1,9.741479874E0,-7.304390430E0,-8.150551915E-1
1.898688813E1,9.023334503E0,-8.561220169E0,-2.703889608E-1
1.900569407E1,8.706285477E0,-9.485447884E0,6.212365627E-1
1.902450000E1,8.730213165E0,-9.982257843E0,1.274776220E0
1.904330594E1,8.760123253E0,-1.011027431E1,1.622034669E0
1.906211188E1,8.587541580E0,-9.916455269E0,1.687837243E0
1.908091782E1,8.490632057E0,-9.551250458E0,1.382453322E0
1.909972376E1,8.557631493E0,-9.182456970E0,9.768698215E-1
1.911852969E1,8.475078583E0,-8.776873589E0,6.750751138E-1
1.913733563E1,8.323134422E0,-8.366205215E0,4.489533603E-1
1.915614157E1,8.254939079E0,-8.033304214E0,8.015955985E-2
1.917494751E1,8.275278091E0,-7.640881062E0,-9.810572863E-2
1.919375344E1,8.272885323E0,-7.520940781E0,-2.392822653E-1
1.921255938E1,7.992625713E0,-7.470691204E0,-4.501497746E-1
1.923136532E1,7.538887024E0,-7.370193005E0,-6.200401783E-1
1.925017126E1,6.939185619E0,-7.146463871E0,-8.715856671E-1
1.926897724E1,6.250949860E0,-6.768098831E0,-1.225723386E0
1.928778318E1,5.512465000E0,-6.506084919E0,-1.919941068E0
1.930658912E1,4.234099865E0,-6.527620316E0,-2.755634308E0
1.932539506E1,2.536691189E0,-6.893722057E0,-3.014059305E0
1.934420105E1,1.116850019E0,-7.709076405E0,-2.876471996E0
1.936300698E1,3.352942765E-1,-8.659325600E0,-2.438286304E0
1.938181292E1,5.626124144E-1,-9.113064766E0,-1.876870275E0
1.940061891E1,1.720140338E0,-8.965906143E0,-1.488036633E0
1.941942485E1,4.212564468E0,-9.682855606E0,-1.996810555E0
1.943823084E1,5.960222244E0,-1.076500988E1,-2.789133787E0
1.945703672E1,6.664011002E0,-1.072672462E1,-2.932703257E0
1.947584271E1,6.803991318E0,-9.693623543E0,-2.604886532E0
1.949464865E1,6.894918442E0,-8.093124390E0,-2.129612207E0
1.951345464E1,7.683951855E0,-7.073482990E0,-2.243271112E0
1.953226058E1,8.484649658E0,-6.742974281E0,-2.695813894E0
1.955106376E1,8.274081230E0,-6.424429893E0,-3.026023388E0
1.956986042E1,8.179565430E0,-6.447161674E0,-3.224926710E0
1.958865537E1,8.193922043E0,-6.731009960E0,-3.095714331E0
1.960744891E1,8.132605553E0,-6.892525673E0,-2.440679073E0
1.962624474E1,8.257331848E0,-7.148856640E0,-1.673480392E0
1.964504001E1,8.327919960E0,-7.523333549E0,-1.127617717E0
1.966383579E1,8.134998322E0,-7.894520283E0,-7.348956466E-1
1.968263120E1,7.810771465E0,-8.027321815E0,-2.309073806E-1
1.970142730E1,7.555636406E0,-7.856235027E0,3.436691463E-1
1.972022485E1,7.613363266E0,-7.556832790E0,8.703892231E-1
1.973901870E1,7.774878979E0,-7.158428192E0,1.295115232E0
1.975781313E1,7.803592682E0,-6.813562393E0,1.514357686E0
1.977660724E1,7.736593723E0,-6.713063717E0,1.509572029E0
1.979540209E1,7.826324463E0,-6.771687984E0,1.145563841E0
1.981419631E1,8.034500122E0,-6.859025955E0,5.327021480E-1
1.983298980E1,8.277670860E0,-6.796812534E0,-1.854437590E-1
1.985178360E1,8.589934349E0,-6.507281303E0,-8.428717852E-1
1.987057803E1,8.949156761E0,-6.219843388E0,-1.133599758E0
1.988937349E1,9.160921097E0,-5.959025860E0,-6.523432732E-1
1.990816803E1,1.004686451E1,-5.896812439E0,9.792626500E-1
1.992696417E1,1.231884956E1,-5.592624664E0,2.917150021E0
1.994575969E1,1.524796295E1,-4.447061062E0,3.270390272E0
1.996455480E1,1.728545189E1,-3.147160053E0,2.306680918E0
1.998335058E1,1.834726715E1,-3.443870068E0,5.159524083E-1
2.000214750E1,1.803111458E1,-4.819443703E0,-8.859425783E-1
2.002094396E1,1.636600876E1,-5.858228207E0,-1.284347534E0
2.003973943E1,1.488305759E1,-6.357430458E0,-1.185045362E0
2.005853448E1,1.360798264E1,-6.057131290E0,-9.493523836E-1
2.007732870E1,1.223629665E1,-4.940281391E0,-6.212365627E-1
2.009612433E1,1.122712421E1,-4.096213341E0,-5.877370834E-1
2.011491896E1,1.084038353E1,-4.522434711E0,-7.600203156E-1
2.013371516E1,1.033998489E1,-5.563910961E0,-6.332007051E-1
2.015251032E1,9.454340935E0,-6.337091446E0,4.307080805E-2
2.017130579E1,9.113064766E0,-7.244569778E0,7.420741320E-1
2.019010198E1,9.300004005E0,-8.284849167E0,1.412662625E0
2.020889698E1,9.760622978E0,-9.317950249E0,1.975275040E0
2.022769334E1,1.011027431E1,-1.019761181E1,2.366501570E0
2.024648891E1,1.006720352E1,-1.065972614E1,2.656332254E0
2.026528329E1,9.680462837E0,-1.055683422E1,2.698206663E0
2.028407886E1,9.224330902E0,-9.935597420E0,2.264806747E0
2.030287469E1,8.986245155E0,-9.184849739E0,1.546660781E0
2.032167126E1,8.706285477E0,-8.527720451E0,7.875377536E-1
2.034046547E1,8.455936432E0,-8.090731621E0,2.910270393E-1
2.035925865E1,8.501399994E0,-7.937591076E0,2.632104978E-2
2.037805329E1,8.148458481E0,-7.798807144E0,-4.453641176E-1
2.039684948E1,7.303194046E0,-7.697112083E0,-8.377870321E-1
2.041564485E1,6.210271835E0,-7.500601768E0,-1.159920812E0
2.043444032E1,5.347360611E0,-6.994220734E0,-1.372882009E0
2.045323516E1,4.733003139E0,-6.506084919E0,-1.672283888E0
2.047203162E1,4.226921082E0,-6.431608200E0,-1.980060697E0
2.049082620E1,3.275176048E0,-6.646064758E0,-2.160718918E0
2.050962120E1,2.161915302E0,-6.922435760E0,-2.295913219E0
2.052841735E1,1.726122379E0,-7.392924786E0,-2.450250387E0
2.054721287E1,1.960619092E0,-7.875377655E0,-2.402393818E0
2.056600797E1,3.023630619E0,-8.264510155E0,-1.992024899E0
2.058480251E1,4.984548569E0,-9.029315948E0,-1.651944876E0
2.060359813E1,6.649653912E0,-1.012582684E1,-1.523928881E0
2.062239391E1,7.384549618E0,-1.064656544E1,-1.201795220E0
2.064118928E1,7.433602810E0,-1.037228775E1,-8.270193338E-1
2.065998376E1,7.207480907E0,-9.217152596E0,-5.327021480E-1
2.067877891E1,7.243373394E0,-7.609774113E0,-7.600203156E-1
2.069757422E1,7.744968891E0,-6.332305908E0,-1.616052628E0
2.071636974E1,8.351848602E0,-5.640480995E0,-2.688635349E0
2.073516516E1,8.539685249E0,-5.309972763E0,-3.427120209E0
2.075396105E1,8.491828918E0,-5.287240505E0,-3.677469254E0
2.077275787E1,8.711071014E0,-5.688337803E0,-3.571886063E0
2.079155297E1,9.357432365E0,-6.525227547E0,-3.087339401E0
2.081034803E1,9.945169449E0,-7.353443146E0,-2.250449657E0
2.082914355E1,1.014377308E1,-7.992625713E0,-1.229312658E0
2.084794011E1,9.862616539E0,-8.353044510E0,-1.710868180E-1
2.086673594E1,9.156135559E0,-8.367402077E0,5.817549825E-1
2.088553063E1,8.471489906E0,-8.003393173E0,1.107278705E0
2.090432620E1,8.351848602E0,-7.447959423E0,1.647159338E0
2.092312120E1,8.514560699E0,-6.945167542E0,2.002792597E0
2.094191792E1,8.423632622E0,-6.519245148E0,2.105684042E0
2.096071480E1,7.887341499E0,-6.346662998E0,1.900798440E0
2.097951219E1,7.335496902E0,-6.465406895E0,1.527518153E0
2.099831146E1,6.988238335E0,-6.479763508E0,1.313061476E0
2.101711032E1,7.286444187E0,-6.396912098E0,9.385846853E-1
2.103590995E1,7.925626755E0,-6.290431499E0,3.963112533E-1
2.105470818E1,8.329116821E0,-5.865406513E0,-1.543370634E-1
2.107350516E1,8.837890625E0,-5.500501156E0,-9.397810698E-1
2.109230146E1,9.492626190E0,-5.462215900E0,-1.840977907E0
2.111109750E1,1.020479012E1,-5.409573555E0,-2.195414782E0
2.112989516E1,1.135155106E1,-5.439484119E0,-1.818246126E0
2.114869376E1,1.250309658E1,-5.517251015E0,-1.039083242E0
2.116749224E1,1.343450260E1,-5.683551788E0,-3.589233849E-3
2.118628886E1,1.434078407E1,-6.416054726E0,7.588238716E-1
2.120508626E1,1.435035515E1,-7.225427151E0,1.213759303E0
2.122388563E1,1.342612743E1,-7.207480907E0,1.654337764E0
2.124268266E1,1.251506042E1,-6.176772594E0,2.175075769E0
2.126147948E1,1.205294704E1,-4.679164886E0,2.289931297E0
2.128027641E1,1.185314560E1,-3.565903902E0,1.572981834E0
2.129907407E1,1.175384426E1,-3.342175007E0,3.975076675E-1
2.131787198E1,1.140897846E1,-3.981357813E0,-6.523432732E-1
2.133666855E1,1.079611683E1,-5.025226593E0,-1.114457130E0
2.135546626E1,1.027059269E1,-6.276074886E0,-9.661021233E-1
2.137426480E1,1.039292622E1,-7.774878979E0,-3.269194067E-1
2.139306287E1,1.070877838E1,-9.052047729E0,6.762714982E-1
2.141185870E1,1.101057339E1,-1.009950638E1,1.479661703E0
2.143065563E1,1.100937653E1,-1.074467087E1,1.915155411E0
2.144945214E1,1.062742233E1,-1.087747288E1,1.969292998E0
2.146824876E1,1.002772141E1,-1.049940681E1,1.739282966E0
2.148704433E1,9.483055115E0,-9.876974106E0,1.308275819E0
2.150584183E1,9.127422333E0,-9.321539879E0,7.588238716E-1
2.152463891E1,8.750552177E0,-8.967103004E0,3.077768087E-1
2.154343589E1,8.270492554E0,-8.671290398E0,-3.828516230E-2
2.156223308E1,7.864609718E0,-8.384151459E0,-2.775674164E-1
2.158102974E1,7.343871593E0,-8.094321251E0,-4.525425732E-1
2.159982584E1,6.753741741E0,-7.728219032E0,-4.848456979E-1
2.161862079E1,6.120541096E0,-7.252944469E0,-3.245265782E-1
2.163741693E1,5.574678421E0,-6.839883327E0,-1.794617027E-1
2.165621287E1,5.211866856E0,-6.674778938E0,-3.041875660E-1
2.167500829E1,4.812265396E0,-6.815955162E0,-7.205387354E-1
2.169380402E1,3.783949852E0,-6.912864685E0,-1.224527001E0
2.171260011E1,2.810669184E0,-7.003791809E0,-1.691426516E0
2.173139579E1,2.361716032E0,-7.474280834E0,-2.105684042E0
2.175019094E1,2.433500528E0,-7.997411251E0,-2.388036966E0
2.176898719E1,3.558725595E0,-8.941978455E0,-2.829811811E0
2.178778448E1,4.597808838E0,-9.876974106E0,-3.041576624E0
2.180658131E1,5.276473045E0,-9.947562218E0,-2.554637194E0
2.182537594E1,5.611767292E0,-9.572786331E0,-1.622034669E0
2.184417011E1,5.804389477E0,-8.343473434E0,-8.078767657E-1
2.186296448E1,6.408876419E0,-6.601797581E0,-6.391827464E-1
2.188175891E1,7.516155243E0,-5.551946640E0,-1.400399446E0
2.190055313E1,8.571988106E0,-5.233402252E0,-2.319841623E0
2.191934844E1,8.986245155E0,-5.091029167E0,-2.769991398E0
2.193814402E1,9.046066284E0,-5.379663467E0,-2.998505831E0
2.195693917E1,9.120243073E0,-6.076273918E0,-3.150749207E0
2.197573506E1,9.262915611E0,-6.981060028E0,-3.076272726E0
2.199452865E1,9.352646828E0,-8.054839134E0,-2.625225544E0
2.201332240E1,9.136993408E0,-8.813961983E0,-1.671087503E0
2.203211485E1,8.755337715E0,-9.134600639E0,-5.422734022E-1
2.205090839E1,8.370990753E0,-9.013762474E0,5.075774789E-1
2.206970136E1,8.258528709E0,-8.521739006E0,1.338186026E0
2.208849568E1,8.265707016E0,-7.822735310E0,1.762014747E0
2.210729053E1,8.222636223E0,-7.266105175E0,1.776371717E0
2.212608480E1,8.109873772E0,-6.904489517E0,1.635195136E0
2.214487865E1,8.131409645E0,-6.795616150E0,1.588535190E0
2.216367256E1,8.525327682E0,-6.766902447E0,1.588535190E0
2.218246714E1,9.147761345E0,-6.638886452E0,1.364507079E0
2.220126313E1,9.831509590E0,-6.300003052E0,1.058225870E0
2.222005917E1,1.020479012E1,-5.663212776E0,7.241279483E-1
2.223885412E1,1.046710396E1,-5.004887581E0,5.742774159E-2
2.225764787E1,1.089900780E1,-4.541577339E0,-7.552346587E-1
2.227644297E1,1.141137123E1,-4.258028030E0,-1.566999674E0
2.229523865E1,1.168923759E1,-3.836591959E0,-2.112862349E0
2.231403417E1,1.221236897E1,-3.568296671E0,-2.686242580E0
2.233282917E1,1.305015564E1,-3.585046530E0,-2.905185699E0
2.235162443E1,1.439342594E1,-3.892823458E0,-2.112862349E0
2.237041922E1,1.606810379E1,-5.002494812E0,-1.016351461E0
2.238921323E1,1.650240135E1,-5.699105263E0,4.680959284E-1
2.240800902E1,1.564786339E1,-4.992923737E0,1.981257200E0
2.242680553E1,1.456690598E1,-4.038785458E0,2.507678032E0
2.244560120E1,1.304656601E1,-3.265604734E0,2.279163599E0
2.246439537E1,1.166172028E1,-3.262015581E0,1.523928881E0
2.248319146E1,1.089063358E1,-4.234099865E0,5.973083377E-1
2.250198714E1,1.025623608E1,-5.314758301E0,1.758724600E-1
2.252078214E1,9.553643227E0,-6.235396862E0,2.440679073E-1
2.253957573E1,9.296415329E0,-7.105785847E0,5.829514265E-1
2.255836876E1,9.593125343E0,-7.910073280E0,9.433703423E-1
2.257716178E1,1.013779163E1,-8.522934914E0,1.369292736E0
2.259595526E1,1.076500988E1,-8.791230202E0,1.767996788E0
2.261474896E1,1.122832012E1,-8.738588333E0,1.806282043E0
2.263354349E1,1.155763245E1,-8.557631493E0,1.599302888E0
2.265233948E1,1.159950733E1,-7.987840176E0,1.593320727E0
2.267113506E1,1.177537918E1,-7.531708241E0,1.448554993E0
2.268993068E1,1.200987625E1,-7.224230766E0,1.153938770E0
2.270872751E1,1.206251812E1,-7.048357964E0,7.671987414E-1
2.272752214E1,1.202542973E1,-7.009773731E0,5.566303730E-1
2.274631782E1,1.177298641E1,-6.905686378E0,5.111667514E-1
2.276511204E1,1.129771233E1,-6.831508636E0,4.334000051E-1
2.278390620E1,1.060588741E1,-6.519245148E0,6.667001843E-1
2.280270188E1,9.777372360E0,-5.932704449E0,9.349954724E-1
2.282149797E1,9.294022560E0,-5.371288776E0,9.900303483E-1
2.284029313E1,9.162117958E0,-4.836193562E0,1.218544960E0
2.285908844E1,9.243474007E0,-4.295116425E0,1.623231053E0
2.287788297E1,9.449555397E0,-3.830610037E0,1.924726725E0
2.289667709E1,9.583553314E0,-3.533600807E0,1.876870275E0
2.291547073E1,9.625428200E0,-3.169891834E0,1.860120535E0
2.293426474E1,9.443573952E0,-2.553440809E0,2.066202402E0
2.295306079E1,9.190832138E0,-2.335394859E0,2.712563515E0
2.297185766E1,8.667700768E0,-2.269592285E0,3.260818958E0
2.299065193E1,7.449155807E0,-1.850549221E0,3.060719252E0
2.300944782E1,6.115755558E0,-1.299900889E0,4.539184570E0
2.302824428E1,4.691128731E0,-5.027918816E-1,8.166404724E0
2.304704136E1,3.663112402E0,2.057827413E-1,1.120558834E1
2.306583709E1,3.181855917E0,2.958126962E-1,1.236192036E1
2.308463443E1,2.606082916E0,3.687937856E-1,1.271516037E1
2.310343172E1,2.173879385E0,7.336992621E-1,1.247318649E1
2.312222818E1,2.117648125E0,9.026923180E-1,1.100578785E1
2.314102282E1,1.765604019E0,9.194421172E-1,9.380164146E0
2.315981688E1,1.687837243E0,1.023529887E0,8.408080101E0
2.317861120E1,1.818246126E0,1.107278705E0,8.112266541E0
2.319740516E1,1.843370795E0,1.389631748E0,7.642077446E0
2.321619980E1,1.599302888E0,1.666301847E0,6.622136593E0
2.323499370E1,1.047458172E0,1.867298961E0,5.901597977E0
2.325378943E1,4.477569461E-1,2.009970903E0,5.742176056E0
2.327258474E1,-5.264209956E-2,2.170290232E0,5.858228207E0
2.329138079E1,-4.633102715E-1,2.495713949E0,5.666802406E0
2.331017698E1,-7.731808424E-1,2.945863724E0,5.138885498E0
2.332897297E1,-8.799605370E-1,3.576671600E0,4.939085007E0
2.334776813E1,-9.864411354E-1,4.289134502E0,5.144867897E0
2.336656172E1,-1.314257860E0,4.797908306E0,5.262115955E0
2.338535521E1,-1.539482236E0,5.024030209E0,5.734997749E0
2.340414870E1,-1.509572029E0,5.035994530E0,6.805187702E0
2.342294417E1,-1.599302888E0,5.007280350E0,7.861020565E0
2.344173917E1,-1.742872238E0,5.068297386E0,8.396115303E0
2.346053568E1,-1.775175333E0,5.128118038E0,8.680861473E0
2.347933146E1,-1.593320727E0,5.234598637E0,8.683254242E0
2.349812641E1,-1.375274777E0,5.416752338E0,8.668897629E0
2.351692183E1,-1.208973646E0,5.414359570E0,8.630612373E0
2.353571620E1,-1.284347534E0,5.545964718E0,8.611469269E0
2.355451240E1,-1.517946839E0,6.006882191E0,7.907680511E0
2.357330771E1,-1.752443433E0,6.363412857E0,6.856633186E0
2.359210282E1,-1.403091431E0,6.217450619E0,6.721438885E0
2.361089808E1,-4.621138871E-1,5.388038158E0,7.547261715E0
2.362969532E1,5.003990531E-1,3.825824261E0,9.477072716E0
2.364848964E1,5.781657696E-1,2.764009237E0,1.094357395E1
2.366728376E1,2.751746029E-2,2.637189627E0,1.059511948E1
2.368607896E1,-7.178467698E-3,2.872882605E0,9.172885895E0
2.370487396E1,1.256231815E-1,3.211766243E0,7.934001446E0
2.372366943E1,-3.269194067E-1,3.671487331E0,7.465905666E0
2.374246464E1,-7.839485407E-1,4.020839214E0,7.196712971E0
2.376126094E1,-4.716851711E-1,4.423132420E0,7.583453178E0
2.378005766E1,1.028913707E-1,4.812265396E0,7.483851910E0
2.379885469E1,2.380858511E-1,4.947459698E0,7.032804966E0
2.381765178E1,2.045863420E-1,4.794319153E0,7.214659214E0
2.383644745E1,4.716851711E-1,4.547559261E0,7.922037601E0
2.385524339E1,6.212365627E-1,4.352544308E0,8.677271843E0
2.387403870E1,9.385846853E-1,4.303491592E0,9.289237022E0
2.389283339E1,1.380060434E0,4.386044025E0,9.221938133E0
2.391162714E1,1.734497309E0,4.532006264E0,8.540881157E0
2.393042136E1,2.008774519E0,4.660022259E0,7.832306862E0
2.394921490E1,1.918744683E0,4.782355309E0,7.488637447E0
2.396800870E1,1.770389676E0,4.784748077E0,7.479066372E0
2.398680136E1,1.651944876E0,4.618147850E0,7.705487251E0
2.400559573E1,1.824228168E0,4.486542225E0,8.138887405E0
2.402439006E1,1.869691849E0,4.460221291E0,8.580363274E0
2.404318396E1,1.574178219E0,4.547559261E0,8.470293045E0
2.406197750E1,1.365703583E0,4.787140846E0,7.913662910E0
2.408077198E1,1.327418327E0,5.220241547E0,7.660023689E0
2.409956704E1,1.722533226E0,5.408377171E0,8.011768341E0
2.411836162E1,2.534298182E0,5.202295303E0,8.623434067E0
2.413715844E1,3.293122053E0,5.366502762E0,9.311968803E0
2.415595501E1,3.755236149E0,5.888138294E0,9.712766647E0
2.417475089E1,3.931108475E0,5.925526142E0,9.565608025E0
2.419354584E1,4.048357010E0,5.487340450E0,9.803693771E0
2.421234126E1,4.427918434E0,4.575077057E0,1.077218819E1
2.423113855E1,4.673182487E0,3.538386583E0,1.177537918E1
2.424993386E1,4.423132420E0,2.890828848E0,1.228534985E1
2.426872792E1,3.980161428E0,2.464607239E0,1.254377460E1
2.428752318E1,3.605385542E0,2.100898266E0,1.240977669E1
2.430631886E1,3.060719252E0,2.012363911E0,1.150618649E1
2.432511334E1,2.553440809E0,2.039881229E0,1.005763149E1
2.434390730E1,2.231307030E0,2.045863390E0,8.833105087E0
2.436270214E1,2.106880426E0,1.995614052E0,8.105088234E0
2.438149751E1,2.060220242E0,2.009970903E0,7.729415417E0
2.440029141E1,1.978864312E0,2.002792597E0,7.196712971E0
2.441908620E1,1.703390598E0,2.072184324E0,6.431608200E0
2.443788131E1,1.248455167E0,2.201396942E0,5.633302689E0
2.445667683E1,7.576274872E-1,2.379662037E0,5.050351143E0
2.447547120E1,2.799602449E-1,2.628814697E0,4.597808838E0
2.449426448E1,-2.237289101E-1,2.908775091E0,4.299902439E0
2.451305709E1,-7.456633449E-1,3.259622574E0,4.271188259E0
2.453185068E1,-9.864411354E-1,3.585046530E0,4.543970108E0
2.455064657E1,-9.457631707E-1,3.900001764E0,5.067101002E0
2.456944120E1,-9.026923180E-1,4.073481560E0,5.672784328E0
2.458823459E1,-5.817549825E-1,4.044767380E0,6.461817741E0
2.460702808E1,1.459621787E-1,3.836591959E0,7.621738434E0
2.462582141E1,6.188437343E-1,3.713361740E0,9.140582085E0
2.464461412E1,9.852447510E-1,3.593421459E0,1.065972614E1
2.466340964E1,1.182652593E0,3.379263878E0,1.174427223E1
2.468220448E1,1.186241865E0,3.199802160E0,1.196919823E1
2.470099766E1,1.106082320E0,2.933899641E0,1.217647648E1
2.471989870E1,8.246265054E-1,2.680260420E0,1.296640682E1
2.473870339E1,2.392822690E-2,2.811865807E0,1.349671650E1
2.475751011E1,-2.093719840E-1,3.011666298E0,1.341655636E1
2.477631526E1,7.061817646E-1,2.477767944E0,1.338066387E1
2.479512198E1,2.050648928E0,1.296311617E0,1.377099323E1
2.481392719E1,2.966202736E0,-2.333002090E-1,1.512712574E1
2.483273391E1,2.890828848E0,-1.272383451E0,1.647368622E1
2.485153907E1,2.352144718E0,-1.302293777E0,1.609442329E1
2.487034579E1,1.975275040E0,-1.223330617E0,1.422323704E1
2.488915099E1,1.557428479E0,-9.026923180E-1,1.202064323E1
2.490795771E1,1.243669510E0,-3.628117442E-1,1.024427223E1
2.492676292E1,1.214955688E0,9.810572863E-2,9.019744873E0
2.494556964E1,1.392024517E0,5.291129351E-1,8.332705498E0
2.496437480E1,1.501197100E0,9.996016622E-1,7.851449490E0
2.498318152E1,1.514357686E0,1.453340650E0,7.358228683E0
2.500198672E1,1.393221021E0,1.790728688E0,6.862615108E0
2.502079344E1,1.242473125E0,2.171486616E0,6.463014126E0
2.503959865E1,1.191027522E0,2.628814697E0,6.053542137E0
2.505840537E1,9.182456732E-1,2.937488794E0,5.370092392E0
2.507721053E1,8.751748800E-1,3.143570662E0,4.162015915E0
2.509601730E1,9.314061999E-1,3.309871912E0,2.608475685E0
2.511482245E1,4.668995142E-1,3.241676569E0,1.275972724E0
2.513362917E1,-3.281157911E-1,2.665903568E0,7.456633449E-1
2.515243438E1,-4.597210586E-1,1.934298038E0,1.127617717E0
2.517124110E1,-2.392822644E-3,1.351346612E0,1.363310695E0
2.519004631E1,1.952244163E0,8.548358679E-1,6.068796515E-1
2.520885308E1,4.607379913E0,6.619145870E-1,-5.578267574E-1
2.522765823E1,4.372883320E0,1.412662625E0,-1.844567180E0
2.524646495E1,3.075076103E0,1.287936807E0,-3.770789385E0
2.526527016E1,4.054338932E0,-5.662016869E-1,-5.130510807E0
2.528407693E1,6.570691109E0,-2.947060108E0,-4.503292084E0
2.530288209E1,9.259325981E0,-6.252146244E0,-6.882356405E-1
2.532168886E1,1.162223911E1,-9.615857124E0,6.350252151E0
2.534049402E1,1.407129288E1,-1.254975700E1,1.236550903E1
2.535930079E1,1.461954784E1,-1.476670647E1,1.567059517E1
2.537810599E1,1.449392509E1,-1.573879051E1,1.666900063E1
2.539691271E1,1.364866066E1,-1.629183197E1,1.527548027E1
2.541571287E1,1.314706516E1,-1.549113369E1,1.241695499E1
2.543450943E1,1.449512100E1,-1.476909924E1,7.361817837E0
2.545330438E1,1.704945946E1,-1.386192036E1,4.694717884E0
2.547209902E1,1.942104530E1,-1.276660633E1,4.004089355E0
2.549089396E1,1.956940079E1,-1.092532921E1,2.921935558E0
2.550969053E1,1.796052742E1,-8.888139725E0,7.552346587E-1
2.552848558E1,1.615783310E1,-7.304390430E0,-1.060618639E0
2.554728073E1,1.466142273E1,-6.076273918E0,-1.633998752E0
2.556607641E1,1.348235893E1,-5.459823132E0,-1.403091431E0
2.558487271E1,1.237508011E1,-5.238187790E0,-5.757729411E-1
2.560366969E1,1.162343502E1,-5.282454967E0,6.224330068E-1
2.562246657E1,1.098544884E1,-5.656034470E0,1.795514345E0
2.564126448E1,1.004447079E1,-6.145665646E0,2.746062994E0
2.566006006E1,8.736195564E0,-6.274878502E0,3.229712248E0
2.567885662E1,7.861020565E0,-6.097809315E0,3.108874798E0
2.569765188E1,7.474280834E0,-5.670391560E0,2.754437923E0
2.571644750E1,7.269694328E0,-5.258526802E0,2.349751949E0
2.573524313E1,7.278069019E0,-5.185545921E0,1.972882271E0
2.575403912E1,7.284051418E0,-5.342574596E0,1.625623941E0
2.577283448E1,7.640881062E0,-5.361717224E0,9.732806087E-1
2.579163105E1,8.459525108E0,-5.262115955E0,1.806581169E-1
2.581042776E1,9.784550667E0,-5.269294739E0,3.508476317E-1
2.582922360E1,1.041326523E1,-5.699105263E0,1.528714538E0
2.584801985E1,9.984650612E0,-6.015256882E0,2.148754835E0
2.586681615E1,9.602696419E0,-5.627320766E0,7.121638656E-1
2.588561303E1,8.884550095E0,-5.683551788E0,-1.794617064E-2
2.590440948E1,9.572786331E0,-6.449554443E0,4.357928336E-1
2.592320620E1,1.085593700E1,-7.106982231E0,9.397810698E-1
2.594200339E1,1.201346493E1,-7.776075363E0,4.788636267E-1
2.596080021E1,1.188664532E1,-8.412865639E0,6.116653085E-1
2.597959865E1,1.122353458E1,-8.274081230E0,1.820638895E0
2.599839855E1,1.107039356E1,-7.016055107E0,2.714956284E0
2.601719698E1,1.076261711E1,-5.749354839E0,2.494517565E0
2.603599506E1,1.040010452E1,-5.390431404E0,1.386042476E0
2.605479308E1,9.499805450E0,-6.192326069E0,3.735794425E-1
2.607359001E1,8.298009872E0,-7.184749126E0,1.471585929E-1
2.609238719E1,7.820342541E0,-7.922037601E0,6.020939946E-1
2.611118448E1,8.232207298E0,-8.591130257E0,1.328614831E0
2.612997974E1,8.781659126E0,-9.536893845E0,2.079362869E0
2.614877417E1,8.599505424E0,-1.033639526E1,2.712563515E0
2.616757006E1,8.158029556E0,-1.063220787E1,3.125624657E0
2.618636646E1,8.295617104E0,-1.056161976E1,3.437887907E0
2.620516287E1,7.996214867E0,-9.790533066E0,3.883252144E0
2.622395735E1,8.109873772E0,-8.894122124E0,3.766003847E0
2.624275126E1,8.275278091E0,-7.968697548E0,3.189034462E0
2.626154589E1,8.091927528E0,-7.051947594E0,2.020738840E0
2.628034167E1,7.846663475E0,-6.583851337E0,5.231308341E-1
2.629913573E1,7.567600727E0,-6.381359100E0,-7.241279483E-1
2.631793136E1,7.242177010E0,-6.258128643E0,-1.417448282E0
2.633672761E1,6.831508636E0,-6.349055767E0,-1.589731574E0
2.635552485E1,5.953043461E0,-6.504888535E0,-1.305882931E0
2.637431959E1,4.105784416E0,-6.583851337E0,-1.016351461E0
2.639311521E1,1.647159338E0,-7.019644260E0,-9.792626500E-1
2.641191224E1,-6.894320250E-1,-7.652844906E0,-9.529415965E-1
2.643070756E1,-1.604088426E0,-7.893323898E0,-2.946162820E-1
2.644950261E1,-4.381856322E-1,-8.023732185E0,4.202394783E-1
2.646829902E1,1.831406593E0,-8.363812447E0,6.463612318E-1
2.648709526E1,3.632902861E0,-8.779266357E0,1.686939895E-1
2.650588969E1,4.467400074E0,-9.162117958E0,-5.745765567E-1
2.652468501E1,5.700301647E0,-9.894919395E0,-1.116850019E0
2.654348214E1,7.240980625E0,-1.166770267E1,-1.654337764E0
2.656227907E1,7.279265404E0,-1.276540947E1,-1.284347534E0
2.658107506E1,6.888936520E0,-1.264457226E1,1.686939895E-1
2.659987167E1,6.650850773E0,-1.139462185E1,1.625623941E0
2.661866730E1,6.794419765E0,-9.237491608E0,2.277967215E0
2.663746235E1,7.679165840E0,-7.596613884E0,1.600499272E0
2.665625823E1,8.150851250E0,-6.690331936E0,4.477569461E-1
2.667505339E1,8.077570915E0,-6.390930176E0,-8.318049908E-1
2.669384886E1,7.960322857E0,-6.477370739E0,-1.823031783E0
2.671264448E1,8.023732185E0,-6.738188744E0,-2.401197433E0
2.673144172E1,8.420043945E0,-7.331907749E0,-2.588136673E0
2.675023766E1,8.835497856E0,-8.289634705E0,-2.051845312E0
2.676903417E1,8.667700768E0,-9.229117393E0,-9.206385016E-1
2.678783219E1,7.938787460E0,-9.945169449E0,5.398806334E-1
2.680662870E1,6.904489517E0,-9.448359489E0,2.130808592E0
2.682542334E1,6.732206345E0,-8.351848602E0,2.852543592E0
2.684421787E1,7.353443146E0,-7.540083408E0,2.520838737E0
2.686301417E1,7.711469173E0,-6.912864685E0,1.651944876E0
2.688180959E1,7.790432453E0,-6.762116909E0,7.109674215E-1
2.690060443E1,7.679165840E0,-6.996613503E0,3.589234129E-2
2.691939990E1,7.596613884E0,-7.234998226E0,-1.543370634E-1
2.693819688E1,7.765307903E0,-7.433602810E0,8.494520187E-2
2.695699266E1,8.132605553E0,-7.288836956E0,6.224330068E-1
2.697578777E1,8.388936996E0,-6.824330330E0,6.643074155E-1
2.699458532E1,8.697910309E0,-6.298806667E0,1.579262912E-1
2.701338230E1,9.036494255E0,-5.927918911E0,-6.511468887E-1
2.703217902E1,9.256634712E0,-5.842674732E0,-1.515554070E0
2.705097454E1,9.141778946E0,-5.978168488E0,-2.528316259E0
2.706976933E1,9.291629791E0,-6.310770512E0,-3.267997503E0
2.708856553E1,9.484251976E0,-6.465406895E0,-3.180659533E0
2.710736162E1,9.963115692E0,-6.553941250E0,-2.673082113E0
2.712615610E1,1.083200932E1,-6.984649181E0,-2.279163599E0
2.714494943E1,1.155643559E1,-7.780860901E0,-1.878066659E0
2.716374537E1,1.193569851E1,-8.473882675E0,-1.339382529E0
2.718254105E1,1.206521034E1,-8.762516975E0,-4.800600410E-1
2.720133678E1,1.158156109E1,-7.980661869E0,5.051847100E-1
2.722013162E1,1.112542915E1,-6.850651264E0,6.655037999E-1
2.723892740E1,1.084636593E1,-6.547959328E0,2.751746178E-1
2.725772276E1,1.013300610E1,-7.170392036E0,4.546362907E-2
2.727651881E1,9.400503159E0,-8.265707016E0,1.663011760E-1
2.729531469E1,9.084351540E0,-9.459127426E0,6.164509058E-1
2.731411079E1,8.937192917E0,-1.067527866E1,1.019940615E0
2.733290735E1,9.064012527E0,-1.196919823E1,1.091725349E0
2.735170428E1,9.213563919E0,-1.287667561E1,1.442572951E0
2.737050084E1,9.308379173E0,-1.318535042E1,2.099701881E0
2.738929855E1,9.180064201E0,-1.278096294E1,2.708974361E0
2.740809323E1,8.989834785E0,-1.178016472E1,2.881257534E0
2.742688683E1,8.825926781E0,-1.043838978E1,2.462214470E0
2.744568146E1,8.664112091E0,-9.247062683E0,1.405484200E0
2.746447672E1,8.448758125E0,-8.348258972E0,-1.375873089E-1
2.748327261E1,7.808378696E0,-7.777271748E0,-1.686640859E0
2.750206704E1,6.880561352E0,-7.504190922E0,-2.724527597E0
2.752086407E1,5.985346794E0,-7.367800236E0,-2.810669184E0
2.753965948E1,5.522036552E0,-7.127321243E0,-2.020738840E0
2.755845506E1,5.167599678E0,-6.987041950E0,-1.247258782E0
2.757725136E1,4.417150497E0,-6.777669907E0,-8.198408484E-1
2.759604646E1,3.302693367E0,-6.508477688E0,-1.001994491E0
2.761484214E1,1.947458506E0,-6.530013084E0,-1.497607827E0
2.763363829E1,4.872384965E-1,-6.589833736E0,-1.811067581E0
2.765243490E1,-2.667997181E-1,-6.733402729E0,-1.690230131E0
2.767123245E1,1.998006850E-1,-7.036394119E0,-1.344168067E0
2.769002964E1,1.297508121E0,-7.634898663E0,-1.277169108E0
2.770882605E1,2.504088879E0,-8.281260490E0,-1.268794179E0
2.772762172E1,4.465006828E0,-9.614660263E0,-1.561017632E0
2.774641766E1,5.482554913E0,-1.099741268E1,-1.540678620E0
2.776521490E1,5.829514027E0,-1.174786186E1,-9.553344250E-1
2.778401073E1,6.176772594E0,-1.191296673E1,-1.758724600E-1
2.780280740E1,6.593422890E0,-1.109312534E1,4.214358926E-1
2.782160313E1,7.413263798E0,-9.656535149E0,2.560320199E-1
2.784039902E1,8.546863556E0,-8.283653259E0,-5.135595798E-1
2.785919573E1,9.244669914E0,-7.397710323E0,-1.429412484E0
2.787799198E1,9.372985840E0,-7.361817837E0,-2.181057930E0
2.789678751E1,9.575179100E0,-7.646862984E0,-2.747259617E0
2.791558266E1,1.036989498E1,-8.236992836E0,-3.262015581E0
2.793437735E1,1.107039356E1,-8.924032211E0,-3.535993576E0
2.795317339E1,1.102732277E1,-9.424430847E0,-3.317050457E0
2.797196745E1,1.053649521E1,-9.921240807E0,-2.693420887E0
2.799076204E1,9.788140297E0,-1.042164040E1,-1.645962834E0
2.800955714E1,8.861818314E0,-1.038574791E1,-3.843471408E-1
2.802835146E1,8.131409645E0,-9.583553314E0,5.865406394E-1
2.804714553E1,7.960322857E0,-8.463114738E0,1.013958573E0
2.806593750E1,8.225028992E0,-7.531708241E0,7.911269665E-1
2.808473047E1,8.294420242E0,-6.900900364E0,1.268195957E-1
2.810352480E1,8.114660263E0,-6.556334019E0,-5.207380056E-1
2.812231881E1,7.671987534E0,-6.286842346E0,-1.080957651E0
2.814111454E1,7.519744396E0,-6.148058891E0,-1.557428479E0
2.815990881E1,7.753343582E0,-6.053542137E0,-1.578963876E0
2.817870230E1,8.115856171E0,-5.918347836E0,-1.326221943E0
2.819749704E1,8.373383522E0,-5.800800323E0,-1.048654556E0
2.821629183E1,8.577970505E0,-5.911169052E0,-9.840483069E-1
2.823508667E1,8.646165848E0,-6.035595894E0,-1.046261668E0
2.825388120E1,8.711071014E0,-5.882156372E0,-1.096511006E0
2.827267636E1,8.891729355E0,-5.703890800E0,-1.104885817E0
2.829147037E1,9.539286613E0,-5.671587944E0,-1.161117196E0
2.831026454E1,1.034836006E1,-5.878567219E0,-1.262812138E0
2.832905797E1,1.187587833E1,-6.893722057E0,-1.771586061E0
2.834785037E1,1.334477234E1,-8.391329765E0,-2.303091764E0
2.836664474E1,1.380927849E1,-8.916853905E0,-2.035095692E0
2.838544011E1,1.378056431E1,-7.983054638E0,-1.341775298E0
2.840423547E1,1.320359516E1,-6.327520370E0,-9.218349457E-1
2.842303271E1,1.218604755E1,-5.117350101E0,-1.034297585E0
2.844182886E1,1.129292679E1,-5.434698582E0,-1.668694735E0
2.846062349E1,1.036510944E1,-6.896114826E0,-2.065006018E0
2.847941839E1,9.645767212E0,-8.727820396E0,-1.748854280E0
2.849821495E1,9.129815102E0,-1.052213860E1,-9.457631707E-1
2.851701224E1,9.183652878E0,-1.173709393E1,5.144568533E-2
2.853580636E1,9.591928482E0,-1.251625729E1,8.306085467E-1
2.855460026E1,9.989436150E0,-1.284437275E1,1.247258782E0
2.857339474E1,1.011147022E1,-1.291735363E1,1.262812138E0
2.859219011E1,9.697213173E0,-1.254975700E1,1.157527924E0
2.861098464E1,9.072386742E0,-1.183759308E1,6.882356405E-1
2.862977771E1,8.269295692E0,-1.079731274E1,1.435693651E-1
2.864857183E1,7.643273830E0,-9.633803368E0,-3.640081584E-1
2.866736610E1,7.170392036E0,-8.593523026E0,-7.779664397E-1
2.868616063E1,6.784848690E0,-7.743772507E0,-1.004387259E0
2.870495386E1,6.426822662E0,-7.270890713E0,-1.134796143E0
2.872374704E1,5.857031822E0,-6.991827965E0,-9.661021233E-1
2.874254391E1,5.190331459E0,-6.750152588E0,-6.583253145E-1
2.876134230E1,4.479363918E0,-6.486942291E0,-3.113660514E-1
2.878014037E1,3.684647799E0,-6.168397903E0,-6.101697683E-2
2.879893808E1,2.927917719E0,-5.760122299E0,-9.212367237E-2
2.881773474E1,2.236092806E0,-5.701498032E0,-5.973083377E-1
2.883652907E1,1.398006678E0,-5.794818401E0,-1.053440213E0
2.885532365E1,7.384848595E-1,-6.039185047E0,-1.244866014E0
2.887411776E1,9.876375198E-1,-6.613761902E0,-1.082154036E0
2.889291297E1,1.857727647E0,-7.328318596E0,-8.715856671E-1
2.891170724E1,2.944667339E0,-8.075178146E0,-9.661021233E-1
2.893050126E1,4.442275047E0,-9.058030128E0,-1.305882931E0
2.894929579E1,5.431109428E0,-1.043480015E1,-1.923530340E0
2.896809120E1,5.624927998E0,-1.132881927E1,-2.200200319E0
2.898688610E1,6.176772594E0,-1.186869907E1,-1.850549221E0
2.900568016E1,6.967899323E0,-1.173948669E1,-1.104885817E0
2.902447495E1,7.564011574E0,-1.075902748E1,-3.400799036E-1
2.904327068E1,8.324331284E0,-9.422038078E0,-1.794617064E-2
2.906206516E1,9.416056633E0,-8.376973152E0,-3.604189157E-1
2.908086141E1,9.942776680E0,-7.538887024E0,-1.068993568E0
2.909965745E1,1.020957565E1,-6.955935478E0,-1.787139416E0
2.911845313E1,1.090618610E1,-6.905686378E0,-2.394019127E0
2.913724917E1,1.140299606E1,-7.514958382E0,-2.896811008E0
2.915604547E1,1.122592735E1,-8.599505424E0,-3.174677372E0
2.917484183E1,1.053529930E1,-9.739087105E0,-2.968595505E0
2.919363803E1,9.449555397E0,-1.068485069E1,-1.982453585E0
2.921243282E1,7.655237675E0,-1.084038353E1,-5.434698462E-1
2.923122745E1,6.347859383E0,-9.949954987E0,6.499504447E-1
2.925002037E1,6.329913139E0,-8.677271843E0,1.366899967E0
2.926881480E1,6.734599113E0,-7.660023689E0,1.435394526E0
2.928760938E1,6.902096748E0,-7.090232372E0,8.389834166E-1
2.930640344E1,6.838686943E0,-6.887740135E0,1.543370634E-1
2.932519886E1,6.764509678E0,-6.837490559E0,-5.805585980E-1
2.934399516E1,7.075875759E0,-7.012166977E0,-1.235294700E0
2.936279063E1,7.513761997E0,-7.187141895E0,-1.527518153E0
2.938158683E1,7.961519241E0,-7.239784241E0,-1.495215058E0
2.940038204E1,8.402097702E0,-6.923632145E0,-1.303490162E0
2.941917818E1,9.042476654E0,-6.435197353E0,-1.175474167E0
2.943797323E1,9.773782730E0,-6.037988663E0,-1.023529887E0
2.945676808E1,1.023589706E1,-5.895616055E0,-1.133599758E0
2.947556303E1,1.048146057E1,-6.177968979E0,-1.616052628E0
2.949435870E1,1.068485069E1,-6.899703979E0,-2.082952023E0
2.951315297E1,1.172991562E1,-8.065607071E0,-2.220539331E0
2.953194693E1,1.296042442E1,-9.272486687E0,-1.921137452E0
2.955074042E1,1.349791241E1,-9.245866776E0,-1.181456208E0
2.956953495E1,1.366660690E1,-8.117053032E0,-5.925226808E-1
2.958832928E1,1.356132221E1,-6.970292568E0,-5.398806334E-1
2.960712318E1,1.264217949E1,-6.097809315E0,-1.307079315E0
2.962591714E1,1.087986565E1,-5.775675774E0,-2.784348249E0
2.964471271E1,8.920442581E0,-6.555137634E0,-4.526023865E0
2.966350855E1,7.250551701E0,-7.852645874E0,-5.189135075E0
2.968230433E1,6.496513367E0,-8.552845001E0,-3.821038723E0
2.970110110E1,7.041179657E0,-9.198010445E0,-1.495215058E0
2.971989683E1,6.914061069E0,-1.035314560E1,1.619641781E0
2.973868995E1,8.150851250E0,-1.126899815E1,2.847758055E0
2.975748407E1,8.962317467E0,-1.138385391E1,2.160718918E0
2.977627823E1,8.056035995E0,-1.265414333E1,6.942176819E-1
2.979507271E1,7.996214867E0,-1.322393417E1,-2.225325108E-1
2.981386657E1,8.638986588E0,-1.262393379E1,-1.519442350E-1
2.983266084E1,9.310771942E0,-1.154925728E1,-1.974078715E-1
2.985145563E1,9.564411163E0,-1.045394325E1,-6.020939946E-1
2.987024995E1,9.242277145E0,-9.413662910E0,-1.098903775E0
2.988904313E1,8.679664612E0,-8.793622971E0,-1.599302888E0
2.990783553E1,8.057231903E0,-8.460721970E0,-2.023131609E0
2.992662990E1,8.084749222E0,-8.293224335E0,-2.280359983E0
2.994542433E1,8.840283394E0,-8.459525108E0,-2.542673111E0
2.996421813E1,9.949954987E0,-8.712266922E0,-2.767598391E0
2.998301209E1,1.067408276E1,-8.607880592E0,-2.689831734E0
3.000180573E1,1.102851963E1,-8.740981102E0,-2.531905413E0
3.002060001E1,1.092532921E1,-8.968298912E0,-2.558226585E0
3.003939459E1,1.053290653E1,-8.435597420E0,-2.068595171E0
3.005818902E1,1.035673428E1,-7.618149281E0,-1.377667665E0
3.007698334E1,1.037946606E1,-6.830312252E0,-5.877370834E-1
3.009577823E1,1.018684387E1,-5.886941910E0,-6.221338734E-2
3.011457188E1,9.789336205E0,-5.502893925E0,-3.589233849E-3
3.013336459E1,8.072785378E0,-4.667200565E0,7.516453862E-1
3.015215704E1,6.320342064E0,-3.187838078E0,1.430608869E0
3.017095063E1,5.632106304E0,-1.649552107E0,2.385644197E0
3.018974527E1,4.943870544E0,-1.531406492E-1,4.644468784E0
3.020853756E1,4.682754040E0,1.009172916E0,7.636095047E0
3.022733099E1,4.951049328E0,1.791925073E0,1.071236801E1
3.024612672E1,5.645267010E0,2.019542217E0,1.171795177E1
3.026492146E1,6.035595894E0,1.823031783E0,1.057358456E1
3.028371646E1,5.714658737E0,1.921137452E0,8.253742218E0
3.030251027E1,5.286044121E0,2.151147604E0,5.776872158E0
3.032130532E1,4.656432629E0,2.591726065E0,4.394418716E0
3.034009933E1,3.702594042E0,2.901596546E0,3.792324781E0
3.035889084E1,3.035594702E0,2.836990356E0,3.568296671E0
3.037768224E1,2.189432621E0,2.493321180E0,4.332205296E0
3.039647579E1,1.289133191E0,2.161915302E0,6.255735874E0
3.041527026E1,9.445667267E-1,2.036292076E0,7.636095047E0
3.043406448E1,8.715856671E-1,2.165504456E0,7.773682594E0
3.045285823E1,4.477569461E-1,2.361716032E0,7.144071102E0
3.047165282E1,-1.184447184E-1,2.517249346E0,6.661618233E0
3.049044589E1,-4.441677034E-1,2.846561670E0,5.929115295E0
3.050923933E1,-6.571289301E-1,3.028416157E0,5.465805054E0
3.052803339E1,-1.030708313E0,3.223730326E0,5.693123341E0
3.054687803E1,-1.267597795E0,3.352942705E0,6.357430458E0
3.056573037E1,-1.252044439E0,3.362514019E0,6.564708710E0
3.058453605E1,-1.738086581E0,3.241676569E0,6.740581512E0
3.060334204E1,-2.445464849E0,3.485744476E0,7.226623535E0
3.062214797E1,-2.756830692E0,3.847359657E0,7.601399422E0
3.064095396E1,-2.447857618E0,4.124927044E0,8.515756607E0
3.065975990E1,-1.993221283E0,4.682754040E0,9.096315384E0
3.067856589E1,-1.704586983E0,5.331807137E0,9.107083321E0
3.069737183E1,-1.622034669E0,5.799603939E0,8.993423462E0
3.071617782E1,-1.655534148E0,6.201897144E0,9.036494255E0
3.073498376E1,-1.381256819E0,6.595815659E0,9.194420815E0
3.075378974E1,-1.256830096E0,6.453143597E0,9.249456406E0
3.077259568E1,-1.042672515E0,6.103791237E0,9.637392044E0
3.079140167E1,9.930214286E-2,5.220241547E0,1.014975548E1
3.081020761E1,9.780662656E-1,4.112963200E0,1.060469055E1
3.082901360E1,5.685944557E-1,3.232105255E0,1.087627602E1
3.084781954E1,-4.860421121E-1,2.833401203E0,1.040010452E1
3.086662553E1,-7.719843984E-1,2.957827806E0,8.970691681E0
3.088543152E1,-4.645066857E-1,3.235694408E0,7.661220074E0
3.090423750E1,-3.329014480E-1,3.708575964E0,7.467102051E0
3.092315547E1,-2.476571500E-1,4.305884361E0,7.567600727E0
3.094237042E1,-1.758724600E-1,4.965405941E0,7.037590504E0
3.096156933E1,-5.111667514E-1,5.024030209E0,6.506084919E0
3.098076537E1,-6.320042610E-1,4.869693279E0,6.451947212E0
3.099995876E1,-5.805585980E-1,4.552345276E0,6.961917400E0
3.101914995E1,-3.664009571E-1,4.256831646E0,7.461120129E0
3.103833902E1,-6.460621208E-2,4.206283092E0,7.738986492E0
3.105752599E1,1.914258115E-2,4.511667252E0,7.674380302E0
3.107671120E1,3.364906907E-1,4.701896667E0,7.380960464E0
3.109589480E1,1.202991605E0,4.973781109E0,7.296015263E0
3.111507698E1,1.906780601E0,5.437091351E0,7.207480907E0
3.113425808E1,1.900798440E0,5.659623623E0,6.836294174E0
3.115343834E1,1.429412484E0,5.508875847E0,6.775277138E0
3.117261787E1,8.246265054E-1,5.217848778E0,7.245766163E0
3.119179678E1,6.056832075E-1,4.832604408E0,7.691130161E0
3.121097506E1,7.265207767E-1,4.666004181E0,8.029714584E0
3.123015266E1,7.827520967E-1,4.738985062E0,8.329116821E0
3.124932969E1,8.294121623E-1,4.787140846E0,8.406883240E0
3.126850626E1,6.320042610E-1,4.872086048E0,8.686843872E0
3.128768245E1,3.532404304E-1,4.933103085E0,9.346664429E0
3.130685818E1,3.795614839E-1,5.028815746E0,9.535696983E0
3.132603355E1,4.190430641E-1,5.216652393E0,9.226723671E0
3.134520849E1,3.807578981E-1,5.536393166E0,9.134600639E0
3.136438323E1,5.614160299E-1,5.395216942E0,9.090332985E0
3.138348584E1,1.143171072E0,4.971388340E0,9.265308380E0
3.140230495E1,1.921137452E0,4.274777889E0,1.014496994E1
3.142110209E1,2.242074728E0,3.467798233E0,1.136231804E1
3.143989719E1,2.274377823E0,2.753241539E0,1.213101292E1
3.145869209E1,1.980060697E0,2.501696110E0,1.181246853E1
3.147748876E1,1.724925995E0,2.401197433E0,1.126540947E1
3.149628391E1,1.699801445E0,2.299502611E0,1.132283688E1
3.151507865E1,1.586142302E0,2.487339020E0,1.093609715E1
3.153387167E1,1.424626827E0,2.947060108E0,9.675677299E0
3.155266547E1,1.422233939E0,3.381656647E0,8.259724617E0
3.157145990E1,1.543071508E0,3.630510092E0,7.364210606E0
3.159025474E1,2.036292076E0,3.629313707E0,7.002595425E0
3.160905183E1,2.695813894E0,3.446262836E0,7.080661297E0
3.162784751E1,2.795115948E0,3.113660574E0,7.179963589E0
3.164664469E1,2.216950178E0,2.856132984E0,7.182356358E0
3.166544282E1,1.429412484E0,2.912364244E0,6.833901405E0
3.168424063E1,8.703892231E-1,3.296711445E0,6.406483650E0
3.170303667E1,4.657031000E-1,3.840181351E0,6.071488380E0
3.172183037E1,2.536391914E-1,4.258028030E0,5.987739563E0
3.174062323E1,2.667997181E-1,4.567898273E0,6.428019047E0
3.175941761E1,4.477569461E-1,4.817050934E0,7.315157890E0
3.177821235E1,6.044868231E-1,5.002494812E0,8.191529274E0
3.179700573E1,7.444669604E-1,4.991727352E0,8.895318031E0
3.181580089E1,7.037889361E-1,4.906782150E0,9.291629791E0
3.183459500E1,5.518447161E-1,4.738985062E0,9.615857124E0
3.185338969E1,4.298107624E-1,4.521238327E0,1.032203865E1
3.187218407E1,3.711866140E-1,4.417150497E0,1.079133129E1
3.189097756E1,2.500499785E-1,4.423132420E0,1.090259743E1
3.190977042E1,5.862415582E-2,4.443471432E0,1.108235836E1
3.192856402E1,-2.608176768E-1,4.482953072E0,1.122353458E1
3.194735844E1,-5.985047817E-1,4.655236244E0,1.112303638E1
3.196615266E1,-4.992026389E-1,4.668396950E0,1.075543880E1
3.198494756E1,1.794617027E-1,4.395615101E0,1.071715355E1
3.200374172E1,1.103689432E0,3.651148319E0,1.162582779E1
3.202253563E1,1.667498231E0,2.468196630E0,1.291496086E1
3.204132844E1,1.570588946E0,1.645962834E0,1.334955788E1
3.206012089E1,8.476574421E-1,1.691426516E0,1.209751320E1
3.207891516E1,3.137588799E-1,2.014756680E0,9.679266930E0
3.209770797E1,1.112662554E-1,2.294716835E0,7.746165276E0
3.211650178E1,7.058826834E-2,2.601297379E0,7.145267487E0
3.213529620E1,8.853443712E-2,2.893221617E0,7.300800800E0
3.215409157E1,1.435693651E-1,2.859722137E0,7.328318596E0
3.217288610E1,-4.441677034E-1,2.518445730E0,7.668398380E0
3.219167990E1,-8.859425783E-1,2.775973320E0,7.929215908E0
3.221047428E1,-9.571290575E-3,2.990130901E0,7.811967850E0
3.222926730E1,6.296114326E-1,2.990130901E0,7.463512897E0
3.224805865E1,1.286740422E0,2.892025232E0,7.392924786E0
3.226684943E1,1.137188911E0,2.804687262E0,7.721040249E0
3.228564193E1,5.362913609E-1,2.732902527E0,7.993822098E0
3.230443448E1,6.939185411E-2,2.677867651E0,8.088338852E0
3.232322480E1,-3.532404304E-1,2.673082113E0,7.883752346E0
3.234201511E1,1.483550072E-1,2.495713949E0,8.059624672E0
3.236080714E1,9.062815905E-1,1.990828395E0,8.886942863E0
3.237960110E1,3.975076675E-1,1.589731574E0,9.450752258E0
3.239839370E1,-3.352942765E-1,1.661516190E0,9.728319168E0
3.241718667E1,-1.459621787E-1,1.927119493E0,9.711569786E0
3.243598001E1,9.505487680E-1,1.999203324E0,8.564809799E0
3.245477360E1,1.600499272E0,2.893221617E0,8.779266357E0
3.247356698E1,2.011167526E0,3.171088219E0,9.492626190E0
3.249236188E1,1.503589988E0,3.058326483E0,9.753444672E0
3.251115490E1,1.210170031E0,3.604189157E0,9.568000793E0
3.252994860E1,8.751748800E-1,4.303491592E0,9.016156197E0
3.254874152E1,8.572286963E-1,3.154338360E0,9.309576035E0
3.256753376E1,1.308275819E0,1.511964798E0,1.050538826E1
3.258632693E1,1.924726725E0,2.452643216E-1,1.323709488E1
3.260512245E1,2.519642353E0,-1.124028444E0,1.592303848E1
3.262391907E1,2.435893536E0,-1.999203324E0,1.674796295E1
3.264271516E1,1.205384374E0,-1.698604941E0,1.480858135E1
3.266151188E1,-1.435693540E-2,-7.241279483E-1,1.158754253E1
3.268030792E1,-2.057827413E-1,-3.589234129E-2,9.389735222E0
3.269910407E1,5.024927482E-2,4.489533603E-1,8.919246674E0
3.271790089E1,4.597210586E-1,8.389834166E-1,8.959924698E0
3.273669849E1,1.417448282E0,1.016351461E0,8.311170578E0
3.275549532E1,2.001596212E0,1.533500195E0,7.912466049E0
3.277428912E1,1.963011861E0,1.763211131E0,7.372585773E0
3.279308282E1,1.949851394E0,1.686640859E0,7.160820961E0
3.281187594E1,2.007578135E0,1.291526079E0,7.129714012E0
3.283067068E1,2.031506538E0,7.875377536E-1,7.341478825E0
3.284946396E1,1.644766450E0,4.262215197E-1,7.723433495E0
3.286825896E1,9.098708034E-1,3.592225015E-1,7.785646915E0
3.288705490E1,2.970091105E-1,5.853442550E-1,7.401299477E0
3.290584876E1,-1.160518974E-1,8.895317912E-1,6.859025955E0
3.292464209E1,-2.189432681E-1,1.187438250E0,6.628118515E0
3.294343542E1,-1.196411322E-3,1.368096352E0,6.778866768E0
3.296222797E1,1.663011760E-1,1.410269856E0,7.772486210E0
3.298102230E1,-3.927220106E-1,1.138385415E0,9.717552185E0
3.299981652E1,-1.059422255E0,9.840483069E-1,1.256172085E1
3.301861079E1,-1.275972724E0,8.739784956E-1,1.362473202E1
3.303740464E1,-1.882852316E0,6.738786697E-1,1.235952759E1
3.305620000E1,-3.129213810E0,8.258228898E-1,1.185075283E1
3.307499318E1,-4.491328239E0,1.394417405E0,9.989436150E0
3.309378526E1,-5.112564564E0,2.447857618E0,9.380164146E0
3.311257860E1,-5.416752338E0,3.766003847E0,9.579964638E0
3.313137126E1,-4.407579422E0,4.156033993E0,9.475876808E0
3.315016428E1,-2.114058733E0,3.294318676E0,1.070279694E1
3.316895641E1,-1.101296663E0,2.463410854E0,1.252223873E1
3.318774735E1,-1.218544960E0,1.553839207E0,1.410957813E1
3.320654037E1,-1.910369754E0,5.614160299E-1,1.420888042E1
3.322533485E1,-3.167499065E0,2.273181453E-2,1.291256809E1
3.324412823E1,-3.989732742E0,-4.785645287E-3,1.108355427E1
3.326292240E1,-4.225724697E0,2.934198678E-1,9.629017830E0
3.328171646E1,-4.081856251E0,5.638088584E-1,9.053244591E0
3.330051105E1,-3.742075443E0,5.721837282E-1,9.194420815E0
3.331930396E1,-3.528815269E0,3.927220106E-1,9.587142944E0
3.333809683E1,-3.229712248E0,2.826521695E-1,9.922437668E0
3.335688943E1,-2.683849812E0,2.874378264E-1,1.000618649E1
3.337568297E1,-2.208575249E0,4.345964193E-1,9.724730492E0
3.339447631E1,-1.863709688E0,8.246265054E-1,9.310771942E0
3.341326985E1,-1.525125384E0,1.028315544E0,9.034101486E0
3.343206355E1,-1.180259824E0,9.433703423E-1,8.662915230E0
3.345085719E1,-1.055832982E0,1.086939692E0,7.989036560E0
3.346964818E1,-1.070189953E0,1.504786372E0,7.239784241E0
3.348844089E1,-1.028315544E0,1.910369754E0,6.618547440E0
3.350723443E1,-9.900303483E-1,2.292324066E0,6.259325027E0
3.352602818E1,-8.258228898E-1,2.591726065E0,6.072684765E0
3.354482105E1,-5.685944557E-1,2.736491680E0,5.907579899E0
3.356361428E1,-5.805585980E-1,2.909971476E0,5.890531063E0
3.358240849E1,-7.600203156E-1,3.181855917E0,6.128916264E0
3.360120068E1,-6.523432732E-1,3.267997503E0,6.549155712E0
3.361999261E1,-2.608176768E-1,3.357728481E0,7.230212688E0
3.363878474E1,3.412763178E-1,3.720540047E0,8.185546875E0
3.365757829E1,1.212562919E0,3.855734587E0,9.229117393E0
3.367637016E1,1.197009563E0,3.422334671E0,1.026819992E1
3.369516209E1,-4.166502357E-1,2.786741018E0,1.076979542E1
3.371395386E1,-2.297109842E0,1.863709688E0,1.090140057E1
3.373274693E1,-3.793521166E0,6.918248534E-1,1.160548878E1
3.375153912E1,-5.118546963E0,-5.135595798E-1,1.334237862E1
3.377033099E1,-6.200700760E0,-1.419841170E0,1.482533073E1
3.378912360E1,-6.808776855E0,-1.849352837E0,1.508764362E1
3.380791547E1,-6.904489517E0,-1.809871197E0,1.404377556E1
3.382670766E1,-6.274878502E0,-1.298704505E0,1.225304699E1
3.384549969E1,-5.102993488E0,-6.798607111E-1,1.035793114E1
3.386429058E1,-3.984946966E0,-1.651047617E-1,8.703892708E0
3.388308412E1,-3.049951553E0,2.862414122E-1,7.412067413E0
3.390187818E1,-2.435893536E0,7.001997232E-1,6.614958286E0
3.392067266E1,-2.371287346E0,1.147956610E0,6.538387775E0
3.393946568E1,-2.496910334E0,1.418644667E0,6.887740135E0
3.395826000E1,-2.484946251E0,1.342971683E0,7.273283482E0
3.397705360E1,-2.299502611E0,1.149153113E0,7.600203037E0
3.399584876E1,-2.026720762E0,1.011565804E0,7.930412292E0
3.401464407E1,-1.873281002E0,1.004387259E0,8.275278091E0
3.403343818E1,-1.931905150E0,1.028315544E0,8.549256325E0
3.405223214E1,-2.182254314E0,9.912267923E-1,8.111070633E0
3.407102474E1,-2.549851656E0,1.192223907E0,6.821937561E0
3.408981907E1,-2.825026274E0,1.651944876E0,5.344967365E0
3.410861266E1,-2.773580551E0,2.195414782E0,4.272384644E0
3.412740615E1,-2.108076811E0,2.743670225E0,4.036392689E0
3.414619938E1,-1.007976532E0,3.028416157E0,4.619344234E0
3.416499329E1,-3.077768087E-1,2.959024191E0,5.542375565E0
3.418378818E1,-6.308078766E-1,2.726920605E0,6.863811970E0
3.420258287E1,-1.696212173E0,2.304288149E0,8.536095619E0
3.422137594E1,-2.848954439E0,1.693819284E0,1.011864853E1
3.424016912E1,-3.838984728E0,1.295115232E0,1.137547874E1
3.425896188E1,-4.539184570E0,1.207777262E0,1.242174053E1
3.427775542E1,-4.561916351E0,1.340578914E0,1.298913860E1
3.429654797E1,-4.135694981E0,1.662712693E0,1.277857018E1
3.431544928E1,-3.340978622E0,1.754836321E0,1.247318649E1
3.433425422E1,-2.578565598E0,1.429412484E0,1.347637749E1
3.435306094E1,-2.486142635E0,8.632107973E-1,1.580937958E1
3.437186615E1,-2.649153709E0,2.512463741E-2,1.776790428E1
3.439067282E1,-2.680260420E0,-4.668995142E-1,1.766112518E1
3.440947803E1,-2.574976206E0,-2.560320199E-1,1.521685696E1
3.442828474E1,-2.518445730E0,5.207380056E-1,1.204816151E1
3.444708990E1,-2.295913219E0,1.327418327E0,9.734301567E0
3.446589662E1,-2.183450699E0,1.974078655E0,8.671290398E0
3.448470183E1,-2.177468538E0,2.270788670E0,8.566005707E0
3.450350849E1,-2.031506538E0,2.203789711E0,8.646165848E0
3.452231370E1,-1.824228168E0,2.179861546E0,8.476275444E0
3.454112042E1,-1.580160260E0,2.123630047E0,8.296813011E0
3.455992558E1,-1.402792215E0,2.093719721E0,8.758927345E0
3.457873230E1,-1.165902853E0,1.994417667E0,9.790533066E0
3.459753751E1,-5.650052428E-1,1.741675735E0,1.004327488E1
3.461634422E1,-2.105683982E-1,1.535893083E0,8.635397911E0
3.463514938E1,-1.172483116E-1,1.427019596E0,6.268896103E0
3.465395610E1,1.770688742E-1,1.370489120E0,6.326323986E0
3.467276131E1,-2.476571500E-1,1.849352837E0,6.400501251E0
3.469156803E1,-3.843471408E-1,2.523231506E0,5.295615673E0
3.471037318E1,-2.524427772E-1,2.915953398E0,4.799104691E0
3.472917990E1,-2.189432681E-1,3.206980467E0,5.470590591E0
3.474798511E1,-4.094717801E-1,3.387638569E0,6.428019047E0
3.476679183E1,-1.962114573E-1,3.232105255E0,7.773682594E0
3.478559698E1,1.136590764E-1,2.978166819E0,8.845068932E0
3.480440370E1,1.722832322E-1,3.041576624E0,9.459127426E0
3.482320891E1,1.160518974E-1,3.118446112E0,9.841081619E0
3.484201563E1,2.751746178E-1,3.202194929E0,1.036510944E1
3.486082079E1,3.616153300E-1,3.327818155E0,1.103809071E1
3.487962756E1,4.776672125E-1,3.330210924E0,1.131326580E1
3.489843271E1,2.691925466E-1,3.380460262E0,1.127258778E1
3.491723943E1,-1.196411345E-2,3.440280676E0,1.110867882E1
3.493604464E1,6.819544733E-2,3.538386583E0,1.084038353E1
3.495485136E1,4.645066857E-1,3.569493294E0,1.061186886E1
3.497365652E1,9.314061999E-1,3.305086374E0,1.068963623E1
3.499246329E1,1.155135155E0,2.936292410E0,1.112782192E1
3.501126844E1,1.028315544E0,2.647957325E0,1.126899815E1
3.503007516E1,7.133602500E-1,2.490928411E0,1.056520939E1
3.504888037E1,4.441677034E-1,2.477767944E0,9.524930000E0
3.506768709E1,4.405784607E-1,2.539083958E0,8.631808281E0
3.508649230E1,6.176473498E-1,2.767598391E0,8.003393173E0
3.510529902E1,9.613165259E-1,3.084647417E0,7.522137165E0
3.512410417E1,1.303490162E0,3.309871912E0,7.439584732E0
3.514291094E1,1.460519075E0,3.318246841E0,7.827520847E0
3.516171610E1,1.411466241E0,3.198605776E0,8.281260490E0
3.518052287E1,1.132403374E0,3.180659533E0,8.658129692E0
3.519932803E1,6.750751138E-1,3.163909674E0,8.836693764E0
3.521813474E1,1.244267747E-1,3.331407309E0,8.477471352E0
3.523693995E1,-4.645066857E-1,3.669094324E0,7.823931694E0
3.525574667E1,-1.057029366E0,4.069892406E0,7.213462830E0
3.527455188E1,-1.275972724E0,4.417150497E0,7.019644260E0
3.529335860E1,-1.041476011E0,4.547559261E0,7.249355316E0
3.531216376E1,-9.816554785E-1,4.526023865E0,7.758129120E0
3.533097053E1,-1.060618639E0,4.469792843E0,8.217850685E0
3.534977568E1,-1.128814101E0,4.247260094E0,8.656932831E0
3.536858245E1,-1.482054472E0,3.939483404E0,9.095118523E0
3.538738761E1,-1.882852316E0,3.652344704E0,9.305986404E0
3.540619433E1,-2.224128723E0,3.594617844E0,9.220742226E0
3.542499954E1,-2.508874655E0,3.849752426E0,9.036494255E0
3.544380626E1,-2.710170746E0,4.116552353E0,9.136993408E0
3.546261146E1,-2.839383125E0,4.147658825E0,9.394520760E0
3.548141818E1,-3.065505028E0,4.127319813E0,9.577571869E0
3.550022339E1,-3.066701412E0,4.006482601E0,1.016171932E1
3.551903011E1,-2.850150824E0,4.041178226E0,1.138504982E1
3.553783532E1,-2.291127682E0,3.821038723E0,1.256650639E1
3.555664204E1,-1.569392562E0,3.006880760E0,1.303819180E1
3.557544719E1,-1.473679662E0,2.329412937E0,1.309561920E1
3.559425396E1,-1.820638895E0,2.258824587E0,1.247916794E1
3.561305912E1,-1.936690807E0,2.282752752E0,1.079850960E1
3.563186589E1,-2.007578135E0,2.533101797E0,8.842676163E0
3.565067105E1,-2.255235434E0,2.908775091E0,7.652844906E0
3.566947776E1,-2.346162558E0,3.043969393E0,7.480262756E0
3.568828297E1,-2.203789711E0,3.010469913E0,7.792825222E0
3.570708969E1,-2.159522533E0,2.981756210E0,8.168797493E0
3.572589490E1,-2.062613010E0,3.011666298E0,8.272885323E0
3.574470162E1,-1.693819284E0,3.045166016E0,8.165207863E0
3.576350683E1,-1.308275819E0,3.101696253E0,8.067999840E0
3.578231355E1,-1.125224829E0,3.154338360E0,8.138887405E0
3.580111876E1,-1.074975610E0,3.141177893E0,8.324331284E0
3.581992547E1,-1.217348576E0,3.087339401E0,8.421239853E0
3.583873063E1,-1.434198022E0,3.096910715E0,8.331509590E0
3.585753740E1,-1.483250976E0,3.159124136E0,8.097909927E0
3.587634256E1,-1.334596872E0,3.238087177E0,7.689933777E0
3.589514933E1,-1.237687469E0,3.425923824E0,7.275676250E0
3.591395448E1,-1.170688510E0,3.670290947E0,7.053143978E0
3.593276120E1,-1.165902853E0,3.838984728E0,7.079464912E0
3.595156641E1,-1.220937729E0,3.862913132E0,7.179963589E0
3.597037313E1,-1.321436286E0,3.745664835E0,7.504190922E0
3.598917834E1,-1.446162224E0,3.466601849E0,8.354241371E0
3.600798506E1,-1.671087503E0,3.098107100E0,9.728319168E0
3.602679026E1,-1.791925073E0,2.943470955E0,1.141496086E1
3.604559698E1,-1.400399446E0,2.805883646E0,1.282523060E1
3.606440214E1,-9.768698215E-1,2.730509758E0,1.314945793E1
3.608320891E1,-1.045065284E0,2.997309446E0,1.206760311E1
3.610201407E1,-1.015154958E0,3.307479143E0,1.104407310E1
3.612082084E1,-7.049853802E-1,3.226123095E0,1.137069321E1
3.613962599E1,-3.364906907E-1,2.616850615E0,1.251984596E1
3.615843271E1,-2.225325108E-1,1.839781523E0,1.346321678E1
3.617723792E1,-5.434698462E-1,1.352542996E0,1.308724403E1
3.619604464E1,-9.122636318E-1,1.254437327E0,1.140897846E1
3.621484985E1,-9.038887620E-1,1.381256819E0,9.517750740E0
3.623365657E1,-6.200401783E-1,1.795514345E0,8.430811882E0
3.625246178E1,-2.608176768E-1,2.193022013E0,8.296813011E0
3.627126849E1,-1.232303679E-1,2.551048040E0,8.515756607E0
3.629007365E1,-1.268195957E-1,2.962613583E0,8.470293045E0
3.630888042E1,-5.623133108E-2,3.282354355E0,8.077570915E0
3.632768558E1,-4.905286431E-2,3.567100286E0,7.604988575E0
3.634649230E1,3.317050338E-1,3.530011654E0,7.214659214E0
3.636529750E1,8.306085467E-1,3.350549936E0,7.110571384E0
3.638410422E1,1.101296663E0,3.160320520E0,7.553243637E0
3.640290943E1,9.864411354E-1,2.960220814E0,7.993822098E0
3.642171615E1,4.405784607E-1,2.949453115E0,8.046463966E0
3.644052136E1,-1.136590764E-1,3.112463951E0,7.588238716E0
3.645932808E1,-2.886342406E-1,3.392424345E0,7.004988194E0
3.647813323E1,-2.201396823E-1,3.795913935E0,6.813562393E0
3.649694000E1,1.375873089E-1,4.109373569E0,7.063911438E0
3.651574516E1,4.956133962E-1,4.211368084E0,7.544868946E0
3.653455188E1,4.752743840E-1,4.138087749E0,8.254939079E0
3.655335709E1,6.580262631E-2,3.883252144E0,9.046066284E0
3.657216381E1,-5.829514265E-1,3.701397419E0,9.740283966E0
3.659096902E1,-1.152742267E0,3.599403381E0,1.021914768E1
3.660977573E1,-1.681855202E0,3.604189157E0,1.048624611E1
3.662858089E1,-2.133201361E0,3.867698669E0,1.048265648E1
3.664738766E1,-2.651546478E0,4.447061062E0,1.029452133E1
3.666619282E1,-2.781955481E0,4.900799751E0,1.007438183E1
3.668499954E1,-2.078166485E0,4.731806755E0,1.011027431E1
3.670380474E1,-1.955833435E0,4.872086048E0,1.057837009E1
3.672261146E1,-1.876870275E0,4.508078098E0,1.182203960E1
3.674141667E1,-1.181456208E0,2.972184896E0,1.316022587E1
3.676022339E1,-1.305882931E0,1.935494423E0,1.392772293E1
3.677902855E1,-1.776371717E0,1.741675735E0,1.285394382E1
3.679783532E1,-1.881655931E0,2.094916344E0,1.045274639E1
3.681664047E1,-1.686640859E0,2.626421928E0,8.141280174E0
3.683544719E1,-1.550249934E0,2.996113062E0,6.855436802E0
3.685425240E1,-1.650748491E0,3.150749207E0,6.601797581E0
3.687305912E1,-1.850549221E0,3.148356438E0,7.105785847E0
3.689186428E1,-1.918744683E0,2.961417198E0,7.834699631E0
3.691067105E1,-1.783550143E0,2.780759096E0,8.264510155E0
3.692947620E1,-1.369292736E0,2.799901485E0,8.453543663E0
3.694828292E1,-8.006982803E-1,2.766402006E0,8.677271843E0
3.696708813E1,-6.260222197E-1,2.820240498E0,9.163313866E0
3.698589485E1,-5.398806334E-1,2.755634308E0,9.450752258E0
3.700470006E1,-4.417748749E-1,2.578565598E0,9.127422333E0
3.702350678E1,-6.260222197E-1,2.604886532E0,8.426025391E0
3.704231193E1,-8.991031051E-1,2.826222658E0,7.845467091E0
3.706111865E1,-9.457631707E-1,3.083451033E0,7.487441063E0
3.707992386E1,-7.839485407E-1,3.244069338E0,7.313961506E0
3.709873058E1,-7.588238716E-1,3.305086374E0,7.392924786E0
3.711753579E1,-8.608179688E-1,3.384049416E0,7.689933777E0
3.713634250E1,-9.601200819E-1,3.497708559E0,7.969893932E0
3.715514766E1,-1.024726272E0,3.675076485E0,8.563612938E0
3.717395443E1,-8.979067206E-1,3.751646757E0,9.614660263E0
3.719275959E1,-7.695915699E-1,3.547957659E0,1.043838978E1
3.721156631E1,-1.013958573E0,3.425923824E0,1.076979542E1
3.723037152E1,-1.256830096E0,3.277568817E0,1.080209827E1
3.724917823E1,-1.289133191E0,3.234498024E0,1.064417267E1
3.726798339E1,-1.269990563E0,3.398406267E0,1.033160973E1
3.728679016E1,-1.037886858E0,3.338585854E0,1.018684387E1
3.730559532E1,-5.362913609E-1,3.017648458E0,1.086550808E1
3.732440204E1,-1.016949639E-1,2.501696110E0,1.232243824E1
3.734320724E1,-1.651047617E-1,1.833799481E0,1.364148235E1
3.736201396E1,-5.159524083E-1,1.326221943E0,1.363310719E1
3.738081917E1,-7.671987414E-1,1.168295622E0,1.234277725E1
3.739962589E1,-5.961119533E-1,1.398006678E0,1.059990501E1
3.741843105E1,-2.512463741E-2,1.686640859E0,9.113064766E0
3.743723776E1,5.494518876E-1,1.935494423E0,8.154440880E0
3.745604297E1,9.708877802E-1,2.199003935E0,7.520940781E0
3.747484969E1,1.271187067E0,2.585743904E0,6.928418159E0
3.749365490E1,1.504786372E0,3.066701412E0,6.512066841E0
3.751246162E1,1.589731574E0,3.305086374E0,6.675975323E0
3.753126678E1,1.479661703E0,3.041576624E0,7.279265404E0
3.755007355E1,9.948160052E-1,2.578565598E0,8.136494637E0
3.756887870E1,4.070789516E-1,2.208575249E0,8.920442581E0
3.758768542E1,-1.196411345E-2,2.043470621E0,9.134600639E0
3.760649063E1,-3.257229924E-1,2.230110645E0,8.705088615E0
3.762529735E1,-5.099703074E-1,2.707777977E0,8.124231339E0
3.764410250E1,-3.520440459E-1,3.179463148E0,7.700701237E0
3.766290928E1,-9.810572863E-2,3.476173162E0,7.506583691E0
3.768171443E1,2.632104978E-2,3.666701555E0,7.644470215E0
3.770052115E1,6.340979785E-2,3.716950893E0,8.136494637E0
3.771932636E1,9.571290575E-3,3.767200232E0,8.721838951E0
3.773813308E1,-3.589233849E-3,3.830610037E0,9.075976372E0
3.775693823E1,-1.316052489E-2,3.927519321E0,9.617053032E0
3.777574501E1,-4.537389874E-1,4.154837608E0,1.039053345E1
3.779455016E1,-8.991031051E-1,4.175176620E0,1.095553875E1
3.781335688E1,-1.256830096E0,4.005286217E0,1.101894855E1
3.783216209E1,-1.744068623E0,3.922733545E0,1.075424194E1
3.785096881E1,-1.735693693E0,3.461816072E0,1.119242764E1
3.786977396E1,-1.340578914E0,2.655135870E0,1.296401405E1
3.788858073E1,-8.775677085E-1,1.526321769E0,1.482413483E1
3.790738589E1,-7.648059130E-1,4.537389874E-1,1.533051586E1
3.792619261E1,-1.243669510E0,1.938186288E-1,1.418973732E1
3.794499782E1,-1.709372640E0,5.506483316E-1,1.187348461E1
3.796380454E1,-1.569392562E0,1.080957651E0,9.459127426E0
3.798260969E1,-1.248455167E0,1.733300924E0,7.906484127E0
3.800141646E1,-8.763712645E-1,2.204986095E0,7.352246761E0
3.802022162E1,-2.898306549E-1,2.310270309E0,7.313961506E0
3.803902834E1,-2.033899166E-2,2.401197433E0,7.340282440E0
3.805783355E1,-2.356930375E-1,2.600100994E0,7.249355316E0
3.807664026E1,-4.692923427E-1,2.765205622E0,7.066304207E0
3.809544542E1,-4.657031000E-1,2.963809967E0,7.008577347E0
3.811425219E1,-1.543370634E-1,3.072683334E0,7.162017345E0
3.813305735E1,2.898306549E-1,3.065505028E0,7.416852951E0
3.815186407E1,6.236293912E-1,3.049951553E0,7.774878979E0
3.817066928E1,7.145566344E-1,3.107678413E0,8.338687897E0
3.818947599E1,6.224330068E-1,3.178266764E0,8.810373306E0
3.820828115E1,5.183451772E-1,3.175873756E0,8.888139725E0
3.822708792E1,4.657031000E-1,3.251247883E0,8.699107170E0
3.824589308E1,5.865406394E-1,3.284747362E0,8.562417030E0
3.826469980E1,6.523432732E-1,3.302693367E0,8.707481384E0
3.828350500E1,6.272186637E-1,3.228515863E0,9.007781029E0
3.830231172E1,4.980062246E-1,3.169891834E0,9.305986404E0
3.832111693E1,4.238287210E-1,3.233301640E0,9.429216385E0
3.833992365E1,6.667001843E-1,3.244069338E0,9.323932648E0
3.835872881E1,8.763712645E-1,3.190230846E0,9.177671432E0
3.837753553E1,7.600203156E-1,3.226123095E0,9.274879456E0
3.839634073E1,4.417748749E-1,3.431905985E0,9.582357407E0
3.841514745E1,1.435693651E-1,3.694219112E0,9.810872078E0
3.843395266E1,3.221337497E-1,3.828217030E0,1.015214825E1
3.845275938E1,9.361918569E-1,3.834199190E0,1.130967617E1
3.847156454E1,1.767996788E0,3.187838078E0,1.298794174E1
3.849037131E1,2.126022816E0,2.013560295E0,1.424716473E1
3.850917646E1,1.706979871E0,1.435394526E0,1.454058456E1
3.852798318E1,1.145563841E0,1.517946839E0,1.378535080E1
3.854678839E1,1.249651670E0,1.739282966E0,1.202064323E1
3.856559511E1,1.771586061E0,1.983649969E0,9.924830437E0
3.858440032E1,2.159522533E0,2.403590441E0,8.305188179E0
3.860320704E1,2.457428932E0,2.713759899E0,7.242177010E0
3.862201219E1,2.372483730E0,2.863311291E0,6.632904530E0
3.864081896E1,1.874477386E0,2.856132984E0,6.501298904E0
3.865962412E1,1.421037555E0,2.596511602E0,6.809973240E0
3.867843084E1,1.091725349E0,2.370090723E0,7.306783199E0
3.869723605E1,9.038887620E-1,2.324627161E0,7.626523972E0
3.871604277E1,8.811569214E-1,2.446661234E0,7.538887024E0
3.873484797E1,9.385846853E-1,2.668296337E0,7.200302601E0
3.875365469E1,8.931210637E-1,2.945863724E0,6.782455921E0
3.877245985E1,7.420741320E-1,3.308675528E0,6.485745907E0
3.879126662E1,6.786643267E-1,3.694219112E0,6.561119556E0
3.881007178E1,8.389834166E-1,3.946661949E0,6.949953556E0
3.882887855E1,1.139581800E0,4.013660908E0,7.394121170E0
3.884768370E1,1.346560955E0,3.996911049E0,7.938787460E0
3.886649047E1,1.350150228E0,3.974179268E0,8.650951385E0
3.888529563E1,1.114457130E0,3.900001764E0,9.491430283E0
3.890410235E1,7.767700553E-1,3.724129438E0,1.041087246E1
3.892290756E1,4.274179339E-1,3.618546009E0,1.134437180E1
3.894171428E1,2.249253243E-1,3.464209080E0,1.212383366E1
3.896051948E1,-4.187439755E-2,3.367299557E0,1.232961655E1
3.897932620E1,-5.745765567E-1,3.604189157E0,1.183280754E1
3.899813141E1,-1.435693651E-1,3.569493294E0,1.151456165E1
3.901693813E1,1.048654556E0,3.212962627E0,1.204337502E1
3.903574334E1,1.873281002E0,2.618046999E0,1.337228966E1
3.905455006E1,1.951047778E0,1.514357686E0,1.420888042E1
3.907335521E1,1.073779106E0,8.620143533E-1,1.352064419E1
3.909216198E1,-6.340979785E-2,7.827520967E-1,1.156241798E1
3.911096714E1,-6.714858413E-1,1.115653515E0,9.441181183E0
3.912977391E1,-6.631109715E-1,1.845763564E0,8.069195747E0
3.914857907E1,-1.495514214E-1,2.560619354E0,7.679165840E0
3.916738584E1,4.776672125E-1,2.823829889E0,7.951947689E0
3.918619099E1,7.181459069E-1,2.787937403E0,8.451150894E0
3.920499776E1,1.459621787E-1,2.638386011E0,8.570791245E0
