"Time (s)","Acceleration x (m/s^2)","Acceleration y (m/s^2)","Acceleration z (m/s^2)"
2.843748400E-2,4.230000079E-1,6.991950512E0,5.866950512E0
4.843748400E-2,-7.395000011E-2,7.114050388E0,6.334050179E0
6.843748400E-2,-3.180000186E-1,6.994050503E0,7.543950558E0
8.843748400E-2,-4.159500301E-1,6.759000301E0,8.710050583E0
1.084374840E-1,-5.929500461E-1,6.367050171E0,8.509050369E0
1.284374840E-1,-6.190500259E-1,6.243000507E0,7.599000454E0
1.484374840E-1,-3.900000155E-1,6.412050247E0,6.541950226E0
1.684374840E-1,-2.119500041E-1,6.550950527E0,5.757000446E0
1.884374840E-1,-7.395000011E-2,6.669000149E0,5.592000484E0
2.084374840E-1,2.029500157E-1,7.068000317E0,6.087000370E0
2.284374840E-1,4.420500100E-1,7.195050240E0,6.456000328E0
2.484374840E-1,6.810000539E-1,7.068000317E0,6.520050526E0
2.684374840E-1,7.410000563E-1,6.903000355E0,6.250050068E0
2.884374840E-1,4.780500233E-1,7.030050278E0,6.400950432E0
3.084374840E-1,7.800000161E-2,7.707000256E0,6.822000504E0
3.284374840E-1,-3.250500262E-1,7.896000385E0,6.952950478E0
3.484374840E-1,-5.070000291E-1,7.671000481E0,7.006050110E0
3.684374840E-1,-3.630000055E-1,7.438950539E0,7.384050369E0
3.884374840E-1,-3.750000298E-1,7.531950474E0,8.712000847E0
4.084374840E-1,-4.180500209E-1,7.741050243E0,9.982950211E0
4.284374840E-1,5.430000424E-1,7.470000267E0,9.844050407E0
4.484374840E-1,1.962000132E0,6.616050243E0,1.000695038E1
4.684374840E-1,2.437950134E0,5.881050110E0,9.952050209E0
4.884374840E-1,1.876050115E0,5.206050396E0,9.580950737E0
5.084374840E-1,7.480500340E-1,4.546050072E0,8.875050545E0
5.284374840E-1,-2.680500150E-1,4.635000229E0,7.930050373E0
5.484374840E-1,-8.710500598E-1,4.924050331E0,7.348050117E0
5.684374840E-1,-7.150500417E-1,5.044050217E0,6.694950104E0
5.884374840E-1,7.080000043E-1,4.615050316E0,6.895950317E0
6.084374840E-1,1.978050113E0,4.361999989E0,7.008000374E0
6.284374840E-1,2.332950115E0,4.180050373E0,6.415050507E0
6.484374840E-1,1.519050121E0,4.516950130E0,5.668050289E0
6.684374840E-1,6.240000129E-1,4.989000320E0,5.518050194E0
6.884374840E-1,2.050500065E-1,5.185050011E0,5.611050129E0
7.084374840E-1,5.329500437E-1,5.092050076E0,5.812050343E0
7.284374840E-1,1.147950053E0,4.936050415E0,6.142050266E0
7.484374840E-1,1.414050102E0,5.010000229E0,6.286050320E0
7.684374840E-1,1.069050074E0,5.439000130E0,6.613050461E0
7.884374840E-1,2.770500183E-1,6.268950462E0,6.793050289E0
8.084374840E-1,5.505000427E-2,7.132950306E0,7.267050266E0
8.284374840E-1,6.670500040E-1,7.599000454E0,7.611000538E0
8.484374840E-1,1.645950079E0,7.546950340E0,8.049000740E0
8.684374840E-1,2.251049995E0,7.195050240E0,8.932050705E0
8.884374840E-1,2.239050150E0,7.104000568E0,9.844050407E0
9.084374840E-1,1.834950089E0,7.573050499E0,1.019100094E1
9.284374840E-1,1.045050025E0,7.860000610E0,1.061400032E1
9.484374840E-1,4.399500191E-1,8.071050644E0,1.110495090E1
9.684374840E-1,6.049500108E-1,7.389000416E0,1.179195023E1
9.884374840E-1,6.409500241E-1,6.625050545E0,1.211205101E1
1.008437484E0,5.209500194E-1,5.802000046E0,1.132005024E1
1.028437484E0,4.050000105E-3,5.221050262E0,1.041300011E1
1.048437484E0,-7.960500121E-1,5.364000320E0,9.964050293E0
1.068437484E0,-8.920500278E-1,5.506050110E0,9.124050140E0
1.088437484E0,-4.305000231E-2,4.969950199E0,7.753050327E0
1.108437484E0,4.830000103E-1,4.327950001E0,6.334050179E0
1.128437484E0,4.279500246E-1,3.606000185E0,5.745000362E0
1.148437484E0,3.199500144E-1,2.988000154E0,5.652000427E0
1.168437484E0,5.520000458E-1,2.613000154E0,5.707050323E0
1.188437484E0,8.610000610E-1,2.371050119E0,5.890950203E0
1.208437484E0,3.919500113E-1,2.407050133E0,6.142050266E0
1.228437484E0,-4.470000267E-1,2.814000130E0,6.070050240E0
1.248437484E0,-9.109500647E-1,3.192000151E0,5.407050133E0
1.268437484E0,-1.392000079E0,3.864000082E0,4.747050285E0
1.288437484E0,-2.002050161E0,4.966950417E0,5.683050156E0
1.308437484E0,-1.414050102E0,5.470050335E0,7.474950314E0
1.328437484E0,-1.395000052E-2,5.347950459E0,9.130949974E0
1.348437484E0,9.810000658E-1,5.539050102E0,9.613950729E0
1.368437484E0,1.492950082E0,6.051000118E0,9.751049995E0
1.388437484E0,1.282050014E0,6.445950508E0,9.742950439E0
1.408437484E0,7.920000553E-1,6.618000507E0,9.793950081E0
1.428437484E0,2.770500183E-1,6.870000362E0,9.817950249E0
1.448437484E0,8.010000587E-1,6.622950077E0,9.760050774E0
1.468437484E0,1.927950144E0,6.043950081E0,1.021995068E1
1.488437484E0,2.785050154E0,5.653950214E0,1.061205006E1
1.508437484E0,2.767950058E0,5.130000114E0,1.030095005E1
1.528437484E0,1.816050053E0,5.221050262E0,1.026705074E1
1.548437484E0,1.263000011E0,5.388000488E0,1.001595020E1
1.568437484E0,1.864050031E0,5.191950321E0,9.931950569E0
1.588437484E0,2.553000212E0,4.833000183E0,9.520950317E0
1.608437484E0,2.799000025E0,4.174950123E0,9.150000572E0
1.628437484E0,2.356950045E0,3.649050236E0,8.446050644E0
1.648437484E0,1.725000024E0,3.409050226E0,7.687950134E0
1.668437484E0,1.024049997E0,3.133950233E0,6.669000149E0
1.688437484E0,4.969500303E-1,2.923950195E0,5.464950085E0
1.708437484E0,1.380000114E-1,3.024000168E0,4.321050167E0
1.728437484E0,-4.500000179E-2,3.498000145E0,3.921000242E0
1.748437484E0,1.500000060E-1,3.892950296E0,4.588950157E0
1.768437484E0,2.680500150E-1,4.081950188E0,5.281050205E0
1.788437484E0,4.995000362E-2,4.785000324E0,5.809050083E0
1.808437484E0,-4.369500279E-1,5.580000401E0,6.075000286E0
1.828437484E0,-4.090500176E-1,5.860050201E0,6.556050301E0
1.848437484E0,-1.120500043E-1,5.836050510E0,7.627950191E0
1.868437484E0,3.630000055E-1,6.003000259E0,9.114000320E0
1.888437484E0,7.249500155E-1,5.955000401E0,1.054500008E1
1.908437484E0,8.850000501E-1,5.908050060E0,1.151205063E1
1.928437484E0,5.590500236E-1,5.875950336E0,1.218405056E1
1.948437484E0,2.010000050E-1,5.982000351E0,1.213200092E1
1.968437484E0,-7.050000131E-3,6.535050392E0,1.145700073E1
1.988437484E0,4.519500136E-1,6.391050339E0,1.082505035E1
2.008437484E0,8.659500480E-1,6.334050179E0,1.101900005E1
2.028437484E0,6.070500016E-1,5.994000435E0,1.107405090E1
2.048437484E0,1.570500135E-1,5.436000347E0,1.120995045E1
2.068437484E0,-4.690500200E-1,5.565000057E0,1.123200035E1
2.088437484E0,-5.809500217E-1,5.640000343E0,1.094205093E1
2.108437484E0,-3.150000274E-1,5.427000046E0,1.084695053E1
2.128437484E0,1.840500087E-1,4.969950199E0,1.060995007E1
2.148437484E0,8.850000501E-1,4.491000175E0,1.013595009E1
2.168437484E0,1.497000098E0,4.114950180E0,9.198000908E0
2.188437484E0,1.789050102E0,3.256050110E0,7.408050537E0
2.208437484E0,1.806000113E0,2.727000237E0,5.953050137E0
2.228437484E0,1.447050095E0,2.785050154E0,5.287950039E0
2.248437484E0,1.042950034E0,2.907000065E0,5.344950199E0
2.268437484E0,8.419500589E-1,3.262950182E0,5.082000256E0
2.288437484E0,1.027950048E0,3.357000113E0,4.591050148E0
2.308437484E0,9.780000448E-1,3.546000242E0,4.335000038E0
2.328437484E0,7.095000148E-2,4.041000366E0,4.741950035E0
2.348437484E0,-1.009050012E0,4.693950176E0,6.049050331E0
2.368437484E0,-1.798950076E0,5.508000374E0,7.942050457E0
2.388437484E0,-1.354050040E0,5.355000019E0,9.032999992E0
2.408437484E0,-1.069500074E-1,4.740000248E0,8.446050644E0
2.428437484E0,2.580000162E-1,4.903050423E0,8.760000229E0
2.448437484E0,2.200500071E-1,5.233050346E0,9.652050018E0
2.468437484E0,6.720000505E-1,5.367000103E0,9.660000801E0
2.488437484E0,1.126950026E0,5.568000317E0,9.037950516E0
2.508437484E0,1.258050084E0,5.802000046E0,9.106950760E0
2.528437484E0,1.093050003E0,5.697000504E0,8.832000732E0
2.548437484E0,8.490000367E-1,5.350050449E0,8.166000366E0
2.568437484E0,5.020500422E-1,5.356950283E0,8.365050316E0
2.588437484E0,4.920000136E-1,5.479050159E0,9.013950348E0
2.608437484E0,3.820500076E-1,4.989000320E0,1.038495064E1
2.628437484E0,5.590500236E-1,4.498050213E0,1.164600086E1
2.648437484E0,7.200000286E-1,4.185000420E0,1.131795025E1
2.668437484E0,3.510000110E-1,4.019999981E0,1.021995068E1
2.688437484E0,-2.100000083E-1,4.474050045E0,9.334050179E0
2.708437484E0,-1.905000024E-2,4.873950005E0,8.121000290E0
2.728437484E0,8.820000291E-1,3.736950159E0,6.537000179E0
2.748437484E0,1.201050043E0,2.923950195E0,5.710950375E0
2.768437484E0,9.450000525E-1,3.160950184E0,5.635050297E0
2.788437484E0,7.890000343E-1,3.667950153E0,5.910000324E0
2.808437484E0,1.171950102E0,3.759000063E0,6.097050190E0
2.828437484E0,1.464000106E0,3.924000263E0,6.601950169E0
2.848437484E0,1.512000084E0,3.904950142E0,6.987000465E0
2.868437484E0,9.280500412E-1,3.876000166E0,6.891000271E0
2.888437484E0,-6.705000252E-2,4.221000195E0,6.381000519E0
2.908437484E0,-8.130000234E-1,4.915050030E0,7.417950153E0
2.928437484E0,-7.480500340E-1,5.383950233E0,8.365050316E0
2.948437484E0,-2.839500010E-1,5.776050091E0,9.528000832E0
2.968437484E0,9.795000404E-2,5.548950195E0,1.003095055E1
2.988437484E0,-5.205000192E-2,5.190000057E0,1.050405025E1
3.008437484E0,-9.829500318E-1,5.508000374E0,1.085595036E1
3.028437484E0,-7.170000076E-1,5.587050438E0,1.158405018E1
3.048437484E0,1.980000138E-1,5.317050457E0,1.229400063E1
3.068437484E0,1.513950109E0,4.599000454E0,1.274205017E1
3.088437484E0,2.224950075E0,3.664950132E0,1.246695042E1
3.108437484E0,1.351050019E0,3.724950075E0,1.183005047E1
3.128437484E0,6.190500259E-1,3.981000185E0,1.124400043E1
3.148437484E0,9.330000281E-1,3.886050224E0,1.089705086E1
3.168437484E0,1.038000107E0,3.808950186E0,1.044195080E1
3.188437484E0,1.075950027E0,3.441000223E0,9.978000641E0
3.208437484E0,1.569000125E0,2.767950058E0,9.760050774E0
3.228437484E0,1.749000072E0,2.199000120E0,9.316950798E0
3.248437484E0,1.320000052E0,2.042999983E0,8.242950439E0
3.268437484E0,7.050000429E-1,2.199000120E0,6.895950317E0
3.288437484E0,4.039500058E-1,2.727000237E0,5.923950195E0
3.308437484E0,4.305000231E-2,3.225000143E0,5.482050419E0
3.328437484E0,-4.470000267E-1,3.874050140E0,5.734950066E0
3.348437484E0,-2.910000086E-1,4.036050320E0,5.938950062E0
3.368437484E0,3.460500240E-1,3.732000113E0,6.463050365E0
3.388437484E0,5.500500202E-1,4.312050343E0,6.513000488E0
3.408437484E0,8.590500355E-1,4.876049995E0,7.006050110E0
3.428437484E0,9.040500522E-1,5.080050468E0,8.652000427E0
3.448437484E0,1.354050040E0,4.891050339E0,9.990000725E0
3.468437484E0,1.963950038E0,4.264050007E0,1.105695057E1
3.488437484E0,2.457000017E0,4.204050064E0,1.168905067E1
3.508437484E0,2.754000187E0,4.453050137E0,1.197405052E1
3.528437484E0,2.911950111E0,4.291950226E0,1.118205070E1
3.548437484E0,2.325000048E0,4.450050354E0,9.892050743E0
3.568437484E0,1.975950122E0,4.527000427E0,8.839050293E0
3.588437484E0,2.248950005E0,4.479000092E0,8.131050110E0
3.608437484E0,2.998050213E0,4.302000046E0,8.620950699E0
3.628437484E0,2.932950258E0,3.808950186E0,9.186000824E0
3.648437484E0,1.818000078E0,3.780000210E0,9.822000504E0
3.668437484E0,1.179000020E0,3.859050274E0,1.009800053E1
3.688437484E0,1.258050084E0,3.685050249E0,9.574050903E0
3.708437484E0,1.737000108E0,3.961950302E0,8.616000175E0
3.728437484E0,2.356950045E0,3.969000101E0,7.522950172E0
3.748437484E0,2.746950150E0,3.874050140E0,7.306950569E0
3.768437484E0,2.500050068E0,3.630000114E0,6.823950291E0
3.788437484E0,1.923000097E0,3.268050194E0,6.432000160E0
3.808437484E0,1.227000117E0,3.412050247E0,6.027000427E0
3.828437484E0,8.130000234E-1,3.658050060E0,5.374050140E0
3.848437484E0,1.000050068E0,3.783000231E0,5.037000179E0
3.868437484E0,1.062000036E0,3.898050070E0,4.821000099E0
3.888437484E0,6.139500141E-1,4.245000362E0,4.900050163E0
3.908437484E0,3.300000131E-1,4.647000313E0,4.998000145E0
3.928437484E0,3.580500185E-1,5.074950218E0,5.329050064E0
3.948437484E0,1.690500081E-1,5.749950409E0,6.558000088E0
3.968437484E0,-1.395000052E-2,6.264000416E0,8.098950386E0
3.988437484E0,8.250000477E-1,5.890950203E0,9.765000343E0
4.008437484E0,1.579050064E0,5.709000111E0,1.087500095E1
4.028437484E0,1.702950120E0,5.632050037E0,1.153800011E1
4.048437484E0,1.062000036E0,5.742000103E0,1.158105087E1
4.068437484E0,1.179000020E0,5.568000317E0,1.129395008E1
4.088437484E0,1.933050036E0,5.130000114E0,1.143795013E1
4.108437484E0,1.222050071E0,6.601950169E0,1.035105038E1
4.128437484E0,1.573950052E0,6.400950432E0,1.026495075E1
4.148437484E0,2.164950132E0,6.154050350E0,9.885000229E0
4.168437484E0,2.677050114E0,5.719050407E0,1.008600044E1
4.188437484E0,3.262950182E0,4.501049995E0,9.439949989E0
4.208437484E0,2.545950174E0,4.060050011E0,9.679050446E0
4.228437484E0,1.351050019E0,4.716000080E0,9.628950119E0
4.248437484E0,1.117050052E0,5.061000347E0,9.121050835E0
4.268437484E0,1.009050012E0,4.807050228E0,8.181000710E0
4.288437484E0,7.840500474E-1,4.351950169E0,7.779000282E0
4.308437484E0,8.350500464E-1,3.522000074E0,8.320050240E0
4.328437484E0,1.014000058E0,2.938050032E0,8.068050385E0
4.348437484E0,1.102950096E0,3.000000238E0,7.549050331E0
4.368437484E0,6.480000019E-1,3.712950230E0,6.574950218E0
4.388437484E0,1.000500023E-1,4.137000084E0,6.859950542E0
4.408437484E0,-3.510000110E-1,4.048050404E0,7.207050323E0
4.428437484E0,-4.830000103E-1,3.775950193E0,7.401000500E0
4.448437484E0,-4.305000231E-2,3.844950199E0,7.645050526E0
4.468437484E0,9.109500647E-1,4.009950161E0,8.194950104E0
4.488437484E0,1.153050065E0,4.290000439E0,8.725950241E0
4.508437484E0,1.123950005E0,4.548000336E0,8.913000107E0
4.528437484E0,1.359000087E0,4.656000137E0,8.889000893E0
4.548437484E0,1.098000050E0,5.203950405E0,7.552050591E0
4.568437484E0,1.051950097E0,4.729950428E0,7.699950218E0
4.588437484E0,1.014000058E0,4.528950214E0,8.880000114E0
4.608437484E0,8.869500160E-1,5.416950226E0,9.637950897E0
4.628437484E0,1.651050091E0,5.776050091E0,9.211950302E0
4.648437484E0,2.115000010E0,5.857050419E0,8.374950409E0
4.668437484E0,1.468950033E0,6.348000526E0,7.984950542E0
4.688437484E0,1.054949999E0,6.657000542E0,8.836950302E0
4.708437484E0,1.435050011E0,6.283050060E0,9.520950317E0
4.728437484E0,1.612050056E0,5.722950459E0,9.526050568E0
4.748437484E0,1.474050045E0,5.263950348E0,9.379950523E0
4.768437484E0,8.869500160E-1,5.143950462E0,8.640000343E0
4.788437484E0,8.710500598E-1,4.885950089E0,7.450950146E0
4.808437484E0,1.024049997E0,5.371950150E0,6.865050316E0
4.828437484E0,4.710000157E-1,5.541000366E0,6.889050484E0
4.848437484E0,2.680500150E-1,5.508000374E0,7.135050297E0
4.868437484E0,1.480500102E-1,5.403000355E0,6.823950291E0
4.888437484E0,3.150000274E-1,5.071950436E0,6.487050533E0
4.908437484E0,2.599500120E-1,4.821000099E0,6.903000355E0
4.928437484E0,9.000000358E-2,4.603050232E0,6.951000214E0
4.948437484E0,2.200500071E-1,4.699050426E0,6.106050491E0
4.968437484E0,1.360500008E-1,4.728000164E0,4.447950363E0
4.988437484E0,5.760000348E-1,4.447950363E0,6.070050240E0
5.008437484E0,1.702950120E0,4.182000160E0,7.405950546E0
5.028437484E0,2.136000156E0,4.703999996E0,8.595000267E0
5.048437484E0,2.290050030E0,4.777950287E0,1.006605053E1
5.068437484E0,3.132000208E0,3.886050224E0,1.053795052E1
5.088437484E0,3.153000116E0,3.574950218E0,1.019805050E1
5.108437484E0,2.602950096E0,4.114950180E0,9.949050903E0
5.128437484E0,1.804050088E0,4.809000015E0,1.016895008E1
5.148437484E0,1.488000035E0,5.508000374E0,1.018095016E1
5.168437484E0,1.981050134E0,5.805000305E0,9.274050713E0
5.188437484E0,2.773050070E0,5.665950298E0,8.143050194E0
5.208437484E0,2.521950006E0,6.409950256E0,7.887000561E0
5.228437484E0,1.843950033E0,7.165950298E0,8.855999947E0
5.248437484E0,1.720050097E0,7.582950592E0,9.808050156E0
5.268437484E0,2.473950148E0,6.967950344E0,1.020000076E1
5.288437484E0,2.731950045E0,5.959950447E0,8.419950485E0
5.308437484E0,1.720050097E0,5.886000156E0,6.432000160E0
5.328437484E0,1.219500080E-1,6.565950394E0,5.629950047E0
5.348437484E0,-5.160000324E-1,6.960000515E0,5.344950199E0
5.368437484E0,-1.450500041E-1,6.721050262E0,6.013050079E0
5.388437484E0,9.880500436E-1,5.665950298E0,7.642050266E0
5.408437484E0,1.849050045E0,4.221000195E0,8.418000221E0
5.428437484E0,1.348950028E0,3.603000164E0,8.546999931E0
5.448437484E0,9.300000221E-2,3.823050261E0,7.879050255E0
5.468437484E0,-2.220000178E-1,3.502950191E0,6.594000340E0
5.488437484E0,1.650000066E-1,3.121950150E0,5.089050293E0
5.508437484E0,5.620500445E-1,4.008000374E0,4.905000210E0
5.528437484E0,9.349500537E-1,4.843050003E0,5.158950329E0
5.548437484E0,1.048050046E0,4.921950340E0,5.814000130E0
5.568437484E0,6.600000262E-1,5.283000469E0,6.340950489E0
5.588437484E0,2.629500031E-1,6.361950397E0,6.859950542E0
5.608437484E0,5.500500202E-1,6.853050232E0,7.354950428E0
5.628437484E0,1.279950023E0,6.903000355E0,8.125950813E0
5.648437484E0,1.818000078E0,7.030050278E0,9.022950172E0
5.668437484E0,2.029050112E0,6.943950176E0,9.664050102E0
5.688437484E0,2.416050196E0,6.529950142E0,9.459000587E0
5.708437484E0,2.275050163E0,6.348000526E0,8.997000694E0
5.728437484E0,1.444950104E0,7.012950420E0,9.211950302E0
5.748437484E0,1.057050109E0,7.309950352E0,9.078000069E0
5.768437484E0,1.581000090E0,7.096950531E0,8.560950279E0
5.788437484E0,1.974000096E0,6.910050392E0,8.431950569E0
5.808437484E0,2.203050137E0,6.475050449E0,8.776950836E0
5.828437484E0,1.933050036E0,6.109050274E0,8.368050575E0
5.848437484E0,1.689000130E0,5.788050175E0,7.659000397E0
5.868437484E0,1.678950071E0,5.541000366E0,7.164000511E0
5.888437484E0,1.885050058E0,5.343000412E0,6.940950394E0
5.908437484E0,2.353950024E0,4.893000126E0,7.102050304E0
5.928437484E0,2.826000214E0,4.206000328E0,8.202000618E0
5.948437484E0,2.739000082E0,3.652950287E0,8.430000305E0
5.968437484E0,1.923000097E0,3.364050150E0,8.299950600E0
5.988437484E0,9.160500169E-1,3.462000132E0,7.839000225E0
6.008437484E0,2.239500135E-1,3.802050114E0,6.976950169E0
6.028437484E0,-5.895000324E-2,4.003050327E0,5.865000248E0
6.048437484E0,1.000500023E-1,3.871050119E0,5.128050327E0
6.068437484E0,4.369500279E-1,3.979050159E0,5.245050430E0
6.088437484E0,1.060050011E0,4.327950001E0,5.938950062E0
6.108437484E0,1.561950088E0,4.753950119E0,6.771000385E0
6.128437484E0,1.911000133E0,5.068050385E0,7.767000198E0
6.148437484E0,2.268000126E0,5.395950317E0,8.545050621E0
6.168437484E0,2.347050190E0,5.494050026E0,9.271950722E0
6.188437484E0,1.909050107E0,5.710950375E0,9.078000069E0
6.208437484E0,1.075950027E0,6.594000340E0,8.839050293E0
6.228437484E0,4.330500066E-1,7.647000313E0,8.305050850E0
6.248437484E0,7.395000011E-2,7.999050617E0,8.628000259E0
6.268437484E0,-1.770000011E-1,7.729050159E0,9.648000717E0
6.288437484E0,-2.290500104E-1,7.180950165E0,1.026300049E1
6.308437484E0,-1.600500047E-1,7.027050495E0,1.060500050E1
6.328437484E0,2.839500010E-1,6.703950405E0,1.111005020E1
6.348437484E0,6.600000262E-1,5.754000187E0,1.104795074E1
6.368437484E0,3.180000186E-1,5.166000366E0,1.075800037E1
6.388437484E0,-5.160000324E-1,5.116050243E0,1.021995068E1
6.408437484E0,-7.720500231E-1,5.095950127E0,9.258000374E0
6.428437484E0,-4.830000103E-1,4.969950199E0,8.041950226E0
6.448437484E0,3.299999982E-2,4.567950249E0,7.099050522E0
6.468437484E0,3.010500073E-1,4.474050045E0,7.201950550E0
6.488437484E0,5.400000215E-1,4.273050308E0,7.140000343E0
6.508437484E0,8.749500513E-1,3.643950224E0,6.409950256E0
6.528437484E0,5.670000315E-1,3.205950260E0,5.967000484E0
6.548437484E0,-7.480500340E-1,3.570000172E0,5.746950150E0
6.568437484E0,-2.074050188E0,4.276050091E0,6.526950359E0
6.588437484E0,-2.335050106E0,4.620000362E0,6.822000504E0
6.608437484E0,-1.618950129E0,4.705950260E0,6.673050404E0
6.628437484E0,-8.539500237E-1,4.915050030E0,6.477000237E0
6.648437484E0,-8.539500237E-1,5.287950039E0,6.984000206E0
6.668437484E0,-7.990500331E-1,5.281050205E0,7.762050152E0
6.688437484E0,-6.100500226E-1,5.464950085E0,8.434950829E0
6.708437484E0,-1.170000061E-1,5.484000206E0,8.884050369E0
6.728437484E0,5.400000215E-1,5.296950340E0,9.258000374E0
6.748437484E0,1.299000025E0,5.448000431E0,9.097050667E0
6.768437484E0,2.163000107E0,5.473950386E0,8.257050514E0
6.788437484E0,2.407050133E0,5.770950317E0,7.135050297E0
6.808437484E0,2.080950022E0,6.343050480E0,7.366950512E0
6.828437484E0,1.876050115E0,6.343050480E0,7.996950150E0
6.848437484E0,2.089050055E0,5.641950130E0,8.485050201E0
6.868437484E0,2.416050196E0,4.711050034E0,9.030000687E0
6.888437484E0,1.639050126E0,4.465050220E0,9.757950783E0
6.908437484E0,3.679500222E-1,5.005050182E0,1.108800030E1
6.928437484E0,-5.400000215E-1,5.440950394E0,1.128900051E1
6.948437484E0,-2.910000086E-1,4.812000275E0,1.119600010E1
6.968437484E0,1.450500041E-1,3.904950142E0,1.017195034E1
6.988437484E0,3.795000166E-2,3.768000126E0,9.121050835E0
7.008437484E0,-2.595000155E-2,3.826050282E0,7.903050423E0
7.028437484E0,-1.530000120E-1,3.933000088E0,6.939000130E0
7.048437484E0,-3.750000298E-1,4.033950329E0,6.322050095E0
7.068437484E0,-2.050500065E-1,3.886050224E0,5.958000183E0
7.088437484E0,6.705000252E-2,3.655950069E0,5.721000195E0
7.108437484E0,-1.050000042E-1,3.742050171E0,5.506050110E0
7.128437484E0,-5.380499959E-1,4.117949963E0,5.695050240E0
7.148437484E0,-1.026000023E0,4.723050117E0,6.100950241E0
7.168437484E0,-1.231950045E0,5.154000282E0,6.549000263E0
7.188437484E0,-1.106999993E0,5.524950027E0,7.042050362E0
7.208437484E0,-6.670500040E-1,5.758950233E0,8.176050186E0
7.228437484E0,-4.519500136E-1,6.175950527E0,9.286050797E0
7.248437484E0,-1.740000099E-1,6.501000404E0,9.925050735E0
7.268437484E0,4.305000231E-2,6.807000160E0,1.002105045E1
7.288437484E0,1.890000105E-1,6.778950214E0,9.669000626E0
7.308437484E0,3.180000186E-1,6.831000328E0,9.715050697E0
7.328437484E0,3.750000298E-1,7.075050354E0,9.523050308E0
7.348437484E0,8.820000291E-1,7.092000484E0,9.106950760E0
7.368437484E0,1.453950047E0,7.284000397E0,9.478050232E0
7.388437484E0,1.702950120E0,6.568050385E0,9.874950409E0
7.408437484E0,1.528950095E0,5.371950150E0,1.081995010E1
7.428437484E0,6.120000482E-1,4.843050003E0,1.108305073E1
7.448437484E0,-5.830500126E-1,5.113050461E0,1.038195038E1
7.468437484E0,-1.051950097E0,5.589000225E0,9.612000465E0
7.488437484E0,-8.800500631E-1,5.704050064E0,8.805000305E0
7.508437484E0,-2.149500102E-1,5.089050293E0,8.383950233E0
7.528437484E0,4.450500309E-1,4.273050308E0,8.145000458E0
7.548437484E0,1.039950013E0,3.742050171E0,7.755000591E0
7.568437484E0,1.360950112E0,3.340050220E0,6.877050400E0
7.588437484E0,1.081050038E0,3.333000183E0,5.460000038E0
7.608437484E0,3.130500019E-1,3.673050165E0,4.624950409E0
7.628437484E0,-4.800000191E-1,4.255949974E0,5.281050205E0
7.648437484E0,-8.200500607E-1,4.599000454E0,6.151950359E0
7.668437484E0,-8.820000291E-1,4.953000069E0,7.348050117E0
7.688437484E0,-6.619500518E-1,5.206050396E0,8.023050308E0
7.708437484E0,-6.705000252E-2,5.230050087E0,8.277000427E0
7.728437484E0,5.830500126E-1,5.062950134E0,8.169000626E0
7.748437484E0,3.079500198E-1,5.094000340E0,7.936950207E0
7.768437484E0,-5.710500479E-1,5.790000439E0,8.020950317E0
7.788437484E0,-4.849500358E-1,6.049050331E0,8.029950142E0
7.808437484E0,4.969500303E-1,5.599050045E0,7.977000237E0
7.828437484E0,1.126950026E0,5.391000271E0,7.891050339E0
7.848437484E0,8.040000200E-1,5.917050362E0,8.017950058E0
7.868437484E0,3.900000155E-1,6.088950157E0,8.458050728E0
7.888437484E0,1.720500141E-1,6.288000107E0,8.992050171E0
7.908437484E0,7.440000176E-1,5.580000401E0,9.346050262E0
7.928437484E0,8.299500346E-1,4.864050388E0,9.094950676E0
7.948437484E0,-1.380000114E-1,5.166000366E0,8.559000015E0
7.968437484E0,-9.730500579E-1,5.599050045E0,7.954050541E0
7.988437484E0,-1.384950042E0,6.087000370E0,8.248050690E0
8.008437484E0,-7.219500542E-1,5.917050362E0,8.571000099E0
8.028437484E0,6.859500408E-1,5.089050293E0,9.178950310E0
8.048437484E0,1.465950012E0,4.615050316E0,9.198000908E0
8.068437484E0,1.239000082E0,4.513050079E0,8.655000687E0
8.088437484E0,9.300000221E-2,5.125050068E0,8.206950188E0
8.108437484E0,-5.400000215E-1,5.362050056E0,7.900950432E0
8.128437484E0,-1.500000060E-1,4.993050098E0,7.822050571E0
8.148437484E0,6.499500275E-1,4.668000221E0,7.645050526E0
8.168437484E0,1.428000093E0,4.510050297E0,7.129950523E0
8.188437484E0,1.765050054E0,4.390050411E0,6.324000359E0
8.208437484E0,1.311000109E0,4.632000446E0,6.054000378E0
8.228437484E0,1.165050030E0,4.921950340E0,6.204000473E0
8.248437484E0,1.653000116E0,4.764000416E0,6.609000206E0
8.268437484E0,2.103000164E0,4.474050045E0,7.071000099E0
8.288437484E0,2.062050104E0,4.323000431E0,7.377000332E0
8.308437484E0,1.548000097E0,4.747050285E0,7.767000198E0
8.328437484E0,9.379500151E-1,5.299950123E0,8.671050072E0
8.348437484E0,9.970500469E-1,5.865000248E0,9.601950645E0
8.368437484E0,1.950000048E0,6.154050350E0,9.873000145E0
8.388437484E0,2.692050219E0,6.007950306E0,9.528000832E0
8.408437484E0,2.902050257E0,6.018000126E0,9.310050011E0
8.428437484E0,2.179050207E0,6.553950310E0,8.839050293E0
8.448437484E0,1.741950035E0,7.072950363E0,8.602050781E0
8.468437484E0,1.789050102E0,7.396050453E0,8.338950157E0
8.488437484E0,2.041050196E0,7.180950165E0,8.872050285E0
8.508437484E0,1.978050113E0,6.436050415E0,9.217050552E0
8.528437484E0,1.114950061E0,6.142050266E0,9.138000488E0
8.548437484E0,1.950000064E-3,6.508050442E0,9.367950439E0
8.568437484E0,-2.869500220E-1,7.111050129E0,9.853050232E0
8.588437484E0,5.430000424E-1,7.003950119E0,9.673950195E0
8.608437484E0,1.995000124E0,5.836050510E0,9.199950218E0
8.628437484E0,2.401950121E0,5.104050159E0,8.743050575E0
8.648437484E0,2.107950211E0,4.312050343E0,7.690050602E0
8.668437484E0,1.549950123E0,3.735000134E0,6.445950508E0
8.688437484E0,1.360950112E0,3.618000269E0,5.506050110E0
8.708437484E0,9.330000281E-1,3.457050085E0,5.410050392E0
8.728437484E0,3.319500089E-1,3.610050201E0,4.929000378E0
8.748437484E0,-7.095000148E-2,4.132050037E0,4.753950119E0
8.768437484E0,-2.320500165E-1,4.924050331E0,5.080050468E0
8.788437484E0,1.290000081E-1,5.022000313E0,5.340000153E0
8.808437484E0,2.959500253E-1,4.891050339E0,5.802000046E0
8.828437484E0,1.069500074E-1,5.376000404E0,6.207000256E0
8.848437484E0,1.720500141E-1,5.697000504E0,6.886050224E0
8.868437484E0,8.539500237E-1,5.742000103E0,7.327050209E0
8.888437484E0,1.312950015E0,5.581950188E0,8.035050392E0
8.908437484E0,9.660000205E-1,6.058050156E0,8.893950462E0
8.928437484E0,1.083000064E0,6.267000198E0,9.712050438E0
8.948437484E0,1.825050116E0,6.231000423E0,9.844050407E0
8.968437484E0,2.377950191E0,6.015000343E0,9.436950684E0
8.988437484E0,2.194050074E0,6.067950249E0,9.076050758E0
9.008437484E0,2.014050007E0,5.776050091E0,9.364950180E0
9.028437484E0,2.022000074E0,5.761950493E0,9.516000748E0
9.048437484E0,2.328000069E0,5.440950394E0,9.283950806E0
9.068437484E0,2.554950237E0,5.002950191E0,8.841000557E0
9.088437484E0,2.481000185E0,5.058000088E0,8.518050194E0
9.108437484E0,2.296950102E0,5.071950436E0,8.317049980E0
9.128437484E0,2.136000156E0,4.864050388E0,7.942050457E0
9.148437484E0,2.215050220E0,4.663050175E0,7.621050358E0
9.168437484E0,2.281949997E0,4.366950035E0,7.362000465E0
9.188437484E0,2.208000183E0,4.125000000E0,7.767000198E0
9.208437484E0,1.885050058E0,4.186950207E0,8.064000130E0
9.228437484E0,1.528950095E0,4.339950085E0,7.939050198E0
9.248437484E0,1.429950118E0,4.249050140E0,7.507950306E0
9.268437484E0,1.347000122E0,4.173000336E0,7.011000156E0
9.288437484E0,1.240950108E0,4.150950432E0,6.697050095E0
9.308437484E0,1.045050025E0,4.093950272E0,6.616050243E0
9.328437484E0,1.021050096E0,4.048050404E0,6.586950302E0
9.348437484E0,9.040500522E-1,4.137000084E0,6.099000454E0
9.368437484E0,6.810000539E-1,4.276050091E0,5.584950447E0
9.388437484E0,4.369500279E-1,4.582050323E0,5.440950394E0
9.408437484E0,1.189500093E-1,4.960050106E0,6.226050377E0
9.428437484E0,-2.050500065E-1,5.865000248E0,7.446000576E0
9.448437484E0,-5.205000192E-2,6.034050465E0,7.831050396E0
9.468437484E0,-3.439500034E-1,6.427050114E0,8.911050797E0
9.488437484E0,-3.370500207E-1,6.685050488E0,1.048305035E1
9.508437484E0,-1.690500081E-1,7.036950111E0,1.217505074E1
9.528437484E0,7.009500265E-1,7.105950356E0,1.252905083E1
9.548437484E0,7.009500265E-1,7.354950428E0,1.232805061E1
9.568437484E0,4.879500270E-1,7.812000275E0,1.215795040E1
9.588437484E0,7.960500121E-1,8.097000122E0,1.212000084E1
9.608437484E0,1.612050056E0,7.567950249E0,1.245705032E1
9.628437484E0,2.311050177E0,6.508050442E0,1.187100029E1
9.648437484E0,2.308950186E0,5.887950420E0,1.025805092E1
9.668437484E0,1.732050061E0,5.929050446E0,8.716950417E0
9.688437484E0,1.227000117E0,6.325950146E0,8.133000374E0
9.708437484E0,1.153050065E0,6.541950226E0,7.846050262E0
9.728437484E0,1.569000125E0,6.099000454E0,7.659000397E0
9.748437484E0,2.746950150E0,4.864050388E0,7.495950222E0
9.768437484E0,2.634000063E0,3.888000250E0,6.714000225E0
9.788437484E0,2.227050066E0,3.481050253E0,5.821050167E0
9.808437484E0,1.729950070E0,3.148950100E0,4.708950043E0
9.828437484E0,1.371000051E0,3.168000221E0,4.099050045E0
9.848437484E0,1.228950024E0,3.213000059E0,3.996000290E0
9.868437484E0,4.470000267E-1,3.334950209E0,4.501049995E0
9.888437484E0,-4.540500343E-1,4.024050236E0,5.272950172E0
9.908437484E0,-8.899500370E-1,4.600950241E0,5.194950104E0
9.928437484E0,-1.026000023E0,4.905000210E0,4.977000237E0
9.948437484E0,-9.709500670E-1,5.616000175E0,6.123000145E0
9.968437484E0,-7.459500432E-1,6.111000061E0,7.366950512E0
9.988437484E0,-3.130500019E-1,6.472050190E0,8.107049942E0
1.000843748E1,4.399500191E-1,6.417000294E0,8.712000847E0
1.002843748E1,1.456950068E0,5.938950062E0,8.277000427E0
1.004843748E1,2.458950043E0,5.781000137E0,7.788000584E0
1.006843748E1,2.613000154E0,6.135000229E0,7.987050533E0
1.008843748E1,2.512050152E0,6.415050507E0,8.736000061E0
1.010843748E1,2.488050222E0,6.372000217E0,9.999000549E0
1.012843748E1,2.019000053E0,6.412050247E0,1.151895046E1
1.014843748E1,1.684050083E0,5.683050156E0,1.182795048E1
1.016843748E1,1.528950095E0,4.936050415E0,1.087305069E1
1.018843748E1,1.165050030E0,4.998000145E0,9.837000847E0
1.020843748E1,1.117050052E0,5.008050442E0,9.394050598E0
1.022843748E1,1.227000117E0,5.173050404E0,8.884050369E0
1.024843748E1,1.462050080E0,4.933950424E0,8.311950684E0
1.026843748E1,1.428000093E0,4.632000446E0,8.101950645E0
1.028843748E1,1.246050000E0,4.501049995E0,8.095050812E0
1.030843748E1,1.191000104E0,4.394999981E0,8.250000000E0
1.032843748E1,1.299000025E0,4.447950363E0,7.831050396E0
1.034843748E1,1.395000100E0,4.422000408E0,6.931950092E0
1.036843748E1,1.288950086E0,4.446000099E0,5.902950287E0
1.038843748E1,1.291950107E0,3.570000172E0,5.187000275E0
1.040843748E1,8.059500456E-1,3.574950218E0,4.924050331E0
1.042843748E1,2.560500205E-1,3.787050247E0,5.161050320E0
1.044843748E1,-4.350000322E-1,4.125000000E0,5.410050392E0
1.046843748E1,-4.090500176E-1,4.456950188E0,6.513000488E0
1.048843748E1,-3.919500113E-1,5.095950127E0,6.714000225E0
1.050843748E1,1.480500102E-1,5.383950233E0,7.080000401E0
1.052843748E1,4.249500334E-1,5.854950428E0,7.531950474E0
1.054843748E1,3.660000265E-1,6.264000416E0,8.656949997E0
1.056843748E1,8.100000024E-2,6.535050392E0,9.265050888E0
1.058843748E1,-8.805000782E-2,6.889050484E0,9.559050560E0
1.060843748E1,8.805000782E-2,7.132950306E0,9.601950645E0
1.062843748E1,4.540500343E-1,7.243050575E0,1.011705017E1
1.064843748E1,7.339500189E-1,7.651950359E0,1.070295048E1
1.066843748E1,1.347000122E0,7.552050591E0,1.074795055E1
1.068843748E1,1.734000087E0,7.378950119E0,1.099995041E1
1.070843748E1,1.603050113E0,6.742950439E0,1.108800030E1
1.072843748E1,1.215000033E0,5.166000366E0,1.140600014E1
1.074843748E1,1.170000061E-1,4.323000431E0,1.112895012E1
1.076843748E1,-1.258050084E0,5.143950462E0,1.022400093E1
1.078843748E1,-1.516950130E0,5.716050148E0,8.998950005E0
1.080843748E1,-8.250000477E-1,5.898000240E0,7.354950428E0
1.082843748E1,7.095000148E-2,5.593950272E0,6.312000275E0
1.084843748E1,7.249500155E-1,4.996050358E0,6.244950294E0
1.086843748E1,1.162050009E0,4.008000374E0,6.937050343E0
1.088843748E1,1.111950040E0,3.157950163E0,7.068000317E0
1.090843748E1,6.910500526E-1,3.003000259E0,6.673050404E0
1.092843748E1,4.005000368E-2,3.120000124E0,6.345000267E0
1.094843748E1,-4.729500115E-1,3.394950151E0,5.793000221E0
1.096843748E1,-7.920000553E-1,3.687000275E0,5.214000225E0
1.098843748E1,-1.021050096E0,4.156050205E0,5.034000397E0
1.100843748E1,-1.171950102E0,4.510050297E0,5.470050335E0
1.102843748E1,-1.360950112E0,4.998000145E0,5.850000381E0
1.104843748E1,-6.930000186E-1,5.250000477E0,6.799950123E0
1.106843748E1,3.250500262E-1,5.134950161E0,7.750050545E0
1.108843748E1,9.690000415E-1,5.143950462E0,8.509050369E0
1.110843748E1,1.030950069E0,5.239950180E0,9.435000420E0
1.112843748E1,1.300950050E0,5.307000160E0,1.033200073E1
1.114843748E1,2.110050201E0,5.343000412E0,1.104795074E1
1.116843748E1,1.906950116E0,5.082000256E0,1.155705070E1
1.118843748E1,7.680000067E-1,5.752050400E0,1.103805065E1
1.120843748E1,8.595000207E-2,6.183000088E0,1.090200043E1
1.122843748E1,3.250500262E-1,6.082050323E0,1.080600071E1
1.124843748E1,9.060000181E-1,5.508000374E0,1.103805065E1
1.126843748E1,1.246050000E0,4.903050423E0,1.061700058E1
1.128843748E1,1.335000038E0,4.771050453E0,1.029405022E1
1.130843748E1,1.737000108E0,4.981950283E0,1.041795063E1
1.132843748E1,2.553000212E0,5.002950191E0,1.027500057E1
1.134843748E1,3.052950144E0,4.327950001E0,9.207000732E0
1.136843748E1,2.991000175E0,3.688950062E0,7.951050282E0
1.138843748E1,2.548050165E0,3.409050226E0,6.678000450E0
1.140843748E1,1.773000121E0,3.562950134E0,5.749950409E0
1.142843748E1,1.054949999E0,3.853950262E0,4.749000072E0
1.144843748E1,4.060500264E-1,4.342950344E0,3.606000185E0
1.146843748E1,4.039500058E-1,4.503000259E0,2.668050051E0
1.148843748E1,5.190000534E-1,4.371000290E0,2.799000025E0
1.150843748E1,6.259500384E-1,4.168050289E0,4.483950138E0
1.152843748E1,2.680500150E-1,4.185000420E0,5.886000156E0
1.154843748E1,-6.195000187E-2,4.359000206E0,7.123050213E0
1.156843748E1,-2.910000086E-1,4.459950447E0,7.294950485E0
1.158843748E1,-7.840500474E-1,4.584000111E0,6.934050560E0
1.160843748E1,-1.219950080E0,4.636950016E0,8.722050667E0
1.162843748E1,-1.998000145E0,5.058000088E0,9.175950050E0
1.164843748E1,-2.227050066E0,5.311950207E0,9.796050072E0
1.166843748E1,-1.921050072E0,5.994000435E0,1.046595097E1
1.168843748E1,-1.033050060E0,6.283050060E0,1.085895061E1
1.170843748E1,-3.780000210E-1,6.433950424E0,1.120095062E1
1.172843748E1,4.060500264E-1,6.216000080E0,1.120095062E1
1.174843748E1,5.980500579E-1,6.405000210E0,1.138305092E1
1.176843748E1,3.940500319E-1,6.334050179E0,1.142595100E1
1.178843748E1,2.820000052E-1,5.770950317E0,1.178205013E1
1.180843748E1,-1.950000064E-3,4.912050247E0,1.245000076E1
1.182843748E1,-3.060000241E-1,4.222949982E0,1.230600071E1
1.184843748E1,-2.269500047E-1,3.771000147E0,1.122000027E1
1.186843748E1,-2.509500086E-1,3.679950237E0,9.849000931E0
1.188843748E1,-2.805000171E-2,3.595950127E0,9.420000076E0
1.190843748E1,1.140000075E-1,3.673050165E0,9.294000626E0
1.192843748E1,4.369500279E-1,3.196050167E0,8.407950401E0
1.194843748E1,6.670500040E-1,3.036000252E0,8.584950447E0
1.196843748E1,9.570000172E-1,2.872950077E0,7.891050339E0
1.198843748E1,9.810000658E-1,2.677050114E0,6.649050236E0
1.200843748E1,7.510500550E-1,2.763000250E0,5.215950012E0
1.202843748E1,1.429500133E-1,3.003000259E0,4.108050346E0
1.204843748E1,-6.859500408E-1,3.346950054E0,4.075050354E0
1.206843748E1,-1.347000122E0,3.732000113E0,4.630050182E0
1.208843748E1,-1.447050095E0,4.201050282E0,5.568000317E0
1.210843748E1,-1.339950085E0,4.797000408E0,6.544050217E0
1.212843748E1,-1.203000069E0,5.250000477E0,7.567950249E0
1.214843748E1,-6.379500031E-1,5.527050495E0,8.796000481E0
1.216843748E1,6.649500132E-1,5.428950310E0,9.660000801E0
1.218843748E1,1.537950039E0,5.250000477E0,1.021695042E1
1.220843748E1,1.690950036E0,4.897950172E0,1.124895096E1
1.222843748E1,1.500000119E0,4.888050079E0,1.195005035E1
1.224843748E1,1.813050032E0,4.242000103E0,1.214400101E1
1.226843748E1,1.999950051E0,3.784950256E0,1.181595039E1
1.228843748E1,1.726950049E0,4.005000114E0,1.118400097E1
1.230843748E1,1.894950032E0,3.862050295E0,1.091400051E1
1.232843748E1,2.227050066E0,3.936000109E0,1.096095085E1
1.234843748E1,2.364000082E0,3.463950157E0,1.002105045E1
1.236843748E1,1.720050097E0,3.309000254E0,8.815050125E0
1.238843748E1,8.899500370E-1,3.796950102E0,8.005949974E0
1.240843748E1,5.040000081E-1,4.273050308E0,7.987050533E0
1.242843748E1,1.054949999E0,4.194000244E0,8.272050858E0
1.244843748E1,1.749000072E0,3.778050184E0,8.566050529E0
1.246843748E1,2.203050137E0,3.441000223E0,8.381999969E0
1.248843748E1,1.999950051E0,3.024000168E0,7.531950474E0
1.250843748E1,1.093050003E0,3.414000273E0,6.726000309E0
1.252843748E1,2.320500165E-1,3.759000063E0,6.030000210E0
1.254843748E1,-2.749500275E-1,3.991050243E0,5.001000404E0
1.256843748E1,-2.340000123E-1,3.840000153E0,4.057950020E0
1.258843748E1,1.740000099E-1,3.649050236E0,3.892950296E0
1.260843748E1,1.179000020E0,3.667950153E0,4.864050388E0
1.262843748E1,1.344000101E0,3.615000248E0,6.319050312E0
1.264843748E1,8.730000257E-1,3.852000237E0,7.530000210E0
1.266843748E1,2.650500238E-1,4.170000076E0,8.575950623E0
1.268843748E1,1.069500074E-1,4.087049961E0,9.568950653E0
1.270843748E1,4.050000105E-3,3.838050127E0,1.070505047E1
1.272843748E1,-2.959500253E-1,3.919050217E0,1.139205074E1
1.274843748E1,-6.720000505E-1,4.480950356E0,1.148295021E1
1.276843748E1,-4.350000322E-1,5.209050179E0,1.133505058E1
1.278843748E1,6.310500503E-1,5.404950142E0,1.113795090E1
1.280843748E1,1.083000064E0,5.209050179E0,1.053795052E1
1.282843748E1,4.690500200E-1,5.151000023E0,9.880050659E0
1.284843748E1,-3.079500198E-1,5.130000114E0,9.616950035E0
1.286843748E1,2.200500071E-1,5.002950191E0,1.009305000E1
1.288843748E1,1.171950102E0,5.151000023E0,1.117005062E1
1.290843748E1,2.194050074E0,4.090950012E0,1.261005020E1
1.292843748E1,2.103000164E0,2.916000128E0,1.355295086E1
1.294843748E1,5.980500579E-1,2.674950123E0,1.283700085E1
1.296843748E1,-1.081050038E0,2.998050213E0,1.126800060E1
1.298843748E1,-1.605000019E0,3.766050100E0,1.037805080E1
1.300843748E1,-1.155000091E0,3.979050159E0,9.976050377E0
1.302843748E1,-2.119500041E-1,3.505050182E0,1.005705070E1
1.304843748E1,4.639500082E-1,2.767950058E0,9.967950821E0
1.306843748E1,8.080500364E-1,2.184000015E0,9.451050758E0
1.308843748E1,8.320500255E-1,1.681950092E0,7.960950375E0
1.310843748E1,5.590500236E-1,1.495050073E0,6.514950275E0
1.312843748E1,-4.570500255E-1,1.852050066E0,5.668050289E0
1.314843748E1,-1.203000069E0,2.100000143E0,5.770950317E0
1.316843748E1,-1.588050127E0,2.347050190E0,6.043950081E0
1.318843748E1,-1.926000118E0,2.785050154E0,6.271050453E0
1.320843748E1,-2.194050074E0,3.378000259E0,6.561000347E0
1.322843748E1,-2.196000099E0,3.787050247E0,6.468000412E0
1.324843748E1,-1.854000092E0,4.314000130E0,7.084950447E0
1.326843748E1,-8.730000257E-1,4.519950390E0,7.989000320E0
1.328843748E1,-4.129500091E-1,4.560000420E0,8.655000687E0
1.330843748E1,-2.680500150E-1,4.848000050E0,8.920050621E0
1.332843748E1,1.095000096E-2,4.957950115E0,9.163949966E0
1.334843748E1,1.840500087E-1,5.116050243E0,9.106950760E0
1.336843748E1,3.270000219E-1,5.139000416E0,9.757950783E0
1.338843748E1,6.649500132E-1,5.242050171E0,1.056195068E1
1.340843748E1,1.323000073E0,4.663050175E0,1.172205067E1
1.342843748E1,1.750950098E0,4.242000103E0,1.246395016E1
1.344843748E1,2.164950132E0,3.400050163E0,1.230900097E1
1.346843748E1,2.047950029E0,2.842050076E0,1.130100060E1
1.348843748E1,1.432950020E0,3.097950220E0,1.046400070E1
1.350843748E1,1.170000076E0,3.345000267E0,1.001895046E1
1.352843748E1,1.450050116E0,3.117000103E0,9.942000389E0
1.354843748E1,2.038050175E0,2.872950077E0,9.918000221E0
1.356843748E1,2.962050200E0,2.662950039E0,9.219000816E0
1.358843748E1,3.261000156E0,2.383050203E0,7.675950527E0
1.360843748E1,2.416050196E0,2.974050045E0,6.336000443E0
1.362843748E1,1.501950026E0,3.325950146E0,5.302050114E0
1.364843748E1,6.000000238E-1,3.472050190E0,4.584000111E0
1.366843748E1,-5.700000376E-2,3.711000204E0,4.824000359E0
1.368843748E1,-1.450500041E-1,3.759000063E0,5.245050430E0
1.370843748E1,-1.950000064E-3,3.675000191E0,5.893050194E0
1.372843748E1,-7.095000148E-2,3.904950142E0,6.310050488E0
1.374843748E1,-2.239500135E-1,4.134000301E0,6.970050335E0
1.376843748E1,-1.650000066E-1,4.447950363E0,8.119050026E0
1.378843748E1,4.129500091E-1,4.335000038E0,9.234000206E0
1.380843748E1,9.900000691E-1,4.407000065E0,9.892050743E0
1.382843748E1,1.270050049E0,4.309050083E0,9.894000053E0
1.384843748E1,5.860500336E-1,4.680000305E0,9.916050911E0
1.386843748E1,-3.130500019E-1,5.376000404E0,1.019295025E1
1.388843748E1,-5.910000205E-1,6.087000370E0,1.104000092E1
1.390843748E1,6.529500484E-1,5.686950207E0,1.156200027E1
1.392843748E1,1.483050108E0,5.166000366E0,1.192605019E1
1.394843748E1,1.239000082E0,5.356950283E0,1.134405041E1
1.396843748E1,5.550000072E-1,5.686950207E0,1.037805080E1
1.398843748E1,4.879500270E-1,5.788050175E0,9.781949997E0
1.400843748E1,7.840500474E-1,5.014950275E0,1.011195087E1
1.402843748E1,6.000000238E-1,4.024050236E0,1.066500092E1
1.404843748E1,-1.170000061E-1,3.670050144E0,1.100700092E1
1.406843748E1,-8.130000234E-1,3.912000179E0,1.085895061E1
1.408843748E1,-6.670500040E-1,4.132050037E0,1.048800087E1
1.410843748E1,-1.930500120E-1,4.359000206E0,1.011195087E1
1.412843748E1,5.550000072E-1,3.904950142E0,9.640950203E0
1.414843748E1,1.146000028E0,3.304050207E0,9.076050758E0
1.416843748E1,1.525950074E0,2.943000078E0,8.305050850E0
1.418843748E1,1.774950027E0,2.569050074E0,7.047000408E0
1.420843748E1,1.474050045E0,2.461950064E0,5.710950375E0
1.422843748E1,2.770500183E-1,2.845050097E0,5.479050159E0
1.424843748E1,-6.120000482E-1,3.256050110E0,5.770950317E0
1.426843748E1,-8.250000477E-1,3.346950054E0,6.325950146E0
1.428843748E1,-1.004999995E0,3.630000114E0,7.221000195E0
1.430843748E1,-1.240950108E0,4.318950176E0,7.726050377E0
1.432843748E1,-1.263000011E0,4.825950146E0,7.729050159E0
1.434843748E1,-5.089499950E-1,4.848000050E0,7.783950329E0
1.436843748E1,3.580500185E-1,4.644000053E0,7.852950573E0
1.438843748E1,5.070000291E-1,4.552950382E0,7.992000580E0
1.440843748E1,2.509500086E-1,4.740000248E0,8.551950455E0
1.442843748E1,4.995000362E-2,5.062950134E0,8.563950539E0
1.444843748E1,1.905000024E-2,5.323950291E0,8.152050018E0
1.446843748E1,-1.290000081E-1,6.067950249E0,8.365050316E0
1.448843748E1,2.119500041E-1,5.941050053E0,9.349050522E0
1.450843748E1,6.930000186E-1,4.912050247E0,1.050705051E1
1.452843748E1,8.800500631E-1,3.663000107E0,1.160700035E1
1.454843748E1,2.200500071E-1,3.691950083E0,1.130400085E1
1.456843748E1,-3.060000241E-1,3.955050230E0,1.023600006E1
1.458843748E1,-4.950000346E-1,4.363950253E0,9.865050316E0
1.460843748E1,-3.495000303E-2,4.113000393E0,9.940050125E0
1.462843748E1,4.729500115E-1,3.523950100E0,9.544950485E0
1.464843748E1,4.969500303E-1,2.964000225E0,8.716950417E0
1.466843748E1,-1.770000011E-1,3.043050051E0,7.360050201E0
1.468843748E1,-7.510500550E-1,3.442950249E0,6.397950172E0
1.470843748E1,-8.130000234E-1,3.606000185E0,5.628000259E0
1.472843748E1,-5.740500093E-1,3.775950193E0,5.455050468E0
1.474843748E1,-1.960500032E-1,3.949950218E0,5.814000130E0
1.476843748E1,4.159500301E-1,4.045950413E0,6.484050274E0
1.478843748E1,3.799500167E-1,3.931050301E0,7.132950306E0
1.480843748E1,-8.595000207E-2,4.122000217E0,7.516050339E0
1.482843748E1,-1.930500120E-1,3.928950071E0,7.933950424E0
1.484843748E1,-2.290500104E-1,3.768000126E0,8.245050430E0
1.486843748E1,-4.849500358E-1,3.490950108E0,8.937000275E0
1.488843748E1,-8.010000587E-1,3.223050117E0,9.624000549E0
1.490843748E1,-1.276950002E0,3.205950260E0,1.031100082E1
1.492843748E1,-2.095950127E0,3.865950108E0,1.090605068E1
1.494843748E1,-2.434950113E0,4.426050186E0,1.132005024E1
1.496843748E1,-2.038050175E0,4.998000145E0,1.145205021E1
1.498843748E1,-7.150500417E-1,5.226000309E0,1.184895039E1
1.500843748E1,3.079500198E-1,5.254050255E0,1.132305050E1
1.502843748E1,1.000500023E-1,6.171000481E0,1.144695091E1
1.504843748E1,8.370000124E-1,6.409950256E0,1.167705059E1
1.506843748E1,2.323050022E0,5.853000164E0,1.203300095E1
1.508843748E1,2.614950180E0,5.211000443E0,1.133205032E1
1.510843748E1,1.597950101E0,5.242050171E0,1.055895042E1
1.512843748E1,3.150000274E-1,5.845050335E0,1.079895020E1
1.514843748E1,3.795000166E-2,6.156000137E0,1.061895084E1
1.516843748E1,9.300000221E-2,6.289950371E0,9.222000122E0
1.518843748E1,5.140500069E-1,6.336000443E0,8.497050285E0
1.520843748E1,7.720500231E-1,6.046050072E0,8.020950317E0
1.522843748E1,8.779500127E-1,5.404950142E0,7.594950199E0
1.524843748E1,8.899500370E-1,4.723050117E0,6.931950092E0
1.526843748E1,5.620500445E-1,4.234950066E0,5.982000351E0
1.528843748E1,-2.290500104E-1,4.017000198E0,5.625000477E0
1.530843748E1,-1.119000077E0,3.928950071E0,6.007950306E0
1.532843748E1,-1.825050116E0,3.808950186E0,6.484050274E0
1.534843748E1,-1.741950035E0,3.553050280E0,6.499050140E0
1.536843748E1,-5.569500327E-1,3.232050180E0,6.457950115E0
1.538843748E1,7.095000148E-2,3.325950146E0,8.113950729E0
1.540843748E1,1.231950045E0,2.835000038E0,9.625950813E0
1.542843748E1,2.521950006E0,1.765050054E0,9.660000801E0
1.544843748E1,2.890050173E0,1.423050046E0,9.576000214E0
1.546843748E1,2.766000032E0,1.608000040E0,1.004505062E1
1.548843748E1,2.991000175E0,2.078999996E0,9.862950325E0
1.550843748E1,2.830050230E0,2.175000191E0,9.126000404E0
1.552843748E1,1.641000032E0,2.245950222E0,8.482049942E0
1.554843748E1,5.140500069E-1,2.794050217E0,8.968050003E0
1.556843748E1,3.079500198E-1,3.208050251E0,9.700050354E0
1.558843748E1,1.351050019E0,3.121950150E0,1.017900085E1
1.560843748E1,2.067000151E0,2.964000225E0,1.057905006E1
1.562843748E1,2.268000126E0,2.617050171E0,9.487050056E0
1.564843748E1,2.248950005E0,2.256000042E0,7.663950443E0
1.566843748E1,1.938000083E0,2.785050154E0,6.243000507E0
1.568843748E1,1.488000035E0,3.667950153E0,5.025000095E0
1.570843748E1,1.489950061E0,4.009950161E0,4.797000408E0
1.572843748E1,1.828050137E0,3.414000273E0,5.338050365E0
1.574843748E1,1.974000096E0,3.022050142E0,6.477000237E0
1.576843748E1,1.792050123E0,3.322950125E0,6.606000423E0
1.578843748E1,1.669950128E0,3.606000185E0,6.144000053E0
1.580843748E1,1.387050033E0,3.618000269E0,6.160950184E0
1.582843748E1,1.150050044E0,3.874050140E0,6.307050228E0
1.584843748E1,1.143000007E0,4.113000393E0,6.558000088E0
1.586843748E1,1.476000071E0,4.339950085E0,6.967950344E0
1.588843748E1,1.744050026E0,4.684950352E0,6.730950356E0
1.590843748E1,1.914000034E0,5.001000404E0,6.630000114E0
1.592843748E1,2.167050123E0,5.581950188E0,6.943950176E0
1.594843748E1,2.296950102E0,6.460050106E0,7.906050205E0
1.596843748E1,2.392050028E0,6.903000355E0,9.142950058E0
1.598843748E1,2.412000179E0,6.855000496E0,1.096395016E1
1.600843748E1,2.206050158E0,7.173000336E0,1.257405090E1
1.602843748E1,2.482950211E0,7.318950176E0,1.310295105E1
1.604843748E1,3.192000151E0,7.219050407E0,1.285905075E1
1.606843748E1,4.072050095E0,6.976950169E0,1.263195038E1
1.608843748E1,4.132050037E0,6.606000423E0,1.216005039E1
1.610843748E1,3.189000130E0,6.477000237E0,1.150005054E1
1.612843748E1,1.596000075E0,6.621000290E0,1.108095074E1
1.614843748E1,3.780000210E-1,6.771000385E0,1.150695038E1
1.616843748E1,5.329500437E-1,5.920050144E0,1.233705044E1
1.618843748E1,1.038000107E0,4.789950371E0,1.257900047E1
1.620843748E1,1.378050089E0,4.138950348E0,1.218195057E1
1.622843748E1,1.524000049E0,3.615000248E0,1.181100082E1
1.624843748E1,1.713000059E0,3.472050190E0,1.091400051E1
1.626843748E1,1.828050137E0,3.522000074E0,9.349050522E0
1.628843748E1,1.809000134E0,3.259050131E0,7.317000389E0
1.630843748E1,1.618950129E0,3.201000214E0,5.785950184E0
1.632843748E1,1.429950118E0,3.157950163E0,5.022000313E0
1.634843748E1,1.264950037E0,3.208050251E0,5.484000206E0
1.636843748E1,1.416000009E0,2.940000057E0,5.617950439E0
1.638843748E1,1.182000041E0,2.596050024E0,5.833050251E0
1.640843748E1,6.769500375E-1,2.866050243E0,5.725950241E0
1.642843748E1,6.240000129E-1,3.163050175E0,5.608050346E0
1.644843748E1,7.390500307E-1,3.273000240E0,5.604000092E0
1.646843748E1,1.018950105E0,3.261000156E0,6.763950348E0
1.648843748E1,2.770500183E-1,4.357050419E0,7.405950546E0
1.650843748E1,8.899500370E-1,4.776000023E0,7.714050293E0
1.652843748E1,1.993050098E0,4.789950371E0,7.188000202E0
1.654843748E1,2.584050179E0,5.158950329E0,7.224000454E0
1.656843748E1,2.857050180E0,5.530050278E0,7.693050385E0
1.658843748E1,2.802000046E0,5.467050076E0,7.987050533E0
1.660843748E1,2.473950148E0,5.749950409E0,8.101950645E0
1.662843748E1,2.437950134E0,5.746950150E0,8.013000488E0
1.664843748E1,2.578950167E0,5.427000046E0,8.072999954E0
1.666843748E1,2.635950089E0,5.254050255E0,8.494050026E0
1.668843748E1,2.610000134E0,5.065050125E0,9.451050758E0
1.670843748E1,3.016950130E0,3.955050230E0,9.568950653E0
1.672843748E1,2.859000206E0,2.895000219E0,9.246000290E0
1.674843748E1,2.395050049E0,2.859000206E0,8.848050117E0
1.676843748E1,1.911000133E0,3.543000221E0,8.503950119E0
1.678843748E1,1.641000032E0,4.077000141E0,8.548950195E0
1.680843748E1,1.822950125E0,3.819000244E0,8.257050514E0
1.682843748E1,2.223000050E0,3.460050106E0,7.920000553E0
1.684843748E1,2.376000166E0,3.553050280E0,7.776000500E0
1.686843748E1,1.927950144E0,3.933000088E0,8.059050560E0
1.688843748E1,1.213050008E0,4.150950432E0,8.418000221E0
1.690843748E1,6.930000186E-1,4.198950291E0,8.262000084E0
1.692843748E1,5.620500445E-1,4.282950401E0,7.657050133E0
1.694843748E1,7.080000043E-1,4.351950169E0,7.047000408E0
1.696843748E1,5.550000072E-1,4.398000240E0,6.537000179E0
1.698843748E1,1.860000044E-1,4.716000080E0,6.750000477E0
1.700843748E1,-4.695000127E-2,5.017050266E0,7.378950119E0
1.702843748E1,-4.305000231E-2,5.284950256E0,8.190000534E0
1.704843748E1,3.630000055E-1,5.496000290E0,9.160050392E0
1.706843748E1,6.379500031E-1,5.415000439E0,9.660000801E0
1.708843748E1,4.249500334E-1,5.383950233E0,1.066005039E1
1.710843748E1,-1.980000138E-1,5.890950203E0,1.136100101E1
1.712843748E1,-8.295000345E-2,6.288000107E0,1.145700073E1
1.714843748E1,4.020000100E-1,6.352950096E0,1.104495049E1
1.716843748E1,9.690000415E-1,6.211050510E0,1.087500095E1
1.718843748E1,1.402050018E0,6.187950134E0,1.065795040E1
1.720843748E1,1.411050081E0,6.556050301E0,1.011705017E1
1.722843748E1,1.666950107E0,6.501000404E0,1.005405045E1
1.724843748E1,1.741950035E0,6.160950184E0,1.018395042E1
1.726843748E1,1.774950027E0,5.257050037E0,1.045695019E1
1.728843748E1,1.384950042E0,4.366950035E0,9.889050484E0
1.730843748E1,2.939999998E-1,4.335000038E0,9.529950142E0
1.732843748E1,-2.359500080E-1,4.780950069E0,9.814950943E0
1.734843748E1,3.349500299E-1,5.082000256E0,9.999000549E0
1.736843748E1,1.141050100E0,4.551000118E0,9.822000504E0
1.738843748E1,1.648050070E0,4.008000374E0,9.157050133E0
1.740843748E1,1.597950101E0,3.739950180E0,7.918050289E0
1.742843748E1,1.404000044E0,3.349950075E0,6.373950481E0
1.744843748E1,8.610000610E-1,2.986050129E0,5.077050209E0
1.746843748E1,1.480500102E-1,2.971050024E0,5.431050301E0
1.748843748E1,-4.590000212E-1,3.192000151E0,6.490950108E0
1.750843748E1,-2.149500102E-1,2.995050192E0,7.216950417E0
1.752843748E1,4.570500255E-1,2.845050097E0,7.444050312E0
1.754843748E1,1.591050029E0,3.187050104E0,7.150050163E0
1.756843748E1,2.476050138E0,3.790050268E0,6.460050106E0
1.758843748E1,2.689050198E0,3.400050163E0,6.336000443E0
1.760843748E1,2.968950033E0,2.983050108E0,7.482000351E0
1.762843748E1,3.055050135E0,3.505050182E0,9.054000854E0
1.764843748E1,3.522000074E0,3.508050203E0,1.015995026E1
1.766843748E1,4.209000111E0,3.156000137E0,9.700050354E0
1.768843748E1,4.548000336E0,3.000000238E0,8.482049942E0
1.770843748E1,3.687000275E0,3.709050179E0,7.456050396E0
1.772843748E1,2.203050137E0,4.867050171E0,7.339050293E0
1.774843748E1,1.689000130E0,4.680000305E0,8.533050537E0
1.776843748E1,2.038050175E0,4.137000084E0,1.025100040E1
1.778843748E1,2.268000126E0,3.526950121E0,1.102095032E1
1.780843748E1,2.115000010E0,3.193950176E0,1.041105080E1
1.782843748E1,2.019000053E0,2.991000175E0,9.267000198E0
1.784843748E1,1.251000047E0,3.835050106E0,8.980050087E0
1.786843748E1,8.250000477E-1,4.019999981E0,8.893950462E0
1.788843748E1,9.540000558E-1,3.216000080E0,8.881950378E0
1.790843748E1,4.660500288E-1,2.718000174E0,8.761950493E0
1.792843748E1,-3.850500286E-1,3.082050085E0,9.032999992E0
1.794843748E1,-3.559500277E-1,3.553050280E0,8.817000389E0
1.796843748E1,8.730000257E-1,3.490950108E0,8.169000626E0
1.798843748E1,1.605000019E0,3.337950230E0,7.300050259E0
1.800843748E1,1.216950059E0,3.304050207E0,7.116000175E0
1.802843748E1,6.430500150E-1,3.438000202E0,7.495950222E0
1.804843748E1,3.060000241E-1,3.673050165E0,8.169000626E0
1.806843748E1,5.140500069E-1,4.012050152E0,8.712000847E0
1.808843748E1,5.020500422E-1,3.574950218E0,8.395950317E0
1.810843748E1,5.879999995E-1,3.144000053E0,8.386950493E0
1.812843748E1,-6.195000187E-2,3.325950146E0,9.538050652E0
1.814843748E1,-7.840500474E-1,3.634050131E0,1.058100033E1
1.816843748E1,-1.351050019E0,3.972000122E0,1.046805096E1
1.818843748E1,-1.324950099E0,4.264050007E0,9.700050354E0
1.820843748E1,-5.740500093E-1,3.853950262E0,1.013100052E1
1.822843748E1,-7.605000585E-2,3.571950197E0,1.105200100E1
1.824843748E1,-6.859500408E-1,3.502950191E0,1.288500023E1
1.826843748E1,-8.370000124E-1,3.931050301E0,1.159095097E1
1.828843748E1,-8.610000610E-1,3.759000063E0,1.186395073E1
1.830843748E1,7.870500088E-1,1.584000111E0,1.432305050E1
1.832843748E1,4.050000105E-3,2.332950115E0,1.473300076E1
1.834843748E1,5.160000324E-1,2.182049990E0,1.413705063E1
1.836843748E1,3.370500207E-1,2.932950258E0,1.174200058E1
1.838843748E1,4.210500121E-1,3.184050083E0,1.038705063E1
1.840843748E1,1.155000091E0,3.366000175E0,9.451050758E0
1.842843748E1,1.828050137E0,2.613000154E0,1.078695011E1
1.844843748E1,1.480950117E0,2.806050062E0,1.053105068E1
1.846843748E1,6.840000153E-1,2.538000107E0,1.016205025E1
1.848843748E1,-2.839500010E-1,2.470950127E0,9.786000252E0
1.850843748E1,-6.889500618E-1,2.220000029E0,9.418050766E0
1.852843748E1,-7.390500307E-1,2.251049995E0,9.660000801E0
1.854843748E1,-1.050000042E-1,2.266050100E0,9.487050056E0
1.856843748E1,1.624050021E0,8.080500364E-1,9.436950684E0
1.858843748E1,1.983000040E0,6.360000372E-1,8.827050209E0
1.860843748E1,4.920000136E-1,2.416050196E0,7.651950359E0
1.862843748E1,8.040000200E-1,2.104950190E0,8.072999954E0
1.864843748E1,2.239050150E0,1.294050097E0,8.072999954E0
1.866843748E1,2.005050182E0,1.605000019E0,8.875050545E0
1.868843748E1,1.629000068E0,1.633950114E0,9.355950356E0
1.870843748E1,2.022000074E0,1.024049997E0,9.865050316E0
1.872843748E1,2.328000069E0,3.610500097E-1,9.954000473E0
1.874843748E1,1.950000048E0,7.720500231E-1,1.018395042E1
1.876843748E1,1.227000117E0,1.797000051E0,9.909000397E0
1.878843748E1,1.899000049E0,2.943000078E0,9.834000587E0
1.880843748E1,4.113000393E0,2.974050045E0,8.451000214E0
1.882843748E1,6.123000145E0,2.566950083E0,8.712000847E0
1.884843748E1,6.429000378E0,1.761000037E0,1.052400017E1
1.886843748E1,5.010000229E0,1.261050105E0,1.224195099E1
1.888843748E1,3.768000126E0,1.417950034E0,1.177995014E1
1.890843748E1,4.357050419E0,3.919500113E-1,9.427950859E0
1.892843748E1,4.966950417E0,-1.189500093E-1,6.496050358E0
1.894843748E1,4.321050167E0,-3.495000303E-2,4.327950001E0
1.896843748E1,3.223050117E0,-4.690500200E-1,5.821050167E0
1.898843748E1,1.708050132E0,1.240500063E-1,7.867050171E0
1.900843748E1,9.469500184E-1,7.939500213E-1,8.784000397E0
1.902843748E1,1.383000016E0,6.790500283E-1,7.693050385E0
1.904843748E1,2.268000126E0,-3.799500167E-1,6.136950493E0
1.906843748E1,1.689000130E0,-7.200000286E-1,5.545950413E0
1.908843748E1,-1.549500078E-1,-2.719500065E-1,5.790000439E0
1.910843748E1,-1.447050095E0,-3.420000076E-1,6.501000404E0
1.912843748E1,-1.837050080E0,-4.450500309E-1,7.063050270E0
1.914843748E1,-1.737000108E0,2.100000158E-2,6.219000340E0
1.916843748E1,-1.311000109E0,7.249500155E-1,5.305050373E0
1.918843748E1,-1.210050106E0,1.540950060E0,4.441050053E0
1.920843748E1,-1.665000081E0,2.353950024E0,4.125000000E0
1.922843748E1,-1.591050029E0,2.914050102E0,5.295000076E0
1.924843748E1,-9.780000448E-1,3.337950230E0,6.771000385E0
1.926843748E1,-2.629500031E-1,3.889950275E0,9.205050468E0
1.928843748E1,3.010500073E-1,4.194000244E0,1.068600082E1
1.930843748E1,1.086000085E0,4.003050327E0,1.154295063E1
1.932843748E1,8.730000257E-1,4.354950428E0,1.155705070E1
1.934843748E1,1.579050064E0,4.254000187E0,1.107600021E1
1.936843748E1,2.215050220E0,3.639000177E0,1.090905094E1
1.938843748E1,1.471050024E0,3.574950218E0,1.157205009E1
1.940843748E1,8.509500623E-1,2.904000044E0,1.242795086E1
1.942843748E1,1.960500032E-1,2.437950134E0,1.299495029E1
1.944843748E1,-6.480000019E-1,3.031050205E0,1.269900036E1
1.946843748E1,-9.495000541E-2,2.223000050E0,1.097805023E1
1.948843748E1,7.080000043E-1,1.516950130E0,1.053495026E1
1.950843748E1,8.590500355E-1,1.060050011E0,1.153095055E1
1.952843748E1,1.476000071E0,5.569500327E-1,1.420605087E1
1.954843748E1,2.364000082E0,3.630000055E-1,1.541205120E1
1.956843748E1,2.947950125E0,5.070000291E-1,1.553895092E1
1.958843748E1,3.235050201E0,1.464000106E0,1.414905071E1
1.960843748E1,3.393000126E0,2.328000069E0,1.192095089E1
1.962843748E1,3.354000092E0,2.971050024E0,9.817950249E0
1.964843748E1,3.534000158E0,3.322950125E0,8.166000366E0
1.966843748E1,4.264050007E0,2.502000093E0,8.686050415E0
1.968843748E1,3.907050133E0,1.891950130E0,9.483000755E0
1.970843748E1,2.818050146E0,1.548000097E0,1.010505009E1
1.972843748E1,2.089050055E0,9.300000668E-1,9.645000458E0
1.974843748E1,2.022000074E0,1.450500041E-1,8.908050537E0
1.976843748E1,2.080950022E0,-8.010000587E-1,8.841000557E0
1.978843748E1,2.239050150E0,-1.513950109E0,9.769950867E0
1.980843748E1,2.601000071E0,-2.042999983E0,1.019100094E1
1.982843748E1,2.364000082E0,-2.042999983E0,9.490050316E0
1.984843748E1,1.102950096E0,-1.255950093E0,8.690999985E0
1.986843748E1,1.140000075E-1,-3.349500299E-1,7.945950508E0
1.988843748E1,-3.580500185E-1,8.419500589E-1,8.071050644E0
1.990843748E1,6.529500484E-1,1.512000084E0,8.286000252E0
1.992843748E1,1.822950125E0,1.581000090E0,9.049050331E0
1.994843748E1,2.548050165E0,1.825050116E0,1.048800087E1
1.996843748E1,3.442950249E0,1.879950047E0,1.045905018E1
1.998843748E1,3.586050272E0,2.536050081E0,1.075095081E1
2.000843748E1,3.040950060E0,2.899950027E0,1.046400070E1
2.002843748E1,2.896950245E0,3.333000183E0,1.001100063E1
2.004843748E1,2.742000103E0,3.864000082E0,9.568950653E0
2.006843748E1,2.725050211E0,4.069950104E0,7.666050434E0
2.008843748E1,2.562000036E0,4.090950012E0,6.204000473E0
2.010843748E1,1.999950051E0,3.877950191E0,8.088000298E0
2.012843748E1,1.063950062E0,4.066950321E0,7.534950256E0
2.014843748E1,5.670000315E-1,4.126950264E0,6.694950104E0
2.016843748E1,3.010500073E-1,4.084050179E0,6.031950474E0
2.018843748E1,-1.050000042E-1,4.146000385E0,5.383950233E0
2.020843748E1,-1.890000105E-1,4.144050121E0,5.386050224E0
2.022843748E1,-1.140000075E-1,4.378950119E0,5.587050438E0
2.024843748E1,-4.950000346E-1,4.728000164E0,5.898000240E0
2.026843748E1,-5.689499974E-1,4.950000286E0,6.001050472E0
2.028843748E1,2.200500071E-1,5.695050240E0,7.348050117E0
2.030843748E1,1.627050042E0,5.154000282E0,6.421950340E0
2.032843748E1,1.821000099E0,4.567950249E0,8.001000404E0
2.034843748E1,1.308000088E0,5.497950077E0,8.949000359E0
2.036843748E1,1.063950062E0,6.325950146E0,9.030000687E0
2.038843748E1,1.348950028E0,6.807000160E0,9.247950554E0
2.040843748E1,1.641000032E0,6.886050224E0,9.202950478E0
2.042843748E1,1.471050024E0,7.068000317E0,9.331950188E0
2.044843748E1,9.730500579E-1,7.144950390E0,9.877050400E0
2.046843748E1,6.930000186E-1,6.913050175E0,1.039905071E1
2.048843748E1,1.123950005E0,6.778950214E0,1.030605030E1
2.050843748E1,1.447050095E0,6.606000423E0,1.054695034E1
2.052843748E1,1.483050108E0,5.979000092E0,9.648000717E0
2.054843748E1,9.280500412E-1,5.938950062E0,8.619000435E0
2.056843748E1,4.879500270E-1,6.457950115E0,8.197950363E0
2.058843748E1,8.470500112E-1,6.721050262E0,8.454000473E0
2.060843748E1,1.746000051E0,6.247050285E0,8.608950615E0
2.062843748E1,2.488050222E0,5.034000397E0,8.667000771E0
2.064843748E1,1.998000145E0,4.528950214E0,7.969950199E0
2.066843748E1,1.264950037E0,4.849950314E0,7.087050438E0
2.068843748E1,1.194000006E0,5.125050068E0,6.180000305E0
2.070843748E1,1.258050084E0,5.020050049E0,5.515050411E0
2.072843748E1,7.990500331E-1,5.215950012E0,6.826050282E0
2.074843748E1,2.939999998E-1,5.056050301E0,6.360000134E0
2.076843748E1,4.090500176E-1,4.623000145E0,6.196950436E0
2.078843748E1,8.200500607E-1,4.489050388E0,5.142000198E0
2.080843748E1,9.400500655E-1,5.275950432E0,5.247000217E0
2.082843748E1,7.530000210E-1,5.677950382E0,6.925050259E0
2.084843748E1,6.000000238E-1,5.506050110E0,8.350950241E0
2.086843748E1,6.790500283E-1,5.329050064E0,9.243000031E0
2.088843748E1,1.093050003E0,5.467050076E0,9.265050888E0
2.090843748E1,1.689000130E0,4.824000359E0,8.853000641E0
2.092843748E1,9.690000415E-1,5.203950405E0,9.028050423E0
2.094843748E1,4.950000346E-1,5.692050457E0,8.797950745E0
2.096843748E1,6.220500469E-1,5.376000404E0,8.478000641E0
2.098843748E1,5.430000424E-1,5.689950466E0,8.901000023E0
2.100843748E1,8.629500270E-1,5.677950382E0,9.946950912E0
2.102843748E1,9.640500546E-1,5.842950344E0,1.031295013E1
2.104843748E1,9.829500318E-1,5.532000065E0,1.044495010E1
2.106843748E1,1.342050076E0,4.873950005E0,9.673950195E0
2.108843748E1,1.387050033E0,4.632000446E0,8.584950447E0
2.110843748E1,1.291950107E0,5.058000088E0,7.659000397E0
2.112843748E1,1.255950093E0,5.503050327E0,7.432050228E0
2.114843748E1,1.423050046E0,5.485950470E0,7.807950497E0
2.116843748E1,1.734000087E0,4.717950344E0,8.443950653E0
2.118843748E1,1.615050077E0,4.117949963E0,8.322000504E0
2.120843748E1,1.234050035E0,4.197000027E0,7.786050320E0
2.122843748E1,5.910000205E-1,4.636950016E0,7.408050537E0
2.124843748E1,4.249500334E-1,4.867050171E0,7.374000549E0
2.126843748E1,5.449500084E-1,4.807050228E0,7.192950249E0
2.128843748E1,6.529500484E-1,4.749000072E0,7.105950356E0
2.130843748E1,8.200500607E-1,4.648950100E0,7.153950214E0
2.132843748E1,7.600500584E-1,4.840050220E0,6.628050327E0
2.134843748E1,5.879999995E-1,5.302050114E0,5.754000187E0
2.136843748E1,5.140500069E-1,5.488950253E0,5.010000229E0
2.138843748E1,1.480500102E-1,5.584950447E0,4.926000118E0
2.140843748E1,-1.095000096E-2,5.850000381E0,5.941050053E0
2.142843748E1,2.580000162E-1,5.908050060E0,7.333950520E0
2.144843748E1,5.689499974E-1,5.994000435E0,8.523000717E0
2.146843748E1,1.171950102E0,5.806950092E0,9.045000076E0
2.148843748E1,1.501950026E0,5.652000427E0,9.195000648E0
2.150843748E1,1.279950023E0,6.043950081E0,9.130949974E0
2.152843748E1,8.350500464E-1,6.439050198E0,8.779050827E0
2.154843748E1,2.440500110E-1,6.805050373E0,8.692950249E0
2.156843748E1,-3.079500198E-1,7.177950382E0,8.407950401E0
2.158843748E1,1.099500060E-1,7.044000149E0,8.848050117E0
2.160843748E1,6.529500484E-1,6.963000298E0,9.721950531E0
2.162843748E1,9.640500546E-1,6.409950256E0,1.146195030E1
2.164843748E1,1.263000011E0,5.284950256E0,1.123695087E1
2.166843748E1,8.130000234E-1,5.053050041E0,9.757950783E0
2.168843748E1,-4.500000179E-2,5.419050217E0,8.072999954E0
2.170843748E1,-3.079500198E-1,5.544000149E0,7.591950417E0
2.172843748E1,-9.000000358E-2,4.891050339E0,8.140049934E0
2.174843748E1,1.549500078E-1,4.246950150E0,8.644950867E0
2.176843748E1,-7.800000161E-2,4.054950237E0,8.982000351E0
2.178843748E1,3.300000131E-1,3.510000229E0,8.643000603E0
2.180843748E1,8.850000501E-1,3.109950066E0,7.686000347E0
2.182843748E1,6.580500603E-1,3.177000046E0,6.565950394E0
2.184843748E1,4.330500066E-1,3.385050058E0,5.887950420E0
2.186843748E1,4.590000212E-1,3.414000273E0,6.075000286E0
2.188843748E1,-1.450500041E-1,3.553050280E0,6.745050430E0
2.190843748E1,-5.929500461E-1,3.868950129E0,7.398000240E0
2.192843748E1,4.500000179E-2,3.664950132E0,7.882050514E0
2.194843748E1,6.619500518E-1,3.579000235E0,8.145000458E0
2.196843748E1,4.350000322E-1,3.889950275E0,8.095050812E0
2.198843748E1,3.105000220E-2,3.993000269E0,8.767050743E0
2.200843748E1,-3.919500113E-1,4.393050194E0,9.057000160E0
2.202843748E1,-4.609500170E-1,4.288050175E0,9.315000534E0
2.204843748E1,-6.720000505E-1,4.495950222E0,9.904050827E0
2.206843748E1,1.240500063E-1,4.192049980E0,1.177695084E1
2.208843748E1,5.740500093E-1,4.681950092E0,1.124895096E1
2.210843748E1,6.619500518E-1,4.422000408E0,9.601950645E0
2.212843748E1,3.060000241E-1,4.668000221E0,9.436950684E0
2.214843748E1,1.339500099E-1,4.792050362E0,1.036800003E1
2.216843748E1,7.390500307E-1,5.352000237E0,9.384000778E0
2.218843748E1,2.407050133E0,5.569950104E0,8.296050072E0
2.220843748E1,3.562950134E0,5.202000141E0,7.389000416E0
2.222843748E1,3.390000105E0,4.833000183E0,7.903050423E0
2.224843748E1,2.572050095E0,4.579950333E0,9.064050674E0
2.226843748E1,1.947000146E0,4.515000343E0,9.805950165E0
2.228843748E1,2.187000036E0,4.218000412E0,9.577950478E0
2.230843748E1,2.976000071E0,3.799050093E0,9.447000504E0
2.232843748E1,3.555000067E0,3.607950211E0,8.868000031E0
2.234843748E1,3.591000080E0,3.160950184E0,8.554050446E0
2.236843748E1,2.578950167E0,3.079050064E0,7.779000282E0
2.238843748E1,1.174050093E0,3.354000092E0,7.566000462E0
2.240843748E1,5.760000348E-1,3.322950125E0,7.582950592E0
2.242843748E1,5.310000181E-1,3.280050039E0,6.870000362E0
2.244843748E1,1.122000098E0,3.454950094E0,5.766000271E0
2.246843748E1,1.462050080E0,3.469050169E0,6.444000244E0
2.248843748E1,8.149500489E-1,3.715950251E0,5.812050343E0
2.250843748E1,3.559500277E-1,3.627000093E0,6.051000118E0
2.252843748E1,-4.519500136E-1,4.399950027E0,6.487050533E0
2.254843748E1,-1.054949999E0,4.714050293E0,6.910050392E0
2.256843748E1,-1.428000093E0,5.440950394E0,8.146950722E0
2.258843748E1,-7.939500213E-1,5.182950020E0,9.298050880E0
2.260843748E1,-3.559500277E-1,4.594050407E0,1.001895046E1
2.262843748E1,-1.717950106E0,5.862000465E0,9.753000259E0
2.264843748E1,-1.416000009E0,6.211050510E0,9.892050743E0
2.266843748E1,4.519500136E-1,5.227950096E0,9.093000412E0
2.268843748E1,-4.660500288E-1,5.416950226E0,8.632950783E0
2.270843748E1,-1.447050095E0,5.472000122E0,9.928050041E0
2.272843748E1,-1.890000105E0,4.882950306E0,1.098105049E1
2.274843748E1,-1.741950035E0,3.072000027E0,1.040895081E1
2.276843748E1,-1.255950093E0,1.722000122E0,1.027005005E1
2.278843748E1,-7.530000210E-1,1.750950098E0,1.067400074E1
2.280843748E1,-3.229500055E-1,1.966050148E0,1.142805099E1
2.282843748E1,9.640500546E-1,1.813050032E0,1.065300083E1
2.284843748E1,2.668050051E0,1.609950066E0,9.964050293E0
2.286843748E1,3.925950289E0,1.891950130E0,1.006200027E1
2.288843748E1,5.154000282E0,2.572050095E0,1.077705097E1
2.290843748E1,6.252000332E0,3.079050064E0,1.141800022E1
2.292843748E1,6.988950253E0,2.440050125E0,1.075995064E1
2.294843748E1,6.714000225E0,2.437950134E0,9.976050377E0
2.296843748E1,5.238000393E0,2.470950127E0,9.475050926E0
2.298843748E1,4.102950096E0,1.879950047E0,8.628000259E0
2.300843748E1,2.791950226E0,1.725000024E0,7.824000359E0
2.302843748E1,1.669950128E0,1.294050097E0,7.132950306E0
2.304843748E1,1.348950028E0,1.110000014E0,7.888950348E0
2.306843748E1,8.920500278E-1,1.347000122E0,7.468050480E0
2.308843748E1,0.000000000E0,1.579050064E0,5.143950462E0
2.310843748E1,-1.549950123E0,2.674950123E0,5.142000198E0
2.312843748E1,-2.565000057E0,3.357000113E0,6.154050350E0
2.314843748E1,-2.160000086E0,2.646000147E0,8.338950157E0
2.316843748E1,-8.440500498E-1,1.255950093E0,8.631000519E0
2.318843748E1,-6.619500518E-1,2.280000210E0,9.655050278E0
2.320843748E1,-7.150500417E-1,1.957050085E0,1.093695068E1
2.322843748E1,-1.408950090E0,2.019000053E0,1.181295013E1
2.324843748E1,-1.465950012E0,1.798950076E0,1.223700047E1
2.326843748E1,-5.359500051E-1,1.921050072E0,1.160295010E1
2.328843748E1,1.351050019E0,2.035950184E0,1.172505093E1
2.330843748E1,4.345050335E0,1.627050042E0,1.167195034E1
2.332843748E1,6.364950180E0,1.147950053E0,1.157595062E1
2.334843748E1,7.473000526E0,5.430000424E-1,1.105200100E1
2.336843748E1,6.739950180E0,4.710000157E-1,1.031805038E1
2.338843748E1,4.918950081E0,4.110000134E-1,9.741000175E0
2.340843748E1,3.559950113E0,2.580000162E-1,9.456000328E0
2.342843748E1,3.193950176E0,6.169500351E-1,1.006905079E1
2.344843748E1,4.111050129E0,7.030500174E-1,1.054995060E1
2.346843748E1,4.462050438E0,8.970000148E-1,1.014105034E1
2.348843748E1,3.445050240E0,1.648050070E0,8.887050629E0
2.350843748E1,2.233950138E0,2.400000095E0,7.887000561E0
2.352843748E1,1.597950101E0,2.586000204E0,6.679950237E0
2.354843748E1,7.579500079E-1,2.512050152E0,6.172950268E0
2.356843748E1,-5.239500403E-1,2.325000048E0,6.738000393E0
2.358843748E1,3.299999982E-2,2.179050207E0,7.024950504E0
2.360843748E1,5.569500327E-1,1.678950071E0,6.652050495E0
2.362843748E1,1.296000004E0,1.923000097E0,6.283050060E0
2.364843748E1,1.701000094E0,2.313000202E0,5.805000305E0
2.366843748E1,1.792050123E0,2.968950033E0,5.998950481E0
2.368843748E1,2.139000177E0,2.943000078E0,7.597050190E0
2.370843748E1,1.959000111E0,2.686950207E0,8.683050156E0
2.372843748E1,2.376000166E0,2.485950232E0,1.077495098E1
2.374843748E1,3.109950066E0,2.739000082E0,1.174905014E1
2.376843748E1,3.931050301E0,3.091050148E0,1.202895069E1
2.378843748E1,4.657950401E0,3.139050245E0,1.190895081E1
2.380843748E1,5.142000198E0,3.141000032E0,1.189005089E1
2.382843748E1,5.269050121E0,2.943000078E0,1.256700039E1
2.384843748E1,4.812000275E0,2.944950104E0,1.346895027E1
2.386843748E1,3.933000088E0,3.796950102E0,1.441395092E1
2.388843748E1,4.575000286E0,3.642000198E0,1.549605083E1
2.390843748E1,6.121050358E0,2.292000055E0,1.591995049E1
2.392843748E1,6.558000088E0,1.555050015E0,1.514400101E1
2.394843748E1,5.049000263E0,1.090950012E0,1.391205025E1
2.396843748E1,2.425950050E0,1.237050056E0,1.283700085E1
2.398843748E1,1.009050012E0,9.019500613E-1,1.284900093E1
2.400843748E1,9.930000305E-1,-5.505000427E-2,1.314405060E1
2.402843748E1,1.758000135E0,-1.099950075E0,1.336905098E1
2.404843748E1,2.187000036E0,-1.777050138E0,1.281795025E1
2.406843748E1,1.693950057E0,-1.990050077E0,1.146405029E1
2.408843748E1,9.450000525E-1,-1.780050039E0,9.090000153E0
2.410843748E1,6.550500393E-1,-1.378050089E0,6.892950535E0
2.412843748E1,7.270500064E-1,-8.350500464E-1,4.564949989E0
2.414843748E1,9.180000424E-1,-3.180000186E-1,3.175050259E0
2.416843748E1,9.730500579E-1,2.700000107E-1,2.577000141E0
2.418843748E1,8.680500388E-1,9.780000448E-1,2.433000088E0
2.420843748E1,8.539500237E-1,1.879950047E0,2.251049995E0
2.422843748E1,9.259500504E-1,3.022050142E0,1.782000065E0
2.424843748E1,9.210000634E-1,4.069950104E0,9.640500546E-1
2.426843748E1,1.608000040E0,4.453050137E0,1.110000014E0
2.428843748E1,1.453950047E0,5.116050243E0,2.269950151E0
2.430843748E1,1.106999993E0,6.031950474E0,3.948000193E0
2.432843748E1,7.369500399E-1,6.790950298E0,5.235000134E0
2.434843748E1,1.705950022E0,6.606000423E0,5.661000252E0
2.436843748E1,3.187050104E0,6.061050415E0,6.766950130E0
2.438843748E1,4.153950214E0,6.037050247E0,7.300050259E0
2.440843748E1,4.405050278E0,6.481950283E0,7.333950520E0
2.442843748E1,4.435950279E0,6.216000080E0,6.775950432E0
2.444843748E1,4.459950447E0,4.840050220E0,7.140000343E0
2.446843748E1,4.716000080E0,4.387950420E0,9.061050415E0
2.448843748E1,5.155950069E0,4.189050198E0,1.024800014E1
2.450843748E1,5.641950130E0,4.468950272E0,9.355950356E0
2.452843748E1,6.015000343E0,4.801950455E0,8.178000450E0
2.454843748E1,6.172950268E0,3.742050171E0,8.797950745E0
2.456843748E1,5.674950123E0,3.244050264E0,1.027200031E1
2.458843748E1,4.684950352E0,3.072000027E0,1.140195084E1
2.460843748E1,3.844950199E0,3.589050055E0,1.079205036E1
2.462843748E1,3.522000074E0,3.967050076E0,8.671050072E0
2.464843748E1,3.816000223E0,3.756000280E0,6.625050545E0
2.466843748E1,3.031050205E0,3.514950275E0,6.106050491E0
2.468843748E1,1.897050142E0,3.117000103E0,7.099050522E0
2.470843748E1,7.459500432E-1,3.034050226E0,7.864950180E0
2.472843748E1,2.805000171E-2,3.117000103E0,8.029950142E0
2.474843748E1,4.995000362E-2,3.121950150E0,8.358000755E0
2.476843748E1,6.460500360E-1,2.739000082E0,9.070950508E0
2.478843748E1,1.237050056E0,2.565000057E0,1.016505051E1
2.480843748E1,1.186050057E0,2.626950026E0,1.046100044E1
2.482843748E1,8.179500103E-1,2.968950033E0,1.000200081E1
2.484843748E1,9.589500427E-1,3.117000103E0,9.592950821E0
2.486843748E1,1.939950109E0,3.361950159E0,9.874950409E0
2.488843748E1,2.790000200E0,3.748950243E0,1.135095024E1
2.490843748E1,1.798950076E0,5.119950294E0,1.242600060E1
2.492843748E1,1.098000050E0,5.485950470E0,1.289505100E1
2.494843748E1,6.169500351E-1,5.146950245E0,1.405800056E1
2.496843748E1,5.190000534E-1,4.675050259E0,1.722600174E1
2.498843748E1,1.120500043E-1,4.543950081E0,1.965195084E1
2.500843748E1,-6.049500108E-1,4.687050343E0,2.000205040E1
2.502843748E1,1.099500060E-1,3.583950281E0,1.681005096E1
2.504843748E1,1.182000041E0,2.872950077E0,1.364400101E1
2.506843748E1,2.044950008E0,2.955000162E0,1.152405071E1
2.508843748E1,3.366000175E0,2.719950199E0,1.066005039E1
2.510843748E1,3.670050144E0,2.646000147E0,9.391950607E0
2.512843748E1,3.900000095E0,2.022000074E0,7.795950413E0
2.514843748E1,3.840000153E0,8.149500489E-1,7.177950382E0
2.516843748E1,2.992950201E0,-6.139500141E-1,8.737950325E0
2.518843748E1,2.284950018E0,-1.831950068E0,1.029105091E1
2.520843748E1,2.078999996E0,-2.536050081E0,1.075305080E1
2.522843748E1,3.165000200E0,-3.577050209E0,9.837000847E0
2.524843748E1,4.546050072E0,-4.189050198E0,8.833950043E0
2.526843748E1,4.879050255E0,-3.961950302E0,8.431950569E0
2.528843748E1,4.703999996E0,-3.417000055E0,7.161000252E0
2.530843748E1,5.053050041E0,-3.457050085E0,5.422050476E0
2.532843748E1,5.623050213E0,-3.271050215E0,4.089000225E0
2.534843748E1,5.458050251E0,-2.494950056E0,3.019050121E0
2.536843748E1,4.647000313E0,-1.548000097E0,2.731950045E0
2.538843748E1,4.405050278E0,-1.054949999E0,2.842050076E0
2.540843748E1,3.819000244E0,-5.239500403E-1,3.313950062E0
2.542843748E1,2.940000057E0,-1.450500041E-1,4.240050316E0
2.544843748E1,2.179050207E0,3.300000131E-1,5.154000282E0
2.546843748E1,1.585950017E0,1.488000035E0,6.417000294E0
2.548843748E1,1.095000029E0,3.229950190E0,6.574950218E0
2.550843748E1,1.591050029E0,4.182000160E0,5.436000347E0
2.552843748E1,2.440050125E0,5.146950245E0,3.634050131E0
2.554843748E1,2.826000214E0,6.187950134E0,2.572050095E0
2.556843748E1,2.347050190E0,6.322050095E0,3.322950125E0
2.558843748E1,2.388000011E0,5.428950310E0,5.896050453E0
2.560843748E1,2.626950026E0,6.001050472E0,7.449000359E0
2.562843748E1,3.321000099E0,5.965050220E0,7.341000557E0
2.564843748E1,4.101000309E0,4.962000370E0,7.006050110E0
2.566843748E1,4.174950123E0,4.371000290E0,7.663950443E0
2.568843748E1,4.369050026E0,4.351950169E0,9.078000069E0
2.570843748E1,5.259000301E0,4.233000278E0,1.062405014E1
2.572843748E1,5.404950142E0,4.012050152E0,1.055505085E1
2.574843748E1,4.117949963E0,4.165950298E0,9.786000252E0
2.576843748E1,2.806050062E0,4.423950195E0,9.282000542E0
2.578843748E1,2.869050026E0,4.551000118E0,9.205050468E0
2.580843748E1,3.651000261E0,3.843000174E0,9.873000145E0
2.582843748E1,3.627000093E0,3.394950151E0,1.040400028E1
2.584843748E1,3.354000092E0,3.046050072E0,1.053105068E1
2.586843748E1,3.160950184E0,2.790000200E0,1.110495090E1
2.588843748E1,3.091050148E0,2.560050011E0,1.156695080E1
2.590843748E1,3.052950144E0,2.586000204E0,1.201695061E1
2.592843748E1,3.133950233E0,2.557950020E0,1.181595039E1
2.594843748E1,3.213000059E0,2.835000038E0,1.208805084E1
2.596843748E1,3.028950214E0,3.318000078E0,1.113600063E1
2.598843748E1,3.570000172E0,3.808950186E0,1.021995068E1
2.600843748E1,4.255949974E0,3.969000101E0,1.000395012E1
2.602843748E1,4.516950130E0,4.041000366E0,9.775050163E0
2.604843748E1,4.435950279E0,4.282950401E0,1.007100010E1
2.606843748E1,4.468950272E0,3.991050243E0,1.046400070E1
2.608843748E1,4.009950161E0,4.102950096E0,1.140195084E1
2.610843748E1,3.510000229E0,3.703950167E0,1.142295074E1
2.612843748E1,3.309000254E0,3.475950241E0,1.237305069E1
2.614843748E1,3.096000195E0,2.698950052E0,1.244505024E1
2.616843748E1,2.065050125E0,2.170050144E0,1.141395092E1
2.618843748E1,7.270500064E-1,1.854000092E0,1.026705074E1
2.620843748E1,-2.989500165E-1,2.005050182E0,1.062900066E1
2.622843748E1,-1.134000063E0,3.015000105E0,1.034205055E1
2.624843748E1,-7.819500566E-1,3.505050182E0,1.065495014E1
2.626843748E1,1.530000120E-1,3.208050251E0,9.583050728E0
2.628843748E1,5.929500461E-1,3.181950092E0,8.166000366E0
2.630843748E1,2.939999998E-1,3.565050125E0,7.324050426E0
2.632843748E1,8.350500464E-1,3.325950146E0,6.678000450E0
2.634843748E1,1.464000106E0,2.554950237E0,6.037050247E0
2.636843748E1,1.354050040E0,2.502000093E0,6.444000244E0
2.638843748E1,8.350500464E-1,2.320950031E0,5.439000130E0
2.640843748E1,-9.930000305E-1,2.625000238E0,4.681950092E0
2.642843748E1,-3.079050064E0,3.796950102E0,4.642050266E0
2.644843748E1,-3.838050127E0,4.587000370E0,5.785950184E0
2.646843748E1,-3.145950079E0,4.906949997E0,7.573050499E0
2.648843748E1,-2.899950027E0,5.026950359E0,8.869950294E0
2.650843748E1,-2.995050192E0,4.881000042E0,9.049050331E0
2.652843748E1,-2.293950081E0,4.852050304E0,9.322050095E0
2.654843748E1,-2.055000067E0,5.083950043E0,9.315000534E0
2.656843748E1,-1.225050092E0,4.974000454E0,9.478050232E0
2.658843748E1,-2.460000068E-1,4.990950108E0,9.198000908E0
2.660843748E1,3.850500286E-1,4.764000416E0,8.497050285E0
2.662843748E1,6.030000448E-1,4.809000015E0,7.945950508E0
2.664843748E1,6.289500594E-1,4.905000210E0,8.512949944E0
2.666843748E1,9.210000634E-1,5.130000114E0,9.499050140E0
2.668843748E1,1.746000051E0,4.678050041E0,1.022700024E1
2.670843748E1,2.512050152E0,4.429050446E0,9.822000504E0
2.672843748E1,2.344950199E0,4.716000080E0,8.937000275E0
2.674843748E1,1.500000119E0,4.603050232E0,6.898050308E0
2.676843748E1,6.195000187E-2,4.986000061E0,5.496000290E0
2.678843748E1,-1.840500087E-1,5.577000141E0,5.494050026E0
2.680843748E1,1.182000041E0,5.530050278E0,7.309950352E0
2.682843748E1,2.320950031E0,4.978950024E0,8.643000603E0
2.684843748E1,2.111999989E0,4.696950436E0,8.752950668E0
2.686843748E1,1.126950026E0,4.587000370E0,7.915050507E0
2.688843748E1,-5.205000192E-2,4.639050007E0,6.972000122E0
2.690843748E1,-7.770000100E-1,4.588950157E0,6.199950218E0
2.692843748E1,-1.219950080E0,4.624950409E0,6.006000519E0
2.694843748E1,-1.111950040E0,4.534049988E0,6.357000351E0
2.696843748E1,-7.840500474E-1,4.467000008E0,7.189950466E0
2.698843748E1,-5.590500236E-1,4.339950085E0,7.984950542E0
2.700843748E1,-3.199500144E-1,4.144050121E0,7.578000546E0
2.702843748E1,-2.530499995E-1,4.369050026E0,7.240050316E0
2.704843748E1,-2.700000107E-1,4.647000313E0,6.673050404E0
2.706843748E1,-1.450500041E-1,4.753950119E0,7.150050163E0
2.708843748E1,1.360500008E-1,5.001000404E0,7.927050591E0
2.710843748E1,1.840500087E-1,5.094000340E0,9.148050308E0
2.712843748E1,-1.000500023E-1,5.130000114E0,1.009305000E1
2.714843748E1,-8.350500464E-1,5.488950253E0,1.071000004E1
2.716843748E1,-1.014000058E0,5.683050156E0,1.134405041E1
2.718843748E1,-4.879500270E-1,5.773950100E0,1.186605072E1
2.720843748E1,5.760000348E-1,5.965050220E0,1.266495037E1
2.722843748E1,1.215000033E0,5.953050137E0,1.249995041E1
2.724843748E1,1.129050016E0,5.329050064E0,1.131600094E1
2.726843748E1,1.380000114E-1,4.893000126E0,1.015005016E1
2.728843748E1,-8.490000367E-1,4.797000408E0,9.837000847E0
2.730843748E1,-1.078950047E0,4.335000038E0,9.786000252E0
2.732843748E1,-1.287000060E0,4.398000240E0,9.373050690E0
2.734843748E1,-1.004999995E0,4.630050182E0,8.986950874E0
2.736843748E1,-1.170000061E-1,4.993050098E0,8.965950012E0
2.738843748E1,9.520500302E-1,4.924050331E0,8.716950417E0
2.740843748E1,1.090950012E0,4.647000313E0,8.868000031E0
2.742843748E1,1.252950072E0,4.089000225E0,8.923050880E0
2.744843748E1,1.336950064E0,3.132000208E0,8.209950447E0
2.746843748E1,7.939500213E-1,2.694000244E0,7.147050381E0
2.748843748E1,8.100000024E-2,2.799000025E0,5.920050144E0
2.750843748E1,-5.689499974E-1,3.189000130E0,4.917000294E0
2.752843748E1,-7.600500584E-1,3.802050114E0,4.237050056E0
2.754843748E1,-5.640000105E-1,3.900000095E0,4.611000061E0
2.756843748E1,-4.830000103E-1,3.928950071E0,6.192000389E0
2.758843748E1,-6.720000505E-1,4.102950096E0,7.477050304E0
2.760843748E1,-6.700500250E-1,3.996000290E0,8.439000130E0
2.762843748E1,1.020000055E-1,4.192049980E0,9.016050339E0
2.764843748E1,8.710500598E-1,4.246950150E0,8.509050369E0
2.766843748E1,5.929500461E-1,4.603050232E0,7.903050423E0
2.768843748E1,3.109500110E-1,4.635000229E0,8.041950226E0
2.770843748E1,7.480500340E-1,4.495950222E0,9.133049965E0
2.772843748E1,1.500000119E0,4.338000298E0,1.006395054E1
2.774843748E1,1.318050027E0,4.291950226E0,1.063095093E1
2.776843748E1,6.190500259E-1,4.394999981E0,1.093995094E1
2.778843748E1,3.270000219E-1,3.931050301E0,1.181295013E1
2.780843748E1,2.680500150E-1,3.832950115E0,1.221795082E1
2.782843748E1,-7.095000148E-2,3.720000267E0,1.150695038E1
2.784843748E1,-8.560500145E-1,4.029000282E0,9.729000092E0
2.786843748E1,-1.105050087E0,4.359000206E0,8.224050522E0
2.788843748E1,-4.920000136E-1,4.359000206E0,8.736000061E0
2.790843748E1,3.420000076E-1,4.189050198E0,9.684000015E0
2.792843748E1,1.122000098E0,3.582000256E0,1.054500008E1
2.794843748E1,1.183950067E0,2.971050024E0,1.075305080E1
2.796843748E1,4.090500176E-1,2.952000141E0,1.021995068E1
2.798843748E1,-3.319500089E-1,3.187050104E0,9.078000069E0
2.800843748E1,-2.410500050E-1,3.157950163E0,7.669050217E0
2.802843748E1,-2.790000141E-1,3.385050058E0,6.147000313E0
2.804843748E1,-2.029500157E-1,3.498000145E0,5.692050457E0
2.806843748E1,-4.350000322E-1,3.720000267E0,6.184950352E0
2.808843748E1,-4.369500279E-1,3.700950146E0,7.413000584E0
2.810843748E1,-2.560500205E-1,3.484050274E0,8.001000404E0
2.812843748E1,-2.200500071E-1,3.526950121E0,8.214000702E0
2.814843748E1,-1.395000052E-2,3.486000061E0,8.169000626E0
2.816843748E1,-1.219500080E-1,3.364050150E0,8.071050644E0
2.818843748E1,-4.609500170E-1,3.418950081E0,8.764950752E0
2.820843748E1,-8.899500370E-1,3.964950085E0,9.580950737E0
2.822843748E1,-8.970000148E-1,4.345050335E0,1.049700069E1
2.824843748E1,-5.520000458E-1,4.623000145E0,1.157895088E1
2.826843748E1,-3.540000021E-1,4.857000351E0,1.202100086E1
2.828843748E1,7.095000148E-2,4.921950340E0,1.160295010E1
2.830843748E1,3.730500042E-1,4.929000378E0,1.108605099E1
2.832843748E1,2.700000107E-1,4.953000069E0,1.021500015E1
2.834843748E1,7.395000011E-2,4.728000164E0,9.633000374E0
2.836843748E1,4.050000105E-3,4.504950047E0,9.097050667E0
2.838843748E1,-4.590000212E-1,4.410000324E0,8.941950798E0
2.840843748E1,-8.250000477E-1,4.660950184E0,9.004050255E0
2.842843748E1,-6.340500116E-1,4.723050117E0,9.151950836E0
2.844843748E1,-7.095000148E-2,4.642050266E0,9.849000931E0
2.846843748E1,4.450500309E-1,4.249050140E0,9.829950333E0
2.848843748E1,6.649500132E-1,3.631950140E0,9.571050644E0
2.850843748E1,4.570500255E-1,3.160950184E0,9.028050423E0
2.852843748E1,2.029500157E-1,2.907000065E0,8.494050026E0
2.854843748E1,9.300000221E-2,2.806050062E0,7.561050415E0
2.856843748E1,2.220000178E-1,2.818050146E0,6.829050541E0
2.858843748E1,3.130500019E-1,2.848950148E0,7.267050266E0
2.860843748E1,4.305000231E-2,2.763000250E0,7.450950146E0
2.862843748E1,-5.430000424E-1,2.899950027E0,7.474950314E0
2.864843748E1,-8.370000124E-1,3.067050219E0,7.678050518E0
2.866843748E1,-2.869500220E-1,3.157950163E0,8.206950188E0
2.868843748E1,6.649500132E-1,3.273000240E0,8.422950745E0
2.870843748E1,1.189050078E0,3.418950081E0,8.164050102E0
2.872843748E1,1.387050033E0,3.579000235E0,8.237999916E0
2.874843748E1,1.492950082E0,3.847050190E0,8.595000267E0
2.876843748E1,1.444950104E0,4.069950104E0,9.121050835E0
2.878843748E1,1.390050054E0,4.302000046E0,9.772050858E0
2.880843748E1,1.249050021E0,4.668000221E0,1.006395054E1
2.882843748E1,1.308000088E0,4.879050255E0,9.943950653E0
2.884843748E1,1.693950057E0,4.893000126E0,9.363000870E0
2.886843748E1,2.146050215E0,5.038950443E0,9.301050186E0
2.888843748E1,2.638950109E0,4.693950176E0,9.358050346E0
2.890843748E1,2.625000238E0,4.156050205E0,9.760050774E0
2.892843748E1,2.473950148E0,3.526950121E0,1.049205017E1
2.894843748E1,2.574000120E0,3.211050034E0,1.106700039E1
2.896843748E1,2.313000202E0,2.883000135E0,1.092600060E1
2.898843748E1,1.677000046E0,2.836950064E0,1.023195076E1
2.900843748E1,9.349500537E-1,3.091050148E0,8.590050697E0
2.902843748E1,2.460000068E-1,3.397050142E0,7.153950214E0
2.904843748E1,-4.450500309E-1,3.807000160E0,6.058050156E0
2.906843748E1,-8.940000534E-1,4.270950317E0,5.496000290E0
2.908843748E1,-9.400500655E-1,4.692000389E0,5.854950428E0
2.910843748E1,-4.920000136E-1,4.776000023E0,6.468000412E0
2.912843748E1,-9.000000358E-2,4.471950054E0,7.096950531E0
2.914843748E1,5.505000427E-2,4.180050373E0,7.365000248E0
2.916843748E1,1.170000061E-1,3.864000082E0,7.578000546E0
2.918843748E1,-4.995000362E-2,3.952950239E0,8.072999954E0
2.920843748E1,-3.730500042E-1,4.105950356E0,8.656949997E0
2.922843748E1,-3.030000031E-1,4.450050354E0,9.093000412E0
2.924843748E1,3.559500277E-1,4.789950371E0,9.696000099E0
2.926843748E1,4.450500309E-1,5.416950226E0,1.016205025E1
2.928843748E1,7.050000131E-3,5.749950409E0,1.056195068E1
2.930843748E1,-1.140000075E-1,5.757000446E0,1.143495083E1
2.932843748E1,8.059500456E-1,5.379000187E0,1.263900089E1
2.934843748E1,1.407000065E0,4.905000210E0,1.324905109E1
2.936843748E1,8.659500480E-1,5.037000179E0,1.211700058E1
2.938843748E1,-3.010500073E-1,5.460000038E0,9.856050491E0
2.940843748E1,-5.590500236E-1,5.485950470E0,8.820000648E0
2.942843748E1,4.020000100E-1,4.725000381E0,1.013100052E1
2.944843748E1,1.189050078E0,3.754050255E0,1.135905075E1
2.946843748E1,8.299500346E-1,3.220050097E0,1.155705070E1
2.948843748E1,-4.279500246E-1,3.606000185E0,1.055205059E1
2.950843748E1,-9.829500318E-1,4.077000141E0,8.848050117E0
2.952843748E1,-7.369500399E-1,3.943050146E0,6.726000309E0
2.954843748E1,1.530000120E-1,3.688950062E0,5.395950317E0
2.956843748E1,1.153050065E0,3.204000235E0,6.412050247E0
2.958843748E1,1.159950018E0,3.165000200E0,7.633050442E0
2.960843748E1,9.829500318E-1,2.683950186E0,8.109000206E0
2.962843748E1,3.370500207E-1,2.608050108E0,7.066050529E0
2.964843748E1,-7.840500474E-1,3.117000103E0,5.347950459E0
2.966843748E1,-1.402050018E0,3.631950140E0,5.899950504E0
2.968843748E1,-1.465950012E0,4.168050289E0,5.098950386E0
2.970843748E1,-3.229500055E-1,3.874050140E0,5.874000072E0
2.972843748E1,-3.109500110E-1,4.270950317E0,7.129950523E0
2.974843748E1,-2.269500047E-1,4.245000362E0,9.243000031E0
2.976843748E1,3.820500076E-1,4.394999981E0,1.049505043E1
2.978843748E1,5.400000215E-1,4.560000420E0,1.067205048E1
2.980843748E1,2.290500104E-1,4.732950211E0,9.882000923E0
2.982843748E1,-2.440500110E-1,4.725000381E0,9.010950089E0
2.984843748E1,1.789500117E-1,4.795050144E0,8.580000877E0
2.986843748E1,7.939500213E-1,4.888050079E0,8.206950188E0
2.988843748E1,7.680000067E-1,4.936050415E0,8.920050621E0
2.990843748E1,3.010500073E-1,5.044050217E0,9.874950409E0
2.992843748E1,-1.000500023E-1,5.092050076E0,1.103100014E1
2.994843748E1,-3.750000298E-1,5.263950348E0,1.118895054E1
2.996843748E1,-3.180000186E-1,5.472000122E0,1.012200069E1
2.998843748E1,1.930500120E-1,5.329050064E0,9.664050102E0
3.000843748E1,6.049500108E-1,5.010000229E0,1.019295025E1
3.002843748E1,9.829500318E-1,4.315950394E0,1.085400009E1
3.004843748E1,1.117050052E0,3.880950212E0,1.038705063E1
3.006843748E1,9.570000172E-1,3.712950230E0,8.569050789E0
3.008843748E1,5.500500202E-1,4.048050404E0,7.176000118E0
3.010843748E1,2.599500120E-1,4.285050392E0,6.514950275E0
3.012843748E1,4.780500233E-1,4.375950336E0,6.751950264E0
3.014843748E1,8.350500464E-1,4.156050205E0,6.733050346E0
3.016843748E1,3.229500055E-1,4.351950169E0,6.634950161E0
3.018843748E1,-1.069500074E-1,4.657950401E0,6.352950096E0
3.020843748E1,-1.260000020E-1,4.723050117E0,5.778000355E0
3.022843748E1,-1.095000096E-2,5.094000340E0,5.416950226E0
3.024843748E1,3.319500089E-1,5.131950378E0,5.613000393E0
3.026843748E1,5.279999971E-1,5.025000095E0,6.403050423E0
3.028843748E1,4.639500082E-1,4.869000435E0,7.429050446E0
3.030843748E1,1.530000120E-1,4.989000320E0,8.059050560E0
3.032843748E1,-6.240000129E-1,5.854950428E0,8.527950287E0
3.034843748E1,-8.899500370E-1,6.432000160E0,9.600000381E0
3.036843748E1,3.495000303E-2,6.529950142E0,1.162200069E1
3.038843748E1,7.680000067E-1,6.541950226E0,1.246395016E1
3.040843748E1,9.690000415E-1,6.385950089E0,1.200705051E1
3.042843748E1,-2.595000155E-2,6.568050385E0,1.011705017E1
3.044843748E1,-9.610500336E-1,6.343050480E0,9.118950844E0
3.046843748E1,-1.380000114E0,6.298050404E0,9.478050232E0
3.048843748E1,-1.086000085E0,5.695050240E0,1.085595036E1
3.050843748E1,-1.251000047E0,5.344950199E0,1.085895061E1
3.052843748E1,-1.999950051E0,5.530050278E0,9.742950439E0
3.054843748E1,-2.078999996E0,5.520000458E0,8.868000031E0
3.056843748E1,-1.782000065E0,5.239950180E0,8.881950378E0
3.058843748E1,-1.081050038E0,4.467000008E0,9.151950836E0
3.060843748E1,-6.670500040E-1,3.715950251E0,8.740950584E0
3.062843748E1,-6.310500503E-1,3.342000246E0,7.948950291E0
3.064843748E1,-5.190000534E-1,3.163050175E0,6.247050285E0
3.066843748E1,-5.710500479E-1,3.381000042E0,4.210950375E0
3.068843748E1,-9.259500504E-1,3.772950172E0,2.731950045E0
3.070843748E1,-1.258050084E0,4.117949963E0,2.827950239E0
3.072843748E1,-1.141050100E0,4.443000317E0,4.264050007E0
3.074843748E1,-8.629500270E-1,4.666050434E0,5.167950153E0
3.076843748E1,-4.879500270E-1,4.986000061E0,5.782950401E0
3.078843748E1,-5.689499974E-1,5.287950039E0,6.895950317E0
3.080843748E1,-6.340500116E-1,5.641950130E0,8.083050728E0
3.082843748E1,-4.060500264E-1,5.592000484E0,8.503950119E0
3.084843748E1,-2.290500104E-1,5.850000381E0,8.926950455E0
3.086843748E1,1.480500102E-1,5.866950512E0,9.298050880E0
3.088843748E1,3.300000131E-1,5.929050446E0,9.562050819E0
3.090843748E1,4.519500136E-1,5.652000427E0,9.777000427E0
3.092843748E1,2.050500065E-1,5.625000477E0,9.648000717E0
3.094843748E1,-1.810500026E-1,5.701950073E0,9.468000412E0
3.096843748E1,-2.239500135E-1,5.860050201E0,1.002105045E1
3.098843748E1,3.300000131E-1,5.806950092E0,1.062195015E1
3.100843748E1,4.759500325E-1,5.722950459E0,9.552000046E0
3.102843748E1,-1.905000024E-2,6.010050297E0,8.226000786E0
3.104843748E1,-4.300500154E-1,6.034050465E0,8.037000656E0
3.106843748E1,1.450500041E-1,5.587050438E0,9.009000778E0
3.108843748E1,9.229500294E-1,4.960050106E0,1.063605022E1
3.110843748E1,1.371000051E0,4.350000381E0,1.077705097E1
3.112843748E1,8.710500598E-1,4.291950226E0,9.115950584E0
3.114843748E1,2.680500150E-1,4.531949997E0,7.579950333E0
3.116843748E1,1.380000114E-1,4.528950214E0,6.439050198E0
3.118843748E1,-1.570500135E-1,4.546050072E0,6.211050510E0
3.120843748E1,-1.690500081E-1,4.435950279E0,6.673050404E0
3.122843748E1,6.499500275E-1,4.276050091E0,7.317000389E0
3.124843748E1,1.459050059E0,4.156050205E0,7.066050529E0
3.126843748E1,8.350500464E-1,4.359000206E0,6.457950115E0
3.128843748E1,-1.360500008E-1,4.741950035E0,5.131950378E0
3.130843748E1,-1.789500117E-1,4.861950397E0,4.740000248E0
3.132843748E1,5.089499950E-1,4.894950390E0,5.380950451E0
3.134843748E1,1.081050038E0,5.326050282E0,6.400950432E0
3.136843748E1,1.198050022E0,5.728050232E0,7.582950592E0
3.138843748E1,1.324950099E0,6.127950191E0,8.044050217E0
3.140843748E1,1.344000101E0,6.637050152E0,8.616000175E0
3.142843748E1,1.543050051E0,6.730950356E0,1.024800014E1
3.144843748E1,1.906950116E0,6.537000179E0,1.140600014E1
3.146843748E1,2.227050066E0,6.312000275E0,1.183500099E1
3.148843748E1,2.284950018E0,6.007950306E0,1.075605011E1
3.150843748E1,2.071950197E0,5.548950195E0,9.673950195E0
3.152843748E1,1.987950087E0,5.238000393E0,1.029900074E1
3.154843748E1,2.388000011E0,3.976950169E0,1.262205029E1
3.156843748E1,1.962000132E0,3.229950190E0,1.252200031E1
3.158843748E1,5.710500479E-1,3.441000223E0,1.068900013E1
3.160843748E1,4.995000362E-2,4.045950413E0,9.258000374E0
3.162843748E1,7.270500064E-1,4.417050362E0,8.233050346E0
3.164843748E1,1.536000013E0,4.666050434E0,7.662000179E0
3.166843748E1,1.710000038E0,4.711050034E0,7.345950127E0
3.168843748E1,1.477950096E0,4.012050152E0,7.059000492E0
3.170843748E1,7.170000076E-1,3.445050240E0,7.219050407E0
3.172843748E1,-2.749500275E-1,3.406950235E0,7.357950211E0
3.174843748E1,-9.520500302E-1,3.771000147E0,7.224000454E0
3.176843748E1,-7.870500088E-1,3.676950216E0,6.487050533E0
3.178843748E1,-2.890500128E-1,3.718050241E0,6.960000515E0
3.180843748E1,-3.580500185E-1,4.366950035E0,7.354950428E0
3.182843748E1,-3.030000031E-1,4.273050308E0,6.886050224E0
3.184843748E1,-8.110500574E-1,4.326000214E0,6.226050377E0
3.186843748E1,-1.363050103E0,4.318950176E0,6.118050098E0
3.188843748E1,-1.533000112E0,4.864050388E0,7.954050541E0
3.190843748E1,-1.342050076E0,5.314050198E0,9.195000648E0
3.192843748E1,-1.004999995E0,5.635050297E0,9.162000656E0
3.194843748E1,-8.800500631E-1,5.830950260E0,8.427000046E0
3.196843748E1,-1.072050095E0,6.276000500E0,8.383950233E0
3.198843748E1,-9.589500427E-1,6.637050152E0,7.996950150E0
3.200843748E1,-5.590500236E-1,6.972000122E0,8.025000572E0
3.202843748E1,-2.989500165E-1,6.925050259E0,8.974950790E0
3.204843748E1,1.189500093E-1,7.083000183E0,1.062195015E1
3.206843748E1,1.240950108E0,5.881050110E0,1.093305016E1
3.208843748E1,1.678950071E0,4.924050331E0,1.105200100E1
3.210843748E1,1.906950116E0,4.504950047E0,1.102095032E1
3.212843748E1,2.340000153E0,3.364050150E0,1.276995087E1
3.214843748E1,2.218050003E0,2.887950182E0,1.285200024E1
3.216843748E1,1.641000032E0,2.803950071E0,1.174395084E1
3.218843748E1,1.294050097E0,3.139050245E0,1.006395054E1
3.220843748E1,1.432950020E0,3.259050131E0,9.211950302E0
3.222843748E1,1.894950032E0,3.517050266E0,8.056050301E0
3.224843748E1,2.059950113E0,3.921000242E0,6.835950375E0
3.226843748E1,2.035950184E0,3.876000166E0,6.250050068E0
3.228843748E1,1.698000073E0,3.751950264E0,6.055950165E0
3.230843748E1,1.939950109E0,3.775950193E0,6.324000359E0
3.232843748E1,2.275050163E0,3.664950132E0,6.250050068E0
3.234843748E1,1.858950138E0,3.514950275E0,5.250000477E0
3.236843748E1,5.670000315E-1,3.972000122E0,3.850050211E0
3.238843748E1,-6.739500165E-1,4.744950294E0,3.213000059E0
3.240843748E1,-8.419500589E-1,5.187000275E0,4.756950378E0
3.242843748E1,-2.680500150E-1,5.356950283E0,6.610950470E0
3.244843748E1,-3.799500167E-1,5.512950420E0,8.614050865E0
3.246843748E1,-1.129050016E0,5.898000240E0,1.013295078E1
3.248843748E1,-1.207950115E0,5.971950054E0,1.096605015E1
3.250843748E1,-3.700500131E-1,5.991000175E0,1.145205021E1
3.252843748E1,6.360000372E-1,5.836050510E0,1.068105030E1
3.254843748E1,1.390050054E0,5.613000393E0,9.550050735E0
3.256843748E1,1.453950047E0,5.802000046E0,9.516000748E0
3.258843748E1,1.438050032E0,5.764050484E0,9.334050179E0
3.260843748E1,9.949500561E-1,5.958000183E0,8.722050667E0
3.262843748E1,7.870500088E-1,5.745000362E0,9.018000603E0
3.264843748E1,1.411050081E0,5.392950058E0,1.082295036E1
3.266843748E1,2.200950146E0,4.660950184E0,1.246200085E1
3.268843748E1,2.256000042E0,3.949950218E0,1.249305058E1
3.270843748E1,1.030950069E0,4.375950336E0,1.146600056E1
3.272843748E1,8.299500346E-1,4.792050362E0,9.559050560E0
3.274843748E1,2.056950092E0,4.837950230E0,8.736000061E0
3.276843748E1,3.003000259E0,4.536000252E0,9.279000282E0
3.278843748E1,3.168000221E0,3.921000242E0,9.235950470E0
3.280843748E1,2.928000212E0,3.247050047E0,8.971050262E0
3.282843748E1,2.445000172E0,2.890050173E0,8.407950401E0
3.284843748E1,1.426050067E0,2.988000154E0,7.294950485E0
3.286843748E1,4.849500358E-1,3.216000080E0,6.175950527E0
3.288843748E1,-1.500000060E-1,3.673050165E0,4.996050358E0
3.290843748E1,-5.569500327E-1,3.961950302E0,3.933000088E0
3.292843748E1,-1.006950021E0,4.426050186E0,4.084050179E0
3.294843748E1,-6.670500040E-1,4.789950371E0,5.644050121E0
3.296843748E1,-3.439500034E-1,4.897950172E0,7.450950146E0
3.298843748E1,7.800000161E-2,5.104050159E0,7.779000282E0
3.300843748E1,5.910000205E-1,4.816050053E0,7.566000462E0
3.302843748E1,1.039950013E0,5.199000359E0,6.582000256E0
3.304843748E1,1.206000090E0,5.101050377E0,6.622950077E0
3.306843748E1,1.911000133E0,4.270950317E0,8.001000404E0
3.308843748E1,2.845050097E0,3.289950132E0,8.664000511E0
3.310843748E1,1.744050026E0,3.334950209E0,8.671050072E0
3.312843748E1,0.000000000E0,4.636950016E0,8.551950455E0
3.314843748E1,-9.090000391E-1,5.434050083E0,8.422950745E0
3.316843748E1,-3.300000131E-1,5.323950291E0,8.644950867E0
3.318843748E1,2.650500238E-1,5.050950050E0,8.841000557E0
3.320843748E1,8.370000124E-1,3.862050295E0,8.607000351E0
3.322843748E1,-1.650000066E-1,3.856950283E0,8.005949974E0
3.324843748E1,-1.282050014E0,4.108050346E0,8.149950027E0
3.326843748E1,-1.239000082E0,4.338000298E0,8.899050713E0
3.328843748E1,-8.389500380E-1,3.976950169E0,1.006395054E1
3.330843748E1,-2.959500253E-1,3.151050091E0,1.093305016E1
3.332843748E1,-3.490500152E-1,2.869050026E0,1.128705025E1
3.334843748E1,-1.260000020E-1,2.799000025E0,1.042500019E1
3.336843748E1,5.700000376E-2,2.848950148E0,9.943950653E0
3.338843748E1,-5.140500069E-1,2.803950071E0,9.243000031E0
3.340843748E1,-7.530000210E-1,2.980950117E0,9.439949989E0
3.342843748E1,-5.640000105E-1,2.340000153E0,9.676050186E0
3.344843748E1,-5.879999995E-1,2.124000072E0,9.376950264E0
3.346843748E1,-9.760500193E-1,2.059950113E0,9.892050743E0
3.348843748E1,-5.470499992E-1,2.179050207E0,1.043505096E1
3.350843748E1,-8.295000345E-2,2.412000179E0,1.061400032E1
3.352843748E1,-9.000000544E-3,2.809050083E0,1.005195045E1
3.354843748E1,5.740500093E-1,2.763000250E0,8.917950630E0
3.356843748E1,-1.570500135E-1,4.137000084E0,8.620950699E0
3.358843748E1,4.995000362E-2,3.973950148E0,8.077950478E0
3.360843748E1,2.340000123E-1,4.797000408E0,8.899050713E0
3.362843748E1,1.344000101E0,4.660950184E0,8.029950142E0
3.364843748E1,1.954950094E0,4.273050308E0,8.511000633E0
3.366843748E1,1.512000084E0,4.066950321E0,1.048005009E1
3.368843748E1,1.765050054E0,3.567000151E0,1.223700047E1
3.370843748E1,2.457000017E0,3.687000275E0,1.340205097E1
3.372843748E1,2.446950197E0,3.285000086E0,1.430895042E1
3.374843748E1,1.890000105E0,3.322950125E0,1.410300064E1
3.376843748E1,2.134050131E0,2.866050243E0,1.329195023E1
3.378843748E1,3.228000164E0,3.342000246E0,1.214595032E1
3.380843748E1,3.840000153E0,3.304050207E0,1.030305004E1
3.382843748E1,3.405000210E0,3.472050190E0,9.595050812E0
3.384843748E1,3.169950247E0,3.429000139E0,9.163949966E0
3.386843748E1,3.187050104E0,3.510000229E0,7.992000580E0
3.388843748E1,2.725050211E0,3.591000080E0,6.343050480E0
3.390843748E1,1.584000111E0,3.931050301E0,5.082000256E0
3.392843748E1,1.273050070E0,3.883050203E0,4.836000443E0
3.394843748E1,1.843950033E0,3.543000221E0,5.581950188E0
3.396843748E1,1.957050085E0,3.015000105E0,6.891000271E0
3.398843748E1,2.232000113E0,2.694000244E0,8.122950554E0
3.400843748E1,1.945050120E0,3.072000027E0,7.413000584E0
3.402843748E1,1.162050009E0,3.610050201E0,6.582000256E0
3.404843748E1,-7.095000148E-2,4.240050316E0,5.797950268E0
3.406843748E1,-4.249500334E-1,4.387950420E0,5.154000282E0
3.408843748E1,-6.259500384E-1,4.843050003E0,4.828050137E0
3.410843748E1,-6.979500055E-1,5.532000065E0,4.804050446E0
3.412843748E1,-2.290500104E-1,6.055950165E0,5.709000111E0
3.414843748E1,5.950500369E-1,5.707050323E0,7.104000568E0
3.416843748E1,-2.050500065E-1,6.067950249E0,7.944000244E0
3.418843748E1,-1.621950030E0,6.415050507E0,7.111050129E0
3.420843748E1,-1.450500041E-1,6.030000210E0,8.347949982E0
3.422843748E1,1.186050057E0,6.106050491E0,7.771950245E0
3.424843748E1,7.320000529E-1,6.730950356E0,7.975050449E0
3.426843748E1,4.350000322E-1,6.511050224E0,9.568950653E0
3.428843748E1,2.910000086E-1,6.127950191E0,1.099005032E1
3.430843748E1,-9.300000221E-2,6.408000469E0,1.241400051E1
3.432843748E1,-2.770500183E-1,5.704050064E0,1.154295063E1
3.434843748E1,-4.879500270E-1,5.512950420E0,1.138500023E1
3.436843748E1,-2.680500150E-1,5.412000179E0,1.068600082E1
3.438843748E1,-3.660000265E-1,5.923950195E0,1.093995094E1
3.440843748E1,2.530499995E-1,5.608050346E0,1.020300007E1
3.442843748E1,1.261050105E0,4.654050350E0,9.138000488E0
3.444843748E1,1.239000082E0,4.471950054E0,7.195050240E0
3.446843748E1,8.680500388E-1,4.900050163E0,5.758950233E0
3.448843748E1,6.460500360E-1,5.149050236E0,4.588950157E0
3.450843748E1,4.279500246E-1,5.125050068E0,4.465050220E0
3.452843748E1,3.319500089E-1,4.771050453E0,5.113050461E0
3.454843748E1,3.580500185E-1,4.434000015E0,5.367000103E0
3.456843748E1,2.440500110E-1,4.524000168E0,5.805000305E0
3.458843748E1,-6.900000572E-2,4.824000359E0,6.433950424E0
3.460843748E1,-2.910000086E-1,5.142000198E0,6.645000458E0
3.462843748E1,-2.959500253E-1,5.544000149E0,6.328950405E0
3.464843748E1,-2.770500183E-1,5.653950214E0,5.778000355E0
3.466843748E1,-4.900500178E-1,5.716050148E0,5.716050148E0
3.468843748E1,-1.033050060E0,6.043950081E0,6.420000076E0
3.470843748E1,-1.332000017E0,6.384000301E0,7.413000584E0
3.472843748E1,-1.552050114E0,5.946000099E0,7.699950218E0
3.474843748E1,-1.750950098E0,7.366950512E0,1.050405025E1
3.476843748E1,2.100000083E-1,6.477000237E0,1.124595070E1
3.478843748E1,1.078950047E0,5.503050327E0,1.069095039E1
3.480843748E1,-7.920000553E-1,6.546000481E0,9.978000641E0
3.482843748E1,-1.906950116E0,7.456050396E0,9.418050766E0
3.484843748E1,-1.639050126E0,7.485000134E0,9.664050102E0
3.486843748E1,-7.339500189E-1,6.439050198E0,9.919950485E0
3.488843748E1,-4.050000105E-3,5.137050152E0,9.910950661E0
3.490843748E1,-8.970000148E-1,5.415000439E0,1.020495033E1
3.492843748E1,-1.111950040E0,5.769000053E0,9.387000084E0
3.494843748E1,-6.100500226E-1,5.484000206E0,8.269050598E0
3.496843748E1,-1.429500133E-1,5.197050095E0,7.795950413E0
3.498843748E1,2.530499995E-1,4.534049988E0,7.669050217E0
3.500843748E1,4.999500215E-1,4.015050411E0,7.654050350E0
3.502843748E1,2.149500102E-1,3.876000166E0,7.233000278E0
3.504843748E1,-3.079500198E-1,3.856950283E0,6.682950497E0
3.506843748E1,-9.709500670E-1,3.991050243E0,6.042000294E0
3.508843748E1,-1.237050056E0,4.144050121E0,5.508000374E0
3.510843748E1,-1.324950099E0,4.431000233E0,5.211000443E0
3.512843748E1,-1.303950071E0,4.780950069E0,5.404950142E0
3.514843748E1,-1.090950012E0,5.218050480E0,6.271050453E0
3.516843748E1,-1.060050011E0,5.764050484E0,6.862050533E0
3.518843748E1,-1.099950075E0,6.007950306E0,7.927050591E0
3.520843748E1,-7.990500331E-1,5.910000324E0,9.331950188E0
3.522843748E1,-4.369500279E-1,5.886000156E0,9.552000046E0
3.524843748E1,-1.890000105E-1,6.429000378E0,8.877000809E0
3.526843748E1,2.939999998E-1,6.915000439E0,7.744950294E0
3.528843748E1,7.339500189E-1,7.039050102E0,6.799950123E0
3.530843748E1,5.550000072E-1,7.269000530E0,6.301950455E0
3.532843748E1,4.920000136E-1,7.060950279E0,7.336050510E0
3.534843748E1,6.720000505E-1,6.802950382E0,8.546999931E0
3.536843748E1,7.819500566E-1,6.328950405E0,9.679050446E0
3.538843748E1,5.710500479E-1,5.722950459E0,9.648000717E0
3.540843748E1,1.069500074E-1,5.794950485E0,8.784000397E0
3.542843748E1,-1.020000055E-1,5.797950268E0,8.458050728E0
3.544843748E1,5.449500084E-1,5.343000412E0,1.000695038E1
3.546843748E1,1.462050080E0,4.294950008E0,1.097805023E1
3.548843748E1,1.666950107E0,3.562950134E0,1.098105049E1
3.550843748E1,1.320000052E0,3.625050068E0,1.003995037E1
3.552843748E1,8.899500370E-1,3.847050190E0,8.692950249E0
3.554843748E1,3.970500231E-1,3.937950134E0,6.709050179E0
3.556843748E1,6.979500055E-1,3.772950172E0,6.030000210E0
3.558843748E1,1.018950105E0,3.655950069E0,6.499050140E0
3.560843748E1,1.372950077E0,3.784950256E0,6.859950542E0
3.562843748E1,1.629000068E0,3.967050076E0,6.879000187E0
3.564843748E1,1.648050070E0,3.976950169E0,6.493950367E0
3.566843748E1,9.760500193E-1,4.041000366E0,6.061050415E0
3.568843748E1,2.440500110E-1,4.333050251E0,6.106050491E0
3.570843748E1,-4.695000127E-2,4.582050323E0,6.192000389E0
3.572843748E1,3.299999982E-2,4.204050064E0,8.454000473E0
3.574843748E1,-3.370500207E-1,5.044050217E0,9.952050209E0
3.576843748E1,1.530000120E-1,4.663050175E0,1.021695042E1
3.578843748E1,2.530499995E-1,4.606050014E0,1.089195061E1
3.580843748E1,-2.100000083E-1,5.130000114E0,1.161705017E1
3.582843748E1,2.680500150E-1,5.698950291E0,1.112895012E1
3.584843748E1,7.699500322E-1,5.541000366E0,9.870000839E0
3.586843748E1,5.505000427E-2,5.770950317E0,9.640950203E0
3.588843748E1,-6.769500375E-1,5.902950287E0,1.021695042E1
3.590843748E1,-6.889500618E-1,5.946000099E0,1.086300087E1
3.592843748E1,-2.100000083E-1,5.836050510E0,1.080300045E1
3.594843748E1,3.079500198E-1,5.518050194E0,9.672000885E0
3.596843748E1,-5.140500069E-1,5.707050323E0,9.198000908E0
3.598843748E1,-1.195950031E0,6.043950081E0,9.205050468E0
3.600843748E1,-9.180000424E-1,5.958000183E0,9.327000618E0
3.602843748E1,-5.740500093E-1,5.524950027E0,9.517950058E0
3.604843748E1,-5.089499950E-1,4.924050331E0,8.827050209E0
3.606843748E1,-6.195000187E-2,4.138950348E0,7.645050526E0
3.608843748E1,-6.430500150E-1,4.234950066E0,6.685050488E0
3.610843748E1,-6.979500055E-1,4.266000271E0,5.761950493E0
3.612843748E1,3.495000303E-2,3.979050159E0,4.941000462E0
3.614843748E1,7.395000011E-2,3.969000101E0,4.705950260E0
3.616843748E1,-7.870500088E-1,4.468950272E0,4.759050369E0
3.618843748E1,-8.779500127E-1,4.948050022E0,4.089000225E0
3.620843748E1,-1.045050025E0,5.640000343E0,4.563000202E0
3.622843748E1,-8.730000257E-1,6.490950108E0,5.323950291E0
3.624843748E1,-2.805000171E-2,6.405000210E0,6.397950172E0
3.626843748E1,3.660000265E-1,6.453000069E0,7.195050240E0
3.628843748E1,4.830000103E-1,6.831000328E0,7.209000111E0
3.630843748E1,3.919500113E-1,7.389000416E0,7.327050209E0
3.632843748E1,5.449500084E-1,7.477050304E0,7.390950203E0
3.634843748E1,6.379500031E-1,7.887000561E0,7.812000275E0
3.636843748E1,1.117050052E0,7.657050133E0,8.011050224E0
3.638843748E1,1.027950048E0,7.465050220E0,7.968000412E0
3.640843748E1,6.720000505E-1,7.315050125E0,8.347949982E0
3.642843748E1,6.859500408E-1,7.236000538E0,8.877000809E0
3.644843748E1,1.159950018E0,6.688050270E0,9.565950394E0
3.646843748E1,1.485000014E0,5.869050503E0,9.601950645E0
3.648843748E1,9.850500226E-1,5.989050388E0,9.328950882E0
3.650843748E1,6.859500408E-1,6.039000511E0,8.973000526E0
3.652843748E1,9.829500318E-1,5.599050045E0,8.527950287E0
3.654843748E1,1.417950034E0,5.155950069E0,8.200050354E0
3.656843748E1,1.576050043E0,4.740000248E0,8.185950279E0
3.658843748E1,1.708050132E0,4.539000034E0,8.521050453E0
3.660843748E1,1.612050056E0,4.804050446E0,8.533050537E0
3.662843748E1,1.366050124E0,5.116050243E0,8.128050804E0
3.664843748E1,9.520500302E-1,5.017050266E0,7.257000446E0
3.666843748E1,3.079500198E-1,5.101050377E0,6.465000153E0
3.668843748E1,-2.650500238E-1,5.271000385E0,5.923950195E0
3.670843748E1,-1.309500039E-1,5.247000217E0,5.275950432E0
3.672843748E1,3.130500019E-1,5.182950020E0,4.594050407E0
3.674843748E1,5.830500126E-1,5.295000076E0,4.072050095E0
3.676843748E1,6.030000448E-1,5.692050457E0,4.063050270E0
3.678843748E1,5.830500126E-1,6.082050323E0,4.333050251E0
3.680843748E1,6.190500259E-1,6.195000172E0,5.110950470E0
3.682843748E1,4.350000322E-1,6.334050179E0,5.970000267E0
3.684843748E1,2.359500080E-1,6.604050159E0,6.664050102E0
3.686843748E1,6.220500469E-1,6.955950260E0,6.915000439E0
3.688843748E1,1.323000073E0,7.114050388E0,7.369950294E0
3.690843748E1,1.720050097E0,7.048950195E0,7.762050152E0
3.692843748E1,1.758000135E0,7.480050564E0,8.877000809E0
3.694843748E1,1.861050129E0,7.185000420E0,9.496950150E0
3.696843748E1,1.533000112E0,6.886050224E0,9.424950600E0
3.698843748E1,4.950000346E-1,6.874050140E0,9.105000496E0
3.700843748E1,-4.849500358E-1,6.634950161E0,8.941950798E0
3.702843748E1,-1.408950090E0,7.092000484E0,9.874950409E0
3.704843748E1,-1.179000020E0,6.931950092E0,1.142595100E1
3.706843748E1,2.170500159E-1,5.556000233E0,1.180605030E1
3.708843748E1,2.410500050E-1,5.496000290E0,1.063605022E1
3.710843748E1,-3.439500034E-1,6.264000416E0,9.753000259E0
3.712843748E1,-3.079500198E-1,6.690000534E0,8.994000435E0
3.714843748E1,4.230000079E-1,6.412050247E0,8.346000671E0
3.716843748E1,1.114950061E0,5.656050205E0,8.281050682E0
3.718843748E1,1.485000014E0,4.765950203E0,8.374950409E0
3.720843748E1,1.666950107E0,4.101000309E0,7.633050442E0
3.722843748E1,1.497000098E0,3.546000242E0,6.456000328E0
3.724843748E1,1.042950034E0,3.651000261E0,5.233050346E0
3.726843748E1,3.150000274E-1,3.723000288E0,4.282950401E0
3.728843748E1,2.010000050E-1,4.041000366E0,4.501049995E0
3.730843748E1,-6.900000572E-2,4.351950169E0,4.077000141E0
3.732843748E1,-3.349500299E-1,4.228050232E0,4.012050152E0
3.734843748E1,-1.492950082E0,5.008050442E0,5.379000187E0
3.736843748E1,-2.280000210E0,6.223050117E0,6.336000443E0
3.738843748E1,-2.077050209E0,7.042050362E0,7.080000401E0
3.740843748E1,-1.828050137E0,7.111050129E0,8.659049988E0
3.742843748E1,-1.456950068E0,7.083000183E0,9.042000771E0
3.744843748E1,-5.209500194E-1,6.994050503E0,9.253050804E0
3.746843748E1,6.030000448E-1,6.298050404E0,8.761950493E0
3.748843748E1,1.426050067E0,6.180000305E0,8.350950241E0
3.750843748E1,1.324950099E0,6.144000053E0,8.872050285E0
3.752843748E1,4.710000157E-1,7.048950195E0,1.030605030E1
3.754843748E1,9.000000358E-2,7.417950153E0,1.157895088E1
3.756843748E1,1.339500099E-1,7.348050117E0,1.171800041E1
3.758843748E1,5.140500069E-1,6.151950359E0,1.040895081E1
3.760843748E1,5.520000458E-1,5.278050423E0,8.578050613E0
3.762843748E1,2.839500010E-1,5.044050217E0,6.397950172E0
3.764843748E1,6.979500055E-1,5.125050068E0,5.376000404E0
3.766843748E1,1.129050016E0,5.130000114E0,5.802000046E0
3.768843748E1,1.459050059E0,5.419050217E0,8.662050247E0
3.770843748E1,9.420000315E-1,5.314050198E0,8.659049988E0
3.772843748E1,7.750500441E-1,4.761000156E0,8.049000740E0
3.774843748E1,6.889500618E-1,4.114950180E0,8.204999924E0
3.776843748E1,5.670000315E-1,4.381050110E0,8.347949982E0
3.778843748E1,5.140500069E-1,4.656000137E0,7.696950436E0
3.780843748E1,9.019500613E-1,4.546050072E0,6.706950188E0
3.782843748E1,1.263000011E0,4.390050411E0,5.757000446E0
3.784843748E1,1.356000066E0,4.339950085E0,5.269050121E0
3.786843748E1,1.284000039E0,4.459950447E0,5.497950077E0
3.788843748E1,9.109500647E-1,4.978950024E0,5.761950493E0
3.790843748E1,6.529500484E-1,5.296950340E0,5.719050407E0
3.792843748E1,4.999500215E-1,5.752050400E0,5.664000034E0
3.794843748E1,3.349500299E-1,6.384000301E0,6.022050381E0
3.796843748E1,6.289500594E-1,6.714000225E0,6.207000256E0
3.798843748E1,1.585950017E0,6.724050522E0,7.165950298E0
3.800843748E1,1.375050068E0,6.886050224E0,8.299950600E0
3.802843748E1,1.117050052E0,7.336050510E0,9.757950783E0
3.804843748E1,1.320000052E0,7.225950241E0,1.094700050E1
3.806843748E1,1.524000049E0,6.834000111E0,1.148100090E1
3.808843748E1,1.855950117E0,6.778950214E0,1.232505035E1
3.810843748E1,1.396950126E0,6.895950317E0,1.174905014E1
3.812843748E1,1.291950107E0,7.080000401E0,1.070805073E1
3.814843748E1,8.490000367E-1,7.602000237E0,9.466050148E0
3.816843748E1,4.369500279E-1,7.140000343E0,8.008950233E0
3.818843748E1,-5.895000324E-2,6.598950386E0,6.943950176E0
3.820843748E1,-9.900000691E-1,6.738000393E0,6.475050449E0
3.822843748E1,-1.114950061E0,7.147050381E0,6.499050140E0
3.824843748E1,-2.599500120E-1,7.168950558E0,7.201950550E0
3.826843748E1,8.560500145E-1,6.682950497E0,8.131050110E0
3.828843748E1,1.969050050E0,5.403000355E0,8.887050629E0
3.830843748E1,2.215050220E0,4.426050186E0,8.809950829E0
3.832843748E1,1.585950017E0,3.907050133E0,7.798050404E0
3.834843748E1,2.650500238E-1,3.945000172E0,6.139950275E0
3.836843748E1,-3.490500152E-1,3.969000101E0,4.747050285E0
3.838843748E1,-2.959500253E-1,3.955050230E0,3.960000277E0
3.840843748E1,-1.219500080E-1,4.111050129E0,4.252050400E0
3.842843748E1,1.500000060E-1,4.117949963E0,4.717950344E0
3.844843748E1,9.795000404E-2,4.278000355E0,5.245050430E0
3.846843748E1,-6.289500594E-1,4.858950138E0,5.632050037E0
3.848843748E1,-9.280500412E-1,5.293050289E0,6.484050274E0
3.850843748E1,-1.410000026E-1,5.410050392E0,7.461000443E0
3.852843748E1,7.249500155E-1,5.106000423E0,7.732950211E0
3.854843748E1,6.810000539E-1,5.083950043E0,7.542000294E0
3.856843748E1,-3.780000210E-1,5.557950497E0,7.591950417E0
3.858843748E1,-5.160000324E-1,5.551050186E0,8.346000671E0
3.860843748E1,-8.970000148E-1,5.707050323E0,8.743050575E0
3.862843748E1,-1.078950047E0,5.506050110E0,8.992050171E0
3.864843748E1,-1.195950031E0,5.269050121E0,1.026705074E1
3.866843748E1,-8.820000291E-1,5.440950394E0,1.202100086E1
3.868843748E1,3.250500262E-1,5.013000011E0,1.338495064E1
3.870843748E1,1.372950077E0,4.261050224E0,1.363905048E1
3.872843748E1,1.603050113E0,4.102950096E0,1.302405071E1
3.874843748E1,8.419500589E-1,4.225049973E0,1.173705101E1
3.876843748E1,-6.900000572E-2,4.278000355E0,1.050195026E1
3.878843748E1,-4.780500233E-1,4.216050148E0,9.724050522E0
3.880843748E1,-8.805000782E-2,4.024050236E0,9.535050392E0
3.882843748E1,7.770000100E-1,3.816000223E0,9.660000801E0
3.884843748E1,1.567050099E0,3.661050081E0,9.396000862E0
3.886843748E1,1.926000118E0,3.529050112E0,8.770050049E0
3.888843748E1,1.854000092E0,3.522000074E0,7.747950554E0
3.890843748E1,1.438050032E0,3.630000114E0,6.592050076E0
3.892843748E1,1.299000025E0,3.898050070E0,5.893050194E0
3.894843748E1,1.134000063E0,3.972000122E0,5.065050125E0
3.896843748E1,5.809500217E-1,4.003050327E0,4.216050148E0
3.898843748E1,-1.290000081E-1,4.398000240E0,4.213050365E0
3.900843748E1,-5.190000534E-1,4.603050232E0,4.492950439E0
3.902843748E1,-6.360000372E-1,4.869000435E0,5.380950451E0
3.904843748E1,-4.830000103E-1,5.089050293E0,6.597000122E0
3.906843748E1,-3.010500073E-1,5.170950413E0,7.414950371E0
3.908843748E1,-4.780500233E-1,5.580000401E0,8.434950829E0
3.910843748E1,-5.500500202E-1,5.958000183E0,9.193050385E0
3.912843748E1,-2.359500080E-1,6.130050182E0,9.741000175E0
3.914843748E1,6.900000572E-2,6.523050308E0,1.007400036E1
3.916843748E1,3.270000219E-1,6.384000301E0,1.047105026E1
3.918843748E1,-9.795000404E-2,6.546000481E0,1.078200054E1
3.920843748E1,-5.670000315E-1,6.736050129E0,1.074795055E1
3.922843748E1,-7.510500550E-1,6.775950432E0,1.048995018E1
3.924843748E1,-6.139500141E-1,6.982050419E0,1.068600082E1
3.926843748E1,7.095000148E-2,6.676050186E0,1.139205074E1
3.928843748E1,7.320000529E-1,5.572950363E0,1.186800098E1
3.930843748E1,4.470000267E-1,5.266050339E0,1.145700073E1
3.932843748E1,-5.910000205E-1,5.068050385E0,1.035795021E1
3.934843748E1,-1.533000112E0,5.551050186E0,9.649950027E0
3.936843748E1,-1.384950042E0,5.854950428E0,9.199950218E0
3.938843748E1,-3.630000055E-1,5.344950199E0,9.010950089E0
3.940843748E1,5.040000081E-1,4.672950268E0,9.133049965E0
3.942843748E1,8.779500127E-1,4.081950188E0,8.413050652E0
3.944843748E1,1.009050012E0,3.442950249E0,7.020000458E0
3.946843748E1,1.177050114E0,3.060000181E0,5.572950363E0
3.948843748E1,1.038000107E0,3.141000032E0,4.168050289E0
3.950843748E1,3.799500167E-1,3.796950102E0,3.685050249E0
3.952843748E1,3.150000274E-1,4.029000282E0,3.766050100E0
3.954843748E1,7.800000310E-1,3.981000185E0,4.009950161E0
3.956843748E1,4.230000079E-1,4.543950081E0,4.765950203E0
3.958843748E1,-1.980000138E-1,5.293050289E0,6.088950157E0
3.960843748E1,-7.369500399E-1,5.533950329E0,6.733050346E0
3.962843748E1,-6.240000129E-1,5.308950424E0,6.814950466E0
3.964843748E1,-3.850500286E-1,5.371950150E0,8.037000656E0
3.966843748E1,-1.339500099E-1,5.704050064E0,8.320050240E0
3.968843748E1,-1.050000042E-1,6.027000427E0,8.407950401E0
3.970843748E1,-2.220000178E-1,6.604050159E0,7.957950592E0
3.972843748E1,1.099500060E-1,6.628050327E0,7.554000378E0
3.974843748E1,7.170000076E-1,6.795000553E0,7.245000362E0
3.976843748E1,1.444950104E0,6.456000328E0,7.807950497E0
3.978843748E1,1.593000054E0,6.262050152E0,9.262050629E0
3.980843748E1,1.106999993E0,5.829000473E0,1.027005005E1
3.982843748E1,7.030500174E-1,5.269050121E0,1.101405048E1
3.984843748E1,5.190000534E-1,4.945950031E0,1.172700024E1
3.986843748E1,8.800500631E-1,4.282950401E0,1.195005035E1
3.988843748E1,1.036050081E0,3.529050112E0,1.138305092E1
3.990843748E1,4.399500191E-1,3.541050196E0,1.052400017E1
3.992843748E1,-4.090500176E-1,3.852000237E0,9.394050598E0
3.994843748E1,-7.770000100E-1,4.065000057E0,8.680950165E0
3.996843748E1,-6.700500250E-1,4.048050404E0,7.891050339E0
3.998843748E1,-2.269500047E-1,3.835050106E0,7.590000153E0
4.000843748E1,3.540000021E-1,3.820950270E0,7.647000313E0
4.002843748E1,8.320500255E-1,3.778050184E0,7.495950222E0
4.004843748E1,7.939500213E-1,3.993000269E0,6.745050430E0
4.006843748E1,7.890000343E-1,4.180050373E0,5.893050194E0
4.008843748E1,1.095000029E0,4.252050400E0,5.424000263E0
4.010843748E1,1.045050025E0,4.285050392E0,5.488950253E0
4.012843748E1,7.819500566E-1,4.434000015E0,6.006000519E0
4.014843748E1,5.279999971E-1,4.680000305E0,6.829050541E0
4.016843748E1,3.850500286E-1,5.032050133E0,7.384050369E0
4.018843748E1,2.269500047E-1,5.206050396E0,7.851000309E0
4.020843748E1,7.095000148E-2,5.110950470E0,8.425050735E0
4.022843748E1,-2.410500050E-1,5.352000237E0,9.088050842E0
4.024843748E1,-6.220500469E-1,5.905050278E0,8.935050011E0
4.026843748E1,-2.839500010E-1,6.184950352E0,8.892000198E0
4.028843748E1,4.900500178E-1,6.460050106E0,9.613950729E0
4.030843748E1,1.273050070E0,6.345000267E0,1.033005047E1
4.032843748E1,1.399050117E0,6.444000244E0,1.069095039E1
4.034843748E1,1.045050025E0,6.967950344E0,1.053495026E1
4.036843748E1,9.060000181E-1,7.312050343E0,1.064295006E1
4.038843748E1,1.111950040E0,6.922050476E0,1.052400017E1
4.040843748E1,1.359000087E0,6.133050442E0,1.054305077E1
4.042843748E1,1.198050022E0,5.548950195E0,1.078200054E1
4.044843748E1,4.690500200E-1,5.340000153E0,1.030305004E1
4.046843748E1,-2.050500065E-1,5.416950226E0,9.697950363E0
4.048843748E1,-2.959500253E-1,5.368950367E0,9.069000244E0
4.050843748E1,1.740000099E-1,5.190000057E0,9.375000000E0
4.052843748E1,8.200500607E-1,4.647000313E0,9.580950737E0
4.054843748E1,1.432950020E0,3.807000160E0,9.583050728E0
4.056843748E1,1.597950101E0,3.283050060E0,8.779050827E0
4.058843748E1,1.629000068E0,2.893050194E0,7.384050369E0
4.060843748E1,1.399050117E0,2.502000093E0,6.001050472E0
4.062843748E1,1.006950021E0,2.248950005E0,4.929000378E0
4.064843748E1,2.149500102E-1,2.335050106E0,4.909950256E0
4.066843748E1,-7.050000429E-1,2.707950115E0,5.725950241E0
4.068843748E1,-9.300000668E-1,3.003000259E0,6.256950378E0
4.070843748E1,-5.689499974E-1,3.229950190E0,6.343050480E0
4.072843748E1,-5.040000081E-1,3.691950083E0,6.337950230E0
4.074843748E1,-6.030000448E-1,4.483950138E0,6.111000061E0
4.076843748E1,-5.520000458E-1,5.185050011E0,6.433950424E0
4.078843748E1,-6.705000252E-2,5.448000431E0,7.168950558E0
4.080843748E1,4.470000267E-1,5.473950386E0,8.092050552E0
4.082843748E1,6.259500384E-1,5.653950214E0,9.327000618E0
4.084843748E1,5.070000291E-1,5.862000465E0,9.778950691E0
4.086843748E1,2.029500157E-1,6.121050358E0,9.772050858E0
4.088843748E1,1.960500032E-1,6.243000507E0,9.456000328E0
4.090843748E1,6.240000129E-1,6.268950462E0,9.633000374E0
4.092843748E1,1.311000109E0,6.457950115E0,1.030305004E1
4.094843748E1,2.440050125E0,6.115950108E0,1.139700031E1
4.096843748E1,3.172050238E0,5.605950356E0,1.174605083E1
4.098843748E1,3.301950216E0,4.950000286E0,1.130100060E1
4.100843748E1,2.458950043E0,4.326000214E0,9.775050163E0
4.102843748E1,1.203000069E0,4.548000336E0,8.425050735E0
4.104843748E1,5.310000181E-1,5.002950191E0,7.741050243E0
4.106843748E1,8.320500255E-1,4.714050293E0,8.029950142E0
4.108843748E1,1.489950061E0,4.339950085E0,8.289000511E0
4.110843748E1,2.148000002E0,4.024050236E0,8.463000298E0
4.112843748E1,2.542950153E0,3.526950121E0,8.101950645E0
4.114843748E1,2.356950045E0,3.771000147E0,8.560950279E0
4.116843748E1,1.957050085E0,4.233000278E0,8.592000008E0
4.118843748E1,1.654950023E0,4.033950329E0,7.924950600E0
4.120843748E1,1.083000064E0,4.302000046E0,7.374000549E0
4.122843748E1,6.979500055E-1,4.410000324E0,6.802950382E0
4.124843748E1,6.120000482E-1,4.347000122E0,6.444000244E0
4.126843748E1,8.269500136E-1,4.441050053E0,6.316950321E0
4.128843748E1,1.332000017E0,4.278000355E0,6.013050079E0
4.130843748E1,1.557000041E0,4.291950226E0,5.482050419E0
4.132843748E1,1.390050054E0,4.390050411E0,5.130000114E0
4.134843748E1,1.239000082E0,4.675050259E0,5.637000084E0
4.136843748E1,1.324950099E0,4.888050079E0,6.546000481E0
4.138843748E1,1.885050058E0,4.930950165E0,7.755000591E0
4.140843748E1,2.182049990E0,5.119950294E0,8.772000313E0
4.142843748E1,2.107950211E0,5.391000271E0,8.887050629E0
4.144843748E1,1.774950027E0,5.778000355E0,8.676000595E0
4.146843748E1,1.561950088E0,6.243000507E0,8.841000557E0
4.148843748E1,1.758000135E0,6.463050365E0,9.286050797E0
4.150843748E1,2.143949986E0,6.355050087E0,9.966000557E0
4.152843748E1,2.055000067E0,6.432000160E0,1.051395035E1
4.154843748E1,1.219950080E0,6.771000385E0,1.032495022E1
4.156843748E1,5.569500327E-1,7.159050465E0,9.954000473E0
4.158843748E1,1.960500032E-1,7.438950539E0,1.001400089E1
4.160843748E1,6.405000389E-2,7.422000408E0,9.585000038E0
4.162843748E1,4.129500091E-1,6.493950367E0,9.418050766E0
4.164843748E1,3.349500299E-1,5.830950260E0,9.130949974E0
4.166843748E1,-1.570500135E-1,5.452950478E0,8.824950218E0
4.168843748E1,-4.849500358E-1,5.364000320E0,8.844000816E0
4.170843748E1,-2.910000086E-1,5.410050392E0,9.032999992E0
4.172843748E1,2.050500065E-1,5.203950405E0,9.181050301E0
4.174843748E1,6.139500141E-1,4.857000351E0,8.536950111E0
4.176843748E1,7.030500174E-1,4.567950249E0,7.815000534E0
4.178843748E1,5.879999995E-1,4.522050381E0,6.925050259E0
4.180843748E1,6.979500055E-1,4.264050007E0,6.075000286E0
4.182843748E1,7.960500121E-1,3.940950155E0,5.163000107E0
4.184843748E1,4.470000267E-1,3.828000069E0,4.429050446E0
4.186843748E1,-1.095000096E-2,3.937950134E0,4.543950081E0
4.188843748E1,-5.160000324E-1,4.149000168E0,5.257050037E0
4.190843748E1,-7.630500197E-1,4.282950401E0,5.506050110E0
4.192843748E1,-8.749500513E-1,4.543950081E0,5.946000099E0
4.194843748E1,-1.158000112E0,4.843050003E0,6.574950218E0
4.196843748E1,-1.219950080E0,5.202000141E0,7.306950569E0
4.198843748E1,-7.960500121E-1,5.448000431E0,8.212050438E0
4.200843748E1,-6.405000389E-2,5.604000092E0,8.755050659E0
4.202843748E1,2.820000052E-1,5.674950123E0,8.947050095E0
4.204843748E1,-9.300000221E-2,6.109050274E0,8.923050880E0
4.206843748E1,-6.289500594E-1,6.649050236E0,8.877000809E0
4.208843748E1,-8.389500380E-1,6.982050419E0,9.150000572E0
4.210843748E1,-4.660500288E-1,7.012950420E0,9.214950562E0
4.212843748E1,3.795000166E-2,6.901050091E0,9.022950172E0
4.214843748E1,6.900000572E-2,6.916950226E0,8.545050621E0
