"Time (s)","Gyroscope x (rad/s)","Gyroscope y (rad/s)","Gyroscope z (rad/s)"
3.381340700E-2,-3.458922729E-2,-8.093725890E-2,2.817532979E-2
5.392356300E-2,-1.789018959E-1,2.489202656E-2,8.322793990E-3
7.403366700E-2,-1.679066420E-1,9.345962852E-2,1.198787708E-2
9.414382300E-2,-3.993413970E-2,5.696150661E-2,1.519482583E-2
1.142539270E-1,9.827005118E-2,9.468132630E-3,1.183516532E-2
1.343640840E-1,1.396549493E-1,-1.114796288E-2,1.443126611E-2
1.544741880E-1,9.567394853E-2,-1.068982668E-2,3.672719002E-2
1.745843440E-1,2.069245093E-2,1.359135192E-2,3.596363217E-2
1.946945000E-1,-4.650074616E-2,6.505523622E-2,1.107160654E-2
2.148046050E-1,-9.277242422E-2,9.819369763E-2,-1.091889478E-2
2.349147610E-1,-1.005607322E-1,8.185353130E-2,-2.710634656E-2
2.550248650E-1,-4.619532451E-2,9.284878522E-2,-4.772244394E-2
2.751350210E-1,1.015533600E-2,7.925742865E-2,-5.138752609E-2
2.952451250E-1,1.443126611E-2,8.215895295E-2,-1.061347127E-2
3.153552820E-1,-1.145338640E-3,1.197260618E-1,1.351499557E-2
3.354654380E-1,-1.748550311E-2,1.867665499E-1,-1.763821393E-2
3.555755420E-1,-4.543176666E-2,2.081461996E-1,-7.108735293E-2
3.756856980E-1,-4.741701856E-2,1.317902952E-1,-9.643751383E-2
3.957958020E-1,-4.199574701E-3,2.305948362E-2,-8.620581776E-2
4.159059590E-1,7.704310864E-2,7.177455351E-3,-4.130854458E-2
4.360161150E-1,1.285069883E-1,9.040539712E-2,3.588727675E-3
4.561262190E-1,8.208259940E-2,1.437018216E-1,-5.726693198E-3
4.762363750E-1,-4.787515476E-2,8.475505561E-2,-5.581616983E-2
4.963464800E-1,-1.262163222E-1,2.107422985E-2,-8.498412371E-2
5.164566360E-1,-8.712209016E-2,-1.832541823E-2,-8.391514421E-2
5.365667400E-1,-7.253811229E-3,-6.719320081E-3,-5.505260825E-2
5.566768960E-1,4.909684882E-2,-1.023169141E-2,-2.786990628E-2
5.767870000E-1,5.413633958E-2,-4.230117425E-2,-3.382566571E-2
5.968971570E-1,2.145601064E-2,-1.262926757E-1,-3.428380191E-2
6.170073130E-1,-4.810422193E-3,-1.591257155E-1,-1.366770733E-2
6.371174170E-1,-1.198787708E-2,-1.039967462E-1,-9.544488043E-3
6.572275730E-1,-3.153498843E-2,-4.260659590E-2,-2.985516004E-2
6.773376770E-1,-7.139277458E-2,4.581354442E-4,-6.757497787E-2
6.974478340E-1,-1.049893722E-1,3.008422814E-2,-1.068219170E-1
7.175579380E-1,-1.115559787E-1,4.046862945E-2,-1.340046227E-1
7.376680940E-1,-1.210241169E-1,-9.162709117E-3,-1.259108931E-1
7.577781980E-1,-1.210241169E-1,-4.596625641E-2,-7.704310864E-2
7.778883550E-1,-9.323056042E-2,-3.481829539E-2,-3.733803704E-2
7.979984590E-1,-4.772244394E-2,-9.162708884E-4,-1.214058883E-2
8.181086150E-1,-1.488940232E-2,-2.596100792E-3,-8.780929260E-3
8.382187710E-1,-2.588465251E-2,-1.603474095E-2,-1.733279042E-2
8.583288750E-1,-3.871244565E-2,-6.413896102E-3,-8.399150101E-4
8.784390320E-1,-3.932329267E-2,2.305948362E-2,1.183516532E-2
8.985491360E-1,-4.421006888E-2,6.047387794E-2,2.664821222E-2
9.186592920E-1,-4.970769584E-2,9.788827598E-2,4.146125913E-2
9.387693960E-1,-2.145601064E-2,1.233911440E-1,6.116108224E-2
9.588795520E-1,2.344126441E-2,8.628217876E-2,1.001025960E-1
9.789896570E-1,4.390464723E-2,2.107422985E-2,1.340046227E-1
9.990998130E-1,2.741177008E-2,-3.817795310E-3,1.567586809E-1
1.019209917E0,-1.809635013E-2,-2.015795931E-2,1.677539349E-1
1.039320073E0,-3.565821052E-2,-2.611372061E-2,1.720298529E-1
1.059430177E0,1.152974181E-2,-2.351761982E-2,1.772220582E-1
1.079540334E0,8.192989230E-2,-1.389677543E-2,1.756949425E-1
1.099650438E0,8.284615725E-2,-1.175880991E-2,1.588966399E-1
1.119760594E0,2.970244735E-2,-3.054236295E-3,1.466796994E-1
1.139870750E0,-2.023431472E-2,-2.550287358E-2,1.336991936E-1
1.159980855E0,-2.298312820E-2,-3.603998944E-2,1.219403818E-1
1.180091011E0,2.527380548E-2,-2.718270384E-2,9.964445978E-2
1.200201115E0,5.963396281E-2,-3.100049868E-2,7.200361788E-2
1.220311271E0,4.695888236E-2,-3.405473381E-2,6.467345357E-2
1.240421375E0,2.977880416E-3,-7.482878864E-3,4.924955964E-2
1.260531532E0,-2.160872146E-2,9.009997360E-3,2.008160390E-2
1.280641636E0,-1.275143679E-2,4.886778072E-3,-9.086352773E-3
1.300751792E0,1.550024934E-2,-2.305948362E-2,-3.168770298E-2
1.320861896E0,2.924431302E-2,-5.161659420E-2,-5.138752609E-2
1.340972052E0,2.160872146E-2,-1.740914769E-2,-5.810684711E-2
1.361082157E0,-1.061347127E-2,-3.817795310E-3,-7.124006003E-2
1.381192313E0,-4.329380020E-2,1.511846948E-2,-8.131904155E-2
1.401302417E0,-5.062396824E-2,1.985253533E-3,-9.536852688E-2
1.421412573E0,-3.000787087E-2,-3.512371797E-3,-9.445225447E-2
1.441522677E0,-5.421269219E-3,7.941014133E-3,-8.864920586E-2
1.461632834E0,-1.015533600E-2,2.855710872E-2,-9.506310523E-2
1.481742938E0,-4.023956135E-2,5.008947477E-2,-9.781191498E-2
1.501853094E0,-6.482616812E-2,6.444438547E-2,-8.803836256E-2
1.521963198E0,-9.979717433E-2,3.634541109E-2,-8.849649876E-2
1.542073355E0,-1.245364845E-1,3.054236295E-4,-8.605311066E-2
1.562183459E0,-1.223985180E-1,-3.252761811E-2,-7.368344814E-2
1.582293615E0,-9.429954737E-2,-1.313321572E-2,-6.375718117E-2
1.602403771E0,-5.291464552E-2,-1.832541823E-2,-3.596363217E-2
1.622513875E0,1.565296017E-2,-3.390202299E-2,-2.214321401E-3
1.642624032E0,6.284090877E-2,-6.154286116E-2,4.352286924E-3
1.662734136E0,3.871244565E-2,-6.337540597E-2,2.290677221E-4
1.682844292E0,-3.978142887E-2,-4.886778072E-2,1.603474026E-3
1.702954396E0,-1.039203927E-1,-3.329117596E-2,9.391776286E-3
1.723064552E0,-1.037676781E-1,-3.466558084E-2,8.322793990E-3
1.743174657E0,-7.948649675E-2,-5.925218388E-2,-2.367033157E-3
1.763284813E0,-9.261971712E-2,-8.078455180E-2,-7.559234742E-3
1.783394917E0,-8.987089992E-2,-2.947338112E-2,-3.894151188E-3
1.803505073E0,-5.902311578E-2,-3.115320951E-2,-1.229330152E-2
1.823615177E0,-4.711159319E-2,-5.757235363E-2,8.322793990E-3
1.843725334E0,-6.345175952E-2,-5.329642445E-2,2.115058713E-2
1.863835438E0,-7.887565345E-2,-2.137965523E-3,1.107160654E-2
1.883945542E0,-9.338327497E-2,1.664558798E-2,7.559234742E-3
1.904055698E0,-8.605311066E-2,8.857285604E-3,9.391776286E-3
1.924165802E0,-7.475243509E-2,7.024743594E-3,-1.015533600E-2
1.944275959E0,-7.704310864E-2,9.315420873E-3,-3.993413970E-2
1.964386063E0,-5.444176123E-2,6.047387794E-2,-5.245650932E-2
1.984496219E0,-1.687465608E-2,9.437590092E-2,-1.626380906E-2
2.004606323E0,-1.550024934E-2,6.627693027E-2,5.505260825E-2
2.024716480E0,-3.382566571E-2,8.704573847E-3,1.152210608E-1
2.044826584E0,-4.176668078E-2,-2.382304333E-2,1.182752997E-1
2.064936740E0,-5.062396824E-2,-2.000524849E-2,9.338327497E-2
2.085046844E0,-7.414158434E-2,-1.343864016E-2,8.177717775E-2
2.105157000E0,-7.948649675E-2,-3.970507067E-3,1.080436110E-1
2.125267105E0,-4.741701856E-2,-9.620844387E-3,1.349208951E-1
2.145377261E0,7.406522986E-3,-1.389677543E-2,1.285069883E-1
2.165487365E0,3.474193811E-2,-3.298575059E-2,1.158319116E-1
2.185597521E0,1.152974181E-2,-3.955236077E-2,1.039203927E-1
2.205707625E0,-2.389939874E-2,-7.024743594E-3,8.956547827E-2
2.225817782E0,-4.497363046E-2,2.122694254E-2,7.887565345E-2
2.245927886E0,-4.314108938E-2,2.015795931E-2,7.536327839E-2
2.266038042E0,-1.366770733E-2,1.557660475E-2,6.772769243E-2
2.286148146E0,1.534753758E-2,2.183778957E-2,5.245650932E-2
2.306258250E0,3.993413970E-2,3.619270027E-2,4.588989913E-2
2.326368407E0,5.948125198E-2,4.993676394E-2,2.619007602E-2
2.346478511E0,5.169294775E-2,2.382304333E-2,7.635590737E-5
2.366588667E0,2.374668792E-2,-2.748812549E-3,-1.672194339E-2
2.386698771E0,8.780929260E-3,1.038440317E-2,-2.741177008E-2
2.406808927E0,1.992889121E-2,5.070032179E-2,-2.206685767E-2
2.426919032E0,2.557922900E-2,5.741964281E-2,-2.588465251E-2
2.447029188E0,2.206685767E-2,4.077405483E-2,-2.848075330E-2
2.467139292E0,3.588727675E-3,-2.443389036E-3,-3.229855001E-2
2.487249448E0,-2.084516361E-2,-3.603998944E-2,-5.734328553E-2
2.507359552E0,-2.771719359E-2,-2.199050039E-2,-8.712209016E-2
2.527469709E0,-2.160872146E-2,8.857285604E-3,-8.422056586E-2
2.547579813E0,-1.030804776E-2,-1.130067464E-2,-5.780142173E-2
2.567689969E0,4.573718831E-2,-1.649287529E-2,-5.459447205E-2
2.587800073E0,8.819106966E-2,-2.397575416E-2,-7.811209559E-2
2.607910177E0,5.764871091E-2,-1.603474095E-2,-8.559497446E-2
2.628020334E0,5.268557463E-3,2.626643144E-2,-8.330429345E-2
2.648130438E0,-1.748550311E-2,3.634541109E-2,-8.742751181E-2
2.668240594E0,-1.046075951E-2,1.908897609E-2,-9.017632902E-2
2.688350698E0,-1.443126611E-2,-7.024743594E-3,-1.019351333E-1
2.708460855E0,-1.947075687E-2,5.039489828E-3,-9.628479928E-2
2.728570959E0,-1.473669056E-2,3.680354729E-2,-7.582141459E-2
2.748681115E0,1.229330152E-2,5.680879578E-2,-4.497363046E-2
2.768791219E0,4.115583375E-2,3.619270027E-2,-2.053973824E-2
2.788901323E0,3.932329267E-2,7.330167107E-3,-2.985516004E-2
2.809011480E0,7.253811229E-3,-2.336490713E-2,-4.100312293E-2
2.829121584E0,-3.565821052E-2,-1.847812906E-2,-3.382566571E-2
2.849231740E0,-5.016583204E-2,2.290677279E-2,-1.580567285E-2
2.869341844E0,-1.473669056E-2,5.283828825E-2,-2.367033157E-3
2.889452000E0,1.488940232E-2,2.428117767E-2,-1.030804776E-2
2.909562105E0,3.184041381E-2,9.009997360E-3,-1.137703005E-2
2.929672209E0,3.504735976E-2,2.626643144E-2,-6.032116711E-3
2.949782365E0,1.259872504E-2,3.894151375E-2,-7.635590737E-5
2.969892469E0,-6.604786217E-2,1.649287529E-2,-8.170082234E-3
2.990002030E0,-1.503447890E-1,-1.481304597E-2,-1.091889478E-2
3.010112135E0,-1.385859698E-1,-4.581354558E-3,-6.795675959E-3
3.030222239E0,-4.833329096E-2,2.748812735E-2,-1.061347127E-2
3.050332395E0,2.588465251E-2,2.412846684E-2,-7.711946499E-3
3.070442499E0,8.475505747E-3,-7.177455351E-3,-4.046862945E-3
3.090552655E0,-6.100837141E-2,-1.496575773E-2,-8.399150101E-4
3.110662760E0,-9.032903612E-2,2.932066843E-2,-8.933641016E-3
3.130772916E0,-8.040276915E-2,2.351761982E-2,-1.198787708E-2
3.150883020E0,-6.039752439E-2,-1.740914769E-2,7.406522986E-3
3.170993124E0,-2.069245093E-2,-4.642439261E-2,2.084516361E-2
3.191103280E0,5.612159148E-2,-6.658235192E-2,1.366770733E-2
3.211213385E0,1.295759678E-1,-9.788827598E-2,2.664821222E-2
3.231323541E0,1.439308822E-1,-1.279724985E-1,5.627430230E-2
3.251433645E0,1.002553031E-1,-6.795676053E-2,7.551599294E-2
3.271543749E0,4.436278343E-2,3.145863488E-2,7.322531193E-2
3.291653905E0,1.244601328E-2,6.536065787E-2,3.794888780E-2
3.311764010E0,-1.183516532E-2,2.993151546E-2,-1.183516532E-2
3.331874166E0,-2.313583903E-2,-3.710897267E-2,-3.565821052E-2
3.351984270E0,4.504998680E-3,-1.878355257E-2,-1.550024934E-2
3.372094374E0,4.512634128E-2,3.955236077E-2,-1.908897655E-3
3.392204530E0,8.269345015E-2,8.231166750E-2,6.184828468E-3
3.412314635E0,8.956547827E-2,4.352286831E-2,8.475505747E-3
3.432424791E0,3.138227761E-2,-3.206948191E-2,-1.412584260E-2
3.452534895E0,-3.718532622E-2,-2.916795574E-2,-2.695363574E-2
3.472645051E0,-3.077143058E-2,1.771457121E-2,-1.229330152E-2
3.492755155E0,4.573718831E-2,5.589252338E-2,7.711946499E-3
3.512865260E0,1.013242900E-1,7.024743594E-3,2.619007602E-2
3.532975416E0,9.552124143E-2,-4.260659590E-2,3.565821052E-2
3.553085520E0,6.070294604E-2,-4.932591692E-2,1.855448633E-2
3.573195624E0,2.451024577E-2,-2.015795931E-2,6.642963737E-3
3.593305780E0,-1.336228382E-2,-1.404948719E-2,4.046862945E-3
3.613415885E0,-2.619007602E-2,-6.566607859E-3,-3.894151188E-3
3.633526041E0,1.779092662E-2,-7.330167107E-3,-2.451024577E-2
3.653636145E0,8.422056586E-2,-2.137965523E-3,-4.146125913E-2
3.673746249E0,8.559497446E-2,2.901524538E-3,-3.321481869E-2
3.693856405E0,2.160872146E-2,5.497625098E-3,-2.619007602E-2
3.713966510E0,-3.458922729E-2,2.122694254E-2,-5.230379477E-2
3.734076614E0,-3.153498843E-2,3.588727489E-2,-7.307260484E-2
3.754186770E0,-2.367033157E-3,1.740914769E-2,-7.001836598E-2
3.774296874E0,2.214321401E-3,-9.926267900E-3,-5.657972768E-2
3.794407030E0,-7.406522986E-3,5.344913341E-3,-4.375193641E-2
3.814517135E0,-6.795675959E-3,5.482354015E-2,-3.229855001E-2
3.834627239E0,7.406522986E-3,5.497625470E-2,-1.779092662E-2
3.854737395E0,1.443126611E-2,1.649287529E-2,-7.253811229E-3
3.874847499E0,2.221956849E-2,1.068982668E-2,7.101099472E-3
3.894957655E0,-1.107160654E-2,8.551862091E-3,1.603474026E-3
3.915067760E0,-5.215108395E-2,1.343864016E-2,6.490251981E-3
3.935177864E0,-5.795413256E-2,1.038440317E-2,8.017370477E-3
3.955288020E0,-3.565821052E-2,2.657185495E-2,7.253811229E-3
3.975398124E0,-7.101099472E-3,4.703523964E-2,2.825168660E-3
3.995508228E0,1.061347127E-2,4.092676565E-2,-1.603474026E-3
4.015618385E0,3.741439432E-3,1.404948719E-2,3.894151188E-3
4.035728489E0,-1.412584260E-2,2.031067200E-2,1.366770733E-2
4.055838645E0,-3.588727675E-3,5.772506446E-2,1.885990985E-2
4.075948749E0,1.137703005E-2,3.130592033E-2,1.947075687E-2
4.096058853E0,1.855448633E-2,-1.801999472E-2,3.626905754E-2
4.116169010E0,2.725905925E-2,-4.123219103E-2,2.695363574E-2
4.136279114E0,4.802786559E-2,-7.849387079E-2,2.008160390E-2
4.156389218E0,8.437328041E-2,-3.878879920E-2,2.283041552E-2
4.176499374E0,8.727480471E-2,1.557660475E-2,2.863346599E-2
4.196609478E0,4.711159319E-2,2.183778957E-2,4.268295318E-2
4.216719635E0,-2.893888950E-2,-8.551862091E-3,5.688514933E-2
4.236829739E0,-1.068219170E-1,-4.886778072E-3,6.467345357E-2
4.256939843E0,-1.202605516E-1,3.344388679E-2,5.123481527E-2
4.277049999E0,-8.544225991E-2,1.985253580E-2,4.329380020E-2
4.297160103E0,-1.580567285E-2,-3.252761811E-2,6.757497787E-2
4.317270207E0,4.879142344E-2,-1.649287529E-2,4.818057641E-2
4.337380364E0,3.672719002E-2,-2.901524492E-2,2.435753495E-2
4.357490468E0,-2.023431472E-2,-4.275930673E-2,6.314633787E-2
4.377600572E0,-4.909684882E-2,-4.031591862E-2,6.818582863E-2
4.397710728E0,-5.077667907E-2,-2.412846684E-2,2.588465251E-2
4.417820832E0,-5.551074445E-2,-4.932591692E-2,-9.697199799E-3
4.437930989E0,-4.482091591E-2,-5.818320066E-2,-8.170082234E-3
4.458041093E0,-3.741439432E-3,-2.504473738E-2,1.320957206E-2
4.478151197E0,2.878617682E-2,2.000524849E-2,1.611109637E-2
4.498261353E0,5.268557463E-3,-2.321219631E-2,1.214058883E-2
4.518371457E0,-2.435753495E-2,-6.047387794E-2,7.864658721E-3
4.538481562E0,-1.855448633E-2,-4.459185153E-2,-2.283041552E-2
4.558591718E0,1.458397787E-2,-5.054761097E-2,-3.703261539E-2
4.578701822E0,3.428380191E-2,-4.352286831E-2,-4.695888236E-2
4.598811926E0,1.214058883E-2,-1.756185852E-2,-6.039752439E-2
4.618922082E0,-2.649549954E-2,1.404948719E-2,-6.085565686E-2
4.639032187E0,-5.428905040E-2,2.428117767E-2,-7.566870749E-2
4.659142291E0,-5.688514933E-2,-7.482878864E-3,-9.231429547E-2
4.679252447E0,-7.307260484E-2,-4.428642616E-2,-1.251473278E-1
4.699362551E0,-2.468586415E-1,-6.810946763E-2,-1.947839260E-1
4.719472707E0,-4.748573899E-1,2.519745007E-2,-1.773747802E-1
4.739582812E0,-5.032618046E-1,1.328592747E-1,-9.628479928E-2
4.759692916E0,-3.180223405E-1,1.572931744E-2,-1.523300409E-1
4.779803072E0,2.954973653E-2,-2.112004459E-1,-2.575484812E-1
4.799913176E0,2.167744190E-1,-3.669664860E-1,-4.270585775E-1
4.820023280E0,1.274380088E-1,-2.466295809E-1,-4.840200841E-1
4.840133437E0,1.199551299E-1,1.421747059E-1,-3.549786210E-1
4.860243541E0,2.059318870E-1,2.209739983E-1,-2.386122048E-1
4.880353645E0,1.230093688E-1,1.493521482E-1,-1.524827480E-1
4.900463801E0,-7.551599294E-2,4.535540938E-2,-1.369061470E-1
4.920573905E0,-7.872293890E-2,-1.056765765E-1,-1.995179802E-1
4.940684010E0,8.208259940E-2,-1.803526580E-1,-3.059581220E-1
4.960794166E0,1.642415524E-1,-2.053973973E-1,-3.090123534E-1
4.980904270E0,1.298813969E-1,-1.456870735E-1,-2.208976448E-1
5.001014426E0,1.071273386E-1,-7.559234649E-2,-1.813452840E-1
5.021124530E0,1.294232607E-1,-1.099525020E-2,-2.996969223E-1
5.041234635E0,7.750124484E-2,-5.314370990E-2,-3.132883012E-1
5.061344791E0,-9.391776286E-3,-1.236965731E-1,-1.323247850E-1
5.081454895E0,-1.381278336E-1,1.007897966E-2,-1.336228382E-2
5.101564999E0,-4.163687527E-1,2.854183912E-1,2.230356038E-1
5.121675155E0,-6.165739298E-1,4.549284875E-1,6.083275080E-1
5.141785260E0,-5.577799082E-1,4.599680007E-1,8.118923903E-1
5.161895364E0,-3.148154020E-1,3.243598938E-1,6.811710596E-1
5.182005520E0,7.291989028E-2,1.595838517E-1,3.842992783E-1
5.202115624E0,4.504235089E-1,-6.963659078E-2,8.055548370E-2
5.222225728E0,6.635328531E-1,-2.008160353E-1,-8.681666851E-2
5.242335885E0,6.777350307E-1,-4.028537571E-1,9.994988143E-2
5.262445989E0,5.182275176E-1,-5.157077909E-1,3.809396327E-1
5.282556145E0,2.028776407E-1,-3.367295563E-1,3.980433345E-1
5.302666249E0,-9.689565003E-2,1.985253533E-3,2.960318625E-1
5.322776353E0,-2.864110172E-1,2.644968629E-1,1.848576516E-1
5.342886510E0,-3.207711577E-1,3.513898849E-1,1.178171635E-1
5.362996614E0,-2.367796749E-1,3.187095523E-1,8.315158635E-2
5.383106718E0,-1.483595222E-1,6.749862432E-2,3.581092134E-2
5.403216874E0,-8.147175610E-2,-1.516428292E-1,-2.878617682E-2
5.423326978E0,-1.152974181E-2,-2.005106062E-1,-8.162446320E-2
5.443437082E0,3.657447919E-2,-1.356080920E-1,-1.401130855E-1
5.463547239E0,4.436278343E-2,-4.886778072E-2,-2.004342526E-1
5.483657343E0,3.817795368E-4,-1.359135192E-2,-1.821088344E-1
5.503767499E0,-7.078192383E-2,1.527118124E-2,-1.292705536E-1
5.523877603E0,-1.139993668E-1,1.915006191E-1,-8.574768156E-2
5.543987707E0,-1.411820799E-1,2.209739983E-1,-4.588989913E-2
5.564097864E0,-1.616454571E-1,2.325800955E-1,-6.238277629E-2
5.584207968E0,-1.607291847E-1,1.750077456E-1,-7.261446863E-2
5.604318072E0,-1.660740972E-1,1.449235082E-1,-5.780142173E-2
5.624428228E0,-1.848576516E-1,2.483094037E-1,-1.145338640E-3
5.644538332E0,-1.776801944E-1,3.790307343E-1,5.215108395E-2
5.664648489E0,-1.424037665E-1,3.481829464E-1,3.779617324E-2
5.684758593E0,-7.643226534E-2,2.467822880E-1,5.108210072E-2
5.704868697E0,-1.076618303E-2,9.712471068E-2,1.123195365E-1
5.724978853E0,2.725905925E-2,-8.399149403E-3,1.839413792E-1
5.745088957E0,-3.428380191E-2,-2.626643144E-2,1.876064688E-1
5.765199062E0,-1.648524106E-1,4.413371533E-2,1.399603784E-1
5.785309218E0,-1.912715435E-1,1.183516532E-1,1.156791970E-1
5.805419322E0,-9.093988687E-2,-1.374406368E-2,1.161373332E-1
5.825529478E0,3.794888780E-2,-1.125486046E-1,1.856212169E-1
5.845639582E0,1.492757946E-1,-1.441599578E-1,2.691545784E-1
5.865749687E0,1.645469815E-1,-2.687727809E-1,1.879118830E-1
5.885859843E0,1.263690293E-1,-1.525591016E-1,1.272853017E-1
5.905969947E0,6.085565686E-2,-5.955760833E-3,8.360971510E-2
5.926080051E0,2.389939874E-2,1.543916464E-1,9.582666308E-2
5.946190207E0,-2.451024577E-2,2.786990702E-1,1.010188684E-1
5.966300312E0,-1.106397063E-1,2.886253297E-1,8.192989230E-2
5.986410468E0,-1.546207070E-1,9.727742523E-2,5.734328553E-2
6.006520572E0,-3.352024406E-2,2.290677279E-3,2.508291602E-1
6.026630676E0,-1.000262424E-2,-7.757759839E-2,1.947839260E-1
6.046740832E0,4.787515476E-2,9.468132630E-3,6.482616812E-2
6.066850937E0,5.474718660E-2,-1.068982761E-3,1.733279042E-2
6.086961093E0,4.451549426E-2,-3.603998944E-2,5.459447205E-2
6.107071197E0,2.863346599E-2,-4.184303805E-2,7.444700599E-2
6.127181301E0,2.252499200E-2,-8.658760041E-2,6.665870547E-2
6.147291457E0,1.595838554E-2,-1.447708011E-1,5.108210072E-2
6.167401562E0,3.031329438E-2,-1.291942000E-1,2.939702384E-2
6.187511718E0,1.228566542E-1,-9.483403713E-2,-1.611109637E-2
6.207621822E0,1.653105468E-1,-1.136175916E-1,-4.176668078E-2
6.227731926E0,1.298813969E-1,-1.524063945E-1,4.504998680E-3
6.247842082E0,7.826480269E-2,-2.345653474E-1,6.055023521E-2
6.267952187E0,2.725905925E-2,-2.980934680E-1,7.368344814E-2
6.288062343E0,1.702736691E-2,-2.956500649E-1,5.657972768E-2
6.308172447E0,4.023956135E-2,-2.241809368E-1,5.573981442E-3
6.328282603E0,2.344126441E-2,-1.168245375E-1,-6.772769243E-2
6.348392707E0,-2.680092305E-2,1.078145429E-1,-1.239256412E-1
6.368502812E0,-5.260922015E-2,1.414111406E-1,-1.530935913E-1
6.388612968E0,-5.657972768E-2,1.276670843E-1,-1.489703804E-1
6.408723072E0,-5.489989743E-2,1.137702987E-1,-1.164427623E-1
6.428833228E0,-5.642701685E-2,7.849387079E-2,-7.857023180E-2
6.448943332E0,-4.023956135E-2,2.718270384E-2,-5.520532280E-2
6.469053437E0,-2.878617682E-2,-2.351761982E-2,-5.673243850E-2
6.489163593E0,-4.573718831E-2,-3.848337755E-2,-7.475243509E-2
6.509273697E0,-6.421531737E-2,-1.740914769E-2,-1.040730998E-1
6.529383853E0,-3.764346242E-2,1.939439960E-2,-1.201078445E-1
6.549493957E0,8.170082234E-3,3.268032894E-2,-1.249946207E-1
6.569604114E0,2.221956849E-2,2.596100792E-3,-1.208714023E-1
6.589714218E0,3.107685409E-2,-4.321744293E-2,-1.199551299E-1
6.609824322E0,4.359922186E-2,-6.291726977E-2,-1.204132661E-1
6.629934478E0,5.428905040E-2,-5.268557742E-2,-1.069746241E-1
6.650044582E0,2.909160033E-2,-4.138490185E-2,-1.013242900E-1
6.670154739E0,-8.322793990E-3,-3.008422814E-2,-1.026986986E-1
6.690264843E0,-2.099787444E-2,-2.672456764E-2,-9.949174523E-2
6.710374999E0,-1.603474026E-3,-3.512371797E-3,-8.635853231E-2
6.730485103E0,2.848075330E-2,3.970507067E-3,-6.818582863E-2
6.750595207E0,4.023956135E-2,-2.214321308E-2,-4.543176666E-2
6.770705364E0,6.467345357E-2,-4.230117425E-2,-3.153498843E-2
6.790815468E0,1.123195365E-1,-4.734066129E-2,-3.855973482E-2
6.810925624E0,1.540098637E-1,-8.200624585E-2,-4.390464723E-2
6.831035728E0,1.926459521E-1,-9.315420687E-2,-3.168770298E-2
6.851145885E0,2.344889939E-1,-1.049130186E-1,-3.588727675E-3
6.871255989E0,2.193705291E-1,-1.459924877E-1,3.367295489E-2
6.891366145E0,1.336991936E-1,-1.003316641E-1,7.261446863E-2
6.911476249E0,6.543701142E-2,-5.222744122E-2,9.918632358E-2
6.931586405E0,9.544488043E-3,-4.886778072E-2,1.243837699E-1
6.951696510E0,-4.863871261E-2,-3.665083647E-2,1.285069883E-1
6.971806666E0,-7.276718318E-2,1.832541777E-3,1.109451354E-1
6.991916770E0,-7.750124484E-2,1.847812906E-2,1.071273386E-1
7.012026874E0,-7.872293890E-2,5.207473040E-2,1.214822456E-1
7.032137030E0,-6.986565888E-2,9.712471068E-2,1.329356283E-1
7.052247135E0,-5.825955793E-2,1.014006436E-1,1.521773189E-1
7.072357291E0,-2.374668792E-2,7.727217674E-2,1.590493619E-1
7.092467395E0,1.061347127E-2,3.344388679E-2,1.440836042E-1
7.112577551E0,2.367033157E-3,2.229592577E-2,1.301868260E-1
7.132687655E0,-2.893888950E-2,4.718795046E-2,1.278961450E-1
7.152797812E0,-3.749075159E-2,6.520794332E-2,1.254527569E-1
7.172907916E0,-8.170082234E-3,5.528167635E-2,1.193442866E-1
7.193018072E0,4.222481698E-2,1.298050396E-2,1.150683537E-1
7.213128176E0,8.376242965E-2,-1.084253844E-2,1.101815775E-1
7.233238332E0,7.017108053E-2,7.024743594E-3,9.994988143E-2
7.253348437E0,4.405735806E-2,5.054761097E-2,9.124530852E-2
7.273458593E0,4.405735806E-2,5.864133686E-2,7.902836055E-2
7.293568697E0,3.168770298E-2,3.405473381E-2,6.757497787E-2
7.313678801E0,4.963133950E-3,-4.275931045E-3,4.848600179E-2
7.333788957E0,-9.697199799E-3,-9.162709117E-3,3.901786730E-2
7.353899114E0,8.170082234E-3,9.620844387E-3,2.848075330E-2
7.374009218E0,2.389939874E-2,2.214321308E-2,1.947075687E-2
7.394119374E0,1.076618303E-2,2.412846684E-2,2.557922900E-2
7.414229478E0,-1.962346770E-2,2.382304333E-2,2.695363574E-2
7.434339582E0,-3.550549597E-2,3.405473381E-2,1.977618039E-2
7.454449739E0,-3.458922729E-2,2.275406010E-2,7.711946499E-3
7.474559843E0,-3.917058185E-2,-3.206948051E-3,2.672456671E-3
7.494669999E0,-4.879142344E-2,-1.725643501E-2,5.421269219E-3
7.514780155E0,-6.116108224E-2,-5.955760833E-3,2.290677221E-4
7.534890260E0,-5.642701685E-2,-1.985253533E-3,-9.086352773E-3
7.555000416E0,-2.771719359E-2,-8.399149403E-3,-2.038702741E-2
7.575110520E0,-2.924431302E-2,-2.183778957E-2,-2.237228118E-2
7.595220624E0,-4.848600179E-2,-3.680354729E-2,-2.206685767E-2
7.615330780E0,-5.978667364E-2,-3.145863488E-2,-3.428380191E-2
7.635440937E0,-4.940227047E-2,-2.260134928E-2,-4.573718831E-2
7.655551041E0,-3.061871976E-2,-1.328592747E-2,-5.123481527E-2
7.675661197E0,-2.221956849E-2,-6.261184346E-3,-4.558447748E-2
7.695771301E0,-1.733279042E-2,2.443389036E-3,-4.680617154E-2
7.715881457E0,-3.122956678E-2,-5.955760833E-3,-5.749600008E-2
7.735991562E0,-3.000787087E-2,4.428642802E-3,-6.436803192E-2
7.756101718E0,-6.948387716E-3,3.512371797E-3,-5.917582661E-2
7.776211822E0,-2.069245093E-2,-1.420219894E-2,-6.345175952E-2
7.796321978E0,-6.833853573E-2,-3.817795310E-3,-7.979192585E-2
7.816432082E0,-1.030041203E-1,1.542389300E-2,-9.567394853E-2
7.836542239E0,-9.109259397E-2,2.840439789E-2,-1.020878479E-1
7.856652343E0,-5.322006717E-2,1.893626526E-2,-1.016297117E-1
7.876762499E0,-3.413109109E-2,-6.261184346E-3,-8.360971510E-2
7.896872603E0,-6.910209358E-2,-3.756710514E-2,-6.314633787E-2
7.916982760E0,-9.659022093E-2,-2.855710872E-2,-3.672719002E-2
7.937092864E0,-3.489464894E-2,-8.857285604E-3,-1.305686031E-2
7.957203020E0,7.505785674E-2,-1.985253533E-3,1.901262067E-2
7.977313176E0,1.488176584E-1,-3.848337755E-2,4.115583375E-2
7.997423280E0,1.211768240E-1,-8.200624585E-2,3.840702027E-2
8.017533437E0,5.428905040E-2,-7.925742865E-2,1.145338640E-3
8.037643541E0,2.435753495E-2,-5.008947477E-2,-5.016583204E-2
8.057753697E0,1.947075687E-2,-4.291202128E-2,-8.803836256E-2
8.077863801E0,1.885990985E-2,-4.764608666E-2,-1.066692024E-1
8.097973957E0,2.252499200E-2,-4.550812021E-2,-1.188861504E-1
8.118084062E0,1.366770733E-2,-3.344388679E-2,-1.370588541E-1
8.138194218E0,-6.184828468E-3,-2.519745007E-2,-1.631725729E-1
8.158304374E0,-8.322793990E-3,-1.679829881E-2,-1.779856235E-1
8.178414478E0,7.406522986E-3,-9.926267900E-3,-1.743205339E-1
8.198524635E0,-2.672456671E-3,-1.099525020E-2,-1.619508862E-1
8.218634739E0,-1.351499557E-2,-5.344913341E-3,-1.537044346E-1
8.238744895E0,-2.099787444E-2,-1.603474095E-2,-1.425564736E-1
8.258854999E0,-4.146125913E-2,-2.977880463E-2,-1.285069883E-1
8.278965155E0,-7.032378763E-2,-1.740914769E-2,-1.249946207E-1
8.299075260E0,-7.841751724E-2,7.635590737E-4,-1.156791970E-1
8.319185416E0,-5.413633958E-2,-1.374406274E-3,-9.842276573E-2
8.339295572E0,-7.253811229E-3,-1.053711493E-2,-7.353074104E-2
8.359405676E0,5.505260825E-2,-1.023169141E-2,-4.573718831E-2
8.379515832E0,8.315158635E-2,-3.054236295E-3,-1.702736691E-2
8.399625937E0,6.299362332E-2,-9.009997360E-3,-2.672456671E-3
8.419736093E0,1.443126611E-2,-2.748812549E-3,-8.322793990E-3
8.439846197E0,-2.649549954E-2,1.710372418E-2,-2.680092305E-2
8.459956353E0,-3.947600350E-2,5.176930502E-2,-3.413109109E-2
8.480066510E0,-1.382041909E-2,6.261184067E-2,-1.214058883E-2
8.500176614E0,3.260397166E-2,4.795150831E-2,3.000787087E-2
8.520286770E0,6.467345357E-2,4.459185153E-2,6.390989572E-2
8.540396874E0,5.474718660E-2,5.528167635E-2,7.093463838E-2
8.560507030E0,2.252499200E-2,4.840964451E-2,6.192464009E-2
8.580617187E0,-6.642963737E-3,2.489202656E-2,5.276193097E-2
8.600727291E0,-2.519744914E-3,1.099525020E-2,4.894413799E-2
8.620837447E0,1.259872504E-2,1.404948719E-2,4.818057641E-2
8.640947551E0,2.191414498E-2,1.817270555E-2,5.138752609E-2
8.661057707E0,3.550549597E-2,2.031067200E-2,4.986040667E-2
8.681167864E0,3.306210786E-2,9.162709117E-3,3.810159862E-2
8.701277968E0,2.252499200E-2,7.177455351E-3,2.008160390E-2
8.721388124E0,1.305686031E-2,2.015795931E-2,8.780929260E-3
8.741498228E0,-1.137703005E-2,3.008422814E-2,2.061609412E-3
8.761608385E0,-4.634803534E-2,5.192201585E-3,-8.017370477E-3
8.781718541E0,-4.298837483E-2,4.275931045E-3,-1.443126611E-2
8.801828645E0,6.642963737E-3,1.740914769E-2,-8.475505747E-3
8.821938801E0,2.466295846E-2,-1.527118147E-3,1.366770733E-2
8.842048905E0,1.901262067E-2,1.023169141E-2,4.130854458E-2
8.862159062E0,1.977618039E-2,3.191677108E-2,3.458922729E-2
8.882269218E0,2.451024577E-2,6.276455522E-2,1.992889121E-2
8.902379322E0,4.665346071E-2,7.681404054E-2,3.741439432E-3
8.922489478E0,1.550024934E-2,2.916795574E-2,6.795675959E-3
8.942599582E0,-5.169294775E-2,-1.924168877E-2,1.977618039E-2
8.962709739E0,-8.269345015E-2,-3.527642787E-2,1.000262424E-2
8.982819895E0,-7.505785674E-2,-3.374931216E-2,-7.635590737E-5
9.002929999E0,-6.192464009E-2,-6.444438547E-2,3.436015919E-3
9.023040155E0,-7.001836598E-2,-1.055238619E-1,1.443126611E-2
9.043150312E0,-6.849125028E-2,-1.453816444E-1,1.565296017E-2
9.063260416E0,-6.329904497E-2,-1.528645307E-1,6.032116711E-3
9.083370572E0,-5.169294775E-2,-1.291942000E-1,1.450762269E-3
9.103480676E0,-4.253023863E-2,-1.073564067E-1,8.170082234E-3
9.123590832E0,-4.970769584E-2,-8.017370105E-2,1.687465608E-2
9.143700989E0,-6.635328382E-2,-5.161659420E-2,1.290414855E-2
9.163811093E0,-6.238277629E-2,-4.825693369E-2,8.399150101E-4
9.183921249E0,-4.970769584E-2,-6.108472496E-2,-1.183516532E-2
9.204031405E0,-6.070294604E-2,-9.636115283E-2,-2.496838197E-2
9.224141510E0,-8.147175610E-2,-9.941539168E-2,-3.474193811E-2
9.244251666E0,-8.131904155E-2,-8.093725890E-2,-3.749075159E-2
9.264361770E0,-9.582666308E-2,-8.475505561E-2,-4.695888236E-2
9.284471926E0,-1.112505570E-1,-6.734590977E-2,-5.902311578E-2
9.304582082E0,-9.032903612E-2,-4.443913698E-2,-5.963396281E-2
9.324692187E0,-5.978667364E-2,-5.451811850E-2,-5.612159148E-2
9.344802343E0,-4.940227047E-2,-7.834116369E-2,-6.635328382E-2
9.364912499E0,-5.337277800E-2,-6.459710002E-2,-7.902836055E-2
9.385022655E0,-6.665870547E-2,-4.046862945E-2,-7.902836055E-2
9.405132760E0,-4.879142344E-2,-6.566607859E-3,-6.039752439E-2
9.425242916E0,-2.542651631E-2,1.221694518E-3,-5.703786388E-2
9.445353020E0,-1.626380906E-2,-1.145338640E-2,-6.055023521E-2
9.465463176E0,-1.076618303E-2,-3.268032894E-2,-5.459447205E-2
9.485573332E0,-1.137703005E-2,-4.993676394E-2,-3.749075159E-2
9.505683437E0,-1.580567285E-2,-7.788302749E-2,-2.496838197E-2
9.525793593E0,-6.948387716E-3,-9.055810422E-2,-3.046600707E-2
9.545903749E0,1.450762269E-3,-6.963659078E-2,-4.772244394E-2
9.566013853E0,1.076618303E-2,-1.969982497E-2,-6.497887522E-2
9.586124010E0,4.176668078E-2,2.764083818E-2,-7.704310864E-2
9.606234166E0,7.017108053E-2,2.122694254E-2,-8.040276915E-2
9.626344322E0,6.055023521E-2,2.199050039E-2,-7.765395939E-2
9.646454426E0,1.214058883E-2,3.619270027E-2,-7.826480269E-2
9.666564582E0,-6.070294604E-2,3.145863488E-2,-8.131904155E-2
9.686674739E0,-8.498412371E-2,3.023693897E-2,-8.666395396E-2
9.706784843E0,-6.406260282E-2,6.245913357E-2,-9.643751383E-2
9.726894999E0,-4.695888236E-2,5.986303091E-2,-7.429429889E-2
9.747005155E0,-3.596363217E-2,3.878879920E-2,-1.244601328E-2
9.767115260E0,1.595838554E-2,1.985253580E-2,5.627430230E-2
9.787225416E0,3.611634299E-2,-1.221694518E-3,9.842276573E-2
9.807335572E0,-5.726693198E-3,1.068982761E-3,8.910734206E-2
9.827445676E0,-3.168770298E-2,4.749337584E-2,6.910209358E-2
9.847555832E0,1.298050396E-3,8.689302206E-2,7.566870749E-2
9.867665989E0,3.749075159E-2,8.918370306E-2,9.032903612E-2
9.887776145E0,2.267770469E-2,6.749862432E-2,1.039203927E-1
9.907886249E0,-7.711946499E-3,5.192201585E-2,9.781191498E-2
9.927996405E0,-3.565821052E-2,7.482878864E-2,7.627955079E-2
9.948106562E0,-6.604786217E-2,1.041494608E-1,6.986565888E-2
9.968216666E0,-1.094180122E-1,8.093725890E-2,9.109259397E-2
9.988326822E0,-1.330883503E-1,6.077930331E-2,1.072800532E-1
1.000843698E1,-5.322006717E-2,1.088835225E-1,1.127776727E-1
1.002854708E1,9.628479928E-2,1.957765520E-1,1.179698780E-1
1.004865724E1,1.775274873E-1,2.058555335E-1,1.214822456E-1
1.006876740E1,1.329356283E-1,1.023169160E-1,1.170536056E-1
1.008887755E1,2.817532979E-2,9.162709117E-3,1.227039397E-1
1.010898766E1,6.650599837E-2,1.267508045E-2,1.263690293E-1
1.012909781E1,2.515927255E-1,3.008422814E-2,1.071273386E-1
1.014920797E1,3.401655555E-1,-5.558710173E-2,8.696937561E-2
1.016931807E1,2.618243992E-1,-1.716480851E-1,6.528430432E-2
1.018942823E1,6.253548712E-2,-2.907632887E-1,3.840702027E-2
1.020953838E1,-1.149156392E-1,-2.834331393E-1,4.344651103E-2
1.022964854E1,-5.917582661E-2,-7.253811508E-2,2.221956849E-2
1.024975864E1,1.775274873E-1,1.688992679E-1,-6.681142002E-2
1.026986880E1,3.247416615E-1,1.420219839E-1,-1.216349602E-1
1.028997896E1,2.271588296E-1,-9.269607067E-2,-8.666395396E-2
1.031008911E1,4.451549426E-2,-1.383569092E-1,-6.650599837E-2
1.033019922E1,-1.608818918E-1,2.118112892E-1,-8.635853231E-2
1.035030937E1,-4.400390983E-1,6.433748603E-1,-1.207186878E-1
1.037041953E1,-3.951418102E-1,4.596625566E-1,-1.636307091E-1
1.039052964E1,2.714452446E-1,-3.629959822E-1,-1.847049445E-1
1.041063979E1,1.075854778E0,-8.649597168E-1,-1.947839260E-1
1.043074995E1,1.188556075E0,-9.170344472E-1,-1.862320602E-1
1.045086010E1,5.654155016E-1,-5.024218559E-1,-1.103342846E-1
1.047097021E1,-1.439308822E-1,2.669402659E-1,-4.466820508E-2
1.049108036E1,-4.082750380E-1,7.914289832E-1,-6.161921844E-2
1.051119052E1,-3.737621605E-1,7.482115626E-1,-7.505785674E-2
1.053130068E1,-3.071798086E-1,2.411319613E-1,-3.855973482E-2
1.055141078E1,-2.963372767E-1,-2.932066917E-1,-1.962346770E-2
1.057152094E1,-4.817294180E-1,-4.227063060E-1,-3.855973482E-2
1.059163109E1,-7.353837490E-1,-3.894151375E-2,-5.306735635E-2
1.061174125E1,-7.897491455E-1,4.501944184E-1,-7.253811229E-3
1.063185135E1,-6.225296855E-1,6.143596172E-1,1.422510594E-1
1.065196151E1,-3.664320111E-1,3.840702176E-1,2.772482932E-1
1.067207167E1,-1.413347870E-1,2.290677279E-2,2.705289721E-1
1.069218182E1,-1.100288630E-1,-1.769929975E-1,1.845522225E-1
1.071229193E1,-2.208976448E-1,-3.359659761E-2,1.378224194E-1
1.073240208E1,-2.522035539E-1,2.367033064E-1,1.598129123E-1
1.075251224E1,-1.730988473E-1,3.715478480E-1,1.992125660E-1
1.077262240E1,-1.836359501E-1,4.057552814E-1,2.027249336E-1
1.079273255E1,-2.567849159E-1,4.634803534E-1,1.828723997E-1
1.081284266E1,-1.089598835E-1,4.147652984E-1,1.019351333E-1
1.083295281E1,2.222720534E-1,2.312056869E-1,4.665346071E-2
1.085306297E1,5.286119580E-1,-7.635590620E-3,4.344651103E-2
1.087317312E1,6.148941517E-1,-2.128802687E-1,4.818057641E-2
1.089328323E1,4.482855201E-1,-2.790044844E-1,5.322006717E-2
1.091339339E1,2.859528661E-1,-2.017323077E-1,3.672719002E-2
1.093350354E1,3.120665848E-1,-1.235438585E-1,-2.130329795E-2
1.095361370E1,4.029301107E-1,-1.472141892E-1,-8.727480471E-2
1.097372380E1,3.287121952E-1,-2.819060087E-1,-1.440836042E-1
1.099383396E1,1.052947938E-1,-3.254288733E-1,-1.532463133E-1
1.101394411E1,-2.267770469E-2,-2.512109280E-1,-1.564532518E-1
1.103405427E1,-4.451549426E-2,-1.837123185E-1,-1.236202121E-1
1.105416443E1,5.092938989E-2,-1.644706279E-1,-3.581092134E-2
1.107427453E1,2.158581465E-1,-1.618745178E-1,3.199312463E-2
1.109438469E1,3.226037025E-1,-9.559759498E-2,4.421006888E-2
1.111449484E1,2.160108685E-1,2.565558441E-2,4.970769584E-2
1.113460500E1,-3.134410083E-1,-2.979407609E-1,1.414874941E-1
1.115471510E1,-9.348253608E-1,-3.800997138E-1,1.782910377E-1
1.117482526E1,-9.476531744E-1,1.368297935E-1,-1.412584260E-2
1.119493542E1,-3.896442056E-1,3.197785318E-1,-2.573194169E-2
1.121504557E1,-1.336228382E-2,1.511846948E-2,1.520246118E-1
1.123515573E1,-1.436254680E-1,-1.795890927E-1,1.874537468E-1
1.125526588E1,-4.837146699E-1,-1.870719790E-1,1.097234413E-1
1.127537599E1,-6.753680110E-1,-1.540862173E-1,6.925480813E-2
1.129548614E1,-6.297071576E-1,-5.482354015E-2,3.794888780E-2
1.131559630E1,-3.774272501E-1,7.055285573E-2,1.534753758E-2
1.133570646E1,-5.902311578E-2,7.605048269E-2,-2.367033157E-3
1.135581661E1,1.579803675E-1,-3.527642787E-2,-1.931804419E-2
1.137592672E1,1.605764776E-1,-1.568350345E-1,-8.315158635E-2
1.139603687E1,-4.298837483E-2,-2.365505993E-1,-1.373642832E-1
1.141614703E1,-2.369323820E-1,-2.179197669E-1,-1.282015741E-1
1.143625719E1,-2.323510200E-1,-6.841489673E-2,-8.147175610E-2
1.145636734E1,-1.214822456E-1,4.260659590E-2,-2.695363574E-2
1.147647750E1,-1.504211407E-2,7.635590620E-3,2.878617682E-2
1.149658760E1,1.272853017E-1,-1.070509851E-1,6.039752439E-2
1.151669776E1,3.481065929E-1,-1.317902952E-1,8.086090535E-2
1.153680792E1,5.275429487E-1,-3.939964995E-2,1.042258143E-1
1.155691807E1,5.797703862E-1,7.070557028E-2,1.530935913E-1
1.157702823E1,4.876851737E-1,1.218640283E-1,1.938676536E-1
1.159713833E1,2.844257653E-1,1.314848661E-1,2.292967886E-1
1.161724849E1,1.431673318E-1,1.322484314E-1,2.245627195E-1
1.163735864E1,1.784437597E-1,1.328592747E-1,1.779856235E-1
1.165746880E1,2.693072855E-1,1.860029846E-1,1.210241169E-1
1.167757896E1,3.604762256E-1,3.828485310E-1,7.429429889E-2
1.169768911E1,4.605024755E-1,4.396573007E-1,3.672719002E-2
1.171779922E1,5.023455024E-1,2.389939874E-1,5.047125369E-2
1.173790937E1,5.716766715E-1,1.450762302E-1,8.849649876E-2
1.175801953E1,6.236750484E-1,1.798945218E-1,5.688514933E-2
1.177812969E1,4.122455418E-1,1.166718230E-1,2.290677221E-4
1.179823984E1,-3.290939704E-2,-2.399102598E-1,-1.229330152E-2
1.181835000E1,-4.152997732E-1,-4.286620617E-1,1.962346770E-2
1.183846010E1,-3.985014856E-1,-4.474456236E-2,-4.497363046E-2
1.185857026E1,-1.836359501E-1,2.157817930E-1,-1.546207070E-1
1.187868042E1,-3.021403253E-1,3.084778599E-2,-1.217876747E-1
1.189879057E1,-6.684959531E-1,-1.061347127E-1,-1.183516532E-2
1.191890073E1,-8.670213223E-1,1.801999472E-2,4.756972939E-2
1.193901088E1,-8.479323387E-1,9.880454093E-2,7.246175408E-2
1.195912104E1,-7.324821949E-1,6.810946763E-2,1.361425817E-1
1.197923114E1,-5.249468684E-1,5.253286287E-2,1.717244387E-1
1.199934130E1,-2.917559147E-1,2.901524492E-2,1.607291847E-1
1.201945146E1,-1.385859698E-1,-2.550287358E-2,1.391968131E-1
1.203956161E1,-6.574243307E-2,-8.383878320E-2,1.135412306E-1
1.205967177E1,2.771719359E-2,-9.880454093E-2,8.070819080E-2
1.207978193E1,1.769166440E-1,-1.269035190E-1,1.168245357E-2
1.209989203E1,2.928248942E-1,1.099525020E-2,-4.100312293E-2
1.212000219E1,3.076379597E-1,2.368560284E-1,-6.833853573E-2
1.214011234E1,3.018349111E-1,3.112266660E-1,-8.513683826E-2
1.216022250E1,3.528406620E-1,1.699682474E-1,-1.249946207E-1
1.218033266E1,3.700970709E-1,-2.367033064E-2,-1.747786701E-1
1.220044281E1,3.062635362E-1,-9.804098308E-2,-2.030303627E-1
1.222055297E1,2.199813724E-1,-1.340809762E-1,-2.074590027E-1
1.224066312E1,1.818034202E-1,-1.719534993E-1,-1.718771458E-1
1.226077328E1,1.869956106E-1,-1.776038408E-1,-1.533990204E-1
1.228088339E1,1.642415524E-1,-1.620272398E-1,-1.749313772E-1
1.230099354E1,1.112505570E-1,-1.774511337E-1,-2.219666243E-1
1.232110370E1,6.696412712E-2,-1.951656938E-1,-2.584647536E-1
1.234121385E1,1.078908965E-1,-1.760767251E-1,-2.387649268E-1
1.236132401E1,1.984490007E-1,-1.863084137E-1,-1.877591759E-1
1.238143417E1,1.789018959E-1,-2.330382317E-1,-1.249946207E-1
1.240154432E1,7.765395939E-2,-1.776038408E-1,-1.164427623E-1
1.242165448E1,2.328855172E-2,1.832541823E-2,-1.784437597E-1
1.244176458E1,-9.979717433E-2,-1.675248593E-1,-1.433200389E-1
1.246187474E1,-2.118876427E-1,-1.244601309E-1,-1.152210608E-1
1.248198490E1,-1.840177365E-2,2.667875290E-1,-1.990598440E-1
1.250209505E1,4.463002682E-1,1.007898003E-1,-1.732515544E-1
1.252220521E1,5.502970219E-1,-6.514685750E-1,4.588989913E-2
1.254231536E1,-2.603736520E-2,-8.157865405E-1,1.060583517E-1
1.256242552E1,-7.092700005E-1,-2.506000996E-1,-1.254527569E-1
1.258253568E1,-1.028743148E0,2.082989216E-1,-3.423035443E-1
1.260264583E1,-1.039433002E0,2.278460264E-1,-3.316137195E-1
1.262275594E1,-8.462525010E-1,1.291942000E-1,-2.233410329E-1
1.264286609E1,-3.784962296E-1,7.513421029E-2,-9.170344472E-2
1.266297625E1,6.711684167E-2,-4.428642802E-3,-7.253811229E-3
1.268308641E1,1.766112149E-1,-6.490252167E-2,2.328855172E-2
1.270319656E1,4.810422193E-3,-1.985253533E-3,-2.710634656E-2
1.272330672E1,-2.357106805E-1,3.512371704E-2,-1.214822456E-1
1.274341687E1,-3.652102947E-1,-6.139015034E-2,-1.975327283E-1
1.276352703E1,-2.213557810E-1,-1.120904684E-1,-2.106659412E-1
1.278363719E1,1.590493619E-1,-5.024218559E-2,-1.651578248E-1
1.280374734E1,4.988331497E-1,9.208522737E-2,-3.275668249E-2
1.282385750E1,6.817055345E-1,2.389939874E-1,1.278961450E-1
1.284396760E1,6.919372082E-1,2.904578745E-1,2.128039151E-1
1.286407776E1,5.640410781E-1,2.296785712E-1,2.578538954E-1
1.288418792E1,4.414134920E-1,1.398840249E-1,2.810660899E-1
1.290429807E1,4.209501147E-1,4.993676394E-2,2.709871233E-1
1.292440823E1,4.582118094E-1,-9.009997360E-3,2.509818673E-1
1.294451838E1,4.130091071E-1,-7.284353673E-2,2.396811992E-1
1.296462854E1,2.903815210E-1,-1.108687744E-1,2.607554197E-1
1.298473870E1,2.183015347E-1,-1.169772521E-1,3.138991296E-1
1.300484885E1,3.137464225E-1,7.513421029E-2,3.448996246E-1
1.302495901E1,4.922665358E-1,3.029802442E-1,2.954210043E-1
1.304506917E1,4.382065535E-1,1.377460510E-1,2.783172727E-1
1.306517932E1,1.343100369E-1,-2.284568697E-1,3.339043856E-1
1.308528948E1,-1.705027372E-1,-3.243598938E-1,3.186331987E-1
1.310539958E1,-4.046099484E-1,-2.409792393E-1,2.355579734E-1
1.312550974E1,-5.121190548E-1,-2.290677279E-3,1.796654463E-1
1.314561990E1,-4.864634871E-1,2.531961799E-1,1.689756215E-1
1.316573005E1,-4.310291111E-1,2.909159958E-1,2.086806893E-1
1.318584021E1,-4.762317836E-1,1.685938388E-1,2.468586415E-1
1.320595036E1,-6.176429391E-1,6.933116168E-2,2.592283189E-1
1.322606052E1,-6.658998728E-1,8.215895295E-2,2.732777894E-1
1.324617068E1,-5.318188667E-1,1.175880954E-1,2.828986347E-1
1.326628083E1,-3.224509954E-1,1.102579311E-1,3.047364354E-1
1.328639099E1,-1.233147904E-1,3.512371704E-2,3.117611706E-1
1.330650114E1,3.894151188E-3,-7.971556485E-2,3.016822040E-1
1.332661130E1,6.543701142E-2,-1.679829955E-1,2.804552615E-1
1.334672146E1,1.746259630E-1,-1.652341783E-1,2.386122048E-1
1.336683161E1,3.181750774E-1,-1.579040140E-1,1.859266311E-1
1.338694177E1,3.678064048E-1,-1.611109674E-1,1.555369794E-1
1.340705193E1,3.300865889E-1,-1.685938388E-1,1.185807213E-1
1.342716208E1,2.410555929E-1,-1.641651988E-1,4.085041210E-2
1.344727219E1,1.659213901E-1,-1.435490996E-1,-6.681142002E-2
1.346738234E1,1.407239437E-1,-1.614163816E-1,-1.332410574E-1
1.348749250E1,7.734853774E-2,-1.895153672E-1,-1.329356283E-1
1.350760266E1,-2.023431472E-2,-1.163664013E-1,-1.187334359E-1
1.352771281E1,-1.097234413E-1,-2.458660305E-2,-1.488176584E-1
1.354782297E1,-9.261971712E-2,5.085303262E-2,-2.053210288E-1
1.356793312E1,4.329380020E-2,4.413371533E-2,-2.459423840E-1
1.358804328E1,1.868429035E-1,-6.383354217E-2,-2.040993422E-1
1.360815344E1,2.121930718E-1,-2.133384049E-1,-1.515664756E-1
1.362826359E1,1.676012129E-1,-2.043284029E-1,-1.109451354E-1
1.364837375E1,2.885489762E-1,-7.482878864E-3,-9.017632902E-2
1.366848390E1,3.481065929E-1,2.125748396E-1,-9.994988143E-2
1.368859406E1,4.359922186E-2,1.360662282E-1,-7.490514219E-2
1.370870422E1,-4.377484024E-1,-9.651386738E-2,-5.092938989E-2
1.372881437E1,-8.328138590E-1,-2.418955117E-1,-8.284615725E-2
1.374892453E1,-1.040043831E0,-3.318427801E-1,-1.028514057E-1
1.376903469E1,-8.018133640E-1,8.704573847E-3,-1.130831018E-1
1.378914484E1,-3.693335354E-1,5.763344169E-1,-9.475768358E-2
1.380925500E1,-2.401393354E-1,7.572215199E-1,1.855448633E-2
1.382936516E1,-3.390965760E-1,4.996730685E-1,1.260636002E-1
1.384947531E1,-4.540885687E-1,1.345391124E-1,1.506502032E-1
1.386958547E1,-4.211028218E-1,6.383354217E-2,4.986040667E-2
1.388969562E1,-2.848838866E-1,2.005106062E-1,-9.078717232E-2
1.390980578E1,-1.679066420E-1,3.379512429E-1,-7.276718318E-2
1.392991594E1,-9.521581978E-2,2.461714447E-1,6.956022978E-2
1.395002609E1,-5.459447205E-2,7.024743408E-2,1.978381574E-1
1.397013625E1,8.590039611E-2,1.049130186E-1,1.805817187E-1
1.399024640E1,3.163425326E-1,2.076880634E-1,8.177717775E-2
1.401035656E1,4.539358616E-1,1.913478971E-1,4.879142344E-2
1.403046672E1,5.011238456E-1,1.985253580E-2,1.199551299E-1
1.405057687E1,5.463265181E-1,-9.239064902E-2,1.911188364E-1
1.407068703E1,5.791595578E-1,-3.909422457E-2,1.831778288E-1
1.409079719E1,5.803812742E-1,3.894151375E-2,1.453052908E-1
1.411090734E1,5.550310612E-1,5.131116882E-2,1.251473278E-1
1.413101750E1,6.185591817E-1,1.036913246E-1,1.416402012E-1
1.415112766E1,7.673768401E-1,1.766875684E-1,1.340046227E-1
1.417123781E1,7.394306064E-1,4.581354558E-2,1.645469815E-1
1.419134797E1,4.395809472E-1,-1.966928244E-1,2.036412060E-1
1.421145812E1,6.543701142E-2,-1.206423342E-1,1.564532518E-1
1.423156828E1,-1.840177365E-2,2.990097404E-1,-4.711159319E-2
1.425167844E1,-1.060583517E-1,1.423274130E-1,-2.034884989E-1
1.427178859E1,-5.588488579E-1,-5.787777901E-1,-8.819106966E-2
1.429189875E1,-8.219713569E-1,-7.272136807E-1,4.940227047E-2
1.431200890E1,-4.786751866E-1,-2.350234836E-1,-8.399150101E-4
1.433211906E1,-3.092414327E-2,1.207950488E-1,6.337540224E-3
1.435222922E1,5.726693198E-3,1.218640283E-1,1.431673318E-1
1.437233937E1,-1.060583517E-1,6.795676053E-2,1.563005447E-1
1.439244953E1,-1.097234413E-1,4.932591692E-2,7.979192585E-2
1.441255969E1,-9.903360903E-2,1.389677543E-2,8.475505747E-3
1.443266984E1,-2.189123929E-1,-6.810946763E-2,-4.046862945E-3
1.445278000E1,-4.120928347E-1,-1.252236813E-1,2.130329795E-2
1.447289016E1,-4.266004562E-1,-6.841489673E-2,2.939702384E-2
1.449300031E1,-2.134147584E-1,2.000524849E-2,2.512109280E-2
1.451311047E1,1.855448633E-2,3.771981969E-2,5.169294775E-2
1.453322062E1,1.665322334E-1,2.458660305E-2,6.223006546E-2
1.455333078E1,2.247154415E-1,2.886253223E-2,2.741177008E-2
1.457344094E1,2.509818673E-1,3.741439432E-2,-2.313583903E-2
1.459355109E1,3.487174213E-1,-3.115320951E-2,-3.367295489E-2
1.461366125E1,4.391228259E-1,-1.870719790E-1,2.344126441E-2
1.463377141E1,4.246152043E-1,-2.564031482E-1,9.078717232E-2
1.465388156E1,1.906607002E-1,-2.134911120E-1,4.199574701E-3
1.467399172E1,-1.112505570E-1,-1.618745178E-2,-2.224247605E-1
1.469410187E1,-2.366269529E-1,1.105633527E-1,-4.383592606E-1
1.471421208E1,-1.405712217E-1,8.689302206E-2,-4.615714550E-1
1.473432224E1,-6.032116711E-3,-5.696150661E-2,-3.137464225E-1
1.475443240E1,5.963396281E-2,-1.349972486E-1,-1.483595222E-1
1.477454255E1,5.612159148E-2,-4.550812021E-2,-9.475768358E-2
1.479465271E1,6.299362332E-2,2.341072112E-1,-1.364480108E-1
1.481476286E1,1.046075951E-2,1.910424829E-1,-1.278961450E-1
1.483487302E1,-3.212293088E-1,-3.695625961E-1,-3.130592173E-3
1.485498318E1,-6.465054750E-1,-5.099047422E-1,1.260636002E-1
1.487509333E1,-5.597651601E-1,-1.105633527E-1,1.443890184E-1
1.489520349E1,-3.367295489E-2,2.414373755E-1,1.173590273E-1
1.491531365E1,2.661003470E-1,1.817270666E-1,1.340046227E-1
1.493542380E1,-1.733279042E-2,-1.618745178E-1,1.781383306E-1
1.495553396E1,-4.638621509E-1,-3.266505599E-1,2.140256017E-1
1.497564411E1,-5.644991994E-1,-8.475505561E-2,2.015032321E-1
1.499575427E1,-3.587964177E-1,2.687727809E-1,1.466796994E-1
1.501586443E1,-7.841751724E-2,4.007157981E-1,1.533990204E-1
1.503597458E1,1.949366331E-1,2.689255178E-1,1.744732410E-1
1.505608474E1,3.511608243E-1,5.558710173E-2,1.243837699E-1
1.507619490E1,2.699181437E-1,-1.052184403E-1,3.000787087E-2
1.509630505E1,8.467870206E-2,-3.924693540E-2,-4.787515476E-2
1.511641526E1,-1.908897655E-3,1.340809762E-1,-1.033095419E-1
1.513652542E1,7.253811229E-3,2.223484069E-1,-1.097234413E-1
1.515663557E1,1.290414855E-2,1.637070626E-1,-6.482616812E-2
1.517674573E1,1.473669056E-2,9.193251282E-2,-1.229330152E-2
1.519685589E1,9.124530852E-2,1.432436854E-1,1.947075687E-2
1.521696604E1,1.946312040E-1,2.050919682E-1,5.581616983E-2
1.523707620E1,2.062373012E-1,1.693574041E-1,1.260636002E-1
1.525718635E1,1.654632539E-1,1.357607991E-1,2.008923888E-1
1.527729651E1,2.558686435E-1,1.869192570E-1,2.511345744E-1
1.529740667E1,4.999021292E-1,3.475720882E-1,2.674747407E-1
1.531751682E1,6.882721782E-1,4.553866386E-1,2.431935668E-1
1.533762698E1,6.045097113E-1,2.837385535E-1,2.422772944E-1
1.535773714E1,3.351260722E-1,3.176405653E-2,2.532725334E-1
1.537784729E1,2.424300015E-1,2.183778957E-2,2.633515298E-1
1.539795745E1,4.841728210E-1,1.841704547E-1,2.824405134E-1
1.541806760E1,6.040515900E-1,-6.413896382E-2,3.365004957E-1
1.543817776E1,6.360447407E-2,-8.212841153E-1,3.972797990E-1
1.545828797E1,-7.066739202E-1,-8.883246183E-1,3.412345648E-1
1.547839812E1,-8.286906481E-1,-1.209477559E-1,6.635328382E-2
1.549850828E1,-4.643202722E-1,4.285093546E-1,-5.306735635E-2
1.551861844E1,-2.766374648E-1,3.920112252E-1,1.756949425E-1
1.553872859E1,-2.961845696E-1,8.933641016E-2,4.067479074E-1
1.555883875E1,-2.862583101E-1,-1.140757278E-1,4.495072365E-1
1.557894890E1,-2.204395086E-1,-2.028012872E-1,3.539096415E-1
1.559905906E1,-2.459423840E-1,-1.791309565E-1,2.470113635E-1
1.561916922E1,-2.917559147E-1,-5.482354015E-2,1.637834162E-1
1.563927937E1,-2.360161096E-1,1.087308154E-1,9.781191498E-2
1.565938953E1,-1.043785289E-1,1.818797737E-1,6.543701142E-2
1.567949969E1,-2.061609412E-3,1.417165697E-1,5.062396824E-2
1.569960984E1,4.543176666E-2,9.590301663E-2,3.840702027E-2
1.571972005E1,1.023932695E-1,1.130067408E-1,1.030804776E-2
1.573983021E1,1.766112149E-1,1.595838517E-1,-1.580567285E-2
1.575994036E1,2.380013615E-1,1.598892659E-1,-2.519744914E-3
1.578005052E1,2.948101461E-1,1.156028435E-1,3.917058185E-2
1.580016068E1,3.303920031E-1,5.940489471E-2,6.726955622E-2
1.582027083E1,2.777064443E-1,-6.108472589E-3,5.963396281E-2
1.584038099E1,1.787491739E-1,1.068982761E-3,2.573194169E-2
1.586049115E1,1.265217364E-1,9.468132257E-2,-3.535278514E-2
1.588060130E1,1.143047959E-1,1.611109674E-1,-1.088071689E-1
1.590071146E1,6.070294604E-2,7.467607409E-2,-1.391968131E-1
1.592082161E1,-4.039227590E-2,-6.887302548E-2,-1.130831018E-1
1.594093177E1,-1.057529300E-1,-1.627907902E-1,-7.017108053E-2
1.596104198E1,4.818057641E-2,-5.405998230E-2,-2.145601064E-2
1.598115214E1,4.039991200E-1,1.794363856E-1,-2.802261710E-2
1.600126229E1,6.314633489E-1,3.437542915E-1,-2.283041552E-2
1.602137245E1,4.612660408E-1,1.382041872E-1,3.917058185E-2
1.604148260E1,2.237228118E-2,-2.174616307E-1,3.016058356E-2
1.606159276E1,-2.276169658E-1,-2.591519356E-1,-6.177192926E-2
1.608170292E1,-3.140518367E-1,-2.762556672E-1,-1.141520813E-1
1.610181307E1,-3.911713064E-1,-2.619007528E-1,-7.093463838E-2
1.612192323E1,-6.003865004E-1,-1.185043678E-1,-4.375193641E-2
1.614203344E1,-8.297596574E-1,3.008422814E-2,-4.161396995E-2
1.616214359E1,-8.312867880E-1,1.368297935E-1,-2.588465251E-2
1.618225375E1,-5.638883710E-1,2.160872221E-1,4.421006888E-2
1.620236391E1,-2.557159364E-1,1.881409585E-1,1.335464865E-1
1.622247406E1,-5.276193097E-2,8.948912472E-2,2.181488276E-1
1.624258422E1,4.802786559E-2,1.756185852E-2,2.464005202E-1
1.626269437E1,6.146650389E-2,-9.468132630E-3,2.124984860E-1
1.628280453E1,5.184566230E-2,4.184303805E-2,1.552315652E-1
1.630291469E1,1.109451354E-1,7.895200700E-2,1.016297117E-1
1.632302484E1,2.013505250E-1,7.757759839E-2,8.742751181E-2
1.634313505E1,2.520508468E-1,8.292251825E-2,1.114032716E-1
1.636324521E1,2.489966154E-1,9.758284688E-2,1.472905427E-1
1.638335536E1,2.535779774E-1,1.012479365E-1,1.587439328E-1
1.640346552E1,3.048891425E-1,1.217113137E-1,1.329356283E-1
1.642357568E1,3.768163919E-1,1.372879148E-1,8.559497446E-2
1.644368583E1,4.133145213E-1,1.181989461E-1,6.360447407E-2
1.646379599E1,3.830775917E-1,7.513421029E-2,1.030041203E-1
1.648390615E1,3.314609826E-1,4.734066129E-2,1.701973230E-1
1.650401630E1,2.425827235E-1,4.367557913E-2,1.766112149E-1
1.652412651E1,9.338327497E-2,7.467607409E-2,1.524827480E-1
1.654423667E1,1.198787708E-2,1.385096163E-1,9.002361447E-2
1.656434682E1,6.711684167E-2,2.898470163E-1,1.534753758E-2
1.658445698E1,3.526879251E-1,4.431696832E-1,3.794888780E-2
1.660456714E1,7.101099491E-1,3.918585181E-1,1.317139417E-1
1.662467729E1,7.800519466E-1,1.275143623E-1,2.781645656E-1
1.664478745E1,6.313106418E-1,3.665083554E-3,3.126774430E-1
1.666489760E1,3.881170750E-1,1.360662282E-1,1.436254680E-1
1.668500781E1,-2.603736520E-2,-4.311054647E-1,7.444700599E-2
1.670511792E1,-4.366794229E-1,-9.652913809E-1,2.303657681E-1
1.672522812E1,-4.724139869E-1,-4.799732268E-1,1.703500301E-1
1.674533828E1,1.061347127E-2,1.693574041E-1,-8.284615725E-2
1.676544844E1,4.087331593E-1,1.032331884E-1,-9.170344472E-2
1.678555859E1,5.012765527E-1,-2.067717910E-1,7.253811229E-3
1.680566875E1,2.166217119E-1,-4.083513916E-1,-3.581092134E-2
1.682577890E1,-3.204657435E-1,-3.074088693E-1,-7.582141459E-2
1.684588906E1,-4.789806008E-1,1.656923145E-1,-2.338781506E-1
1.686599927E1,-2.015032321E-1,5.013529062E-1,-3.719296157E-1
1.688610943E1,8.040276915E-2,4.621059597E-1,-3.372640312E-1
1.690621958E1,1.830251068E-1,1.879882365E-1,-2.662530541E-1
1.692632974E1,6.223006546E-2,-1.039967462E-1,-1.775274873E-1
1.694643990E1,-1.359898746E-1,-1.742441803E-1,-1.066692024E-1
1.696655005E1,-1.500393599E-1,-2.733541466E-2,-9.323056042E-2
1.698666021E1,-2.374668792E-2,3.802524135E-2,-7.902836055E-2
1.700677036E1,1.384332627E-1,-2.092151903E-2,-3.214583546E-2
1.702688057E1,2.018086612E-1,-1.905843467E-1,8.399150101E-4
1.704699073E1,9.032903612E-2,-2.780882120E-1,-6.184828468E-3
1.706710089E1,-4.955498502E-2,-1.759240031E-1,-6.635328382E-2
1.708721104E1,-1.546207070E-1,2.657185495E-2,-1.430146098E-1
1.710732120E1,-1.674485058E-1,1.867665499E-1,-1.824142635E-1
1.712743135E1,-1.440836042E-1,1.560714692E-1,-1.882173121E-1
1.714754151E1,-1.847049445E-1,8.246437646E-3,-1.637834162E-1
1.716765167E1,-2.661003470E-1,-8.322793990E-2,-1.378224194E-1
1.718776187E1,-3.216874301E-1,-5.283828825E-2,-1.312558055E-1
1.720787203E1,-3.464267552E-1,5.344913341E-3,-1.361425817E-1
1.722798219E1,-2.795389891E-1,3.588727489E-2,-1.512610465E-1
1.724809234E1,-1.582857966E-1,3.130592033E-2,-1.709608734E-1
1.726820250E1,-1.017824262E-1,-2.031067200E-2,-1.581330895E-1
1.728831266E1,-1.132358089E-1,-4.672981426E-2,-1.344627589E-1
1.730842281E1,-8.895463496E-2,-4.230117425E-2,-1.150683537E-1
1.732853297E1,-5.031854287E-2,-5.146388337E-2,-1.042258143E-1
1.734864318E1,-2.191414498E-2,-8.322793990E-2,-1.086544544E-1
1.736875333E1,-1.611109637E-2,-1.491994411E-1,-1.028514057E-1
1.738886349E1,3.122956678E-2,-1.412584335E-1,-7.505785674E-2
1.740897364E1,7.582141459E-2,-1.157555580E-1,-5.169294775E-2
1.742908380E1,2.619007602E-2,-1.001789495E-1,-6.650599837E-2
1.744919396E1,-5.871769413E-2,-7.146912813E-2,-1.150683537E-1
1.746930411E1,-7.078192383E-2,-1.099525020E-2,-1.624090075E-1
1.748941432E1,7.406522986E-3,-1.114796288E-2,-1.785964668E-1
1.750952448E1,4.268295318E-2,-8.826743066E-2,-1.553842723E-1
1.752963464E1,-2.664821222E-2,-1.974563748E-1,-1.256054640E-1
1.754974479E1,-8.070819080E-2,-1.751604527E-1,-1.236202121E-1
1.756985495E1,-4.772244394E-2,-6.520794332E-2,-1.621035933E-1
1.758996510E1,-1.870719716E-2,3.573456407E-2,-1.717244387E-1
1.761007526E1,1.580567285E-2,5.360184610E-2,-1.480541080E-1
1.763018547E1,4.482091591E-2,2.733541466E-2,-1.272853017E-1
1.765029562E1,1.916533336E-2,-3.817795310E-3,-1.066692024E-1
1.767040578E1,-5.551074445E-2,-1.252236869E-2,-8.559497446E-2
1.769051594E1,-1.379751265E-1,-1.679829881E-2,-5.810684711E-2
1.771062609E1,-1.986017078E-1,-4.321744293E-2,-4.390464723E-2
1.773073625E1,-1.856212169E-1,-5.436540768E-2,-2.389939874E-2
1.775084640E1,-1.407239437E-1,-3.588727489E-2,9.926267667E-4
1.777095661E1,-1.307976693E-1,-2.596100792E-3,1.641651988E-2
1.779106677E1,-1.387386769E-1,2.428117767E-2,3.520007432E-2
1.781117693E1,-1.091125906E-1,3.237490356E-2,5.489989743E-2
1.783128708E1,-2.542651631E-2,3.619270027E-2,7.124006003E-2
1.785139724E1,4.130854458E-2,1.969982497E-2,9.109259397E-2
1.787150740E1,5.337277800E-2,9.468132630E-3,1.074327603E-1
1.789161755E1,1.779092662E-2,2.260134928E-2,9.842276573E-2
1.791172771E1,-1.412584260E-2,6.704048812E-2,7.673768699E-2
1.793183792E1,-1.366770733E-2,9.544488788E-2,6.314633787E-2
1.795194807E1,4.352286924E-3,9.208522737E-2,7.337802649E-2
1.797205823E1,3.168770298E-2,7.574506104E-2,8.788564801E-2
1.799216838E1,6.238277629E-2,5.589252338E-2,9.918632358E-2
1.801227854E1,9.704835713E-2,-1.282779220E-2,1.153737754E-1
1.803238875E1,1.469851285E-1,-1.667613089E-1,1.196497083E-1
1.805249890E1,1.501920670E-1,-2.732014358E-1,8.223531395E-2
1.807260906E1,9.078717232E-2,-2.845021188E-1,6.650599837E-2
1.809271922E1,-2.145601064E-2,-1.632489264E-1,6.360447407E-2
1.811282937E1,-1.454579979E-1,3.145863488E-2,4.329380020E-2
1.813293953E1,-1.824142635E-1,1.629435122E-1,-8.628217503E-3
1.815304969E1,-1.419456303E-1,1.501157135E-1,-4.466820508E-2
1.817315984E1,-6.833853573E-2,9.147437662E-2,-3.840702027E-2
1.819327005E1,1.061347127E-2,7.223268598E-2,-3.077143058E-2
1.821338021E1,2.977880416E-3,6.658235192E-2,-2.023431472E-2
1.823349036E1,-5.734328553E-2,5.512896553E-2,-1.152974181E-2
1.825360052E1,-6.833853573E-2,4.031591862E-2,-1.534753758E-2
1.827371068E1,-2.863346599E-2,1.374406368E-2,-2.664821222E-2
1.829382083E1,1.122431830E-2,-1.679829881E-2,-3.626905754E-2
1.831393099E1,2.672456671E-3,-4.382828996E-2,-3.153498843E-2
1.833404120E1,-2.176143415E-2,-4.230117425E-2,-2.298312820E-2
1.835415135E1,-1.488940232E-2,-3.008422814E-2,-2.695363574E-2
1.837426151E1,2.832804248E-2,-6.352811307E-2,-2.619007602E-2
1.839437167E1,6.788039953E-2,-1.247655526E-1,-3.855973482E-2
1.841448182E1,6.681142002E-2,-1.553079188E-1,-6.223006546E-2
1.843459198E1,3.306210786E-2,-1.223221645E-1,-5.963396281E-2
1.845470214E1,-7.406522986E-3,-3.329117596E-2,-5.077667907E-2
1.847481234E1,-4.909684882E-2,3.268032894E-2,-4.787515476E-2
1.849492250E1,-7.032378763E-2,2.351761982E-2,-4.665346071E-2
1.851503266E1,-5.856497958E-2,-1.298050396E-2,-4.619532451E-2
1.853514281E1,-2.328855172E-2,-2.473931387E-2,-4.879142344E-2
1.855525297E1,1.908897655E-3,-2.702999115E-2,-3.611634299E-2
1.857536318E1,-8.933641016E-3,-1.817270555E-2,-1.504211407E-2
1.859547333E1,-1.901262067E-2,2.031067200E-2,-1.443126611E-2
1.861558349E1,-9.849912487E-3,2.901524492E-2,-2.527380548E-2
1.863569364E1,-1.000262424E-2,2.107422985E-2,-2.985516004E-2
1.865580380E1,1.061347127E-2,-1.084253844E-2,-3.367295489E-2
1.867591396E1,1.298050396E-3,-2.260134928E-2,-3.626905754E-2
1.869602411E1,-2.359397523E-2,1.786728203E-2,-4.986040667E-2
1.871613432E1,-2.695363574E-2,5.344913527E-2,-5.673243850E-2
1.873624448E1,-4.802786559E-2,1.969982497E-2,-5.505260825E-2
1.875635464E1,-7.826480269E-2,5.497625098E-3,-7.062921673E-2
1.877646479E1,-4.115583375E-2,2.977880463E-2,-8.681666851E-2
1.879657495E1,-2.176143415E-2,1.847812906E-2,-8.208259940E-2
1.881668510E1,-4.909684882E-2,6.719320081E-3,-6.879667193E-2
1.883679526E1,-4.436278343E-2,2.748812735E-2,-4.741701856E-2
1.885690547E1,-5.573981442E-3,3.405473381E-2,-3.871244565E-2
1.887701562E1,3.092414327E-2,2.870982140E-2,-2.176143415E-2
1.889712578E1,3.306210786E-2,1.389677543E-2,-1.290414855E-2
1.891723594E1,3.122956678E-2,2.596100792E-2,-8.475505747E-3
1.893734609E1,3.855973482E-2,3.558185324E-2,-6.337540224E-3
1.895745625E1,4.680617154E-2,2.764083818E-2,-6.948387716E-3
1.897756640E1,4.527905211E-2,1.985253580E-2,-8.017370477E-3
1.899767661E1,1.366770733E-2,1.023169141E-2,-1.748550311E-2
1.901778677E1,-2.634278871E-2,9.620844387E-3,-2.588465251E-2
1.903789693E1,-2.756448276E-2,8.704573847E-3,-2.664821222E-2
1.905800708E1,-6.642963737E-3,1.679830020E-3,-1.672194339E-2
1.907811724E1,-4.504998680E-3,-5.344913341E-3,-1.458397787E-2
1.909822740E1,-1.824906096E-2,-2.901524538E-3,-1.244601328E-2
1.911833755E1,-4.504998680E-3,1.191152167E-2,-1.046075951E-2
1.913844776E1,1.336228382E-2,2.168507688E-2,-5.879404955E-3
1.915855792E1,1.840177365E-2,1.939439960E-2,-5.344913807E-4
1.917866807E1,3.741439432E-3,9.468132630E-3,5.115845706E-3
1.919877823E1,-1.152974181E-2,1.588202827E-2,1.015533600E-2
1.921888838E1,5.115845706E-3,2.290677279E-2,1.259872504E-2
1.923899854E1,2.756448276E-2,1.939439960E-2,1.336228382E-2
1.925910870E1,1.137703005E-2,1.832541777E-3,4.504998680E-3
1.927921890E1,-2.176143415E-2,-9.926267900E-3,-5.268557463E-3
1.929932906E1,-2.619007602E-2,-7.024743594E-3,-5.115845706E-3
1.931943922E1,-2.084516361E-2,-1.725643501E-2,1.908897655E-3
1.933954937E1,-2.771719359E-2,-1.496575773E-2,6.032116711E-3
1.935965953E1,-3.458922729E-2,2.290677279E-3,1.595838554E-2
1.937976969E1,-2.817532979E-2,1.282779220E-2,3.443651274E-2
1.939987990E1,-7.101099472E-3,1.221694518E-3,3.947600350E-2
1.941999005E1,1.336228382E-2,-1.099525020E-2,4.344651103E-2
1.944010021E1,2.206685767E-2,-6.872031838E-3,5.657972768E-2
1.946021036E1,1.061347127E-2,1.160609815E-2,6.772769243E-2
1.948032052E1,-8.780929260E-3,3.161134571E-2,6.497887522E-2
1.950043068E1,-1.168245357E-2,2.641914412E-2,6.329904497E-2
1.952054083E1,5.344913807E-4,3.970507067E-3,6.390989572E-2
1.954065104E1,1.259872504E-2,-7.635590737E-4,6.635328382E-2
1.956076120E1,1.534753758E-2,1.145338640E-2,7.169819623E-2
1.958087135E1,2.038702741E-2,1.603474095E-2,7.337802649E-2
1.960098151E1,2.389939874E-2,1.206423342E-2,6.757497787E-2
1.962109167E1,1.259872504E-2,7.024743594E-3,5.016583204E-2
1.964120182E1,1.305686031E-2,2.794626169E-2,3.260397166E-2
1.966131198E1,1.931804419E-2,2.290677279E-2,2.344126441E-2
1.968142219E1,2.519744914E-3,5.192201585E-3,2.786990628E-2
1.970153234E1,-9.239064530E-3,8.551862091E-3,2.649549954E-2
1.972164250E1,1.305686031E-2,2.107422985E-2,1.977618039E-2
1.974175266E1,4.314108938E-2,2.076880634E-2,2.115058713E-2
1.976186281E1,4.283566400E-2,1.267508045E-2,1.931804419E-2
1.978197297E1,2.710634656E-2,1.985253580E-2,1.046075951E-2
1.980208312E1,1.504211407E-2,1.985253580E-2,-4.963133950E-3
1.982219328E1,1.718007959E-2,3.405473381E-2,-1.290414855E-2
1.984230349E1,3.581092134E-2,3.756710514E-2,-1.733279042E-2
1.986241364E1,-2.290677221E-4,-5.650337320E-3,-1.992889121E-2
1.988252380E1,-6.314633787E-2,-3.741439432E-2,-2.619007602E-2
1.990263396E1,-7.047650218E-2,-4.581354558E-3,-2.909160033E-2
1.992274411E1,-1.702736691E-2,2.412846684E-2,-1.580567285E-2
1.994285427E1,5.337277800E-2,5.803049076E-3,8.322793990E-3
1.996296448E1,9.888090193E-2,-1.038440317E-2,2.405211143E-2
1.998307464E1,9.017632902E-2,1.786728203E-2,1.550024934E-2
2.000318479E1,4.650074616E-2,3.771981969E-2,-7.864658721E-3
2.002329495E1,6.948387716E-3,2.947338112E-2,-3.932329267E-2
2.004340510E1,6.872031372E-4,2.748812549E-3,-5.505260825E-2
2.006351526E1,7.635590737E-5,-1.099525020E-2,-5.444176123E-2
2.008362542E1,-1.183516532E-2,3.665083554E-3,-4.879142344E-2
2.010373562E1,-9.849912487E-3,4.337015375E-2,-3.947600350E-2
2.012384578E1,1.855448633E-2,4.123219103E-2,-2.634278871E-2
2.014395594E1,3.092414327E-2,1.832541777E-3,-1.076618303E-2
2.016406609E1,1.794363745E-2,-8.704573847E-3,-8.399150101E-4
2.018417625E1,-1.908897655E-3,1.450762246E-2,2.214321401E-3
2.020428640E1,-4.963133950E-3,3.268032894E-2,8.322793990E-3
2.022439656E1,4.657710437E-3,2.351761982E-2,2.115058713E-2
2.024450677E1,2.023431472E-2,6.108472589E-4,3.672719002E-2
2.026461693E1,1.947075687E-2,-9.620844387E-3,4.161396995E-2
2.028472708E1,-7.635590737E-5,2.748812549E-3,3.199312463E-2
2.030483724E1,-1.687465608E-2,1.404948719E-2,2.008160390E-2
2.032494740E1,3.741439432E-3,1.252236869E-2,2.313583903E-2
2.034505755E1,2.771719359E-2,-4.428642802E-3,2.970244735E-2
2.036516771E1,1.977618039E-2,-8.704573847E-3,2.557922900E-2
2.038527792E1,1.061347127E-2,1.145338640E-2,8.628217503E-3
2.040538807E1,1.603474026E-3,7.941014133E-3,3.130592173E-3
2.042549823E1,-1.687465608E-2,-1.908897609E-2,4.504998680E-3
2.044560838E1,-2.664821222E-2,-3.206948191E-2,-2.290677221E-4
2.046571854E1,-1.076618303E-2,2.290677279E-3,-8.170082234E-3
2.048582870E1,1.656923257E-2,2.321219631E-2,-1.908897655E-3
2.050593885E1,2.741177008E-2,-3.970507067E-3,1.488940232E-2
2.052604906E1,2.634278871E-2,-5.497625098E-3,2.863346599E-2
2.054615922E1,2.160872146E-2,1.725643501E-2,2.359397523E-2
2.056626937E1,1.855448633E-2,1.924168877E-2,1.718007959E-2
2.058637953E1,1.779092662E-2,-1.068982761E-3,1.656923257E-2
2.060648969E1,-2.290677221E-4,0.000000000E0,7.559234742E-3
2.062659984E1,-1.458397787E-2,1.679829881E-2,-2.290677221E-4
2.064671000E1,-7.559234742E-3,6.261184346E-3,7.559234742E-3
2.066682021E1,7.864658721E-3,-1.908897609E-2,1.214058883E-2
2.068693036E1,1.412584260E-2,-2.153236605E-2,4.810422193E-3
2.070704052E1,4.352286924E-3,-1.007897966E-2,6.872031372E-4
2.072715068E1,-1.076618303E-2,4.886778072E-3,-1.145338640E-3
2.074726083E1,-8.628217503E-3,1.023169141E-2,-3.588727675E-3
2.076737099E1,1.015533600E-2,2.137965523E-3,-6.872031372E-4
2.078748114E1,2.069245093E-2,-7.635590620E-3,7.711946499E-3
2.080759130E1,3.122956678E-2,-1.832541777E-3,1.046075951E-2
2.082770151E1,3.718532622E-2,9.468132630E-3,1.244601328E-2
2.084781167E1,3.000787087E-2,1.496575773E-2,1.855448633E-2
2.086792182E1,1.916533336E-2,1.801999472E-2,1.595838554E-2
2.088803198E1,1.290414855E-2,3.512371797E-3,1.076618303E-2
2.090814214E1,2.084516361E-2,-4.581354442E-4,9.544488043E-3
2.092825229E1,3.031329438E-2,6.719320081E-3,1.565296017E-2
2.094836245E1,2.069245093E-2,1.084253844E-2,2.267770469E-2
2.096847266E1,-1.137703005E-2,2.596100792E-3,1.397313084E-2
2.098858281E1,-7.276718318E-2,5.879404768E-2,1.145338640E-3
2.100869297E1,-6.501705647E-1,2.780882120E-1,-6.956022978E-2
2.102880312E1,-5.087594390E-1,1.947075576E-1,-5.520532280E-2
2.104891328E1,3.317664266E-1,-1.227803007E-1,-1.794363745E-2
