"Time (s)","Acceleration x (m/s^2)","Acceleration y (m/s^2)","Acceleration z (m/s^2)"
2.145450100E-2,1.540977836E0,3.887738705E0,8.173882484E0
4.156642800E-2,1.615155339E0,4.351946354E0,8.857032776E0
6.167840700E-2,8.727820516E-1,4.457828522E0,1.007198906E1
8.179038600E-2,3.768695593E-1,4.174877167E0,1.143888855E1
1.019023130E-1,1.962114573E-1,4.322035789E0,1.297029495E1
1.220142920E-1,7.956135273E-1,4.267001152E0,1.410389519E1
1.421262190E-1,1.786840320E0,3.895515203E0,1.514178181E1
1.622381990E-1,2.198405743E0,3.376272678E0,1.608754539E1
1.823501780E-1,1.785643935E0,2.806182861E0,1.673958969E1
2.024621050E-1,7.609176040E-1,2.485544443E0,1.614018631E1
2.225740840E-1,-3.200400174E-1,2.519642353E0,1.419661713E1
2.426860110E-1,-1.241276741E0,2.740978241E0,1.181157112E1
2.627979900E-1,-1.373480201E0,2.733201742E0,1.042911720E1
2.829099170E-1,-6.747759581E-1,2.335394859E0,1.028674412E1
3.030218970E-1,-1.848455518E-1,2.005185366E0,1.068993473E1
3.231338240E-1,-1.501496136E-1,1.689931035E0,1.060798073E1
3.432458030E-1,-2.811566591E-1,1.759921074E0,9.734601021E0
3.633577300E-1,-2.446661144E-1,1.714457393E0,8.452047348E0
3.834697090E-1,-1.064806059E-1,1.813759565E0,7.138986588E0
4.035816360E-1,3.212364316E-1,1.664806366E0,6.263213158E0
4.236936150E-1,1.860419661E-1,1.893320918E0,5.712265968E0
4.438055420E-1,1.220339537E-1,2.000399828E0,5.312664509E0
4.639175220E-1,-9.032905847E-2,2.099103689E0,5.160121918E0
4.840294490E-1,-8.015955985E-2,1.692323804E0,5.494519234E0
5.041414280E-1,-5.084748194E-2,9.876375198E-1,5.788836002E0
5.242533550E-1,-4.737788737E-1,1.209571838E0,5.508277893E0
5.443653340E-1,-4.444667995E-1,1.536192179E0,5.157131195E0
5.644772610E-1,1.668993831E-1,1.612762451E0,5.288736343E0
5.845891880E-1,5.551348329E-1,1.914856315E0,5.745765209E0
6.047011670E-1,9.990034699E-1,1.757528186E0,6.123831272E0
6.248130940E-1,4.366901219E-1,2.565105915E0,6.413960934E0
6.449250740E-1,3.924229145E-1,3.564707518E0,6.518647194E0
6.650370010E-1,9.571290761E-2,4.238885403E0,7.689933777E0
6.851489280E-1,-8.961120844E-1,4.092923164E0,1.005523872E1
7.052609070E-1,-8.781659007E-1,2.608774900E0,1.312164116E1
7.253728340E-1,-7.088736892E-1,2.007578135E0,1.523510170E1
7.454848130E-1,-7.040880919E-1,2.049452543E0,1.459920883E1
7.655967400E-1,-5.144568533E-2,2.334198475E0,1.355414391E1
7.857086670E-1,7.818548083E-1,2.409572363E0,1.313061428E1
8.058206470E-1,1.402792215E0,2.210369825E0,1.361994648E1
8.259325740E-1,2.042872429E0,1.566700578E0,1.497248936E1
8.460445010E-1,2.536990166E0,8.685946465E-1,1.720260048E1
8.661564800E-1,2.663809776E0,9.050851464E-1,1.821237183E1
8.862684070E-1,2.459223509E0,1.190429211E0,1.632503319E1
9.063803340E-1,2.255235434E0,1.722832322E0,1.350449276E1
9.264923130E-1,2.288136721E0,2.134995937E0,1.172064304E1
9.466042400E-1,2.368894339E0,2.178664923E0,1.088674450E1
9.667161670E-1,2.266003132E0,1.877767563E0,1.004865837E1
9.868281470E-1,1.981855392E0,1.533201098E0,9.038887978E0
1.006940074E0,1.528415442E0,1.321436286E0,8.091329575E0
1.027052001E0,1.001994491E0,1.169492126E0,7.043273449E0
1.047163928E0,5.563312769E-1,1.321436286E0,5.488536835E0
1.067275907E0,4.013960063E-1,1.832303882E0,3.608376503E0
1.087387834E0,3.182454109E-1,2.355135679E0,2.306082726E0
1.107499761E0,3.972085714E-1,2.379662037E0,1.791625977E0
1.127611688E0,9.451649189E-1,2.003988981E0,2.612962246E0
1.147723615E0,1.035493970E0,1.676172256E0,4.209573269E0
1.167835594E0,7.627122402E-1,1.356132269E0,5.804389477E0
1.187947522E0,4.989035130E-1,1.060618639E0,7.344171047E0
1.208059449E0,-3.948157281E-2,1.017547846E0,8.403593063E0
1.228171376E0,3.451646566E-1,1.071984529E0,8.895915985E0
1.248283303E0,-4.187439755E-2,1.709671736E0,9.244669914E0
1.268395282E0,-5.443671346E-2,2.711666346E0,7.935198307E0
1.288507209E0,6.909275651E-1,2.992822886E0,6.987640381E0
1.308619136E0,1.169492126E0,3.080759048E0,7.733004570E0
1.328731063E0,1.231705427E0,3.255435228E0,9.800403595E0
1.348842990E0,1.868196249E0,3.261417150E0,1.014018440E1
1.368954917E0,1.780858278E0,3.694518089E0,1.203649616E1
1.389066897E0,2.647060156E0,3.431905985E0,1.490728474E1
1.409178824E0,4.208376884E0,2.019542217E0,1.846900177E1
1.429290751E0,4.572684288E0,1.063609719E0,2.107658005E1
1.449402678E0,3.302095175E0,7.878368497E-1,2.056152534E1
1.469514605E0,2.112862349E0,7.968099117E-1,1.781217194E1
1.489626532E0,1.729412556E0,7.674978375E-1,1.568555069E1
1.509738459E0,1.569691658E0,6.699903607E-1,1.462852097E1
1.529850386E0,1.048654556E0,7.202396393E-1,1.303669643E1
1.549962365E0,6.825526357E-1,6.813562512E-1,1.093041420E1
1.570074292E0,5.665007830E-1,5.976074338E-1,8.882756233E0
1.590186219E0,5.443671346E-1,5.724828243E-1,7.053442955E0
1.610298147E0,4.486542344E-1,6.987041831E-1,5.154139996E0
1.630410074E0,8.374879509E-2,9.266205430E-1,3.562912941E0
1.650522001E0,-1.280160099E-1,1.027119160E0,2.491526604E0
1.670633928E0,-1.543370634E-1,9.744769931E-1,2.142772675E0
1.690745855E0,1.722832322E-1,9.176474810E-1,2.886342287E0
1.710857782E0,4.444667995E-1,7.824530005E-1,4.033700943E0
1.730969709E0,3.637090325E-1,8.638089895E-1,4.893920422E0
1.751081636E0,-2.572284266E-2,1.113260746E0,5.077569485E0
1.771193563E0,-7.094719410E-1,1.712064624E0,4.809573650E0
1.791305490E0,-1.286142230E0,2.574079037E0,5.224728107E0
1.811417417E0,-9.714859724E-1,3.096910715E0,6.721438885E0
1.831529344E0,-3.224328458E-1,2.918645382E0,8.226524353E0
1.851641272E0,-2.961117923E-1,3.047259569E0,8.959325790E0
1.871753199E0,-1.615155339E-1,3.396013498E0,9.268598557E0
1.891865126E0,4.289134443E-1,2.919841766E0,1.055294609E1
1.911977053E0,1.703091502E0,1.832902193E0,1.325145149E1
1.932088980E0,2.666800737E0,1.257428288E0,1.672583008E1
1.952200907E0,2.142772675E0,1.601396561E0,1.827219200E1
1.972312834E0,1.793420553E0,2.153540373E0,1.627478409E1
1.992424761E0,3.531208038E0,1.876571178E0,1.499522114E1
2.012536688E0,4.852046013E0,7.232306600E-1,1.702014732E1
2.032648563E0,3.866801500E0,1.339980662E-1,1.833320808E1
2.052760490E0,2.328216314E0,2.877369225E-1,1.653619957E1
2.072872417E0,2.109871387E0,6.711867452E-1,1.409013653E1
2.092984344E0,2.452044964E0,8.979067206E-1,1.220339584E1
2.113096272E0,2.446661234E0,1.064806104E0,1.041356373E1
2.133208199E0,1.895713687E0,1.266401410E0,8.534600258E0
2.153320126E0,1.491924882E0,1.244267821E0,6.693921566E0
2.173432053E0,1.362114310E0,1.028913736E0,5.507679462E0
2.193543980E0,1.325025558E0,1.109671474E0,5.107480049E0
2.213655907E0,1.104287624E0,1.481755376E0,4.846064091E0
2.233767782E0,3.110669553E-1,1.852642894E0,3.854837179E0
2.253879709E0,-1.002592683E0,2.182254314E0,2.469393015E0
2.273991636E0,-1.688136339E0,1.967498422E0,2.495713949E0
2.294103563E0,-7.465606928E-1,1.567897081E0,4.560121536E0
2.314215490E0,3.176472187E-1,1.850848317E0,6.266802311E0
2.334327417E0,1.366899967E0,2.617748022E0,6.801000118E0
2.354439292E0,2.096112728E0,3.132204771E0,5.549553871E0
2.374551219E0,2.023131609E0,3.638286829E0,4.829314232E0
2.394663147E0,1.731207132E0,3.767499208E0,6.332605362E0
2.414775074E0,1.780858278E0,2.526820660E0,9.529416084E0
2.434887001E0,7.166503668E-1,1.642074585E0,1.368933868E1
2.454998876E0,-6.394818425E-1,1.374078393E0,1.706620979E1
2.475110803E0,-1.663609982E0,2.290529490E0,1.680718613E1
2.495222730E0,-1.965105653E0,4.289732933E0,1.391007614E1
2.515334657E0,-3.451646566E-1,3.922434568E0,1.353739452E1
2.535446532E0,1.715055585E0,2.005783558E0,1.644108391E1
2.555558459E0,8.009973764E-1,1.205384374E0,1.934238243E1
2.575670386E0,-1.747956991E0,9.415757060E-1,1.866401672E1
2.595782313E0,-2.696112871E0,1.088136077E0,1.574058533E1
2.615894188E0,-2.032702923E0,1.393221021E0,1.265025520E1
2.636006115E0,-1.052243710E0,1.398604870E0,1.014676476E1
2.656118042E0,-3.284149170E-1,1.295713425E0,8.273183823E0
2.676229917E0,3.948157281E-2,1.327418327E0,6.165705681E0
2.696341844E0,4.133601189E-1,1.180259824E0,4.170091629E0
2.716453772E0,7.226324677E-1,1.021137118E0,2.782852650E0
2.736565699E0,5.527420044E-1,9.200403094E-1,2.240878344E0
2.756677574E0,9.116654396E-1,6.634100676E-1,3.486342669E0
2.776789501E0,7.998009920E-1,9.391828775E-1,5.163711071E0
2.796901428E0,2.231307179E-1,1.215553880E0,5.593223095E0
2.817013303E0,-1.298106313E-1,1.418345571E0,5.102694511E0
2.837125230E0,-4.845465720E-2,1.844268084E0,4.735994339E0
2.857237105E0,5.222335458E-1,2.270788670E0,4.876572609E0
2.877349032E0,1.118644595E0,2.604587555E0,4.998606682E0
2.897460959E0,1.384846091E0,2.791227579E0,5.607579708E0
2.917572886E0,1.615753531E0,2.615953445E0,7.528418064E0
2.937684761E0,2.481955290E0,2.216950178E0,1.079043388E1
2.957796688E0,2.947359324E0,1.880160451E0,1.275075340E1
2.977908563E0,2.630908489E0,1.897508383E0,1.418764400E1
2.998020490E0,2.501696110E0,1.814955950E0,1.623649788E1
3.018132417E0,3.698705673E0,1.638485312E0,1.854856300E1
3.038244292E0,5.879763603E0,1.283151150E0,2.005663872E1
3.058356219E0,6.602396011E0,3.972085714E-1,2.047538376E1
3.078468094E0,4.584050179E0,-3.768695518E-2,1.968814468E1
3.098580022E0,1.344168067E0,7.447660565E-1,1.717568016E1
3.118691949E0,7.082754970E-1,1.139581800E0,1.348056412E1
3.138803824E0,1.858624935E0,1.555932879E0,1.044706345E1
3.158915751E0,2.634497643E0,2.383251429E0,7.984251022E0
3.179027626E0,2.767299414E0,2.606980324E0,5.950351715E0
3.199139553E0,2.502892494E0,2.294118643E0,4.381258488E0
3.219251428E0,1.818545222E0,1.950150490E0,3.250051260E0
3.239363355E0,1.013360381E0,1.722234130E0,2.505285263E0
3.259475230E0,2.805584669E-1,1.591227055E0,2.251646042E0
3.279587157E0,-1.220339537E-1,1.652842283E0,2.358724833E0
3.299699084E0,-2.171486616E-1,1.904088616E0,3.019742250E0
3.319811196E0,1.106680483E-1,2.006381750E0,4.392624378E0
3.339923071E0,5.988038778E-1,2.049452543E0,5.902495384E0
3.360034998E0,9.098708034E-1,2.263610125E0,6.880561352E0
3.380146873E0,1.019940615E0,2.611765862E0,6.771090031E0
3.400258800E0,1.096511006E0,3.010170937E0,5.784648895E0
3.420370675E0,1.570888042E0,3.220739365E0,6.308078766E0
3.440482602E0,2.482553482E0,2.688934565E0,9.572486877E0
3.460594477E0,2.544168711E0,1.693520188E0,1.511905003E1
3.480706404E0,9.349954724E-1,1.244267821E0,1.864068604E1
3.500818279E0,-1.390229940E0,2.524427891E0,1.764945984E1
3.520930206E0,-1.713261008E0,3.887738705E0,1.474217987E1
3.541042081E0,6.059823632E-1,3.419343472E0,1.508076477E1
3.561154009E0,2.140379906E0,2.111067772E0,1.783250999E1
3.581265884E0,3.924229145E-1,1.895713687E0,1.801316833E1
3.601377811E0,-1.731805444E0,1.984846354E0,1.482592869E1
3.621489686E0,-1.970489502E0,1.746760488E0,1.216331577E1
3.641601561E0,-8.889335990E-1,1.612164259E0,1.157468128E1
3.661713488E0,2.709871531E-1,1.240678549E0,1.127438164E1
3.681825363E0,8.386843204E-1,1.042074203E0,1.001815033E1
3.701937290E0,7.824530005E-1,1.524826288E0,7.762316704E0
3.722049165E0,8.817551732E-1,2.302493572E0,5.610570908E0
3.742161040E0,1.615753531E0,2.515454769E0,4.830510616E0
3.762272967E0,2.735594511E0,2.136790514E0,6.024528980E0
3.782384842E0,2.411366940E0,1.918445587E0,7.028318405E0
3.802496769E0,1.301097274E0,1.922633052E0,6.084948063E0
3.822608644E0,3.457628787E-1,1.730010748E0,3.917648792E0
3.842720519E0,-3.637090325E-1,1.671386600E0,1.963310957E0
3.862832446E0,-7.609176040E-1,1.804786444E0,9.613165259E-1
3.882944321E0,-1.049252748E0,1.926820397E0,1.293320656E0
3.903056196E0,-1.707278967E0,2.041077614E0,3.418745279E0
3.923168123E0,-2.663211584E0,2.873181820E0,5.438287735E0
3.943279998E0,-2.093121529E0,3.788436413E0,5.617749214E0
3.963391873E0,1.793420553E0,2.941975355E0,6.409175396E0
3.983503800E0,5.682355404E0,2.210369825E0,9.636494637E0
4.003615675E0,6.657430649E0,1.859223247E0,1.490608883E1
4.023727550E0,4.228715897E0,1.252642632E0,1.811007881E1
4.043839477E0,1.596610904E0,1.399203062E0,1.787618065E1
4.063951352E0,2.152942181E0,2.353341103E0,1.686999702E1
4.084063227E0,5.390431404E0,2.752344131E0,1.694058609E1
4.104175154E0,7.339385033E0,1.920240164E0,1.850190353E1
4.124287029E0,6.664011002E0,5.485545993E-1,1.960559273E1
4.144398904E0,4.282554150E0,-1.914258115E-2,1.853181267E1
4.164510779E0,2.938984394E0,2.500499785E-1,1.508555031E1
4.184622706E0,3.117847919E0,1.047458172E0,1.083589745E1
4.204734581E0,3.598206997E0,1.621137381E0,6.830312252E0
4.224846456E0,3.564707518E0,1.750947952E0,3.899702787E0
4.244958331E0,2.910868645E0,1.322632670E0,2.759522676E0
4.265070259E0,1.827518344E0,7.226324677E-1,3.155534744E0
4.285182134E0,7.214360237E-1,3.445664644E-1,4.259822369E0
4.305294009E0,-1.040877849E-1,1.579262912E-1,4.850251675E0
4.325405884E0,-6.634100676E-1,3.212364316E-1,4.596014023E0
4.345517811E0,-1.130010486E0,7.208378315E-1,3.698107481E0
4.365629686E0,-1.575673699E0,1.191625714E0,2.654238462E0
4.385741561E0,-1.976471543E0,1.813161373E0,1.922633052E0
4.405853436E0,-2.087139606E0,2.327618122E0,1.878365755E0
4.425965311E0,-1.886740685E0,2.618346214E0,2.562114954E0
4.446077238E0,-8.590233326E-1,2.628515720E0,3.403192043E0
4.466189113E0,9.332008362E-1,2.248655081E0,5.599802971E0
4.486300988E0,2.517847538E0,1.865205288E0,9.961320877E0
4.506412863E0,2.290529490E0,1.417747378E0,1.343510056E1
4.526524738E0,7.453642488E-1,8.333004713E-1,1.506820202E1
4.546636665E0,-1.495514158E-2,1.155135155E0,1.479661655E1
4.566748540E0,1.739582062E0,2.230110645E0,1.469851112E1
4.586860415E0,4.520041943E0,2.665604353E0,1.539960861E1
4.606972290E0,5.614160061E0,2.880958557E0,1.618026733E1
4.627084165E0,4.487739086E0,2.944368362E0,1.678804398E1
4.647196040E0,3.365504980E0,1.941775560E0,1.898884201E1
4.667307915E0,3.261417150E0,-1.740778536E-1,2.274019051E1
4.687419842E0,2.525624275E0,-1.250848055E0,2.437688065E1
4.707531717E0,9.547362328E-1,-1.070189953E0,2.143012047E1
4.727643592E0,6.640082598E-1,-6.628118753E-1,1.674975777E1
4.747755467E0,8.338986635E-1,-1.603191197E-1,1.297448254E1
4.767867342E0,7.130611539E-1,2.991028428E-1,1.012403297E1
4.787979217E0,2.895315289E-1,6.119644046E-1,7.869993687E0
4.808091092E0,-2.117647976E-1,7.884350419E-1,6.280561447E0
4.828203019E0,-7.776673436E-1,8.703892231E-1,5.766702652E0
4.848314894E0,-8.697910309E-1,9.613165259E-1,6.010770321E0
4.868426769E0,-5.246263742E-1,9.702895880E-1,5.341976643E0
4.888538644E0,-7.178468257E-2,1.162313581E0,3.959523201E0
4.908650519E0,3.278166950E-1,1.403988719E0,2.384447813E0
4.928762394E0,2.943171859E-1,1.750349760E0,1.074975610E0
4.948874269E0,6.819544435E-1,1.715055585E0,6.580262184E-1
4.968986144E0,1.266999602E0,1.400399446E0,1.696511269E0
4.989098019E0,1.368096352E0,9.732806087E-1,3.264408350E0
5.009209894E0,8.823533654E-1,7.645068169E-1,4.667200565E0
5.029321769E0,-1.794616925E-3,1.055234790E0,5.280361176E0
5.049433644E0,-7.172485590E-1,1.509272933E0,5.479563713E0
5.069545519E0,-1.103689432E0,2.196611166E0,5.247459888E0
5.089657394E0,-8.027920127E-1,2.775076151E0,4.995615482E0
5.109769269E0,4.546363056E-1,2.851048231E0,6.473183632E0
5.129881144E0,1.913659930E0,2.578266382E0,1.059541893E1
5.149993019E0,2.845664263E0,2.405983210E0,1.471346664E1
5.170104946E0,3.345764160E0,2.185843468E0,1.623231125E1
5.190216769E0,3.580859184E0,2.296511650E0,1.555574036E1
5.210328696E0,4.746761799E0,2.090728760E0,1.548335743E1
5.230440571E0,7.202994347E0,6.729813814E-1,1.879203224E1
5.250552446E0,8.660821915E0,-1.165304661E0,2.379482651E1
5.270664269E0,5.892325878E0,-1.932204247E0,2.377568436E1
5.290776144E0,1.875972986E0,-1.320239902E0,1.930170441E1
5.310888019E0,2.823530734E-1,-5.563312769E-2,1.439522076E1
5.330999894E0,1.003190875E0,9.846464992E-1,1.050568771E1
5.351111769E0,2.176870346E0,1.473380566E0,7.499704361E0
5.371223644E0,2.665006161E0,1.712064624E0,5.141577721E0
5.391335519E0,2.582453728E0,1.867598057E0,3.615555048E0
5.411447394E0,2.056631088E0,1.703091502E0,2.854039192E0
5.431559269E0,1.277169108E0,1.357926846E0,2.709273338E0
5.451671144E0,5.036891699E-1,1.210170031E0,2.580659151E0
5.471783019E0,-6.759724021E-2,1.151545882E0,2.322832584E0
5.491894894E0,-3.086741269E-1,1.269392371E0,2.215753794E0
5.512006769E0,-5.916253924E-1,1.575075507E0,2.563909531E0
5.532118644E0,-7.597211599E-1,1.857428551E0,3.477369547E0
5.552230519E0,-6.837490797E-1,2.115255117E0,4.411766529E0
5.572342394E0,-2.123630047E-1,2.589632273E0,5.370092392E0
5.592454269E0,5.258227587E-1,2.941975355E0,6.549753666E0
5.612566144E0,1.697707653E0,2.964108944E0,7.730611801E0
5.632677967E0,3.504886866E0,2.277967215E0,1.001396275E1
5.652789894E0,5.067399979E0,7.663014531E-1,1.525603867E1
5.672901717E0,3.435495138E0,-2.261217386E-1,2.013141441E1
5.693013592E0,-4.677968323E-1,3.379862010E-1,2.012543297E1
5.713125467E0,-2.080559254E0,1.765903115E0,1.647937012E1
5.733237342E0,-6.520441920E-2,2.682354212E0,1.441137218E1
5.753349217E0,3.664009571E0,1.499103427E0,1.689213181E1
5.773461092E0,4.942375183E0,9.571290575E-3,1.973958969E1
5.793572967E0,2.372483730E0,7.896314561E-2,1.720918083E1
5.813684842E0,-6.819544733E-2,6.975077987E-1,1.254975700E1
5.833796665E0,-6.634100676E-1,9.702895880E-1,9.790233612E0
5.853908540E0,-2.063809484E-1,1.018744230E0,8.749954224E0
5.874020415E0,4.139583111E-1,8.847461939E-1,8.055437088E0
5.894132290E0,5.455635786E-1,7.196413875E-1,6.890730858E0
5.914244165E0,3.409772217E-1,6.406782866E-1,5.318646431E0
5.934356040E0,7.537391037E-2,6.508477330E-1,3.773481369E0
5.954467863E0,-2.213360928E-2,7.136593461E-1,2.746362209E0
5.974579738E0,8.614161611E-2,7.537391186E-1,2.344966173E0
5.994691613E0,1.812563092E-1,7.860422134E-1,2.672782898E0
6.014803488E0,-2.033899166E-2,8.787640929E-1,3.288336515E0
6.034915363E0,-2.739782035E-1,1.049252748E0,3.674179077E0
6.055027238E0,-5.108676553E-1,1.411765337E0,3.722633839E0
6.075139061E0,-3.708875179E-1,1.991426587E0,4.199403763E0
6.095250936E0,7.716853172E-2,2.206182480E0,5.886941910E0
6.115362811E0,8.608179688E-1,1.872981906E0,8.356932640E0
6.135474686E0,2.264806747E0,1.265205026E0,1.053260708E1
6.155586561E0,5.411966801E0,-3.852444589E-1,1.617548180E1
6.175698384E0,6.597012043E0,-9.792626500E-1,2.424587440E1
6.195810259E0,3.105285645E0,2.297109663E-1,2.398685074E1
6.215922134E0,8.991031051E-1,1.160519004E0,1.859402657E1
6.236034009E0,3.299702406E0,1.354337573E0,1.698126411E1
6.256145884E0,6.132206440E0,9.912267923E-1,1.967079735E1
6.276257706E0,5.277968407E0,8.368897438E-1,1.921257210E1
6.296369581E0,3.320041418E0,1.115055323E0,1.509990692E1
6.316481456E0,2.413161755E0,1.549352646E0,1.084845924E1
6.336593331E0,2.490928411E0,2.063809633E0,8.014161110E0
6.356705154E0,2.670988321E0,2.041077614E0,6.417550564E0
6.376817029E0,2.305484533E0,1.618146300E0,5.495715618E0
6.396928904E0,1.666600943E0,1.186241865E0,4.724030018E0
6.417040779E0,1.074975610E0,9.296116233E-1,3.909872293E0
6.437152602E0,4.983053207E-1,1.045663476E0,2.999403238E0
6.457264477E0,-2.979064286E-1,1.737787485E0,2.249851465E0
6.477376352E0,-1.251446247E0,2.480160713E0,1.716850281E0
6.497488227E0,-1.463211060E0,2.276770830E0,1.176072359E0
6.517600050E0,-1.128814101E0,1.500898004E0,1.342373490E0
6.537711925E0,7.657032460E-2,1.155135155E0,4.314259052E0
6.557823800E0,1.664806366E0,1.252044439E0,9.222537041E0
6.577935623E0,2.527418852E0,1.733600020E0,1.147478104E1
6.598047498E0,2.282154560E0,2.031506538E0,8.921041489E0
6.618159373E0,1.881955028E0,2.486740828E0,6.316453457E0
6.638271248E0,1.871187329E0,2.676970243E0,7.627720356E0
6.658383071E0,1.882553220E0,2.373680115E0,1.112124157E1
6.678494946E0,1.418345571E0,2.135594130E0,1.418225956E1
6.698606821E0,1.459621787E-1,2.336591244E0,1.510289860E1
6.718718644E0,-1.088734269E0,2.810370207E0,1.460160160E1
6.738830519E0,-1.298106313E0,3.245265722E0,1.474995708E1
6.758942394E0,-1.160518974E-1,2.485544443E0,1.713380623E1
6.779054217E0,1.398604870E0,9.984052777E-1,2.061715889E1
6.799166092E0,2.285145670E-1,1.130608693E-1,2.120519447E1
6.819277967E0,-1.792224169E0,7.178468108E-1,1.713978767E1
6.839389790E0,-2.309073925E0,1.519442320E0,1.306959724E1
6.859501665E0,-1.268195987E0,1.607976794E0,1.032562828E1
6.879613540E0,-1.082752272E-1,1.742573142E0,8.593822479E0
6.899725363E0,5.246263742E-1,1.576870084E0,7.172485828E0
6.919837238E0,6.095715761E-1,1.211964726E0,5.733202934E0
6.939949113E0,3.493520916E-1,9.457631707E-1,4.820939541E0
6.960060936E0,3.062812984E-1,9.266205430E-1,4.334598064E0
6.980172811E0,1.339980662E-1,9.361918569E-1,3.485744476E0
7.000284634E0,-1.555334684E-2,9.248259664E-1,2.479562521E0
7.020396509E0,6.999006122E-2,1.222134113E0,1.944766641E0
7.040508384E0,2.500499785E-1,1.743769526E0,2.458027124E0
7.060620206E0,1.698904037E-1,2.257628202E0,3.802793503E0
7.080732081E0,-3.708875179E-1,2.871985435E0,4.574478626E0
7.100843956E0,-1.048654556E0,3.588635683E0,4.147359848E0
7.120955779E0,-9.529415965E-1,4.252045631E0,4.305884361E0
7.141067654E0,-1.064806059E-1,4.075575352E0,6.363113403E0
7.161179477E0,5.042873621E-1,3.177668571E0,1.024965572E1
7.181291352E0,1.884347796E0,2.161317110E0,1.464347649E1
7.201403227E0,3.010170937E0,1.632503271E0,1.863171387E1
7.221515050E0,2.772683144E0,1.397408366E0,1.996690941E1
7.241626925E0,1.985444546E0,1.564307809E0,1.850489426E1
7.261738748E0,2.154736757E0,1.886142492E0,1.800898170E1
7.281850623E0,2.848057270E0,1.360319614E0,1.994776535E1
7.301962498E0,2.576471806E0,7.645068169E-1,2.102932167E1
7.322074321E0,1.497308731E0,7.657032609E-1,1.858146477E1
7.342186196E0,9.517452121E-1,1.487139225E0,1.388196087E1
7.362298019E0,1.750349760E0,2.093121529E0,1.016770172E1
7.382409894E0,2.867797852E0,2.106880426E0,8.194221497E0
7.402521769E0,3.286541939E0,1.673181176E0,7.192824841E0
7.422633592E0,2.609971285E0,1.149751306E0,5.921638012E0
7.442745467E0,1.529611826E0,7.447660565E-1,4.233501434E0
7.462857290E0,6.927221417E-1,6.089733839E-1,2.449652195E0
7.482969165E0,1.339980662E-1,7.357929349E-1,1.831705689E0
7.503080988E0,-2.087737769E-1,1.015154958E0,2.859423161E0
7.523192863E0,-8.524430394E-1,1.110269666E0,3.981058598E0
7.543304686E0,-1.719841242E0,1.164108157E0,2.968296528E0
7.563416561E0,-2.327019930E0,1.645663738E0,1.819741607E0
7.583528436E0,-2.281556368E0,2.454437733E0,1.990828395E0
7.603640259E0,-1.204187989E0,3.201596737E0,2.371287346E0
7.623752134E0,1.363908947E-1,3.841078520E0,2.158325911E0
7.643863956E0,1.750349760E0,4.080360889E0,1.545763373E0
7.663975831E0,3.337389469E0,3.442075491E0,3.059821844E0
7.684087654E0,3.912265062E0,2.266601324E0,9.365508080E0
7.704199529E0,2.806781054E0,1.581057549E0,1.650628853E1
7.724311352E0,-3.320041299E-1,1.794616938E0,1.762074661E1
7.744423227E0,-2.958127022E0,2.973082066E0,1.686042595E1
7.764535050E0,-2.697309256E0,4.627120972E0,1.761237144E1
7.784646925E0,-6.705885530E-1,4.631308079E0,1.798266029E1
7.804758748E0,2.612364054E0,3.494119167E0,1.924607086E1
7.824870623E0,4.934000492E0,2.009970903E0,2.085883331E1
7.844982446E0,3.591028690E0,6.975077987E-1,2.170649147E1
7.865094321E0,-7.357929647E-2,5.754738450E-1,2.024627113E1
7.885206144E0,-1.587039590E0,6.664010882E-1,1.696571159E1
7.905318019E0,-9.900303483E-1,7.698906660E-1,1.324247837E1
7.925429842E0,2.303091735E-1,7.980063558E-1,9.536594391E0
7.945541717E0,1.218544960E0,5.772684813E-1,6.616154671E0
7.965653540E0,1.368096352E0,2.386840582E-1,4.503890514E0
7.985765415E0,6.729813814E-1,4.546362907E-2,2.959921598E0
8.005877238E0,-3.966103494E-1,8.075776696E-2,2.008774519E0
8.025989113E0,-1.158126116E0,1.280160099E-1,1.522433400E0
8.046100936E0,-1.547558069E0,2.279163599E-1,1.003190875E0
8.066212811E0,-1.354935765E0,2.392822653E-1,7.728816867E-1
8.086324634E0,-4.534398913E-1,3.678964674E-1,1.821536183E0
8.106436456E0,2.512463629E-1,6.376872063E-1,3.044866800E0
8.126548331E0,6.681957245E-1,8.524430394E-1,3.948157310E0
8.146660154E0,5.599204898E-1,1.240080357E0,4.337589264E0
8.166772029E0,-1.914258115E-2,1.750947952E0,4.546362877E0
8.186883852E0,-6.628118753E-1,1.932802439E0,5.833103180E0
8.206995727E0,-6.299105883E-1,1.692921996E0,8.406583786E0
8.227107550E0,-3.738785386E-1,1.514058471E0,1.029571724E1
8.247219425E0,3.284149170E-1,7.902296782E-1,1.376889992E1
8.267331248E0,3.464807272E0,-2.709871531E-1,1.925205231E1
8.287443123E0,6.881757736E0,3.355933726E-1,2.225265312E1
8.307554946E0,5.883352757E0,1.926820397E0,1.984966087E1
8.327666769E0,3.827319860E0,2.664407969E0,1.669592094E1
8.347778644E0,3.901497364E0,1.850848317E0,1.785165405E1
8.367890467E0,4.146761417E0,9.607182741E-1,2.026182365E1
8.388002342E0,3.622733593E0,1.177268744E0,1.902712822E1
8.408114165E0,2.855235577E0,1.807179332E0,1.520937920E1
8.428226040E0,1.935793519E0,2.237887383E0,1.160459137E1
8.448337863E0,1.556531072E0,2.125424623E0,9.509077072E0
8.468449686E0,1.759322882E0,1.511665702E0,8.261219978E0
8.488561561E0,1.925025821E0,1.025922656E0,7.397411346E0
8.508673384E0,2.233101845E0,6.358926296E-1,6.538986206E0
8.528785259E0,2.340778828E0,4.570291340E-1,5.246861935E0
8.548897081E0,1.989033818E0,4.977070987E-1,3.538386583E0
8.569008904E0,1.258026481E0,7.513462901E-1,1.455434322E0
8.589120779E0,1.513460279E-1,1.151545882E0,-2.931207716E-1
8.609232602E0,-7.920243144E-1,1.491924882E0,-8.303094506E-1
8.629344425E0,-1.070189953E0,1.554138303E0,-9.272187948E-2
8.649456300E0,-6.795616150E-1,1.497308731E0,1.396211982E0
8.669568123E0,8.913264424E-2,1.608574986E0,3.385843992E0
8.689679998E0,5.168496966E-1,1.919641972E0,5.771488190E0
8.709791821E0,5.180460811E-1,2.023131609E0,8.158926964E0
8.729903644E0,2.703889608E-1,1.966900229E0,9.419944763E0
8.750015519E0,2.069791555E-1,2.120639086E0,1.024546814E1
8.770127342E0,4.600201547E-1,2.021337032E0,1.280638695E1
8.790239165E0,1.058823988E-1,2.021935225E0,1.734736633E1
8.810351040E0,-5.264209956E-2,2.447857618E0,2.037309074E1
8.830462863E0,6.699903607E-1,3.098107100E0,1.880579185E1
8.850574686E0,2.356930256E0,3.561716557E0,1.711466408E1
8.870686561E0,4.222733974E0,2.982055187E0,1.819442558E1
8.890798384E0,4.393222332E0,2.350948334E0,1.947757721E1
8.910910206E0,2.199602127E0,2.380260229E0,1.782174301E1
8.931022081E0,7.160521746E-1,2.127219439E0,1.488874054E1
8.951133904E0,1.126421213E0,1.817947030E0,1.255753326E1
8.971245727E0,2.421536446E0,1.754537225E0,1.024068260E1
8.991357602E0,2.539382935E0,1.932204247E0,8.069195747E0
9.011469425E0,1.605584025E0,1.718644857E0,6.592226505E0
9.031581248E0,6.047859192E-1,1.243669510E0,5.846263885E0
9.051693123E0,3.409772217E-1,6.861419082E-1,5.228915691E0
9.071804946E0,4.372883439E-1,3.098705411E-1,4.411168575E0
9.091916769E0,3.798605800E-1,1.812563092E-1,3.461217880E0
9.112028644E0,3.332005441E-1,2.524427772E-1,2.646461725E0
9.132140467E0,7.477571070E-2,6.287141442E-1,1.863410592E0
9.152252290E0,-5.264209956E-2,9.278169870E-1,1.187438250E0
9.172364165E0,4.821537733E-1,9.385846853E-1,2.141576290E0
9.192475988E0,9.176474810E-1,7.250252366E-1,5.068596363E0
9.212587811E0,8.973084688E-1,7.028916478E-1,7.631907940E0
9.232699634E0,3.936193287E-1,1.143171072E0,7.998009682E0
9.252811509E0,1.256231871E-2,1.682154298E0,7.110870838E0
9.272923331E0,9.116654396E-1,1.786840320E0,7.771289825E0
9.293035154E0,1.765903115E0,9.607182741E-1,1.096750259E1
9.313147029E0,3.315854073E0,6.526423693E-1,1.483370590E1
9.333258852E0,5.724828243E0,4.630111754E-1,1.735394669E1
9.353370675E0,6.806982040E0,-9.930214286E-2,1.794796371E1
9.373482498E0,5.917450428E0,-3.559323549E-1,1.755374718E1
9.393594373E0,5.227120876E0,-7.668996453E-1,1.791027832E1
9.413706196E0,4.271188259E0,-9.218349457E-1,1.784028816E1
9.433818019E0,3.006581545E0,-6.221339107E-1,1.629213142E1
9.453929894E0,1.990828395E0,2.482553422E-1,1.410688591E1
9.474041717E0,1.602592945E0,1.179661512E0,1.228594780E1
9.494153540E0,1.679163337E0,1.705484390E0,1.061575794E1
9.514265363E0,1.814357758E0,2.073380709E0,9.191430092E0
9.534377238E0,2.111665964E0,2.202593327E0,7.830512047E0
9.554489061E0,2.398804665E0,2.109273195E0,6.773482800E0
9.574600884E0,2.186441660E0,1.930409670E0,5.912066460E0
9.594712706E0,1.606780410E0,1.767697692E0,5.220541000E0
9.614824581E0,1.072582722E0,1.617548108E0,4.646263599E0
9.634936404E0,5.587241054E-1,1.486541033E0,4.212564468E0
9.655048227E0,2.213360965E-1,1.423131227E0,3.907479286E0
9.675160050E0,5.503492057E-2,1.396211982E0,3.547359467E0
9.695271873E0,3.188436031E-1,1.322632670E0,3.367299557E0
9.715383748E0,6.526423693E-1,1.237687469E0,3.222533941E0
9.735495571E0,6.293123364E-1,1.250848055E0,3.178266764E0
9.755607394E0,1.962114573E-1,1.235892892E0,3.260818958E0
9.775719217E0,-2.093719840E-1,1.175474167E0,4.138985157E0
9.795831092E0,-5.192425251E-1,1.490130305E0,5.956932068E0
9.815942915E0,-5.862415582E-2,1.572084427E0,9.477970123E0
9.836054738E0,1.436890006E0,1.691127419E0,1.410509109E1
9.856166561E0,2.519043922E0,2.680559635E0,1.751964951E1
9.876278384E0,2.540579557E0,3.227319479E0,1.800718689E1
9.896390259E0,1.647458434E0,2.415554523E0,1.839303017E1
9.916502081E0,1.189232826E0,7.184450030E-1,2.170828438E1
9.936613904E0,1.222732425E0,-8.039883971E-1,2.570429993E1
9.956725727E0,6.035895348E-1,-1.776670814E0,2.662194633E1
9.976837550E0,5.922235921E-2,-2.002792597E0,2.282154655E1
9.996949425E0,2.901297510E-1,-1.111466169E0,1.646979904E1
1.001706125E1,1.382453322E0,2.931207716E-1,1.082752228E1
1.003717307E1,2.341975212E0,1.271187067E0,6.958328247E0
1.005728489E1,2.515454769E0,1.445264935E0,5.094319344E0
1.007739672E1,1.655833244E0,1.195214868E0,4.506881237E0
1.009750859E1,4.965106845E-1,9.541380405E-1,4.174279213E0
1.011762042E1,-3.792623878E-1,8.362914920E-1,3.766302824E0
1.013773224E1,-5.509474277E-1,7.208378315E-1,3.201596737E0
1.015784406E1,-1.459621787E-1,5.228317380E-1,2.741576433E0
1.017795588E1,4.504488707E-1,4.809573591E-1,3.148954630E0
1.019806771E1,6.909275651E-1,6.753742099E-1,3.327219963E0
1.021817958E1,8.350951076E-1,7.489534616E-1,4.003192425E0
1.023829140E1,6.484549642E-1,1.096511006E0,4.249054909E0
1.025840323E1,-2.530409992E-1,1.383649707E0,3.494717360E0
1.027851505E1,-7.016952634E-1,1.222134113E0,4.225126743E0
1.029862687E1,-5.276173949E-1,1.439880967E0,5.408377171E0
1.031873870E1,5.533402562E-1,1.948355794E0,6.824928284E0
1.033885057E1,1.554736495E0,2.551347256E0,8.685347557E0
1.035896239E1,2.419143677E0,2.407179594E0,1.027478027E1
1.037907422E1,1.067797065E0,3.307479143E0,1.164826107E1
1.039918604E1,2.863610506E0,9.613165259E-1,1.699621964E1
1.041929786E1,2.489133835E0,1.237089276E0,2.103709793E1
1.043940969E1,1.776072621E0,2.313261271E0,1.714696693E1
1.045952151E1,2.081755638E0,3.336193085E0,1.347338581E1
1.047963333E1,3.437887907E0,2.888735056E0,1.362832165E1
1.049974521E1,3.653241873E0,1.971685886E0,1.552403545E1
1.051985703E1,3.403192043E0,1.106680512E0,1.686162376E1
1.053996885E1,2.404786825E0,9.188438654E-1,1.574596977E1
1.056008068E1,1.506880045E0,1.036092162E0,1.367737389E1
1.058019250E1,1.855035782E0,1.125823021E0,1.182413292E1
1.060030432E1,2.152343988E0,1.303490162E0,1.018684387E1
1.062041614E1,2.347957134E0,1.168893814E0,9.115457535E0
1.064052797E1,2.361117840E0,1.043270707E0,8.602197647E0
1.066063979E1,2.011167526E0,8.901300430E-1,7.974081516E0
1.068075166E1,1.358525038E0,7.160521746E-1,7.524828911E0
1.070086349E1,6.209374666E-1,8.051848412E-1,6.654439926E0
1.072097531E1,1.064806059E-1,9.128618240E-1,5.194818020E0
1.074108713E1,2.081755698E-1,9.212366939E-1,4.365705013E0
1.076119896E1,6.185446382E-1,1.092323542E0,4.162913322E0
1.078131078E1,5.940182209E-1,1.538584948E0,4.315455437E0
1.080142260E1,1.770688742E-1,1.878963947E0,5.024329185E0
1.082153443E1,6.640082598E-2,2.036890268E0,6.090929985E0
1.084164625E1,1.573280841E-1,2.444866419E0,6.591628075E0
1.086175812E1,5.312066078E-1,2.808575630E0,7.261618614E0
1.088186995E1,9.110672474E-1,3.016751051E0,8.429315567E0
1.090198177E1,7.920243144E-1,2.961117983E0,9.215956688E0
1.092209359E1,6.472585201E-1,2.858226538E0,9.668798447E0
1.094220542E1,8.907282352E-1,2.312064886E0,1.056610680E1
1.096231724E1,1.235892892E0,1.405783296E0,1.228176022E1
1.098242906E1,8.715856671E-1,1.530210137E0,1.212503052E1
1.100254088E1,1.854437590E-1,2.383251429E0,9.601799011E0
1.102265271E1,3.469592929E-1,3.131606579E0,7.644470215E0
1.104276453E1,9.948160052E-1,3.718446493E0,6.959524632E0
1.106287635E1,1.279561877E0,3.949353695E0,6.702296257E0
1.108298818E1,8.973084688E-1,3.442673683E0,8.142177582E0
1.110310000E1,5.365904570E-1,2.892922640E0,1.110269737E1
1.112321182E1,1.776670814E-1,2.560320139E0,1.088136101E1
1.114332364E1,-1.501496136E-1,2.576471806E0,1.010189915E1
1.116343547E1,2.931207791E-2,2.389831543E0,9.226125717E0
1.120330225E1,5.934200287E-1,3.976273060E0,1.112961674E1
1.122341386E1,1.448255897E0,4.335794449E0,1.224526978E1
1.124352553E1,9.505487680E-1,4.973481655E0,1.279023552E1
1.126363714E1,8.877372146E-1,4.103690624E0,1.239721394E1
1.128374881E1,1.372283816E0,2.885744095E0,1.411406422E1
1.130386042E1,1.564906001E0,1.969891191E0,1.779901123E1
1.132397209E1,3.014956415E-1,1.737787485E0,1.919941139E1
1.134408370E1,-1.323230863E0,2.182852507E0,1.608515167E1
1.136419532E1,-1.462014675E0,2.784049034E0,1.253360462E1
1.138430699E1,-5.425725579E-1,2.927618504E0,1.126122189E1
1.140441860E1,1.585244983E-1,2.721237659E0,1.155553913E1
1.142453027E1,-1.770688742E-1,2.601596355E0,1.105902767E1
1.144464188E1,-5.018945336E-1,2.429911375E0,9.538987160E0
1.146475350E1,-4.671986103E-1,2.253440619E0,8.092526436E0
1.148486516E1,-2.548356056E-1,1.942971945E0,7.194619656E0
1.150497678E1,-3.529413417E-2,1.432104349E0,6.817749977E0
1.152508839E1,-3.290131316E-2,9.978070259E-1,6.689733982E0
1.154520006E1,-1.298106313E-1,8.099704385E-1,6.099305153E0
1.156531167E1,-3.571287692E-1,7.872386575E-1,4.716851711E0
1.158542329E1,-6.317051649E-1,8.668000102E-1,3.062214851E0
1.160553495E1,-5.132604837E-1,8.925228715E-1,2.164308071E0
1.162564657E1,-1.166501045E-1,9.134600163E-1,2.172084808E0
1.164575818E1,1.657029688E-1,1.082752228E0,2.874378204E0
1.166586985E1,4.588237405E-1,1.104885817E0,4.032504559E0
1.168598146E1,5.120640397E-1,1.093519926E0,6.172286034E0
1.170609308E1,-2.452643216E-2,1.465603828E0,8.115258217E0
1.172620469E1,-9.343972206E-1,2.223530531E0,7.518248558E0
1.174631636E1,-9.290133715E-1,2.897109985E0,6.342176437E0
1.176642798E1,-1.022931710E-1,3.153740168E0,7.613363266E0
1.178653959E1,6.011967063E-1,2.889333248E0,1.078026390E1
1.180665126E1,5.587241054E-1,2.740978241E0,1.439881039E1
1.182676287E1,2.338984162E-1,3.036491871E0,1.636391640E1
1.184687449E1,1.977069736E0,2.533401012E0,1.679103470E1
1.186698610E1,4.518247128E0,1.776072621E0,1.833261108E1
1.188709777E1,5.222933769E0,2.506481707E-1,2.226401901E1
1.190720938E1,3.748356581E0,-1.075573802E0,2.488774872E1
1.192732100E1,8.141579032E-1,-4.007977843E-1,2.187159538E1
1.194743266E1,-3.595215976E-1,1.111466169E0,1.474696636E1
1.196754428E1,2.787638307E-1,2.069193363E0,9.181859016E0
1.198765589E1,9.224331379E-1,2.608774900E0,7.133004189E0
1.200776751E1,1.225723386E0,2.240878344E0,6.756732941E0
1.202787912E1,1.433898926E0,1.430907965E0,7.020541668E0
1.204799079E1,1.418345571E0,7.220342159E-1,6.917650223E0
1.206810240E1,1.205982566E0,2.967100143E-1,5.783452511E0
1.208821402E1,4.217349887E-1,2.662015259E-1,3.769891977E0
1.210832563E1,-6.454638839E-1,6.819544435E-1,1.765903115E0
1.212843725E1,-1.306481123E0,1.206580877E0,4.540380836E-1
1.214854891E1,-1.225723386E0,1.421934843E0,5.826523304E-1
1.216866053E1,-5.168496966E-1,1.290329576E0,1.887338877E0
1.218877214E1,-7.178467698E-3,1.380060434E0,3.231507063E0
1.220888376E1,3.918247223E-1,1.825125456E0,5.195415974E0
1.222899537E1,9.332008660E-2,2.657229662E0,6.836892605E0
1.224910699E1,-1.106082320E0,3.925425529E0,7.127022266E0
1.226921865E1,-1.426720500E0,4.543970108E0,6.559325218E0
1.228933027E1,5.862415582E-2,4.097708702E0,7.417151928E0
1.230944188E1,2.315654039E0,2.891128063E0,1.147717381E1
1.232955350E1,3.467798233E0,2.181656122E0,1.869093513E1
1.234966511E1,7.698906660E-1,3.162115097E0,2.005065727E1
1.236977672E1,-2.064407825E0,4.200001717E0,1.487139320E1
1.238988834E1,-1.522433400E0,4.496113777E0,1.286022568E1
1.241000001E1,1.506880045E0,3.043670416E0,1.730788422E1
1.243011162E1,2.786442041E0,1.663011789E0,2.185484505E1
1.245022324E1,9.463613629E-1,1.635494232E0,1.977967072E1
1.247033485E1,-1.065404296E0,2.075175524E0,1.440598869E1
1.249044646E1,-1.283151150E0,2.120639086E0,1.162672520E1
1.251055808E1,-6.975077987E-1,1.937588096E0,1.133719349E1
1.253066969E1,-5.491527915E-1,1.753939033E0,1.089811039E1
1.255078131E1,-5.497509837E-1,1.598405480E0,9.340383530E0
1.257089292E1,1.016949583E-2,1.222134113E0,7.840083599E0
1.259100454E1,6.352944374E-1,6.819544435E-1,7.256833076E0
1.261111620E1,1.374078393E0,5.844469070E-1,7.755736351E0
1.263122782E1,1.862812400E0,6.855437160E-1,8.629117012E0
1.265133943E1,1.162313581E0,9.840483069E-1,7.843074322E0
1.267145105E1,5.024927482E-2,1.348355532E0,4.336990833E0
1.269156266E1,-2.656033039E-1,1.578664780E0,5.808576941E-1
1.271167428E1,-3.589234129E-2,1.776670814E0,-1.055234790E0
1.273178589E1,-9.032905847E-2,1.776072621E0,2.817548811E-1
1.275189751E1,-1.515254974E0,1.264008522E0,1.046859860E0
1.277200912E1,-1.792822361E0,9.690931439E-1,3.104687452E0
1.279212074E1,-1.076171994E0,8.566305041E-1,5.781059742E0
1.281223235E1,1.668993831E-1,8.069794178E-1,9.465408325E0
1.283234396E1,1.890329868E-1,1.550549030E0,1.036570740E1
1.285245558E1,-2.596212626E-1,2.763710260E0,7.697710514E0
1.287256719E1,-8.099704385E-1,3.911068678E0,6.074180126E0
1.289267881E1,-4.803591371E-1,4.862813950E0,8.504690170E0
1.291279042E1,1.646860242E0,4.828716278E0,1.493540096E1
1.293290204E1,3.662214994E0,4.912465096E0,2.179143524E1
1.295301365E1,3.693919897E0,5.118845940E0,2.229751778E1
1.297312527E1,3.363710403E0,4.406383038E0,1.825484467E1
1.299323688E1,4.024727821E0,3.218346357E0,1.805624008E1
1.301334850E1,5.026124001E0,1.508674622E0,2.120639038E1
1.303346011E1,4.314857483E0,3.373879790E-1,2.080140495E1
1.305357172E1,2.699103832E0,3.355933726E-1,1.562872124E1
1.307368334E1,1.902294040E0,8.985049129E-1,1.069472122E1
1.309379495E1,2.169692039E0,1.310668588E0,7.945367813E0
1.311390657E1,3.136990547E0,1.566700578E0,6.790232658E0
1.313401818E1,3.681955814E0,1.763510346E0,5.752345562E0
1.315412980E1,3.439084291E0,1.671984792E0,4.734797955E0
1.317424141E1,2.600399971E0,1.352542996E0,4.239483356E0
1.319435303E1,1.602592945E0,1.104885817E0,3.951148272E0
1.321446464E1,7.322037220E-1,1.015154958E0,3.791427374E0
1.323457626E1,1.393819153E-1,1.087537885E0,4.097708702E0
1.325468787E1,-1.232303679E-1,1.292124271E0,4.554738045E0
1.327479943E1,-3.337987661E-1,1.582852125E0,4.582255363E0
1.329491105E1,-6.071787477E-1,2.054238319E0,4.287340164E0
1.331502266E1,-7.866404653E-1,2.547159672E0,4.015156269E0
1.333513428E1,-8.207381964E-1,3.018545866E0,3.948157310E0
1.335524589E1,-2.811566591E-1,3.284149170E0,5.498706341E0
1.337535751E1,1.471585929E-1,3.588037491E0,6.518647194E0
1.339546912E1,1.878365725E-1,3.584448338E0,6.116054535E0
1.341558074E1,2.219343036E-1,3.328416348E0,6.302694798E0
1.343569235E1,5.910272002E-1,3.109472990E0,9.019744873E0
1.345580396E1,1.339382529E0,3.083152056E0,1.312881947E1
1.347591558E1,1.403390527E0,3.953541279E0,1.687179184E1
1.349602714E1,7.537391037E-2,5.295316696E0,1.696571159E1
1.351613876E1,2.440679073E-1,4.823930264E0,1.675633812E1
1.353625037E1,1.997408748E0,3.020938635E0,2.033001900E1
1.355636199E1,1.956132531E0,2.008774519E0,2.351725960E1
1.357647360E1,2.931207791E-2,1.952543259E0,2.127398872E1
1.359658522E1,-1.398604870E0,2.422732830E0,1.564427471E1
1.361669683E1,-1.351944804E0,2.781058073E0,1.121575832E1
1.363680839E1,-1.441675574E-1,2.468794823E0,8.889336586E0
1.365692001E1,8.129615188E-1,1.755733609E0,7.925028801E0
1.367703162E1,1.455434322E0,1.010369420E0,8.130212784E0
1.369714324E1,1.167099237E0,7.651050687E-1,8.000402451E0
1.371725485E1,4.163511395E-1,5.401797295E-1,6.407381058E0
1.373736647E1,-9.511470050E-2,3.720839322E-1,4.086342812E0
1.375747803E1,-1.962114573E-1,6.939185858E-1,2.437089920E0
1.377758964E1,-9.571290761E-2,1.368694544E0,1.849053741E0
1.379770126E1,1.028913707E-1,1.956132531E0,2.461616278E0
1.381781287E1,1.399801224E-1,2.205584288E0,3.450450182E0
1.383792449E1,-1.034895778E-1,2.536391973E0,3.877569199E0
1.385803610E1,-5.030909777E-1,3.090330362E0,3.924229145E0
1.387814766E1,-1.048056364E0,3.787240028E0,3.879961967E0
1.389825928E1,-1.143171072E0,4.296313286E0,4.529015064E0
1.391837089E1,-6.903293133E-1,4.347758770E0,5.970092297E0
1.393848251E1,1.830509305E-1,3.798605919E0,7.452445984E0
1.395859412E1,1.689931035E0,2.867199659E0,8.869595528E0
1.397870574E1,3.583850145E0,1.678565025E0,1.226979637E1
1.399881730E1,3.886542082E0,1.184447169E0,1.681017685E1
1.401892891E1,1.771885157E0,1.517049551E0,1.786720657E1
1.403904053E1,1.144965649E0,1.782054663E0,1.572921944E1
1.405915214E1,2.681756020E0,1.582852125E0,1.465843105E1
1.407926376E1,3.929612875E0,1.332802176E0,1.587817287E1
1.409937532E1,3.251247883E0,1.096511006E0,1.597388554E1
1.411948693E1,2.292922258E0,8.997012973E-1,1.359721470E1
1.413959855E1,1.904686809E0,1.006181955E0,1.104826069E1
1.415971016E1,2.228914261E0,9.942178130E-1,1.009950638E1
1.417982178E1,2.898904562E0,9.762716293E-1,1.061216831E1
1.419993334E1,2.431705952E0,8.925228715E-1,1.023529911E1
1.422004495E1,1.608574986E0,7.848458290E-1,8.900702477E0
1.424015657E1,9.852447510E-1,7.375875711E-1,7.055237770E0
1.426026818E1,7.609176040E-1,8.099704385E-1,5.361717224E0
1.428037975E1,1.287936807E0,1.003190875E0,4.980062008E0
1.430049136E1,1.272383451E0,1.250848055E0,5.145765305E0
1.432060298E1,1.381855011E-1,1.591227055E0,5.175076962E0
1.434071459E1,-1.118046403E0,1.850848317E0,4.908277512E0
1.436082615E1,-1.217946768E0,2.094317913E0,4.543372154E0
1.438093777E1,2.171486616E-1,2.434098721E0,4.786243439E0
1.440104938E1,1.637288928E0,2.992822886E0,5.574080467E0
1.442116100E1,2.392224550E0,3.588635683E0,6.664011002E0
1.444127261E1,2.139781713E0,3.655036688E0,7.167101860E0
1.446138417E1,1.325025558E0,3.339782238E0,7.667201996E0
1.448149579E1,1.323230863E0,2.631506681E0,9.816555023E0
1.450160740E1,1.963909149E0,1.698305845E0,1.368873978E1
1.452171896E1,2.356930256E0,1.222134113E0,1.767697716E1
1.454183058E1,1.510469317E0,1.408774376E0,1.863290977E1
1.456194219E1,-1.088734269E-1,2.192423820E0,1.621855164E1
1.458205381E1,-9.918249846E-1,3.016751051E0,1.485284805E1
1.460216542E1,2.111666054E-1,2.526222467E0,1.678983879E1
1.462227699E1,2.456830740E0,1.149153113E0,1.871127510E1
1.464238860E1,2.968296528E0,6.011967063E-1,1.820579147E1
1.466250022E1,7.914260626E-1,9.996016622E-1,1.516391563E1
1.468261183E1,-9.613165259E-1,1.299900889E0,1.162971592E1
1.470272339E1,-1.468594909E0,1.360319614E0,9.293723106E0
1.472283501E1,-1.159322619E0,1.377667665E0,8.209176064E0
1.474294662E1,-5.264210105E-1,1.144367456E0,7.774280548E0
1.476305824E1,-2.632104978E-2,9.068797827E-1,7.375875950E0
1.478316980E1,2.153540403E-1,8.081758618E-1,6.628118515E0
1.480328141E1,3.014956415E-1,8.805587292E-1,5.456831932E0
1.482339303E1,1.836491376E-1,1.048654556E0,4.116253376E0
1.484350459E1,-4.187439755E-2,1.205384374E0,2.724826813E0
1.486361620E1,-3.720839322E-1,1.406979680E0,1.675574064E0
1.488372782E1,-4.127618968E-1,1.719841242E0,1.684547186E0
1.490383943E1,1.142572835E-1,1.909472466E0,3.396611691E0
1.492395100E1,7.435696125E-1,1.712662816E0,5.696114540E0
1.494406261E1,6.843472719E-1,1.651645780E0,7.064808846E0
1.496417422E1,6.179464459E-1,1.680359721E0,7.348956585E0
1.498428584E1,7.830511928E-1,1.700100541E0,7.422535896E0
1.500439740E1,4.971089065E-1,1.521835208E0,8.207980156E0
1.502450902E1,-3.846462369E-1,1.380060434E0,1.085264683E1
1.504462063E1,-4.594219327E-1,7.740781307E-1,1.458784294E1
1.506473219E1,2.765504837E0,7.226324677E-1,1.678505325E1
1.508484381E1,6.328417778E0,1.748555183E0,1.699203110E1
1.510495542E1,5.685945034E0,2.663211584E0,1.545225048E1
1.512506704E1,4.074976921E0,2.721237659E0,1.318086338E1
1.514517860E1,4.817350388E0,2.776870728E0,1.194676495E1
1.516529022E1,6.583851337E0,1.848455548E0,1.380539036E1
1.518540183E1,6.172883987E0,3.750749528E-1,1.678565025E1
1.520551344E1,3.773481369E0,-1.872383654E-1,1.680000687E1
1.522562501E1,1.775474429E0,1.357926875E-1,1.371805191E1
1.524573662E1,1.715055585E0,5.527420044E-1,1.081436157E1
1.526584824E1,2.262413740E0,7.268198729E-1,9.083752632E0
1.528595985E1,2.136790514E0,5.581258535E-1,8.338987350E0
1.530607141E1,1.599003673E0,2.009970993E-1,7.774280548E0
1.532618303E1,1.072582722E0,5.383851007E-2,6.925426960E0
1.534629464E1,8.614161611E-1,1.543370634E-1,6.071189404E0
1.536640620E1,8.225327730E-1,3.726821244E-1,5.172086239E0
1.538651782E1,7.537391186E-1,6.412764788E-1,4.467400074E0
1.540662943E1,6.340979934E-1,9.343972206E-1,3.876372576E0
1.542674105E1,4.941178858E-1,1.058225870E0,3.619144201E0
1.544685261E1,5.533402562E-1,9.218349457E-1,4.099503517E0
1.546696422E1,7.860422134E-1,8.051848412E-1,5.105087280E0
1.548707584E1,6.275177598E-1,8.171489239E-1,6.122634888E0
1.550718745E1,2.889333367E-1,9.553344250E-1,6.345765591E0
1.552729902E1,-1.495514158E-2,1.237089276E0,5.700301647E0
1.554741063E1,1.704886109E-1,1.531406522E0,5.890531063E0
1.556752225E1,6.245267391E-1,1.773081541E0,7.159325123E0
1.558763386E1,9.738788009E-1,2.134397745E0,8.516654015E0
1.560774542E1,1.046859860E0,2.404188633E0,9.530014038E0
1.562785704E1,1.055832982E0,2.459821701E0,1.145085239E1
1.564796865E1,1.262213945E0,2.133799553E0,1.560359669E1
1.566808022E1,1.365105271E0,1.915454507E0,1.949612045E1
1.568819183E1,1.597209096E0,2.569891453E0,1.909651947E1
1.570830344E1,2.973082066E0,3.197409153E0,1.687657738E1
1.572841506E1,2.675175667E0,2.533401012E0,1.815972900E1
1.574852662E1,5.676971674E-1,9.924231768E-1,2.170110703E1
1.576863824E1,-9.224331379E-1,4.247260094E-2,2.152942085E1
1.578874985E1,-9.170492887E-1,1.489532143E-1,1.702672768E1
1.580886146E1,2.093719840E-1,1.093519926E0,1.164108181E1
1.582897303E1,1.287338614E0,1.807777524E0,8.075776100E0
1.584908464E1,1.238285661E0,1.858026743E0,6.423532486E0
1.586919626E1,5.539384484E-1,1.723430514E0,5.556732178E0
1.588930787E1,-1.752742529E-1,1.756331801E0,4.563112736E0
1.590941943E1,-6.041877270E-1,1.849053741E0,3.854238987E0
1.592953105E1,-7.136593461E-1,1.859821439E0,3.805784464E0
1.594964266E1,-3.128615618E-1,1.664806366E0,4.552943230E0
1.596975428E1,1.950150430E-1,1.493719578E0,5.529813290E0
1.598986584E1,4.737788737E-1,1.423729420E0,6.065207005E0
1.600997745E1,6.945167780E-1,1.381256819E0,5.878567219E0
1.603008907E1,8.805587292E-1,1.264008522E0,5.533402443E0
1.605020068E1,8.333004713E-1,1.073779106E0,5.644668579E0
1.607031225E1,4.564309120E-1,1.099501967E0,6.168098450E0
1.609042386E1,8.033902049E-1,1.637288928E0,6.869195461E0
1.611053548E1,2.621935368E0,2.383251429E0,7.374081135E0
1.613064704E1,4.094119549E0,2.905484915E0,7.441678524E0
1.615075865E1,3.990629911E0,3.053241730E0,7.136593342E0
1.617087027E1,2.690729141E0,3.049054146E0,7.030112743E0
1.619098188E1,7.118647099E-1,2.978466034E0,8.099704742E0
1.621109350E1,-1.121635556E0,2.570489645E0,1.038305569E1
1.623120506E1,-2.801995277E0,2.367697954E0,1.250429249E1
1.625131667E1,-4.049253941E0,2.406581402E0,1.385803223E1
1.627142829E1,-3.758526087E0,2.472383976E0,1.411884975E1
1.629153985E1,-1.769492388E0,2.769692183E0,1.451605892E1
1.631165146E1,4.947160780E-1,3.384049416E0,1.562094402E1
1.633176308E1,2.162513494E0,2.773879766E0,1.728874207E1
1.635187469E1,2.992822886E0,6.771687865E-1,1.982633018E1
1.637198626E1,2.879163742E0,-1.394417405E0,2.232742882E1
1.639209787E1,1.644467354E0,-1.837687731E0,2.006501389E1
1.641220949E1,9.367900491E-1,-8.895317912E-1,1.409970760E1
1.643232110E1,1.677368641E0,2.673979402E-1,8.677571297E0
1.645243272E1,2.598605394E0,1.081555843E0,5.112265587E0
1.647254428E1,2.688336134E0,1.268195987E0,4.173082829E0
1.649265589E1,1.814357758E0,9.427721500E-1,5.212764263E0
1.651276751E1,5.623133183E-1,5.928218365E-1,6.271588326E0
1.653287912E1,-1.471585929E-1,5.156532526E-1,6.069394588E0
1.655299068E1,-1.830509305E-1,6.843472719E-1,4.831109047E0
1.657310230E1,2.333002090E-1,7.537391186E-1,3.885943890E0
1.659321391E1,8.434699476E-2,7.244270444E-1,4.438685894E0
1.661332553E1,-6.358926296E-1,1.068395257E0,5.483152866E0
1.663343709E1,-1.091725349E0,1.659422517E0,5.600401402E0
1.665354870E1,-6.490531564E-1,2.118246317E0,5.318646431E0
1.667366032E1,2.362912297E-1,2.577668190E0,5.642873764E0
1.669377193E1,1.108475089E0,3.198605776E0,6.489933014E0
1.671388350E1,1.399203062E0,3.439682484E0,7.275377274E0
1.673399511E1,1.275972724E0,3.342175007E0,7.811369419E0
1.675410672E1,1.106680512E0,3.095116138E0,8.457431793E0
1.677421834E1,1.040877819E0,2.754737139E0,9.468997002E0
1.679432995E1,1.015154958E0,2.494517565E0,1.078146076E1
1.681444152E1,9.726824164E-1,2.346760750E0,1.239003563E1
1.683455313E1,5.186443329E-1,2.187039852E0,1.434138298E1
1.685466475E1,-3.343969584E-1,2.444268227E0,1.552463341E1
1.687477631E1,-1.300499082E0,3.474378586E0,1.438146210E1
1.689488792E1,-1.409372568E0,4.390829563E0,1.258744335E1
1.691499954E1,-2.249253243E-1,4.087539196E0,1.373121262E1
1.693511115E1,1.255035520E0,2.517847538E0,1.712662888E1
1.695522277E1,1.237089276E0,1.347159147E0,1.959183311E1
1.697533433E1,1.274178028E-1,8.829515576E-1,1.794497299E1
1.699544594E1,-7.585247755E-1,7.842476368E-1,1.370309734E1
1.701555756E1,-8.985049129E-1,9.595218897E-1,1.080598736E1
1.703566917E1,-3.529413342E-1,1.156929731E0,9.675378799E0
1.705578079E1,4.791627228E-1,1.048056364E0,8.149953842E0
1.707589235E1,1.158724308E0,9.200403094E-1,5.791228771E0
1.709600396E1,1.450050473E0,1.034895778E0,3.993621111E0
1.711611558E1,1.233500123E0,1.067797065E0,3.516252756E0
1.713622719E1,7.393822074E-1,9.972088337E-1,3.490530014E0
1.715633876E1,2.153540403E-1,1.033101201E0,3.009572744E0
1.717645037E1,-4.007977992E-2,1.144965649E0,3.096312523E0
1.719656199E1,-2.231307179E-1,1.247856975E0,4.555335999E0
1.721667360E1,-7.298108935E-1,1.380060434E0,6.372086525E0
1.723678522E1,-8.775677085E-1,1.636092424E0,7.752147198E0
1.725689683E1,-7.429714203E-1,1.907079697E0,7.537391186E0
1.727700839E1,-4.013960063E-1,2.336591244E0,6.698108673E0
1.729712001E1,-1.304088384E-1,2.894119024E0,6.885347366E0
1.731723162E1,-1.561316848E-1,3.050250769E0,8.312665939E0
1.733734324E1,1.004985496E-1,2.997010469E0,9.215357780E0
1.735745480E1,2.141576290E0,2.496312141E0,1.006959629E1
1.737756641E1,4.860421181E0,1.652244091E0,1.492283821E1
1.739767803E1,4.775475979E0,1.756929994E0,1.971566200E1
1.741778964E1,2.098505497E0,2.846860647E0,1.695135307E1
1.743790126E1,2.300698996E0,3.037688255E0,1.256112289E1
1.745801282E1,5.709873199E0,1.562513232E0,1.510947895E1
1.747812443E1,6.775875568E0,5.084748268E-1,1.954636955E1
1.749823605E1,4.393820763E0,3.756731451E-1,1.843610001E1
1.751834766E1,1.825723648E0,5.665007830E-1,1.318505096E1
1.753845928E1,1.010369420E0,1.042672515E0,8.615956306E0
1.755857084E1,1.754537225E0,1.460818172E0,5.900102615E0
1.757868245E1,2.843271494E0,1.594218135E0,5.258227825E0
1.759879407E1,3.247658491E0,1.383051515E0,6.619145870E0
1.761890568E1,2.200200319E0,9.565308690E-1,7.263412952E0
1.763901730E1,8.081758618E-1,7.298108935E-1,6.376274109E0
1.765912891E1,-1.794617027E-1,9.445667267E-1,4.992026329E0
1.767924048E1,-4.133601189E-1,1.423131227E0,3.945764542E0
1.769935209E1,1.298106313E-1,1.706680775E0,3.849453449E0
1.771946370E1,1.079162955E0,1.716850281E0,5.253442287E0
1.773957532E1,1.374676585E0,1.718644857E0,7.019345284E0
1.775968693E1,8.350951076E-1,1.725823283E0,7.247261524E0
1.777979850E1,1.591227055E-1,1.820339799E0,6.055635929E0
1.779991011E1,1.890329868E-1,2.234298229E0,5.726622581E0
1.782002172E1,7.483552694E-1,2.585444927E0,6.823133945E0
1.784013334E1,1.247258782E0,2.737389088E0,8.809176445E0
1.786024495E1,1.464407444E0,2.439482689E0,1.138504982E1
1.788035657E1,1.442273855E0,1.899901152E0,1.388196087E1
1.790046813E1,5.491527915E-1,1.821536183E0,1.463091373E1
1.792057975E1,-4.899304509E-1,2.440080881E0,1.341894913E1
1.794069136E1,-7.758727670E-1,3.295515060E0,1.199581814E1
1.796080298E1,-3.014956415E-1,3.796811342E0,1.209990597E1
1.798091459E1,1.651047617E-1,3.067000389E0,1.432164192E1
1.800102615E1,4.067798555E-1,1.581057549E0,1.705903053E1
1.802113777E1,-2.303091735E-1,8.739784956E-1,1.895833397E1
1.804124938E1,-1.178465128E0,8.207381964E-1,1.796710777E1
1.806136100E1,-1.396810174E0,1.052243710E0,1.410927868E1
1.808147261E1,-6.855437160E-1,1.392024517E0,1.075394344E1
1.810158422E1,1.501496136E-1,1.541576028E0,8.639286041E0
1.812169579E1,1.609173268E-1,1.725225091E0,7.232904434E0
1.814180740E1,-4.468596280E-1,1.775474429E0,6.245266914E0
1.816191902E1,-9.481559992E-1,1.660020709E0,5.654838085E0
1.818203063E1,-8.727820516E-1,1.437488198E0,6.005386829E0
1.820214225E1,-1.962114573E-1,1.161117196E0,7.204190731E0
1.822225386E1,2.141576260E-1,9.996016622E-1,7.871788502E0
1.824236542E1,2.823530734E-1,8.745766878E-1,7.385447025E0
1.826247704E1,-1.016949639E-1,1.066002488E0,5.626124382E0
1.828258865E1,-2.177468538E-1,1.458425403E0,4.052245140E0
1.830270027E1,-1.818545163E-1,1.906481385E0,3.546163082E0
1.832281188E1,-2.811566591E-1,2.273181438E0,3.914657831E0
1.834292350E1,-4.307080805E-1,2.362912416E0,4.502095699E0
1.836303506E1,-3.134597540E-1,2.166700840E0,5.173282623E0
1.838314667E1,1.214357466E-1,1.880160451E0,6.318846226E0
1.840325829E1,4.253242314E-1,1.666600943E0,8.084749222E0
1.842336990E1,1.591825247E0,1.314257860E0,1.105424213E1
1.844348152E1,2.335394859E0,1.147358418E0,1.461177158E1
1.846359313E1,1.993221283E0,1.118644595E0,1.745085526E1
1.848370469E1,8.650053740E-1,1.396211982E0,1.793719673E1
1.850381631E1,1.244866014E0,1.713859200E0,1.644945908E1
1.852392792E1,3.189632654E0,1.612762451E0,1.643689728E1
1.854403954E1,4.490131855E0,7.094719410E-1,1.878605080E1
1.856415115E1,3.522234917E0,-2.991028363E-3,2.028754616E1
1.858426277E1,1.459023595E0,-1.082752272E-1,1.822792435E1
1.860437438E1,4.666004181E-1,4.815555513E-1,1.400578880E1
1.862448594E1,7.118647099E-1,1.272383451E0,1.004028416E1
1.864459756E1,1.441077471E0,1.667797327E0,7.149754047E0
1.866470917E1,1.902294040E0,1.795215130E0,5.512465000E0
1.868482079E1,1.957328916E0,1.742573142E0,4.673182487E0
1.870493240E1,1.615753531E0,1.544566989E0,4.155734539E0
1.872504402E1,1.208375454E0,1.314257860E0,3.940979004E0
1.874515563E1,7.776673436E-1,1.226321578E0,4.021138668E0
1.876526719E1,3.972085714E-1,1.313061476E0,4.069592953E0
1.878537881E1,9.631111473E-2,1.423131227E0,3.964308977E0
1.880549042E1,-2.081755698E-1,1.586441398E0,3.768695593E0
1.882560204E1,-3.984049559E-1,1.708475351E0,4.019343853E0
1.884571365E1,-1.668993831E-1,1.766501307E0,4.795814991E0
1.886582527E1,-3.529413417E-2,1.990828395E0,5.297111034E0
1.888593688E1,8.015955985E-2,2.228914261E0,5.366502762E0
1.890604850E1,1.447657645E-1,2.434098721E0,5.355735302E0
1.892616006E1,3.403790295E-1,2.522633314E0,6.222535133E0
1.894627167E1,7.752745152E-1,2.434098721E0,7.995018482E0
1.896638329E1,1.224527001E0,2.273779631E0,9.900303841E0
1.898649490E1,1.164108157E0,2.025524378E0,1.271545982E1
1.900660652E1,2.973082066E-1,1.628913999E0,1.689153290E1
1.902671813E1,-3.487538993E-1,1.530210137E0,2.023550224E1
1.904682969E1,-5.431707501E-1,2.171486616E0,1.941177368E1
1.906694131E1,1.824527234E-1,2.886342287E0,1.635314751E1
1.908705292E1,2.060818434E0,2.541177750E0,1.643928909E1
1.910716454E1,3.232105255E0,1.771885157E0,1.845703697E1
1.912727615E1,1.686939955E0,1.308874011E0,1.897089577E1
1.914738777E1,-4.067798555E-1,9.583254457E-1,1.664447403E1
1.916749938E1,-1.166501045E0,8.548358679E-1,1.362233925E1
1.918761094E1,-9.427721500E-1,9.786644578E-1,1.112303638E1
1.920772256E1,-4.348955154E-1,9.894321561E-1,8.909674644E0
1.922783417E1,-2.368894368E-1,9.367900491E-1,6.895516872E0
1.924794579E1,-4.935196638E-1,9.451649189E-1,5.350949764E0
1.926805740E1,-8.877372146E-1,8.614161611E-1,4.518845558E0
1.928816902E1,-1.016351461E0,7.112665176E-1,4.285545349E0
1.930828063E1,-8.853443861E-1,6.825526357E-1,4.506881237E0
1.932839225E1,-4.504488707E-1,7.938188910E-1,4.320241451E0
1.934850381E1,6.879365444E-2,8.147560954E-1,3.166302681E0
1.936861542E1,5.054838061E-1,7.447660565E-1,2.207977057E0
1.938872704E1,7.345965505E-1,8.530412912E-1,2.589632273E0
1.940883865E1,3.930211067E-1,9.475577474E-1,4.469792843E0
1.942895027E1,-4.013960063E-1,1.037288666E0,6.272186279E0
1.944906188E1,-9.840483069E-1,1.255035520E0,6.946363926E0
1.946917350E1,-7.064808607E-1,1.439282775E0,7.101299286E0
1.948928511E1,3.266202807E-1,1.725823283E0,7.971090317E0
1.950939667E1,1.347757339E0,1.921436548E0,1.027298546E1
1.952950829E1,1.539183140E0,1.694716692E0,1.288415337E1
1.954961990E1,1.682752490E0,1.383649707E0,1.459741497E1
1.956973152E1,2.165504456E0,1.229910851E0,1.590688705E1
1.958984313E1,2.946162939E0,1.173679471E0,1.738624954E1
1.960995475E1,3.406781197E0,1.097707391E0,1.832483482E1
1.963006636E1,3.629911900E0,4.779663086E-1,1.873879242E1
1.965017798E1,3.597010612E0,-5.461617708E-1,1.930349922E1
1.967028954E1,2.648854733E0,-1.191027522E0,1.900439644E1
1.969040115E1,1.435693622E0,-1.174277663E0,1.692922020E1
1.971051277E1,7.914260626E-1,-5.545366406E-1,1.363430309E1
1.973062438E1,8.039883971E-1,1.124626622E-1,1.001994514E1
1.975073600E1,1.198804140E0,6.125625968E-1,7.258627415E0
1.977084761E1,1.379462242E0,7.824530005E-1,5.758925915E0
1.979095922E1,1.189831018E0,7.423732281E-1,5.153541565E0
1.981107084E1,7.908278704E-1,6.628118753E-1,4.892126083E0
1.983118245E1,4.677968323E-1,5.605186820E-1,4.572684288E0
1.985129407E1,2.183450609E-1,5.599204898E-1,4.007379532E0
1.987140563E1,4.965107143E-2,7.549355626E-1,3.706482172E0
1.989151725E1,-7.238288224E-2,1.023529887E0,3.947559118E0
1.991162886E1,-1.555334777E-1,1.204786181E0,4.525425911E0
1.993174047E1,-7.058826834E-2,1.192822099E0,5.096712112E0
1.995185209E1,1.112662554E-1,1.278365493E0,5.614758492E0
1.997196370E1,2.386840582E-1,1.607976794E0,6.447460651E0
1.999207532E1,2.207378894E-1,2.028515339E0,7.563712597E0
2.001218693E1,5.503492057E-2,2.410170555E0,8.029714584E0
2.003229855E1,-8.554340899E-2,2.886342287E0,7.844869137E0
2.005241016E1,1.519442350E-1,2.822932482E0,8.702695847E0
2.007252172E1,4.881358147E-1,2.193022013E0,1.177448177E1
2.009263334E1,4.319044948E-1,1.883749604E0,1.566281891E1
2.011274495E1,-3.619144261E-1,2.126621008E0,1.735633850E1
2.013285657E1,-1.515254974E0,2.668595552E0,1.663968849E1
2.015296818E1,-1.966302037E0,3.139981508E0,1.516212082E1
2.017307980E1,-7.710871100E-1,2.673979282E0,1.558086491E1
2.019319141E1,6.317051649E-1,1.355534077E0,1.806401634E1
2.021330303E1,4.989035130E-1,3.996013701E-1,2.015893173E1
2.023341464E1,-5.024927258E-1,2.961117923E-1,1.807298851E1
2.025352620E1,-7.298108935E-1,9.505487680E-1,1.306002617E1
2.027363782E1,-4.965107143E-2,1.719243050E0,8.166703224E0
2.029374943E1,8.033902049E-1,2.230708838E0,4.586442947E0
2.031386105E1,1.206580877E0,2.251646042E0,2.910868645E0
2.033397266E1,1.030708313E0,2.030309916E0,3.144767046E0
2.035408428E1,4.127618968E-1,1.676172256E0,4.549354076E0
2.037419589E1,-7.776673883E-2,1.186241865E0,5.646463394E0
2.039430751E1,-2.757728100E-1,8.452646136E-1,5.931807518E0
2.041441912E1,1.304088384E-1,6.819544435E-1,5.795416355E0
2.043453074E1,7.633104324E-1,7.166503668E-1,5.731408596E0
2.045464235E1,1.134796143E0,9.044869542E-1,5.620740414E0
2.047475391E1,9.188438654E-1,1.319043517E0,4.971088886E0
2.049486553E1,4.983053207E-1,1.838884234E0,4.341776848E0
2.051497714E1,2.189432681E-1,2.394617319E0,4.857429981E0
2.053508876E1,2.440679073E-1,2.834896564E0,5.796612740E0
2.055520037E1,8.464609981E-1,2.870190859E0,6.705287457E0
2.057531199E1,1.567298889E0,2.338984251E0,7.686942577E0
2.059542360E1,1.883151412E0,1.697109461E0,9.916455269E0
2.061553522E1,8.398807645E-1,1.282552958E0,1.243789196E1
2.063564683E1,-1.585244983E-1,1.311864972E0,1.376172161E1
2.065575844E1,8.584251404E-1,1.622333765E0,1.508495235E1
2.067587006E1,2.586641312E0,2.210369825E0,1.609233093E1
2.069598162E1,3.942175388E0,2.492722988E0,1.590389538E1
2.071609324E1,4.570291042E0,2.158924341E0,1.652602959E1
2.073620485E1,4.074378967E0,9.936196208E-1,1.858206177E1
2.075631646E1,2.736790895E0,-1.722832322E-1,2.066321945E1
2.077642808E1,1.689931035E0,-4.785645306E-1,2.012603188E1
2.079653969E1,1.539781332E0,1.579262912E-1,1.628973770E1
2.081665131E1,1.756929994E0,9.960124493E-1,1.171525955E1
2.083676292E1,1.787438512E0,1.595414519E0,8.269595146E0
2.085687454E1,1.639681697E0,1.700100541E0,6.626324177E0
2.087698615E1,1.138385415E0,1.768295884E0,5.988038540E0
2.089709777E1,9.930213690E-1,1.768894196E0,5.614160061E0
2.091720938E1,1.025324464E0,1.516451359E0,4.956133842E0
2.093732094E1,1.063011408E0,1.246660590E0,4.360321045E0
2.095743256E1,9.182456732E-1,1.242473125E0,4.292723656E0
2.097754417E1,5.706881881E-1,1.359721422E0,4.718048096E0
2.099765579E1,2.829512656E-1,1.474576950E0,4.562514782E0
2.101776740E1,3.505485058E-1,1.710269928E0,3.985844374E0
2.103787902E1,7.866404653E-1,1.946561217E0,3.961916208E0
2.105799063E1,1.298704505E0,2.140379906E0,4.500301361E0
2.107810225E1,1.424327731E0,2.507079840E0,5.126622677E0
2.109821386E1,1.145563841E0,2.965305567E0,5.644070625E0
2.111832548E1,7.208378315E-1,3.212364435E0,6.226124287E0
2.113843709E1,7.040880919E-1,3.319443226E0,7.150950432E0
2.115854870E1,1.359721422E0,3.162115097E0,8.743971825E0
2.117866032E1,2.323430777E0,2.706282377E0,1.138863945E1
2.119877188E1,1.980060697E0,2.109273195E0,1.400638771E1
2.121888350E1,3.409772366E-2,1.747956991E0,1.435573959E1
2.123899511E1,-2.173879385E0,2.409572363E0,1.368814182E1
2.125910673E1,-2.397010088E0,3.571287870E0,1.406560993E1
2.127921834E1,-1.202393398E-1,3.739383698E0,1.580279922E1
2.129932995E1,1.807777524E0,3.029313564E0,1.809572029E1
2.131944157E1,1.964507341E0,2.001596212E0,1.982513428E1
2.133955318E1,5.024927258E-1,1.519442320E0,1.879083633E1
2.135966480E1,-9.128618240E-1,1.420738459E0,1.552702618E1
2.137977641E1,-1.471585870E0,1.491326690E0,1.191326618E1
2.139988803E1,-1.410568953E0,1.490728498E0,9.454042435E0
2.141999959E1,-9.481559992E-1,1.269990563E0,8.276175499E0
2.144011126E1,-2.572284341E-1,1.087537885E0,7.570292473E0
2.146022282E1,2.129612118E-1,1.141376376E0,6.397211552E0
2.148033443E1,3.248256743E-1,1.244267821E0,4.703093052E0
2.150044605E1,2.255235314E-1,1.381256819E0,3.259622574E0
2.152055766E1,-1.962114573E-1,1.405783296E0,2.761915445E0
2.154066928E1,-6.520441771E-1,1.401595831E0,3.241078377E0
2.156078089E1,-5.826523304E-1,1.426122308E0,3.902693748E0
2.158089251E1,4.067798331E-2,1.618146300E0,4.358526230E0
2.160100412E1,3.469592929E-1,1.963909149E0,5.286343575E0
2.162111574E1,3.996013701E-1,2.246860504E0,6.031109333E0
2.164122735E1,-3.349951655E-2,2.435893536E0,5.900700569E0
2.166133896E1,-7.064808607E-1,2.460419893E0,5.838487148E0
2.168145058E1,-8.697910309E-1,2.223530531E0,6.769893646E0
2.170156219E1,-1.926222295E-1,1.869990945E0,8.825926781E0
2.172167381E1,7.088736892E-1,1.752742529E0,1.122772217E1
2.174178537E1,1.007976532E0,1.875972986E0,1.234636688E1
2.176189699E1,4.677968323E-1,1.936989903E0,1.185763264E1
2.178200860E1,1.585244983E-1,1.922633052E0,1.159442234E1
2.180212022E1,1.172483087E0,2.057229280E0,1.253001595E1
2.182223183E1,2.489133835E0,2.388635159E0,1.365823174E1
2.184234344E1,3.276372433E0,2.063211441E0,1.491865063E1
2.186245506E1,3.115455151E0,1.258026481E0,1.650927925E1
2.188256667E1,2.679363251E0,2.273181453E-2,1.791865158E1
2.190267829E1,2.449054003E0,-4.833501875E-1,1.873340797E1
2.192278990E1,2.177468538E0,-8.135596663E-2,1.892064667E1
2.194290152E1,1.786840320E0,6.000002623E-1,1.398844147E1
2.196301313E1,1.730608940E0,1.425524116E0,1.089631653E1
2.198312469E1,2.236092806E0,1.705484390E0,1.030947590E1
2.200323631E1,2.453241348E0,1.666600943E0,8.100302696E0
2.202334792E1,1.800599098E0,1.945364833E0,7.323233604E0
2.204345954E1,1.658824325E0,1.616949916E0,6.838088989E0
2.206357115E1,1.088136077E0,1.436291814E0,6.677769661E0
2.208368277E1,9.780662656E-1,1.175474167E0,5.855237007E0
2.210379438E1,3.852444589E-1,1.316052437E0,5.060820103E0
2.212390600E1,-1.405783296E-1,1.267597795E0,5.053043365E0
2.214401761E1,8.434699476E-2,1.304686546E0,5.440082073E0
2.216412922E1,3.445664644E-1,1.301097274E0,5.315655708E0
2.218424084E1,4.576273263E-1,1.471585870E0,5.356333256E0
2.220435245E1,4.851447940E-1,1.712064624E0,5.523830891E0
2.222446407E1,3.936193287E-1,2.047059774E0,6.386443615E0
2.224457568E1,1.304088384E-1,2.073380709E0,8.098507881E0
2.226468730E1,1.974078715E-1,1.876571178E0,9.238688469E0
2.228479891E1,4.360919297E-1,1.753939033E0,1.019462109E1
2.230491048E1,3.792623878E-1,2.015354872E0,1.074616623E1
2.232502209E1,1.435693651E-1,2.194218397E0,1.051705360E1
2.234513370E1,3.852444589E-1,2.169093609E0,1.062652493E1
2.236524532E1,8.003991842E-1,1.625923038E0,1.175414276E1
2.238535693E1,7.680960894E-1,1.399203062E0,1.219502068E1
2.240546855E1,5.808576941E-1,1.801795483E0,1.073300552E1
2.242558016E1,3.206382394E-1,2.398206472E0,9.168698311E0
2.244569178E1,3.930211067E-1,2.743371248E0,8.629117012E0
2.246580339E1,3.014956415E-1,2.788834810E0,7.499105930E0
2.248591501E1,5.874379873E-1,2.697907448E0,8.547760963E0
2.250602662E1,8.638089895E-1,2.485544443E0,9.580862045E0
2.252613824E1,5.814558864E-1,2.270190477E0,1.082812023E1
2.254624985E1,5.790630579E-1,2.184048891E0,1.172004509E1
2.256636141E1,5.982056726E-3,1.891526341E0,1.033400249E1
2.258647303E1,2.751746029E-2,1.813759565E0,8.401200294E0
2.261925428E1,7.351947427E-1,4.275974274E0,1.128395367E1
2.263936574E1,1.039681435E0,4.611567497E0,1.197188950E1
2.265947720E1,8.608179688E-1,4.556532383E0,1.248156071E1
2.267958866E1,4.755735099E-1,4.358526230E0,1.262273788E1
2.269970012E1,3.966103494E-1,3.523431301E0,1.384666634E1
2.271981163E1,5.988038778E-1,2.458027124E0,1.606900024E1
2.273992308E1,4.624129832E-1,1.865205288E0,1.756870270E1
2.276003454E1,-2.943171859E-1,1.918445587E0,1.638066483E1
2.278014600E1,-6.945167780E-1,2.159522533E0,1.349312687E1
2.280025751E1,-3.367897868E-1,2.163709879E0,1.160279655E1
2.282036897E1,2.039881349E-1,2.120040894E0,1.089033413E1
2.284048043E1,2.751746178E-1,2.043470621E0,9.960722923E0
2.286059189E1,4.785645381E-2,1.889133453E0,8.516654015E0
2.288070335E1,-1.968096644E-1,1.792822361E0,7.037291527E0
2.290081480E1,-2.931207716E-1,1.779661894E0,5.881557941E0
2.292092626E1,-2.410768867E-1,1.737787485E0,4.923830986E0
2.294103777E1,2.033899166E-2,1.766501307E0,3.973880291E0
2.296114923E1,6.305087805E-1,1.923231244E0,3.407977581E0
2.298126069E1,9.104689956E-1,2.006979942E0,3.993621111E0
2.300137215E1,7.238288224E-2,1.766501307E0,5.180460930E0
2.302148361E1,-8.542376757E-1,1.564307809E0,6.119045734E0
2.304159506E1,-1.226919770E0,1.933998942E0,5.771488190E0
2.306170658E1,-8.488538265E-1,2.278565407E0,4.476373196E0
2.308181803E1,-2.075773627E-1,2.426322222E0,4.094119549E0
2.310192949E1,3.128615618E-1,2.550150633E0,5.396413326E0
2.312204095E1,2.997010350E-1,2.434098721E0,7.868797302E0
2.314215241E1,-6.939185411E-2,2.196611166E0,1.031486034E1
2.316226387E1,-7.716853172E-2,2.593819857E0,1.103151035E1
2.318237532E1,7.010970116E-1,3.022135019E0,1.023888779E1
2.320248678E1,1.451845169E0,3.141177893E0,1.028375340E1
2.322259824E1,1.239482164E0,2.927618504E0,1.216511059E1
2.324270970E1,1.052841991E-1,2.974278450E0,1.398604870E1
2.326282116E1,-5.479564071E-1,3.098107100E0,1.363609791E1
2.328293262E1,4.175475538E-1,3.206382275E0,1.323530006E1
2.330304408E1,2.423929453E0,2.255833626E0,1.502273846E1
2.332315559E1,3.323630571E0,6.664010882E-1,1.928495407E1
2.334326704E1,2.349751949E0,-1.357926875E-1,2.180639076E1
2.336337850E1,1.584048629E0,5.503492057E-2,1.931725693E1
2.338348996E1,1.649851203E0,9.415757060E-1,1.462134266E1
2.340360142E1,2.344367981E0,1.670788407E0,1.039801121E1
2.342371288E1,2.735594511E0,2.231905222E0,7.305885792E0
2.344382434E1,2.587837696E0,2.153540373E0,5.720640659E0
2.346393579E1,2.066202402E0,1.805982947E0,5.331807137E0
2.348404725E1,1.738983870E0,1.366301775E0,5.874977589E0
2.350415871E1,1.402792215E0,9.086744189E-1,6.527021885E0
2.352427017E1,1.024128079E0,7.920243144E-1,6.410970211E0
2.354438163E1,6.801598072E-1,1.106680512E0,5.245665550E0
2.356449308E1,4.259224236E-1,1.491924882E0,3.748356581E0
2.358460454E1,-8.374879137E-3,1.866999865E0,2.983251572E0
2.360471595E1,-1.722832322E-1,2.050050735E0,3.345764160E0
2.362482741E1,-1.633101404E-1,2.187039852E0,4.515854359E0
2.364493887E1,-1.142572835E-1,2.404188633E0,5.609374523E0
2.366505032E1,-9.332008660E-2,2.691925526E0,6.506682873E0
2.368516178E1,4.414757788E-1,3.037688255E0,7.048058987E0
2.370527324E1,1.339980721E0,3.271586657E0,7.653443336E0
2.372538470E1,1.567897081E0,3.203391314E0,8.514261246E0
2.374549616E1,1.003190875E0,2.817548752E0,9.393623352E0
2.376560762E1,2.297109663E-1,2.592623234E0,1.080778122E1
2.378571908E1,-2.213360965E-1,2.501696110E0,1.275553894E1
2.380583053E1,-3.469592705E-2,2.805584431E0,1.421396446E1
2.382594199E1,4.845465720E-1,3.470191002E0,1.379522038E1
2.384605345E1,1.162911773E0,4.024727821E0,1.272742367E1
2.386616491E1,1.152144074E0,4.137190342E0,1.325504112E1
2.388627631E1,-2.153540403E-2,3.370290756E0,1.538465309E1
2.390638777E1,-9.852447510E-1,1.742573142E0,1.810469437E1
2.392649923E1,-4.893322289E-1,1.674975902E-1,2.130449677E1
2.394661069E1,-2.889333367E-1,-4.887340367E-1,2.224308014E1
2.396672215E1,-1.293320656E0,1.375873014E-2,1.862273979E1
2.398683361E1,-1.769492388E0,9.655039310E-1,1.360798264E1
2.400694506E1,-1.494317770E0,1.674377680E0,9.705288887E0
2.402705652E1,-1.073779106E0,1.840080619E0,7.354938507E0
2.404716798E1,-7.022934556E-1,1.707877159E0,6.525825500E0
2.406727939E1,-4.480560422E-1,1.552941918E0,6.339783669E0
2.408739085E1,-2.560320199E-1,1.650449395E0,5.728417397E0
2.410750230E1,-3.403790295E-1,2.044667006E0,4.509872437E0
2.412761376E1,-5.718846321E-1,2.219342947E0,3.720241070E0
2.414772522E1,-3.888336942E-2,1.762313843E0,4.188037872E0
2.416783663E1,9.062815905E-1,1.329811215E0,4.777270317E0
2.418794809E1,1.515254974E0,1.189232826E0,4.881358147E0
2.420805954E1,1.464407444E0,1.399203062E0,4.890929699E0
2.422817100E1,4.618147612E-1,1.734198213E0,4.674378872E0
2.424828246E1,-8.590233326E-1,2.162513494E0,4.393222332E0
2.426839387E1,-1.533201098E0,2.666202545E0,4.038486481E0
2.428850532E1,-9.266205430E-1,2.795415163E0,4.290929317E0
2.430861678E1,3.230310604E-2,2.709871531E0,5.559723377E0
2.432872824E1,8.542376757E-1,2.583650351E0,7.572685242E0
2.434883970E1,4.971089065E-1,2.627917528E0,9.170493126E0
2.436895111E1,-4.528416991E-1,2.822932482E0,8.821739197E0
2.438906256E1,-1.231107235E0,3.280559778E0,7.465008259E0
2.440917402E1,-1.452443361E0,3.779463291E0,6.684948444E0
2.442928548E1,-1.495514154E0,4.213162422E0,6.428318024E0
2.444939689E1,-9.140582681E-1,4.307080746E0,7.417151928E0
2.446950835E1,-6.329016089E-1,4.114458561E0,9.769296646E0
2.448961980E1,-5.018945336E-1,3.640081406E0,1.333161163E1
2.450973126E1,-9.152546525E-2,3.391227961E0,1.787139320E1
2.452984267E1,-2.781656384E-1,3.336193085E0,1.899781609E1
2.454995413E1,-7.836493850E-2,3.481556892E0,1.597986794E1
2.457006559E1,1.508076429E0,3.194418192E0,1.435514164E1
2.459017699E1,4.054637909E0,1.776072621E0,1.741556168E1
2.461028845E1,4.704289436E0,-2.715853751E-1,2.219701958E1
2.463039991E1,2.577069998E0,-1.274178028E0,2.316431808E1
2.465051131E1,6.933203340E-1,-1.058225870E0,1.871905136E1
2.467062277E1,3.493520916E-1,-4.187439568E-3,1.270469189E1
2.469073423E1,1.134796143E0,9.272187948E-1,8.354539871E0
2.471084564E1,1.936391711E0,1.363908887E0,6.002993584E0
2.473095710E1,2.491526604E0,1.249053478E0,5.615356445E0
2.475106855E1,2.136192322E0,7.776673436E-1,6.599404812E0
2.477117996E1,1.185045362E0,3.134597540E-1,7.489534855E0
2.479129142E1,5.772684813E-1,1.232303679E-1,7.437490940E0
2.481140288E1,4.833501875E-1,2.027917206E-1,6.530611038E0
2.483151428E1,7.334001660E-1,4.486542344E-1,5.594419479E0
2.485162574E1,9.349954724E-1,6.562315822E-1,4.928616524E0
2.487173720E1,6.915257573E-1,8.291130662E-1,4.719244480E0
2.489184861E1,5.982056726E-3,1.073779106E0,4.625326157E0
2.491196006E1,-6.711867452E-1,1.669592023E0,4.322035789E0
2.493207147E1,-1.273579836E0,2.538186550E0,3.393022537E0
2.495218293E1,-1.509871125E0,3.258426189E0,2.732005358E0
2.497229439E1,-1.582852125E0,3.241676569E0,3.923032761E0
2.499240579E1,-1.586441398E0,3.132204771E0,5.982056618E0
2.501251725E1,-3.684946895E-1,3.122035265E0,8.029714584E0
2.503262866E1,1.180858016E0,3.011965513E0,9.519247055E0
2.505274012E1,1.499701619E0,2.896511793E0,9.917053223E0
2.507285158E1,5.000999570E-1,2.903690338E0,9.489336014E0
2.509296298E1,-9.032905847E-2,2.798406124E0,9.832108498E0
2.511307444E1,5.264209956E-2,2.729612350E0,1.127498055E1
2.513318585E1,9.433703423E-1,2.782852650E0,1.351825142E1
2.515329730E1,2.341377020E0,2.808575630E0,1.532782364E1
2.517340876E1,2.684746981E0,3.010769129E0,1.580758476E1
2.519352017E1,1.393819213E0,3.445066452E0,1.535235023E1
2.521363163E1,-1.268195957E-1,3.348157167E0,1.516391563E1
2.523374303E1,-6.771687865E-1,2.276172638E0,1.712184334E1
2.525385449E1,-2.662015259E-1,7.603194118E-1,1.979462624E1
2.527396590E1,-2.925225794E-1,2.015953064E-1,2.046640968E1
2.529407736E1,-9.230313301E-1,6.167500615E-1,1.772483444E1
2.531418876E1,-1.116251707E0,1.714457393E0,1.392024612E1
2.533430022E1,-2.069193363E0,2.103889227E0,1.037587738E1
2.535441163E1,-1.392024517E0,2.255833626E0,8.165507317E0
2.537452308E1,-7.806583643E-1,2.132603168E0,7.824530125E0
2.539463449E1,2.512463629E-1,1.516451359E0,7.998009682E0
2.541474595E1,1.232303619E0,1.046859860E0,7.607381344E0
2.543485736E1,1.453041553E0,8.895317912E-1,7.028318405E0
2.545496881E1,1.072582722E0,9.170492887E-1,6.083751678E0
2.547508022E1,4.133601189E-1,1.188036442E0,4.515854359E0
2.549519168E1,-3.290131092E-1,1.489532113E0,2.679961443E0
2.551530308E1,-6.089733839E-1,1.491924882E0,1.673181176E0
2.553541454E1,-6.370890141E-1,1.278365493E0,1.572682738E0
2.555552595E1,-6.065805554E-1,9.397810698E-1,2.105085611E0
2.557563741E1,-1.029511929E0,1.004985452E0,2.283350945E0
2.559574881E1,-1.323829174E0,1.296909928E0,1.844866276E0
2.561586027E1,-7.447660565E-1,1.477568030E0,2.269592285E0
2.563597168E1,3.254238665E-1,1.743171334E0,5.779264927E0
2.565608308E1,1.680359721E0,2.577069998E0,1.006480980E1
2.567619454E1,2.312663078E0,3.151945591E0,1.158425236E1
2.569630595E1,1.588834286E0,3.135794163E0,9.905687332E0
2.571641741E1,1.204187989E0,2.889931440E0,1.091127110E1
2.573652881E1,1.022931695E0,2.549552441E0,1.513280869E1
2.575664027E1,1.234696507E0,2.390429735E0,1.776730728E1
2.577675168E1,1.667797327E0,2.649452925E0,1.786960030E1
2.579686314E1,1.755733609E0,3.103491068E0,1.673121452E1
2.581697454E1,2.448455811E0,2.753540754E0,1.579382610E1
2.583708595E1,2.972483873E0,1.465005636E0,1.689631844E1
2.585719741E1,2.858226538E0,1.794616925E-3,1.954876328E1
2.587730881E1,1.672582984E0,-1.016949639E-1,1.959602165E1
2.589742027E1,6.879364848E-1,7.740781307E-1,1.558864117E1
2.591753168E1,1.051645517E0,1.418345571E0,1.109611702E1
2.593764308E1,1.644467354E0,1.676770449E0,8.230711937E0
2.595775454E1,1.798206210E0,1.567298889E0,7.086344242E0
2.597786595E1,1.533799291E0,1.325623751E0,6.116054535E0
2.599797736E1,1.417149186E0,1.205982566E0,4.977071285E0
2.601808881E1,1.150349498E0,1.193420291E0,3.692723513E0
2.603820022E1,7.405785918E-1,1.161715388E0,2.358724833E0
2.605831168E1,3.535395563E-1,1.216152072E0,1.528415442E0
2.607842308E1,-2.997010350E-1,1.359123230E0,1.443470240E0
2.609853449E1,-6.849454641E-1,1.402792215E0,2.935993433E0
2.611864590E1,-8.039883971E-1,1.685145378E0,5.560321808E0
2.613875736E1,-6.394818425E-1,2.307877541E0,7.250252724E0
2.615886876E1,-1.304088384E-1,3.315854073E0,6.836294174E0
2.617898017E1,2.195414752E-1,4.375874519E0,5.212165833E0
2.619909163E1,4.719842672E-1,4.883750916E0,4.478765965E0
2.621920303E1,1.217946768E0,3.908077478E0,6.040082455E0
2.623931449E1,2.038086653E0,2.094916344E0,1.034776115E1
2.625942590E1,1.712064624E0,9.583254457E-1,1.560180187E1
2.627953730E1,4.528416991E-1,1.173081279E0,1.773679733E1
2.629964871E1,-3.762713671E-1,1.942971945E0,1.424686623E1
2.631976017E1,-3.110669367E-2,3.123830080E0,9.634700775E0
2.633987158E1,3.780659735E-1,4.256831646E0,7.197012424E0
2.635998298E1,4.486542344E-1,4.293920040E0,1.038425159E1
2.638009444E1,2.536391914E-1,2.384447813E0,2.145943260E1
2.640020585E1,3.505485058E-1,3.032902777E-1,2.903750038E1
2.642031725E1,6.753742099E-1,-4.677968323E-1,2.603271484E1
2.644042871E1,7.716853172E-2,7.471588850E-1,1.837747574E1
2.646054012E1,-8.877372146E-1,1.718046665E0,1.245524025E1
2.648065152E1,-1.889731646E0,2.365305185E0,8.845666885E0
2.650076293E1,-2.268395901E0,2.571686029E0,6.568896294E0
2.652087439E1,-1.396211982E0,2.315055847E0,5.485546112E0
2.654098579E1,1.292124242E-1,1.965703845E0,4.980660439E0
2.656109720E1,1.570888042E0,1.565504193E0,4.669593334E0
2.658120861E1,2.009970903E0,1.292124271E0,4.263411522E0
2.660132006E1,1.393221021E0,1.237089276E0,4.046861172E0
2.662143147E1,6.981059909E-1,1.208375454E0,3.827319860E0
2.664154288E1,3.948157281E-2,1.359123230E0,3.452843189E0
2.666165428E1,-6.604190469E-1,1.576271892E0,2.753540754E0
2.668176569E1,-1.244866014E0,1.794018745E0,1.980060697E0
2.670187715E1,-1.633101463E0,1.763510346E0,2.085943222E0
2.672198855E1,-1.376471281E0,1.849053741E0,3.473780155E0
2.674209996E1,-7.483552694E-1,2.035693884E0,4.895715237E0
2.676221137E1,7.477571070E-2,2.375474691E0,6.178866386E0
2.678232282E1,1.555334687E0,3.061616659E0,8.176275253E0
2.680243423E1,3.192025423E0,3.504288673E0,1.042851925E1
2.682254564E1,3.741776466E0,3.477967739E0,1.158185959E1
2.684265704E1,2.724228621E0,3.319443226E0,1.135813046E1
2.686276845E1,1.658824325E0,3.169293642E0,1.128275681E1
2.688287991E1,1.100100160E0,3.023929596E0,1.191027451E1
2.690299131E1,1.127019525E0,2.740978241E0,1.309950733E1
2.692310272E1,9.475577474E-1,2.245664120E0,1.468714523E1
2.694321413E1,1.776670814E-1,2.412563324E0,1.524646759E1
2.696332553E1,1.597209126E-1,2.879163742E0,1.439223003E1
2.698343699E1,1.433898926E0,2.827120066E0,1.389631748E1
2.700354840E1,2.972483873E0,2.005783558E0,1.605643845E1
2.702365980E1,3.047259569E0,5.706881881E-1,1.935913086E1
2.704377121E1,2.106282234E0,-5.407779217E-1,2.100240326E1
2.706388262E1,7.238288522E-1,-7.854440212E-1,1.967857361E1
2.708399402E1,3.194418252E-1,-7.477571070E-2,1.582792377E1
2.710410548E1,7.878368497E-1,9.026923180E-1,1.087418270E1
2.712421689E1,1.295115232E0,1.529013634E0,6.641279221E0
2.714432829E1,1.765304923E0,1.521835208E0,5.467001438E0
2.716443970E1,1.879562140E0,1.226919770E0,6.130411625E0
2.718455111E1,2.057827473E0,8.632107973E-1,6.378068924E0
2.720466251E1,1.651047587E0,8.015955687E-1,5.511867046E0
2.722477392E1,1.067198873E0,7.627122402E-1,4.101297855E0
2.724488538E1,5.688936114E-1,8.476574421E-1,2.721835852E0
2.726499678E1,3.158525825E-1,1.103689432E0,1.241276741E0
2.728510819E1,5.922235921E-2,1.192822099E0,5.623133183E-1
2.730521960E1,-4.211367965E-1,1.300499082E0,8.123632669E-1
2.732533100E1,-6.005984545E-1,1.148554921E0,1.969891191E0
2.734544241E1,-2.374876440E-1,1.653440475E0,4.070191383E0
2.736555381E1,4.492524564E-1,2.599203587E0,5.463412285E0
2.738566522E1,7.244270444E-1,2.700300455E0,6.076572895E0
2.740577668E1,2.829512656E-1,2.177468538E0,7.025925636E0
2.742588808E1,1.884347796E-1,1.737189293E0,1.007976532E1
2.744599949E1,5.880361795E-1,1.426720500E0,1.381914902E1
2.746611090E1,1.597209126E-1,1.328016520E0,1.530269909E1
2.748622230E1,-6.873382926E-1,1.292124271E0,1.400040531E1
2.750633371E1,-1.024128079E0,1.569691658E0,1.258265781E1
2.752644512E1,-3.906283081E-1,2.091326952E0,1.140239811E1
2.754655652E1,3.667000830E-1,2.475973129E0,1.112243748E1
2.756666793E1,-1.824527234E-1,2.882753134E0,1.169731331E1
2.758677934E1,-1.326820135E0,2.804986238E0,1.241456223E1
2.760689074E1,-8.279166222E-1,2.459821701E0,1.494796276E1
2.762700220E1,1.135394335E0,2.339582443E0,1.676411629E1
2.764711355E1,1.653440475E0,2.098505497E0,1.669412613E1
2.766722501E1,2.386840582E-1,8.147560954E-1,1.700638962E1
2.768733642E1,-1.240080357E0,-4.085744619E-1,1.778525162E1
2.770744783E1,-2.726023197E0,-6.257231236E-1,1.685803413E1
2.772755923E1,-3.131606579E0,-3.637090325E-1,1.411226940E1
2.774767064E1,-1.982453585E0,3.702892959E-1,1.126181984E1
2.776778204E1,-5.162515044E-1,1.064207911E0,9.524630547E0
2.778789345E1,4.043870270E-1,8.596215248E-1,8.410771370E0
2.780800486E1,-4.354937077E-1,5.533402562E-1,7.176074982E0
2.782811626E1,-1.375872970E0,4.642075896E-1,6.902096748E0
2.784822767E1,-1.408176184E0,1.262213886E-1,7.352545738E0
2.786833908E1,-9.810572863E-1,2.590230405E-1,7.423732281E0
2.788845048E1,-2.045863420E-1,3.810569942E-1,6.700501442E0
2.790856189E1,4.253242314E-1,4.271188378E-1,6.142375946E0
2.792867329E1,6.945167780E-1,5.150550604E-1,6.162714481E0
2.794878470E1,5.210371017E-1,7.142575383E-1,5.943771362E0
2.796889611E1,2.572284341E-1,8.835497499E-1,5.099104881E0
2.798900751E1,5.982056609E-4,1.319641709E0,4.115654945E0
2.800911892E1,-3.978067636E-1,1.747956991E0,3.760919094E0
2.802923032E1,-5.527420044E-1,1.805982947E0,4.505684853E0
2.804934173E1,-5.748756528E-1,1.974078655E0,5.703890800E0
2.806945314E1,-8.105686903E-1,2.302493572E0,7.170093060E0
2.808956454E1,-1.119242787E0,2.481955290E0,8.366504669E0
2.810967595E1,-1.157527924E0,2.623131752E0,9.293125153E0
2.812978736E1,-1.030110121E0,2.615953445E0,1.018624592E1
2.814989876E1,-9.726824164E-1,2.472982168E0,1.131087303E1
2.817001036E1,-8.338986635E-1,2.427518606E0,1.194616699E1
2.819012176E1,-4.600201547E-1,2.431705952E0,1.187976646E1
2.821023317E1,-2.685943544E-1,2.489732027E0,1.155613708E1
2.823034457E1,-4.289134443E-1,2.650649309E0,1.158664513E1
2.825045598E1,-5.335994363E-1,2.910868645E0,1.177328587E1
2.827056739E1,2.189432681E-1,3.115455151E0,1.165783215E1
2.829067879E1,1.609173179E0,3.132204771E0,1.201914787E1
2.831079020E1,2.810370207E0,2.910270452E0,1.318206024E1
2.833090160E1,4.422534466E0,1.902294040E0,1.499103355E1
2.835101301E1,6.041278839E0,1.477568001E-1,1.794497299E1
2.837112442E1,5.437091351E0,-1.392024517E0,2.022054863E1
2.839123582E1,2.679961443E0,-2.111067772E0,1.908874321E1
2.841134723E1,6.053841114E-1,-2.188834429E0,1.560658741E1
2.843145864E1,2.279163599E-1,-1.510469317E0,1.228714466E1
2.845157004E1,9.499505758E-1,-4.899304509E-1,9.182456970E0
2.847168145E1,2.180459738E0,2.159522474E-1,6.245865345E0
2.849179286E1,2.821736097E0,5.258227587E-1,4.889134884E0
2.851190426E1,3.019144058E0,3.828516304E-1,5.696114540E0
2.853201567E1,2.398206472E0,1.609173268E-1,6.696912289E0
2.855212707E1,1.377069473E0,-1.842473447E-1,7.047461033E0
2.857223848E1,7.369893789E-1,-3.948157430E-1,7.341778278E0
2.859234989E1,5.515456200E-1,-2.530409992E-1,7.171289444E0
2.861246129E1,4.893322289E-1,3.002992272E-1,6.139384747E0
2.863257270E1,6.311069727E-1,7.495517135E-1,4.885545731E0
2.865268410E1,6.083751321E-1,1.054636598E0,4.381856441E0
2.867279546E1,1.435693651E-1,1.344766378E0,5.178666592E0
2.869290686E1,-3.457628787E-1,1.676172256E0,6.025127411E0
2.871301827E1,-5.976074338E-1,2.242672920E0,6.349953175E0
2.873312968E1,-4.253242314E-1,2.795415163E0,6.467201233E0
2.875324108E1,3.906283081E-1,3.098705292E0,6.997211456E0
2.877335249E1,1.421934843E0,3.153141975E0,8.289934158E0
2.879346390E1,1.634896040E0,2.885145903E0,1.022931671E1
2.881357530E1,8.201399446E-1,2.178066730E0,1.280219936E1
2.883368671E1,-3.188436031E-1,2.219342947E0,1.389272785E1
2.885379812E1,-7.124629617E-1,3.233301640E0,1.286261845E1
2.887390952E1,-4.570291340E-1,4.322035789E0,1.162792206E1
2.889402088E1,-2.057827413E-1,5.003990173E0,1.173619652E1
2.891413228E1,5.383851007E-3,4.424329281E0,1.391725445E1
2.893424369E1,6.987041831E-1,2.673979282E0,1.734138298E1
2.895435509E1,1.271187067E0,1.094716311E0,2.080379868E1
2.897446650E1,3.242274821E-1,4.384847581E-1,2.063331032E1
2.899457791E1,-1.378864050E0,7.585247755E-1,1.614317703E1
2.901468931E1,-1.482353687E0,1.510469317E0,1.118824005E1
2.903480072E1,-5.850451589E-1,2.071586132E0,8.209774017E0
2.905491212E1,3.068794906E-1,2.139781713E0,6.923034191E0
2.907502348E1,7.674978375E-1,1.949552298E0,6.256034851E0
2.909513489E1,7.740781307E-1,1.638485312E0,5.809773445E0
2.911524629E1,6.239284873E-1,1.264606714E0,5.748756409E0
2.913535770E1,3.475574851E-1,9.547362328E-1,5.633901119E0
2.915546910E1,2.117647976E-1,8.620143533E-1,5.337789059E0
2.917558051E1,8.434699476E-2,9.672985673E-1,4.650450706E0
2.919569192E1,5.982056726E-3,1.290329576E0,4.048057556E0
2.921580332E1,1.094716340E-1,1.786840320E0,4.575077057E0
2.923591473E1,1.782652885E-1,2.249851465E0,5.681757450E0
2.925602608E1,-9.511470050E-2,2.718246460E0,6.300900459E0
2.927613749E1,-2.476571500E-1,3.002992392E0,6.276373863E0
2.929624890E1,0.000000000E0,3.135195971E0,6.377470493E0
2.931636030E1,7.118647099E-1,3.211168051E0,6.980462074E0
2.933647171E1,1.557129383E0,3.087339401E0,7.893921852E0
2.935658312E1,1.910668850E0,2.714059114E0,9.086744308E0
2.937669447E1,1.642074585E0,2.176272154E0,1.055234814E1
2.939680588E1,1.147956610E0,1.676172256E0,1.200957680E1
2.941691728E1,8.638089895E-1,1.396810174E0,1.297627735E1
2.943702869E1,7.878368497E-1,1.529013634E0,1.347637749E1
2.945714009E1,1.624726534E0,2.146361828E0,1.344467258E1
2.947725150E1,3.363112211E0,2.954537868E0,1.264128208E1
2.949736291E1,5.285745144E0,2.949153900E0,1.292662621E1
2.951747426E1,6.262016773E0,1.852642894E0,1.534636784E1
2.953758567E1,5.015356064E0,1.018146038E0,1.722054672E1
2.955769707E1,2.821736097E0,8.374879360E-1,1.672104454E1
2.957780848E1,1.730608940E0,9.571290612E-1,1.453699589E1
2.959791989E1,1.901097536E0,1.327418327E0,1.221117210E1
2.961803129E1,2.537588358E0,1.479362607E0,1.067916775E1
2.963814265E1,2.953341246E0,1.537986755E0,9.309874535E0
2.965825405E1,2.849851847E0,1.418345571E0,8.014759064E0
2.967836546E1,2.158924341E0,1.091725349E0,6.904489517E0
2.969847686E1,9.475577474E-1,8.470591903E-1,5.839683533E0
2.971858827E1,-9.152546525E-2,8.919246197E-1,4.995017052E0
2.973869968E1,-4.600201547E-1,1.206580877E0,4.624129772E0
2.975881103E1,-2.285145670E-1,1.622333765E0,4.659423828E0
2.977892244E1,2.638086975E-1,1.944766641E0,5.079364300E0
2.979903384E1,2.338984162E-1,2.160718918E0,5.511268616E0
2.981914525E1,-3.349951655E-2,2.408375978E0,5.600401402E0
2.983925666E1,-3.266202807E-1,2.839682341E0,5.496912003E0
2.985936801E1,-3.894318938E-1,3.403790236E0,5.522036552E0
2.987947942E1,-1.088734269E-1,3.825525284E0,6.094519138E0
2.989959082E1,1.752742529E-1,4.004986763E0,6.924828529E0
2.991970223E1,4.325026870E-1,3.923032761E0,7.477570534E0
2.993981364E1,4.660021961E-1,3.580859184E0,8.170890808E0
2.995992499E1,3.326023519E-1,3.254837036E0,9.301499367E0
2.998003640E1,5.383851007E-2,3.189034462E0,1.034477043E1
3.000014780E1,-1.818545163E-1,3.139981508E0,1.150768185E1
3.002025921E1,-3.170489967E-1,3.262015581E0,1.225663567E1
3.004037062E1,-1.854437590E-1,3.727419376E0,1.238943768E1
3.006048197E1,-2.865405083E-1,4.231108665E0,1.273699474E1
3.008059338E1,-8.249256015E-1,4.605585575E0,1.308156109E1
3.010070478E1,-4.689932466E-1,4.292723656E0,1.416072464E1
3.012081619E1,3.960121572E-1,3.035893679E0,1.643869209E1
3.014092754E1,4.007977843E-1,2.091925144E0,1.812443542E1
3.016103895E1,-3.816552162E-1,1.663609982E0,1.699621964E1
3.018115036E1,-9.044869542E-1,1.873580098E0,1.383649731E1
3.020126176E1,-1.049252748E0,2.422732830E0,1.068754196E1
3.022137317E1,-9.361918569E-1,2.566302299E0,7.975875854E0
3.024148452E1,-6.239284873E-1,2.525026083E0,6.495915413E0
3.026159593E1,-1.585244983E-1,2.166102648E0,6.281159401E0
3.028170733E1,3.523431420E-1,1.462612867E0,7.152745247E0
3.030181874E1,3.421736360E-1,9.732806087E-1,8.547760963E0
3.032193009E1,-4.325026870E-1,8.925228715E-1,8.696115494E0
3.034204150E1,-1.116251707E0,1.055832982E0,7.161119938E0
3.036215291E1,-1.398006678E0,1.437488198E0,5.178666592E0
3.038226431E1,-1.278365493E0,1.944766641E0,4.001397610E0
3.040237567E1,-1.118644595E0,2.551945448E0,3.750151396E0
3.042248707E1,-9.882357717E-1,2.763111830E0,4.396811485E0
3.044259848E1,-8.871390224E-1,2.653640270E0,5.684150219E0
3.046270989E1,-5.814558864E-1,2.548954248E0,7.048657417E0
3.048282129E1,-1.010967568E-1,2.467598438E0,8.318049431E0
3.050293265E1,1.154536903E-1,2.441875458E0,8.917451859E0
3.052304405E1,3.708875179E-1,2.347957134E0,9.258428574E0
3.054315546E1,5.156532526E-1,2.383251429E0,9.790832520E0
3.056326687E1,3.206382394E-1,2.484946251E0,1.057448101E1
3.058337822E1,-1.525424421E-1,2.535793781E0,1.116610718E1
3.060348962E1,-6.149554253E-1,2.706880569E0,1.138265705E1
3.062360103E1,-7.573283911E-1,2.870789051E0,1.111286640E1
3.064371244E1,-3.038884699E-1,3.046063185E0,1.170927715E1
3.066382379E1,5.006981492E-1,3.522833109E0,1.266341591E1
3.068393520E1,1.541576028E0,3.417548895E0,1.345125294E1
3.070404661E1,2.066800594E0,3.130410194E0,1.468535042E1
3.072415796E1,2.105684042E0,2.456830740E0,1.616949844E1
3.074426936E1,2.354537487E0,1.439282775E0,1.769492340E1
3.076438077E1,2.413161755E0,8.679963946E-1,1.829671860E1
3.078449218E1,1.835893154E0,9.990034699E-1,1.617966843E1
3.080460353E1,1.403988719E0,1.957927108E0,1.193779182E1
3.082471494E1,1.588235974E0,2.542374134E0,8.029714584E0
3.084482634E1,2.077568293E0,2.546561480E0,6.157330990E0
3.086493775E1,2.787040234E0,2.112862349E0,6.664609432E0
3.088504910E1,2.889931440E0,1.774876237E0,7.112067223E0
3.090516051E1,2.100898266E0,1.504487276E0,6.499504566E0
3.092527192E1,1.120439172E0,1.366899967E0,5.690132141E0
3.094538332E1,4.749752879E-1,1.502094388E0,4.935196877E0
3.096549468E1,-3.230310604E-2,1.846062660E0,4.200001717E0
3.098560608E1,-4.570291340E-1,2.167897224E0,3.881756544E0
3.100571749E1,-3.409772217E-1,2.139781713E0,4.338187218E0
3.102582884E1,3.278166950E-1,2.187039852E0,5.824728489E0
3.104594025E1,4.648058116E-1,2.565704107E0,7.983652592E0
3.106605166E1,1.190429255E-1,3.064607620E0,8.915657043E0
3.108616306E1,-4.995017350E-1,3.428914785E0,7.295716286E0
3.110627442E1,-2.147558331E-1,3.530609846E0,5.288736343E0
3.112638582E1,8.715856671E-1,3.477967739E0,5.089533806E0
3.114649723E1,1.277767301E0,3.391227961E0,6.579065800E0
3.116660858E1,7.944171429E-1,3.051447153E0,8.794221878E0
3.118671999E1,5.204389095E-1,2.654836655E0,1.103749275E1
3.120683140E1,-3.690928817E-1,2.895913601E0,1.176371479E1
3.122694280E1,-8.165507317E-1,3.401995659E0,1.135872936E1
3.124705416E1,-4.348955154E-1,3.979862213E0,1.198744297E1
3.126716556E1,-2.309073806E-1,4.340580463E0,1.306421375E1
3.128727697E1,-8.189435601E-1,3.918246984E0,1.372403431E1
3.130738832E1,-7.304090858E-1,2.752942562E0,1.597807312E1
3.132749973E1,-1.310070455E-1,1.972882271E0,1.900200272E1
3.134761114E1,-1.459621787E-1,1.715055585E0,1.883689880E1
3.136772249E1,-7.914260626E-1,1.567298889E0,1.579621887E1
3.138783390E1,-1.492523074E0,1.801197290E0,1.372343636E1
3.140794530E1,-1.676770449E0,1.828714728E0,1.244865990E1
3.142805671E1,-1.406381488E0,1.757528186E0,1.090050316E1
3.144816806E1,-1.032503009E0,1.643270969E0,9.522835732E0
3.146827947E1,-4.301098585E-1,1.427318692E0,8.519046783E0
3.148839088E1,1.064806059E-1,1.412961721E0,7.522436142E0
3.150850223E1,-1.250249892E-1,1.761715651E0,6.141179085E0
3.152861364E1,-5.934200287E-1,1.735394597E0,4.552943230E0
3.154872504E1,-7.824530005E-1,1.418345571E0,3.630510092E0
3.156883640E1,-8.021938205E-1,1.317248821E0,3.755535126E0
3.158894780E1,-7.537391186E-1,1.311864972E0,4.733003139E0
3.160905921E1,-1.144367456E0,1.592423439E0,6.049654007E0
3.162917056E1,-1.729412556E0,2.197807550E0,7.304090977E0
3.164928197E1,-1.975873351E0,2.943770170E0,7.326822758E0
3.166939338E1,-1.608574986E0,3.444468260E0,5.988038540E0
3.168950478E1,-3.792623878E-1,3.288336515E0,4.800002098E0
3.170961614E1,1.547558069E0,2.669193745E0,5.916254044E0
3.172972754E1,2.352742910E0,1.976471543E0,9.084949493E0
3.174983895E1,9.008977413E-1,1.923829436E0,1.138026428E1
3.176995030E1,-1.176072359E0,2.064407825E0,1.032742214E1
3.179006171E1,-2.112264156E0,2.407179594E0,8.297112465E0
3.181017312E1,-1.454237938E0,2.918645382E0,7.798807144E0
3.183028447E1,1.722832322E-1,3.143570662E0,9.066405296E0
3.185039588E1,1.232303619E0,3.128615618E0,1.127498055E1
3.187050728E1,1.596610904E0,3.252444267E0,1.326879978E1
3.189061864E1,1.455434322E0,3.190230846E0,1.431625748E1
3.191073004E1,2.094317913E0,2.570489645E0,1.580937958E1
3.193084145E1,2.728415966E0,1.552941918E0,1.839961052E1
3.195095280E1,2.408375978E0,9.254241586E-1,1.896730614E1
3.197106421E1,1.721635938E0,1.075573802E0,1.662832260E1
3.199117562E1,1.256830096E0,1.548754454E0,1.321855068E1
3.201128697E1,1.166501045E0,1.967498422E0,1.068395329E1
3.203139838E1,1.178465128E0,2.190030813E0,9.910472870E0
3.205150978E1,1.300499082E0,2.120040894E0,1.003489971E1
3.207162114E1,1.643869162E0,1.866999865E0,1.000439167E1
3.209173254E1,1.898704767E0,1.709671736E0,9.338588715E0
3.211184395E1,1.955534339E0,1.553540111E0,8.179863930E0
3.213195530E1,1.615753531E0,1.507478237E0,6.888936520E0
3.215206671E1,1.096511006E0,1.459023595E0,5.665007591E0
3.217217812E1,5.437689424E-1,1.445863128E0,4.646861553E0
3.219228947E1,1.549352705E-1,1.515853167E0,3.837489367E0
3.221240088E1,-8.374879509E-2,1.677368641E0,3.517449379E0
3.223251228E1,-1.136590764E-1,1.884347796E0,4.042674065E0
3.225262364E1,-3.649054468E-2,2.206182480E0,4.926821709E0
3.227273504E1,-1.178465188E-1,2.603989124E0,5.468197823E0
3.229284645E1,-4.109672904E-1,2.964707375E0,5.791228771E0
3.231295780E1,-6.053841114E-1,3.462414265E0,6.700501442E0
3.233306921E1,-5.545366406E-1,3.949951887E0,8.216953278E0
3.235318062E1,-3.810569942E-1,4.077369690E0,9.046066284E0
3.237329197E1,9.332008660E-2,3.775874138E0,8.991030693E0
3.239340338E1,2.811566591E-1,3.622135162E0,9.181859016E0
3.241351478E1,-1.477568001E-1,3.756133318E0,9.811170578E0
3.243362614E1,-6.687939167E-1,3.714258909E0,1.034955597E1
3.245373754E1,-6.340979934E-1,3.603590965E0,1.142752266E1
3.247384890E1,-4.773681164E-1,3.633501291E0,1.276989651E1
3.249396030E1,-4.115654826E-1,3.883551121E0,1.356431293E1
3.251407171E1,-4.091726840E-1,4.050450325E0,1.310967731E1
3.253418306E1,-1.076770201E-2,3.727419376E0,1.354457283E1
3.255429447E1,7.232306600E-1,2.695514679E0,1.587039661E1
3.257440588E1,6.747759581E-1,1.978864312E0,1.806102562E1
3.259451723E1,-1.196411345E-2,1.638485312E0,1.691246986E1
3.261462864E1,-6.598208547E-1,1.817348838E0,1.350389481E1
3.263474004E1,-9.876375198E-1,2.235494614E0,1.093699455E1
3.265485140E1,-1.196411371E0,2.353939295E0,9.323633194E0
3.267496280E1,-1.125224829E0,2.188834429E0,8.690134048E0
3.269507421E1,-6.131607890E-1,1.767697692E0,9.007781029E0
3.271518556E1,-9.272187948E-2,1.399203062E0,9.036494255E0
3.273529697E1,-2.931207791E-2,1.187438250E0,8.233104706E0
3.275540838E1,-6.221338734E-2,1.059422255E0,7.426125050E0
3.277551973E1,-1.704886109E-1,1.052243710E0,6.511468410E0
3.279563114E1,-2.530409992E-1,1.118046403E0,5.242674351E0
3.281574249E1,-4.546363056E-1,1.213759303E0,4.299304008E0
3.283585390E1,-8.147560954E-1,1.313659668E0,4.223331928E0
3.285596530E1,-1.183250785E0,1.340578914E0,4.682155609E0
3.287607666E1,-1.157527924E0,1.467398524E0,5.282754421E0
3.289618806E1,-6.221339107E-1,1.765903115E0,6.047261238E0
3.291629947E1,-4.187439680E-1,2.312064886E0,7.628916740E0
3.293641082E1,-6.879364848E-1,3.010769129E0,8.427521706E0
3.295652223E1,-7.369893789E-1,2.958725214E0,7.685746193E0
3.297663364E1,-1.339980662E-1,2.554338217E0,8.083553314E0
3.299674499E1,6.705885530E-1,2.248655081E0,9.770493507E0
3.301685640E1,9.756734371E-1,2.210369825E0,1.141017437E1
3.303696775E1,4.935196638E-1,2.280958176E0,1.106022453E1
3.305707916E1,2.141576260E-1,2.334796667E0,9.646066666E0
3.307719056E1,2.512463629E-1,2.622533560E0,8.718249321E0
3.309730192E1,1.339980662E-1,2.825923443E0,8.952746391E0
3.311741332E1,9.571290761E-2,3.038884640E0,9.829715729E0
3.313752473E1,5.443671346E-1,3.132204771E0,1.112901783E1
3.315763608E1,1.608574986E0,3.051447153E0,1.300499153E1
3.317774749E1,2.494517565E0,2.739183664E0,1.488694572E1
3.319785890E1,2.803191662E0,1.782652855E0,1.680778503E1
3.321797025E1,2.429911375E0,7.890332937E-1,1.900977898E1
3.323808166E1,1.569691658E0,5.240281820E-1,1.945005798E1
3.325819301E1,1.345962763E0,7.884350419E-1,1.684128380E1
3.327830442E1,1.627717614E0,1.355534077E0,1.380539036E1
3.329841582E1,1.761715651E0,1.777867198E0,1.148913765E1
3.331852718E1,1.764108539E0,2.092523336E0,9.597611427E0
3.333863858E1,1.976471543E0,2.123031855E0,8.350353241E0
3.335874994E1,2.020140409E0,2.032702923E0,7.642077446E0
3.337886134E1,1.577468276E0,1.908276081E0,6.837490559E0
3.339897275E1,9.942178130E-1,1.737787485E0,6.178866386E0
3.341908410E1,4.372883439E-1,1.563709617E0,5.717649937E0
3.343919551E1,1.082752272E-1,1.447657704E0,5.223531723E0
3.345930692E1,7.836493850E-2,1.458425403E0,4.773681164E0
3.347941827E1,1.489532143E-1,1.619342685E0,4.658227444E0
3.349952968E1,9.092725813E-2,1.804188251E0,4.929214478E0
3.351964108E1,8.374879509E-2,1.913061738E0,5.484349728E0
3.353975244E1,6.640082598E-2,2.085943222E0,5.699703693E0
3.355986384E1,1.818545163E-1,2.283350945E0,5.658427238E0
3.357997520E1,1.417747438E-1,2.617748022E0,6.232106686E0
3.360008660E1,1.232303679E-1,2.978466034E0,7.540382385E0
3.362019801E1,2.117647976E-1,3.177668571E0,9.013164520E0
3.364030936E1,2.620140910E-1,3.360121250E0,9.515059471E0
3.366042077E1,1.854437590E-2,3.789632797E0,8.657830238E0
3.368053212E1,-1.148554832E-1,3.959523201E0,7.874181271E0
3.370064353E1,4.055834413E-1,3.713062525E0,9.160921097E0
3.372075494E1,7.322037220E-1,3.226721287E0,1.190608692E1
3.374086629E1,5.694918036E-1,3.107678413E0,1.426361561E1
3.376097770E1,3.583251834E-1,3.302693367E0,1.427079391E1
3.378108905E1,-8.973085135E-2,3.740580082E0,1.323888969E1
3.380120046E1,-4.133601189E-1,3.845864296E0,1.364447308E1
3.382131186E1,-2.075773627E-1,2.682354212E0,1.531765461E1
3.384142322E1,3.678964674E-1,1.107876897E0,1.842712784E1
3.386153463E1,-5.084748194E-2,1.854437590E-1,1.968036842E1
3.388164603E1,-7.842476368E-1,3.631108403E-1,1.580279922E1
3.390175739E1,-1.237687469E0,9.122636318E-1,1.309890938E1
3.392186879E1,-1.063011408E0,1.101894855E0,1.103868866E1
3.394198015E1,-4.336991012E-1,1.259821177E0,9.162715912E0
3.396209155E1,-8.668000102E-1,1.127019525E0,8.559126854E0
3.398220296E1,-6.711867452E-1,8.404789567E-1,7.966903210E0
3.400231431E1,-5.982056609E-4,7.651050687E-1,7.436294556E0
3.402242572E1,3.948157430E-1,7.884350419E-1,6.874579430E0
3.404253712E1,3.816552162E-1,8.506484628E-1,5.252245903E0
3.406264848E1,2.081755698E-1,1.106082320E0,4.241876125E0
3.408275989E1,-2.632104978E-2,1.309472203E0,4.128217220E0
3.410287124E1,-1.106680483E-1,1.419542074E0,5.104488850E0
3.412298265E1,-4.666004330E-2,1.579262972E0,6.353542328E0
3.414309405E1,2.129612118E-1,1.845464468E0,7.210771084E0
3.416320541E1,3.732803464E-1,2.346162558E0,7.172485828E0
3.418331681E1,2.817548811E-1,2.803191662E0,6.701697826E0
3.420342817E1,1.663011760E-1,3.119044304E0,6.682555676E0
3.422353957E1,2.709871531E-1,2.976073265E0,7.939385414E0
3.424365098E1,4.277170599E-1,2.638087034E0,9.329615593E0
3.426376233E1,4.971089065E-1,2.328814745E0,1.008873844E1
3.428387374E1,4.025924206E-1,2.429911375E0,1.036750221E1
3.430398509E1,9.032905847E-2,2.659024239E0,9.701101303E0
3.432409650E1,1.453639716E-1,2.847458839E0,8.870193481E0
3.434420791E1,5.766702294E-1,2.909074068E0,9.299705505E0
3.436431926E1,4.677968323E-1,2.886940479E0,1.063669491E1
3.438443067E1,1.244267747E-1,3.002394199E0,1.118106174E1
3.440454202E1,2.231307179E-1,3.303291559E0,1.166441250E1
3.442465343E1,6.233302951E-1,4.242474556E0,1.197906876E1
3.444476483E1,1.313061476E0,4.566701889E0,1.197727394E1
3.446487619E1,1.804188251E0,3.181257725E0,1.329990673E1
3.448498759E1,2.559721947E0,7.710871100E-1,1.751187325E1
3.450509900E1,1.381256819E0,-7.776673883E-2,1.983111572E1
3.452521036E1,2.853440940E-1,1.088734269E-1,1.731566048E1
3.454532176E1,4.845465720E-1,8.309076428E-1,1.324008560E1
3.456543312E1,8.338986635E-1,1.459023595E0,9.961918831E0
3.458554452E1,1.485344648E0,1.739582062E0,8.265407562E0
3.460565588E1,2.085345030E0,1.946561217E0,7.879564762E0
3.462576728E1,1.749751568E0,2.031506538E0,7.834699631E0
3.464587869E1,7.698906660E-1,1.886142492E0,7.469794273E0
3.466599004E1,1.501496136E-1,1.550549030E0,6.805187702E0
3.468610145E1,3.966103494E-1,1.445264935E0,6.424130440E0
3.470621280E1,6.382854581E-1,1.446461320E0,6.064609051E0
3.472632421E1,3.146561682E-1,1.405783296E0,5.770890236E0
3.474643562E1,-3.625126183E-1,1.399203062E0,5.784050465E0
3.476654697E1,-3.206382394E-1,1.453639746E0,6.474380016E0
3.478665838E1,4.103690982E-1,1.531406522E0,6.864409924E0
3.480676973E1,4.055834413E-1,1.753939033E0,7.241279602E0
3.482688114E1,1.872383654E-1,2.069193363E0,7.816753387E0
3.484699254E1,4.785645287E-3,2.232503414E0,7.963313580E0
3.486710390E1,1.375873089E-1,2.335394859E0,8.258229256E0
3.488721530E1,3.774677813E-1,2.198405743E0,8.912068367E0
3.490732666E1,3.469592705E-2,2.069791555E0,9.727422714E0
3.492743806E1,-4.043870270E-1,2.357528448E0,7.994420528E0
3.494754947E1,-7.118647546E-2,2.550748825E0,1.064148045E1
3.496766082E1,7.489534616E-1,2.687737942E0,1.118465137E1
3.498777223E1,6.388836503E-1,2.669791937E0,1.158185959E1
3.503248902E1,4.031906128E-1,3.515654564E0,8.601000786E0
3.505260006E1,5.413761139E-1,3.587439299E0,8.611170769E0
3.507271116E1,6.741777658E-1,3.534198999E0,9.034101486E0
3.509282220E1,3.996013701E-1,3.611965895E0,9.175876617E0
3.511293329E1,2.596212626E-1,3.597608805E0,8.578269005E0
3.513304433E1,5.748756528E-1,3.538984776E0,8.383254051E0
3.515315542E1,7.064808607E-1,3.628715515E0,8.959325790E0
3.517326647E1,3.702892959E-1,3.793820381E0,9.686145782E0
3.519337756E1,1.944168359E-1,3.614358664E0,1.014437199E1
3.521348866E1,4.845465720E-2,3.536591768E0,1.074377346E1
3.523359970E1,1.866401732E-1,3.449851990E0,1.131087303E1
3.525371079E1,2.099701911E-1,3.502494097E0,1.130489063E1
3.527382183E1,2.596212626E-1,3.376272678E0,1.137069321E1
3.529393287E1,1.076770201E-1,3.375674486E0,1.211545944E1
3.531404397E1,-2.285145670E-1,3.795016766E0,1.270528984E1
3.533415501E1,-5.790630579E-1,4.448257446E0,1.269512081E1
3.535426610E1,-1.639083475E-1,4.082155228E0,1.293859005E1
3.537437714E1,1.741376638E0,2.336591244E0,1.548694611E1
3.539448824E1,2.389831543E0,9.810572863E-1,1.954277992E1
3.541459928E1,7.190431952E-1,3.457628787E-1,2.046401787E1
3.543471037E1,-1.067198873E0,6.203392744E-1,1.681316757E1
3.545482142E1,-1.698904037E0,1.678565025E0,1.245224857E1
3.547493251E1,-1.441077471E0,2.138585329E0,9.778867722E0
3.549504355E1,-7.890332937E-1,1.475175142E0,9.502496719E0
3.551515464E1,-3.020938635E-1,1.059422255E0,1.061994553E1
3.553526569E1,-5.479564071E-1,1.039681435E0,1.009830952E1
3.555537673E1,-4.307080805E-1,9.780662656E-1,8.401798248E0
3.557548782E1,-2.715853751E-1,1.212562919E0,6.808178425E0
3.559559886E1,-2.093719840E-1,1.286740422E0,5.481956482E0
3.561570996E1,-2.309073806E-1,1.004985452E0,4.771886349E0
3.563582100E1,-4.438686073E-1,7.782655358E-1,4.735994339E0
3.565593209E1,-5.503492355E-1,7.674978375E-1,4.938187599E0
3.567604313E1,-3.936193287E-1,8.033902049E-1,4.910670280E0
3.569615418E1,-1.962114573E-1,9.218349457E-1,4.711467743E0
3.571626527E1,1.854437590E-2,1.179063320E0,4.754538536E0
3.573637631E1,1.513460279E-1,1.429711580E0,5.094917774E0
3.575648740E1,2.979064286E-1,1.491924882E0,5.882754326E0
3.577659845E1,1.106680483E-1,1.767697692E0,6.461817741E0
3.579670949E1,-2.620140910E-1,2.166700840E0,6.461219311E0
3.581682058E1,-4.546363056E-1,2.425125837E0,6.329614162E0
3.583693162E1,-3.774677813E-1,2.634497643E0,6.629913330E0
3.585704272E1,1.663011760E-1,2.502892494E0,7.922037601E0
3.587715376E1,8.165507317E-1,2.310270309E0,1.034357452E1
3.589726480E1,9.224331379E-1,2.364706993E0,1.279202938E1
3.591737589E1,6.191428304E-1,2.450848579E0,1.390708542E1
3.593748694E1,5.300102234E-1,2.708675146E0,1.335494137E1
3.595759803E1,8.937192559E-1,3.099901676E0,1.293021584E1
3.597770907E1,1.222732425E0,3.453441381E0,1.319821167E1
3.599782011E1,1.408176184E0,3.882354736E0,1.280219936E1
3.601793121E1,2.136790514E0,3.088535786E0,1.254018497E1
3.603804225E1,3.029313564E0,1.121635556E0,1.470987701E1
3.605815329E1,3.078964472E0,-6.089733839E-1,1.870888138E1
3.607826438E1,1.367498159E0,-7.280163169E-1,1.982094574E1
3.609837542E1,5.108676553E-1,-0.000000000E0,1.621436501E1
3.611848652E1,8.745766878E-1,8.291130662E-1,1.181396389E1
3.613859756E1,1.523629785E0,1.420140266E0,8.901898384E0
3.615870860E1,1.969891191E0,1.606182218E0,7.870592117E0
3.617881970E1,1.839482427E0,1.525424480E0,7.931608677E0
3.619893074E1,1.125224829E0,1.388435364E0,7.759923935E0
3.621904178E1,5.694918036E-1,1.258624673E0,7.098308563E0
3.623915287E1,2.614158690E-1,1.272981644E0,6.321238995E0
3.625926392E1,3.308077157E-1,1.386640668E0,6.016154289E0
3.627937496E1,4.552344978E-1,1.511067510E0,5.971887112E0
3.629948605E1,3.924229145E-1,1.500898004E0,5.846263885E0
3.631959709E1,3.314059377E-1,1.436291814E0,5.912066460E0
3.633970813E1,3.774677813E-1,1.569093466E0,6.199803352E0
3.635981923E1,5.778666735E-1,1.592423439E0,6.391229153E0
3.637993027E1,5.874379873E-1,1.773081541E0,6.477969170E0
3.640004131E1,5.341976285E-1,1.963909149E0,6.783652306E0
3.642015240E1,3.667000830E-1,2.087737799E0,7.400402069E0
3.644026345E1,-6.161518395E-2,2.422732830E0,7.545766354E0
3.646037449E1,-2.404786795E-1,2.637488842E0,7.087540627E0
3.648048558E1,5.503492057E-2,2.831307411E0,6.966104984E0
3.650059662E1,4.265206456E-1,3.061616659E0,7.372884750E0
3.652070766E1,8.793623447E-1,3.212364435E0,8.303094864E0
3.654081871E1,7.345965505E-1,3.428914785E0,9.565906525E0
3.656092980E1,2.183450609E-1,3.422334671E0,1.076231766E1
3.658104084E1,-7.357929647E-2,3.126821041E0,1.150648594E1
3.660115188E1,3.290131092E-1,2.848655462E0,1.265444279E1
3.662126298E1,5.569294691E-1,3.116053343E0,1.402852058E1
3.664137402E1,5.635097623E-1,3.041277647E0,1.506521130E1
3.666148506E1,7.704889178E-1,1.904686809E0,1.668814278E1
3.668159610E1,9.972088337E-1,7.854440212E-1,1.868674850E1
3.670170720E1,5.030909777E-1,6.251249313E-1,1.805743599E1
3.672181824E1,-5.425725579E-1,1.183848977E0,1.484327698E1
3.674192928E1,-8.213363886E-1,1.362114310E0,1.216869926E1
3.676204037E1,-5.162515044E-1,1.207777262E0,1.086401272E1
3.678215142E1,-3.571287692E-1,1.125224829E0,1.050269699E1
3.680226246E1,-6.388836503E-1,1.180858016E0,9.900303841E0
3.682237350E1,-9.649057388E-1,1.351346612E0,8.605786324E0
3.684248459E1,-9.978070259E-1,1.561915040E0,7.136593342E0
3.686259563E1,-5.862415433E-1,1.656431437E0,6.049654007E0
3.688270668E1,-2.273181453E-2,1.781456470E0,5.864808083E0
3.690281772E1,5.982056633E-2,1.936391711E0,5.945566177E0
3.692292881E1,-1.609173268E-1,1.850848317E0,5.588437080E0
3.694303985E1,-2.697907388E-1,1.619940877E0,5.292325497E0
3.696315089E1,-2.901297510E-1,1.464407444E0,5.527420521E0
3.698326194E1,-2.871387303E-1,1.297508121E0,6.121438503E0
3.700337298E1,-1.597209126E-1,1.280160069E0,6.654439926E0
3.702348407E1,-2.285145670E-1,1.816152334E0,6.644270420E0
3.704359511E1,-2.452643216E-1,2.251047850E0,6.445665836E0
3.706370616E1,-9.511470050E-2,2.481357098E0,6.875177860E0
3.708381720E1,2.715853751E-1,2.599203587E0,7.828119278E0
3.710392829E1,6.550351977E-1,2.678166628E0,8.480163574E0
3.712403933E1,7.728816867E-1,2.645265341E0,8.687142372E0
3.714415037E1,5.090730190E-1,2.772683144E0,8.658429146E0
3.716426142E1,7.357929647E-2,3.137588739E0,8.125427246E0
3.718437246E1,-1.375873014E-2,3.435495138E0,7.670193195E0
3.720448355E1,-6.340979785E-2,3.640679598E0,7.796414375E0
3.722459459E1,-2.644068897E-1,3.585644722E0,8.953344345E0
3.724470563E1,-2.458625287E-1,3.390629768E0,1.060798073E1
3.726481668E1,8.733802289E-2,3.281157970E0,1.250189972E1
3.728492772E1,6.317051649E-1,3.153740168E0,1.496411419E1
3.730503881E1,1.670190215E0,2.570489645E0,1.639262962E1
3.732514985E1,2.801397085E0,2.124228239E0,1.667498207E1
3.734526089E1,2.761317253E0,1.692323804E0,1.733899117E1
3.736537194E1,2.551945448E0,3.463610709E-1,1.914317894E1
3.738548298E1,2.112862349E0,-6.717849374E-1,2.005424690E1
3.740559402E1,1.723430514E0,-6.897311211E-1,1.790190315E1
3.742570511E1,1.642074585E0,8.554340899E-2,1.418764400E1
3.744581616E1,2.401795626E0,8.111668825E-1,1.143709373E1
3.746592720E1,3.253640652E0,1.052243710E0,9.890732765E0
3.748603824E1,3.146561861E0,6.149554253E-1,8.968298912E0
3.750614928E1,2.048854351E0,3.541377485E-1,8.885149002E0
3.752626037E1,1.012163997E0,-4.187439568E-3,8.571090698E0
3.754637142E1,5.222335458E-1,-1.818545163E-1,7.027122021E0
3.756648246E1,3.792623878E-1,1.016949583E-2,5.186442852E0
3.758659350E1,2.333002165E-2,5.557330847E-1,3.900300980E0
3.760670454E1,-8.697910309E-1,1.313061476E0,3.602992773E0
3.762681558E1,-1.535593987E0,1.415952802E0,4.425525665E0
3.764692668E1,-5.850451589E-1,3.816552162E-1,5.932405472E0
3.766703772E1,8.883354068E-1,-2.051845491E-1,7.632505894E0
3.768714876E1,1.385444283E0,2.697907388E-1,7.934599876E0
3.770725980E1,3.415754437E-1,1.075573802E0,6.006583214E0
3.772737084E1,-8.656035662E-1,1.469193101E0,3.900899172E0
3.774748188E1,-1.433898926E0,1.897508383E0,3.371487141E0
3.776759292E1,-1.211964726E0,2.033301115E0,5.034498692E0
3.778770397E1,-1.003190875E0,2.334198475E0,7.019943237E0
3.780781506E1,-6.801598072E-1,2.548954248E0,8.420941353E0
3.782792610E1,-2.859423161E-1,2.373081923E0,9.300901413E0
3.784803714E1,6.939185411E-2,2.129612207E0,1.038006496E1
3.786814819E1,2.087737769E-1,2.096710920E0,1.225723362E1
3.788825923E1,-2.195414752E-1,2.426920414E0,1.346381474E1
3.790837027E1,-7.543373108E-1,2.774477959E0,1.316052437E1
3.792848131E1,-9.104689956E-1,2.856431961E0,1.332443333E1
3.794859235E1,-7.453642488E-1,2.511267424E0,1.471406460E1
3.796870345E1,-4.001995921E-1,1.852044702E0,1.659721565E1
3.798881449E1,-6.520441920E-2,1.066002488E0,1.746521187E1
3.800892553E1,-1.495514158E-2,5.676971674E-1,1.719602013E1
3.802903657E1,-6.843472719E-1,7.322037220E-1,1.569691658E1
3.804914761E1,-1.237687469E0,1.363908887E0,1.365464211E1
3.806925866E1,-9.876375198E-1,1.663609982E0,1.105364418E1
3.808936970E1,-6.125625968E-1,1.783849239E0,8.367700577E0
3.810948074E1,-1.561316848E-1,1.526022673E0,6.881757736E0
3.812959178E1,1.992024779E-1,9.415757060E-1,7.122834682E0
3.814970282E1,3.308077157E-1,3.684946895E-1,8.196015358E0
3.816981386E1,1.998006850E-1,9.990034252E-2,9.144769669E0
3.818992491E1,-7.657032460E-2,6.340979785E-2,9.128618240E0
3.821003600E1,-9.092725813E-2,2.608176768E-1,7.800003529E0
3.823014704E1,1.758724600E-1,6.287141442E-1,5.848656654E0
3.825025808E1,4.151547253E-1,1.263410330E0,4.229912281E0
3.827036912E1,7.878368497E-1,1.817348838E0,4.041477680E0
3.829048017E1,1.089332461E0,2.155334949E0,5.422734261E0
3.831059121E1,6.466603279E-1,2.364108801E0,6.131608009E0
3.833070225E1,-2.081755698E-1,2.491526604E0,5.657230854E0
3.835081329E1,-8.279166222E-1,2.699702263E0,5.253442287E0
3.837092433E1,-6.759724021E-1,2.739781857E0,6.004190445E0
3.839103537E1,1.537388563E-1,2.139183521E0,7.835896015E0
3.841114642E1,1.354337573E0,1.673181176E0,1.048475075E1
3.843125746E1,1.109671474E0,1.733001828E0,1.209033489E1
3.845136850E1,-6.819544733E-2,1.808973908E0,1.193599796E1
3.847147954E1,-2.943171859E-1,2.049452543E0,1.150050354E1
3.849159058E1,6.711867452E-1,2.680559635E0,1.170150089E1
3.851170162E1,2.589632273E0,2.560320139E0,1.234277725E1
3.853181272E1,4.724030018E0,1.444068432E0,1.465484238E1
3.855192371E1,5.354538918E0,1.776670814E-1,1.833440590E1
3.857203480E1,3.567100286E0,-1.908276081E-1,1.946262169E1
3.859214584E1,2.140379906E0,1.746760458E-1,1.724686813E1
3.861225688E1,1.922633052E0,6.592226624E-1,1.449332714E1
3.863236793E1,2.356332064E0,1.062413216E0,1.249412346E1
3.865247897E1,2.386242390E0,1.538584948E0,1.113320541E1
3.867259001E1,2.131406784E0,1.540379524E0,1.001216793E1
3.869270105E1,1.719243050E0,1.292124271E0,8.925827026E0
3.871281209E1,1.460818172E0,1.177866936E0,8.491529465E0
3.873292313E1,1.246660590E0,1.097707391E0,8.371888161E0
3.875303418E1,8.644071817E-1,9.337990284E-1,7.855636597E0
3.877314522E1,4.019941986E-1,8.195417523E-1,6.975078106E0
3.879325626E1,1.830509305E-1,9.224331379E-1,6.035895348E0
3.881336730E1,1.830509305E-1,1.090528965E0,5.103292465E0
3.883347834E1,4.905286431E-2,1.252044439E0,4.651049137E0
3.885358938E1,-2.201396823E-1,1.392024517E0,4.596014023E0
3.887370042E1,-3.194418252E-1,1.509272933E0,4.442275047E0
3.889381147E1,-1.453639716E-1,1.673779488E0,4.429712772E0
3.891392251E1,4.785645287E-3,1.792822361E0,4.994419098E0
3.893403355E1,-6.460621208E-2,1.843071699E0,5.656632900E0
3.895414459E1,-2.195414752E-1,1.997408748E0,6.180062771E0
3.897425563E1,-3.870390654E-1,2.355135679E0,6.445665836E0
3.899436650E1,-1.615155339E-1,2.821137905E0,6.311667919E0
3.901447754E1,6.999006271E-1,2.868396044E0,6.457630157E0
3.903458858E1,2.099103689E0,2.414956331E0,8.484949112E0
3.905469962E1,2.883949518E0,1.859821439E0,1.263171101E1
3.907481066E1,1.858026743E0,1.869990945E0,1.621436501E1
3.909492170E1,-3.194418252E-1,2.369492531E0,1.617906952E1
3.911503274E1,-9.702895880E-1,3.138186932E0,1.423191071E1
3.913514379E1,-2.063809484E-1,3.969094515E0,1.346979713E1
3.915525483E1,8.913264275E-1,3.366103172E0,1.527219009E1
3.917536587E1,1.185045362E0,1.697109461E0,1.928256035E1
3.919547691E1,2.500499785E-1,5.401797295E-1,2.291546440E1
3.921558795E1,-1.009771109E0,2.297109663E-1,2.146122551E1
3.923569894E1,-1.381256819E0,8.578268886E-1,1.646022606E1
3.925580998E1,-4.755735099E-1,1.265803218E0,1.234457207E1
3.927592103E1,3.284149170E-1,1.106680512E0,9.856635094E0
3.929603207E1,5.192425251E-1,9.170492887E-1,8.161319733E0
3.931614311E1,1.674975827E-2,9.385846853E-1,6.436094761E0
3.933625415E1,-4.857429862E-1,1.102493048E0,4.262215137E0
3.935636519E1,-6.873382926E-1,1.447657704E0,2.252244234E0
3.937647624E1,-6.215356588E-1,1.488933921E0,8.656035662E-1
3.939658728E1,-9.571290575E-3,1.082752228E0,4.636093974E-1
3.941669832E1,7.746763229E-1,6.460621357E-1,2.116451740E0
3.943680936E1,5.551348329E-1,5.431707501E-1,4.762315273E0
3.945692040E1,-1.692921966E-1,7.399803996E-1,6.198606968E0
3.947703144E1,-1.019342422E0,1.106680512E0,5.507081509E0
3.949714249E1,-1.552343726E0,1.847259045E0,4.758127689E0
3.951725353E1,-1.620539188E0,3.196810961E0,4.962115765E0
3.953736457E1,-1.703689694E0,4.411168575E0,5.324030399E0
3.955747561E1,-5.413761139E-1,3.890729666E0,5.992824078E0
3.957758665E1,1.921436548E0,2.121835470E0,8.630312920E0
3.959769769E1,3.515056372E0,9.116654396E-1,1.332861996E1
3.961780868E1,1.864008784E0,8.524430394E-1,1.641954803E1
3.963791972E1,-1.179063320E0,1.135992527E0,1.467577934E1
3.965803077E1,-1.999801517E0,1.216152072E0,1.184626675E1
3.967814181E1,-5.066801906E-1,1.579861164E0,1.190190029E1
3.969825285E1,1.847857237E0,2.447857618E0,1.298764324E1
3.971836389E1,3.488137245E0,2.770888567E0,1.265863037E1
3.973847493E1,3.967299938E0,1.830509305E0,1.323589802E1
3.975858598E1,3.390629768E0,1.405783296E-1,1.719422531E1
3.977869702E1,1.740180254E0,-8.500502706E-1,2.079841423E1
3.979880806E1,6.263213158E-1,-6.825526357E-1,2.006022835E1
3.981891910E1,8.602197170E-1,1.627119333E-1,1.616830254E1
3.983903014E1,1.487737536E0,8.632107973E-1,1.260060406E1
3.985914113E1,1.881356835E0,1.006181955E0,1.015274620E1
3.987925217E1,2.168495417E0,9.726824164E-1,8.988637924E0
3.989936321E1,2.128415823E0,9.206385016E-1,8.261219978E0
3.991947426E1,1.636690736E0,1.121037364E0,7.220342159E0
3.993958530E1,1.339382529E0,1.238285661E0,6.131608009E0
3.995969634E1,1.674377680E0,1.085743308E0,4.530809879E0
3.997980738E1,1.895713687E0,1.165304661E0,3.153740168E0
3.999991842E1,1.484148264E0,1.230509043E0,2.731407166E0
4.002002946E1,5.611169338E-1,9.332008362E-1,3.867997885E0
4.004014051E1,-5.222335458E-1,6.269195080E-1,5.391627789E0
4.006025150E1,-1.222134113E0,7.184450030E-1,6.417550564E0
4.008036254E1,-1.479362607E0,1.197607756E0,6.122036934E0
4.010047358E1,-1.392024517E0,1.871187329E0,5.315057278E0
4.012058462E1,-6.083751321E-1,2.340778828E0,6.017350674E0
4.014069566E1,1.824527234E-1,2.885744095E0,7.235297680E0
4.016080670E1,7.244270444E-1,3.410968781E0,8.250452042E0
4.018091774E1,9.511470199E-1,3.485744476E0,9.163313866E0
4.020102879E1,7.399803996E-1,3.451048374E0,9.899106979E0
4.022113978E1,8.787640929E-1,3.455235958E0,1.048235798E1
4.024125082E1,1.263410330E0,3.661018610E0,1.099621677E1
4.026136186E1,1.495514154E0,3.917050600E0,1.157827091E1
4.028147290E1,1.166501045E0,3.692723513E0,1.248634720E1
4.030158394E1,5.515456200E-1,3.243471146E0,1.406740475E1
4.032169498E1,-2.799602449E-1,3.391227961E0,1.478764439E1
4.034180603E1,-8.985049129E-1,3.424727440E0,1.428574944E1
4.036191702E1,1.136590727E-2,2.079362869E0,1.558624840E1
4.038202806E1,1.374078393E0,1.848455518E-1,1.939083672E1
4.040213910E1,7.322037220E-1,-3.780659735E-1,2.153779602E1
4.042225014E1,-1.345962763E0,-1.393819153E-1,1.769671822E1
4.044236118E1,-1.727019787E0,2.697907388E-1,1.255753326E1
4.046247222E1,-8.416753411E-1,7.417750359E-1,9.806983948E0
4.048258327E1,5.383851007E-2,9.702895880E-1,8.961718559E0
4.050269426E1,3.625126183E-1,9.966106415E-1,8.285148621E0
4.052280530E1,1.435693651E-1,1.068993568E0,7.094120979E0
4.054291634E1,-9.092725813E-2,1.098305583E0,5.686542988E0
4.056302738E1,-5.204389244E-2,1.188036442E0,4.693521500E0
4.058313842E1,2.757728100E-1,1.545763373E0,5.006382942E0
4.060324946E1,-1.399801224E-1,1.876571178E0,5.347360611E0
4.062336051E1,-8.428717852E-1,1.849651933E0,5.095515728E0
4.064347150E1,-1.103689432E0,1.742573142E0,4.666602135E0
4.066358254E1,-9.643075466E-1,1.822134495E0,4.334000111E0
4.068369358E1,-3.990031779E-1,1.934597135E0,4.359124660E0
4.070380462E1,-4.863412082E-1,2.083550215E0,4.684548378E0
4.072391566E1,-1.045663476E0,2.374278307E0,5.341378212E0
4.074402665E1,-1.737787485E0,2.774477959E0,5.809773445E0
4.076413769E1,-1.856830359E0,3.007778168E0,5.409573555E0
4.078424874E1,-9.589236975E-1,3.005385160E0,5.266602516E0
4.080435978E1,1.465603858E-1,2.971287489E0,6.468397617E0
4.082447082E1,5.353940725E-1,3.004786968E0,8.246265411E0
4.084458186E1,-3.290131316E-2,2.994617462E0,9.573683739E0
4.086469285E1,-9.152546525E-1,3.116651535E0,1.018684387E1
4.088480389E1,-9.397810698E-1,3.307479143E0,1.124447155E1
4.090491493E1,2.991028316E-2,3.335594654E0,1.315693569E1
4.092502598E1,1.238285661E0,3.179463148E0,1.534158230E1
4.094513702E1,1.665404558E0,3.131606579E0,1.735035706E1
4.096524806E1,1.322034478E0,3.249453068E0,1.729352760E1
4.098535905E1,1.689931035E0,3.299104214E0,1.571546078E1
4.100547009E1,2.944368362E0,2.733799934E0,1.572622871E1
4.102558113E1,3.944568157E0,1.378864050E0,1.789233208E1
4.104569217E1,3.581457376E0,1.627119333E-1,1.910489464E1
4.106580321E1,2.297708035E0,-4.031906128E-1,1.762732697E1
4.108591420E1,1.313061476E0,9.571290761E-2,1.418824196E1
4.110602525E1,1.086939692E0,7.088736892E-1,1.065822983E1
4.112613629E1,1.464407444E0,1.010967612E0,7.961519241E0
4.114624733E1,1.681556106E0,1.211964726E0,6.084948063E0
4.116635837E1,1.760519266E0,1.094118118E0,5.233103275E0
4.118646936E1,1.581655741E0,9.433703423E-1,5.349154949E0
4.120658040E1,8.470591903E-1,8.111668825E-1,5.405984402E0
4.122669144E1,2.027917206E-1,7.070791125E-1,5.236093998E0
4.124680248E1,-2.428714931E-1,7.076773047E-1,4.835296154E0
4.126691348E1,-4.450650215E-1,8.099704385E-1,4.693521500E0
4.128702452E1,-3.559323549E-1,9.876375198E-1,5.203192711E0
4.130713556E1,-2.691925503E-2,1.236491084E0,5.513661385E0
4.132724660E1,-9.571290575E-3,1.373480201E0,5.667998791E0
4.134735764E1,-2.063809484E-1,1.670190215E0,6.078966141E0
4.136746863E1,-6.819544435E-1,2.173879385E0,6.541378975E0
4.138757967E1,-6.795616150E-1,2.495115757E0,6.956533432E0
4.140769071E1,-6.520441920E-2,2.334796667E0,7.828119278E0
4.142780176E1,1.034895778E0,2.094916344E0,9.232108116E0
4.144791275E1,1.481755376E0,2.154736757E0,1.029511929E1
4.146802379E1,1.154536963E0,2.321636200E0,1.042074299E1
4.148813483E1,5.718846321E-1,2.198405743E0,1.127019501E1
4.150824587E1,2.709871531E-1,2.030309916E0,1.353440285E1
4.152835691E1,-4.121637046E-1,2.484348059E0,1.491924953E1
4.154846790E1,-1.277767301E0,2.956332445E0,1.441137218E1
4.156857894E1,-1.477568030E0,2.491526604E0,1.480140305E1
4.158868998E1,-5.371887088E-1,9.960124493E-1,1.754058647E1
4.160880103E1,1.513460279E-1,3.218346536E-1,1.919402695E1
4.162891202E1,-3.385843933E-1,7.298108935E-1,1.712244034E1
4.164902306E1,-1.035493970E0,1.732403636E0,1.260838032E1
4.166913410E1,-1.302891970E0,2.367099762E0,8.603393555E0
4.168924514E1,-1.159322619E0,2.304288149E0,6.643671989E0
4.170935613E1,-4.977070987E-1,1.814955950E0,7.150950432E0
4.172946717E1,1.154536903E-1,1.543370605E0,8.237292290E0
4.174957821E1,3.056831062E-1,1.457827210E0,7.744968891E0
4.176968926E1,5.383850932E-1,1.265205026E0,6.397211552E0
4.178980024E1,7.040880919E-1,1.147358418E0,5.656632900E0
4.180991129E1,6.879364848E-1,1.058225870E0,5.879763603E0
4.183002233E1,3.744767308E-1,9.415757060E-1,6.260222435E0
4.185013337E1,1.292124242E-1,8.075776696E-1,5.995217323E0
4.187024436E1,3.708875179E-2,9.056833982E-1,5.593223095E0
4.189035540E1,8.015955985E-2,1.194616675E0,5.929414749E0
4.191046644E1,2.811566554E-2,1.671984792E0,6.970292568E0
4.193057748E1,-5.682953596E-1,2.204387903E0,7.501499176E0
4.195068848E1,-9.798609018E-1,2.557927370E0,7.052246571E0
4.197079952E1,-7.286145091E-1,2.837289333E0,6.716054916E0
4.199091056E1,-2.656033039E-1,2.909672260E0,7.432106972E0
4.201102160E1,3.224328458E-1,2.400001049E0,9.164510727E0
4.203113259E1,8.386843204E-1,1.762912035E0,1.166201973E1
4.205124363E1,2.895315289E-1,1.520040631E0,1.334357548E1
4.207135467E1,-5.365904570E-1,1.738385677E0,1.311984634E1
4.209146566E1,5.910272002E-1,1.703091502E0,1.267956734E1
4.211157670E1,3.002394199E0,1.201196909E0,1.391545963E1
4.213168774E1,4.989035130E0,5.395814776E-1,1.622274017E1
4.215179879E1,5.657230854E0,-2.273181528E-1,1.715055656E1
4.217190978E1,4.150949001E0,-5.126622319E-1,1.583809280E1
4.219202082E1,2.240280151E0,-3.332005441E-1,1.412423420E1
