"Time (s)","Acceleration x (m/s^2)","Acceleration y (m/s^2)","Acceleration z (m/s^2)"
1.856693700E-2,-8.835497499E-1,4.558327198E0,8.392825127E0
3.867797800E-2,-3.236292601E0,5.128417015E0,1.023649502E1
5.878896800E-2,-2.227119684E0,5.201398373E0,8.187641144E0
7.890000900E-2,-1.257428288E0,5.079962254E0,6.869195461E0
9.901099900E-2,-7.950153351E-1,4.837090969E0,7.533802032E0
1.191220410E-1,-6.388836503E-1,4.768895626E0,8.649456024E0
1.392330300E-1,-6.131607890E-1,4.849653244E0,8.940183640E0
1.593440720E-1,-4.163511395E-1,4.936991215E0,8.630910873E0
1.794550620E-1,-1.363908947E-1,4.787439823E0,8.522636414E0
1.995661030E-1,-3.284149170E-1,4.742574692E0,8.709874153E0
2.196770930E-1,-8.045865893E-1,4.949553490E0,8.823533058E0
2.397881340E-1,-9.840483069E-1,5.131408215E0,8.825327873E0
2.598991240E-1,-1.038485050E0,5.389235020E0,8.608179092E0
2.800101140E-1,-9.355936646E-1,5.467599869E0,8.988039970E0
3.001211550E-1,-6.047859192E-1,5.458626747E0,9.812965393E0
3.202321450E-1,-2.584248483E-1,5.734399319E0,1.012403297E1
3.403431870E-1,-5.300102234E-1,5.871986866E0,1.046022415E1
3.604541760E-1,-1.250249863E0,5.105685234E0,1.195454216E1
3.805652180E-1,-2.321636200E0,4.996213913E0,1.279561901E1
4.006762070E-1,-3.832703590E0,6.719046116E0,1.244267750E1
4.207872490E-1,-3.086741209E0,6.658627033E0,1.222014523E1
4.408982390E-1,2.243271172E-1,4.634897232E0,1.199342537E1
4.610092280E-1,2.779263496E0,3.272184849E0,1.261436272E1
4.811202700E-1,3.060420275E0,3.549752474E0,1.225962639E1
5.012312590E-1,1.912463546E0,3.976273060E0,1.136172009E1
5.213423010E-1,-3.194418252E-1,3.669393539E0,1.119003487E1
5.414532910E-1,-2.089532375E0,3.125624657E0,1.135932732E1
5.615642800E-1,-2.962314367E0,2.684148788E0,1.158485126E1
5.816753220E-1,-3.037688255E0,2.669193745E0,1.016351414E1
6.017863120E-1,-2.717648268E0,2.957528830E0,8.203194618E0
6.218973530E-1,-2.303091764E0,3.247658491E0,6.719046116E0
6.420083430E-1,-1.562513232E0,3.254238844E0,5.760720730E0
6.621193320E-1,-7.453642488E-1,2.823530674E0,6.075974941E0
6.822303740E-1,-4.618147612E-1,2.456830740E0,7.791030407E0
7.023413640E-1,-7.932206988E-1,2.416152716E0,9.494122505E0
7.224524050E-1,-1.452443361E0,2.748156786E0,9.929615974E0
7.425633950E-1,-1.804188251E0,3.277568817E0,8.424530029E0
7.626743840E-1,-1.756929994E0,3.695714474E0,6.186643124E0
7.827854260E-1,-1.573879123E0,3.754936934E0,5.599802971E0
8.028964160E-1,-1.474576950E0,3.568296671E0,6.510870457E0
8.230074050E-1,-1.132403374E0,3.186641455E0,7.558926582E0
8.431184470E-1,-4.989035130E-1,2.769692183E0,8.135597229E0
8.632294370E-1,-1.962114573E-1,2.636890650E0,8.513064384E0
8.833404260E-1,-3.667000830E-1,2.927618504E0,8.065009117E0
9.034514680E-1,-2.446661144E-1,3.038884640E0,7.558328629E0
9.235624570E-1,-8.973085321E-3,3.233899832E0,6.826723099E0
9.436734990E-1,-2.919243574E-1,3.878765583E0,6.318846226E0
9.637844890E-1,-9.690931439E-1,4.469194412E0,8.063214302E0
9.838954780E-1,-1.218544960E0,4.651049137E0,1.136710358E1
1.004006468E0,-4.223332107E-1,5.044668198E0,1.099561787E1
1.024117509E0,9.343972206E-1,5.052444935E0,9.422935486E0
1.044228499E0,1.649851203E0,4.703093052E0,1.051944637E1
1.064339489E0,1.493719578E0,3.736392498E0,1.250608730E1
1.084450530E0,2.578266263E-1,3.251846075E0,1.204487133E1
1.104561520E0,-1.519442320E0,3.751945972E0,9.154341698E0
1.124672509E0,-2.586641312E0,3.914059639E0,8.289934158E0
1.144783551E0,-2.258824587E0,3.138785124E0,1.140718365E1
1.164894541E0,-7.489534616E-1,1.966900229E0,1.343450260E1
1.185005530E0,2.548356056E-1,1.797608018E0,1.132343483E1
1.205116572E0,8.811569214E-1,2.440679073E0,8.280961037E0
1.225227562E0,8.769695163E-1,2.865405083E0,8.140382767E0
1.245338551E0,6.089733839E-1,2.863012314E0,8.835497856E0
1.265449593E0,3.619144261E-1,2.944966555E0,8.782257080E0
1.285560582E0,-2.632105052E-1,3.136392355E0,9.229715347E0
1.305671572E0,-1.533201098E0,3.476771355E0,1.010847950E1
1.325782562E0,-1.080957651E0,3.119642496E0,1.013898754E1
1.345893603E0,1.645065546E-1,2.657229662E0,8.910273552E0
1.366004593E0,5.796613097E-1,2.772683144E0,7.664210796E0
1.386115582E0,8.027920127E-1,2.988037348E0,7.811967850E0
1.406226572E0,8.422735929E-1,2.924029350E0,9.321240425E0
1.426337614E0,8.494520187E-1,2.978466034E0,8.871390343E0
1.446448603E0,8.907282352E-1,3.257229805E0,7.138388157E0
1.466559593E0,4.354937077E-1,3.965505362E0,6.025127411E0
1.486670634E0,-5.970092416E-1,4.753940582E0,6.827919483E0
1.506781624E0,-6.735795736E-1,4.811367989E0,8.505886078E0
1.526892614E0,5.832505226E-1,4.024129391E0,1.010429192E1
1.547003603E0,1.084546804E0,3.579064369E0,1.083589745E1
1.567114645E0,6.699903309E-2,4.396811485E0,9.391230583E0
1.587225634E0,-5.335994363E-1,5.144568920E0,8.469993591E0
1.607336624E0,2.452643216E-1,4.634897232E0,1.024367332E1
1.627447614E0,9.469595551E-1,3.590430260E0,1.217587757E1
1.647558603E0,7.010970116E-1,3.276970625E0,1.156092262E1
1.667669645E0,-4.079762697E-1,3.260818958E0,1.037886810E1
1.687780634E0,-1.731207132E0,3.390031576E0,1.001575756E1
1.707891624E0,-2.049452543E0,3.655634880E0,8.851649284E0
1.728002614E0,-1.165902853E0,3.520440340E0,7.360920429E0
1.748113603E0,-5.300102234E-1,3.079562664E0,8.513663292E0
1.768224645E0,4.366901144E-2,1.724626899E0,1.108714390E1
1.788335634E0,-7.310073376E-1,1.545165181E0,1.058943653E1
1.808446624E0,-1.720439434E0,2.548954248E0,8.105687141E0
1.828557614E0,-2.734398127E0,3.511467218E0,7.228717327E0
1.848668655E0,-3.984647989E0,4.095914364E0,8.037490845E0
1.868779645E0,-4.280759811E0,4.181457520E0,9.475577354E0
1.888890634E0,-2.846262455E0,3.518047571E0,1.020479012E1
1.909001624E0,-1.557129383E0,3.173480988E0,9.805189133E0
1.929112614E0,-1.246062398E0,3.170490026E0,9.544371605E0
1.949223655E0,-1.225125194E0,3.062214851E0,9.869196892E0
1.969334645E0,-7.818548083E-1,2.576471806E0,1.067916775E1
1.989445634E0,-8.033902049E-1,2.340180635E0,1.065643597E1
2.009556624E0,-1.525424480E0,2.769692183E0,9.537193298E0
2.029667614E0,-1.312463164E0,2.916252613E0,7.995018482E0
2.049778603E0,-4.689932466E-1,2.751745939E0,7.094120979E0
2.069889645E0,5.383851007E-2,2.748156786E0,7.299305439E0
2.090000634E0,-1.716850251E-1,3.040081263E0,7.618747234E0
2.110111624E0,-6.376872063E-1,3.373879910E0,8.635697365E0
2.130222614E0,-1.507478207E-1,3.192025423E0,9.862616539E0
2.150333603E0,3.678964674E-1,3.146561861E0,9.118449211E0
2.170444593E0,1.328016520E-1,3.780659676E0,8.080561638E0
2.190555634E0,-1.369891018E-1,4.178466320E0,7.871190071E0
2.210666624E0,-3.924229145E-1,4.383651257E0,8.306683540E0
2.230777614E0,-9.212367237E-2,4.393820763E0,8.895915985E0
2.250888603E0,8.201399446E-1,4.218546391E0,9.821340561E0
2.270999593E0,1.171884894E0,4.153940201E0,1.125105190E1
2.291110582E0,6.358926296E-1,4.412364960E0,1.287577820E1
2.311221572E0,1.302891970E0,4.156930923E0,1.284766293E1
2.331332614E0,2.643470764E0,3.752544165E0,1.102433205E1
2.351443603E0,3.424727440E0,3.296711445E0,1.058883858E1
2.371554593E0,3.381058455E0,2.800798893E0,1.163330555E1
2.391665582E0,2.519043922E0,2.800200701E0,1.148973656E1
2.411776572E0,1.418943882E0,3.188436270E0,9.879964828E0
2.431887562E0,6.245267391E-1,3.630510092E0,8.348558426E0
2.451998551E0,1.603191197E-1,3.645465374E0,7.840681553E0
2.472109541E0,2.123630047E-1,3.101696253E0,8.711668968E0
2.492220530E0,3.810569942E-1,2.256431818E0,1.072582722E1
2.512331572E0,1.686939895E-1,1.809572101E0,1.161595726E1
2.532442562E0,-4.701896608E-1,2.145763636E0,1.016949654E1
2.552553551E0,-1.124626637E0,2.808575630E0,7.610970497E0
2.572664541E0,-1.149153113E0,2.998206854E0,6.885347366E0
2.592775530E0,-4.396811724E-1,2.503490686E0,8.087141991E0
2.612886520E0,1.537388563E-1,2.305484533E0,8.193024635E0
2.632997509E0,4.121637046E-1,2.582453728E0,7.001399040E0
2.653108499E0,4.881358147E-1,3.119044304E0,6.440282345E0
2.673219489E0,1.484148264E0,2.936591625E0,8.289934158E0
2.693330478E0,1.766501307E0,2.315654039E0,1.061037350E1
2.713441468E0,7.058826685E-1,2.828316450E0,1.009172916E1
2.733552509E0,-1.645065546E-1,3.815953970E0,8.655437469E0
2.753663499E0,-8.889335990E-1,4.051646709E0,1.028315544E1
2.773774489E0,-1.033699393E0,3.521038532E0,1.350808239E1
2.793885478E0,2.536391914E-1,2.327019930E0,1.564786339E1
2.813996468E0,2.309073806E-1,2.365305185E0,1.315932846E1
2.834107457E0,-1.272981644E0,3.266801119E0,1.006181908E1
2.854218447E0,-2.219342947E0,3.728017569E0,8.564510345E0
2.874329437E0,-1.966302037E0,3.335594654E0,8.867202759E0
2.894440426E0,-1.263410330E0,2.877369165E0,9.107083321E0
2.914551416E0,-7.334001660E-1,2.903690338E0,8.146963120E0
2.934662405E0,-7.226324677E-1,3.181855917E0,7.315456867E0
2.954773395E0,-8.548358679E-1,3.177668571E0,7.747361660E0
2.974884384E0,-8.656035662E-1,2.980858803E0,9.105288506E0
2.994995374E0,-8.530412912E-1,3.072384357E0,9.870393753E0
3.015106364E0,-4.815555513E-1,3.330809116E0,9.180064201E0
3.035217405E0,6.305087805E-1,3.173480988E0,7.806583881E0
3.055328395E0,9.990034699E-1,3.296113253E0,7.039684296E0
3.075439384E0,-2.213360965E-1,3.701696634E0,7.945367813E0
3.095550374E0,-1.431506157E0,4.055834293E0,8.807381630E0
3.115661364E0,-1.691127419E0,4.051646709E0,8.891729355E0
3.135772353E0,-1.721037745E0,3.923630953E0,8.945567131E0
3.155883343E0,-1.709671736E0,3.873381615E0,9.570692062E0
3.175994332E0,-1.557727575E0,3.848257065E0,9.879964828E0
3.196105322E0,-1.125823021E0,3.815953970E0,9.600004196E0
3.216216312E0,-1.423131227E0,3.714857101E0,1.006361389E1
3.236327301E0,-2.341377020E0,3.591626883E0,1.055474091E1
3.256438291E0,-2.798406124E0,3.622733593E0,1.071506023E1
3.276549280E0,-2.655434847E0,4.103092670E0,1.037049294E1
3.296660270E0,-1.369890928E0,4.831109047E0,8.992227554E0
3.316771259E0,4.408775866E-1,5.205585480E0,8.059026718E0
3.336882249E0,1.935195327E0,4.686343193E0,9.348757744E0
3.356993239E0,2.584846735E0,3.825525284E0,1.134556866E1
3.377104228E0,2.663211584E0,3.281756163E0,1.193061352E1
3.397215218E0,2.142772675E0,3.336193085E0,1.024965572E1
3.417326207E0,8.811569214E-1,4.068396568E0,8.675178528E0
3.437437197E0,6.197410822E-1,4.032504559E0,7.794619560E0
3.457548187E0,6.945167780E-1,3.830909014E0,7.252047062E0
3.477659176E0,4.923232496E-1,3.824328899E0,6.862615108E0
3.497770166E0,1.866401732E-1,4.129413605E0,6.386443615E0
3.517881155E0,1.022931710E-1,4.303491592E0,5.845067501E0
3.537992145E0,6.173482537E-1,3.993022680E0,6.049654007E0
3.558103134E0,1.067797065E0,3.309273720E0,8.429914474E0
3.578214124E0,1.162313581E0,2.708675146E0,1.117866898E1
3.598325114E0,1.064207911E0,2.670390129E0,1.127498055E1
3.618436103E0,1.337587833E0,2.901895761E0,9.146564484E0
3.638547093E0,1.816152334E0,3.152543783E0,7.821538925E0
3.658658082E0,1.835294962E0,3.371487141E0,8.155936241E0
3.678769072E0,1.503290772E0,3.451048374E0,9.005388260E0
3.698880062E0,1.150349498E0,3.402593851E0,9.729216576E0
3.718991051E0,7.208378315E-1,3.725026608E0,9.036494255E0
3.739102041E0,-2.847459018E-1,4.240679741E0,7.466803074E0
3.759213030E0,-6.538388133E-1,4.089931965E0,7.874779224E0
3.779323968E0,1.854437590E-2,3.391227961E0,9.942776680E0
3.799434957E0,6.245267391E-1,2.995813847E0,1.089392376E1
3.819545947E0,8.231309652E-1,3.199203968E0,1.041296577E1
3.839656937E0,6.963114142E-1,3.726222992E0,9.100502968E0
3.859767926E0,2.656033039E-1,3.685544968E0,9.083154678E0
3.879878916E0,-6.442674994E-1,3.211766243E0,1.134556866E1
3.899989905E0,-9.649057388E-1,2.641676188E0,1.350927830E1
3.920100895E0,-8.093722463E-1,2.507678032E0,1.331845093E1
3.940211884E0,-3.619144261E-1,3.234498024E0,1.070369434E1
3.960322874E0,1.668993831E-1,3.669393539E0,8.531010628E0
3.980433864E0,2.566302419E-1,3.754936934E0,7.629515171E0
4.000544853E0,-1.537388563E-1,3.357130051E0,8.704490662E0
4.020655843E0,-1.021137118E0,3.205185890E0,9.605388641E0
4.040766832E0,-1.922633052E0,3.434896946E0,8.936594009E0
4.060877822E0,-2.682952404E0,4.201198578E0,7.951947689E0
4.080988812E0,-2.233101845E0,4.106681824E0,9.065806389E0
4.101099801E0,-5.551348329E-1,2.997608662E0,1.065404320E1
4.121210791E0,5.748756528E-1,2.183450699E0,1.089631653E1
4.141321728E0,1.600200176E0,2.335993052E0,8.065009117E0
4.161432770E0,1.716850281E0,3.196212769E0,5.624927998E0
4.181543707E0,7.537391186E-1,4.012165546E0,5.706283569E0
4.201654697E0,-7.190431952E-1,4.603192329E0,7.604988575E0
4.221765687E0,-1.642074585E0,4.866403103E0,9.140582085E0
4.241876676E0,-1.134796143E0,4.718646049E0,9.967901230E0
4.261987666E0,-2.159522474E-1,4.345963955E0,1.102493000E1
4.282098655E0,6.376872063E-1,3.993621111E0,1.101177025E1
4.302209645E0,2.027917147E0,3.448057413E0,1.007079220E1
4.322320634E0,3.277568817E0,3.304488182E0,8.727820396E0
4.342431624E0,3.765704632E0,3.372085333E0,7.092326164E0
4.362542614E0,2.948555708E0,3.591028690E0,6.086742401E0
4.382653603E0,1.354337573E0,4.006183147E0,6.346364021E0
4.402764541E0,1.944168359E-1,3.436691523E0,9.619147301E0
4.422875530E0,3.678964674E-1,2.298306227E0,1.371506119E1
4.442986520E0,1.057627559E0,1.924427629E0,1.433898926E1
4.463097509E0,9.948160052E-1,2.983849764E0,1.038544846E1
4.483208499E0,8.769695163E-1,3.943371773E0,6.968497753E0
4.503319489E0,7.381857634E-1,3.967898130E0,6.943971157E0
4.523430478E0,4.719842672E-1,3.291327477E0,8.723632812E0
4.543541468E0,7.956135273E-2,3.038286448E0,1.022213840E1
4.563652457E0,-3.840480447E-1,3.092723370E0,1.080838013E1
4.583763447E0,-4.707878530E-1,3.345165968E0,9.825528145E0
4.603874384E0,1.698904037E-1,3.238685369E0,8.379665375E0
4.623985374E0,9.337990284E-1,3.126222849E0,7.810771465E0
4.644096364E0,1.541576028E0,3.228515863E0,7.740182877E0
4.664207353E0,1.280758262E0,3.598206997E0,7.176673412E0
4.684318343E0,6.083751321E-1,3.732803345E0,7.540382385E0
4.704429332E0,1.938186288E-1,3.604189157E0,8.989834785E0
4.724540322E0,3.607180119E-1,3.262613773E0,9.784850121E0
4.744651312E0,6.460621357E-1,3.262613773E0,9.548559189E0
4.764762249E0,3.900300860E-1,3.754936934E0,8.863613129E0
4.784873239E0,1.674975827E-2,4.174877167E0,8.855836868E0
4.804984228E0,-8.075776696E-2,4.007977962E0,9.596415520E0
4.825095218E0,-4.127619043E-2,3.575475216E0,1.041835022E1
4.845206207E0,-2.237289101E-1,3.474378586E0,1.074855900E1
4.865317197E0,-3.625126183E-1,3.631108284E0,1.052064323E1
4.885428187E0,-2.709871531E-1,3.478565931E0,1.065404320E1
4.905539124E0,-5.401797295E-1,3.025724173E0,1.108056355E1
4.925650114E0,-6.185446382E-1,2.670988321E0,1.183849049E1
4.945761103E0,-1.603191197E-1,2.415554523E0,1.165065384E1
4.965872093E0,2.572284341E-1,2.247458696E0,1.093878841E1
4.985983082E0,2.057827413E-1,2.346760750E0,1.001934624E1
5.006094072E0,-8.608179688E-1,2.828914642E0,8.956335068E0
5.026205062E0,-1.805384636E0,3.299104214E0,8.385048866E0
5.046316051E0,-1.628315806E0,3.031108141E0,8.282755852E0
5.066426989E0,-1.422533035E0,2.825325251E0,8.321639061E0
5.086537978E0,-9.421738982E-1,2.848057270E0,8.121838570E0
5.106648968E0,-2.644068897E-1,2.764906645E0,8.204390526E0
5.126759957E0,4.929214716E-1,2.407777786E0,8.993423462E0
5.146870947E0,7.932206988E-1,2.053041935E0,1.048893833E1
5.166981937E0,5.497509837E-1,2.102094650E0,1.134317589E1
5.187092874E0,2.255235314E-1,2.288136721E0,1.111406326E1
5.207203864E0,-1.782652885E-1,2.543570518E0,1.020299530E1
5.227314853E0,-8.039883971E-1,2.654836655E0,1.012522888E1
5.247425843E0,-1.417747378E0,2.914458036E0,9.477970123E0
5.267536832E0,-1.487139225E0,3.488137245E0,8.070392609E0
5.287647822E0,-6.005984545E-1,3.823730469E0,6.745965004E0
5.307758812E0,4.336991012E-1,3.743571043E0,6.932007313E0
5.327869749E0,1.190429255E-1,3.850649834E0,8.033304214E0
5.347980739E0,-4.181457460E-1,3.934398651E0,8.741579056E0
5.368091728E0,-9.655039310E-1,4.016951084E0,9.171689034E0
5.388202718E0,-1.031306505E0,3.676572084E0,1.163569832E1
5.408313707E0,-1.506880045E0,3.154936552E0,1.454477215E1
5.428424697E0,-2.345564365E0,3.069393158E0,1.425464249E1
5.448535634E0,-2.218744755E0,3.209971666E0,1.178166008E1
5.468646624E0,-3.942175210E-1,3.092723370E0,9.463613510E0
5.488757614E0,1.411765337E0,3.050250769E0,8.388039589E0
5.508868603E0,2.092523336E0,2.575275421E0,9.307481766E0
5.528979593E0,1.677966833E0,2.126621008E0,1.028614616E1
5.549090530E0,2.398804724E-1,2.448455811E0,1.048235798E1
5.569201520E0,-8.231309652E-1,2.893520832E0,9.792028427E0
5.589312509E0,-9.068797827E-1,2.905484915E0,9.568898201E0
5.609423499E0,-4.666004181E-1,2.362314224E0,1.018325520E1
5.629534489E0,5.324030295E-2,1.928016901E0,9.897911072E0
5.649645478E0,2.165504545E-1,1.920240164E0,8.832506180E0
5.669756416E0,-3.649054468E-2,2.057229280E0,7.875377655E0
5.689867405E0,-4.618147612E-1,1.772483349E0,8.069195747E0
5.709978395E0,-6.107679605E-1,1.919043779E0,8.082955360E0
5.730089384E0,1.567298770E-1,2.220539331E0,7.029514790E0
5.750200322E0,1.223928809E0,2.564507723E0,7.362715244E0
5.770311312E0,1.581057549E0,2.792423964E0,9.605986595E0
5.790422301E0,1.418943882E0,3.126821041E0,1.060678482E1
5.810533291E0,9.302098155E-1,3.481556892E0,8.748159409E0
5.830644280E0,4.462614357E-1,3.597010612E0,6.783652306E0
5.850755270E0,3.511467278E-1,3.024527788E0,6.006583214E0
5.870866207E0,2.027917206E-1,2.048256159E0,8.842078209E0
5.890977197E0,-1.285543919E0,1.327418327E0,1.299661636E1
5.911088187E0,-2.629113913E0,1.843669891E0,1.434915924E1
5.931199176E0,-2.264208317E0,2.445464849E0,1.173799133E1
5.951310166E0,-1.486541033E0,2.491526604E0,9.542576790E0
5.971421103E0,-9.433703423E-1,2.768495798E0,7.573283672E0
5.991532093E0,4.055834413E-1,2.626721144E0,7.241279602E0
6.011643082E0,1.231705427E0,2.112862349E0,9.095118523E0
6.031754072E0,3.284149170E-1,2.097309113E0,1.157049370E1
6.051865009E0,-6.562315822E-1,2.653042078E0,1.121635628E1
6.071975999E0,-7.549355626E-1,3.106482029E0,8.834898949E0
6.092086989E0,-9.714859724E-1,3.293122053E0,7.337590694E0
6.112197978E0,-1.152144074E0,3.047259569E0,8.589634895E0
6.132308968E0,-1.052842021E0,2.525026083E0,1.082991505E1
6.152419905E0,-1.387837172E0,2.599203587E0,1.132642555E1
6.172530895E0,-1.602592945E0,3.123830080E0,8.969495773E0
6.192641884E0,-1.362114310E0,3.233301640E0,7.978867054E0
6.212752874E0,-1.374078393E0,3.183052301E0,8.587840080E0
6.232863812E0,-1.178465128E0,3.022733212E0,9.044869423E0
6.252974801E0,-9.409775138E-1,3.038884640E0,9.059226990E0
6.273085791E0,-7.920243144E-1,3.102892876E0,9.347561836E0
6.293196780E0,-6.789634228E-1,3.211168051E0,9.104091644E0
6.313307770E0,-6.448656917E-1,3.321835995E0,8.450253487E0
6.333418707E0,-3.960121572E-1,3.412165165E0,9.055039406E0
6.353529697E0,-2.392822690E-2,3.238685369E0,1.096630573E1
6.373640687E0,4.683950245E-1,3.084348440E0,1.172124195E1
6.393751624E0,6.813562512E-1,3.085544825E0,1.124447155E1
6.413862614E0,3.732803464E-1,2.975475073E0,1.056132126E1
6.433973603E0,-3.912265003E-1,3.189632654E0,1.050867844E1
6.454084593E0,-6.999006271E-1,3.507279873E0,9.463015556E0
6.474195582E0,-7.316055298E-1,4.170690060E0,8.093124390E0
6.494306520E0,-3.948157281E-2,4.057030678E0,9.080163956E0
6.514417509E0,9.553344250E-1,3.279363394E0,1.111825085E1
6.534528499E0,1.956132531E0,2.688934565E0,1.139402294E1
6.554639489E0,2.216351986E0,2.574677229E0,1.014975548E1
6.574750426E0,1.560718536E0,2.718246460E0,8.591429710E0
6.594861416E0,1.190429255E-1,2.788834810E0,8.255836487E0
6.614972405E0,-1.371685624E0,3.107080221E0,8.665008545E0
6.635083395E0,-1.663011789E0,3.360719442E0,8.656036377E0
6.655194332E0,-1.272383451E0,3.705883980E0,7.963912010E0
6.675305322E0,-4.289134443E-1,3.662813187E0,7.457829952E0
6.695416312E0,-6.622136831E-1,3.276970625E0,7.447660446E0
6.715527249E0,-8.913264275E-1,2.758326292E0,7.658228874E0
6.735638239E0,-2.386840582E-1,2.127817631E0,9.250054359E0
6.755749228E0,5.856433511E-1,1.439282775E0,1.197846985E1
6.775860218E0,4.546363056E-1,1.436291814E0,1.274836063E1
6.795971155E0,-2.937189937E-1,2.221735716E0,1.035852909E1
6.816082145E0,-6.813562512E-1,2.966501951E0,7.511668682E0
6.836193134E0,-6.017948985E-1,3.093321562E0,6.441478729E0
6.856304124E0,-1.788634956E-1,2.568695068E0,7.839485168E0
6.876415062E0,-6.340979785E-2,2.160718918E0,1.002712345E1
6.896526051E0,-4.289134443E-1,2.245065928E0,1.164108181E1
6.916637041E0,-1.074975610E0,2.934797049E0,1.158664513E1
6.936748030E0,-9.924231768E-1,3.393620729E0,9.939187050E0
6.956858968E0,-5.682953596E-1,3.463610888E0,9.043673515E0
6.976969957E0,-2.967100143E-1,3.083750248E0,9.731609344E0
6.997080947E0,-3.481557071E-1,2.398206472E0,1.276929760E1
7.017191937E0,-2.572284341E-1,1.750349760E0,1.479601860E1
7.037302874E0,-1.304088384E-1,1.964507341E0,1.250608730E1
7.057413864E0,-3.170489967E-1,2.734996319E0,8.507680893E0
7.077524853E0,-8.285148144E-1,3.396013498E0,6.483353138E0
7.097635791E0,-1.083350420E0,3.541975737E0,6.402595043E0
7.117746780E0,-9.870393276E-1,3.110669374E0,7.694719315E0
7.137857770E0,-9.272187948E-1,2.857030153E0,8.633303642E0
7.157968759E0,-7.387840152E-1,2.933002472E0,8.575278282E0
7.178079697E0,-2.847459018E-1,3.002394199E0,8.404789925E0
7.198190687E0,2.452643216E-1,2.783450842E0,8.953344345E0
7.218301676E0,-4.127619043E-2,2.718246460E0,9.704092026E0
7.238412614E0,-5.802595019E-1,2.828316450E0,9.622138023E0
7.258523603E0,-1.229312658E0,3.329612732E0,8.099106789E0
7.278634593E0,-1.591227055E0,3.939184189E0,6.799205780E0
7.298745582E0,-1.357926846E0,4.201796532E0,7.003193855E0
7.318856520E0,-9.984052777E-1,4.242474556E0,7.272386074E0
7.338967509E0,-1.332802176E0,4.508078098E0,7.480561733E0
7.359078499E0,-2.213959217E0,4.752145767E0,7.804789066E0
7.379189437E0,-2.367099762E0,4.548157692E0,9.494720459E0
7.399300426E0,-2.232503414E0,4.276572227E0,1.134018517E1
7.419411416E0,-1.773679733E0,4.118646145E0,1.200897884E1
7.439522405E0,-6.454638839E-1,3.931407690E0,1.121037388E1
7.459633343E0,-6.819544733E-2,3.871587038E0,1.030229759E1
7.479744332E0,2.213360965E-1,3.721437454E0,9.613762856E0
7.499855322E0,1.657029688E-1,3.528217077E0,7.604390144E0
7.519966259E0,-1.004985496E-1,3.658625841E0,6.375077724E0
7.540077249E0,-5.790630579E-1,3.042474031E0,9.430712700E0
7.560188239E0,-9.487541914E-1,2.131406784E0,1.337587833E1
7.580299228E0,-6.299105883E-1,1.741974831E0,1.472004700E1
7.600410166E0,-3.038884699E-1,2.154138565E0,1.231884956E1
7.620521155E0,-2.991028428E-1,2.723032236E0,9.332008362E0
7.640632145E0,-1.908276081E-1,3.253640652E0,6.724429607E0
7.660743082E0,8.494520187E-2,3.405584812E0,5.912066460E0
7.680854072E0,-1.794617027E-1,3.347558975E0,7.039684296E0
7.700965062E0,-7.758727670E-1,3.178864956E0,9.036494255E0
7.721075999E0,-1.030110121E0,2.938386202E0,1.021196842E1
7.741186989E0,-7.328019142E-1,2.697309256E0,1.009531879E1
7.761297978E0,-2.219343036E-1,2.486740828E0,9.738788605E0
7.781408916E0,-5.982056726E-3,2.565105915E0,9.336195946E0
7.801519905E0,-1.238285750E-1,2.808575630E0,9.401998520E0
7.821630895E0,-2.590230405E-1,3.080759048E0,8.717052460E0
7.841741832E0,-6.269195080E-1,3.332603693E0,8.292326927E0
7.861852822E0,-6.616154313E-1,3.143570662E0,8.933603287E0
7.881963812E0,-4.654040039E-1,2.807977438E0,1.002413273E1
7.902074749E0,-3.176472187E-1,2.705684185E0,1.026341438E1
7.922185739E0,-7.902296782E-1,3.170490026E0,9.756733894E0
7.942296728E0,-7.830511928E-1,3.541975737E0,8.700901031E0
7.962407718E0,-2.566302419E-1,3.507279873E0,8.340781212E0
7.982518655E0,4.522434771E-1,3.141776085E0,9.037691116E0
8.002629645E0,3.266202807E-1,2.932404041E0,9.191430092E0
8.022740634E0,-3.870390654E-1,2.930011272E0,8.714659691E0
8.042851572E0,-1.138385415E0,2.653640270E0,9.913464546E0
8.062962562E0,-1.333998680E0,1.758724689E0,1.274895859E1
8.083073551E0,-1.164706469E0,1.408774376E0,1.362772274E1
8.103184489E0,-8.763712645E-1,1.942373753E0,1.123549843E1
8.123295478E0,-6.604190469E-1,2.654836655E0,7.887341499E0
8.143406468E0,-1.086939692E0,3.345764160E0,5.810371399E0
8.163517405E0,-1.752742529E0,3.498904943E0,5.840281963E0
8.183628395E0,-2.495713949E0,3.188436270E0,8.047660828E0
8.203739384E0,-2.825325251E0,2.771486759E0,1.019581699E1
8.223850322E0,-2.530410051E0,2.724826813E0,1.029332447E1
8.243961312E0,-2.156531334E0,2.987439156E0,8.415556908E0
8.264072301E0,-1.704886079E0,3.010170937E0,7.465008259E0
8.284183239E0,-1.600200176E0,2.883949518E0,8.918647766E0
8.304294228E0,-8.237292171E-1,2.255235434E0,1.057388306E1
8.324405218E0,-3.577269912E-1,2.062014818E0,1.028614616E1
8.344516155E0,-7.663014531E-1,2.513660192E0,9.173483849E0
8.364627145E0,-1.217348576E0,2.911466837E0,8.745168686E0
8.384738134E0,-1.469193101E0,3.115455151E0,8.949156761E0
8.404849072E0,-1.159322619E0,2.949752092E0,9.747162819E0
8.424960062E0,-4.061816335E-1,2.665604353E0,1.003131104E1
8.445071051E0,-4.426721856E-2,2.685943365E0,1.019462109E1
8.465181989E0,-1.950150430E-1,2.995813847E0,1.031366348E1
8.485292978E0,-3.068794906E-1,3.308675528E0,1.053619671E1
8.505403968E0,-3.218346536E-1,3.156731367E0,1.214297676E1
8.525514905E0,-1.286142170E-1,2.993421078E0,1.301695538E1
8.545625895E0,2.482553422E-1,3.092125177E0,1.096810055E1
8.565736884E0,-5.982056726E-3,3.275176048E0,8.732605934E0
8.585847822E0,-7.046862841E-1,3.068196774E0,9.388837814E0
8.605958812E0,-4.857429862E-1,1.554138303E0,1.316650677E1
8.626069749E0,1.674975827E-2,4.510470629E-1,1.616471291E1
8.646180739E0,-1.094716340E-1,9.200403094E-1,1.359900951E1
8.666291728E0,-7.926225066E-1,2.529811859E0,8.950352669E0
8.686402718E0,-1.062413216E0,3.605385542E0,5.880959988E0
8.706513655E0,-9.403793216E-1,3.957130432E0,5.292325497E0
8.726624645E0,-5.018945336E-1,3.122035265E0,7.470392227E0
8.746735582E0,-2.709871531E-1,2.480160713E0,9.565308571E0
8.766846572E0,1.190429255E-1,1.964507341E0,1.051226807E1
8.786957562E0,2.135594189E-1,2.028515339E0,1.004387283E1
8.807068499E0,1.884347796E-1,2.364108801E0,8.043473244E0
8.827179489E0,3.768695593E-1,2.539382935E0,6.535995007E0
8.847290478E0,-4.725824669E-2,2.852842808E0,7.156334400E0
8.867401416E0,-2.015953064E-1,2.854039192E0,7.546962738E0
8.887512405E0,3.056831062E-1,2.668595552E0,6.938587666E0
8.907623343E0,5.712863803E-1,2.545365095E0,7.934599876E0
8.927734332E0,7.860422134E-1,2.286342144E0,1.073719311E1
8.947845322E0,2.901297510E-1,2.602792740E0,1.117089272E1
8.967956259E0,-6.879365444E-2,3.406781197E0,8.495717049E0
8.988067249E0,2.679961324E-1,3.801596880E0,7.101897717E0
9.008178239E0,6.885347366E-1,3.568296671E0,8.190631866E0
9.028289176E0,4.001995921E-1,3.201596737E0,1.007139015E1
9.048400166E0,2.512463741E-2,3.443271875E0,1.069950676E1
9.068511155E0,-1.824527234E-1,3.994817495E0,9.413962364E0
9.088622093E0,-1.108475089E0,4.472185612E0,8.229515076E0
9.108733082E0,-2.229512453E0,4.592424870E0,8.950352669E0
9.128844020E0,-2.214557409E0,3.672982693E0,1.148136139E1
9.148955009E0,-1.629512191E0,2.301895380E0,1.519920921E1
9.169065999E0,-3.972085714E-1,1.283749342E0,1.630469322E1
9.189176937E0,2.195414752E-1,1.520040631E0,1.227817154E1
9.209287926E0,-2.225325108E-1,2.302493572E0,7.890332699E0
9.229398916E0,-1.360917926E0,2.961117983E0,6.319444656E0
9.249509853E0,-2.197807550E0,2.668595552E0,8.130212784E0
9.269620843E0,-2.171486616E0,2.169692039E0,1.016471100E1
9.289731832E0,-1.260419369E0,1.691127419E0,1.107876873E1
9.309842770E0,-4.378865361E-1,1.812563181E0,1.019162941E1
9.329953759E0,-1.028913707E-1,2.062613010E0,8.680562019E0
9.350064697E0,-1.136590764E-1,2.298904419E0,7.269993305E0
9.370175687E0,-3.116651475E-1,2.457428932E0,6.624529362E0
9.390286676E0,-7.549355626E-1,2.553141832E0,6.918248653E0
9.410397614E0,-1.097109199E0,2.672184706E0,8.035696983E0
9.430508603E0,-9.176474810E-1,2.756531715E0,8.414958954E0
9.450619541E0,-6.394818425E-1,2.916252613E0,8.085946083E0
9.470730530E0,-3.194418252E-1,3.245265722E0,7.758129120E0
9.490841520E0,3.457628787E-1,3.345764160E0,7.548757076E0
9.510952457E0,6.825526357E-1,3.329612732E0,7.811967850E0
9.531063447E0,6.113662124E-1,3.497110367E0,8.057829857E0
9.551174384E0,5.030909777E-1,3.458226919E0,8.575876236E0
9.571285374E0,-4.139583111E-1,3.692125320E0,9.530014038E0
9.591396364E0,-1.377667665E0,4.053441525E0,1.056790161E1
9.611507301E0,-1.310070395E0,4.412364960E0,1.045304585E1
9.631618291E0,-2.847459018E-1,4.098307133E0,9.351749420E0
9.651729228E0,-1.166501045E-1,3.750749588E0,9.487542152E0
9.671840218E0,-8.584251404E-1,3.557528973E0,1.063549805E1
9.691951207E0,-1.080957651E0,2.884547710E0,1.259462166E1
9.712062145E0,-6.293123364E-1,2.270190477E0,1.453221035E1
9.732173134E0,5.389832854E-1,1.800000787E0,1.454656696E1
9.752284072E0,6.945167780E-1,2.289931297E0,1.228176022E1
9.772395062E0,2.697907388E-1,2.847458839E0,1.019162941E1
9.792505999E0,-3.050848842E-1,3.271586657E0,8.629117012E0
9.812616989E0,-6.436693072E-1,3.293720484E0,7.823931694E0
9.832727978E0,-8.494520187E-1,3.218346357E0,7.395018578E0
9.852838916E0,-1.230509043E0,3.183650494E0,7.818548203E0
9.872949905E0,-1.254437327E0,3.034099102E0,7.864011765E0
9.893060895E0,-9.134600163E-1,2.879761934E0,7.161718369E0
9.913171832E0,-5.946164131E-1,2.741576433E0,6.685546398E0
9.933282822E0,-2.045863420E-1,2.606382132E0,6.732206345E0
9.953393759E0,3.750749528E-1,2.453241348E0,7.121040344E0
9.973504749E0,9.577272534E-1,2.432902336E0,7.511070251E0
9.993615687E0,1.019342422E0,2.589034081E0,8.359326363E0
1.001372668E1,6.789634228E-1,2.759522676E0,9.509675026E0
1.003383767E1,2.500499785E-1,2.988635540E0,9.958928108E0
1.005394860E1,4.145565331E-1,2.766103029E0,1.047996521E1
1.007405959E1,3.936193287E-1,2.754138947E0,1.061994553E1
1.009417053E1,8.554340899E-2,3.000001431E0,1.060618591E1
1.011428152E1,-3.445664644E-1,3.131008387E0,1.095852947E1
1.013439246E1,-8.207381964E-1,3.339782238E0,1.156570816E1
1.015450345E1,-7.824530005E-1,3.223132133E0,1.125284672E1
1.017461444E1,-6.915257573E-1,3.026920557E0,1.083290672E1
1.019472537E1,-1.168893814E0,2.818146944E0,1.144008541E1
1.021483636E1,-1.632503271E0,2.263610125E0,1.346082401E1
1.023494730E1,-1.613360643E0,1.565504193E0,1.505384541E1
1.025505829E1,-1.182652593E0,1.295713425E0,1.421336651E1
1.027516928E1,-7.663014531E-1,1.754537225E0,1.075035381E1
1.029528022E1,-6.113662124E-1,2.249253273E0,7.879564762E0
1.031539121E1,-8.201399446E-1,2.647658348E0,6.547959328E0
1.033550215E1,-9.589236975E-1,2.498106956E0,7.120441914E0
1.035561313E1,-1.127617717E0,2.120040894E0,8.581260681E0
1.037572407E1,-1.190429211E0,1.815554142E0,1.001456070E1
1.039583506E1,-1.182054400E0,1.804188251E0,1.035613632E1
1.041594600E1,-1.156331539E0,2.062014818E0,9.677771568E0
1.043605699E1,-9.320043921E-1,2.292922258E0,8.722436905E0
1.045616798E1,-5.952146053E-1,2.376072884E0,8.261817932E0
1.047627892E1,-1.549352705E-1,2.165504456E0,8.296514511E0
1.049638991E1,-2.452643216E-1,2.072782516E0,8.577073097E0
1.051650084E1,-4.935196638E-1,2.112264156E0,8.778668404E0
1.053661183E1,-8.602197170E-1,2.446063042E0,8.702097893E0
1.055672277E1,-1.184447169E0,2.974278450E0,8.212765694E0
1.057683376E1,-1.431506157E0,3.329612732E0,8.094919205E0
1.059694475E1,-1.564906001E0,3.507279873E0,8.368897438E0
1.061705569E1,-1.384846091E0,3.442673683E0,8.793622971E0
1.063716668E1,-1.051047325E0,3.278765202E0,8.973683357E0
1.065727761E1,-4.743770957E-1,2.947359324E0,9.830313683E0
1.067738860E1,-6.532405615E-1,2.773879766E0,1.138325596E1
1.069749954E1,-9.014959335E-1,2.895913601E0,1.221416283E1
1.071761053E1,-2.811566591E-1,2.824727058E0,1.076650524E1
1.073772147E1,1.022931710E-1,2.901297569E0,9.101698875E0
1.075783246E1,1.501496136E-1,2.533401012E0,1.000618649E1
1.077794345E1,1.896311939E-1,1.840678811E0,1.230628681E1
1.079805438E1,6.508477330E-1,1.313061476E0,1.275135231E1
1.081816537E1,3.439682424E-1,1.738983870E0,1.094536877E1
1.083827631E1,-8.279166222E-1,2.667398930E0,9.144171715E0
1.085838730E1,-1.101296663E0,3.110669374E0,7.945367813E0
1.087849824E1,-7.465606928E-1,2.887538671E0,7.105486870E0
1.089860923E1,-3.038884699E-1,2.589632273E0,7.319644451E0
1.091872017E1,6.352944374E-1,2.146960020E0,8.232506752E0
1.093883116E1,5.413761139E-1,1.962712765E0,9.693324089E0
1.095894209E1,1.878365725E-1,2.209173441E0,9.273982048E0
1.097905308E1,3.535395563E-1,2.324028969E0,8.217551231E0
1.099916407E1,3.230310678E-1,2.443071842E0,7.825128078E0
1.101927501E1,-2.679961324E-1,2.721237659E0,7.895118237E0
1.103938600E1,-3.290131092E-1,2.885145903E0,8.354539871E0
1.105949694E1,1.256231815E-1,2.723630428E0,8.395816803E0
1.107960793E1,2.428714931E-1,2.724228621E0,8.242077827E0
1.109971886E1,-5.294120312E-1,3.130410194E0,7.920242786E0
1.111982985E1,-8.075776696E-1,3.264408350E0,7.993822098E0
1.113994079E1,-3.631108403E-1,3.016152859E0,8.617152214E0
1.116005178E1,-2.344966233E-1,2.946761131E0,9.201599121E0
1.118016272E1,-5.084748268E-1,3.153141975E0,9.047860146E0
1.120027371E1,-3.966103494E-1,3.315854073E0,8.447261810E0
1.122038465E1,-6.801598072E-1,3.531208038E0,9.068199158E0
1.124049563E1,-7.238288522E-1,3.568296671E0,9.512666702E0
1.126060657E1,-5.593222976E-1,3.798605919E0,8.428119659E0
1.128071756E1,1.094716340E-1,3.590430260E0,7.953144073E0
1.130082850E1,7.896314859E-1,3.029911757E0,9.073583603E0
1.132093949E1,7.806583643E-1,2.696711063E0,9.808179855E0
1.134105043E1,3.014956415E-1,2.827120066E0,9.854840279E0
1.136116142E1,-1.956132501E-1,3.099303484E0,9.853643417E0
1.138127240E1,-7.519445419E-1,3.343969584E0,1.033160973E1
1.140138334E1,-9.870393276E-1,3.397808075E0,1.023170948E1
1.142149428E1,-7.938188910E-1,3.315255880E0,9.671789169E0
1.144160527E1,-1.473978758E0,3.854837179E0,8.925827026E0
1.147425434E1,-4.109672904E-1,4.473979950E0,8.566305161E0
1.149436522E1,-8.428717852E-1,4.607978344E0,9.256035805E0
1.151447611E1,-5.359922647E-1,4.312464714E0,8.752346992E0
1.153458694E1,1.435693651E-1,4.304687977E0,8.757730484E0
1.155469783E1,-8.973085135E-2,4.313661098E0,8.665607452E0
1.157480871E1,-7.812566161E-1,4.554139614E0,8.364111900E0
1.159491960E1,-1.472782373E0,4.840082169E0,8.048856735E0
1.161503048E1,-1.936391711E0,4.913661480E0,8.227720261E0
1.163514132E1,-2.167897224E0,4.884349346E0,8.209176064E0
1.165525220E1,-1.869392633E0,4.856233597E0,8.039285660E0
1.167536309E1,-1.183848977E0,4.612763882E0,8.480163574E0
1.169547397E1,-7.334001660E-1,4.463810444E0,9.076574326E0
1.171558481E1,-7.058826685E-1,4.572085857E0,9.345169067E0
1.173569569E1,-5.700899959E-1,4.667200565E0,9.429515839E0
1.175580658E1,-1.065404296E0,5.018945694E0,9.480961800E0
1.177591746E1,-1.573280931E0,5.386841774E0,9.883553505E0
1.179602835E1,-1.352542996E0,5.441876888E0,1.029272652E1
1.181613918E1,-4.977070987E-1,4.993820667E0,1.038843918E1
1.183625007E1,-6.831508875E-1,5.103890896E0,1.053978539E1
1.185636095E1,-1.791027784E0,5.453841209E0,1.090828037E1
1.187647179E1,-1.597209096E0,5.382056236E0,1.219322586E1
1.189658267E1,-9.200403094E-1,4.712066174E0,1.303131199E1
1.191669356E1,-9.840483069E-1,4.747958183E0,1.287757301E1
1.193680444E1,-1.735992789E0,4.913661480E0,1.211486149E1
1.195691528E1,-1.913659930E0,4.750350952E0,1.157169056E1
1.197702616E1,-1.591227055E0,3.994219303E0,1.135035419E1
1.199713705E1,-7.525427341E-1,3.063411236E0,1.123011494E1
1.201724788E1,-1.189831018E0,2.840280533E0,1.053021431E1
1.203735876E1,-2.201396942E0,3.022733212E0,9.428318977E0
1.205746965E1,-2.279761791E0,3.046063185E0,8.059026718E0
1.207758054E1,-2.269592285E0,2.926422119E0,7.634300709E0
1.209769137E1,-2.418545485E0,2.793022156E0,7.944769382E0
1.211780225E1,-2.449652195E0,2.660818815E0,7.813762188E0
1.213791314E1,-2.298904419E0,2.581855536E0,7.864609718E0
1.215802397E1,-1.716850281E0,2.452044964E0,8.238488197E0
1.217813486E1,-8.620143533E-1,2.103291035E0,9.317052841E0
1.219824574E1,-4.217349887E-1,2.126022816E0,9.809974670E0
1.221835658E1,-1.070788130E-1,2.193022013E0,9.268598557E0
1.223846746E1,-4.247260094E-2,2.152942181E0,8.262416840E0
1.225857835E1,-2.967100143E-1,2.273779631E0,7.783852100E0
1.227868918E1,-4.115654826E-1,2.245065928E0,7.721638680E0
1.229880007E1,-6.077769399E-1,2.377867460E0,7.861020565E0
1.231891095E1,-8.991031051E-1,2.701496840E0,7.992625713E0
1.233902178E1,-1.281954765E0,2.871387243E0,8.931210518E0
1.235913267E1,-1.846062660E0,2.970091105E0,9.784252167E0
1.237924356E1,-1.514058471E0,3.259024382E0,9.409176826E0
1.239935439E1,-8.673982024E-1,3.787838221E0,8.927620888E0
1.241946528E1,-4.474578202E-1,4.199403763E0,9.327820778E0
1.243957616E1,-3.708875179E-1,4.022933006E0,1.130548859E1
1.245968699E1,-3.523431420E-1,3.256631613E0,1.355234909E1
1.247979788E1,-3.343969584E-1,2.857628345E0,1.320239925E1
1.249990871E1,-2.033899166E-2,2.943770170E0,1.013958549E1
1.252001960E1,-4.701896608E-1,3.494717360E0,7.709076405E0
1.254013048E1,-1.412363529E0,3.800998688E0,7.660621643E0
1.256024132E1,-1.625923038E0,3.445066452E0,9.435498238E0
1.258035220E1,-8.039883971E-1,2.898306370E0,1.037647533E1
1.260046304E1,6.167500615E-1,2.624926329E0,9.967901230E0
1.262057392E1,1.724028707E0,2.744567633E0,8.687142372E0
1.264068481E1,1.910070658E0,2.819941521E0,8.222336769E0
1.266079564E1,1.165902853E0,3.338585854E0,8.883952141E0
1.268090653E1,6.789634228E-1,3.979862213E0,8.918049812E0
1.270101736E1,8.141579032E-1,3.830909014E0,8.562715530E0
1.272112824E1,6.418746710E-1,3.448655605E0,8.699705124E0
1.274123913E1,-7.507480979E-1,3.466601849E0,9.964311600E0
1.276134996E1,-1.356730461E0,3.274577856E0,9.298508644E0
1.278146085E1,-1.440479279E0,3.064607620E0,8.287541389E0
1.280157168E1,-5.144568682E-1,2.839682341E0,8.736793518E0
1.282168257E1,9.469595551E-1,2.448455811E0,9.049654961E0
1.284179340E1,1.430907965E0,2.380858421E0,8.743373871E0
1.286190429E1,1.016351461E0,2.439482689E0,8.382058144E0
1.288201517E1,5.270192027E-1,2.413759947E0,8.385048866E0
1.290212600E1,5.144568533E-2,2.453839540E0,8.662615776E0
1.292223689E1,-5.401797295E-1,2.955734253E0,8.918049812E0
1.294234772E1,-1.000798106E0,3.330210924E0,8.875576973E0
1.296245861E1,-1.131206870E0,3.369692564E0,8.802596092E0
1.298256944E1,-1.159920812E0,3.080759048E0,9.695717812E0
1.300268033E1,-1.135992527E0,2.914458036E0,1.008814049E1
1.302279116E1,-1.321436286E0,3.017947674E0,1.028375340E1
1.304290205E1,-1.374676585E0,3.123231649E0,1.115533924E1
1.306301288E1,-1.252642632E0,3.058625460E0,1.088973618E1
1.308312376E1,-8.626125455E-1,2.898904562E0,1.026939678E1
1.310323460E1,-2.632105052E-1,2.452643156E0,1.109432220E1
1.312334548E1,-5.688936114E-1,2.002194405E0,1.267657661E1
1.314345632E1,-7.686942816E-1,1.967498422E0,1.214836025E1
1.316356720E1,-7.004988194E-1,2.225923300E0,1.040100193E1
1.318367804E1,-6.915257573E-1,2.255235434E0,9.820742607E0
1.320378892E1,-4.821537733E-1,1.879562140E0,9.620942116E0
1.322389975E1,-4.863412082E-1,1.450648785E0,1.041476059E1
1.324401064E1,-9.804590940E-1,9.062815905E-1,1.240140152E1
1.326412147E1,-1.670190215E0,8.368897438E-1,1.279920864E1
1.328423236E1,-1.871785522E0,1.138983607E0,1.060439205E1
1.330434319E1,-1.535593987E0,1.658226132E0,7.833503246E0
1.332445408E1,-1.110269666E0,1.782652855E0,6.795018196E0
1.334456491E1,-5.060819983E-1,1.454836130E0,6.891329288E0
1.336467580E1,-1.968096644E-1,1.377069473E0,7.938189030E0
1.338478663E1,-1.152144074E0,1.591227055E0,8.782257080E0
1.340489751E1,-2.453241348E0,1.958525300E0,9.570094109E0
1.342500835E1,-2.267797709E0,1.974078655E0,8.754141808E0
1.344511923E1,-1.227517962E0,1.708475351E0,8.188837051E0
1.346523007E1,-8.512466550E-1,1.673181176E0,8.094321251E0
1.348534090E1,-2.297109663E-1,1.987239242E0,7.446464062E0
1.350545179E1,9.032905847E-2,2.126621008E0,7.712067604E0
1.352556262E1,-1.549352705E-1,2.154138565E0,9.262018204E0
1.354567350E1,-4.061816335E-1,2.376072884E0,9.940383911E0
1.356578434E1,-7.627122402E-1,3.007778168E0,1.001515961E1
1.358589522E1,-7.166503668E-1,3.353540897E0,1.104048347E1
1.360600606E1,-3.493520916E-1,2.947957516E0,1.191625690E1
1.362611689E1,9.810572863E-2,2.574079037E0,1.251087284E1
1.364622778E1,1.890329868E-1,2.207378864E0,1.268674564E1
1.366633861E1,2.261217386E-1,2.070389748E0,1.287996578E1
1.368644949E1,2.015953064E-1,1.999801517E0,1.159681511E1
1.370656033E1,1.010967568E-1,2.652443886E0,9.127422333E0
1.372667116E1,-1.178465188E-1,3.485146284E0,7.581060410E0
1.374678205E1,-4.319044948E-1,3.222533941E0,8.528617859E0
1.376689288E1,-6.388836503E-1,2.879761934E0,9.647262573E0
1.378700376E1,-5.623133183E-1,2.654238462E0,9.224929810E0
1.380711460E1,-7.405785918E-1,2.787638426E0,8.237890244E0
1.382722543E1,-7.423732281E-1,2.713460922E0,7.833503246E0
1.384733632E1,-5.282155871E-1,2.115255117E0,8.873783112E0
1.386744715E1,-6.131607890E-1,1.577468276E0,1.036570740E1
1.388755804E1,-1.064207911E0,1.471585870E0,1.106022453E1
1.390766887E1,-1.303490162E0,1.576870084E0,1.082393360E1
1.392777970E1,-9.726824164E-1,1.700698733E0,1.056610680E1
1.394789059E1,-2.333002090E-1,1.600798368E0,9.857233047E0
1.396800142E1,4.450650215E-1,1.539183140E0,8.880363464E0
1.398811225E1,8.009973764E-1,1.558923960E0,8.181060791E0
1.400822314E1,4.911268353E-1,1.692921996E0,8.158329010E0
1.402833397E1,-3.116651475E-1,1.907677889E0,8.449654579E0
1.404844486E1,-1.138385415E0,2.358724833E0,8.127222061E0
1.406855569E1,-1.157527924E0,2.220539331E0,8.481958389E0
1.408866652E1,-4.941178858E-1,1.264606714E0,1.024307537E1
1.410877741E1,6.161518395E-2,1.585244983E-1,1.194497108E1
1.412888824E1,-5.635097623E-1,3.487538993E-1,1.139222908E1
1.414899908E1,-2.015354872E0,2.076970100E0,9.241679192E0
1.416910996E1,-2.082952023E0,2.808575630E0,8.810971260E0
1.418922080E1,-1.118644595E0,1.766501307E0,1.230449200E1
1.420933163E1,-9.571290761E-2,6.729813814E-1,1.537328720E1
1.422944251E1,-9.631111473E-2,8.117650747E-1,1.413859081E1
1.424955335E1,-9.236295223E-1,2.063211441E0,1.014078236E1
1.426966418E1,-1.785643935E0,3.031706333E0,7.257431030E0
1.428977507E1,-2.123031855E0,3.444468260E0,6.192026615E0
1.430988590E1,-2.013560295E0,2.915056229E0,7.379465103E0
1.432999673E1,-1.381855130E0,2.264208317E0,8.842078209E0
1.435010757E1,-3.469592929E-1,1.737189293E0,9.358927727E0
1.437021845E1,2.691925503E-2,1.741974831E0,9.104690552E0
1.439032928E1,-5.802595019E-1,2.234298229E0,8.872586250E0
1.441044012E1,-1.131805062E0,2.412563324E0,8.758927345E0
1.443055100E1,-9.098708034E-1,2.439482689E0,8.299505234E0
1.445066184E1,-5.395814776E-1,2.541177750E0,8.386843681E0
1.447077267E1,-6.077769399E-1,2.969492912E0,9.297910690E0
1.449088356E1,-1.345364571E0,3.385843992E0,1.001037312E1
1.451099439E1,-2.452643156E0,3.859622955E0,1.023589706E1
1.453110522E1,-2.255833626E0,3.620938778E0,1.043569756E1
1.455121606E1,-1.337587833E0,2.771486759E0,1.158365440E1
1.457132694E1,-7.609176040E-1,2.266003132E0,1.192463207E1
1.459143778E1,-1.339980662E-1,2.262413740E0,1.081017494E1
1.461154861E1,4.552344978E-1,2.609373093E0,8.953344345E0
1.463165944E1,4.809573591E-1,3.123830080E0,8.678768158E0
1.465177033E1,7.112665176E-1,3.285943747E0,8.938388824E0
1.467188116E1,1.240678549E0,3.132802963E0,9.133403778E0
1.469199199E1,1.498505235E0,2.952743053E0,9.410971642E0
1.471210288E1,8.961120844E-1,2.481357098E0,1.110628605E1
1.473221371E1,2.817548811E-1,1.886740685E0,1.329571915E1
1.475232455E1,4.713860750E-1,1.633699656E0,1.340219975E1
1.477243538E1,9.744769931E-1,2.015953064E0,1.081555843E1
1.479254621E1,1.019940615E0,2.449652195E0,8.679964066E0
1.481265710E1,8.446664214E-1,2.517847538E0,7.667799950E0
1.483276793E1,4.468596280E-1,2.455035925E0,7.515855789E0
1.485287876E1,6.580262445E-3,2.460419893E0,7.629515171E0
1.487298960E1,-6.616154313E-1,2.645863533E0,7.295716286E0
1.489310048E1,-9.236295223E-1,2.694916487E0,7.082156658E0
1.491321132E1,-6.197410822E-1,2.400001049E0,7.718647480E0
1.493332215E1,-5.204389244E-2,1.930409670E0,8.832506180E0
1.495343298E1,4.492524564E-1,1.701296926E0,9.754341125E0
1.497354387E1,7.585247755E-1,1.656431437E0,9.580862045E0
1.499365470E1,4.055834413E-1,2.096710920E0,8.415556908E0
1.501376554E1,-8.973085321E-3,2.726621389E0,7.405188084E0
1.503387637E1,2.931207791E-2,3.126821041E0,7.151548862E0
1.505398720E1,-1.375873014E-2,2.986840963E0,9.247062683E0
1.507409809E1,-6.065805554E-1,2.742773056E0,1.166201973E1
1.509420892E1,-1.448255897E0,2.810968399E0,1.293141174E1
1.511431975E1,-1.814955950E0,3.027518749E0,1.267657661E1
1.513443059E1,-1.716252089E0,3.271586657E0,1.198624706E1
1.515454142E1,-8.123632669E-1,3.131008387E0,1.135035419E1
1.517465225E1,4.307080805E-2,2.918645382E0,1.016650486E1
1.519476314E1,-3.170489967E-1,3.044268608E0,9.308079720E0
1.521487397E1,-1.315454245E0,3.141177893E0,8.997611046E0
1.523498481E1,-1.824527264E0,2.826521635E0,1.001874828E1
1.525509564E1,-1.510469317E0,1.837687731E0,1.294935799E1
1.527520647E1,-7.746763229E-1,8.422735929E-1,1.465783310E1
1.529531736E1,-6.167500615E-1,9.511470199E-1,1.254616737E1
1.531542819E1,-7.657032609E-1,1.894517303E0,9.138788223E0
1.533553903E1,-1.130010486E0,2.955734253E0,6.272784710E0
1.535564986E1,-1.351346612E0,3.510270834E0,5.199005604E0
1.537576069E1,-1.055234790E0,3.040081263E0,6.678966045E0
1.539587152E1,-4.827519655E-1,2.301895380E0,8.576474190E0
1.541598236E1,-5.784648657E-1,2.030309916E0,9.397212982E0
1.543609324E1,-1.082154036E0,2.465803623E0,9.126823425E0
1.545620408E1,-1.246062398E0,2.764906645E0,8.687741280E0
1.547631491E1,-1.336391449E0,2.845066071E0,8.529814720E0
1.549642574E1,-9.786644578E-1,2.860021353E0,8.684151649E0
1.551653658E1,-4.606183469E-1,2.831905603E0,8.901898384E0
1.553664741E1,-3.284149170E-1,2.786442041E0,9.518648148E0
1.555675830E1,-5.371887088E-1,2.787040234E0,9.912267685E0
1.557686913E1,-1.162313581E0,3.230310678E0,9.851250648E0
1.559697996E1,-1.977667928E0,3.751945972E0,8.946763992E0
1.561709080E1,-2.380260229E0,3.906881094E0,9.534201622E0
1.563720163E1,-1.354337573E0,2.929413080E0,1.204367447E1
1.565731246E1,-1.567298770E-1,2.147558212E0,1.390888023E1
1.567742330E1,-3.523431420E-1,2.614757061E0,1.220279694E1
1.569753413E1,-6.436693072E-1,3.784847260E0,9.223732948E0
1.571764501E1,-5.718846321E-1,4.275974274E0,7.060023308E0
1.573775585E1,-2.368894368E-1,4.490131855E0,6.583851337E0
1.575786668E1,-6.083751321E-1,4.158725739E0,7.655237675E0
1.577797751E1,-7.920243144E-1,3.509672642E0,9.796216011E0
1.579808835E1,-4.007977843E-1,2.701496840E0,1.164646626E1
1.581819918E1,-2.243271172E-1,2.475973129E0,1.072821999E1
1.583831001E1,-1.722832322E-1,2.627917528E0,9.002396584E0
1.585842085E1,4.019941986E-1,2.636292458E0,8.813364029E0
1.587853168E1,7.645068169E-1,2.795415163E0,8.501100540E0
1.589864251E1,1.067198873E0,2.972483873E0,7.878368378E0
1.591875340E1,8.249256015E-1,3.180061340E0,7.083951473E0
1.593886423E1,-3.888336942E-2,3.506681681E0,7.392625332E0
1.595897507E1,-8.285148144E-1,3.318845034E0,8.493324280E0
1.597908590E1,-1.315454245E0,3.242872953E0,9.042476654E0
1.599919673E1,-1.249651670E0,3.187239647E0,8.767302513E0
1.601930757E1,-8.979067206E-1,3.312862873E0,7.873582840E0
1.603941840E1,-2.715853751E-1,3.390629768E0,7.610372543E0
1.605952923E1,6.729813814E-1,3.379263878E0,7.622336388E0
1.607964007E1,1.537986755E0,3.351746321E0,7.641479015E0
1.609975090E1,1.152144074E0,3.797409534E0,7.923832417E0
1.611986173E1,-3.230310604E-2,4.390231133E0,8.725427628E0
1.613997257E1,-3.403790295E-1,4.677968502E0,9.527023315E0
1.616008345E1,-1.698904037E-1,4.342374802E0,1.006301594E1
1.618019428E1,-4.695914388E-1,4.066602230E0,1.062353420E1
1.620030512E1,-6.317051649E-1,3.699902058E0,1.080419254E1
1.622041595E1,-7.477570772E-1,3.479762316E0,9.947562218E0
1.624052678E1,-1.220339537E0,3.777668715E0,8.257032394E0
1.626063762E1,-1.178465128E0,3.736392498E0,7.889734268E0
1.628074845E1,-6.939185858E-1,3.309871912E0,9.104091644E0
1.630085928E1,-7.399803996E-1,3.022733212E0,1.024905777E1
1.632097012E1,-5.252245665E-1,2.762513638E0,1.086700439E1
1.634108095E1,-3.499503136E-1,2.532802820E0,1.106979561E1
1.636119179E1,-3.714857101E-1,2.247458696E0,1.128156090E1
1.638130262E1,-5.700899959E-1,1.855633974E0,1.178046417E1
1.640141345E1,-1.095912814E0,1.752742529E0,1.299781227E1
1.642152428E1,-1.654038668E0,1.765304923E0,1.322393417E1
1.644163512E1,-2.160718918E0,2.088335991E0,1.198146152E1
1.646174595E1,-1.948953986E0,2.292324066E0,1.037707329E1
1.648185678E1,-1.286142230E0,2.184647083E0,9.582057953E0
1.650196762E1,-6.538388133E-1,2.136192322E0,9.006584167E0
1.652207845E1,-9.212366939E-1,2.661417007E0,7.640282631E0
1.654218928E1,-1.211366415E0,3.014358282E0,6.440880299E0
1.656230012E1,-5.054838061E-1,2.629712105E0,6.315855503E0
1.658241095E1,3.415754437E-1,1.856830359E0,8.725427628E0
1.660252178E1,5.676971674E-1,1.226919770E0,1.067139053E1
1.662263262E1,-4.941178858E-1,1.457229018E0,1.016530895E1
1.664274345E1,-1.649851203E0,2.149353027E0,7.885547161E0
1.666285428E1,-2.197807550E0,2.529213428E0,6.361319065E0
1.668296517E1,-2.278565407E0,2.583052158E0,7.331010342E0
1.670307600E1,-2.553740025E0,2.608774900E0,9.495916367E0
1.672318684E1,-2.057229280E0,2.539382935E0,1.026760197E1
1.674329767E1,-4.043870270E-1,2.156531334E0,8.592027664E0
1.676340850E1,-8.374879509E-2,2.194816589E0,7.597810268E0
1.678351934E1,-1.139581800E0,2.429911375E0,8.622536659E0
1.680363017E1,-2.329412937E0,2.888136864E0,9.701699257E0
1.682374100E1,-2.114656925E0,2.901895761E0,9.531210899E0
1.684385179E1,-7.962117195E-1,2.645265341E0,8.446663857E0
1.686396267E1,3.804588020E-1,2.346162558E0,8.793622971E0
1.688407350E1,8.021938205E-1,2.212762833E0,1.159442234E1
1.690418428E1,9.224331379E-1,2.333002090E0,1.293141174E1
1.692429512E1,8.039883971E-1,2.551945448E0,1.184746265E1
1.694440595E1,2.943171859E-1,2.913261652E0,1.039023399E1
1.696451678E1,1.998006850E-1,2.884547710E0,1.017787075E1
1.698462767E1,6.125625968E-1,2.259422779E0,1.194556904E1
1.700473845E1,2.572284341E-1,1.735992789E0,1.379940796E1
1.702484929E1,-8.614161611E-1,1.963310957E0,1.359362507E1
1.704496012E1,-1.197607756E0,2.143370867E0,1.138504982E1
1.706507095E1,-1.040877819E0,2.219342947E0,1.030588722E1
1.708518179E1,-1.521835208E0,2.546561480E0,1.017846966E1
1.710529262E1,-1.225125194E0,2.553141832E0,9.701699257E0
1.712540345E1,-6.245267391E-1,2.278565407E0,9.067003250E0
1.714551428E1,-3.242274821E-1,2.105085611E0,9.188439369E0
1.716562512E1,-1.896311939E-1,1.984248161E0,8.599205971E0
1.718573595E1,-2.195414752E-1,1.928615093E0,7.838887215E0
1.720584679E1,-1.603191197E-1,1.838884234E0,7.130013466E0
1.722595762E1,3.828516304E-1,1.414756417E0,7.194619656E0
1.724606845E1,1.310070395E0,1.003789067E0,7.801798344E0
1.726617928E1,1.819741607E0,8.075776696E-1,8.664410591E0
1.728629012E1,1.559522152E0,9.816554785E-1,8.981459618E0
1.730640095E1,8.069794178E-1,1.537388563E0,8.644669533E0
1.732651178E1,5.605186820E-1,1.765903115E0,9.275776863E0
1.734662262E1,3.415754437E-1,1.981257200E0,1.058285618E1
1.736673345E1,2.183450609E-1,2.073979139E0,1.111107159E1
1.738684429E1,6.047859192E-1,2.338984251E0,1.002293587E1
1.740695512E1,6.777670383E-1,2.548356056E0,9.567103386E0
1.742706595E1,-9.391828775E-1,2.981456995E0,9.609575272E0
1.744717678E1,-1.370489120E0,3.484548092E0,8.680562019E0
1.746728757E1,-1.639083505E0,3.611965895E0,7.963313580E0
1.748739840E1,-1.156929731E0,2.637488842E0,1.025025368E1
1.750750923E1,-1.627119333E-1,1.390229940E0,1.342194080E1
1.752762007E1,7.884350419E-1,2.087737769E-1,1.499163246E1
1.754773090E1,3.595215976E-1,1.381855011E-1,1.279202938E1
1.756784173E1,-9.828519225E-1,1.064806104E0,8.501100540E0
1.758795257E1,-2.586641312E0,2.431107759E0,5.977869034E0
1.760806340E1,-3.012563705E0,3.142972469E0,6.400800705E0
1.762817423E1,-1.657029629E0,2.705085993E0,8.626724243E0
1.764828507E1,-5.150550604E-1,1.943570137E0,1.069172955E1
1.766839590E1,-8.189435601E-1,1.948953986E0,1.052841949E1
1.768850673E1,-1.885544300E0,2.747558594E0,8.230711937E0
1.770861757E1,-1.840080619E0,3.156133175E0,6.942176819E0
1.772872835E1,-7.561319470E-1,3.029911757E0,7.876574039E0
1.774883918E1,7.178467698E-3,3.043670416E0,8.385048866E0
1.776895001E1,4.354937077E-1,3.321237803E0,7.194619656E0
1.778906085E1,3.948157430E-1,3.481556892E0,7.578069210E0
1.780917168E1,-1.830509305E-1,3.244069338E0,1.073061275E1
1.782928251E1,-5.449653864E-1,2.784647465E0,1.277288723E1
1.784939335E1,-4.115654826E-1,2.844467878E0,1.232662582E1
1.786950418E1,-1.190429255E-1,3.276372433E0,1.028853893E1
1.788961501E1,3.284149170E-1,3.545564890E0,9.199206352E0
1.790972585E1,3.457628787E-1,3.581457376E0,9.772886276E0
1.792983668E1,-1.238285750E-1,3.421138287E0,1.095673466E1
1.794994746E1,1.668993831E-1,3.304488182E0,1.154656601E1
1.797005830E1,2.333002165E-2,3.432504177E0,1.033400249E1
1.799016913E1,-1.950150490E0,4.152145386E0,9.254241943E0
1.801027996E1,-3.929612875E0,4.797011375E0,9.442078590E0
1.803039080E1,-4.013361931E0,4.159324169E0,1.031186962E1
1.805050163E1,-1.804786444E0,2.929413080E0,1.065284634E1
1.807061246E1,7.537391186E-1,2.171486616E0,1.001396275E1
1.809072330E1,1.202991605E0,2.370688915E0,8.923434258E0
1.811083413E1,7.154539824E-1,2.700898647E0,8.315058708E0
1.813094491E1,6.191428304E-1,2.350948334E0,8.587840080E0
1.815105574E1,8.488538265E-1,1.996810555E0,9.417551994E0
1.817116658E1,1.058225870E0,1.838884234E0,9.720243454E0
1.819127741E1,7.651050687E-1,1.961516380E0,9.485149384E0
1.821138824E1,3.834498227E-1,2.047657967E0,9.281759262E0
1.823149908E1,1.004985496E-1,2.085345030E0,8.902496338E0
1.825160991E1,-6.161518395E-2,2.275574446E0,8.085348129E0
1.827172074E1,-1.854437590E-2,2.564507723E0,7.253841877E0
1.829183152E1,1.645065546E-1,2.863012314E0,7.042077065E0
1.831194236E1,-6.759724021E-2,3.108874798E0,8.125427246E0
1.833205319E1,-3.720839322E-1,3.498904943E0,9.588040352E0
1.835216402E1,3.290131316E-2,3.246462107E0,1.119182968E1
1.837227486E1,2.482553422E-1,3.095714331E0,1.096152020E1
1.839238569E1,-7.298108935E-1,3.527618885E0,1.034955597E1
1.841249652E1,-1.107876897E0,3.320639610E0,1.014676476E1
1.843260736E1,-8.021938205E-1,2.639881611E0,1.044885826E1
1.845271814E1,-9.260223508E-1,2.394617319E0,1.064507008E1
1.847282897E1,-1.217946768E0,2.542374134E0,9.656833649E0
1.849293981E1,-1.189232826E0,2.444268227E0,8.636295319E0
1.851305064E1,-1.329213023E0,2.535195589E0,8.775676727E0
1.853316147E1,-4.313062727E-1,2.151147604E0,1.046620655E1
1.855327231E1,5.395814776E-1,1.239482164E0,1.357747364E1
1.857338314E1,7.328019142E-1,9.337990284E-1,1.454357624E1
1.859349392E1,-1.752742529E-1,1.829312921E0,1.179960632E1
1.861360475E1,-1.467996716E0,3.270390272E0,7.943572998E0
1.863371559E1,-2.117648125E0,4.371686935E0,5.514857769E0
1.865382642E1,-1.402792215E0,4.080958843E0,5.274379253E0
1.867393725E1,-4.779663086E-1,3.229712248E0,6.199803352E0
1.869404809E1,2.386840582E-1,2.743969440E0,7.963313580E0
1.871415887E1,3.637090325E-1,2.334796667E0,1.056251717E1
1.873426970E1,3.343969584E-1,1.948953986E0,1.164407349E1
1.875438054E1,5.204389244E-2,1.747956991E0,1.103988552E1
1.877449137E1,-6.107679605E-1,2.046461582E0,9.680762291E0
1.879460220E1,-1.343569875E0,2.669791937E0,8.136195183E0
1.881471304E1,-2.052443504E0,3.406183004E0,7.001399040E0
1.883482382E1,-1.645065546E0,3.582055569E0,6.853044033E0
1.885493465E1,-7.040880919E-1,3.095116138E0,7.813164234E0
1.887504548E1,-3.361915946E-1,2.961117983E0,8.791828156E0
1.889515632E1,-3.302095234E-1,3.168097258E0,9.310472488E0
1.891526715E1,-4.336991012E-1,3.200400352E0,1.039382362E1
1.893537793E1,-5.000999570E-1,3.069393158E0,1.185882950E1
1.895548876E1,3.702892959E-1,2.713460922E0,1.242174053E1
1.897559960E1,2.173281193E0,2.362314224E0,1.271605778E1
1.899571043E1,2.680559635E0,2.393420935E0,1.060259724E1
1.901582126E1,1.075573802E0,3.855435371E0,8.148159027E0
1.903593210E1,-6.287141442E-1,4.534996986E0,8.166703224E0
1.905604288E1,-1.334596872E0,3.957130432E0,9.215357780E0
1.907615371E1,-1.330409408E0,2.790629387E0,1.115115166E1
1.909626455E1,-5.623133108E-2,1.704886079E0,1.266521072E1
1.911637538E1,6.646065116E-1,1.667797327E0,1.146461105E1
1.913648621E1,5.880361795E-1,2.124826431E0,8.829515457E0
1.915659699E1,3.284149170E-1,2.566302299E0,6.739385128E0
1.917670783E1,-2.871387303E-1,2.564507723E0,7.310073376E0
1.919681866E1,-1.233500123E0,2.487339020E0,9.576674461E0
1.921692949E1,-2.010569334E0,2.717648268E0,1.023230743E1
1.923704033E1,-2.127219439E0,2.890529871E0,9.071788788E0
1.925715116E1,-1.932204247E0,2.950350285E0,8.282755852E0
1.927726194E1,-9.744769931E-1,2.554338217E0,8.168498039E0
1.929737278E1,3.493520916E-1,2.000399828E0,8.303692818E0
1.931748361E1,4.534398913E-1,2.182254314E0,8.152346611E0
1.933759444E1,-3.469592705E-2,2.812164783E0,7.905287743E0
1.935770528E1,3.768695518E-2,3.034099102E0,8.229515076E0
1.937781606E1,4.319044948E-1,2.988635540E0,8.788239479E0
1.939792689E1,5.162515044E-1,3.115455151E0,9.123832703E0
1.941803772E1,3.361915946E-1,3.392424345E0,9.199805260E0
1.943814856E1,1.226321608E-1,3.553341627E0,9.678967476E0
1.945825934E1,2.392822644E-3,3.475574970E0,1.049192905E1
1.947837017E1,1.884347796E-1,2.992822886E0,1.106560802E1
1.949848100E1,-3.565305769E-1,2.938386202E0,1.176072311E1
1.951859184E1,-7.250252366E-1,2.931207657E0,1.140060329E1
1.953870267E1,-1.548754454E0,3.081955671E0,1.104108143E1
1.955881345E1,-2.260619164E0,3.102892876E0,1.164586735E1
1.957892428E1,-2.082952023E0,2.437089920E0,1.320180035E1
1.959903512E1,-1.259222865E0,1.654636860E0,1.411884975E1
1.961914595E1,-4.869394004E-1,1.625923038E0,1.254257774E1
1.963925678E1,-3.487538993E-1,2.150549412E0,9.452845573E0
1.965936757E1,-7.274180651E-1,2.787040234E0,6.920641422E0
1.967947840E1,-1.037288666E0,2.875574589E0,7.018746853E0
1.969958923E1,-1.158126116E0,2.201396942E0,9.055637360E0
1.971970007E1,-1.423131227E0,1.765304923E0,1.038963604E1
1.973981085E1,-1.687538147E0,1.660618901E0,1.009053326E1
1.975992168E1,-1.755135417E0,1.892722726E0,8.755337715E0
1.978003251E1,-1.234098315E0,1.850848317E0,7.594220638E0
1.980014335E1,-7.435696125E-1,1.613360643E0,6.978667259E0
1.982025418E1,-9.589236975E-1,1.630110383E0,6.587440968E0
1.984036496E1,-1.396810174E0,2.018345833E0,5.130211830E0
1.986047580E1,-1.493121386E0,2.416152716E0,4.456632137E0
1.988058663E1,-1.430907965E0,2.574079037E0,5.868995667E0
1.990069746E1,-1.283749342E0,2.471785784E0,8.675178528E0
1.992080824E1,-1.054636598E0,2.405983210E0,1.090349483E1
1.994091908E1,-8.159525394E-1,2.626122952E0,1.187438202E1
1.996102991E1,-4.588237405E-1,2.694318295E0,1.315514088E1
1.998114074E1,-8.129615188E-1,2.739183664E0,1.432164192E1
2.000125152E1,-1.079162955E0,2.755933523E0,1.416132259E1
2.002136236E1,-1.188036442E0,2.848655462E0,1.324367523E1
2.004147319E1,-1.167697430E0,3.443870068E0,1.162971592E1
2.006158403E1,-4.468596280E-1,3.829712629E0,9.568299294E0
2.008169481E1,-3.631108403E-1,4.273581028E0,7.917252064E0
2.010180564E1,-8.745766878E-1,4.094717979E0,8.724231720E0
2.012191647E1,-1.437488198E0,3.440280676E0,1.125164986E1
2.014202731E1,-9.918249846E-1,2.706880569E0,1.371506119E1
2.016213814E1,3.050848842E-1,2.210968018E0,1.295833111E1
2.018224892E1,1.298106313E0,2.496910334E0,9.627521515E0
2.020235975E1,9.774680734E-1,3.080759048E0,6.856035233E0
2.022247059E1,-2.117647976E-1,3.511467218E0,6.098706722E0
2.024258137E1,-9.361918569E-1,3.158525944E0,7.094718933E0
2.026269220E1,-9.894321561E-1,2.586043119E0,8.505288124E0
2.028280304E1,-8.847461939E-1,2.244467735E0,9.411569595E0
2.030291387E1,-8.614161611E-1,2.273181438E0,9.456435204E0
2.032302470E1,-1.028913736E0,2.508874655E0,8.350951195E0
2.034313548E1,-7.447660565E-1,2.430509567E0,8.009973526E0
2.036324632E1,-2.991028363E-3,2.151147604E0,7.742575645E0
2.038335715E1,7.704889178E-1,2.067996979E0,7.164111137E0
2.040346798E1,1.358525038E0,2.250449657E0,6.917052269E0
2.042357876E1,1.007976532E0,2.599203587E0,8.335995674E0
2.044368960E1,1.096511006E0,2.468196630E0,1.033639526E1
2.046380043E1,5.318048596E-1,2.807977438E0,9.926624298E0
2.048391121E1,-1.176072359E0,3.487539053E0,9.680164337E0
2.050402205E1,-1.876571178E0,3.425923824E0,1.063310528E1
2.052413288E1,-6.251249313E-1,2.487937450E0,1.042193890E1
2.054424371E1,7.016952634E-1,1.513460279E0,9.588040352E0
2.056435449E1,1.432702541E0,9.439685345E-1,9.535996437E0
2.058446533E1,9.206385016E-1,1.101894855E0,6.987041950E0
2.060457616E1,-3.128615618E-1,2.109273195E0,4.776073933E0
2.062468699E1,-1.456630826E0,2.640479803E0,6.281159401E0
2.064479778E1,-1.672582984E0,1.776670814E0,1.197009563E1
2.066490861E1,-6.556333899E-1,6.269195080E-1,1.639741516E1
2.068501944E1,6.759724021E-2,8.404789567E-1,1.465783310E1
2.070513028E1,-1.495514214E-1,1.904686809E0,9.777671814E0
2.072524106E1,-1.060020447E0,2.788236618E0,6.990631580E0
2.074535189E1,-2.288136721E0,2.857030153E0,8.938388824E0
2.076546272E1,-2.619542599E0,2.531606436E0,1.007677460E1
2.078557356E1,-2.246262312E0,2.156531334E0,9.341579437E0
2.080568434E1,-1.485942841E0,1.939382792E0,8.634500504E0
2.082579517E1,-1.067198873E0,1.600798368E0,1.031605625E1
2.084590600E1,-8.147560954E-1,1.266401410E0,1.199641609E1
2.086601678E1,-7.304090858E-1,1.138385415E0,1.157946682E1
2.088612762E1,-7.136593461E-1,1.438086390E0,9.535398483E0
2.090623845E1,-8.775677085E-1,1.891526341E0,8.251648903E0
2.092634928E1,-8.542376757E-1,2.238485575E0,8.264809608E0
2.094646007E1,-8.805587292E-1,2.373081923E0,8.582456589E0
2.096657090E1,-8.303094506E-1,2.562114954E0,8.002795219E0
2.098668173E1,-7.788637877E-1,2.660220623E0,8.373682976E0
2.100679257E1,-6.789634228E-1,2.565105915E0,9.832108498E0
2.102690335E1,-9.074779749E-1,2.563909531E0,1.089811039E1
2.104701418E1,-1.198804140E0,3.021536827E0,1.107099247E1
2.106712501E1,-8.853443861E-1,3.299104214E0,1.107278633E1
2.108723585E1,-8.913264424E-2,3.122633457E0,1.141914749E1
2.110734663E1,4.516452849E-1,3.052045345E0,1.159083271E1
2.112745746E1,9.158528447E-1,3.085544825E0,1.049791145E1
2.114756830E1,4.390829504E-1,3.241078377E0,8.294719696E0
2.116767908E1,-1.351944804E-1,3.463012457E0,6.601797581E0
2.118778991E1,-3.134597540E-1,2.736790895E0,1.032502937E1
2.120790074E1,6.640082598E-2,7.902296782E-1,1.714636803E1
2.122801158E1,-2.368894368E-1,3.768695593E-1,1.790130424E1
2.124812236E1,-7.070791125E-1,1.590030670E0,1.248694515E1
2.126823319E1,-7.986045480E-1,2.586043119E0,8.514261246E0
2.128834402E1,-5.976074338E-1,2.996412039E0,6.965506554E0
2.130845481E1,1.734796464E-1,2.645265341E0,6.841678143E0
2.132856564E1,9.272187948E-1,2.068595171E0,7.120441914E0
2.134867647E1,6.831508875E-1,2.073979139E0,7.649255753E0
2.136878731E1,-3.056831062E-1,2.329412937E0,8.492725372E0
2.138889809E1,-1.152144074E0,2.492124796E0,9.061619759E0
2.140900892E1,-1.150947690E0,2.435295343E0,8.804988861E0
2.142911975E1,-7.184450030E-1,2.502294302E0,7.817351341E0
2.144923054E1,-1.782652885E-1,2.635694027E0,7.256833076E0
2.146934137E1,3.601198196E-1,2.784647465E0,6.826723099E0
2.148945220E1,6.466603279E-1,2.765504837E0,7.120441914E0
2.150956304E1,2.297109663E-1,2.852244616E0,7.925028801E0
2.152967382E1,-1.507478207E-1,3.044866800E0,8.275577545E0
2.154978465E1,2.841476798E-1,2.995813847E0,8.108677864E0
2.156989548E1,5.413761139E-1,3.108874798E0,8.555537224E0
2.159000626E1,6.113662124E-1,3.161516905E0,9.013762474E0
2.161011710E1,2.309073806E-1,3.400799274E0,8.589634895E0
2.163022793E1,-1.734796464E-1,3.582055569E0,8.310871124E0
2.165033876E1,-3.385843933E-1,3.291925669E0,9.985847473E0
2.167044955E1,-3.667000830E-1,2.816352367E0,1.156391335E1
2.169056038E1,-6.430711150E-1,2.825923443E0,1.230269718E1
2.171067121E1,-7.938188910E-1,3.160918713E0,1.212203979E1
2.173078199E1,-8.195417523E-1,3.471985579E0,1.131386375E1
2.175089283E1,-9.702895880E-1,3.706482172E0,1.028255749E1
2.177100366E1,-1.349551916E0,3.296113253E0,1.133839035E1
2.179111449E1,-1.631306887E0,2.508874655E0,1.377069473E1
2.181122528E1,-1.278365493E0,1.842473388E0,1.464048576E1
2.183133611E1,-5.862415433E-1,1.591227055E0,1.299003601E1
2.185144694E1,-4.211367965E-1,1.873580098E0,1.041835022E1
2.187155772E1,-5.641079545E-1,2.248655081E0,9.257232666E0
2.189166856E1,-6.311069727E-1,2.371885538E0,9.020941734E0
2.191177939E1,-7.429714203E-1,2.233700037E0,9.276374817E0
2.193189022E1,-9.547362328E-1,2.128415823E0,9.126823425E0
2.195200100E1,-1.024128079E0,2.002194405E0,9.062815666E0
2.197211184E1,-1.296311617E0,2.030908108E0,9.033503532E0
2.199222267E1,-1.165902853E0,1.874178290E0,9.075378418E0
2.201233350E1,-4.947160780E-1,1.694716692E0,8.787042618E0
2.203244428E1,-7.537391037E-2,1.837687731E0,7.981858253E0
2.205255512E1,-1.286142170E-1,2.100300074E0,7.400402069E0
2.207266595E1,-4.205385745E-1,2.419741869E0,6.991229534E0
2.209277673E1,-6.017948985E-1,2.627319336E0,7.141977310E0
2.211288757E1,-7.627122402E-1,2.748156786E0,6.994220734E0
2.213299840E1,-1.114457130E0,3.020938635E0,7.384849072E0
2.215310918E1,-8.213363886E-1,3.040081263E0,8.120043755E0
2.217322001E1,-4.055834413E-1,3.014358282E0,8.018946648E0
2.219333085E1,-8.374879360E-1,3.229712248E0,8.002795219E0
2.221344168E1,-2.327618122E0,3.055634499E0,1.130668545E1
2.223355246E1,-1.546959877E0,3.199203968E0,1.089332485E1
2.225366330E1,3.840480447E-1,2.072184324E0,1.149033451E1
2.227377413E1,5.665007830E-1,2.595614433E0,1.060439205E1
2.229388491E1,3.391826153E-1,3.367299557E0,8.532207489E0
2.231399574E1,5.168496966E-1,3.708875179E0,7.923832417E0
2.233410658E1,5.144568682E-1,3.393022537E0,1.043629551E1
2.235421741E1,5.186443329E-1,2.432902336E0,1.319222927E1
2.237432819E1,-3.708875179E-2,2.240280151E0,1.365344620E1
2.239443902E1,-4.354937077E-1,2.727219582E0,1.106979561E1
2.241454986E1,-4.755735099E-1,3.241676569E0,9.303893089E0
2.243466064E1,-1.932204217E-1,3.327818155E0,8.734998703E0
2.245477147E1,1.621137410E-1,3.133999348E0,8.848059654E0
2.247488231E1,4.947160780E-1,2.745764017E0,9.467801094E0
2.249499314E1,3.481557071E-1,2.667398930E0,9.638887405E0
2.251510392E1,4.845465720E-1,2.760719061E0,9.277571678E0
2.253521475E1,2.027917206E-1,2.915654421E0,9.306883812E0
2.255532559E1,-5.611169338E-1,3.273381472E0,9.057432175E0
2.257543642E1,-4.085744619E-1,3.065205812E0,8.770293236E0
2.259554720E1,-2.787638307E-1,2.910868645E0,8.885746956E0
2.261565804E1,5.982056633E-2,2.747558594E0,8.314460754E0
2.263576887E1,2.602194548E-1,2.778665304E0,7.572087288E0
2.265587965E1,1.298106313E-1,2.974278450E0,7.216155052E0
2.267599048E1,-3.349951804E-1,3.103491068E0,6.437291145E0
2.269610132E1,-1.250249892E-1,3.137588739E0,7.505088329E0
2.271621210E1,3.385843933E-1,2.937189817E0,8.335397720E0
2.273632293E1,2.213360965E-1,3.190230846E0,8.392227173E0
2.275643376E1,-2.081755698E-1,3.602394581E0,8.601598740E0
2.277654460E1,1.196411322E-3,3.613760471E0,8.300702095E0
2.279665538E1,9.828519225E-1,3.256631613E0,7.921439171E0
2.283790640E1,-2.440679073E-1,4.347758770E0,7.269395351E0
2.285801718E1,-4.929214716E-1,4.113262177E0,9.571888924E0
2.287812796E1,-1.186241865E0,4.587639332E0,9.260822296E0
2.289823875E1,-1.558923960E0,4.688735962E0,8.579465866E0
2.291834953E1,-1.427916884E0,4.663012981E0,8.296514511E0
2.293846036E1,-1.285543919E0,4.503890514E0,8.669795036E0
2.295857114E1,-9.672985673E-1,4.263411522E0,9.485149384E0
2.297868192E1,-9.810572863E-1,4.235894203E0,1.018744278E1
2.299879270E1,-1.156929731E0,4.389034748E0,1.008335495E1
2.301890349E1,-1.128215909E0,4.453640938E0,9.441479683E0
2.303901427E1,-8.285148144E-1,4.508078098E0,9.343374252E0
2.305912505E1,-7.399803996E-1,4.290330887E0,1.067557812E1
2.307923583E1,-9.684949517E-1,4.015754700E0,1.273819160E1
2.309934661E1,-1.332802176E0,3.993022680E0,1.372463226E1
2.311945739E1,-2.053041935E0,4.359124660E0,1.306002617E1
2.313956817E1,-2.110469580E0,4.775475979E0,1.233619690E1
2.315967896E1,-2.333600283E0,4.869394302E0,1.096690464E1
2.317978979E1,-2.843271494E0,4.572085857E0,1.024247742E1
2.319990057E1,-3.411566973E0,3.824328899E0,1.055713367E1
2.322001135E1,-3.432504177E0,2.733201742E0,1.285543919E1
2.324012213E1,-2.668595552E0,1.560120344E0,1.398664665E1
2.326023291E1,-1.883749604E0,1.253839016E0,1.270409393E1
2.328034370E1,-1.452443361E0,1.689332843E0,1.054217815E1
2.330045448E1,-1.389631748E0,2.063211441E0,9.661021233E0
2.332056526E1,-1.697707653E0,2.388635159E0,9.444471359E0
2.334067604E1,-2.100300074E0,2.402992249E0,9.519247055E0
2.336078682E1,-2.275574446E0,2.434098721E0,8.968298912E0
2.338089760E1,-2.115255117E0,2.417947292E0,8.468199730E0
2.340100838E1,-1.782054663E0,2.487339020E0,8.057231903E0
2.342111916E1,-1.569093466E0,2.442473650E0,8.314460754E0
2.344122994E1,-1.298106313E0,2.326421738E0,8.523234367E0
2.346134078E1,-9.649057388E-1,2.094317913E0,8.606385231E0
2.348145156E1,-1.126421213E0,2.307877541E0,8.144570351E0
2.350156234E1,-1.431506157E0,2.912065268E0,7.207779884E0
2.352167312E1,-1.362114310E0,3.148356438E0,6.857231617E0
2.354178390E1,-1.071386337E0,3.192025423E0,6.905686378E0
2.356189468E1,-1.001994491E0,3.198007345E0,6.976274490E0
2.358200546E1,-6.532405615E-1,3.346960783E0,7.333403111E0
2.360211625E1,-1.968096644E-1,3.376870871E0,8.257032394E0
2.362222703E1,2.536391914E-1,3.336791277E0,9.673583984E0
2.364233781E1,3.056831062E-1,3.002992392E0,1.083350468E1
2.366244859E1,2.584248483E-1,3.034099102E0,1.074497032E1
2.368255937E1,1.764706671E-1,3.162115097E0,1.074317551E1
2.370267015E1,-2.488535494E-1,3.439084291E0,1.063490009E1
2.372278093E1,-5.335994363E-1,3.846462488E0,1.081077290E1
2.374289172E1,4.061816335E-1,3.598805189E0,1.139581776E1
2.376300250E1,1.895713687E0,3.111865759E0,1.107099247E1
2.378311328E1,2.186441660E0,2.821137905E0,1.069890785E1
2.380322406E1,1.167099237E0,3.147758245E0,9.367900848E0
2.382333484E1,3.158525825E-1,3.285943747E0,7.798807144E0
2.384344562E1,3.643072546E-1,2.739781857E0,8.108677864E0
2.386355640E1,1.317248821E0,1.846660852E0,9.862018585E0
2.388366718E1,1.699502230E0,1.237687469E0,1.112841988E1
2.390377796E1,1.074975610E0,1.364507079E0,9.951150894E0
2.392388875E1,-2.787638307E-1,2.190629244E0,6.993622303E0
2.394399958E1,-1.347159147E0,2.769093990E0,5.229514122E0
2.396411031E1,-1.100100160E0,2.611167669E0,5.727221012E0
2.398422109E1,-2.632105052E-1,2.043470621E0,7.800601959E0
2.400433192E1,-2.961117923E-1,1.968096614E0,9.565906525E0
2.402444265E1,-9.032905847E-2,2.275574446E0,1.013121128E1
2.404455343E1,1.520638824E0,1.954337835E0,9.452247620E0
2.406466427E1,2.849851847E0,1.671386600E0,8.734400749E0
2.408477500E1,2.925823927E0,1.852044702E0,8.446663857E0
2.410488583E1,2.037488461E0,2.551945448E0,8.282156944E0
2.412499661E1,7.040880919E-1,3.080160856E0,7.992625713E0
2.414510739E1,2.309073806E-1,3.076571703E0,7.838887215E0
2.416521817E1,3.385843933E-1,2.956930637E0,7.870592117E0
2.418532896E1,-2.632104978E-2,3.065205812E0,8.891130447E0
2.420543974E1,-3.230310678E-1,3.203391314E0,1.056610680E1
2.422555052E1,-3.278166950E-1,3.075375319E0,1.226142120E1
2.424566130E1,1.064806059E-1,2.817548752E0,1.320120239E1
2.426577208E1,1.015154958E0,2.347358942E0,1.393819237E1
2.428588286E1,2.078166485E0,1.877767563E0,1.415115356E1
2.430599364E1,2.036890268E0,2.291725874E0,1.296550941E1
2.432610442E1,1.116850019E0,3.543770313E0,1.091366386E1
2.434621520E1,8.057830334E-1,4.074976921E0,1.004148006E1
2.436632599E1,9.637092948E-1,3.783052683E0,1.000199890E1
2.438643677E1,9.619147182E-1,2.883949518E0,1.025324535E1
2.440654755E1,2.919243574E-1,2.267199516E0,1.114457130E1
2.442665828E1,-2.673979402E-1,1.680957913E0,1.298824120E1
2.444676911E1,-3.158525825E-1,1.189831018E0,1.382034492E1
2.446687989E1,-1.429711580E-1,1.026520967E0,1.235892868E1
2.448699062E1,2.177468538E-1,1.268794179E0,9.521639824E0
2.450710146E1,2.464607358E-1,1.517647743E0,7.503293514E0
2.452721218E1,-2.644068897E-1,1.643270969E0,7.182057381E0
2.454732296E1,-1.361516118E0,2.106880426E0,8.239685059E0
2.456743375E1,-1.428515077E0,2.244467735E0,9.106484413E0
2.458754453E1,-3.002992272E-1,1.791625977E0,9.310472488E0
2.460765531E1,1.161715388E0,1.157527924E0,1.000558758E1
2.462776609E1,2.081755638E0,8.458628058E-1,1.037408257E1
2.464787687E1,1.913061738E0,1.082154036E0,9.747162819E0
2.466798765E1,1.034895778E0,1.419542074E0,8.986245155E0
2.468809843E1,1.477568001E-1,1.617548108E0,7.882555962E0
2.470820922E1,-1.674975902E-1,1.506281853E0,7.674380302E0
2.472832000E1,-7.836493850E-2,1.063011408E0,9.728618622E0
2.474843078E1,-5.096712112E-1,7.070791125E-1,1.046680450E1
2.476854156E1,-1.170090318E0,1.123430252E0,8.711071014E0
2.478865234E1,-1.688136339E0,1.814955950E0,7.148557663E0
2.480876312E1,-1.491326690E0,2.288136721E0,6.538387775E0
2.482887390E1,-8.303094506E-1,2.231905222E0,7.688737392E0
2.484898468E1,-4.342973232E-1,2.084148407E0,9.020941734E0
2.486909546E1,-1.539781332E0,2.565105915E0,9.884750366E0
2.488920625E1,-3.270988464E0,3.121437073E0,1.083769226E1
2.490931703E1,-1.587637782E0,2.098505497E0,1.511426449E1
2.492942781E1,2.213959217E0,2.542374134E-1,1.881835365E1
2.494953859E1,4.203591347E0,8.853443712E-2,1.603849220E1
2.496964937E1,3.113660574E0,1.433898926E0,1.088136101E1
2.498976015E1,3.194418252E-1,2.761915445E0,8.287541389E0
2.500987093E1,-1.299302697E0,3.193221807E0,7.342974663E0
2.502998172E1,5.461617708E-1,2.239083767E0,7.951349735E0
2.505009250E1,2.645863533E0,1.431506157E0,8.753543854E0
2.507020328E1,4.045066833E0,1.183848977E0,8.318049431E0
2.509031406E1,3.729214191E0,9.230313301E-1,6.940382004E0
2.511042479E1,1.453639746E0,1.273579836E0,6.587440968E0
2.513053562E1,-5.748756528E-1,1.661815286E0,7.311867714E0
2.515064635E1,-1.244866014E0,1.868196249E0,8.908478737E0
2.517075713E1,-4.205385745E-1,1.290927768E0,9.279366493E0
2.519086791E1,1.440479279E0,7.645068169E-1,7.110272408E0
2.521097870E1,2.935395241E0,3.511467278E-1,6.265605927E0
2.523108948E1,1.310070395E0,3.266202807E-1,9.938589096E0
2.525120026E1,-4.456632137E-1,1.349551916E0,1.230389404E1
2.527131104E1,5.682953596E-1,1.618146300E0,1.067139053E1
2.529142182E1,1.179063320E0,1.747956991E0,1.006959629E1
2.531153260E1,-1.161117196E0,2.088934183E0,1.118465137E1
2.533164338E1,-3.167499065E0,2.605185747E0,1.171884918E1
2.535175416E1,-2.736790895E0,2.462214470E0,1.119063377E1
2.537186494E1,-1.495514154E0,2.171486616E0,1.011685371E1
2.539197573E1,-1.172483087E0,2.281556368E0,1.148973656E1
2.541208651E1,-1.400399446E0,2.638087034E0,1.080838013E1
2.543219729E1,-2.283350945E0,2.976073265E0,9.184849739E0
2.545230807E1,-3.386442184E0,2.557329178E0,1.038006496E1
2.547241885E1,-3.183052301E0,1.328614831E0,1.368395424E1
2.549252958E1,-1.013360381E0,-2.991028316E-2,1.630947876E1
2.551264036E1,2.321037948E-1,-1.363908947E-1,1.510947895E1
2.553275114E1,-3.942175210E-1,1.098903775E0,9.907482147E0
2.555286192E1,-1.228116274E0,2.306680918E0,5.865406513E0
2.557297270E1,-1.589432478E0,3.067598581E0,4.295116425E0
2.559308349E1,-1.463809252E0,2.959921598E0,5.143372059E0
2.561319427E1,-7.004988194E-1,2.250449657E0,6.393023968E0
2.563330505E1,1.196411345E-2,1.811366796E0,7.179066181E0
2.565341583E1,-3.469592705E-2,1.570289850E0,8.642875671E0
2.567352661E1,1.806581169E-1,1.402194023E0,9.651450157E0
2.569363739E1,-1.076770201E-2,1.517647743E0,9.279964447E0
2.571374817E1,-4.636093974E-1,1.913659930E0,7.855636597E0
2.573385896E1,-5.539384484E-1,2.069791555E0,6.978068829E0
2.575396974E1,-2.015953064E-1,2.195414782E0,6.869793892E0
2.577408046E1,-4.420739710E-1,2.529213428E0,7.073183537E0
2.579419125E1,-9.541380405E-1,2.784647465E0,7.447062492E0
2.581430203E1,-1.729412556E0,2.493919373E0,8.836095810E0
2.583441281E1,-1.408774376E0,1.646261930E0,1.196291637E1
2.585452359E1,-5.515456200E-1,1.286142230E0,1.351884937E1
2.587463437E1,-3.750749528E-1,2.088934183E0,1.084965611E1
2.589474515E1,-7.004988194E-1,3.148954630E0,7.659425259E0
2.591485593E1,-7.848458290E-1,3.721437454E0,7.515257835E0
2.593496672E1,-1.198804140E0,3.031108141E0,1.009771156E1
2.595507750E1,-1.364507079E0,2.751147747E0,1.241575813E1
2.597518828E1,-1.182054400E0,2.764906645E0,1.111226845E1
2.599529906E1,-8.572286963E-1,2.511267424E0,1.081496048E1
2.601540984E1,3.870390654E-1,1.570289850E0,1.275075340E1
2.603552057E1,2.258824587E0,5.407779217E-1,1.464885998E1
2.605563135E1,2.662613392E0,6.436693072E-1,1.350509071E1
2.607574213E1,1.246660590E0,1.875972986E0,1.014437199E1
2.609585291E1,-9.816554785E-1,3.108276606E0,7.130611420E0
2.611596370E1,-2.292922258E0,3.661018610E0,6.455237389E0
2.613607448E1,-1.916650891E0,3.121437073E0,7.590631485E0
2.615618526E1,-5.581258535E-1,2.214557409E0,8.875576973E0
2.617629604E1,9.463613629E-1,1.965703845E0,8.367102623E0
2.619640682E1,8.572286963E-1,2.338984251E0,6.857829571E0
2.621651760E1,-1.322034448E-1,2.216950178E0,7.103692055E0
2.623662838E1,4.426721931E-1,1.418345571E0,1.040399265E1
2.625673916E1,2.671586514E0,7.118647546E-2,1.391067410E1
2.627684989E1,2.261217356E0,-7.298108935E-2,1.388255882E1
2.629696067E1,-2.153540403E-1,1.116850019E0,9.378069878E0
2.631707146E1,-2.248056889E0,2.610569477E0,5.776872158E0
2.633718224E1,-2.041675806E0,3.172284603E0,5.921039581E0
2.635729302E1,-7.561319470E-1,2.179861546E0,8.935398102E0
2.637740380E1,-1.227517962E0,2.132603168E0,1.120080280E1
2.639751458E1,-2.070389748E0,2.649452925E0,1.233739376E1
2.641762536E1,-1.148554921E0,2.415554523E0,1.313300705E1
2.643773614E1,1.152742267E0,1.554736495E0,1.374856091E1
2.645784692E1,2.215753794E0,6.574280262E-1,1.406022549E1
2.647795765E1,8.590233326E-1,1.046859860E0,1.140957642E1
2.649806849E1,-1.474576950E0,1.234696507E0,8.712865829E0
2.651817922E1,-2.072782516E0,7.375875711E-1,1.042552853E1
2.653829000E1,-1.465603858E-1,-3.086741269E-1,1.279442310E1
2.655840078E1,1.408774376E0,-5.186443329E-1,1.203769207E1
2.657851156E1,9.702895880E-1,2.763710022E-1,8.958129883E0
2.659862234E1,-3.702892959E-1,1.328016520E0,6.423532486E0
2.661873312E1,-1.371087432E0,2.052443504E0,6.016154289E0
2.663884390E1,-1.268794179E0,1.909472466E0,7.275377274E0
2.665895468E1,-6.287141442E-1,1.386042476E0,8.401200294E0
2.667906546E1,-5.425725579E-1,1.348355532E0,8.957531929E0
2.669917620E1,-6.747759581E-1,1.498505235E0,9.686744690E0
2.671928698E1,-7.190431952E-1,1.576870084E0,1.013838959E1
2.673939776E1,1.226321608E-1,1.396810174E0,9.534201622E0
2.675950854E1,8.895317912E-1,1.255035520E0,1.064566803E1
2.677961932E1,1.042074203E0,1.413560033E0,1.155254745E1
2.679973010E1,8.859425783E-1,1.907079697E0,9.588638306E0
2.681984088E1,-1.034895778E-1,2.656033039E0,7.292725086E0
2.683995166E1,-1.723430514E0,3.230908871E0,8.039285660E0
2.686006244E1,-1.450648785E0,2.845066071E0,9.687940598E0
2.688017323E1,-3.200400174E-1,2.054836512E0,1.079222870E1
2.690028401E1,-6.143572330E-1,2.058425665E0,1.137428284E1
2.692039474E1,-1.588834286E0,2.479562521E0,1.114457130E1
2.694050552E1,-2.039283037E0,2.467000246E0,1.001456070E1
2.696061630E1,-5.730810165E-1,1.825723648E0,9.848259926E0
2.698072708E1,1.791625977E0,9.044869542E-1,9.363115311E0
2.700083786E1,2.321636200E0,9.918249846E-1,7.111468792E0
2.702094864E1,2.392822653E-1,2.273181438E0,6.094519138E0
2.704105942E1,-1.333998680E0,2.744567633E0,8.603393555E0
2.706117020E1,4.666004330E-2,1.679163337E0,1.146999550E1
2.708128099E1,2.124826431E0,6.185446382E-1,1.158126163E1
2.710139172E1,1.497308731E0,1.164108157E0,1.102792168E1
2.712150250E1,-7.148557901E-1,2.059023857E0,1.037647533E1
2.714161328E1,-2.044068813E0,2.873181820E0,8.355138779E0
2.716172406E1,-1.843071699E0,2.825325251E0,7.312466145E0
2.718183484E1,-1.411167145E0,2.641077995E0,8.292326927E0
2.720194562E1,-1.493121386E0,2.691925526E0,8.962317467E0
2.722205640E1,-1.672582984E0,2.688336134E0,9.583254814E0
2.724216718E1,-9.080761671E-1,2.395813704E0,1.030469036E1
2.726227797E1,9.954141974E-1,1.543370605E0,1.032443142E1
2.728238875E1,2.079961061E0,9.044869542E-1,9.911669731E0
2.730249948E1,1.191027522E0,1.503290772E0,9.326025963E0
2.732261026E1,9.391828626E-2,2.432304144E0,7.898707390E0
2.734272104E1,1.734796464E-1,2.888136864E0,6.990033150E0
2.736283182E1,2.171486616E-1,3.075973511E0,7.302894592E0
2.738294260E1,-8.871390224E-1,3.141177893E0,8.564510345E0
2.740305338E1,-2.922832966E0,3.362514019E0,1.024905777E1
2.742316416E1,-3.350549936E0,4.194019794E0,1.207837009E1
2.744327494E1,-6.448656917E-1,3.722633839E0,1.134377384E1
2.746338573E1,1.112662554E0,3.194418192E0,9.747760773E0
2.748349646E1,9.828519225E-1,3.715455294E0,9.670592308E0
2.750360724E1,5.324030519E-1,3.829712629E0,1.052243805E1
2.752371802E1,7.118647546E-2,3.619144201E0,1.085623646E1
2.754382880E1,-8.901300430E-1,3.273381472E0,1.057208824E1
2.756393958E1,-1.523629785E0,2.697309256E0,1.128873920E1
2.758405036E1,-1.264008522E0,2.279761791E0,1.210469151E1
2.760416114E1,-1.197607756E0,2.149951220E0,1.109850979E1
2.762427192E1,-3.056831062E-1,1.866401672E0,1.106501007E1
2.764438265E1,1.006181955E0,1.262812138E0,1.200838089E1
2.766449343E1,1.250249863E0,1.050449133E0,1.196949673E1
2.768460422E1,4.701896608E-1,1.488335729E0,1.029153061E1
2.770471500E1,-2.177468538E-1,1.954337835E0,8.512466431E0
2.772482578E1,-6.478567123E-1,2.264806747E0,7.648657799E0
2.774493656E1,-1.400399446E0,2.370090723E0,8.155337334E0
2.776504734E1,-1.885544300E0,2.286342144E0,9.281160355E0
2.778515812E1,-1.331007600E0,1.868794441E0,1.030887794E1
2.780526890E1,-4.977070987E-1,1.454237938E0,9.944570541E0
2.782537968E1,-8.494520187E-2,1.193420291E0,8.361120224E0
2.784549046E1,1.190429255E-1,1.032503009E0,6.644868374E0
2.786560120E1,-7.806583643E-1,1.439880967E0,5.200799942E0
2.788571198E1,-7.555337548E-1,1.643270969E0,6.312864304E0
2.790582276E1,-1.519442350E-1,1.256231904E0,8.266005516E0
2.792593354E1,5.623133108E-2,1.089332461E0,8.414958954E0
2.794604432E1,-7.094719410E-1,1.369890928E0,8.038089752E0
2.796615510E1,-2.017747641E0,1.927418590E0,8.219944000E0
2.798626588E1,-2.925823927E0,2.348555326E0,8.093124390E0
2.800637666E1,-3.515056372E0,2.561516523E0,8.221738815E0
2.802648744E1,-3.368496180E0,2.545963287E0,9.283554077E0
2.804659817E1,-2.574079037E0,2.521436930E0,1.029153061E1
2.806670896E1,-1.795813441E0,2.706282377E0,9.661619186E0
2.808681974E1,-1.700100541E0,3.120838881E0,9.573084831E0
2.810693052E1,-1.609771490E0,3.314657450E0,1.029392338E1
2.812704130E1,-1.155733347E0,3.095116138E0,1.077607632E1
2.814715208E1,-1.311266780E0,2.752942562E0,1.166381359E1
2.816726286E1,-1.750349760E0,2.652443886E0,1.323530006E1
2.818737364E1,-1.712064624E0,2.540579557E0,1.356790257E1
2.820748442E1,-1.805384636E0,2.951546669E0,1.267956734E1
2.822759515E1,-1.907079697E0,3.343969584E0,1.076112175E1
2.824770593E1,-2.140978098E0,3.744767427E0,9.429515839E0
2.826781672E1,-2.228316069E0,3.649054527E0,1.026520920E1
2.828792750E1,-1.378864050E0,2.826521635E0,1.198146152E1
2.830803828E1,-4.899304509E-1,2.072782516E0,1.252283764E1
2.832814906E1,-5.688936114E-1,2.196012974E0,1.071506023E1
2.834825984E1,-1.788036704E0,2.898904562E0,8.054241180E0
2.836837062E1,-2.581257343E0,3.301496983E0,7.362715244E0
2.838848135E1,-2.609971285E0,3.252444267E0,8.592626572E0
2.840859213E1,-1.603789330E0,2.741576433E0,9.196215630E0
2.842870291E1,-7.172485590E-1,2.350350142E0,9.722636223E0
2.844881370E1,-5.222335458E-1,2.403590441E0,9.880562782E0
2.846892448E1,-7.555337548E-1,2.676970243E0,9.560523033E0
2.848903526E1,-7.399803996E-1,2.584846735E0,9.093922615E0
2.850914604E1,-2.697907388E-1,2.072782516E0,9.065208435E0
2.852925682E1,5.862415582E-2,1.797009826E0,8.784649849E0
2.854936760E1,4.366901144E-2,1.549352646E0,8.526225090E0
2.856947838E1,-3.439682424E-1,1.685743570E0,7.795217991E0
2.858958916E1,-7.926225066E-1,1.816750646E0,7.261618614E0
2.860969989E1,-9.002995491E-1,1.856232166E0,7.055237770E0
2.862981067E1,-1.036092162E0,1.932204247E0,7.005586624E0
2.864992146E1,-1.207777262E0,1.935195327E0,7.819744587E0
2.867003224E1,-1.272981644E0,1.823929071E0,8.712865829E0
2.869014302E1,-1.333400369E0,1.581655741E0,1.045543861E1
2.871025380E1,-1.598405480E0,1.603191137E0,1.140180016E1
2.873036458E1,-2.221137524E0,1.791027784E0,1.094895840E1
2.875047536E1,-2.117648125E0,1.770090580E0,9.744770050E0
2.877058614E1,-1.312463164E0,9.924231768E-1,1.035075283E1
2.879069692E1,-6.675975323E-1,2.470589429E-1,9.908679008E0
2.881080771E1,-3.547359705E-1,1.519442350E-1,9.007183075E0
2.883091843E1,-7.746763229E-1,6.047859192E-1,8.728418350E0
2.885102922E1,-9.637092948E-1,1.131206870E0,9.011968613E0
2.887114000E1,-1.256830096E0,1.323829174E0,1.100638580E1
2.889125078E1,-1.521237016E0,1.592423439E0,1.272503090E1
2.891136156E1,-1.442273855E0,1.958525300E0,1.090409279E1
2.893147234E1,-1.532004714E0,2.404786825E0,9.275178909E0
2.895158312E1,-1.590628862E0,2.298306227E0,1.133958626E1
2.897169390E1,-1.099501967E0,2.028515339E0,1.241336536E1
2.899180468E1,-4.414757788E-1,1.843669891E0,1.080778122E1
2.901191546E1,-6.520441920E-2,1.840080619E0,9.371489525E0
2.903202620E1,7.118647546E-2,1.746162295E0,9.422337532E0
2.905213698E1,-3.098705411E-1,1.570888042E0,9.997811317E0
2.907224776E1,-9.463613629E-1,1.667797327E0,9.497711182E0
2.909235854E1,-1.436291814E0,1.976471543E0,8.607581139E0
2.911246932E1,-1.797009826E0,2.312663078E0,8.560322762E0
2.913258010E1,-9.589236975E-1,2.158325911E0,8.618349075E0
2.915269088E1,1.178465188E-1,1.765304923E0,8.575278282E0
2.917280166E1,3.894318938E-1,1.794616938E0,8.693722725E0
2.919291244E1,2.261217386E-1,2.322234392E0,8.716454506E0
2.921302323E1,8.333004713E-1,2.404188633E0,9.631709099E0
2.923313396E1,4.743770957E-1,2.334198475E0,1.189771271E1
2.925324474E1,-1.794617064E-2,2.335993052E0,1.205683517E1
2.927335552E1,6.580262445E-3,2.614757061E0,1.034955597E1
2.929346630E1,-9.391828626E-2,2.989831924E0,1.010668468E1
2.931357708E1,2.715853751E-1,3.067000389E0,9.492925644E0
2.933368786E1,4.121637046E-1,3.043072224E0,8.774480820E0
2.935379864E1,4.594219327E-1,2.859423161E0,9.605388641E0
2.937390942E1,4.025924206E-1,2.053640127E0,1.274477196E1
2.939402020E1,4.851447940E-1,1.231705427E0,1.380479240E1
2.941413099E1,1.250249892E-1,1.272981644E0,1.323171139E1
2.943424177E1,-7.369893789E-1,2.129014015E0,1.145503998E1
2.945435255E1,7.178467698E-3,2.245065928E0,8.964112282E0
2.947446328E1,1.214955688E0,1.734796405E0,7.977670670E0
2.949457406E1,1.676172256E0,1.278365493E0,8.805587769E0
2.951468484E1,1.663011789E0,1.161715388E0,9.358927727E0
2.953479562E1,1.109073281E0,1.488335729E0,9.261420250E0
2.955490640E1,6.245267391E-1,1.712064624E0,9.074181557E0
2.957501718E1,6.071787477E-1,1.747358680E0,8.450253487E0
2.959512796E1,5.036891699E-1,1.829312921E0,7.680960655E0
2.961523875E1,3.696911037E-1,1.920240164E0,7.729415417E0
2.963534953E1,4.253242314E-1,2.014756680E0,6.987041950E0
2.965546031E1,7.136593461E-1,2.076371908E0,7.092326164E0
2.967557109E1,4.432703853E-1,2.401197433E0,7.705487251E0
2.969568187E1,2.781656384E-1,2.319243431E0,7.462615490E0
2.971579265E1,-1.567298770E-1,2.706880569E0,7.247859955E0
2.973590338E1,-3.631108403E-1,3.050848961E0,7.764111042E0
2.975601416E1,4.815555513E-1,2.764906645E0,9.589835167E0
2.977612494E1,2.224128723E0,1.259821177E0,1.184865952E1
2.979623573E1,2.228316069E0,6.963114142E-1,1.258684540E1
2.981634651E1,-3.816552162E-1,1.197607756E0,1.262094307E1
2.983645729E1,-2.793620348E0,2.190629244E0,1.168774223E1
2.985656807E1,-2.104487419E0,2.279163599E0,1.142333508E1
2.987667885E1,-1.619940877E0,2.161915302E0,1.217827129E1
2.989678963E1,-3.763311863E0,2.426920414E0,1.243310642E1
2.991690041E1,-3.646661758E0,2.629113913E0,1.020359421E1
2.993701120E1,-9.852447510E-1,1.800599098E0,7.814360619E0
2.995712198E1,3.906283081E-1,1.161715388E0,9.368498802E0
2.997723276E1,-1.447657645E-1,6.616154313E-1,1.187737370E1
2.999734354E1,-1.509871125E0,6.849454641E-1,1.211486149E1
3.001745432E1,-2.162513494E0,1.293320656E0,9.681958199E0
3.003756505E1,-1.508674622E0,1.489532113E0,8.535796165E0
3.005767583E1,-1.251446247E0,1.513460279E0,9.226723671E0
3.007778661E1,-1.660020709E0,1.899302959E0,9.679565430E0
3.009789739E1,-1.557727575E0,2.181057930E0,8.880961418E0
3.011800817E1,-7.722834945E-1,2.233101845E0,7.731808186E0
3.013811896E1,-1.076770201E-2,2.162513494E0,7.634898663E0
3.015822974E1,-9.870393574E-2,2.145763636E0,8.844470978E0
3.017834052E1,-8.153542876E-1,2.398804665E0,8.828319550E0
3.019845130E1,-1.334596872E0,2.791227579E0,7.959724426E0
3.021856208E1,-5.682953820E-2,2.287538528E0,8.841479301E0
3.023867286E1,4.564309120E-1,1.778465390E0,1.109372425E1
3.025878364E1,5.443671346E-2,1.749153376E0,1.237926769E1
3.027889442E1,-3.314059377E-1,1.921436548E0,1.178704453E1
3.029900520E1,-5.850451589E-1,2.364108801E0,1.026102161E1
3.031911599E1,-7.890332937E-1,2.820539713E0,9.534799576E0
3.033922672E1,-7.531409264E-1,2.943171740E0,9.310472488E0
3.035933750E1,-5.479564071E-1,2.913261652E0,9.891928673E0
3.037944828E1,-3.314059377E-1,2.743969440E0,9.956535339E0
3.039955906E1,-2.123630047E-1,2.871985435E0,8.480761528E0
3.041966984E1,5.623133108E-2,2.865405083E0,7.778468132E0
3.043978062E1,3.044866920E-1,2.273779631E0,1.039442158E1
3.045989140E1,1.058225870E0,1.197009563E0,1.384487152E1
3.048000218E1,1.685145378E0,5.533402562E-1,1.496172142E1
3.050011296E1,1.140179992E0,1.348953724E0,1.159442234E1
3.052022375E1,-3.314059377E-1,2.484348059E0,7.895118237E0
3.054033453E1,-1.290329576E0,3.145365477E0,6.473183632E0
3.056044531E1,-1.185045362E0,3.017947674E0,6.767500877E0
3.058055609E1,-5.509474277E-1,2.687139750E0,7.499105930E0
3.060066687E1,-3.966103494E-1,2.617149830E0,7.731808186E0
3.062077765E1,-4.253242314E-1,2.757728100E0,7.531409264E0
3.064088843E1,1.094716340E-1,2.268994093E0,9.181859016E0
3.066099922E1,9.266205430E-1,1.869990945E0,1.123789120E1
3.068111000E1,8.243274093E-1,1.821536183E0,1.037168980E1
3.070122073E1,6.161518395E-2,2.690729141E0,7.645666599E0
3.072133151E1,8.973085135E-2,3.337389469E0,5.758327484E0
3.074144229E1,-8.554340899E-2,3.454637766E0,7.278368473E0
3.076155307E1,-3.212364316E-1,2.904288530E0,9.803992271E0
3.078166385E1,4.504488707E-1,1.838884234E0,1.070070267E1
3.080177463E1,5.760720372E-1,1.692323804E0,9.951150894E0
3.082188541E1,-2.650051117E-1,2.440679073E0,1.039621639E1
3.084199620E1,-3.643072546E-1,2.508874655E0,1.155135155E1
3.086210698E1,-1.633101404E-1,2.122433662E0,1.218245792E1
3.088221776E1,2.392822644E-3,2.266601324E0,1.151127148E1
3.090232854E1,3.146561682E-1,2.790031195E0,1.062951660E1
3.092243932E1,4.540380836E-1,3.128017426E0,9.741181374E0
3.094255010E1,5.557330847E-1,3.228515863E0,9.149555206E0
3.096266088E1,1.872383654E-1,3.232703447E0,9.782457352E0
3.098277166E1,-2.763710022E-1,2.974278450E0,1.095254707E1
3.100288244E1,-3.200400174E-1,2.585444927E0,1.247976685E1
3.102299323E1,-6.939185411E-2,2.205584288E0,1.329571915E1
3.104310401E1,6.209374666E-1,1.804188251E0,1.255334568E1
3.106321479E1,5.258227587E-1,1.994417667E0,9.746564865E0
3.108332557E1,-1.298106313E-1,2.553740025E0,6.784848690E0
3.110343635E1,-1.215553880E0,3.136990547E0,5.827121258E0
3.112354713E1,-2.065006018E0,3.180061340E0,6.957131863E0
3.114365786E1,-1.620539188E0,2.661417007E0,7.976474285E0
3.116376870E1,-6.711867452E-1,2.163111687E0,8.562715530E0
3.118387942E1,-1.339980662E-1,2.042872429E0,8.837890625E0
3.120399020E1,4.372883439E-1,1.750349760E0,9.199805260E0
3.122410099E1,8.560323119E-1,1.415952802E0,9.528220177E0
3.124421177E1,6.699903607E-1,1.582852125E0,8.994022369E0
3.126432255E1,-8.255238086E-2,2.134397745E0,8.004590034E0
3.128443333E1,-3.798605800E-1,2.371885538E0,7.603792191E0
3.130454411E1,-5.982056633E-2,2.271985054E0,7.759325504E0
3.132465489E1,3.469592705E-2,2.325823545E0,7.794619560E0
3.134476567E1,-4.127618968E-1,2.633301258E0,7.821538925E0
3.136487646E1,-8.333004713E-1,2.867199659E0,8.696713448E0
3.138498724E1,-1.081555843E0,2.806182861E0,1.024068260E1
3.140509802E1,-8.632107973E-1,2.532204628E0,1.171525955E1
3.142520880E1,-2.542374134E-1,2.337787628E0,1.212862015E1
3.144531958E1,9.870393574E-2,2.581257343E0,1.185165024E1
3.146543036E1,6.771687865E-1,2.603989124E0,1.188873959E1
3.148554114E1,1.715653777E0,2.181057930E0,1.247079372E1
3.150565192E1,7.788637877E-1,2.774477959E0,1.187916756E1
3.152576270E1,-1.194018483E0,3.885943890E0,9.629914284E0
3.154587349E1,-2.579462767E0,4.598406792E0,9.214161873E0
3.156598427E1,-2.292922258E0,3.906881094E0,1.081795120E1
3.158609505E1,-1.068993568E0,3.113660574E0,1.138983536E1
3.160620583E1,2.344966233E-1,2.784049034E0,1.006181908E1
3.162631661E1,7.872386575E-1,2.746362209E0,8.548358917E0
3.164642739E1,6.765705943E-1,2.744567633E0,8.422137260E0
3.166653817E1,4.283152521E-1,3.057429075E0,8.761320114E0
3.168664896E1,3.050848842E-2,3.572484255E0,8.816953659E0
3.170675974E1,-9.104689956E-1,3.895515203E0,9.040681839E0
3.172687052E1,-1.420738459E0,3.867997885E0,9.374481201E0
3.174698130E1,-1.135992527E0,3.464807272E0,9.790233612E0
3.176709208E1,-7.543373108E-1,3.111267567E0,9.164510727E0
3.178720286E1,2.973082066E-1,2.728415966E0,8.417949677E0
3.180731364E1,1.764108539E0,2.361716032E0,8.027321815E0
3.182742442E1,2.525026083E0,2.233700037E0,8.251050949E0
3.184753520E1,2.199602127E0,2.196012974E0,9.315258980E0
3.186764599E1,1.302891970E0,2.335993052E0,9.600603104E0
3.188775677E1,5.940182209E-1,2.347957134E0,8.732605934E0
3.190786755E1,-8.075776696E-2,2.316850424E0,8.615358353E0
3.192797833E1,-6.795616150E-1,2.417349100E0,9.133403778E0
3.194808911E1,-8.392825127E-1,2.702693224E0,9.422935486E0
3.196819989E1,-3.308077157E-1,2.890529871E0,9.333803177E0
3.198831062E1,3.714857101E-1,2.687737942E0,9.591031075E0
3.200842140E1,6.119644046E-1,2.762513638E0,1.068574810E1
3.202853218E1,4.570291340E-1,3.059821844E0,9.994221687E0
3.204864296E1,-2.572284266E-2,3.227917671E0,8.857631683E0
3.206875375E1,-7.716853023E-1,3.537788391E0,7.992625713E0
3.208886453E1,-8.697910309E-1,3.026322365E0,8.726624489E0
3.210897531E1,-2.662015259E-1,2.005185366E0,1.191565895E1
3.212908609E1,6.634100676E-1,9.391828775E-1,1.501615810E1
3.214919687E1,3.762713671E-1,1.000798106E0,1.435454273E1
3.216930765E1,-3.397808075E-1,1.829911113E0,1.060678482E1
3.218941843E1,-1.325623751E0,2.465803623E0,8.179863930E0
3.220952922E1,-1.685145378E0,2.851646423E0,6.963113785E0
3.222964000E1,-1.328614831E0,2.638685226E0,7.400402069E0
3.224975078E1,-9.044869542E-1,2.270788670E0,8.094919205E0
3.226986156E1,-5.503492355E-1,1.996810555E0,8.423932076E0
3.228997234E1,-7.495517135E-1,2.383251429E0,7.651050568E0
3.231008312E1,-1.284945726E0,3.035295486E0,6.966702938E0
3.233019390E1,-4.145565331E-1,2.808575630E0,7.080960274E0
3.235030468E1,1.143171072E0,2.057827473E0,7.812565804E0
3.237041546E1,1.290329576E0,2.134397745E0,8.231309891E0
3.239052625E1,2.297109663E-1,3.041875839E0,8.294719696E0
3.241063703E1,-7.597211599E-1,3.995415688E0,8.346165657E0
3.243074781E1,-3.008974493E-1,3.960121393E0,8.502895355E0
3.245085859E1,5.647061467E-1,3.262613773E0,9.131011009E0
3.247096937E1,1.056431174E0,2.912663460E0,1.004686451E1
3.249108015E1,7.854440212E-1,3.078964472E0,1.064806080E1
3.251119093E1,5.180460811E-1,3.388834953E0,1.052483082E1
3.253130172E1,6.604190469E-1,3.495913982E0,1.028076267E1
3.255141250E1,7.651050687E-1,3.617947817E0,1.053858948E1
3.257152328E1,1.215553880E0,4.090530396E0,1.116431236E1
3.259163406E1,1.487737536E0,4.566701889E0,1.069172955E1
3.261174484E1,1.277767301E0,4.271786690E0,1.201854992E1
3.263185562E1,1.058824062E0,3.086143017E0,1.351107311E1
3.265196640E1,4.474578202E-1,2.364108801E0,1.387059498E1
3.267207718E1,-1.495514214E-1,2.379662037E0,1.240738392E1
3.269218796E1,-4.791627228E-1,2.761915445E0,9.750752449E0
3.271229875E1,-5.629115105E-1,3.162115097E0,7.108478069E0
3.273240953E1,-2.428714931E-1,3.023331404E0,7.964509964E0
3.275252031E1,9.212367237E-2,2.349153519E0,1.010249710E1
3.277263109E1,4.642075896E-1,1.862214208E0,1.053499985E1
3.279274187E1,4.779663086E-1,1.877767563E0,9.519845009E0
3.281285265E1,3.176472187E-1,2.087737799E0,8.435297966E0
3.283296343E1,-2.243271172E-1,2.382653236E0,7.642077446E0
3.285307422E1,-6.921239495E-1,2.560320139E0,7.152146816E0
3.287318500E1,-5.904290080E-1,2.595614433E0,7.097112179E0
3.289329578E1,5.144568533E-2,2.407777786E0,6.961917400E0
3.291340656E1,4.037888348E-1,2.335394859E0,6.868597507E0
3.293351734E1,2.416750938E-1,2.577069998E0,7.231708050E0
3.295362812E1,-3.948157281E-2,2.963510752E0,7.442874908E0
3.297373890E1,1.016949583E-2,3.124428272E0,7.627122402E0
3.299384968E1,4.504488707E-1,3.209373474E0,8.203194618E0
3.301396046E1,6.825526357E-1,3.281157970E0,8.887541771E0
3.303407125E1,4.713860750E-1,3.471985579E0,9.090931892E0
3.305418203E1,-1.046859920E-1,3.670589924E0,9.795019150E0
3.307429281E1,5.982056609E-4,3.434896946E0,1.134377384E1
3.309440359E1,3.744767308E-1,3.195016384E0,1.201854992E1
3.311451437E1,8.147560954E-1,2.920439959E0,1.202034473E1
3.313462515E1,8.500502706E-1,3.109472990E0,1.075753212E1
3.315473593E1,3.553341627E-1,3.230908871E0,8.824729919E0
3.317484672E1,-6.251249313E-1,3.322434187E0,7.777870178E0
3.319495750E1,-1.404586911E0,3.086143017E0,9.686744690E0
3.321506828E1,-7.136593461E-1,1.929213285E0,1.383769321E1
3.323517906E1,3.529413417E-2,1.277169108E0,1.593380642E1
3.325528984E1,4.366901144E-2,1.395613790E0,1.459262848E1
3.327540062E1,-3.134597540E-1,1.858624935E0,1.150588799E1
3.329551140E1,-5.443671346E-1,2.143969059E0,9.369096756E0
3.331562218E1,-5.563312769E-1,2.178664923E0,8.254639626E0
3.333573302E1,-1.127617717E0,2.249851465E0,8.343772888E0
3.335584380E1,-1.836491346E0,2.394019127E0,8.326424599E0
3.337595453E1,-2.106282234E0,2.480758905E0,8.274380684E0
3.339606536E1,-1.826920033E0,2.281556368E0,8.974879265E0
3.341617614E1,-1.229312658E0,1.999801517E0,1.008455086E1
3.343628692E1,-7.357929349E-1,1.804188251E0,1.057208824E1
3.345639770E1,-1.025922656E0,2.197209358E0,9.110671997E0
3.347650849E1,-1.512862086E0,2.835494757E0,7.412366390E0
3.349661927E1,-1.561316729E0,3.221337557E0,6.976274490E0
3.351673005E1,-8.464609981E-1,2.867797852E0,7.667201996E0
3.353684083E1,-3.828516304E-1,2.494517565E0,8.478368759E0
3.355695161E1,-5.084748268E-1,2.633899450E0,9.029315948E0
3.357706239E1,-5.958128572E-1,3.087339401E0,8.726624489E0
3.359717317E1,-6.460621208E-2,3.200400352E0,7.896913052E0
3.361728396E1,2.201396823E-1,3.274577856E0,7.639684677E0
3.363739474E1,2.751746029E-2,3.227319479E0,8.846264839E0
3.365750552E1,-3.894318938E-1,3.335594654E0,1.013659477E1
3.367761630E1,-9.828519225E-1,3.882354736E0,9.138788223E0
3.369772708E1,-9.337990284E-1,4.296313286E0,8.446663857E0
3.371783786E1,-1.313061476E0,3.655036688E0,1.210648632E1
3.373794864E1,4.576273263E-1,3.739383698E0,1.177149105E1
3.375805942E1,6.556333899E-1,2.468794823E0,1.472184086E1
3.377817020E1,8.536394835E-1,2.340180635E0,1.353799248E1
3.379828099E1,4.875376225E-1,2.427518606E0,1.152622700E1
3.381839177E1,-5.144568533E-2,2.785843849E0,9.653842926E0
3.383850255E1,3.990031779E-1,2.614158630E0,8.870791435E0
3.385861333E1,5.108676553E-1,2.482553482E0,8.671588898E0
3.387872411E1,3.284149170E-1,2.574079037E0,7.950153351E0
3.389883489E1,3.499503136E-1,2.761317253E0,7.937591076E0
3.391894567E1,7.429714203E-1,2.746362209E0,8.260024071E0
3.393905646E1,1.104885817E0,2.670390129E0,8.871988297E0
3.395916724E1,9.589236975E-1,2.562713146E0,9.254241943E0
3.397927802E1,6.011967063E-1,2.695514679E0,8.590831757E0
3.399938880E1,1.447657645E-1,2.870789051E0,7.966903210E0
3.401949958E1,3.547359705E-1,2.923431158E0,7.668398380E0
3.403961036E1,5.066801906E-1,2.929413080E0,7.545766354E0
3.405972114E1,4.785645306E-1,2.940180779E0,7.571488857E0
3.407983192E1,2.566302419E-1,3.014358282E0,8.000402451E0
3.409994271E1,1.674975902E-1,3.093919754E0,8.230711937E0
3.412005349E1,2.518445849E-1,3.163311481E0,8.030312538E0
3.414016427E1,6.161518097E-1,3.059223652E0,8.143971443E0
3.416027505E1,8.117650747E-1,2.974876642E0,8.629117012E0
3.418038583E1,3.918247223E-1,3.056232691E0,8.760123253E0
3.420049661E1,9.152546525E-2,3.212364435E0,8.824729919E0
3.422060739E1,-2.147558331E-1,3.641277790E0,8.812766075E0
3.424071817E1,-6.478567123E-1,3.961317778E0,8.734998703E0
3.426082896E1,-1.095912814E0,4.088735580E0,7.864011765E0
3.428093974E1,-5.018945336E-1,3.292523861E0,9.313464165E0
3.430105052E1,4.486542568E-2,2.673979282E0,1.035613632E1
3.432116130E1,-1.190429255E-1,2.556730986E0,1.121216869E1
3.434127208E1,-6.550351977E-1,2.953341246E0,1.098784161E1
3.436138286E1,-2.470589429E-1,3.236890793E0,9.387042999E0
3.438149364E1,5.084748268E-1,3.171088219E0,8.161917686E0
3.442633563E1,-6.149554253E-1,5.103292465E0,7.833503246E0
3.444644630E1,-6.711867452E-1,4.959125042E0,8.702695847E0
3.446655703E1,-1.877767563E0,5.142774105E0,9.707083702E0
3.448666776E1,-2.358724833E0,5.410770416E0,9.300303459E0
3.450677844E1,-1.755135417E0,4.974678040E0,8.875576973E0
3.452688917E1,-1.743769526E0,4.990829945E0,9.088538170E0
3.454699990E1,-1.679761529E0,5.230710506E0,8.943773270E0
3.456711057E1,-1.290329576E0,5.207380295E0,9.404989243E0
3.458722130E1,-1.232901812E0,5.197210789E0,1.015035343E1
3.460733198E1,-1.521237016E0,5.181657314E0,1.083051395E1
3.462744271E1,-1.570289850E0,4.833501816E0,1.161715412E1
3.464755344E1,-1.559522152E0,4.500899315E0,1.154417324E1
3.466766412E1,-1.678565025E0,4.341776848E0,1.107278633E1
3.468777485E1,-2.233700037E0,4.489533424E0,1.134437180E1
3.470788558E1,-2.925225735E0,4.309473515E0,1.094178009E1
3.472799625E1,-3.032304525E0,4.004986763E0,1.009830952E1
3.474810698E1,-2.394617319E0,3.796213150E0,9.456435204E0
3.476821766E1,-1.756331801E0,3.553341627E0,9.314660072E0
3.478832839E1,-1.859821439E0,3.267399311E0,1.039920712E1
3.480843912E1,-2.029113531E0,2.420938253E0,1.268973637E1
3.482854979E1,-2.104487419E0,1.846062660E0,1.359721470E1
3.484866052E1,-1.679163337E0,1.974676847E0,1.283868980E1
3.486877120E1,-1.588235974E0,2.275574446E0,1.107159042E1
3.488888193E1,-1.848455548E0,2.426920414E0,9.696913719E0
3.490899266E1,-2.054238319E0,2.340180635E0,1.007797050E1
3.492910334E1,-2.106880426E0,2.203191519E0,1.093998528E1
3.494921406E1,-1.581655741E0,2.112264156E0,1.006660461E1
3.496932474E1,-1.091127157E0,2.170290232E0,8.322237015E0
3.498943547E1,-1.398006678E0,2.520838737E0,7.028318405E0
3.500954615E1,-1.889731646E0,2.844467878E0,7.086344242E0
3.502965688E1,-9.266205430E-1,2.566900492E0,7.599006653E0
3.504976755E1,2.727817893E-1,2.308475733E0,6.349953175E0
3.506987828E1,-5.521438122E-1,2.810370207E0,5.580062389E0
3.508998896E1,-1.862214208E0,3.452843189E0,5.779862881E0
3.511009969E1,-1.810170293E0,3.345165968E0,7.838288784E0
3.513021042E1,-3.966103494E-1,2.535195589E0,1.053619671E1
3.515032110E1,1.800599098E-1,2.132603168E0,1.156331539E1
3.517043182E1,-7.076773047E-1,2.715255499E0,1.038066292E1
3.519054250E1,-1.900499344E0,3.519842148E0,9.857831001E0
3.521065323E1,-2.423929453E0,3.932604074E0,1.010668468E1
3.523076391E1,-1.922633052E0,3.857828379E0,1.071745300E1
3.525087464E1,-8.733802438E-1,3.452244759E0,1.167218876E1
3.527098531E1,-1.375873014E-2,3.038884640E0,1.197966671E1
3.529109604E1,1.645065546E-1,3.248256683E0,1.133300591E1
3.531120672E1,-5.443671346E-2,3.880560160E0,9.832108498E0
3.533131745E1,-3.834498227E-1,4.375276089E0,9.640682220E0
3.535142813E1,-5.730810165E-1,3.953541279E0,1.097169018E1
3.537153886E1,-5.126622319E-1,3.373879910E0,1.155793190E1
3.539164953E1,1.250249892E-1,3.167499065E0,1.028016472E1
3.541176026E1,9.972088337E-1,3.192025423E0,8.436494827E0
3.543187094E1,1.397408366E0,3.220739365E0,7.483552933E0
3.545198167E1,7.537391186E-1,3.130410194E0,7.649255753E0
3.547209235E1,-6.580262631E-2,3.161516905E0,7.721040249E0
3.549220302E1,-3.493520916E-1,3.167499065E0,7.278368473E0
3.551231375E1,-5.264210105E-1,3.423531055E0,6.193223000E0
3.553242443E1,-6.364908218E-1,3.701696634E0,5.112864017E0
3.555253516E1,-6.592226624E-1,3.627519131E0,5.231308460E0
3.557264583E1,-2.536391914E-1,3.081955671E0,7.293323517E0
3.559275656E1,2.057827413E-1,2.939582586E0,7.639684677E0
3.561286724E1,3.302095234E-1,3.205784082E0,6.790830612E0
3.563297797E1,2.608176768E-1,3.451646566E0,7.186842918E0
3.565308865E1,5.240281820E-1,3.096910715E0,9.762118340E0
3.567319938E1,-9.571290761E-2,3.128017426E0,1.111107159E1
3.569331005E1,-9.798609018E-1,3.666402578E0,1.126780224E1
3.571342073E1,-1.007378340E0,4.402793884E0,1.082931709E1
3.573353146E1,-6.185446382E-1,4.531407833E0,1.071984577E1
3.575364214E1,-1.428515077E0,4.335794449E0,1.208854008E1
3.577375287E1,-1.880160451E0,4.393222332E0,1.167159081E1
3.579386354E1,-1.493121386E0,4.654039860E0,9.683753014E0
3.581397427E1,-5.563312769E-1,4.365106583E0,9.504291534E0
3.583408495E1,2.865405083E-1,4.228117466E0,9.996614456E0
3.585419563E1,2.309073806E-1,3.744169235E0,1.072522926E1
3.587430636E1,2.650051117E-1,2.957528830E0,1.198505020E1
3.589441703E1,7.746763229E-1,2.029711723E0,1.410748386E1
3.591452776E1,1.220937729E0,2.024327993E0,1.369711494E1
3.593463844E1,1.018744230E0,2.711666346E0,1.095374393E1
3.595474912E1,2.536391914E-1,3.176471949E0,9.994221687E0
3.597485985E1,3.409772366E-2,3.144767046E0,9.773484230E0
3.599497052E1,3.966103494E-1,3.077768087E0,8.579465866E0
3.601508125E1,1.351944804E-1,3.343969584E0,7.599006653E0
3.603519193E1,-3.565305769E-1,3.497110367E0,7.514659405E0
3.605530261E1,-3.559323549E-1,3.279363394E0,7.503891945E0
3.607541334E1,6.400800496E-2,2.676970243E0,7.540980339E0
3.609552401E1,5.904290080E-1,2.118246317E0,7.418348312E0
3.611563469E1,6.568298340E-1,2.042872429E0,6.707081795E0
3.613574542E1,3.074777126E-1,2.073380709E0,5.741578102E0
3.615585610E1,-8.315058798E-2,1.972284079E0,5.626124382E0
3.617596682E1,-2.512463629E-1,1.890928149E0,6.320042610E0
3.619607750E1,-2.745763958E-1,1.962712765E0,7.063014030E0
3.621618818E1,-1.049252748E0,2.484946251E0,7.649854183E0
3.623629891E1,-1.890329838E0,3.227917671E0,8.148757935E0
3.625640958E1,-1.413560033E0,3.082553864E0,8.864211082E0
3.627652026E1,-8.488538265E-1,2.611167669E0,9.429515839E0
3.629663099E1,-1.746760488E0,2.808575630E0,9.905089378E0
3.631674167E1,-3.684946775E0,3.732803345E0,9.818947792E0
3.633685235E1,-4.052843571E0,4.517649174E0,8.616554260E0
3.635696307E1,-3.050848961E0,4.417748928E0,8.572287560E0
3.637707375E1,-2.423331022E0,4.148556232E0,1.020479012E1
3.639718443E1,-1.869392633E0,3.867997885E0,1.179003525E1
3.641729516E1,-1.356132269E0,3.893720627E0,1.184148121E1
3.643740584E1,-3.649054468E-2,3.508476257E0,1.063310528E1
3.645751651E1,8.566305041E-1,3.517449379E0,8.093722343E0
3.647762724E1,-2.752942562E0,4.887340069E0,7.306483746E0
3.649773792E1,-4.773082733E0,5.002195835E0,9.942177773E0
3.651784860E1,-1.120439172E0,2.487339020E0,1.422293758E1
3.653795927E1,7.094719410E-1,1.360917926E0,1.580100441E1
3.655807000E1,7.064808607E-1,1.651645780E0,1.205922794E1
3.657818068E1,-1.603789330E0,2.676372051E0,8.556135178E0
3.659829136E1,-3.331407309E0,3.528217077E0,7.438687325E0
3.661840208E1,-2.997010469E0,3.270390272E0,8.806783676E0
3.663851276E1,-9.361918569E-1,2.093121529E0,1.081017494E1
3.665862344E1,7.471588850E-1,1.180259824E0,1.170808125E1
3.667873412E1,-1.136590764E-1,1.708475351E0,1.049432182E1
3.669884485E1,-2.633301258E0,2.965305567E0,8.554341316E0
3.671895552E1,-3.605983734E0,3.617349625E0,8.849256516E0
3.673906620E1,-1.769492388E0,2.989831924E0,1.144487095E1
3.675917688E1,8.554341197E-1,1.582253933E0,1.365224934E1
3.677928761E1,1.232901812E0,1.233500123E0,1.282194042E1
3.679939828E1,-3.409772366E-2,2.121237278E0,9.338588715E0
3.681950896E1,-4.941178858E-1,2.757129908E0,7.794619560E0
3.683961964E1,3.840480447E-1,2.682952404E0,7.547560692E0
3.685973037E1,4.510470629E-1,2.711068153E0,7.872984886E0
3.687984104E1,-5.425725579E-1,2.952743053E0,8.120043755E0
3.689995172E1,-1.712662816E0,3.206382275E0,8.124231339E0
3.692006240E1,-2.286940336E0,3.201596737E0,8.667402267E0
3.694017313E1,-2.057229280E0,2.894717216E0,9.285946846E0
3.696028380E1,-2.051845312E0,2.254637241E0,9.708877563E0
3.698039448E1,-1.666600943E0,1.384247899E0,8.132605553E0
3.700050516E1,-1.524826288E0,1.430309772E0,5.155336380E0
3.702061584E1,-2.544766903E0,2.270190477E0,3.845864296E0
3.704072656E1,-3.221935749E0,2.118844509E0,6.020939827E0
3.706083724E1,-3.391826153E0,1.338784218E0,1.123549843E1
3.708094792E1,-3.189034462E0,9.445667267E-1,1.529552078E1
3.710105860E1,-2.837289333E0,1.627717614E0,1.317847061E1
3.712116927E1,-2.103889227E0,2.265404940E0,7.743174076E0
3.714128000E1,-2.359323025E0,3.135195971E0,5.569294930E0
3.716139068E1,-3.440280676E0,3.545564890E0,8.236095428E0
3.718150136E1,-2.376671076E0,3.091526747E0,9.165707588E0
3.720161203E1,-4.199403822E-1,2.501097918E0,8.428717613E0
3.722172271E1,1.298106313E0,2.066800594E0,8.435895920E0
3.724183344E1,-1.387837082E-1,2.129014015E0,1.209332561E1
3.726194412E1,-2.240280151E0,2.744567633E0,1.487079430E1
3.728205479E1,-2.000399828E0,2.483749866E0,1.354696560E1
3.730216547E1,-1.259222865E0,2.694916487E0,9.802198410E0
3.732227615E1,-5.413761139E-1,2.854637384E0,8.165507317E0
3.734238688E1,-1.932204217E-1,2.953341246E0,8.005785942E0
3.736249755E1,-6.323033571E-1,2.956930637E0,8.730812073E0
3.738260823E1,-1.350748420E0,3.111865759E0,9.518050194E0
3.740271891E1,-1.741974831E0,3.107080221E0,9.790233612E0
3.742282958E1,-1.572682738E0,3.028116941E0,1.064925671E1
3.744294026E1,-1.076770186E0,2.740978241E0,1.166620636E1
3.746305094E1,-2.344966233E-1,2.397608280E0,1.210947704E1
3.748316167E1,5.108676553E-1,2.262413740E0,1.082931709E1
3.750327235E1,3.774677813E-1,2.724228621E0,8.684151649E0
3.752338302E1,3.403790295E-1,3.007778168E0,7.444669247E0
3.754349370E1,1.194018483E0,2.340778828E0,9.425926208E0
3.756360438E1,1.301695466E0,1.460219979E0,1.230329609E1
3.758371505E1,3.637090325E-1,1.734198213E0,1.217767239E1
3.760382573E1,-8.458628058E-1,2.689532757E0,9.289535522E0
3.762393641E1,-9.702895880E-1,3.147758245E0,6.698707104E0
3.764404714E1,-8.949156404E-1,2.950350285E0,5.969494343E0
3.766415781E1,-1.193420291E0,2.188834429E0,7.930412292E0
3.768426849E1,-1.956730723E0,1.858624935E0,9.493523598E0
3.770437917E1,-2.403590441E0,1.935195327E0,9.149555206E0
3.772448985E1,-2.565704107E0,2.200798512E0,8.971888542E0
3.774460052E1,-2.143969059E0,2.032702923E0,9.248259544E0
3.776471120E1,-1.479362607E0,1.733001828E0,9.201001167E0
3.778482193E1,-9.649057388E-1,1.768894196E0,8.120641708E0
3.780493261E1,-8.757730722E-1,2.131406784E0,7.147959232E0
3.782504328E1,-4.384847581E-1,2.233101845E0,7.244868755E0
3.784515396E1,-4.366901219E-1,2.159522533E0,8.356932640E0
3.786526464E1,-5.928218365E-1,1.962712765E0,9.931410789E0
3.788537531E1,-1.066002488E0,1.818545222E0,1.149033451E1
3.790548599E1,-2.158325911E0,2.145165443E0,1.231884956E1
3.792559667E1,-2.690130949E0,2.254637241E0,1.262931824E1
3.794570735E1,-2.420938253E0,2.133799553E0,1.285723400E1
3.796581802E1,-1.719841242E0,2.050648928E0,1.220578861E1
3.798592870E1,-1.126421213E0,2.271985054E0,1.143470097E1
3.800603938E1,-6.831508875E-1,2.529213428E0,9.291330338E0
3.802615011E1,-1.144965649E0,2.567498684E0,7.571488857E0
3.804626073E1,-2.444268227E0,2.340778828E0,8.934201241E0
3.806637146E1,-2.636890650E0,1.057029366E0,1.360858059E1
3.808648214E1,-2.085943222E0,-2.171486616E-1,1.841396713E1
3.810659281E1,-2.079961061E0,1.806581169E-1,1.661217117E1
3.812670349E1,-1.932802439E0,1.345962763E0,1.072223854E1
3.814681417E1,-1.462612867E0,1.947757602E0,6.661618233E0
3.816692485E1,-1.236491084E0,2.027917147E0,5.913262844E0
3.818703552E1,-1.809572101E0,1.883151412E0,7.688737392E0
3.820714620E1,-1.316650629E0,1.652842283E0,9.907482147E0
3.822725688E1,-9.684949517E-1,1.599601984E0,1.011805058E1
3.824736755E1,-2.351546526E0,2.425724030E0,8.672785759E0
3.826747823E1,-3.211168051E0,3.078366280E0,7.311269760E0
3.828758891E1,-2.374278307E0,2.888735056E0,6.407979012E0
3.830769958E1,-1.266401410E0,2.258226395E0,7.185646534E0
3.832781026E1,-2.739782035E-1,1.857428551E0,7.955537319E0
3.834792094E1,-2.566302419E-1,2.115255117E0,7.561917782E0
3.836803162E1,-7.052844763E-1,2.633301258E0,7.348956585E0
3.838814229E1,-1.102493048E0,3.011965513E0,8.058428764E0
3.840825297E1,-1.024726272E0,3.131008387E0,8.602197647E0
3.842836365E1,-5.282155871E-1,3.032902718E0,8.737391472E0
3.844847432E1,-3.068794906E-1,3.037090063E0,9.165707588E0
3.846858505E1,-7.058826834E-2,2.880958557E0,1.020778179E1
3.848869568E1,2.344966233E-1,2.717050076E0,1.055174923E1
3.850880641E1,-5.461617708E-1,3.175873756E0,9.961320877E0
3.852891708E1,-1.173081279E0,4.413561344E0,7.669594765E0
3.854902771E1,-5.264210105E-1,4.600201607E0,5.944967747E0
3.856913839E1,-5.096712112E-1,4.064209461E0,7.645666599E0
3.858924906E1,1.926222295E-1,2.550150633E0,1.187976646E1
3.860935979E1,4.666004181E-1,1.495514154E0,1.531406498E1
3.862947042E1,2.889333367E-1,1.852044702E0,1.364686584E1
3.864958110E1,8.973085135E-2,2.924627542E0,9.476176262E0
3.866969182E1,-4.247260094E-1,3.727419376E0,7.057032108E0
3.868980245E1,-7.196413875E-1,3.806980848E0,7.182057381E0
3.870991313E1,-9.631111026E-1,3.393022537E0,8.307880402E0
3.873002380E1,-1.371087432E0,3.299702406E0,8.440083504E0
3.875013448E1,-1.813759565E0,3.553341627E0,8.024331093E0
3.877024516E1,-1.803590059E0,3.720241070E0,7.384849072E0
3.879035584E1,-1.169492126E0,3.354139090E0,8.571688652E0
3.881046651E1,-4.175475538E-1,2.679363251E0,1.036750221E1
3.883057719E1,-4.618147612E-1,2.498705149E0,1.068634605E1
3.885068787E1,-5.706881881E-1,2.724826813E0,8.855836868E0
3.887079854E1,-3.978067636E-1,3.181257725E0,6.945167542E0
3.889090922E1,-2.518445849E-1,3.562912941E0,6.744170666E0
3.891101990E1,1.316052489E-2,3.489931822E0,9.148957253E0
3.893113058E1,7.118647546E-2,3.491128206E0,1.101894855E1
3.895124125E1,-3.134597540E-1,3.827319860E0,1.115832996E1
3.897135193E1,-1.163509965E0,4.450051785E0,1.078744221E1
3.899146261E1,-1.742573142E0,4.439882278E0,1.051525879E1
3.901157328E1,-1.610369682E0,4.104887009E0,1.087837029E1
3.903168396E1,-9.810572863E-1,3.448057413E0,1.190728378E1
3.905179464E1,-1.196411345E-2,2.661417007E0,1.281117249E1
3.907190531E1,2.578266263E-1,2.617149830E0,1.237448215E1
3.909201599E1,-1.256231871E-2,2.577069998E0,1.091964626E1
3.911212667E1,-4.713860750E-1,2.760719061E0,8.688339233E0
3.913223735E1,-4.271188378E-1,2.192423820E0,9.848857880E0
3.915234797E1,-2.338984162E-1,1.235892892E0,1.259462166E1
3.917245870E1,-4.031906128E-1,1.076770186E0,1.260598755E1
3.919256932E1,-3.230310678E-1,1.596012712E0,1.011864853E1
3.921268000E1,5.563312769E-2,1.950748682E0,7.780262947E0
3.923279068E1,1.363908947E-1,2.331805706E0,6.826124668E0
3.925290136E1,-2.793620527E-1,2.408375978E0,7.466803074E0
3.927301203E1,-6.346961856E-1,2.352144718E0,8.468797684E0
3.929312271E1,-1.153938770E0,2.495713949E0,9.655637741E0
3.931323339E1,-1.285543919E0,2.575873613E0,1.043450165E1
3.933334406E1,-7.519445419E-1,2.343171597E0,1.049312592E1
3.935345474E1,-2.715853751E-1,2.158924341E0,1.004686451E1
3.937356542E1,-4.055834413E-1,2.329412937E0,8.913264275E0
3.939367610E1,-2.703889608E-1,2.452643156E0,7.073781967E0
3.941378672E1,-4.606183618E-2,2.451446772E0,5.622535229E0
3.943389740E1,-4.839483798E-1,2.628515720E0,5.147559643E0
3.945400808E1,-1.478764415E0,2.869592667E0,5.420939922E0
3.947411875E1,-1.703091502E0,2.862414122E0,5.327619553E0
3.949422943E1,-1.178465128E0,2.816950560E0,6.521039963E0
3.951434011E1,-4.307080805E-1,2.813959360E0,7.926225185E0
3.953445078E1,-7.758727670E-1,3.411566973E0,8.316255569E0
3.955456146E1,-1.918445587E0,4.123431683E0,9.450452805E0
3.957467214E1,-2.158325911E0,4.255635262E0,1.125523949E1
3.959478276E1,-1.033699393E0,3.779463291E0,1.258205986E1
3.961489344E1,1.034895778E-1,3.461217880E0,1.317966747E1
3.963500412E1,7.525427341E-1,3.193820000E0,1.385504150E1
3.965511479E1,4.725824594E-1,2.712264538E0,1.418405437E1
3.967522547E1,-1.639083505E0,2.966501951E0,1.332084370E1
3.969533615E1,-3.147160053E0,4.253840446E0,1.056012440E1
3.971544682E1,-2.252244234E0,4.614558697E0,1.018684387E1
3.973555750E1,-5.682953820E-2,3.269193888E0,1.247258759E1
3.975566813E1,1.799402595E0,1.456032634E0,1.432822227E1
3.977577880E1,2.174477577E0,9.176474810E-1,1.307019520E1
3.979588948E1,8.554341197E-1,1.930409670E0,9.607182503E0
3.981600016E1,-7.375875711E-1,2.960519791E0,7.268796921E0
3.983611084E1,-1.813759565E0,3.342175007E0,6.745965004E0
3.985622151E1,-2.009372711E0,3.125624657E0,6.982256413E0
3.987633219E1,-1.518844128E0,2.769093990E0,6.948158741E0
3.989644281E1,-1.411167145E0,2.544766903E0,7.800601959E0
3.991655349E1,-1.124626637E0,2.293520451E0,8.635098457E0
3.993666417E1,-3.888336718E-1,1.879562140E0,8.096115112E0
3.995677485E1,-1.609173268E-1,1.660020709E0,7.852645874E0
3.997688552E1,-4.761717021E-1,1.712064624E0,7.597810268E0
3.999699620E1,-3.278166950E-1,1.768295884E0,6.774080753E0
4.001710688E1,-1.992024779E-1,1.898106575E0,6.198009014E0
4.003721750E1,-1.561316848E-1,2.099701881E0,5.969494343E0
4.005732818E1,-8.913264424E-2,2.271386862E0,5.918048382E0
4.007743886E1,4.546362907E-2,2.603989124E0,6.003592014E0
4.009754953E1,1.513460279E-1,2.865405083E0,6.961319447E0
4.011766021E1,1.411765367E-1,3.145963669E0,8.364111900E0
4.013777089E1,-1.794617027E-1,3.448057413E0,1.016231823E1
4.015788151E1,-3.595215976E-1,3.538386583E0,1.167757225E1
4.017799219E1,-4.899304509E-1,3.501297712E0,1.261316681E1
4.019810287E1,-5.922235847E-1,3.449851990E0,1.410210037E1
4.021821354E1,-9.056833982E-1,3.287140131E0,1.528714561E1
4.023832422E1,-1.229312658E0,3.587439299E0,1.414098358E1
4.025843490E1,-1.745564103E0,4.229313850E0,1.220818138E1
4.027854552E1,-1.668395638E0,4.191627026E0,1.177388382E1
4.029865620E1,-1.068395257E0,3.195016384E0,1.307258797E1
4.031876688E1,-3.463610709E-1,2.006979942E0,1.386760330E1
4.033887755E1,-7.399803996E-1,1.732403636E0,1.319462204E1
4.035898823E1,-1.348953724E0,2.279163599E0,9.860223770E0
4.037909891E1,-1.369292736E0,2.974876642E0,5.794219971E0
4.039920953E1,-1.331007600E0,3.477967739E0,4.015754700E0
4.041932021E1,-1.275972724E0,3.358924866E0,4.718646049E0
4.043943089E1,-1.487139225E0,3.019144058E0,5.901299000E0
4.045954156E1,-1.878365755E0,2.728415966E0,7.797610760E0
4.047965224E1,-1.915454507E0,2.333600283E0,9.347561836E0
4.049976287E1,-1.131805062E0,2.033899307E0,8.626724243E0
4.051987354E1,-4.414757788E-1,1.983649969E0,6.798607349E0
4.053998422E1,-5.934200287E-1,2.262413740E0,5.648856163E0
4.056009490E1,-9.451649189E-1,2.569891453E0,5.839683533E0
4.058020557E1,-1.252044439E0,2.709273338E0,6.943971157E0
4.060031625E1,-1.120439172E0,2.922832966E0,8.791828156E0
4.062042688E1,-2.973082066E-1,2.825325251E0,1.051645565E1
4.064053755E1,-3.116651475E-1,2.986840963E0,1.036510944E1
4.066064823E1,-8.111668825E-1,3.690330744E0,8.872586250E0
4.068075891E1,-6.568298340E-1,4.076771736E0,8.752944946E0
4.070086958E1,-6.143572330E-1,4.010969162E0,9.699904442E0
4.072098021E1,-1.290927768E0,4.004986763E0,1.022273636E1
4.074109089E1,-1.724626899E0,3.872185230E0,1.124507046E1
4.076120156E1,-2.016551256E0,3.812364578E0,1.257488155E1
4.078131224E1,-2.164906263E0,3.749552965E0,1.305583858E1
4.080142292E1,-1.855035782E0,3.934996843E0,1.157109165E1
4.082153354E1,-1.449452281E0,4.155734539E0,9.701101303E0
4.084164422E1,-2.044068813E0,4.452444553E0,9.311669350E0
4.086175490E1,-2.343769789E0,4.180261135E0,1.053978539E1
4.088186558E1,-1.599601984E0,3.247658491E0,1.301097298E1
4.090197620E1,-3.714857101E-1,2.129612207E0,1.521117401E1
4.092208688E1,4.857429862E-1,1.497308731E0,1.551326752E1
4.094219755E1,5.066801906E-1,1.869392633E0,1.232662582E1
4.096230823E1,-1.920240223E-1,2.677568436E0,8.499904633E0
4.098241891E1,-1.368694544E0,3.668795347E0,6.664609432E0
4.100252953E1,-1.509272933E0,3.943371773E0,6.857829571E0
4.102264021E1,-7.238288522E-1,3.399004459E0,7.530810833E0
4.104275089E1,-3.290131092E-1,2.963510752E0,8.496315002E0
4.106286156E1,-2.949153781E-1,2.815155745E0,8.865407944E0
4.108297219E1,-2.404786795E-1,2.940778971E0,7.918448448E0
4.110308287E1,-1.316052526E-1,2.984447956E0,7.264011383E0
4.112319354E1,4.785645287E-3,2.882753134E0,7.189235687E0
4.114330422E1,1.692921966E-1,2.638087034E0,7.569694519E0
4.116341490E1,4.588237405E-1,2.381456852E0,7.843672752E0
4.118352552E1,4.331009090E-1,2.303689957E0,7.948956966E0
4.120363620E1,-9.990034252E-2,2.731407166E0,7.387839794E0
4.122374688E1,-7.280163169E-1,3.494717360E0,6.828517437E0
4.124385755E1,-6.825526357E-1,4.064807415E0,7.223333359E0
4.126396818E1,1.818545163E-1,4.150351048E0,7.724629879E0
4.128407886E1,8.135596663E-2,4.299304008E0,9.175876617E0
4.130418953E1,-2.919243574E-1,4.234697819E0,1.022692394E1
4.132430021E1,-8.536394835E-1,3.872185230E0,1.074138069E1
4.134441084E1,-9.182456732E-1,3.484548092E0,1.079521942E1
4.136452151E1,-9.415757060E-1,3.245265722E0,1.007139015E1
4.138463219E1,-1.467398524E0,3.422932863E0,1.005224800E1
4.140474287E1,-1.599601984E0,3.460021496E0,1.107637596E1
4.142485349E1,-1.011565804E0,2.745165825E0,1.273878956E1
4.144496417E1,5.563312769E-2,1.693520188E0,1.347099304E1
4.146507485E1,2.727817893E-1,1.449452281E0,1.248036480E1
4.148518552E1,-2.667997181E-1,1.994417667E0,9.735198975E0
4.150529615E1,-7.190431952E-1,2.436491728E0,7.630113125E0
4.152540682E1,-1.416550994E0,2.766103029E0,7.632505894E0
4.154551750E1,-1.796411633E0,2.635095835E0,8.510671616E0
4.156562818E1,-2.096710920E0,2.659622431E0,7.913662910E0
4.158573880E1,-3.121437073E0,3.011367321E0,6.731009960E0
4.160584948E1,-4.077968121E0,3.391227961E0,5.717051506E0
4.162596016E1,-3.360719442E0,2.854039192E0,6.037689686E0
4.164607083E1,-1.697109461E0,1.861616015E0,8.581858635E0
4.166618146E1,-9.768698215E-1,1.059422255E0,1.235175037E1
4.168629214E1,-1.831705689E0,1.429113269E0,1.191326618E1
4.170640281E1,-2.228316069E0,2.322234392E0,8.943174362E0
4.172651344E1,-1.978266120E0,2.947957516E0,7.176074982E0
4.174662412E1,-8.955138922E-1,3.067000389E0,6.932605267E0
4.176673479E1,-1.615155302E-2,2.919243574E0,7.279564857E0
4.178684547E1,5.324030295E-2,2.974278450E0,8.599804878E0
4.180695610E1,-1.848455518E-1,3.113062143E0,9.791430473E0
4.182706677E1,-5.587241054E-1,3.196212769E0,1.082632637E1
4.184717745E1,-1.131805062E0,3.559921980E0,1.068574810E1
4.186728813E1,-1.396211982E0,3.853042603E0,1.016471100E1
4.188739875E1,-1.243669510E0,3.842873096E0,1.024307537E1
4.190750943E1,-9.936196208E-1,3.803391695E0,1.042492962E1
4.192762011E1,-1.120439172E0,3.812962770E0,1.038604641E1
4.194773073E1,-1.189232826E0,4.085146427E0,9.611370087E0
4.196784141E1,-7.872386575E-1,4.392025948E0,8.688937187E0
4.198795208E1,-1.806581169E-1,4.875974178E0,7.543971539E0
4.200806276E1,-2.482553422E-1,4.877170563E0,7.173084259E0
4.202817339E1,-1.056431174E0,4.529613495E0,9.043673515E0
4.204828406E1,-2.370090723E0,3.687339783E0,1.348834133E1
4.206839474E1,-2.220539331E0,2.541177750E0,1.600080490E1
4.208850537E1,-1.392024517E0,2.317448616E0,1.395494175E1
