"Time (s)","Acceleration x (m/s^2)","Acceleration y (m/s^2)","Acceleration z (m/s^2)"
1.472532400E-2,5.946164131E-1,3.023331404E0,9.399605751E0
3.483740700E-2,5.946164131E-1,3.096910715E0,9.333204269E0
5.494954200E-2,4.420739710E-1,3.090330362E0,9.312267303E0
7.506162600E-2,4.031906128E-1,3.073580742E0,9.381659508E0
9.517370900E-2,4.181457460E-1,3.132802963E0,9.424132347E0
1.152857920E-1,4.558327198E-1,3.214159012E0,9.291928291E0
1.353979280E-1,3.541377485E-1,3.175873756E0,9.189635277E0
1.555100110E-1,3.104687333E-1,3.156133175E0,9.414560318E0
1.756220950E-1,2.422732860E-1,3.302095175E0,9.733404160E0
1.957342300E-1,3.044866920E-1,3.218346357E0,9.530014038E0
2.158463130E-1,2.159522474E-1,3.291327477E0,9.364311218E0
2.359583970E-1,1.776670814E-1,3.347558975E0,9.165108681E0
2.560705320E-1,1.974078715E-1,3.405584812E0,9.068798065E0
2.761826150E-1,2.362912297E-1,3.422334671E0,9.223732948E0
2.962946990E-1,1.280160099E-1,3.418745279E0,9.428917885E0
3.164068340E-1,2.572284266E-2,3.331407309E0,9.468399048E0
3.365189170E-1,-5.443671346E-2,3.407379389E0,9.539586067E0
3.566310010E-1,4.785645287E-3,3.526422262E0,9.455238342E0
3.767430840E-1,4.067798331E-2,3.514458179E0,9.535398483E0
3.968552200E-1,9.332008660E-2,3.474976778E0,1.005523872E1
4.169673030E-1,2.452643216E-1,3.476771355E0,1.067258739E1
4.370793860E-1,2.596212626E-1,3.509672642E0,1.107398319E1
4.571914700E-1,3.026920557E-1,3.479762316E0,1.145862961E1
4.773036050E-1,3.637090325E-1,3.622135162E0,1.196590805E1
4.974156880E-1,2.105683982E-1,4.018745422E0,1.230987644E1
5.175277720E-1,6.640082598E-2,4.421936035E0,1.208674526E1
5.376398550E-1,5.706881881E-1,4.204189301E0,1.184327602E1
5.577519900E-1,1.756331801E0,3.397209883E0,1.291944790E1
5.778640740E-1,2.044068813E0,2.658426046E0,1.521356678E1
5.979761570E-1,6.825526357E-1,2.093121529E0,1.579741478E1
6.180882400E-1,-8.446664214E-1,2.066202402E0,1.353320694E1
6.382003760E-1,-1.528415442E0,2.491526604E0,1.084905815E1
6.583124590E-1,-1.336391449E0,2.767299414E0,9.102895737E0
6.784245420E-1,-3.655036688E-1,2.663809776E0,8.839086533E0
6.985366260E-1,5.509474277E-1,2.395215511E0,9.641280174E0
7.186487090E-1,5.048855543E-1,2.148754835E0,1.001515961E1
7.387607920E-1,-1.190429255E-1,1.992024899E0,9.672387123E0
7.588729280E-1,-4.773681164E-1,2.005185366E0,8.959924698E0
7.789850110E-1,-3.990031779E-1,2.089532375E0,8.542376518E0
7.990970950E-1,-3.427718580E-1,2.138585329E0,8.206783295E0
8.192091780E-1,-3.804588020E-1,2.164906263E0,7.759325504E0
8.393212610E-1,-4.372883439E-1,2.127219439E0,7.359724045E0
8.594333970E-1,-5.138586760E-1,1.998006940E0,6.971488953E0
8.795454800E-1,-6.197410822E-1,1.941775560E0,6.673582554E0
8.996575630E-1,-6.496513486E-1,1.875972986E0,6.342176437E0
9.197696470E-1,-7.381857634E-1,1.889731646E0,6.023931026E0
9.398817300E-1,-1.007378340E0,1.878963947E0,5.795416355E0
9.599938130E-1,-1.149153113E0,1.785045743E0,6.094519138E0
9.801059490E-1,-1.094716311E0,1.849053741E0,7.116852760E0
1.000218032E0,-8.524430394E-1,2.052443504E0,8.040482521E0
1.020330115E0,-4.857429862E-1,2.334796667E0,8.414361000E0
1.040442199E0,-2.452643216E-1,2.638685226E0,8.364709854E0
1.060554282E0,-6.879365444E-2,2.947359324E0,8.200202942E0
1.080666365E0,8.973085321E-3,3.194418192E0,8.362317085E0
1.100778449E0,-1.244267747E-1,3.288336515E0,9.061020851E0
1.120890584E0,-1.734796464E-1,3.212962627E0,1.010967541E1
1.141002667E0,2.811566554E-2,3.062813044E0,1.169910812E1
1.161114751E0,-4.486542568E-2,3.292523861E0,1.294217968E1
1.181226834E0,4.307080805E-2,3.375076294E0,1.323888969E1
1.201338917E0,8.093722463E-1,3.253640652E0,1.322513103E1
1.221451001E0,1.044467092E0,3.351148129E0,1.307318687E1
1.241563084E0,1.311266780E0,2.684746981E0,1.371625805E1
1.261675167E0,1.834098577E0,1.842473388E0,1.535773373E1
1.281787303E0,2.024926186E0,1.298106313E0,1.608096504E1
1.301899386E0,1.506281853E0,1.467996716E0,1.410090351E1
1.322011470E0,8.404789567E-1,2.102094650E0,1.086102200E1
1.342123553E0,8.362914920E-1,2.229512453E0,8.744570732E0
1.362235636E0,1.159920812E0,2.188834429E0,8.640482903E0
1.382347720E0,1.343569875E0,1.974078655E0,9.548559189E0
1.402459803E0,9.224331379E-1,1.736590981E0,9.333204269E0
1.422571886E0,4.719842672E-1,1.697109461E0,8.105088234E0
1.442683970E0,3.044866920E-1,1.776670814E0,6.924828529E0
1.462796053E0,3.672982752E-1,1.852044702E0,6.451648235E0
1.482908136E0,2.578266263E-1,1.983051777E0,6.409773827E0
1.503020220E0,1.016949639E-1,2.087737799E0,6.029314995E0
1.523132303E0,8.853443712E-2,2.160120726E0,5.665007591E0
1.543244386E0,1.597209126E-1,2.237289190E0,6.007779598E0
1.563356522E0,2.207378894E-1,1.997408748E0,6.783652306E0
1.583468605E0,1.782652885E-1,1.959721804E0,7.615158081E0
1.603580688E0,2.542374134E-1,2.175075769E0,8.060821533E0
1.623692772E0,4.510470629E-1,2.291725874E0,7.960920811E0
1.643804855E0,4.109672904E-1,2.411366940E0,7.768298626E0
1.663916938E0,3.032902777E-1,2.671586514E0,7.520043373E0
1.684029022E0,5.180460811E-1,3.102294445E0,7.308876991E0
1.704141105E0,7.812566161E-1,3.451048374E0,7.198208809E0
1.724253188E0,9.577272534E-1,3.669393539E0,7.479963779E0
1.744365272E0,9.409775138E-1,3.652643681E0,8.277970314E0
1.764477355E0,8.333004713E-1,3.562912941E0,9.958928108E0
1.784589438E0,5.934200287E-1,3.578466177E0,1.197129154E1
1.804701522E0,4.325026870E-1,3.411566973E0,1.317727470E1
1.824813605E0,7.848458290E-1,3.346362352E0,1.295175076E1
1.844925688E0,1.421336651E0,3.518645763E0,1.213639641E1
1.865037772E0,1.965105653E0,3.643072367E0,1.151426220E1
1.885149855E0,2.155933142E0,3.342175007E0,1.137069321E1
1.905261938E0,1.851446509E0,2.583650351E0,1.260838032E1
1.925374022E0,6.275177598E-1,2.073979139E0,1.426481247E1
1.945486105E0,-5.641079545E-1,1.747358680E0,1.398485184E1
1.965598188E0,-8.464609981E-1,1.564906001E0,1.246720409E1
1.985710272E0,-4.157529473E-1,1.372882009E0,1.169133186E1
2.005822355E0,8.494520187E-2,1.215553880E0,1.201854992E1
2.025934438E0,-2.087737769E-1,1.174875975E0,1.198923779E1
2.046046522E0,-7.716853023E-1,1.197009563E0,1.125583744E1
2.066158553E0,-9.014959335E-1,1.424327731E0,1.045962620E1
2.086270636E0,-5.455635786E-1,1.521237016E0,9.803394318E0
2.106382720E0,1.316052489E-2,1.339382529E0,9.437891006E0
2.126494803E0,4.211367965E-1,1.128814101E0,9.354142189E0
2.146606886E0,4.091726840E-1,9.732806087E-1,8.961718559E0
2.166718970E0,2.273181453E-2,9.613165259E-1,7.987242222E0
2.186831053E0,-3.367897868E-1,1.129412293E0,6.981060028E0
2.206943136E0,-5.455635786E-1,1.387238979E0,6.550352097E0
2.227055220E0,-5.377869010E-1,1.342373490E0,6.725626469E0
2.247167303E0,-4.887340367E-1,1.312463164E0,7.144968510E0
2.267279386E0,-4.911268353E-1,1.287936807E0,7.378866673E0
2.287391470E0,-5.581258535E-1,1.618146300E0,7.204789162E0
2.307503553E0,-2.973082066E-1,1.817947030E0,7.444071293E0
2.327615584E0,-1.238285750E-1,2.096710920E0,7.558328629E0
2.347727667E0,-2.470589429E-1,2.727817774E0,6.738786697E0
2.367839751E0,-1.818545163E-1,3.243471146E0,5.933003902E0
2.387951834E0,1.298106313E-1,3.567698479E0,6.532405853E0
2.408063917E0,4.127618968E-1,3.687937975E0,8.434102058E0
2.428176001E0,5.078766346E-1,3.708875179E0,1.059003448E1
2.448288084E0,-2.596212626E-1,3.848855257E0,1.116251755E1
2.468400167E0,-9.822536707E-1,3.920639992E0,1.078624630E1
2.488512251E0,-1.168893814E0,3.842274904E0,1.073898792E1
2.508624282E0,-8.644071817E-1,3.804588079E0,1.150289631E1
2.528736365E0,-2.727817893E-1,4.009772778E0,1.219083309E1
2.548848449E0,4.600201547E-1,3.945764542E0,1.200658607E1
2.568960532E0,7.034898400E-1,3.512663603E0,1.196351528E1
2.589072615E0,2.165504545E-1,2.931207657E0,1.269512081E1
2.609184699E0,2.039881349E-1,2.121237278E0,1.337408352E1
2.629296782E0,5.730810165E-1,1.823330879E0,1.340519047E1
2.649408865E0,1.007976532E0,1.823330879E0,1.273340607E1
2.669520897E0,1.277169108E0,1.764108539E0,1.184566879E1
2.689632980E0,1.349551916E0,1.487737536E0,1.111226845E1
2.709745063E0,1.505683661E0,1.093519926E0,1.142453194E1
2.729857147E0,1.296311617E0,1.047458172E0,1.164826107E1
2.749969230E0,8.321040869E-1,1.124626637E0,1.055354404E1
2.770081313E0,3.158525825E-1,1.258026481E0,8.684151649E0
2.790193345E0,9.332008660E-2,1.337587833E0,7.051648140E0
2.810305428E0,7.058826834E-2,1.473978758E0,6.110072613E0
2.830417511E0,-4.965107143E-2,1.647458434E0,5.625525951E0
2.850529595E0,-1.698904037E-1,1.852642894E0,5.405386448E0
2.870641678E0,-3.553341627E-1,2.056631088E0,5.343173027E0
2.890753761E0,-4.079762697E-1,2.164308071E0,5.522634506E0
2.910865792E0,-2.327020019E-1,2.278565407E0,6.160321712E0
2.930977876E0,2.548356056E-1,2.298306227E0,7.106683254E0
2.951089959E0,6.999006271E-1,2.334198475E0,7.845467091E0
2.971202042E0,6.215356588E-1,2.616551638E0,8.362317085E0
2.991314126E0,1.489532143E-1,2.845066071E0,8.234300613E0
3.011426157E0,2.273181453E-2,2.962314367E0,8.108079910E0
3.031538240E0,1.884347796E-1,3.098107100E0,8.636295319E0
3.051650324E0,5.060819983E-1,3.132802963E0,9.409774780E0
3.071762407E0,7.914260626E-1,3.236292601E0,1.062951660E1
3.091874438E0,7.567301393E-1,3.271586657E0,1.197966671E1
3.111986522E0,4.271188378E-1,3.128615618E0,1.324905872E1
3.132098605E0,-2.189432681E-1,3.159124136E0,1.382931805E1
3.152210688E0,-7.334001660E-1,3.566502094E0,1.322393417E1
3.172322772E0,-6.610172391E-1,3.845266104E0,1.257906818E1
3.192434803E0,-2.512463741E-2,3.059223652E0,1.346261883E1
3.212546886E0,5.347958803E-1,1.861616015E0,1.592961884E1
3.232658970E0,1.651047617E-1,1.206580877E0,1.704287910E1
3.252771053E0,-1.167099237E0,1.585245013E0,1.400279808E1
3.272883084E0,-1.883151412E0,2.147558212E0,9.909276962E0
3.292995167E0,-1.616351724E0,2.078166485E0,7.676773071E0
3.313107251E0,-8.506484628E-1,1.668993831E0,8.166105270E0
3.333219334E0,-5.940182209E-1,1.162313581E0,9.676574707E0
3.353331365E0,-7.280163169E-1,6.873382926E-1,1.000798035E1
3.373443449E0,-7.088736892E-1,5.700899959E-1,9.105886459E0
3.393555532E0,-3.876372576E-1,7.471588850E-1,8.025527000E0
3.413667615E0,-4.067798331E-2,1.042074203E0,6.818347931E0
3.433779647E0,1.968096644E-1,1.314856052E0,5.740979671E0
3.453891730E0,2.123630047E-1,1.485942841E0,5.027320385E0
3.474003813E0,-5.982056633E-2,1.591227055E0,4.817350388E0
3.494115845E0,-4.821537733E-1,1.992623091E0,5.304887772E0
3.514227928E0,-6.526423693E-1,2.441277266E0,6.376872540E0
3.534340011E0,-4.277170599E-1,2.560320139E0,7.811967850E0
3.554452095E0,8.913264424E-2,2.518445730E0,9.173483849E0
3.574564126E0,4.199403822E-1,2.654238462E0,9.757332802E0
3.594676209E0,4.528416991E-1,2.600998163E0,9.697511673E0
3.614788292E0,6.903293133E-1,2.265404940E0,1.036151981E1
3.634900376E0,1.121037364E0,2.007578135E0,1.179123211E1
3.655012407E0,1.267597795E0,2.166102648E0,1.301695538E1
3.675124490E0,1.558325768E0,2.472982168E0,1.258445263E1
3.695236574E0,2.038684845E0,3.169891834E0,1.108833981E1
3.715348605E0,2.429313183E0,3.418745279E0,9.760921478E0
3.735460688E0,2.816950560E0,2.629712105E0,1.024307537E1
3.755572772E0,2.972483873E0,1.515853167E0,1.312343597E1
3.775684803E0,2.505883455E0,8.769695163E-1,1.570708561E1
3.795796886E0,1.217348576E0,1.103689432E0,1.522014618E1
3.815908970E0,4.773681164E-1,1.816750646E0,1.196471119E1
3.836021001E0,6.885347366E-1,2.087737799E0,8.595617294E0
3.856133084E0,1.914856315E0,1.887338877E0,7.405188084E0
3.876245167E0,2.667398930E0,1.828116536E0,8.695517540E0
3.896357199E0,1.939980984E0,1.628315806E0,9.798608780E0
3.916469282E0,8.207381964E-1,1.482353687E0,9.049057007E0
3.936581365E0,1.800599098E-1,1.709073544E0,7.481160164E0
3.956693397E0,1.471585929E-1,1.926820397E0,6.160321712E0
3.976805480E0,5.527420044E-1,2.038684845E0,5.824728489E0
3.996917563E0,9.936196208E-1,1.877169371E0,6.301498413E0
4.017029595E0,9.756734371E-1,1.542174220E0,7.099504948E0
4.037141678E0,5.509474277E-1,1.532004714E0,7.572087288E0
4.057253709E0,2.638086975E-1,1.834696770E0,7.530810833E0
4.077365792E0,4.432703853E-1,2.160120726E0,6.999604225E0
4.097477876E0,1.058225870E0,2.411965132E0,6.720840454E0
4.117589907E0,1.398604870E0,2.685943365E0,7.265805721E0
4.137701990E0,1.234098315E0,2.863610506E0,8.114660263E0
4.157814074E0,8.111668825E-1,2.849851847E0,8.936594009E0
4.177926105E0,2.530409992E-1,2.944966555E0,9.382257462E0
4.198038188E0,-1.136590727E-2,3.064607620E0,1.005882835E1
4.218150272E0,4.785645381E-2,3.195016384E0,1.117747307E1
4.238262303E0,2.847459018E-1,3.436691523E0,1.199043465E1
4.258374386E0,4.588237405E-1,3.711866140E0,1.218784237E1
4.278486417E0,4.977070987E-1,3.741178274E0,1.266640663E1
4.298598501E0,2.392822644E-3,3.826123476E0,1.341236877E1
4.318710532E0,-1.537388563E-1,3.333201885E0,1.396331692E1
4.338822615E0,9.750752151E-2,2.617748022E0,1.449093437E1
4.358934699E0,2.189432681E-1,2.204986095E0,1.473500156E1
4.379046730E0,-4.492524564E-1,2.144567251E0,1.375274849E1
4.399158813E0,-1.210768223E0,2.204986095E0,1.193480110E1
4.419270845E0,-1.371087432E0,1.974676847E0,1.053081226E1
4.439382928E0,-9.409775138E-1,1.606780410E0,9.993623734E0
4.459495011E0,-4.181457460E-1,1.306481123E0,9.807581902E0
4.479607042E0,-3.547359705E-1,1.182652593E0,9.111868858E0
4.499719126E0,-5.467599630E-1,1.116251707E0,7.914260864E0
4.519831157E0,-6.747759581E-1,1.185045362E0,6.770491600E0
4.539943240E0,-4.618147612E-1,1.254437327E0,6.084948063E0
4.560055324E0,-4.366901144E-2,1.217348576E0,5.964110374E0
4.580167355E0,2.350948304E-1,1.264606714E0,5.933003902E0
4.600279386E0,1.501496136E-1,1.250848055E0,5.815157413E0
4.620391470E0,-1.256231815E-1,1.201795220E0,5.941977024E0
4.640503553E0,-2.356930375E-1,1.394417405E0,6.278766632E0
4.660615584E0,-1.136590764E-1,1.860419631E0,6.402595043E0
4.680727667E0,1.136590764E-1,2.541177750E0,6.201598167E0
4.700839699E0,2.799602449E-1,2.994019270E0,5.794219971E0
4.720951782E0,5.712863803E-1,2.982055187E0,6.004190445E0
4.741063813E0,8.374879360E-1,2.761915445E0,7.537391186E0
4.761175897E0,8.225327730E-1,2.450848579E0,1.018146038E1
4.781287928E0,5.778666735E-1,2.210369825E0,1.230927753E1
4.801400011E0,3.062812984E-1,2.270190477E0,1.264008522E1
4.821512095E0,3.445664644E-1,2.434697151E0,1.221416283E1
4.841624126E0,2.715853751E-1,3.055634499E0,1.220399380E1
4.861736209E0,6.819544435E-1,2.952144861E0,1.212024498E1
4.881848240E0,1.727617979E0,2.443071842E0,1.202572823E1
4.901960324E0,2.496910334E0,2.670988321E0,1.180977631E1
4.922072355E0,3.763311863E0,2.410170555E0,1.174277687E1
4.942184438E0,4.219144344E0,1.885544300E0,1.295833111E1
4.962296470E0,3.342773199E0,1.473380566E0,1.446222019E1
4.982408553E0,1.933400750E0,1.493719578E0,1.417149258E1
5.002520584E0,1.289133191E0,1.632503271E0,1.255992603E1
5.022632667E0,1.626521230E0,1.988435626E0,1.135035419E1
5.042744699E0,2.335394859E0,2.331805706E0,1.088794136E1
5.062856782E0,2.812762976E0,2.328814745E0,1.065763187E1
5.082968813E0,2.491526604E0,2.222932339E0,1.043509960E1
5.103080897E0,1.844268084E0,1.975275040E0,9.918250084E0
5.123192928E0,1.244866014E0,1.786840320E0,9.131608963E0
5.143305011E0,7.645068169E-1,1.768295884E0,8.374280930E0
5.163417042E0,4.971089065E-1,1.818545222E0,7.725227833E0
5.183529126E0,3.314059377E-1,1.972882271E0,6.796812534E0
5.203641157E0,1.561316848E-1,2.221735716E0,5.759523869E0
5.223753240E0,1.746760458E-1,2.472982168E0,5.218147755E0
5.243865272E0,3.326023519E-1,2.472982168E0,5.423332691E0
5.263977355E0,6.963114142E-1,2.141576290E0,6.475576401E0
5.284089386E0,8.895317912E-1,1.963909149E0,7.546364307E0
5.304201470E0,8.632107973E-1,1.914258122E0,8.116454124E0
5.324313501E0,6.927221417E-1,1.979462504E0,7.925028801E0
5.344425584E0,4.331009090E-1,2.306680918E0,7.159325123E0
5.364537615E0,3.433700502E-1,2.751745939E0,6.534798622E0
5.384649699E0,5.294120312E-1,3.013760090E0,6.233303070E0
5.404761730E0,6.628118753E-1,3.217149973E0,6.601797581E0
5.424873813E0,7.507480979E-1,3.301496983E0,7.610372543E0
5.444985845E0,7.914260626E-1,3.293720484E0,8.655437469E0
5.465097928E0,8.069794178E-1,3.285943747E0,9.559925079E0
5.485209959E0,8.751748800E-1,3.299702406E0,1.024487019E1
5.505321990E0,9.720842242E-1,3.165704250E0,1.094178009E1
5.525434074E0,9.996016622E-1,2.914458036E0,1.211186981E1
5.545546105E0,5.288137794E-1,2.743969440E0,1.342852020E1
5.565658188E0,-2.021935135E-1,2.720041037E0,1.351107311E1
5.585770220E0,-2.147558331E-1,3.214159012E0,1.255932808E1
5.605882303E0,4.516452849E-1,3.687937975E0,1.196531010E1
5.625994334E0,1.721635938E0,3.251247883E0,1.274776268E1
5.646106417E0,2.292324066E0,2.384447813E0,1.425643730E1
5.666218449E0,1.584646821E0,1.652842283E0,1.516570950E1
5.686330480E0,4.007977992E-2,1.428515077E0,1.400399494E1
5.706442563E0,-9.810572863E-1,1.579262972E0,1.240798187E1
5.726554595E0,-8.452646136E-1,1.715653777E0,1.166979599E1
5.746666678E0,2.273181453E-2,1.530210137E0,1.166261768E1
5.766778709E0,3.487538993E-1,1.170090318E0,1.180558872E1
5.786890792E0,-1.034895778E-1,9.726824164E-1,1.150947666E1
5.807002824E0,-5.234299302E-1,9.272187948E-1,1.088674450E1
5.827114855E0,-5.144568682E-1,1.044467092E0,9.981659889E0
5.847226938E0,-9.810572863E-2,1.267597795E0,8.968298912E0
5.867338970E0,1.333998591E-1,1.411167145E0,7.692326546E0
5.887451053E0,1.256231815E-1,1.482353687E0,6.548557281E0
5.907563084E0,1.585244983E-1,1.456630826E0,5.920441628E0
5.927675115E0,1.489532143E-1,1.545165181E0,5.768496990E0
5.947787199E0,-7.657032460E-2,1.607378602E0,5.726622581E0
5.967899230E0,-2.644068897E-1,1.636690736E0,5.933003902E0
5.988011313E0,-3.720839322E-1,1.682752490E0,6.340980053E0
6.008123345E0,-3.104687333E-1,1.731207132E0,6.671189308E0
6.028235376E0,-2.416750938E-1,1.883151412E0,6.919445038E0
6.048347459E0,-2.033899277E-1,2.045863390E0,6.988238335E0
6.068459490E0,-2.099701911E-1,2.200200319E0,6.986443996E0
6.088571574E0,-9.631111473E-2,2.225923300E0,7.112067223E0
6.108683605E0,-7.716853172E-2,2.260020971E0,7.243073940E0
6.128795688E0,-2.512463629E-1,2.455035925E0,7.451249599E0
6.148907720E0,-4.576273263E-1,2.660220623E0,7.561319351E0
6.169019751E0,-6.598208547E-1,2.846860647E0,7.689933777E0
6.189131834E0,-8.554341197E-1,3.044268608E0,8.281558990E0
6.209243865E0,-1.018744230E0,3.278765202E0,9.294321060E0
6.229355897E0,-9.439685345E-1,3.497110367E0,1.016291618E1
6.249467980E0,-5.389832854E-1,3.780659676E0,1.080838013E1
6.269580011E0,-4.067798331E-2,3.820739508E0,1.146820068E1
6.289692095E0,2.147558331E-1,3.651447296E0,1.249173069E1
6.309804126E0,1.561316848E-1,3.598805189E0,1.323948765E1
6.329916157E0,5.084748194E-2,3.650250912E0,1.300080395E1
6.350028240E0,3.427718580E-1,3.332005501E0,1.294098282E1
6.370140272E0,4.187439680E-1,2.730210543E0,1.368156147E1
6.390252303E0,1.848455518E-1,2.103291035E0,1.448973751E1
6.410364386E0,3.529413342E-1,1.615155339E0,1.496710587E1
6.430476417E0,1.117448211E0,1.364507079E0,1.454836178E1
6.450588501E0,1.633101463E0,1.469193101E0,1.319641685E1
6.470700532E0,1.429113269E0,1.418943882E0,1.192642593E1
6.490812563E0,1.369292736E0,9.864411354E-1,1.176790142E1
6.510924647E0,1.500898004E0,7.417750359E-1,1.234875965E1
6.531036678E0,1.644467354E0,5.982056856E-1,1.213998604E1
6.551148709E0,1.565504193E0,6.957131624E-1,1.088375378E1
6.571260792E0,1.281954765E0,9.517452121E-1,9.394221306E0
6.591372824E0,8.859425783E-1,1.070189953E0,7.999804497E0
6.611484855E0,6.167500615E-1,9.900303483E-1,7.262216568E0
6.631596938E0,5.012963414E-1,9.631111026E-1,7.214958668E0
6.651708970E0,4.348955154E-1,1.019940615E0,7.191030025E0
6.671821001E0,2.368894368E-1,1.191027522E0,6.807580471E0
6.691933084E0,-5.383851007E-3,1.433300734E0,6.102894306E0
6.712045115E0,-9.690931439E-2,1.627717614E0,5.584847927E0
6.732157147E0,-1.052841991E-1,1.895115495E0,5.645864964E0
6.752269230E0,-8.315058798E-2,1.814357758E0,6.488736629E0
6.772381261E0,-2.452643216E-1,1.558923960E0,7.861020565E0
6.792493292E0,-7.232306600E-1,1.855035782E0,8.760722160E0
6.812605376E0,-6.568298340E-1,2.254039049E0,8.194221497E0
6.832717407E0,-3.050848842E-2,2.644068956E0,6.511468410E0
6.852829438E0,1.003190875E0,2.915056229E0,5.865406513E0
6.872941522E0,1.666600943E0,2.776870728E0,7.126423836E0
6.893053553E0,1.557129383E0,2.461616278E0,9.200403214E0
6.913165584E0,8.608179688E-1,2.243869543E0,1.083470058E1
6.933277667E0,9.391828626E-2,2.091925144E0,1.141256714E1
6.953389699E0,-3.146561682E-1,2.190629244E0,1.092682457E1
6.973501730E0,-4.725824669E-2,2.586043119E0,1.046800041E1
6.993613813E0,1.322034448E-1,3.215355396E0,1.003250694E1
7.013725845E0,3.577269912E-1,3.352942705E0,1.020120144E1
7.033837876E0,9.266205430E-1,3.156731367E0,1.104048347E1
7.053949959E0,1.171286702E0,2.825923443E0,1.228654575E1
7.074061990E0,8.805587292E-1,2.243869543E0,1.353918839E1
7.094174022E0,3.595215976E-1,1.762912035E0,1.474337673E1
7.114286105E0,1.375873014E-2,1.445863128E0,1.554138279E1
7.134398136E0,-3.750749528E-1,1.331605792E0,1.487797260E1
7.154510167E0,-7.585247755E-1,1.618146300E0,1.307438278E1
7.174622199E0,-9.792626500E-1,2.081755638E0,1.116550827E1
7.194734282E0,-9.559326172E-1,2.148156643E0,9.850652695E0
7.214846313E0,-5.820540786E-1,1.829911113E0,9.827322960E0
7.234958345E0,-2.997010350E-1,1.516451359E0,1.050508976E1
7.255070428E0,-1.591227055E-1,1.213161111E0,1.053858948E1
7.275182459E0,-1.351944804E-1,1.018744230E0,9.772886276E0
7.295294490E0,-2.027917206E-1,9.906286001E-1,8.891729355E0
7.315406574E0,-2.979064286E-1,1.022333503E0,7.666603565E0
7.335518605E0,-4.211367965E-1,1.089332461E0,6.210571289E0
7.355630636E0,-4.959124923E-1,1.258624673E0,5.253442287E0
7.375742667E0,-6.251249313E-1,1.447059512E0,4.866403103E0
7.395854751E0,-6.909275651E-1,1.496710539E0,4.966303349E0
7.415966782E0,-5.467599630E-1,1.648654819E0,5.541179180E0
7.436078813E0,-3.290131092E-1,1.908874273E0,6.032904148E0
7.456190897E0,-1.567298770E-1,2.130808592E0,6.400800705E0
7.476302928E0,-2.560320199E-1,2.343769789E0,6.841678143E0
7.496414959E0,-2.775674164E-1,2.386242390E0,7.631907940E0
7.516526990E0,-1.633101404E-1,2.370688915E0,8.740981102E0
7.536639074E0,-9.032905847E-2,2.434697151E0,9.551549911E0
7.556751105E0,2.033899166E-2,2.451446772E0,1.017188931E1
7.576863136E0,1.028913707E-1,2.414956331E0,1.065523911E1
7.596975167E0,6.879365444E-2,2.346760750E0,1.129950714E1
7.617087251E0,-2.596212626E-1,2.295315027E0,1.211785221E1
7.637199282E0,-9.008977413E-1,2.691925526E0,1.257428265E1
7.657311313E0,-5.413761139E-1,2.997010469E0,1.202871990E1
7.677423345E0,1.089930773E0,2.650649309E0,1.164287663E1
7.697535428E0,2.459223509E0,2.634497643E0,1.164526939E1
7.717647459E0,2.857030153E0,2.532802820E0,1.192403316E1
7.737759490E0,2.536391973E0,2.268994093E0,1.301396370E1
7.757871574E0,1.964507341E0,1.811964989E0,1.395673656E1
7.777983605E0,1.618146300E0,1.289133191E0,1.430728436E1
7.798095636E0,1.739582062E0,1.298704505E0,1.406620789E1
7.818207667E0,1.814955950E0,1.834696770E0,1.278724384E1
7.838319751E0,1.672582984E0,2.228914261E0,1.114995575E1
7.858431782E0,1.551147223E0,2.158325911E0,1.015992451E1
7.878543813E0,1.314257860E0,1.984846354E0,1.016710377E1
7.898655845E0,1.060618639E0,1.756929994E0,1.014377308E1
7.918767928E0,8.135597110E-1,1.577468276E0,9.421140671E0
7.938879959E0,5.072783828E-1,1.489532113E0,8.120043755E0
7.958991990E0,3.134597540E-1,1.500299811E0,6.873383045E0
7.979104022E0,2.201396823E-1,1.624726534E0,6.011368752E0
7.999216105E0,7.597211748E-2,1.731207132E0,5.377869129E0
8.019328136E0,-9.032905847E-2,1.878365755E0,4.654638290E0
8.039440167E0,-4.785645381E-2,1.959721804E0,4.408177376E0
8.059552199E0,2.303091735E-1,1.878963947E0,5.595615864E0
8.079664282E0,3.888336942E-2,2.051247120E0,7.382455826E0
8.099776313E0,-7.633104324E-1,2.505883455E0,8.242077827E0
8.119888345E0,-1.298106313E0,2.997608662E0,7.182655334E0
8.140000376E0,-6.191428304E-1,3.319443226E0,6.515058041E0
8.160112459E0,7.052844763E-1,3.151945591E0,7.637291908E0
8.180224490E0,1.524826288E0,2.706282377E0,9.675378799E0
8.200336522E0,1.343569875E0,2.638685226E0,1.093161011E1
8.220448553E0,3.098705411E-1,2.868396044E0,1.077488041E1
8.240560584E0,-5.437689424E-1,3.028116941E0,1.026401234E1
8.260672667E0,-5.772684813E-1,3.220141172E0,1.056730270E1
8.280784699E0,-1.974078640E-2,3.616751432E0,1.115593719E1
8.300896730E0,4.444667995E-1,3.742374659E0,1.151904774E1
8.321008761E0,4.911268353E-1,3.705883980E0,1.223270798E1
8.341120845E0,8.853443712E-2,3.400799274E0,1.285723400E1
8.361232876E0,-4.845465720E-2,2.533401012E0,1.327956772E1
8.381344907E0,6.161518395E-2,1.768894196E0,1.463629818E1
8.401456938E0,4.965107143E-2,1.230509043E0,1.591526127E1
8.421568970E0,-4.833501875E-1,1.286740422E0,1.463450336E1
8.441681053E0,-1.052842021E0,1.697109461E0,1.190788174E1
8.461793084E0,-9.589236975E-1,1.867598057E0,1.021137047E1
8.481905115E0,-1.663011760E-1,1.753939033E0,9.973284721E0
8.502017147E0,2.404786795E-1,1.507478237E0,1.063789082E1
8.522129230E0,-3.535395563E-1,1.180858016E0,1.067797089E1
8.542241261E0,-8.919246197E-1,8.715856671E-1,9.784850121E0
8.562353292E0,-9.529415965E-1,9.529415965E-1,8.504690170E0
8.582465324E0,-7.543373108E-1,1.129412293E0,7.448258877E0
8.602577355E0,-4.875376225E-1,1.273579836E0,6.697510719E0
8.622689438E0,-2.685943544E-1,1.409372568E0,6.003592014E0
8.642801470E0,-1.256231815E-1,1.480558991E0,5.326423168E0
8.662913501E0,-5.383851007E-3,1.602592945E0,4.884349346E0
8.683025532E0,-2.273181453E-2,1.810768485E0,4.961517811E0
8.703137563E0,-2.075773627E-1,2.018345833E0,5.475376606E0
8.723249647E0,-2.823530734E-1,2.181656122E0,5.967101574E0
8.743361678E0,-4.827519655E-1,2.498705149E0,6.272784710E0
8.763473709E0,-3.242274821E-1,2.624926329E0,7.007979393E0
8.783585740E0,4.546362907E-2,2.712264538E0,8.113463402E0
8.803697772E0,3.122633696E-1,2.970689297E0,8.998209953E0
8.823809855E0,2.362912297E-1,3.047259569E0,9.308079720E0
8.843921886E0,-2.081755698E-1,3.035295486E0,9.558130264E0
8.864033917E0,-4.528416991E-1,2.892324448E0,1.042373371E1
8.884145949E0,-4.348955154E-1,2.715853691E0,1.169133186E1
8.904257980E0,-6.669993401E-1,2.810968399E0,1.222253799E1
8.924370063E0,-9.475577474E-1,3.251846075E0,1.159322548E1
8.944482095E0,-3.529413342E-1,3.471387386E0,1.091127110E1
8.964594126E0,4.025924206E-1,3.230310678E0,1.147478104E1
8.984706157E0,1.627119333E-1,3.073580742E0,1.319581890E1
9.004818188E0,-5.922235921E-2,2.528017044E0,1.458604908E1
9.024930220E0,1.028913707E-1,2.009970903E0,1.512204075E1
9.045042303E0,6.023930907E-1,1.616351724E0,1.480319691E1
9.065154334E0,1.083948612E0,1.378864050E0,1.415713501E1
9.085266365E0,1.103091240E0,1.421934843E0,1.311207008E1
9.105378397E0,5.539384484E-1,1.643869162E0,1.182054424E1
9.125490428E0,4.067798331E-2,1.683350682E0,1.077428246E1
9.145602459E0,1.992024779E-1,1.713859200E0,1.013180923E1
9.165714542E0,7.262216806E-1,1.674377680E0,9.547960281E0
9.185826574E0,8.518448472E-1,1.601994753E0,8.697312355E0
9.205938605E0,5.306084156E-1,1.451845169E0,7.820342541E0
9.226050636E0,4.845465720E-2,1.410568953E0,7.112067223E0
9.246162667E0,-2.584248483E-1,1.507478237E0,6.571887493E0
9.266274751E0,-3.176472187E-1,1.633101463E0,6.007181168E0
9.286386782E0,-3.008974493E-1,1.776670814E0,5.459823132E0
9.306498813E0,-3.589234054E-1,1.881955028E0,5.175675392E0
9.326610845E0,-3.523431420E-1,1.922034740E0,5.319244862E0
9.346722876E0,-4.372883439E-1,1.943570137E0,5.737390518E0
9.366834907E0,-4.516452849E-1,2.046461582E0,6.013163090E0
9.386946938E0,-4.612165689E-1,2.311466694E0,6.232106686E0
9.407059022E0,-4.486542344E-1,2.632703066E0,6.745367050E0
9.427171053E0,-2.009970993E-1,2.831905603E0,7.705487251E0
9.447283084E0,2.201396823E-1,2.756531715E0,8.931808472E0
9.467395115E0,4.139583111E-1,2.768495798E0,1.007856941E1
9.487507147E0,2.111666054E-1,2.848057270E0,1.033878803E1
9.507619178E0,-1.639083475E-1,2.834298372E0,9.988838196E0
9.527731209E0,-4.438686073E-1,2.949752092E0,1.046859932E1
9.547843292E0,-6.059823632E-1,3.198007345E0,1.148315620E1
9.567955324E0,-6.448656917E-1,3.306282759E0,1.222014523E1
9.588067355E0,-5.503492355E-1,3.322434187E0,1.256411362E1
9.608179386E0,-1.818545163E-1,3.174677372E0,1.273998642E1
9.628291417E0,-1.651047617E-1,3.117249727E0,1.300618744E1
9.648403449E0,-2.667997181E-1,2.826521635E0,1.346321678E1
9.668515480E0,-1.986042857E-1,2.292922258E0,1.412722492E1
9.688627563E0,-2.458625287E-1,1.835893154E0,1.468894005E1
9.708739595E0,-8.111668825E-1,1.440479279E0,1.422174168E1
9.728851626E0,-1.792822361E0,1.419542074E0,1.256530952E1
9.748963657E0,-2.405983210E0,1.617548108E0,1.085145092E1
9.769075688E0,-2.415554523E0,1.652842283E0,9.729815483E0
9.789187720E0,-1.720439434E0,1.509272933E0,9.584450722E0
9.809299751E0,-8.189435601E-1,1.337587833E0,9.798010826E0
9.829411834E0,-6.209374666E-1,1.238285661E0,9.463015556E0
9.849523865E0,-8.614161611E-1,1.099501967E0,8.956335068E0
9.869635897E0,-8.997012973E-1,1.078564763E0,8.684151649E0
9.889747928E0,-6.819544435E-1,1.134796143E0,8.190033913E0
9.909859959E0,-3.517449200E-1,1.212562919E0,7.426125050E0
9.929971990E0,-7.597211748E-2,1.307677627E0,6.622136593E0
9.950084022E0,3.050848842E-2,1.436291814E0,6.122634888E0
9.970196053E0,-1.333998591E-1,1.581057549E0,5.812764645E0
9.990308136E0,-4.043870270E-1,1.783849239E0,5.697908878E0
1.001042017E1,-4.151547253E-1,1.832303882E0,5.914459229E0
1.003053220E1,-3.044866920E-1,1.864607096E0,6.478567123E0
1.005064423E1,-3.080759048E-1,2.056032896E0,7.046264648E0
1.007075626E1,-3.032902777E-1,2.204986095E0,7.679764271E0
1.009086829E1,-8.075776696E-2,2.260619164E0,8.670990944E0
1.011098032E1,1.298106313E-1,2.306082726E0,9.643074989E0
1.013109236E1,2.093719840E-1,2.323430777E0,9.954740524E0
1.015120439E1,-1.794617064E-2,2.292324066E0,9.810572624E0
1.017131647E1,-1.680957973E-1,2.211566210E0,1.033998489E1
1.019142850E1,-2.147558331E-1,2.213959217E0,1.134497070E1
1.021154053E1,-4.642075896E-1,2.333600283E0,1.227757263E1
1.023165256E1,-8.285148144E-1,2.706880569E0,1.195633698E1
1.025176460E1,-4.755735099E-1,2.757129908E0,1.070548820E1
1.027187663E1,1.734796464E-1,2.331207514E0,1.044167995E1
1.029198866E1,6.424728632E-1,1.987239242E0,1.215853024E1
1.031210069E1,1.177866936E0,1.407577872E0,1.467757416E1
1.033221272E1,1.341177106E0,1.208375454E0,1.613599968E1
1.035232475E1,1.271785259E0,1.603191137E0,1.486361599E1
1.037243683E1,1.577468276E0,2.152343988E0,1.238225937E1
1.039254886E1,2.125424623E0,2.476571321E0,1.076530933E1
1.041266090E1,2.290529490E0,2.617748022E0,1.020718288E1
1.043277293E1,2.050050735E0,2.422732830E0,1.028315544E1
1.045288496E1,1.496710539E0,1.986042738E0,1.020957565E1
1.047299699E1,9.672985673E-1,1.561915040E0,9.917053223E0
1.049310902E1,7.280163169E-1,1.383051515E0,9.312865257E0
1.051322105E1,5.647061467E-1,1.311864972E0,8.367102623E0
1.053333308E1,3.577269912E-1,1.283151150E0,7.474579811E0
1.055344517E1,3.355933726E-1,1.295115232E0,7.134200573E0
1.057355720E1,2.667997181E-1,1.395015597E0,6.957729816E0
1.059366923E1,-6.281159073E-2,1.620539188E0,6.180062771E0
1.061378126E1,-1.770688742E-1,1.929811478E0,5.237888813E0
1.063389329E1,-1.100698411E-1,2.227717876E0,4.908875465E0
1.065400532E1,1.010967568E-1,2.385046005E0,5.763113499E0
1.067411736E1,4.348955154E-1,2.359921217E0,7.128817081E0
1.069422939E1,5.946164131E-1,2.392822742E0,8.198408127E0
1.071434142E1,3.158525825E-1,2.623729944E0,8.398209572E0
1.073445345E1,-6.580262445E-3,2.813959360E0,7.765307903E0
1.075456548E1,7.716853172E-2,2.848655462E0,7.798807144E0
1.077467751E1,3.667000830E-1,2.734996319E0,8.790034294E0
1.079478954E1,4.773681164E-1,2.664407969E0,1.002712345E1
1.081490163E1,7.477571070E-2,2.713460922E0,1.105304623E1
1.083501366E1,-4.127618968E-1,2.814557552E0,1.115174961E1
1.085512569E1,-3.427718580E-1,2.818146944E0,1.104227829E1
1.087523772E1,-4.396811724E-1,2.662613392E0,1.188933754E1
1.089534975E1,-1.467398524E0,2.235494614E0,1.365404415E1
1.091546178E1,-2.105684042E0,2.257030010E0,1.430070496E1
1.093557381E1,-1.229910851E0,2.821736097E0,1.311565876E1
1.095568585E1,3.062812984E-1,3.051447153E0,1.263769245E1
1.097579788E1,1.496710539E0,2.757728100E0,1.396032524E1
1.099590991E1,1.298106313E0,2.133799553E0,1.556590939E1
1.101602194E1,-2.614158690E-1,1.680957913E0,1.502273846E1
1.103613397E1,-1.406381488E0,1.892124534E0,1.254616737E1
1.105624600E1,-1.640279889E0,2.281556368E0,9.697511673E0
1.107635808E1,-1.292124271E0,2.484348059E0,8.083553314E0
1.109647012E1,-5.563312769E-1,2.285743713E0,8.155337334E0
1.111658215E1,1.196411327E-1,1.922633052E0,8.748159409E0
1.113669418E1,4.402793646E-1,1.576870084E0,8.818149567E0
1.115680621E1,3.684946895E-1,1.365105271E0,8.379665375E0
1.117691824E1,-6.400800496E-2,1.292124271E0,8.252246857E0
1.119703027E1,-2.602194548E-1,1.198804140E0,7.901698589E0
1.121714230E1,-1.226321608E-1,1.326820135E0,7.072585583E0
1.123725433E1,-7.776673418E-3,1.594816327E0,5.983851433E0
1.125736637E1,-3.266202807E-1,1.768295884E0,5.284548759E0
1.127747840E1,-7.040880919E-1,1.640279889E0,5.657829285E0
1.129759043E1,-5.515456200E-1,1.733001828E0,6.046064377E0
1.131770246E1,-6.101697683E-2,1.985444546E0,5.758925915E0
1.133781449E1,2.685943544E-1,2.309672117E0,5.237888813E0
1.135792652E1,1.609173268E-1,2.488535643E0,5.472385406E0
1.137803855E1,-9.990034252E-2,2.364108801E0,7.077371120E0
1.139815058E1,-3.164508045E-1,2.462812662E0,9.099306107E0
1.141826262E1,-3.427718580E-1,2.587837696E0,1.026520920E1
1.143837465E1,-1.902294010E-1,2.627319336E0,1.002532864E1
1.145848668E1,1.902294010E-1,2.584846735E0,9.797411919E0
1.147859871E1,4.366901219E-1,2.536391973E0,1.068634605E1
1.149871079E1,5.198407173E-1,2.454437733E0,1.202513027E1
1.151882282E1,3.840480447E-1,2.317448616E0,1.297807217E1
1.153893486E1,1.740778536E-1,2.523231506E0,1.289551926E1
1.155904689E1,5.168496966E-1,2.808575630E0,1.198923779E1
1.157915892E1,1.541576028E0,2.685943365E0,1.186241817E1
1.159927095E1,1.805982947E0,2.631506681E0,1.244686508E1
1.161938298E1,9.888339639E-1,2.200200319E0,1.341715431E1
1.163949501E1,4.588237405E-1,1.679761529E0,1.383350563E1
1.165960704E1,9.667003751E-1,1.428515077E0,1.421516132E1
1.167971907E1,1.907677889E0,1.335793257E0,1.438206005E1
1.169983111E1,2.041077614E0,1.385444283E0,1.377667618E1
1.171994314E1,1.612164259E0,1.371685624E0,1.272921848E1
1.174005517E1,1.229312658E0,1.457827210E0,1.173200989E1
1.176016720E1,9.601200819E-1,1.511067510E0,1.080239773E1
1.178027923E1,1.133001566E0,1.600798368E0,9.931410789E0
1.180039126E1,1.399801254E0,1.630708575E0,8.953942299E0
1.182050329E1,1.558325768E0,1.560718536E0,8.078767776E0
1.184061532E1,1.479362607E0,1.603191137E0,7.373483181E0
1.186072736E1,1.048654556E0,1.721635938E0,6.588038921E0
1.188083939E1,5.437689424E-1,1.825125456E0,5.848058701E0
1.190095142E1,3.296113312E-1,1.939980984E0,5.455037594E0
1.192106345E1,3.678964674E-1,2.072184324E0,5.236692429E0
1.194117548E1,4.528416991E-1,2.348555326E0,5.263013363E0
1.196128751E1,2.356930375E-1,2.523829699E0,5.674578667E0
1.198139954E1,-6.041877344E-2,2.556132793E0,7.042077065E0
1.200151157E1,-2.476571500E-1,2.694318295E0,8.217551231E0
1.202162360E1,-4.618147612E-1,2.766103029E0,7.986045361E0
1.204173564E1,-4.803591371E-1,2.925225735E0,7.027719975E0
1.206184767E1,-4.139583111E-1,3.191427231E0,6.514459610E0
1.208195970E1,-3.002992272E-1,3.199802160E0,7.075576782E0
1.210207173E1,-1.471585929E-1,3.081357241E0,8.296514511E0
1.212218376E1,-1.208375469E-1,3.099303484E0,8.873783112E0
1.214229579E1,1.836491376E-1,3.123231649E0,9.130413055E0
1.216240788E1,6.143572330E-1,3.186043262E0,9.482755661E0
1.218251991E1,8.697910309E-1,3.195614576E0,1.022632599E1
1.220263189E1,9.720842242E-1,3.129213810E0,1.126002502E1
1.222274397E1,1.019940615E0,3.175873756E0,1.179661560E1
1.224285600E1,7.854440212E-1,3.267997503E0,1.172423267E1
1.226296803E1,4.797609448E-1,3.185445070E0,1.202752304E1
1.228308006E1,2.506481707E-1,3.121437073E0,1.245583820E1
1.230319210E1,3.930211067E-1,3.050250769E0,1.258146191E1
1.232330413E1,1.909472466E0,2.248655081E0,1.404766369E1
1.234341616E1,1.370489120E0,2.659024239E0,1.413619804E1
1.236352819E1,1.603191197E-1,1.711466432E0,1.361874962E1
1.238364022E1,-1.374676585E0,1.658226132E0,1.251206970E1
1.240375225E1,-1.232303619E0,2.123031855E0,1.162552929E1
1.242386428E1,-7.579265833E-1,2.044068813E0,1.035374355E1
1.244397631E1,-6.394818425E-1,1.850848317E0,9.524630547E0
1.246408834E1,-2.662015259E-1,1.403390527E0,9.792626381E0
1.248420038E1,-2.853440940E-1,1.103091240E0,1.028375340E1
1.250431241E1,1.615155302E-2,9.888339639E-1,1.051107121E1
1.252442444E1,-5.623133108E-2,1.197009563E0,9.700503349E0
1.254453647E1,-1.752742529E-1,1.303490162E0,8.875576973E0
1.256464850E1,-5.383851007E-2,1.491326690E0,7.967501163E0
1.258476053E1,1.046859920E-1,1.767697692E0,6.757331371E0
1.260487251E1,2.985046208E-1,1.951346874E0,6.260820389E0
1.262498460E1,6.059823632E-1,2.032104731E0,6.334399700E0
1.264509657E1,4.839483798E-1,2.090728760E0,6.452246189E0
1.266520866E1,1.752742529E-1,2.125424623E0,6.598806858E0
1.268532064E1,1.698904037E-1,2.093121529E0,6.937989235E0
1.270543267E1,3.308077157E-1,2.155334949E0,7.192226887E0
1.272554470E1,4.803591371E-1,2.188236237E0,7.527221680E0
1.274565678E1,4.671986103E-1,2.306680918E0,7.762914658E0
1.276576876E1,5.922235847E-1,2.309073925E0,8.192426682E0
1.278588079E1,4.767699242E-1,2.297708035E0,8.398209572E0
1.280599282E1,1.938186288E-1,2.236092806E0,8.870791435E0
1.282610486E1,2.297109663E-1,2.197807550E0,9.958928108E0
1.284621689E1,3.152543902E-1,2.313261271E0,1.056969547E1
1.286632892E1,2.512463629E-1,2.444866419E0,1.050628567E1
1.288644095E1,1.770688742E-1,2.617748022E0,1.061575794E1
1.290655298E1,1.142572835E-1,2.758326292E0,1.112602711E1
1.292666501E1,1.824527234E-1,2.697907448E0,1.166022491E1
1.294677704E1,4.713860750E-1,2.921636343E0,1.195394325E1
1.296688907E1,5.982056856E-1,3.346362352E0,1.180798149E1
1.298700111E1,8.997012973E-1,3.442673683E0,1.171944714E1
1.300711314E1,1.490728498E0,3.313461065E0,1.195454216E1
1.302722517E1,1.848455548E0,2.514258385E0,1.287039471E1
1.304733720E1,2.017149448E0,1.512862086E0,1.462911987E1
1.306744923E1,1.735992789E0,1.289731383E0,1.483550072E1
1.308756126E1,1.073779106E0,1.381256819E0,1.269153118E1
1.310767329E1,7.244270444E-1,1.361516118E0,1.032502937E1
1.312778532E1,1.048056364E0,1.469193101E0,9.645467758E0
1.314789736E1,1.072582722E0,1.509272933E0,9.590433121E0
1.316800939E1,8.105686903E-1,1.339980721E0,9.655637741E0
1.318812142E1,9.278169870E-1,1.245464206E0,9.692128181E0
1.320823345E1,9.930213690E-1,1.225125194E0,9.751350403E0
1.322834548E1,8.404789567E-1,1.157527924E0,9.614361763E0
1.324845751E1,6.101697683E-1,1.356132269E0,9.063413620E0
1.326856954E1,5.670989752E-1,1.599601984E0,8.066802979E0
1.328868157E1,5.635097623E-1,1.707278967E0,7.298109055E0
1.330879360E1,5.617151260E-1,1.701296926E0,6.792026997E0
1.332890564E1,3.678964674E-1,1.670788407E0,6.820741177E0
1.334901767E1,-4.366901144E-2,1.540379524E0,6.722635269E0
1.336912970E1,-4.187439755E-2,1.485344648E0,6.605386734E0
1.338924173E1,-1.124626622E-1,1.663609982E0,6.666403770E0
1.340935376E1,-3.601198196E-1,1.832303882E0,7.226922512E0
1.342946579E1,-1.944168359E-1,1.987239242E0,8.178069115E0
1.344957777E1,3.020938635E-1,1.923231244E0,9.228518486E0
1.346968980E1,6.550351977E-1,1.858026743E0,8.896514893E0
1.348980183E1,5.808576941E-1,1.814955950E0,7.843074322E0
1.350991387E1,1.668993831E-1,1.770688772E0,1.021854877E1
1.353002590E1,-1.854437590E-2,2.065006018E0,1.052004433E1
1.355013793E1,4.582255483E-1,2.226521492E0,1.150170040E1
1.357024996E1,6.484549642E-1,2.173281193E0,1.016411209E1
1.360980630E1,-9.732806087E-1,4.640879631E0,8.493324280E0
1.362991807E1,-3.966103494E-1,4.273581028E0,9.078369141E0
1.365002979E1,1.854437590E-2,4.153341770E0,8.894720078E0
1.367014156E1,-2.572284266E-2,4.421338081E0,7.992625713E0
1.369025333E1,-3.337987661E-1,4.608576298E0,7.713263988E0
1.371036505E1,-5.234299302E-1,4.496113777E0,8.636295319E0
1.373047682E1,-4.145565331E-1,4.354339123E0,9.565308571E0
1.375058859E1,-4.007977992E-2,4.089931965E0,9.779465675E0
1.377070031E1,-1.645065546E-1,4.218546391E0,9.534201622E0
1.379081208E1,-4.576273263E-1,4.506881237E0,8.874979019E0
1.381092385E1,-5.294120312E-1,4.725824833E0,8.115258217E0
1.383103562E1,-5.682953596E-1,4.822733879E0,7.843074322E0
1.385114734E1,-3.296113312E-1,4.847260475E0,8.203792572E0
1.387125911E1,1.016949583E-2,4.758127689E0,8.743373871E0
1.389137088E1,1.016949583E-2,4.741377831E0,9.181260109E0
1.391148265E1,2.745763958E-1,4.712066174E0,9.719047546E0
1.393159437E1,4.366901219E-1,4.668396950E0,1.051825047E1
1.395170614E1,3.445664644E-1,4.881956577E0,1.082991505E1
1.397181791E1,1.794617027E-1,5.170889854E0,1.013599682E1
1.399192968E1,1.890329868E-1,5.398207664E0,9.636494637E0
1.401204145E1,3.667000830E-1,5.343770981E0,9.527023315E0
1.403215317E1,4.462614357E-1,4.965106964E0,1.097468090E1
1.405226494E1,6.275177598E-1,4.722235680E0,1.209093285E1
1.407237671E1,6.077769399E-1,4.502694130E0,1.183490086E1
1.409248848E1,3.708875179E-2,4.591228485E0,1.046261692E1
1.411260026E1,-5.790630579E-1,4.732405186E0,8.933603287E0
1.413271197E1,-1.082154036E0,4.331008911E0,9.367302895E0
1.415282374E1,-1.196411371E0,3.274577856E0,1.197428226E1
1.417293552E1,-1.295115232E0,2.469393015E0,1.480080414E1
1.419304729E1,-9.547362328E-1,2.317448616E0,1.427916908E1
1.421315906E1,-1.663011760E-1,2.498106956E0,1.095434189E1
1.423327083E1,1.615155302E-2,3.017947674E0,7.794619560E0
1.425338255E1,-7.501499057E-1,3.391826153E0,7.462017536E0
1.427349432E1,-1.505683661E0,3.145365477E0,9.068798065E0
1.429360609E1,-1.158126116E0,2.536990166E0,9.265607834E0
1.431371786E1,-4.241278172E-1,2.197807550E0,8.610571861E0
1.433382963E1,-2.500499785E-1,2.273779631E0,8.449056625E0
1.435394140E1,8.374879509E-2,2.225325108E0,8.675776482E0
1.437405317E1,1.842473447E-1,2.162513494E0,8.803194046E0
1.439416489E1,-9.571290575E-3,2.127219439E0,9.372686386E0
1.441427666E1,-1.034895778E-1,2.270788670E0,9.426525116E0
1.443438843E1,1.668993831E-1,2.251047850E0,9.157332420E0
1.445450020E1,3.278166950E-1,2.252842426E0,8.962317467E0
1.447461197E1,1.728814393E-1,2.493321180E0,9.048459053E0
1.449472374E1,-3.044866920E-1,2.788236618E0,9.275178909E0
1.451483552E1,-3.870390654E-1,2.791825771E0,9.543174744E0
1.453494729E1,2.931207791E-2,2.645265341E0,9.266205788E0
1.455505906E1,-4.594219327E-1,2.875574589E0,8.906683922E0
1.457517083E1,-9.493523836E-1,3.148954630E0,9.143573761E0
1.459528260E1,-9.224331379E-1,3.163311481E0,9.785448074E0
1.461539437E1,-7.597211599E-1,3.113062143E0,9.496515274E0
1.463550614E1,-5.497509837E-1,2.879761934E0,9.894919395E0
1.465561791E1,-4.504488707E-1,2.708675146E0,1.036092186E1
1.467572968E1,-9.092725813E-2,2.584248543E0,1.078923702E1
1.469584140E1,3.984049559E-1,2.643470764E0,9.652048111E0
1.471595317E1,1.992024779E-1,3.020340443E0,8.309076309E0
1.473606494E1,-3.547359705E-1,3.160320520E0,8.572885513E0
1.475617671E1,-1.016949639E-1,2.785245657E0,9.715457916E0
1.477628848E1,3.834498227E-1,2.380858421E0,1.096331501E1
1.479640031E1,4.857429862E-1,2.305484533E0,1.152861977E1
1.481651203E1,2.901297510E-1,2.587837696E0,1.077607632E1
1.483662380E1,-1.142572835E-1,3.026322365E0,9.189037323E0
1.485673557E1,8.015955985E-2,3.266202927E0,7.922037601E0
1.487684734E1,7.328019142E-1,3.241078377E0,7.599604607E0
1.489695911E1,5.659025311E-1,3.298506021E0,8.169096947E0
1.491707093E1,4.504488707E-1,3.199802160E0,8.264809608E0
1.493718265E1,-3.589233849E-3,3.251247883E0,7.686942577E0
1.495729447E1,-8.763712645E-1,3.414557934E0,8.170890808E0
1.497740625E1,-2.231307179E-1,3.180659533E0,9.382855415E0
1.499751802E1,1.034895778E0,2.854039192E0,9.610772133E0
1.501762979E1,1.166501045E0,3.000001431E0,8.511868477E0
1.503774156E1,4.169493318E-1,3.389433384E0,7.510472298E0
1.505785333E1,9.690931439E-2,3.460021496E0,7.537391186E0
1.507796510E1,1.830509305E-1,3.245265722E0,8.419744492E0
1.509807687E1,2.153540403E-1,3.039483070E0,9.081359863E0
1.511818864E1,1.800599098E-1,3.294916868E0,8.633303642E0
1.513830041E1,-7.537391037E-2,3.786043644E0,7.867600918E0
1.515841218E1,-8.015955985E-2,4.049253941E0,7.718049526E0
1.517852395E1,3.828516230E-2,4.247260094E0,7.814958572E0
1.519863578E1,4.067798331E-2,4.393222332E0,8.149953842E0
1.521874755E1,-3.439682424E-1,4.482953072E0,9.220742226E0
1.523885932E1,-6.687939167E-1,4.520041943E0,9.808179855E0
1.525897109E1,-2.482553422E-1,4.225126743E0,9.507881165E0
1.527908286E1,-2.979064286E-1,4.152743816E0,9.099904060E0
1.529919463E1,-8.099704385E-1,4.126422882E0,9.434899330E0
1.531930640E1,-8.691928387E-1,4.317250252E0,9.887741089E0
1.533941822E1,-8.961120844E-1,4.155136585E0,9.887143135E0
1.535953000E1,-6.915257573E-1,3.648456335E0,1.016650486E1
1.537964177E1,5.096712112E-1,2.787040234E0,1.114756203E1
1.539975354E1,1.514656782E0,1.939382792E0,1.339143181E1
1.541986531E1,1.004985452E0,2.226521492E0,1.389392471E1
1.543997708E1,3.092723191E-1,2.411965132E0,1.308036518E1
1.546008890E1,-2.177468538E-1,2.572882652E0,1.216092300E1
1.548020067E1,-7.884350419E-1,2.641676188E0,1.068395329E1
1.550031244E1,-9.744769931E-1,2.595614433E0,9.468997002E0
1.552042421E1,-8.482556343E-1,2.643470764E0,9.217751503E0
1.554053598E1,-1.071386337E0,2.804986238E0,8.993423462E0
1.556064781E1,-1.129412293E0,2.834298372E0,8.714061737E0
1.558075958E1,-5.270192027E-1,2.446063042E0,8.905488014E0
1.560087135E1,2.638086975E-1,1.972882271E0,9.763314247E0
1.562098312E1,4.899304509E-1,1.861017823E0,1.007976532E1
1.564109494E1,-1.196411322E-3,2.289333105E0,8.474181175E0
1.566120671E1,-2.482553422E-1,2.743371248E0,6.609574318E0
1.568131848E1,1.196411322E-3,2.665604353E0,6.397211552E0
1.570143026E1,2.859423161E-1,2.678166628E0,7.031907558E0
1.572154208E1,2.303091735E-1,3.050250769E0,6.804589272E0
1.574165385E1,-1.848455518E-1,3.309871912E0,6.447460651E0
1.576176562E1,-7.298108935E-1,3.339184046E0,6.821937561E0
1.578187739E1,-9.020941257E-1,3.010769129E0,8.023134232E0
1.580198921E1,-4.941178858E-1,2.740380049E0,9.464211464E0
1.582210098E1,-5.120640397E-1,3.063411236E0,1.022752190E1
1.584221276E1,-5.611169338E-1,3.650849104E0,9.244071960E0
1.586232458E1,-5.306084156E-1,4.098307133E0,8.438887596E0
1.588243635E1,-7.633104324E-1,4.309473515E0,9.035298347E0
1.590254812E1,-1.189831018E0,4.347758770E0,1.073599720E1
1.592265994E1,-7.076773047E-1,4.205385685E0,1.076590729E1
1.594277171E1,-3.302095234E-1,4.149154663E0,1.018983555E1
1.596288348E1,-2.817548811E-1,4.079164505E0,9.961320877E0
1.598299531E1,-3.176472187E-1,3.850051641E0,1.023888779E1
1.600310708E1,-1.110269666E0,3.980460405E0,1.099262714E1
1.602321885E1,-1.926820397E0,4.231706619E0,1.162313557E1
1.604333067E1,-5.814558864E-1,3.835096598E0,1.136830044E1
1.606344244E1,3.355933726E-1,3.696911097E0,1.092383385E1
1.608355421E1,-3.708875179E-2,3.927818298E0,1.016949654E1
1.610366604E1,-7.848458290E-1,3.616751432E0,1.028554821E1
1.612377781E1,-6.029912829E-1,2.681756020E0,1.144008541E1
1.614388958E1,8.045865893E-1,1.352542996E0,1.276750374E1
1.616400140E1,6.119644046E-1,1.552343726E0,1.231525993E1
1.618411317E1,-5.443671346E-1,2.518445730E0,9.794421196E0
1.620422500E1,-5.641079545E-1,2.617748022E0,8.739784241E0
1.622433677E1,1.196411322E-3,2.297109842E0,9.044271469E0
1.624444854E1,2.033899277E-1,2.116451740E0,9.053244591E0
1.626456036E1,2.775674164E-1,2.089532375E0,8.563912392E0
1.628467213E1,4.725824669E-2,2.257030010E0,8.110472679E0
1.630478395E1,-2.793620527E-1,2.331207514E0,8.455039024E0
1.632489572E1,-2.757728100E-1,2.231307030E0,8.713463783E0
1.634500750E1,-4.839483798E-1,2.497508526E0,8.069794655E0
1.636511932E1,-6.490531564E-1,2.730210543E0,7.810771465E0
1.638523109E1,-1.591227055E-1,2.663809776E0,7.207181931E0
1.640534291E1,5.874379873E-1,2.420340061E0,7.491927624E0
1.642545468E1,1.092921734E0,2.135594130E0,8.827122688E0
1.644556651E1,7.100701332E-1,2.388036966E0,9.243474007E0
1.646567828E1,8.853443712E-2,2.964108944E0,8.091329575E0
1.648579010E1,-6.095715761E-1,3.392424345E0,8.285148621E0
1.650590187E1,-2.081755698E-1,3.262613773E0,9.254839897E0
1.652601364E1,1.447657645E-1,3.059223652E0,1.027238750E1
1.654612546E1,-1.082752272E-1,3.285345554E0,1.007617569E1
1.656623724E1,-2.243271172E-1,3.633501291E0,9.150752068E0
1.658634906E1,-1.064806059E-1,3.873979807E0,9.396016121E0
1.660646083E1,2.482553422E-1,3.967299938E0,9.725028992E0
1.662657265E1,3.924229145E-1,3.890729666E0,1.024427223E1
1.664668442E1,2.309073806E-1,3.805784464E0,1.138265705E1
1.666679624E1,-2.428714931E-1,4.016951084E0,1.108355427E1
1.668690802E1,-7.710871100E-1,4.048655987E0,9.566504478E0
1.670701984E1,-5.318048596E-1,3.761517286E0,8.613563538E0
1.672713161E1,-3.708875179E-1,3.136990547E0,9.942776680E0
1.674724343E1,-4.187439680E-1,2.452044964E0,1.257547951E1
1.676735520E1,-8.973085321E-3,1.931606054E0,1.358465195E1
1.678746703E1,2.315055877E-1,2.020738840E0,1.185643578E1
1.680757885E1,3.170489892E-2,2.605783939E0,8.340183258E0
1.682769062E1,-6.436693072E-1,3.191427231E0,6.239883423E0
1.684780244E1,-1.704886079E0,3.379263878E0,6.853642464E0
1.686791421E1,-1.963909149E0,2.938984394E0,8.473583221E0
1.688802604E1,-1.484148264E0,2.550150633E0,9.994221687E0
1.690813781E1,-9.415757060E-1,2.581855536E0,1.015633583E1
1.692824963E1,-3.361915946E-1,2.779861689E0,9.327222824E0
1.694836140E1,-2.344966233E-1,3.111267567E0,8.609973907E0
1.696847322E1,-1.914258152E-1,3.258426189E0,7.932805061E0
1.698858505E1,-3.110669367E-2,3.119044304E0,7.542177200E0
1.700869682E1,-5.892325640E-1,3.095714331E0,8.050053596E0
1.702880864E1,-1.231705427E0,3.239283562E0,8.842676163E0
1.704892041E1,-8.626125455E-1,3.031706333E0,8.450253487E0
1.706903224E1,-7.429714203E-1,3.169891834E0,7.980661869E0
1.708914401E1,-9.002995491E-1,3.381058455E0,8.393424034E0
1.710925583E1,-8.255237937E-1,3.468994617E0,8.837292671E0
1.712936765E1,-5.443671346E-1,3.581457376E0,8.740981102E0
1.714947942E1,9.332008660E-2,3.606581926E0,8.700901031E0
1.716959124E1,1.022931710E-1,3.655036688E0,8.763712883E0
1.718970302E1,-3.026920557E-1,3.762115479E0,9.110074043E0
1.720981484E1,-7.357929349E-1,3.834498405E0,1.024965572E1
1.722992666E1,-8.985049129E-1,3.725026608E0,1.180020523E1
1.725003843E1,-7.974081635E-1,3.439084291E0,1.192523003E1
1.727015026E1,-4.295116663E-1,3.375674486E0,1.112124157E1
1.729026208E1,-3.972085714E-1,3.875176191E0,9.842875481E0
1.731037385E1,-6.239284873E-1,4.475176334E0,8.161917686E0
1.733048567E1,-2.309073806E-1,3.947559118E0,8.492127419E0
1.735059750E1,6.281159073E-2,2.679363251E0,1.153998566E1
1.737070927E1,-3.984049559E-1,1.907677889E0,1.480439377E1
1.739082109E1,-6.167500615E-1,2.195414782E0,1.320658684E1
1.741093291E1,-4.660021961E-1,2.813361168E0,8.997013092E0
1.743104468E1,-9.104689956E-1,3.378665686E0,6.997211456E0
1.745115651E1,-1.201795220E0,3.584448338E0,7.311269760E0
1.747126828E1,-5.222335458E-1,3.320041418E0,8.258229256E0
1.749138010E1,-2.524427772E-1,3.073580742E0,8.650651932E0
1.751149192E1,-3.002992272E-1,2.807379246E0,9.530014038E0
1.753160374E1,-4.091726840E-1,2.461018085E0,1.083649540E1
1.755171552E1,-2.033899277E-1,2.263011932E0,1.056670475E1
1.757182734E1,6.101697683E-2,2.342573404E0,8.392825127E0
1.759193916E1,-2.021935135E-1,2.764906645E0,5.839085579E0
1.761205093E1,-8.955138922E-1,3.117847919E0,4.780859470E0
1.763216276E1,-1.070788145E0,2.690130949E0,7.532007694E0
1.765227458E1,-8.165507317E-1,1.859223247E0,1.185045433E1
1.767238635E1,-2.063809484E-1,1.472184181E0,1.349133205E1
1.769249817E1,1.794617064E-2,1.867598057E0,1.093101215E1
1.771261000E1,-4.767699242E-1,2.943171740E0,7.583453178E0
1.773272177E1,-2.560320199E-1,3.613162279E0,5.808577061E0
1.775283359E1,1.351944804E-1,3.761517286E0,6.278766632E0
1.777294541E1,4.127619043E-2,3.570689678E0,8.180462837E0
1.779305724E1,-4.390829504E-1,3.153141975E0,1.076411247E1
1.781316901E1,2.392822653E-1,2.629712105E0,1.230209923E1
1.783328083E1,6.221338734E-2,2.613560438E0,1.280758286E1
1.785339265E1,-9.696913958E-1,2.913859844E0,1.262333584E1
1.787350442E1,-1.194616675E0,3.295515060E0,1.183011532E1
1.789361624E1,-5.545366406E-1,3.123830080E0,1.112602711E1
1.791372807E1,4.205385745E-1,2.685345173E0,1.073898792E1
1.793383989E1,5.718846321E-1,2.395215511E0,1.103270721E1
1.795395166E1,6.329016089E-1,2.152942181E0,1.173260784E1
1.797406349E1,6.442674994E-1,2.143370867E0,1.066301632E1
1.799417531E1,1.902294010E-1,2.551347256E0,8.675776482E0
1.801428713E1,-9.493523836E-1,3.114258766E0,7.258029461E0
1.803439895E1,-1.251446247E0,3.000001431E0,7.362715244E0
1.805451072E1,-5.419743061E-1,2.351546526E0,9.043074608E0
1.807462255E1,2.638086975E-1,1.812563181E0,1.046919727E1
1.809473437E1,-3.050848842E-1,2.286940336E0,1.104467106E1
1.811484614E1,-1.053440213E0,3.030509949E0,9.302098274E0
1.813495796E1,-8.763712645E-1,3.222533941E0,7.368099213E0
1.815506979E1,-4.624129832E-1,2.964707375E0,7.451848030E0
1.817518161E1,-5.599204898E-1,2.785245657E0,8.656036377E0
1.819529343E1,-1.375873014E-2,2.339582443E0,1.003489971E1
1.821540526E1,-3.822534084E-1,2.430509567E0,1.044227791E1
1.823551703E1,-8.189435601E-1,2.768495798E0,9.393025398E0
1.825562885E1,-5.359922647E-1,3.050848961E0,7.109674454E0
1.827574067E1,-1.381855011E-1,3.052045345E0,6.443871498E0
1.829585250E1,-5.982056726E-3,2.800200701E0,8.315656662E0
1.831596432E1,-3.499503136E-1,2.817548752E0,9.956535339E0
1.833607609E1,-2.829512656E-1,2.687139750E0,1.037228775E1
1.835618791E1,-2.279163599E-1,2.763710260E0,9.909874916E0
1.837629974E1,-7.417750359E-1,3.016152859E0,9.549157143E0
1.839641156E1,-8.925228715E-1,3.162115097E0,9.774680138E0
1.841652338E1,-6.831508875E-1,3.290131092E0,9.897911072E0
1.843663515E1,-5.581258535E-1,3.505485058E0,8.963513374E0
1.845674697E1,-1.316052526E-1,3.146561861E0,9.300901413E0
1.847685880E1,2.033899166E-2,2.520838737E0,1.250070381E1
1.849697062E1,1.316052489E-2,2.042274237E0,1.432523060E1
1.851708244E1,-6.699903309E-2,2.039283037E0,1.267956734E1
1.853719427E1,-1.028913707E-1,2.277967215E0,1.007617569E1
1.855730604E1,-2.656033039E-1,2.655434847E0,8.330612183E0
1.857741786E1,-1.800599098E-1,2.924029350E0,6.877570629E0
1.859752968E1,3.756731451E-1,2.879761934E0,7.060023308E0
1.861764151E1,9.493523836E-1,2.556132793E0,8.225327492E0
1.863775333E1,1.319641709E0,2.003988981E0,1.033101177E1
1.865786515E1,4.348955154E-1,2.076371908E0,1.112901783E1
1.867797697E1,-8.315058798E-2,2.347957134E0,9.968499184E0
1.869808874E1,-1.435693651E-1,2.546561480E0,8.550751686E0
1.871820057E1,-8.715856671E-1,2.804388046E0,7.598408222E0
1.873831239E1,-9.882357717E-1,2.823530674E0,6.381658077E0
1.875842421E1,-9.655039310E-1,2.754138947E0,6.430112839E0
1.877853604E1,-2.973082066E-1,2.550150633E0,7.423732281E0
1.879864786E1,-3.535395563E-1,2.766103029E0,8.518448830E0
1.881875968E1,7.597211748E-2,2.786442041E0,9.310472488E0
1.883887145E1,3.170489892E-2,3.019742250E0,9.220742226E0
1.885898328E1,-1.004985496E-1,3.267997503E0,8.896514893E0
1.887909510E1,-1.818545163E-1,3.416950703E0,9.042476654E0
1.889920692E1,-9.631111473E-2,3.457030535E0,9.206983566E0
1.891931874E1,1.489532143E-1,3.448057413E0,9.407382011E0
1.893943057E1,6.161518395E-2,3.402593851E0,1.023051357E1
1.895954239E1,-3.553341627E-1,3.526422262E0,1.119063377E1
1.897965421E1,-4.929214716E-1,3.454637766E0,1.148674488E1
1.899976604E1,-5.306084156E-1,3.241078377E0,1.142572784E1
1.901987781E1,-7.585247755E-1,2.985046148E0,1.154716396E1
1.903998968E1,-1.735394597E0,2.773281336E0,1.170269775E1
1.906010145E1,-2.172683001E0,2.462214470E0,1.240678501E1
1.908021328E1,-1.740180254E0,2.251047850E0,1.300977707E1
1.910032510E1,-7.974081635E-1,2.300698996E0,1.202991581E1
1.912043692E1,1.058823988E-1,2.446661234E0,1.058524895E1
1.914054874E1,4.648058116E-1,2.669193745E0,9.069396019E0
1.916066057E1,-5.204389244E-2,2.786442041E0,9.120243073E0
1.918077239E1,-4.049852192E-1,2.673381090E0,9.269196510E0
1.920088421E1,-4.683950245E-1,2.597409010E0,8.703293800E0
1.922099604E1,-3.523431420E-1,2.614158630E0,8.221140862E0
1.924110781E1,-3.565305769E-1,2.418545485E0,8.907281876E0
1.926121963E1,-6.352944374E-1,2.270788670E0,1.033759212E1
1.928133145E1,-5.012963414E-1,2.181057930E0,1.042732334E1
1.930144328E1,-5.754738450E-1,2.292324066E0,9.205786705E0
1.932155510E1,-3.218346536E-1,2.191825628E0,7.892725468E0
1.934166692E1,-3.613162339E-1,2.212762833E0,7.420741081E0
1.936177875E1,-5.012963414E-1,2.318645239E0,7.676175117E0
1.938189057E1,-3.708875179E-1,2.436491728E0,7.600203037E0
1.940200239E1,-7.357929647E-2,2.623131752E0,6.845267296E0
1.942211421E1,2.931207791E-2,2.847458839E0,6.668198586E0
1.944222604E1,-2.219343036E-1,2.900699139E0,7.661220074E0
1.946233786E1,-6.221339107E-1,2.931805849E0,8.766703606E0
1.948244968E1,-8.584251404E-1,3.062813044E0,9.457033157E0
1.950256151E1,-9.343972206E-1,3.346960783E0,8.964710236E0
1.952267333E1,-8.255237937E-1,3.602394581E0,8.094321251E0
1.954278515E1,-8.380861282E-1,3.795614958E0,7.905886173E0
1.956289697E1,-8.835497499E-1,3.792025566E0,8.577671051E0
1.958300874E1,-9.170492887E-1,3.773481369E0,9.808179855E0
1.960312057E1,-8.410771489E-1,3.786043644E0,1.090828037E1
1.962323239E1,-8.057830334E-1,3.766302824E0,1.130848026E1
1.964334421E1,-3.672982752E-1,3.716053486E0,1.158305645E1
1.966345604E1,5.383851007E-3,3.731008768E0,1.147358418E1
1.968356786E1,-2.452643216E-1,3.543172121E0,1.140419292E1
1.970367968E1,-4.061816335E-1,2.691327333E0,1.241635704E1
1.972379151E1,-5.096712112E-1,1.977069736E0,1.359422398E1
1.974390333E1,-6.400800496E-2,1.670788407E0,1.276032448E1
1.976401515E1,5.330012441E-1,1.578664780E0,1.077787113E1
1.978412697E1,5.515456200E-1,1.676172256E0,9.720842361E0
1.980423880E1,1.226321608E-1,1.628913999E0,9.467203140E0
1.982435062E1,-1.112662554E-1,1.544566989E0,9.330213547E0
1.984446244E1,5.982056633E-2,1.447059512E0,9.815957069E0
1.986457427E1,1.507478207E-1,1.581655741E0,1.023828983E1
1.988468609E1,8.554340899E-2,1.692921996E0,9.872187614E0
1.990479791E1,-2.877369225E-1,1.777269006E0,9.508479118E0
1.992490974E1,-7.052844763E-1,1.905285001E0,8.895318031E0
1.994502156E1,-5.856433511E-1,1.999203324E0,7.812565804E0
1.996513338E1,-3.415754437E-1,2.203191519E0,7.145566463E0
1.998524520E1,-5.443671346E-2,2.369492531E0,7.022934437E0
2.000535703E1,1.932204217E-1,2.528017044E0,7.307082176E0
2.002546885E1,7.537391037E-2,2.757129908E0,8.350353241E0
2.004558067E1,-2.506481707E-1,2.909672260E0,9.477372169E0
2.006569250E1,-8.973084688E-1,2.959323406E0,1.031127071E1
2.008580432E1,-1.153938770E0,3.113062143E0,1.002233791E1
2.010591614E1,-1.077966571E0,3.224328518E0,9.674181938E0
2.012602796E1,-7.495517135E-1,3.290131092E0,9.141180992E0
2.014613979E1,-5.114658475E-1,3.416352510E0,8.735597610E0
2.016625161E1,-7.393822074E-1,3.503092289E0,9.265607834E0
2.018636343E1,-9.212366939E-1,3.381058455E0,1.034177971E1
2.020647526E1,-9.116654396E-1,3.306880951E0,1.130728340E1
2.022658708E1,-5.617151260E-1,3.302095175E0,1.193599796E1
2.024669890E1,-4.917250574E-1,3.601198196E0,1.063549805E1
2.026681072E1,-2.344966233E-1,3.847060680E0,8.400003433E0
2.028692255E1,-2.679961324E-1,3.803391695E0,7.978867054E0
2.030703437E1,-9.726824164E-1,3.193820000E0,1.070429230E1
2.032714619E1,-1.727019787E0,2.623729944E0,1.450708580E1
2.034725802E1,-1.758724689E0,2.561516523E0,1.465185165E1
2.036736984E1,-1.088734269E0,2.790629387E0,1.040339470E1
2.038748166E1,-5.712863803E-1,2.946761131E0,7.561917782E0
2.040759348E1,-8.811569214E-1,3.167499065E0,7.411170006E0
2.042770531E1,-1.188036442E0,3.245863914E0,7.841279984E0
2.044781713E1,-1.071386337E0,3.165704250E0,7.305287361E0
2.046792895E1,-8.847461939E-1,3.041875839E0,7.298707485E0
2.048804078E1,-9.834501147E-1,2.868994236E0,8.466404915E0
2.050815260E1,-1.172483087E0,2.720041037E0,9.506086349E0
2.052826442E1,-1.195813060E0,2.645863533E0,9.449256897E0
2.054837624E1,-1.124626637E0,2.677568436E0,8.596215248E0
2.056848807E1,-1.004985452E0,2.833101988E0,7.658827305E0
2.058859989E1,-8.913264275E-1,2.962912560E0,7.063612461E0
2.060871171E1,-7.016952634E-1,3.036491871E0,7.296314240E0
2.062882354E1,-7.226324677E-1,3.153141975E0,7.630711555E0
2.064893536E1,-7.591229677E-1,3.283550978E0,8.031509399E0
2.066904718E1,-8.225327730E-1,3.488137245E0,7.864609718E0
2.068915901E1,-7.609176040E-1,3.680759430E0,7.809575081E0
2.070927083E1,-8.626125455E-1,3.893122435E0,8.212765694E0
2.072938265E1,-9.876375198E-1,4.000799656E0,9.119645119E0
2.074949447E1,-1.171286702E0,4.162913322E0,9.484550476E0
2.076960630E1,-1.208973646E0,4.143770695E0,1.001396275E1
2.078971812E1,-1.216152072E0,4.061218262E0,1.112841988E1
2.080982994E1,-8.584251404E-1,4.051646709E0,1.151306629E1
2.082994177E1,-5.874379873E-1,4.336990833E0,1.097049332E1
2.085005364E1,4.043870270E-1,4.300500393E0,8.782257080E0
2.087016546E1,1.156929731E0,3.829114437E0,8.263014793E0
2.089027729E1,5.694918036E-1,3.067000389E0,1.144247818E1
2.091038911E1,8.494520187E-2,2.379063845E0,1.432882023E1
2.093050093E1,-1.692921966E-1,2.368894339E0,1.323470211E1
2.095061276E1,-2.333002165E-2,2.563311338E0,1.054576778E1
2.097072458E1,7.357929647E-2,2.797807932E0,8.913862228E0
2.099083640E1,1.537388563E-1,3.017349243E0,8.581858635E0
2.101094822E1,2.847459018E-1,3.111267567E0,8.391031265E0
2.103106005E1,5.886343718E-1,3.056232691E0,8.133802414E0
2.105117187E1,4.761717021E-1,3.020340443E0,7.872984886E0
2.107128369E1,2.243271172E-1,2.857030153E0,8.065607071E0
2.109139552E1,-5.665007830E-1,2.751745939E0,9.845269203E0
2.111150734E1,-5.252245665E-1,2.710469961E0,9.915258408E0
2.113161916E1,-1.818545163E-1,2.964707375E0,7.417151928E0
2.115173098E1,-6.281159073E-2,3.231507063E0,6.273382664E0
2.117184281E1,-9.870393574E-2,3.299702406E0,6.087938786E0
2.119195463E1,-9.451649338E-2,3.270390272E0,6.808178425E0
2.121206645E1,-4.217349887E-1,3.236292601E0,8.913862228E0
2.123217828E1,-5.551348329E-1,3.215355396E0,1.091904831E1
2.125229015E1,-3.918247223E-1,3.340380430E0,1.013121128E1
2.127240197E1,-4.145565331E-1,3.687339783E0,8.559724808E0
2.129251380E1,-5.928218365E-1,3.976273060E0,8.261817932E0
2.131262562E1,-9.379864931E-1,4.149154663E0,9.020342827E0
2.133273744E1,-1.081555843E0,4.247858524E0,1.020658493E1
2.135284927E1,-1.014556766E0,4.269393921E0,1.110209846E1
2.137296109E1,-7.645068169E-1,4.114458561E0,1.094178009E1
2.139307291E1,-1.266999602E0,4.389633179E0,1.056670475E1
2.141318474E1,-1.889133453E0,4.353740692E0,1.031545830E1
2.143329656E1,-1.803590059E0,3.960121393E0,1.043988514E1
2.145340838E1,-8.697910309E-1,3.196212769E0,1.061934662E1
2.147352020E1,-4.929214716E-1,2.599801779E0,1.198804188E1
2.149363203E1,-7.483552694E-1,2.590230465E0,1.224108219E1
2.151374385E1,-9.822536707E-1,2.897708178E0,9.913464546E0
2.153385567E1,-1.180858016E0,3.183052301E0,8.081160545E0
2.155396750E1,-1.243071318E0,3.408575773E0,7.569096088E0
2.157407932E1,-1.297508121E0,3.538984776E0,7.298707485E0
2.159419119E1,-1.100100160E0,3.543770313E0,7.490731239E0
2.161430302E1,-8.207381964E-1,3.472583771E0,8.115258217E0
2.163441484E1,-5.760720372E-1,3.263810158E0,8.939585686E0
2.165452666E1,-9.326026440E-1,3.262613773E0,1.000319481E1
2.167463849E1,-7.621139884E-1,3.169891834E0,8.651848793E0
2.169475031E1,-8.590233326E-1,3.401995659E0,7.691130161E0
2.171486213E1,-1.067797065E0,3.421736479E0,8.603992462E0
2.173497395E1,-1.164706469E0,3.482155085E0,8.161319733E0
2.175508578E1,-8.368897438E-1,3.410968781E0,7.642675400E0
2.177519760E1,-8.033902049E-1,3.366103172E0,8.100900650E0
2.179530942E1,-9.762716293E-1,3.449253798E0,8.304290771E0
2.181542125E1,-1.148554921E0,3.477369547E0,7.948956966E0
2.183553307E1,-1.214955688E0,3.437289715E0,8.352746010E0
2.185564494E1,-6.376872063E-1,3.473780155E0,8.931808472E0
2.187575677E1,-3.116651475E-1,3.684348583E0,9.607182503E0
2.189586859E1,5.982056726E-3,3.837489367E0,9.760323524E0
2.191598041E1,8.913264424E-2,4.068994999E0,9.007781029E0
2.193609224E1,-1.824527234E-1,4.262813568E0,8.341978073E0
2.195620406E1,-4.151547253E-1,4.130012035E0,8.606385231E0
2.197631588E1,-6.466603279E-1,4.035495281E0,9.351749420E0
2.199642770E1,-4.887340367E-1,4.012165546E0,1.015992451E1
2.201653953E1,-4.348955154E-1,3.878167391E0,9.844670296E0
2.203665135E1,-9.463613629E-1,3.318246841E0,1.192642593E1
2.205676317E1,-9.894321561E-1,2.619542599E0,1.445205021E1
2.207687500E1,-3.487538993E-1,2.305484533E0,1.471585941E1
2.209698687E1,5.288137794E-1,2.445464849E0,1.239242840E1
2.211709869E1,9.098708034E-1,2.790629387E0,8.848658562E0
2.213721052E1,6.269195080E-1,2.934198856E0,7.085147858E0
2.215732234E1,-6.819544733E-2,2.951546669E0,8.140980721E0
2.217743416E1,-2.560320199E-1,2.905484915E0,9.232108116E0
2.219754598E1,1.094716340E-1,2.803789854E0,9.425328255E0
2.221765781E1,2.111666054E-1,2.740978241E0,9.087940216E0
2.223776963E1,6.017948985E-1,2.534597397E0,8.854042053E0
2.225788145E1,4.660021961E-1,2.486142635E0,8.783453941E0
2.227799328E1,3.409772217E-1,2.586043119E0,9.146564484E0
2.229810510E1,3.092723191E-1,2.723032236E0,8.880363464E0
2.231821692E1,4.869394004E-1,2.782852650E0,7.790432453E0
2.233832880E1,5.874379873E-1,2.829512835E0,7.396812916E0
2.235844062E1,5.551348329E-1,2.846262455E0,7.719245911E0
2.237855244E1,5.294120312E-1,3.030509949E0,8.163712502E0
2.239866427E1,3.894318938E-1,3.235096216E0,8.787042618E0
2.241877609E1,1.112662554E-1,3.501895905E0,9.092127800E0
2.243888791E1,-6.759724021E-2,3.710071564E0,9.246464729E0
2.245899974E1,-3.373879790E-1,3.805186272E0,9.917053223E0
2.247911156E1,-4.821537733E-1,3.718446493E0,1.064985561E1
2.249922338E1,-4.857429862E-1,3.535395384E0,1.133958626E1
2.251933520E1,-5.204389095E-1,3.369094372E0,1.175234795E1
2.253944703E1,-5.024927258E-1,3.572484255E0,1.126241779E1
2.255955885E1,-7.501499057E-1,3.719642878E0,9.633503914E0
2.257967072E1,-9.032905698E-1,3.494717360E0,8.656036377E0
2.259978255E1,-9.254241586E-1,2.891726255E0,1.017727280E1
2.261989437E1,-6.634100676E-1,2.243869543E0,1.306002617E1
2.264000619E1,-1.645065546E-1,2.063211441E0,1.397049522E1
2.266011802E1,6.640082598E-2,2.419741869E0,1.139043427E1
2.268022984E1,-2.392822690E-2,2.866601467E0,7.931608677E0
2.270034166E1,-3.810569942E-1,2.969492912E0,7.082755089E0
2.272045348E1,-8.255237937E-1,2.940778971E0,8.225926399E0
2.274056531E1,-9.200403094E-1,2.868396044E0,8.526225090E0
2.276067713E1,-9.200403094E-1,2.763111830E0,8.931210518E0
2.278078895E1,-1.160519004E0,2.721237659E0,9.262018204E0
2.280090078E1,-1.177866936E0,2.609373093E0,9.265607834E0
2.282101265E1,-1.081555843E0,2.539382935E0,9.150154114E0
2.284112447E1,-8.291130662E-1,2.595016241E0,8.463413239E0
2.286123630E1,-6.819544435E-1,2.714059114E0,7.509275436E0
2.288134812E1,-6.125625968E-1,2.814557552E0,7.283751965E0
2.290145994E1,-5.312066078E-1,2.891726255E0,7.715058327E0
2.292157177E1,-4.378865361E-1,2.799004316E0,8.003992081E0
2.294168359E1,-4.043870270E-1,2.783450842E0,7.781459332E0
2.296179541E1,-3.254238665E-1,2.856431961E0,7.706683636E0
2.298190724E1,-3.140579760E-1,3.066402197E0,8.072785378E0
2.300201906E1,-4.414757788E-1,3.229114056E0,8.933603287E0
2.302213088E1,-4.474578202E-1,3.297309637E0,9.948758125E0
2.304224276E1,-6.047859192E-1,3.407379389E0,1.097707367E1
2.306235458E1,-5.467599630E-1,3.572484255E0,1.137368393E1
2.308246640E1,-4.307080805E-1,3.561118364E0,1.122473145E1
2.310257822E1,-3.816552162E-1,3.795016766E0,1.109192944E1
2.312269005E1,1.345962733E-1,3.984647989E0,1.003430176E1
2.314280187E1,4.839483798E-1,3.799802303E0,9.775876999E0
2.316291369E1,2.973082066E-1,3.313461065E0,1.197906876E1
2.318302552E1,-5.359922647E-1,2.836092949E0,1.430549049E1
2.320313734E1,-5.114658475E-1,2.602792740E0,1.328734398E1
2.322324916E1,-1.328016520E-1,2.410170555E0,1.084726334E1
2.324336104E1,3.092723191E-1,2.321038008E0,8.941379547E0
2.326347286E1,5.210371017E-1,2.395215511E0,8.236095428E0
2.328358468E1,4.175475538E-1,2.447857618E0,8.600402832E0
2.330369651E1,4.965107143E-2,2.592025042E0,8.518448830E0
2.332380833E1,1.782652885E-1,2.740380049E0,7.881359577E0
2.334392015E1,3.080759048E-1,2.930609465E0,7.704290867E0
2.336403197E1,3.140579760E-1,2.924029350E0,7.747959614E0
2.338414380E1,-4.307080805E-2,2.735594511E0,8.553742409E0
2.340425562E1,-5.581258535E-1,2.630310297E0,9.680164337E0
2.342436744E1,-7.334001660E-1,2.661417007E0,9.827920914E0
2.344447927E1,-5.054838061E-1,2.743969440E0,8.861220360E0
2.346459114E1,-1.800599098E-1,2.851646423E0,7.984251022E0
2.348470296E1,1.196411345E-2,2.953341246E0,7.649854183E0
2.350481479E1,2.955136001E-1,3.003590584E0,7.834699631E0
2.352492661E1,6.987041831E-1,3.046661377E0,8.163712502E0
2.354503843E1,6.586244106E-1,3.261417150E0,8.410771370E0
2.356515026E1,2.877369225E-1,3.510270834E0,8.480761528E0
2.358526208E1,-2.249253243E-1,3.682554007E0,8.644071579E0
2.360537390E1,-6.681957245E-1,3.717249870E0,9.158528328E0
2.362548572E1,-8.261220455E-1,3.742374659E0,9.812965393E0
2.364559755E1,-7.800601721E-1,3.791427374E0,9.614959717E0
2.366570942E1,-9.409775138E-1,3.851846218E0,9.691530228E0
2.368582124E1,-7.830511928E-1,3.897309780E0,1.048116112E1
2.370593307E1,-5.976074338E-1,4.300500393E0,1.091844940E1
2.372604489E1,-6.101697683E-1,4.304687977E0,1.108953667E1
2.374615671E1,-1.190429211E0,3.945166349E0,1.074317551E1
2.376626854E1,-1.225723386E0,3.145365477E0,1.163450146E1
2.378638036E1,-7.818548083E-1,2.469991207E0,1.301695538E1
2.380649218E1,-3.332005441E-1,2.367697954E0,1.172722340E1
2.382660401E1,6.819544733E-2,2.519043922E0,9.141180992E0
2.384671583E1,-1.226321608E-1,2.667997360E0,7.946564198E0
2.386682770E1,-6.185446382E-1,2.656033039E0,8.082955360E0
2.388693953E1,-8.967102766E-1,2.470589399E0,8.998807907E0
2.390705135E1,-9.326026440E-1,2.411965132E0,9.190233231E0
2.392716317E1,-1.162911773E0,2.557329178E0,8.602795601E0
2.394727500E1,-9.110672474E-1,2.487339020E0,8.616554260E0
2.396738682E1,-1.021735311E0,2.502294302E0,9.391828537E0
2.398749864E1,-1.192223907E0,2.468196630E0,9.997811317E0
2.400761046E1,-1.024726272E0,2.443071842E0,8.429315567E0
2.402772229E1,-6.693921089E-1,2.539981127E0,6.912266254E0
2.404783411E1,-7.357929349E-1,2.718844652E0,7.219145775E0
2.406794593E1,-8.153542876E-1,2.755933523E0,8.022536278E0
2.408805781E1,-8.871390224E-1,2.866003275E0,8.034500122E0
2.410816963E1,-9.242277741E-1,3.078366280E0,7.866404533E0
2.412828145E1,-8.530412912E-1,3.287738323E0,7.886743546E0
2.414839328E1,-4.773681164E-1,3.422334671E0,8.562715530E0
2.416850510E1,-4.755735099E-1,3.527618885E0,9.274580956E0
2.418861692E1,-8.602197170E-1,3.681955814E0,9.576076508E0
2.420872875E1,-1.107876897E0,3.718446493E0,9.722636223E0
2.422884057E1,-1.236491084E0,3.830909014E0,9.702297211E0
2.424895239E1,-9.852447510E-1,3.930211306E0,9.945767403E0
2.426906421E1,-6.526423693E-1,4.042075634E0,1.021376324E1
2.428917604E1,-5.934200287E-1,3.972683907E0,1.036451149E1
2.430928786E1,-7.878368497E-1,3.977469444E0,1.101715374E1
2.432939968E1,-6.227321029E-1,3.982853174E0,1.054576778E1
2.434951156E1,-1.357926875E-1,3.884747505E0,9.934401512E0
2.436962338E1,8.614161611E-2,3.428914785E0,1.054576778E1
2.438973520E1,1.435693540E-2,2.911466837E0,1.250907898E1
2.440984703E1,-1.202393398E-1,2.420938253E0,1.390289783E1
2.442995885E1,-6.741777658E-1,2.374278307E0,1.281236839E1
2.445007067E1,-6.664010882E-1,2.492722988E0,1.009950638E1
2.447018250E1,-5.922235847E-1,2.669193745E0,7.377072334E0
2.449029432E1,-3.750749528E-1,2.714059114E0,6.745367050E0
2.451040614E1,-1.968096644E-1,2.767897606E0,7.706085205E0
2.453051796E1,-1.046859920E-1,2.708675146E0,8.684151649E0
2.455062979E1,2.213360965E-1,2.447857618E0,9.410971642E0
2.457074161E1,9.571290761E-2,2.389233351E0,1.049073315E1
2.459085348E1,6.580262631E-2,2.363510609E0,1.016650486E1
2.461096531E1,-1.046859920E-1,2.384447813E0,9.098708153E0
2.463107713E1,-2.111666054E-1,2.449652195E0,7.920841217E0
2.465118895E1,-6.520441920E-2,2.590828657E0,6.719046116E0
2.467130078E1,1.609173268E-1,2.687139750E0,6.501897335E0
2.469141260E1,3.445664644E-1,2.791227579E0,6.392425537E0
2.471152442E1,4.486542344E-1,2.871985435E0,6.784250259E0
2.473163624E1,4.169493318E-1,2.885744095E0,7.740182877E0
2.475174807E1,3.858426511E-1,2.823530674E0,9.181260109E0
2.477185989E1,1.854437590E-2,2.970689297E0,9.478569031E0
2.479197171E1,2.811566554E-2,3.167499065E0,8.784051895E0
2.481208354E1,-8.614161611E-2,3.518645763E0,8.918647766E0
2.483219536E1,-1.734796464E-1,3.808775425E0,9.406186104E0
2.485230718E1,2.213360928E-2,3.945764542E0,1.018325520E1
2.487241906E1,-6.400800496E-2,3.963112593E0,1.103330517E1
2.489253088E1,3.541377485E-1,3.685544968E0,1.131805134E1
2.491264270E1,8.979067206E-1,3.235694408E0,1.323948765E1
2.493275453E1,8.584251404E-1,3.355335474E0,1.413799286E1
2.495286635E1,6.903293133E-1,3.944568157E0,1.095434189E1
2.497297817E1,5.228317380E-1,4.252644062E0,8.905488014E0
2.499309000E1,5.856433511E-1,3.655634880E0,9.659226418E0
2.501320182E1,-9.571290761E-2,2.825923443E0,1.190010548E1
2.503331364E1,-5.623133108E-2,2.046461582E0,1.385025597E1
2.505342546E1,6.352944374E-1,1.587637782E0,1.310907841E1
2.507353729E1,6.861419082E-1,1.908276081E0,1.064028454E1
2.509364911E1,4.869394004E-1,2.371287346E0,9.236893654E0
2.511376093E1,-2.344966233E-1,3.113660574E0,7.475177765E0
2.513387276E1,-1.214357495E0,3.638885021E0,6.728617191E0
2.515398458E1,-1.268195987E0,3.480958700E0,6.628716946E0
2.517409645E1,-8.691928387E-1,2.920439959E0,7.791030407E0
2.519420822E1,-2.949153781E-1,2.268395901E0,1.023948669E1
2.521432010E1,-4.468596280E-1,2.184647083E0,1.093101215E1
2.523443192E1,-3.397209883E0,3.399602890E0,1.199761295E1
2.525454374E1,-1.821536183E0,3.363112211E0,6.942176819E0
2.527465557E1,-3.511467278E-1,3.154338360E0,6.468397617E0
2.529476739E1,-5.383851007E-3,2.529213428E0,9.058628082E0
2.531487921E1,9.391828626E-2,2.282154560E0,8.596215248E0
2.533499104E1,-5.066801906E-1,2.373081923E0,8.764909744E0
2.535510286E1,-4.313062727E-1,2.354537487E0,8.120641708E0
2.537521468E1,-4.025924206E-1,2.405385017E0,8.453842163E0
2.539532651E1,-1.986042857E-1,2.510071039E0,8.971888542E0
2.541543833E1,-4.588237405E-1,2.877369165E0,8.723034859E0
2.543555015E1,-5.156532526E-1,2.951546669E0,8.860024452E0
2.545566197E1,-3.284149170E-1,3.010769129E0,8.047062874E0
2.547577380E1,-6.909275651E-1,3.353540897E0,7.853243828E0
2.549588562E1,-5.641079545E-1,3.484548092E0,8.029714584E0
2.551599744E1,-1.585244983E-1,3.228515863E0,8.919844627E0
2.553610927E1,-1.663011760E-1,3.144168854E0,9.007183075E0
2.555622114E1,-3.332005441E-1,3.044268608E0,9.421739578E0
2.557633296E1,-4.175475538E-1,2.995215654E0,9.766305923E0
2.559644479E1,-1.579262912E-1,2.979064226E0,9.443872452E0
2.561655661E1,4.067798331E-2,3.130410194E0,9.962516785E0
2.563666843E1,-4.426721856E-2,3.287140131E0,8.361120224E0
2.565678026E1,-7.800601721E-1,3.299104214E0,8.867800713E0
2.567689208E1,-2.572284341E-1,2.453839540E0,1.088794136E1
2.569700390E1,-4.127618968E-1,2.099701881E0,1.216211891E1
2.571711572E1,-9.433703423E-1,2.292324066E0,1.180140114E1
2.573722755E1,-5.718846321E-1,2.345564365E0,9.772287369E0
2.577700298E1,-4.803591371E-1,4.874777794E0,9.489934921E0
2.579711459E1,-3.044866920E-1,4.814957142E0,9.017950058E0
2.581722615E1,-9.451649338E-2,4.965106964E0,8.319844246E0
2.583733777E1,-2.350948304E-1,5.296513081E0,7.796414375E0
2.585744933E1,-3.918247223E-1,5.487938881E0,7.548159122E0
2.587756094E1,-4.869394004E-1,5.541179180E0,7.682157040E0
2.589767251E1,-4.743770957E-1,5.335994720E0,8.444271088E0
2.591778412E1,-3.684946895E-1,5.127819061E0,9.148957253E0
2.593789568E1,-4.378865361E-1,5.101497650E0,9.208179474E0
2.595800730E1,-6.723831892E-1,5.124229908E0,9.407382011E0
2.597811891E1,-9.044869542E-1,5.199603558E0,9.820143700E0
2.599823048E1,-3.044866920E-1,5.179862976E0,9.323633194E0
2.601834209E1,3.589234129E-2,5.288137913E0,7.588837147E0
2.603845365E1,-2.751746029E-2,5.361717224E0,7.031309128E0
2.605856527E1,1.333998591E-1,5.060221672E0,8.224131584E0
2.607867683E1,4.354937077E-1,4.434498787E0,1.075513935E1
2.609878844E1,4.067798555E-1,4.305285931E0,1.208913803E1
2.611890001E1,1.914258152E-1,4.890929699E0,1.151605701E1
2.613901162E1,5.114658475E-1,5.481358528E0,1.021555805E1
2.615912318E1,6.173482537E-1,5.734997749E0,1.008694363E1
2.617923480E1,-7.118647546E-2,5.883352757E0,1.216331577E1
2.619934636E1,6.975077987E-1,5.114658356E0,1.279860973E1
2.621945798E1,2.608176708E0,4.164109707E0,1.114636612E1
2.623956954E1,3.174677372E0,4.022933006E0,9.535398483E0
2.625968115E1,9.349954724E-1,4.822733879E0,9.311071396E0
2.627979272E1,-9.206385016E-1,4.540380955E0,1.077428246E1
2.629990433E1,-1.720439434E0,3.440878868E0,1.333340645E1
2.632001589E1,-1.213161111E0,2.670390129E0,1.431207085E1
2.634012751E1,9.571290761E-2,2.900699139E0,1.175354481E1
2.636023907E1,9.900303483E-1,3.236292601E0,9.662816048E0
2.638035063E1,6.598208547E-1,3.609572887E0,8.522037506E0
2.640046225E1,-5.982056856E-1,3.772284985E0,8.511868477E0
2.642057381E1,-1.230509043E0,3.815953970E0,8.719446182E0
2.644068542E1,-1.156929731E0,3.820739508E0,8.651249886E0
2.646079698E1,-7.417750359E-1,3.832105398E0,8.117650986E0
2.648090860E1,-2.638086975E-1,3.682554007E0,7.664809227E0
2.650102016E1,-4.127618968E-1,3.586841106E0,7.494320393E0
2.652113178E1,-1.201795220E0,3.750749588E0,7.318448067E0
2.654124334E1,-1.538584948E0,3.828516245E0,7.657032490E0
2.656135490E1,-5.252245665E-1,3.251247883E0,8.005187988E0
2.658146652E1,4.612165689E-1,2.858226538E0,7.874779224E0
2.660157808E1,1.192223907E0,2.722434044E0,7.329215527E0
2.662168969E1,1.348953724E0,3.068794966E0,7.071389198E0
2.664180126E1,8.530412912E-1,3.522234917E0,7.424330235E0
2.666191287E1,3.786641955E-1,3.557528973E0,7.865208149E0
2.668202443E1,1.860419661E-1,3.394817114E0,8.299505234E0
2.670213605E1,-5.024927258E-1,4.013361931E0,8.550751686E0
2.672224761E1,-1.243071318E0,4.834698200E0,8.467002869E0
2.674235917E1,-8.225327730E-1,4.789234638E0,8.956933022E0
2.676247079E1,1.932204217E-1,4.176073551E0,1.087178993E1
2.678258235E1,5.545366406E-1,3.650849104E0,1.299900913E1
2.680269397E1,3.595215976E-1,3.869792461E0,1.307079411E1
2.682280553E1,1.103091240E0,4.329214573E0,1.129172993E1
2.684291709E1,1.343569875E0,4.528416634E0,9.796216011E0
2.686302870E1,4.636093974E-1,4.374678135E0,1.018505001E1
2.688314027E1,-1.433898926E0,4.404588223E0,1.156690502E1
2.690325183E1,-2.572284460E0,3.982254982E0,1.322273827E1
2.692336344E1,-1.703689694E0,3.300300598E0,1.225902843E1
2.694347501E1,-1.447657645E-1,3.192025423E0,9.051449776E0
2.696358662E1,4.504488707E-1,3.546163082E0,6.269195557E0
2.698369818E1,1.980060786E-1,3.707080364E0,5.758925915E0
2.700380975E1,-4.073780477E-1,3.585644722E0,6.486343861E0
2.702392136E1,-6.448656917E-1,3.515654564E0,6.713662148E0
2.704403292E1,-2.644068897E-1,3.418745279E0,6.501897335E0
2.706414448E1,2.871387303E-1,2.914458036E0,7.527221680E0
2.708425610E1,6.759724021E-2,2.527418852E0,7.982456207E0
2.710436766E1,-3.876372576E-1,2.571686029E0,7.800003529E0
2.712447922E1,-2.225325108E-1,2.818146944E0,6.840481758E0
2.714459084E1,4.504488707E-1,2.985644341E0,6.132206440E0
2.716470240E1,1.079761267E0,3.550948858E0,5.382056236E0
2.718481396E1,1.825125456E0,3.706482172E0,5.825924873E0
2.720492558E1,1.819741607E0,3.684946775E0,7.167700291E0
2.722503714E1,4.594219327E-1,4.255036831E0,8.015955925E0
2.724514870E1,-9.499505758E-1,5.018945694E0,8.111668587E0
2.726526032E1,-1.779661894E0,5.422136307E0,7.781459332E0
2.728537188E1,-1.173081279E0,5.134997368E0,6.875775814E0
2.730548344E1,2.171486616E-1,4.348356724E0,7.702496052E0
2.732559506E1,1.144367456E0,3.509672642E0,1.056849957E1
2.734570662E1,1.562513232E0,2.955136061E0,1.244925785E1
2.736581818E1,8.536394835E-1,3.219542980E0,1.147119141E1
2.738592980E1,-1.212562919E0,3.830909014E0,8.842078209E0
2.740604136E1,-1.910668850E0,4.390231133E0,7.883154392E0
2.742615292E1,-1.369890928E0,4.150351048E0,1.039442158E1
2.744626448E1,-1.704886079E0,3.433700562E0,1.449751377E1
2.746637610E1,-1.453041553E0,2.944368362E0,1.587996769E1
2.748648766E1,-2.452643216E-2,2.276770830E0,1.419362545E1
2.750659923E1,8.656035662E-1,2.053640127E0,1.255813122E1
2.752671084E1,1.422533035E0,1.940579176E0,1.140299606E1
2.754682240E1,1.022333503E0,2.243271112E0,9.869794846E0
2.756693396E1,-4.336991012E-1,3.077768087E0,8.895318031E0
2.758704558E1,-1.089332461E0,3.166900873E0,9.354142189E0
2.760715714E1,-6.185446382E-1,2.314457655E0,1.046261692E1
2.762726870E1,-6.981059909E-1,2.045265198E0,1.053918743E1
2.764738027E1,-1.216152072E0,2.508276224E0,9.243474007E0
2.766749188E1,-7.555337548E-1,2.614158630E0,8.784649849E0
2.768760344E1,-2.494517565E-1,2.292324066E0,9.233902931E0
2.770771501E1,-3.529413342E-1,2.199602127E0,9.750154495E0
2.772782657E1,-5.335994363E-1,2.243869543E0,9.335597992E0
2.774793818E1,-2.751746178E-1,2.058425665E0,9.329017639E0
2.776804975E1,2.273181453E-2,1.810768485E0,9.350552559E0
2.778816131E1,-1.794617064E-2,1.830509305E0,8.362317085E0
2.780827287E1,-3.068794906E-1,2.090130568E0,7.467401028E0
2.782838448E1,-4.827519655E-1,2.291725874E0,6.951747894E0
2.784849605E1,-5.060819983E-1,2.466402054E0,6.610770702E0
2.786860761E1,-4.995017350E-1,2.809173822E0,6.084349632E0
2.788871917E1,-9.278169870E-1,3.361317635E0,6.078966141E0
2.790883079E1,-1.384247899E0,3.956532240E0,6.942176819E0
2.792894235E1,-1.310668588E0,3.934398651E0,8.151748657E0
2.794905391E1,-1.232901812E0,4.004388809E0,8.765507698E0
2.796916548E1,-1.262812138E0,4.224528313E0,9.180662155E0
2.798927704E1,-1.293918848E0,4.229912281E0,1.052901745E1
2.800938865E1,-1.595414519E0,4.271786690E0,1.198923779E1
2.802950022E1,-1.253240824E0,4.092324734E0,1.243789196E1
2.804961178E1,-4.929214716E-1,4.054039955E0,1.196531010E1
2.806972334E1,2.913261652E-1,3.937987804E0,1.223809147E1
2.808983495E1,2.877369225E-1,3.948157310E0,1.225902843E1
2.810994652E1,2.650051117E-1,4.189234257E0,1.132343483E1
2.813005808E1,5.766702294E-1,3.667598963E0,1.082931709E1
2.815016964E1,6.041877344E-2,2.640479803E0,1.247079372E1
2.817028120E1,-1.112662554E0,1.860419631E0,1.401835155E1
2.819039277E1,-2.318047047E0,1.808973908E0,1.420678616E1
2.821050438E1,-2.210369825E0,2.181057930E0,1.156451225E1
2.823061594E1,-1.163509965E0,2.301297188E0,8.891729355E0
2.825072751E1,-1.501496136E-1,1.892124534E0,8.271987915E0
2.827083907E1,9.690931439E-2,1.475175142E0,8.760722160E0
2.829095063E1,3.445664644E-1,1.141376376E0,9.291330338E0
2.831106225E1,7.716853172E-2,1.488335729E0,8.122436523E0
2.833117381E1,-5.066801906E-1,2.314457655E0,6.152545452E0
2.835128537E1,-8.907282352E-1,3.019144058E0,4.988437176E0
2.837139693E1,-7.740781307E-1,3.103491068E0,5.427519798E0
2.839150850E1,-2.476571500E-1,2.725425005E0,6.894320011E0
2.841162006E1,2.039881349E-1,2.280958176E0,8.280961037E0
2.843173167E1,1.016949583E-2,2.304288149E0,8.644071579E0
2.845184324E1,-2.955136001E-1,2.548356056E0,8.145766258E0
2.847195480E1,-2.847459018E-1,2.680559635E0,7.603193760E0
2.849206636E1,-4.277170599E-1,3.004786968E0,7.241877556E0
2.851217792E1,-6.000002623E-1,3.601198196E0,6.890730858E0
2.853228948E1,-7.220342159E-1,4.165306091E0,6.453442574E0
2.855240105E1,-5.802595019E-1,4.431507587E0,6.577271461E0
2.857251266E1,-3.337987661E-1,4.466801643E0,7.433901787E0
2.859262422E1,-6.071787477E-1,4.844867706E0,7.913064480E0
2.861273579E1,-9.960124493E-1,5.049454212E0,9.622735977E0
2.863284735E1,-7.704889178E-1,4.837090969E0,1.225603771E1
2.865295891E1,-1.938186288E-1,4.707280159E0,1.330708504E1
2.867307048E1,4.564309120E-1,4.682155609E0,1.262213898E1
2.869318204E1,6.699903309E-2,4.882554531E0,1.169372463E1
2.871329365E1,-6.017948985E-1,4.990231514E0,1.257727432E1
2.873340522E1,-8.853443861E-1,4.840680122E0,1.283270741E1
2.875351678E1,-1.334596872E0,4.942973614E0,1.175055408E1
2.877362834E1,-1.534397483E0,4.557728767E0,1.250848007E1
2.879373990E1,-1.186840057E0,3.537788391E0,1.406022549E1
2.881385147E1,-4.301098585E-1,2.757728100E0,1.415892982E1
2.883396303E1,2.590230405E-1,2.739781857E0,1.185284710E1
2.885407459E1,4.229314029E-1,3.324228764E0,8.365307808E0
2.887418615E1,-1.567298770E-1,3.953541279E0,6.054439545E0
2.889429772E1,-7.842476368E-1,3.932604074E0,5.732006550E0
2.891440933E1,-1.083350420E0,3.266202927E0,7.549953461E0
2.893452089E1,-1.120439172E0,2.661417007E0,9.451051712E0
2.895463245E1,-8.769695163E-1,2.542374134E0,9.617950439E0
2.897474402E1,-6.496513486E-1,2.694916487E0,8.349156380E0
2.899485558E1,-6.071787477E-1,2.724826813E0,7.083951473E0
2.901496714E1,-9.792626500E-1,2.481955290E0,6.961917400E0
2.903507870E1,-9.726824164E-1,2.450250387E0,7.194619656E0
2.905519027E1,-9.571290612E-1,2.975475073E0,6.853044033E0
2.907530183E1,-7.046862841E-1,3.631706476E0,6.244668961E0
2.909541339E1,-1.034895778E-1,3.811766386E0,6.401398659E0
2.911552495E1,5.341976285E-1,3.458825111E0,7.677969456E0
2.913563657E1,8.470591903E-1,3.225524902E0,8.696713448E0
2.915574813E1,6.113662124E-1,3.556332588E0,8.970691681E0
2.917585969E1,1.256231871E-2,4.469792843E0,8.511868477E0
2.919597126E1,1.256231871E-2,4.931009293E0,8.042875290E0
2.921608282E1,4.486542568E-2,5.196612358E0,8.197212219E0
2.923619438E1,-4.235295951E-1,5.440680504E0,9.235098839E0
2.925630594E1,-3.924229145E-1,5.338985443E0,1.084307575E1
2.927641751E1,2.991028363E-3,5.023132801E0,1.145982552E1
2.929652907E1,8.793623000E-2,5.291727066E0,1.104227829E1
2.931664063E1,-1.238285750E-1,5.588437080E0,1.026401234E1
2.933675219E1,-4.235295951E-1,5.666203976E0,1.011924744E1
2.935686376E1,-7.256234884E-1,4.663012981E0,1.174995518E1
2.937697532E1,-1.070788145E0,3.267997503E0,1.363131237E1
2.939708688E1,-1.118644595E0,2.484946251E0,1.402792263E1
2.941719844E1,-9.625129104E-1,2.840280533E0,1.129172993E1
2.943731001E1,-1.752742529E-1,3.378665686E0,8.429315567E0
2.945742162E1,5.724828243E-1,3.649652719E0,6.500102520E0
2.947753318E1,8.003991842E-1,3.628715515E0,5.842674732E0
2.949764475E1,2.338984162E-1,3.297907829E0,7.061219692E0
2.951775631E1,-6.939185858E-1,3.018545866E0,8.440083504E0
2.953786787E1,-1.015154958E0,2.842075109E0,8.605786324E0
2.955797943E1,-7.549355626E-1,2.861815929E0,7.660023689E0
2.957809100E1,-3.170489967E-1,2.789433002E0,7.198806763E0
2.959820256E1,-8.494520187E-2,2.647658348E0,7.252645493E0
2.961831412E1,2.512463629E-1,2.457428932E0,7.200601578E0
2.963842568E1,5.862415433E-1,2.349751949E0,6.986443996E0
2.965853725E1,7.549355626E-1,2.641676188E0,6.888936520E0
2.967864881E1,5.581258535E-1,3.165106058E0,7.222136974E0
2.969876037E1,1.154536903E-1,3.828516245E0,7.002595425E0
2.971887193E1,3.068794906E-1,4.028914928E0,7.488338470E0
2.973898350E1,5.593222976E-1,4.253242016E0,7.984251022E0
2.975909506E1,5.036891699E-1,4.697709084E0,8.174480438E0
2.977920662E1,-3.110669367E-2,5.060820103E0,8.819944382E0
2.979931818E1,-9.200403094E-1,4.874777794E0,1.088853931E1
2.981942975E1,-1.299900889E0,4.092324734E0,1.384905910E1
2.983954131E1,-8.105686903E-1,3.796811342E0,1.504068470E1
2.985965287E1,-6.813562512E-1,4.133002758E0,1.281476212E1
2.987976443E1,-6.167500615E-1,4.280161381E0,1.068514919E1
2.989987600E1,-1.080957651E0,4.379463673E0,1.052243805E1
2.991998756E1,-1.225723386E0,3.597608805E0,1.247079372E1
2.994009912E1,-2.913261652E-1,2.225923300E0,1.459980774E1
2.996021068E1,5.832505226E-1,1.318445325E0,1.482353592E1
2.998032225E1,6.191428304E-1,1.603191137E0,1.193300629E1
3.000043381E1,-2.667997181E-1,2.562114954E0,8.987442017E0
3.002054537E1,-9.852447510E-1,3.250051260E0,7.198208809E0
3.004065693E1,-1.451845169E0,3.482753277E0,6.640681267E0
3.006076850E1,-2.148156643E0,3.425325632E0,7.277172089E0
3.008088006E1,-2.280359983E0,3.245863914E0,7.716853142E0
3.010099162E1,-1.664208174E0,2.807379246E0,8.191828728E0
3.012110318E1,-1.092323542E0,2.516052961E0,8.748159409E0
3.014121475E1,-1.238285750E-1,2.366501570E0,8.220541954E0
3.016132631E1,-2.392822690E-2,2.773879766E0,7.437490940E0
3.018143787E1,-4.845465720E-1,3.290729284E0,7.353144169E0
3.020154943E1,-9.661021233E-1,3.613162279E0,7.448258877E0
3.022166100E1,-8.721838593E-1,3.380460262E0,7.896314621E0
3.024177256E1,-4.971089065E-1,3.244667530E0,8.044670105E0
3.026188412E1,-1.878365725E-1,3.720839262E0,6.955337048E0
3.028199568E1,-2.560320199E-1,4.547559261E0,6.057430744E0
3.030210725E1,-6.693921089E-1,5.187041283E0,6.240481377E0
3.032221881E1,-8.015955687E-1,5.273781300E0,7.163512707E0
3.034233037E1,2.153540403E-2,4.835894585E0,7.941778183E0
3.036244193E1,6.705885530E-1,4.493122578E0,9.095118523E0
3.038255350E1,4.055834413E-1,4.399802685E0,1.098903847E1
3.040266506E1,-1.033101201E0,4.785645485E0,1.231825066E1
3.042277662E1,-1.656431437E0,5.147559643E0,1.188096237E1
3.044288818E1,7.549355626E-1,4.476971149E0,1.029930687E1
3.046299975E1,3.672982693E0,3.581457376E0,9.270393372E0
3.048311131E1,3.029911757E0,3.364906788E0,1.017846966E1
3.050322282E1,-4.163511395E-1,3.559921980E0,1.251865005E1
3.052333443E1,-2.194218397E0,3.570091486E0,1.291047478E1
3.054344594E1,-1.792822361E0,3.361317635E0,1.140180016E1
3.056355751E1,-6.568298340E-1,3.472583771E0,9.195018768E0
3.058366907E1,1.591227055E-1,3.629911900E0,8.110472679E0
3.060378063E1,3.882354796E-1,3.771088600E0,7.512865067E0
3.062389219E1,5.312066078E-1,3.769891977E0,7.381259441E0
3.064400376E1,4.187439680E-1,3.530011654E0,8.604590416E0
3.066411532E1,-1.722832322E-1,3.412763357E0,9.442676544E0
3.068422688E1,-1.194018483E0,3.558725595E0,9.765707016E0
3.070433844E1,-1.505085468E0,3.549752474E0,9.557532310E0
3.072445001E1,-1.214955688E0,3.301496983E0,9.314660072E0
3.074456157E1,-8.470591903E-1,3.116651535E0,9.069396019E0
3.076467313E1,-4.845465720E-1,3.119642496E0,8.284550667E0
3.078478469E1,-3.349951655E-2,3.203391314E0,7.487740040E0
3.080489626E1,7.298108935E-2,3.407379389E0,7.104888439E0
3.082500782E1,3.152543902E-1,3.501895905E0,7.626523972E0
3.084511938E1,7.848458290E-1,3.557528973E0,7.833503246E0
3.086523094E1,8.883354068E-1,3.878765583E0,7.633104324E0
3.088534251E1,8.147560954E-1,4.261018753E0,7.067800045E0
3.090545407E1,6.173482537E-1,4.575077057E0,6.835696220E0
3.092556563E1,6.945167780E-1,4.302295208E0,7.991429329E0
3.094567714E1,5.431707501E-1,3.906881094E0,9.684351921E0
3.096578870E1,6.580262445E-3,3.790230989E0,1.077667522E1
3.098590027E1,-1.261017561E0,4.025325775E0,1.184925747E1
3.100601183E1,-2.075175524E0,4.372285366E0,1.160279655E1
3.102612339E1,-1.270588875E0,4.641477585E0,9.888339996E0
3.104623495E1,-1.178465188E-1,4.183252335E0,8.799007416E0
3.106634652E1,-6.340979785E-2,3.731008768E0,9.260822296E0
3.108645808E1,-7.106683254E-1,2.989233732E0,1.246241856E1
3.110656964E1,-1.316052437E0,2.334796667E0,1.480738449E1
3.112668120E1,-1.381855130E0,2.454437733E0,1.375334644E1
3.114679277E1,-1.201795220E0,3.390031576E0,9.677771568E0
3.116690433E1,-8.937192559E-1,4.243072987E0,6.708278179E0
3.118701589E1,-2.350948304E-1,4.400400639E0,6.028716564E0
3.120712740E1,1.417747438E-1,3.978067636E0,7.680362701E0
3.122723896E1,-3.044866920E-1,3.455235958E0,1.013420200E1
3.124735053E1,-7.914260626E-1,2.945564747E0,1.171466160E1
3.126746209E1,-7.369893789E-1,2.906681299E0,1.087896824E1
3.128757365E1,-5.353940725E-1,3.149552822E0,9.695717812E0
3.130768522E1,-9.631111473E-2,3.022135019E0,1.020778179E1
3.132779678E1,-3.541377485E-1,2.946162939E0,1.065344429E1
3.134790834E1,-8.823533654E-1,3.074178934E0,9.799206734E0
3.136801990E1,-1.083948612E0,3.215355396E0,8.089534760E0
3.138813146E1,-9.355936646E-1,3.145963669E0,7.001399040E0
3.140824303E1,-2.638086975E-1,2.705085993E0,6.789634228E0
3.142835459E1,-7.776673418E-3,2.636292458E0,6.119045734E0
3.144846615E1,-9.332008660E-2,2.959921598E0,5.507679462E0
3.146857772E1,-2.338984162E-1,3.269792080E0,5.784648895E0
3.148868922E1,-2.901297510E-1,3.445066452E0,6.638288021E0
3.150880079E1,-6.478567123E-1,3.877569199E0,6.987640381E0
3.152891235E1,-9.762716293E-1,4.374678135E0,7.611568928E0
3.154902391E1,-7.657032460E-2,4.342973232E0,8.994022369E0
3.156913548E1,5.826523304E-1,4.282554150E0,1.036451149E1
3.158924704E1,-2.590230405E-1,4.637888432E0,1.125284672E1
3.160935860E1,-8.356932998E-1,5.092525005E0,9.726823807E0
3.162947016E1,3.379862010E-1,4.722235680E0,8.329415321E0
3.164958172E1,6.197410822E-1,3.984647989E0,1.104526901E1
3.166969329E1,3.870390654E-1,3.351148129E0,1.563470268E1
3.168980480E1,-9.750752151E-2,3.517449379E0,1.469013596E1
3.170991636E1,-3.559323549E-1,4.293920040E0,1.054038334E1
3.173002792E1,-5.820540786E-1,4.894518852E0,8.758927345E0
3.175013949E1,-5.144568533E-2,4.554738045E0,9.057432175E0
3.177025105E1,4.725824594E-1,3.819543123E0,9.628120422E0
3.179036261E1,3.900300860E-1,3.464807272E0,9.563513756E0
3.181047417E1,2.392822690E-2,3.360121250E0,9.418747902E0
3.183058574E1,-1.214357466E-1,3.337389469E0,9.195018768E0
3.185069730E1,2.135594189E-1,3.156731367E0,9.390034676E0
3.187080886E1,6.520441771E-1,2.907279491E0,9.237491608E0
3.189092042E1,6.448656917E-1,3.010170937E0,8.434700012E0
3.191103193E1,1.962114573E-1,3.135195971E0,8.065009117E0
3.193114350E1,-5.365904570E-1,3.171088219E0,8.230113029E0
3.195125506E1,-7.124629617E-1,2.972483873E0,8.390432358E0
3.197136662E1,-5.952146053E-1,2.803789854E0,8.053643227E0
3.199147818E1,-4.654040039E-1,2.824128866E0,7.327421188E0
3.201158975E1,-1.256231815E-1,2.745165825E0,7.001997471E0
3.203170131E1,1.196411345E-2,2.676970243E0,7.391428947E0
3.205181287E1,2.428714931E-1,2.635694027E0,8.160123825E0
3.207192438E1,3.990031779E-1,2.925823927E0,8.078168869E0
3.209203594E1,6.281159073E-2,3.637688637E0,7.669594765E0
3.211214751E1,-7.776673418E-3,4.153341770E0,7.543373585E0
3.213225907E1,1.501496136E-1,4.552943230E0,7.826324463E0
3.215237063E1,1.022931710E-1,4.560719967E0,9.259027481E0
3.217248219E1,-4.725824669E-2,4.353740692E0,9.989436150E0
3.219259376E1,1.884347796E-1,4.193421841E0,9.812367439E0
3.221270532E1,3.002992272E-1,4.255635262E0,1.026700401E1
3.223281688E1,3.385843933E-1,4.281956196E0,1.116251755E1
3.225292839E1,1.417747438E-1,3.981058598E0,1.250130177E1
3.227303995E1,-2.368894368E-1,3.835096598E0,1.246600819E1
3.229315152E1,-3.296113312E-1,3.724428415E0,1.158066368E1
3.231326308E1,1.423729509E-1,3.357728481E0,1.163091278E1
3.233337464E1,5.312066078E-1,2.486740828E0,1.340818214E1
3.235348620E1,7.166503668E-1,2.066800594E0,1.360678577E1
3.237359777E1,6.221338734E-2,2.666800737E0,1.088913727E1
3.239370933E1,-8.506484628E-1,3.984049797E0,6.881159782E0
3.241382084E1,-8.237292171E-1,4.668995380E0,3.741776466E0
3.243393240E1,-1.351944804E-1,3.430111170E0,5.879763603E0
3.245404397E1,1.220339537E-1,2.009970903E0,1.002891827E1
3.247415553E1,2.973082066E-1,1.348355532E0,1.241934776E1
3.249426709E1,-8.494520187E-2,1.996810555E0,1.078265667E1
3.251437865E1,-4.348955154E-1,2.697309256E0,8.093722343E0
3.253449022E1,-1.692921966E-1,2.755933523E0,6.783053875E0
3.255460178E1,1.633101404E-1,2.776870728E0,6.382256031E0
3.257471329E1,3.834498227E-1,2.441277266E0,7.746165276E0
3.259482485E1,1.597209126E-1,2.296511650E0,9.168698311E0
3.261493641E1,-6.699903607E-1,2.610569477E0,9.706484795E0
3.263504798E1,-1.045663476E0,2.873181820E0,9.256035805E0
3.265515954E1,-1.183848977E0,3.141177893E0,8.718249321E0
3.267527110E1,-1.244866014E0,3.457030535E0,8.587840080E0
3.269538266E1,-8.452646136E-1,3.681357622E0,8.663214684E0
3.271549422E1,-6.915257573E-1,3.970889091E0,8.765507698E0
3.273560574E1,-6.801598072E-1,4.130609989E0,9.279964447E0
3.275571730E1,-4.642075896E-1,3.961317778E0,1.049731255E1
3.277582886E1,-3.044866920E-1,3.679563046E0,1.190548897E1
3.279594042E1,-3.296113312E-1,3.736990690E0,1.140957642E1
3.281605198E1,-7.238288224E-2,4.168296814E0,9.151350021E0
3.283616355E1,1.316052526E-1,4.148556232E0,8.280363083E0
3.285627511E1,2.057827413E-1,3.481556892E0,9.712467194E0
3.287638662E1,-4.031906128E-1,3.193820000E0,1.088734341E1
3.289649818E1,-8.793623447E-1,3.184248686E0,1.097707367E1
3.291660975E1,-6.269195080E-1,3.085544825E0,1.040159988E1
3.293672131E1,-1.118644550E-1,2.862414122E0,1.013719273E1
3.295683287E1,1.298106313E-1,2.597409010E0,1.028195858E1
3.297694443E1,-6.819544733E-2,2.551945448E0,9.901499748E0
3.299705600E1,-3.840480447E-1,2.609971285E0,9.514460564E0
3.301716756E1,-4.857429862E-1,2.494517565E0,9.537193298E0
3.303727907E1,-4.157529473E-1,2.615953445E0,8.768498421E0
3.305739063E1,-1.722832322E-1,2.749353170E0,7.819146156E0
3.307750219E1,-4.803591371E-1,3.084946632E0,7.009175777E0
3.309761376E1,-7.226324677E-1,3.206980467E0,6.977470875E0
3.311772532E1,-5.150550604E-1,3.020340443E0,7.617550850E0
3.313783688E1,-2.422732860E-1,3.001796007E0,7.971688747E0
3.315794844E1,-3.421736360E-1,3.312862873E0,7.957930088E0
3.317805995E1,-6.705885530E-1,3.629313707E0,8.370093346E0
3.319817152E1,-5.898307562E-1,3.594617844E0,9.471389771E0
3.321828308E1,-6.053841114E-1,3.713062525E0,1.012343407E1
3.323839464E1,-6.119644046E-1,3.715455294E0,1.049312592E1
3.325850620E1,-5.455635786E-1,3.739981890E0,1.047278690E1
3.327861777E1,-8.081758618E-1,3.818944931E0,1.051884842E1
3.329872933E1,-1.215553880E0,3.736990690E0,1.096032429E1
3.331884089E1,-1.045663476E0,3.723830223E0,1.151246834E1
3.333895240E1,-1.071386337E0,3.920639992E0,1.010788059E1
3.335906397E1,-1.205384374E0,4.234697819E0,8.532207489E0
3.337917553E1,-1.609173179E0,3.995415688E0,9.014361382E0
3.339928709E1,-2.263610125E0,2.977269650E0,1.220279694E1
3.341939865E1,-1.803590059E0,1.779063582E0,1.587338734E1
3.343951022E1,-1.004985452E0,1.693520188E0,1.495454311E1
3.345962178E1,-9.774680734E-1,2.662613392E0,9.921838760E0
3.347973329E1,-1.240678549E0,3.603590965E0,6.226124287E0
3.349984485E1,-1.581655741E0,3.680759430E0,5.854638577E0
3.351995641E1,-1.933400750E0,3.377469063E0,7.320840836E0
3.354006798E1,-1.750947952E0,2.982055187E0,8.850452423E0
3.356017954E1,-1.341775298E0,2.816950560E0,9.035298347E0
3.358029110E1,-1.037288666E0,2.934797049E0,7.824530125E0
3.360040266E1,-1.245464206E0,3.133401155E0,7.551149845E0
3.362051417E1,-2.249851465E0,3.582055569E0,9.666405678E0
3.364062574E1,-2.981456995E0,3.586242914E0,1.114158058E1
3.366073730E1,-2.313261271E0,3.529413462E0,8.742177963E0
3.368084886E1,-8.434699774E-1,3.592225075E0,6.150750637E0
3.370096042E1,2.847459018E-1,3.532404423E0,4.850849628E0
3.372107198E1,5.252245665E-1,3.446861029E0,5.959324837E0
3.374118355E1,-2.757728100E-1,3.668795347E0,8.631509781E0
3.376129506E1,-1.459621787E0,4.507479668E0,8.822337151E0
3.378140662E1,-2.016551256E0,5.197210789E0,7.929215908E0
3.380151818E1,-8.231309652E-1,4.926821709E0,9.376873970E0
3.382162975E1,-4.671986103E-1,4.685744762E0,1.116251755E1
3.384174131E1,-2.811566591E-1,4.643272400E0,1.055115128E1
3.386185287E1,-4.498506486E-1,4.753342152E0,9.072985649E0
3.388196443E1,1.046859920E-1,4.527220249E0,8.439485550E0
3.390207594E1,8.374879360E-1,4.176073551E0,8.804988861E0
3.392218751E1,8.775677085E-1,4.358526230E0,8.380263329E0
3.394229907E1,9.092726111E-1,4.485345840E0,7.389634609E0
3.396241063E1,9.355936646E-1,3.835694790E0,9.066405296E0
3.398252219E1,7.686942816E-1,2.654238462E0,1.249771309E1
3.400263376E1,7.932206988E-1,1.959721804E0,1.406680584E1
3.402274532E1,5.042873621E-1,2.312663078E0,1.277827072E1
3.404285683E1,1.680957973E-1,3.227319479E0,9.770493507E0
3.406296839E1,5.635097623E-1,3.655634880E0,7.639684677E0
3.408307995E1,8.895317912E-1,3.806980848E0,7.027719975E0
3.410319152E1,6.669993401E-1,3.771088600E0,7.499105930E0
3.412330308E1,-1.178465188E-1,3.683152199E0,8.385048866E0
3.414341464E1,-1.056431174E0,3.701696634E0,9.228518486E0
3.416352620E1,-1.610369682E0,3.600001574E0,1.038963604E1
3.418363772E1,-2.085345030E0,3.710071564E0,1.072762203E1
3.420374928E1,-2.280359983E0,4.131208420E0,8.844470978E0
3.422386084E1,-1.508674622E0,4.165306091E0,7.170093060E0
3.424397240E1,-2.560320199E-1,3.643072367E0,7.178467751E0
3.426408396E1,7.405785918E-1,3.343371391E0,7.532605648E0
3.428419553E1,1.082752228E0,3.291925669E0,8.450253487E0
3.430430709E1,5.718846321E-1,3.744169235E0,8.412566185E0
3.432441860E1,-9.332008660E-2,4.371686935E0,7.502695560E0
3.434453016E1,-5.886343718E-1,4.664807796E0,7.569096088E0
3.436464172E1,-4.199403822E-1,4.301098824E0,9.137591362E0
3.438475329E1,3.433700502E-1,3.730410576E0,1.046022415E1
3.440486485E1,5.748756528E-1,3.719044685E0,1.033998489E1
3.442497641E1,5.144568533E-2,4.006781578E0,9.835099220E0
3.444508798E1,-4.486542568E-2,4.299304008E0,9.675976753E0
3.446519954E1,6.903293133E-1,4.187439442E0,1.017009449E1
3.448531105E1,8.991031051E-1,3.921836376E0,9.845867157E0
3.450542261E1,5.198407173E-1,3.790230989E0,8.668000221E0
3.452553417E1,-1.131206870E0,3.943371773E0,8.848658562E0
3.454564574E1,-2.344367981E0,3.573680639E0,1.023051357E1
3.456575730E1,-1.706082582E0,3.099901676E0,1.113380337E1
3.458586886E1,-7.633104324E-1,3.261417150E0,9.824331284E0
3.460598042E1,-5.688936114E-1,3.896711588E0,8.209176064E0
3.462609198E1,-1.098305583E0,4.364508629E0,7.338787079E0
3.464620350E1,-1.546361685E0,4.042674065E0,8.406583786E0
3.466631506E1,-1.427916884E0,3.189632654E0,1.014437199E1
3.468642662E1,-7.046862841E-1,2.465803623E0,1.104646587E1
3.470653818E1,-3.451646566E-1,2.266601324E0,1.085743237E1
3.472664975E1,-7.513462901E-1,2.689532757E0,9.376873970E0
3.474676131E1,-1.057627559E0,3.366103172E0,7.505088329E0
3.476687287E1,-5.593222976E-1,3.619742393E0,6.105287075E0
3.478698438E1,-2.428714931E-1,3.717249870E0,6.422336102E0
3.480709594E1,-5.174478889E-1,3.652643681E0,7.774280548E0
3.482720751E1,-1.626521230E0,4.015156269E0,8.124829292E0
3.484731907E1,-2.234298229E0,4.457828522E0,7.293921471E0
3.486743063E1,-1.768894196E0,4.387240410E0,7.459624767E0
3.488754219E1,-1.428515077E0,4.344767570E0,8.793025017E0
3.490765376E1,-1.253240824E0,4.622334957E0,9.454640388E0
3.492776527E1,-1.641476393E0,5.349753380E0,8.736793518E0
3.494787683E1,-1.587039590E0,5.825326920E0,8.001000404E0
3.496798839E1,-7.244270444E-1,5.656034470E0,8.084151268E0
3.498809995E1,5.186443329E-1,4.769493580E0,1.020538902E1
3.500821152E1,1.262213886E-1,4.506283283E0,1.275853062E1
3.502832308E1,-1.349551916E0,4.976472855E0,1.368754387E1
3.504843464E1,-2.192423820E0,5.988038540E0,1.131446171E1
3.506854615E1,-2.245664120E0,6.677769661E0,8.874979019E0
3.508865772E1,-2.166102648E0,6.457031727E0,8.796015739E0
3.510876928E1,-1.873580098E0,4.937589645E0,1.160219860E1
3.512888084E1,-1.246660590E0,3.330210924E0,1.429053497E1
3.514899240E1,-6.215356588E-1,2.956930637E0,1.332443333E1
3.516910397E1,-3.661018610E-1,3.703491211E0,8.945567131E0
3.518921553E1,-1.854437590E-2,4.387838364E0,5.849853039E0
3.520932709E1,2.859423161E-1,4.448257446E0,5.504688263E0
3.522943860E1,3.020938635E-1,4.074976921E0,6.738786697E0
3.524955016E1,4.307080805E-1,3.620938778E0,7.700103283E0
3.526966173E1,3.888336718E-1,3.428316593E0,8.024331093E0
3.528977329E1,-2.362912297E-1,3.451048374E0,7.909475327E0
3.530988485E1,-1.298106313E0,3.510270834E0,7.977072716E0
3.532999641E1,-1.923231244E0,3.601796389E0,8.021339417E0
3.535010798E1,-1.741974831E0,3.700500250E0,7.565506935E0
3.537021954E1,-7.489534616E-1,3.697509289E0,6.500102520E0
3.539033105E1,2.434697002E-1,3.614956856E0,6.470192432E0
3.541044261E1,4.863412082E-1,3.619742393E0,7.035496712E0
3.543055417E1,2.057827413E-1,3.990031719E0,7.366902828E0
3.545066574E1,5.024927482E-2,4.292125702E0,7.612765312E0
3.547077730E1,6.299105883E-1,4.313062668E0,8.187042236E0
3.549088886E1,8.530412912E-1,4.722235680E0,7.920242786E0
3.551100042E1,5.712863803E-1,5.207978249E0,7.932207108E0
3.553111198E1,1.214357466E-1,5.351547718E0,9.081958771E0
3.555122355E1,2.584248483E-1,5.030909538E0,9.970293999E0
3.557133506E1,6.879364848E-1,4.677968502E0,9.658628464E0
3.559144662E1,1.457229018E0,4.710271358E0,9.124430656E0
3.561155818E1,1.508076429E0,4.412963390E0,1.094836044E1
3.563166975E1,4.821537733E-1,4.302893162E0,1.328913879E1
3.565178131E1,-5.928218365E-1,4.351347923E0,1.372941780E1
3.567189287E1,-3.212364316E-1,3.851846218E0,1.296610737E1
3.569200443E1,-7.357929647E-2,3.257827997E0,1.281835079E1
3.571211600E1,3.888336942E-2,3.111865759E0,1.199282742E1
3.573222756E1,4.187439568E-3,3.308675528E0,1.046381378E1
3.575233907E1,-4.791627228E-1,3.826123476E0,8.466404915E0
3.577245063E1,-1.045065284E0,4.176671982E0,6.978667259E0
3.579256219E1,-1.333400369E0,3.982254982E0,7.090531826E0
3.581267376E1,-1.220937729E0,3.576073408E0,8.103892326E0
3.583278532E1,-9.469595551E-1,3.255435228E0,9.095118523E0
3.585289688E1,-9.451649189E-1,3.236292601E0,8.587840080E0
3.587300844E1,-1.151545882E0,3.242872953E0,7.782057285E0
3.589312001E1,-1.429113269E0,3.403192043E0,6.826723099E0
3.591323152E1,-1.160519004E0,3.583251953E0,5.782854080E0
3.593334308E1,-3.942175210E-1,3.510270834E0,4.935196877E0
3.595345464E1,8.733802289E-2,3.370888948E0,5.489135265E0
3.597356620E1,-1.447657645E-1,3.457030535E0,6.844070911E0
3.599367777E1,-3.266202807E-1,4.008575916E0,6.811169624E0
3.601378933E1,-2.225325108E-1,4.671388149E0,6.119045734E0
3.603390089E1,9.571290575E-3,4.857429981E0,6.451648235E0
3.605401245E1,3.074777126E-1,4.628915310E0,7.865208149E0
3.607412402E1,4.462614357E-1,4.239483356E0,9.859027863E0
3.609423553E1,1.082752272E-1,4.359723091E0,1.146341515E1
3.611434709E1,-2.279163599E-1,4.934000492E0,1.103988552E1
3.613445865E1,-3.146561682E-1,5.428118229E0,1.007856941E1
3.615457022E1,-9.451649338E-2,5.341976643E0,1.010130119E1
3.617468178E1,-4.187439568E-3,4.998606682E0,1.086461163E1
3.619479334E1,1.513460279E-1,4.795216560E0,1.184566879E1
3.621490490E1,7.238288224E-2,5.039284706E0,1.123908806E1
3.623501646E1,-1.483550072E-1,5.314459324E0,1.010847950E1
3.625512803E1,-6.364908218E-1,5.034498692E0,9.932008743E0
3.627523954E1,-8.165507317E-1,3.826123476E0,1.201615715E1
3.629535110E1,-1.453639716E-1,2.611765862E0,1.382034492E1
3.631546266E1,7.860422134E-1,2.406581402E0,1.251386452E1
3.633557422E1,6.963114142E-1,3.423531055E0,8.644071579E0
3.635568579E1,2.991028363E-3,4.556532383E0,5.580062389E0
3.637579735E1,-5.479564071E-1,4.730610371E0,5.455635548E0
3.639590891E1,-7.537391186E-1,4.154538155E0,7.403991699E0
3.641602048E1,-7.740781307E-1,3.498306751E0,9.089137077E0
3.643613204E1,-4.277170599E-1,3.071786165E0,9.258428574E0
3.645624360E1,1.914258115E-2,2.934797049E0,8.522636414E0
3.647635516E1,6.574280262E-1,2.802593470E0,7.808976650E0
3.649646667E1,1.420140266E0,2.621337175E0,7.208378315E0
3.651657824E1,1.887338877E0,2.534597397E0,6.961319447E0
3.653668980E1,2.275574446E0,2.542972326E0,6.972685337E0
3.655680136E1,2.335394859E0,2.623729944E0,7.928617954E0
3.657691292E1,2.178664923E0,2.934198856E0,8.909076691E0
3.659702449E1,1.879562140E0,3.719044685E0,8.800203323E0
3.661713605E1,1.338186026E0,4.348955154E0,9.095118523E0
3.663724761E1,6.275177598E-1,4.500899315E0,1.007378292E1
3.665735917E1,-6.759724021E-2,4.715655327E0,9.573084831E0
3.667747074E1,-4.809573591E-1,5.041079044E0,8.337790489E0
3.669758230E1,-8.781659007E-1,5.002793789E0,9.142376900E0
3.671769381E1,-6.143572330E-1,4.325624943E0,1.171585751E1
3.673780537E1,3.708875179E-1,3.908675671E0,1.298166084E1
3.675791693E1,3.110669367E-2,4.441078663E0,1.176371479E1
3.677802850E1,-1.394417405E0,5.419743061E0,9.638289452E0
3.679814006E1,-2.542374134E0,5.506483078E0,9.153144836E0
3.681825162E1,-2.848057270E0,4.193421841E0,1.161176968E1
3.683836318E1,-1.626521230E0,2.796013355E0,1.398245907E1
3.685847475E1,8.135596663E-2,2.218146563E0,1.373898983E1
3.687858631E1,7.824530005E-1,2.749951363E0,1.043450165E1
3.689869787E1,1.172483116E-1,3.662813187E0,7.729415417E0
3.691880943E1,-1.196411371E0,3.972085476E0,7.737790108E0
3.693892094E1,-1.958525300E0,3.947559118E0,8.355138779E0
3.695903251E1,-1.586441398E0,3.606581926E0,8.750552177E0
3.697914407E1,-6.424728632E-1,3.250649452E0,8.225926399E0
3.699925563E1,1.692921966E-1,2.921636343E0,7.613363266E0
3.701936719E1,4.689932466E-1,2.696112871E0,7.147959232E0
3.703947876E1,7.776673883E-2,2.641676188E0,7.487142086E0
3.705959032E1,-1.752742529E-1,2.572882652E0,8.764909744E0
3.707970188E1,-1.950150430E-1,2.804388046E0,7.576872826E0
3.709981344E1,-3.134597540E-1,3.278167009E0,6.446862221E0
3.711992501E1,-2.428714931E-1,3.610171080E0,6.338587284E0
3.714003657E1,3.056831062E-1,3.662813187E0,6.695715904E0
3.716014813E1,2.829512656E-1,3.783052683E0,7.508677483E0
3.718025969E1,1.674975827E-2,3.808177233E0,8.036892891E0
3.720037120E1,-2.518445849E-1,3.872783422E0,7.812565804E0
3.722048277E1,-9.391828775E-1,4.434498787E0,7.533204079E0
3.724059433E1,-1.011565804E0,4.925625324E0,7.284350395E0
3.726070589E1,-6.269195080E-1,5.216353416E0,7.128218651E0
3.728081745E1,-5.467599630E-1,5.395814896E0,7.843074322E0
3.730092902E1,-6.029912829E-1,5.445466042E0,8.975478172E0
3.732104058E1,-3.164508045E-1,5.152345181E0,1.035434151E1
3.734115214E1,-8.973085321E-3,4.771288395E0,1.132881927E1
3.736126370E1,-5.270192027E-1,4.892724037E0,1.094776154E1
3.738137527E1,-1.596610904E0,5.399404526E0,1.049910736E1
3.740148683E1,-9.553344250E-1,5.273182869E0,1.016889763E1
3.742159839E1,-4.007977992E-2,5.057828903E0,1.030827999E1
3.744170995E1,-7.058826834E-2,4.954339504E0,1.113679504E1
3.746182146E1,1.716850251E-1,4.232305050E0,1.198744297E1
3.748193303E1,1.866401732E-1,3.474378586E0,1.238166046E1
3.750204459E1,-2.829512656E-1,3.669393539E0,7.771289825E0
3.752215615E1,-5.252245665E-1,3.633501291E0,8.696115494E0
3.754226772E1,5.132604837E-1,3.029313564E0,9.665806770E0
3.756237928E1,6.873382926E-1,3.145963669E0,9.868598938E0
3.758249084E1,2.805584669E-1,3.851846218E0,8.682954788E0
3.760260240E1,-2.488535494E-1,4.701896667E0,7.067201614E0
3.763339557E1,-9.445667267E-1,4.658825874E0,8.769695282E0
3.765350697E1,-2.488535643E0,4.824528694E0,1.114516926E1
3.767361838E1,-7.010970116E-1,4.695316315E0,1.099621677E1
3.769372978E1,1.872383654E-1,4.609772682E0,1.061815071E1
3.771384119E1,5.503492057E-2,4.896313190E0,1.006361389E1
3.773395265E1,-5.018945336E-1,5.335994720E0,9.171091080E0
3.775406406E1,-6.903293133E-1,5.478965759E0,8.843274117E0
3.777417546E1,-5.300102234E-1,5.273781300E0,9.647860527E0
3.779428687E1,-4.564309120E-1,4.886742115E0,1.058465099E1
3.781439827E1,-3.236292601E-1,4.153341770E0,1.082512951E1
3.783450973E1,-5.389832854E-1,3.829712629E0,1.091007519E1
3.785462114E1,-1.284945726E0,4.231108665E0,9.993025780E0
3.787473255E1,-2.259422779E0,5.028516769E0,8.915657043E0
3.789484395E1,-3.164507866E0,5.111667156E0,9.710672379E0
3.791495536E1,-2.626122952E0,3.101696253E0,1.477268887E1
3.793506682E1,-1.658226132E0,1.496112347E0,1.944048691E1
3.795517822E1,-1.280160069E0,1.192822099E0,1.840798378E1
3.797528963E1,-1.122832060E0,2.229512453E0,1.272024536E1
3.799540104E1,-8.141579032E-1,3.331407309E0,7.486543655E0
3.801551249E1,-4.265206456E-1,3.862015724E0,5.329414368E0
3.803562390E1,-4.522434771E-1,3.610171080E0,6.111268997E0
3.805573531E1,-7.459624410E-1,3.157927752E0,7.561917782E0
3.807584671E1,-9.990034699E-1,2.678166628E0,8.431708336E0
3.809595812E1,-1.171286702E0,2.486142635E0,7.847859859E0
3.811606952E1,-1.621735573E0,2.804986238E0,6.059225082E0
3.813618093E1,-1.776072621E0,3.096910715E0,4.354937077E0
3.815629239E1,-1.048654556E0,2.845664263E0,5.039284706E0
3.817640380E1,-7.178468257E-2,2.002792597E0,7.959724426E0
3.819651520E1,3.074777126E-1,1.625923038E0,9.930213928E0
3.821662661E1,6.759724021E-2,2.076371908E0,8.768498421E0
3.823673801E1,-2.644068897E-1,2.963510752E0,6.740581512E0
3.825684942E1,-3.218346536E-1,3.365504980E0,6.838088989E0
3.827696088E1,-2.237289101E-1,3.163311481E0,8.889934540E0
3.829707229E1,-7.962117195E-1,3.520440340E0,1.050927734E1
3.831718369E1,-1.936391711E0,4.515256405E0,1.058166027E1
3.833729510E1,-2.041077614E0,5.115854740E0,1.134796143E1
3.835740650E1,-3.314059377E-1,4.153940201E0,1.277169132E1
3.837751791E1,1.021735311E0,2.800798893E0,1.409970760E1
3.839762937E1,5.766702294E-1,2.779263496E0,1.392383480E1
3.841774077E1,-1.404586911E0,3.816552162E0,1.200479126E1
3.843785218E1,-1.046859860E0,4.089931965E0,1.006899738E1
3.845796359E1,8.225327730E-1,3.438486099E0,9.260822296E0
3.847807499E1,1.214955688E0,2.371885538E0,1.076590729E1
3.849818640E1,5.497509837E-1,1.545763373E0,1.247498131E1
3.851829781E1,-1.944168359E-1,1.405783296E0,1.270409393E1
3.853840921E1,3.708875179E-2,1.524826288E0,1.085264683E1
3.855852067E1,7.028916478E-1,1.657627940E0,8.496315002E0
3.857863208E1,5.904290080E-1,1.825125456E0,7.220940590E0
3.859874348E1,2.584248483E-1,2.177468538E0,7.079763889E0
3.861885489E1,-6.460621208E-2,2.444268227E0,7.275377274E0
3.863896630E1,-3.451646566E-1,2.679363251E0,6.436094761E0
3.865907770E1,-9.104689956E-1,3.019742250E0,5.168497086E0
3.867918911E1,-1.391426325E0,3.034697294E0,6.117849350E0
3.869930051E1,-5.928218365E-1,2.511865616E0,7.801798344E0
3.871941192E1,3.553341627E-1,1.877767563E0,8.968298912E0
3.873952338E1,9.056833982E-1,1.728814363E0,9.288339615E0
3.875963478E1,8.751748800E-1,2.115853310E0,8.187641144E0
3.877974619E1,8.943174481E-1,2.536391973E0,6.431907177E0
3.879985760E1,7.076773047E-1,3.002992392E0,5.799005508E0
3.881996900E1,8.494520187E-1,3.047259569E0,7.582256794E0
3.884008041E1,1.266401410E0,3.015554667E0,9.251250267E0
3.886019182E1,1.461416483E0,3.206980467E0,9.582656860E0
3.888030322E1,1.197009563E0,3.732803345E0,8.825926781E0
3.890041463E1,1.095314622E0,4.313661098E0,8.703293800E0
3.892052604E1,1.512263894E0,4.537389755E0,8.639286041E0
3.894063744E1,1.597807288E0,4.511667252E0,9.324830055E0
3.896074885E1,1.433300734E0,4.302295208E0,1.071206856E1
3.898086025E1,8.315058947E-1,4.089334011E0,1.246959686E1
3.900097171E1,1.722832322E-1,4.140181541E0,1.329631710E1
3.902108312E1,3.020938635E-1,3.975674868E0,1.250309658E1
3.904119452E1,1.322034448E-1,3.955934048E0,1.249532032E1
3.906130593E1,-7.112665176E-1,4.074378967E0,1.259103298E1
3.908141734E1,-1.004985452E0,3.870390654E0,1.240738392E1
3.910152874E1,-5.473581553E-1,3.199203968E0,1.247737408E1
3.912164015E1,-2.153540403E-2,2.323430777E0,1.329990673E1
3.914175156E1,-2.632104978E-2,2.056032896E0,1.309950733E1
3.916186296E1,7.118647546E-2,2.063809633E0,1.163809109E1
3.918197437E1,1.094716340E-1,2.469991207E0,9.665806770E0
3.920208577E1,1.525424421E-1,3.000001431E0,7.724031448E0
3.922219718E1,-1.776670814E-1,3.400201082E0,6.839285374E0
3.924230859E1,-2.769692242E-1,3.479164124E0,7.057032108E0
3.926241999E1,4.534398913E-1,2.961716175E0,8.091927528E0
3.928253140E1,1.204187989E0,2.343171597E0,8.875576973E0
3.930264281E1,1.593021631E0,2.062613010E0,8.134998322E0
3.932275421E1,1.089332461E0,2.085943222E0,7.395018578E0
3.934286562E1,6.520441920E-2,2.025524378E0,7.799405575E0
3.936297702E1,1.998006850E-1,1.460219979E0,8.395217896E0
3.938308843E1,5.844469070E-1,1.048056364E0,8.235497475E0
3.940319984E1,5.234299302E-1,1.138983607E0,7.286144733E0
3.942331124E1,2.667997181E-1,1.509871125E0,6.145965099E0
3.944342270E1,-1.621137410E-1,1.815554142E0,6.379863262E0
3.946353411E1,-5.090730190E-1,1.899302959E0,7.610372543E0
3.948364546E1,-5.324030519E-1,1.974078655E0,8.379665375E0
3.950375687E1,-9.349954724E-1,2.271386862E0,8.380861282E0
3.952386827E1,-1.898106575E0,3.141177893E0,7.370491982E0
3.954397968E1,-2.656033039E0,3.814159393E0,7.201199532E0
3.956409114E1,-2.546561480E0,4.037888050E0,8.145168304E0
3.958420255E1,-1.847259045E0,3.927220106E0,9.093922615E0
3.960431390E1,-1.634297848E0,4.132404804E0,9.647262573E0
3.962442531E1,-1.670788407E0,4.614558697E0,9.514460564E0
3.964453671E1,-1.984248161E0,5.115854740E0,9.101698875E0
3.966464817E1,-2.097907305E0,5.082355499E0,1.020658493E1
3.968475952E1,-2.110469580E0,4.329214573E0,1.256530952E1
3.970487093E1,-2.675175667E0,4.038486481E0,1.436471272E1
3.972498234E1,-3.045464993E0,4.613960266E0,1.293859005E1
3.974509374E1,-2.827718258E0,5.109872818E0,1.065763187E1
3.976520515E1,-6.490531564E-1,4.418346882E0,9.209376335E0
3.978531656E1,1.076171994E0,3.402593851E0,9.078369141E0
3.980542796E1,1.338784218E0,2.555534601E0,1.243848991E1
3.982553937E1,1.453639746E0,1.962712765E0,1.466979790E1
3.984565077E1,9.930213690E-1,1.760519266E0,1.391845131E1
3.986576218E1,-2.291127741E-1,2.055434704E0,1.196710396E1
3.988587359E1,-1.166501045E0,2.434697151E0,1.038843918E1
3.990598499E1,-6.508477330E-1,2.553141832E0,8.809176445E0
3.992609640E1,3.966103494E-1,2.572284460E0,7.644470215E0
3.994620781E1,4.007977992E-2,2.691925526E0,7.901100159E0
3.996631921E1,-5.455635786E-1,2.584846735E0,8.599205971E0
3.998643062E1,-3.786641955E-1,2.335394859E0,8.421539307E0
4.000654202E1,-3.948157281E-2,2.129612207E0,8.025527000E0
4.002665343E1,3.230310678E-1,2.070987940E0,7.537391186E0
4.004676484E1,5.306084156E-1,1.984248161E0,7.220342159E0
4.006687624E1,3.984049559E-1,2.198405743E0,6.936194420E0
4.008698765E1,-2.829512656E-1,2.319841623E0,7.389036179E0
4.010709906E1,-9.613165259E-1,2.136790514E0,8.357531548E0
4.012721046E1,-1.636092424E0,2.067398787E0,9.083154678E0
4.014732187E1,-1.886142492E0,2.382055044E0,8.429914474E0
4.016743322E1,-1.372283816E0,2.995813847E0,6.991229534E0
4.018754463E1,-1.627119422E0,4.101896286E0,6.483353138E0
4.020765604E1,-1.220339537E0,4.673182487E0,6.436692715E0
4.022776744E1,2.392822644E-3,4.093521118E0,8.265407562E0
4.024787885E1,9.948160052E-1,3.338585854E0,1.071206856E1
4.026799025E1,9.260223508E-1,3.203391314E0,1.217348480E1
4.028810166E1,-9.272187948E-2,3.577269793E0,1.211665535E1
4.030821307E1,-1.112064362E0,4.090530396E0,1.277827072E1
4.032832447E1,-7.345965505E-1,3.576073408E0,1.371326637E1
4.034843588E1,-5.748756528E-1,3.290131092E0,1.274118233E1
4.036854729E1,-8.679963946E-1,3.291925669E0,1.108953667E1
4.038865869E1,-1.427318692E0,3.293122053E0,1.090050316E1
4.040877005E1,-1.387837172E0,3.134597778E0,1.067617607E1
4.042888145E1,-7.884350419E-1,3.117249727E0,9.281160355E0
4.044899286E1,-1.369891018E-1,3.033500910E0,8.390432358E0
4.046910426E1,-2.775674164E-1,2.906681299E0,8.778668404E0
4.048921567E1,-1.252642632E0,2.957528830E0,9.242277145E0
4.050932708E1,-1.879562140E0,2.941377163E0,9.750154495E0
4.052943848E1,-1.488933921E0,2.665006161E0,9.845867157E0
4.054954989E1,-7.280163169E-1,2.630310297E0,8.973084450E0
4.056966130E1,-6.669993401E-1,2.685345173E0,8.754739761E0
4.058977270E1,-9.924231768E-1,2.743371248E0,8.371290207E0
4.060988411E1,-1.179063320E0,2.756531715E0,7.497311592E0
4.062999546E1,-9.355936646E-1,2.734996319E0,6.847062111E0
4.065010687E1,-5.431707501E-1,2.692523718E0,7.091728210E0
4.067021827E1,-4.725824594E-1,2.993421078E0,6.891927242E0
4.069032968E1,-6.041877270E-1,3.230310678E0,6.972086906E0
4.071044109E1,-9.601200819E-1,3.365504980E0,7.685746193E0
4.073055249E1,-1.186840057E0,3.336193085E0,8.958129883E0
4.075066390E1,-1.113260746E0,3.422932863E0,9.330811501E0
4.077077525E1,-8.775677085E-1,3.951746702E0,8.291130066E0
4.079088666E1,-6.729813814E-1,4.291527271E0,7.822137356E0
4.081099807E1,-8.213363886E-1,4.473381996E0,8.560921669E0
4.083110947E1,-8.685946465E-1,4.332803726E0,1.024128056E1
4.085122088E1,-5.389832854E-1,4.001996040E0,1.192343521E1
4.087133229E1,-5.461617708E-1,3.942773581E0,1.234875965E1
4.089144369E1,-1.128215909E0,4.298706055E0,1.175115204E1
4.091155505E1,-1.152742267E0,4.744369030E0,1.150289631E1
4.093166645E1,-1.429711580E-1,4.774877548E0,1.175055408E1
4.095177786E1,4.731806815E-1,4.165904045E0,1.322991657E1
4.097188926E1,-7.088736892E-1,3.760320902E0,1.468594933E1
4.099200067E1,-2.223530531E0,3.625724554E0,1.429173183E1
4.101211208E1,-2.576471806E0,3.856033802E0,1.231167030E1
4.103222348E1,-1.844268084E0,3.821337700E0,9.851250648E0
4.105233484E1,1.453639716E-1,3.278167009E0,7.631309509E0
4.107244624E1,1.450050473E0,3.025125980E0,5.364708424E0
4.109255765E1,1.168893814E0,2.702693224E0,6.233303070E0
4.111266906E1,1.914258115E-2,2.243271112E0,8.839086533E0
4.113278046E1,-9.284151793E-1,2.175673962E0,9.732806206E0
4.115289187E1,-1.335195065E0,2.532802820E0,8.206185341E0
4.117300322E1,-1.056431174E0,2.935395241E0,6.631708145E0
4.119311463E1,-7.477570772E-1,3.031706333E0,6.116054535E0
4.121322604E1,-2.386840582E-1,3.102294445E0,5.908477306E0
4.123333744E1,-1.208375469E-1,3.263810158E0,5.849853039E0
4.125344885E1,-7.298108935E-2,3.448655605E0,6.103492260E0
4.127356025E1,5.084748194E-2,3.416950703E0,7.120441914E0
4.129367161E1,-1.304088384E-1,3.527618885E0,7.832306862E0
4.131378301E1,-1.387837082E-1,3.641875982E0,8.377870560E0
4.133389442E1,3.499503136E-1,3.871587038E0,8.324629784E0
4.135400583E1,9.463613629E-1,4.099503517E0,8.155337334E0
4.137411723E1,1.466800332E0,4.222733974E0,7.870592117E0
4.139422864E1,9.547362328E-1,4.172484398E0,8.662017822E0
4.141433999E1,-2.829512656E-1,4.390231133E0,9.722636223E0
4.143445140E1,-1.125224829E0,4.566103935E0,1.007139015E1
4.145456281E1,-8.781659007E-1,4.661816597E0,1.095493984E1
4.147467421E1,6.460621208E-2,4.084548473E0,1.152742290E1
4.149478562E1,3.355933726E-1,3.887738705E0,1.118883896E1
4.151489697E1,-2.602194548E-1,3.982853174E0,1.000080204E1
4.153500838E1,-1.235294700E0,4.036093712E0,9.793823242E0
4.155511978E1,-1.436890006E0,3.887140274E0,9.379266739E0
4.157523119E1,-1.119242787E0,3.656831264E0,9.219545364E0
4.159534260E1,-6.729813814E-1,3.410968781E0,8.660821915E0
4.161545395E1,-1.246660590E0,3.217748165E0,9.703494072E0
4.163556536E1,-1.776072621E0,2.849253654E0,1.111705399E1
4.165567676E1,-1.947757602E0,2.757728100E0,1.094178009E1
4.167578817E1,-1.907079697E0,2.989233732E0,1.006780148E1
4.169589958E1,-1.296311617E0,3.068794966E0,9.407979965E0
4.171601093E1,-7.322037220E-1,3.176471949E0,8.379665375E0
4.173612234E1,-5.282155871E-1,3.017349243E0,8.424530029E0
4.175623374E1,-9.481559992E-1,2.654238462E0,1.030169964E1
4.177634515E1,-9.080761671E-1,2.280359983E0,1.143111229E1
4.179645656E1,-8.554341197E-1,2.499901533E0,9.900901794E0
4.181656791E1,-1.182054400E0,3.129812002E0,7.688737392E0
4.183667932E1,-1.561915040E0,3.698107481E0,6.537789822E0
4.185679072E1,-1.524826288E0,4.097708702E0,5.820540905E0
4.187690213E1,-1.349551916E0,4.237090588E0,6.553342819E0
4.189701354E1,-8.123632669E-1,3.997210264E0,8.367102623E0
4.191712489E1,-2.368894368E-1,3.817150354E0,9.581459999E0
4.193723630E1,1.196411322E-3,4.013361931E0,9.489336014E0
4.195734770E1,-5.144568533E-2,4.459024906E0,9.085547447E0
4.197745911E1,-3.254238665E-1,4.835894585E0,8.925228119E0
4.199757046E1,-3.643072546E-1,4.820939541E0,9.365508080E0
4.201768187E1,-2.117647976E-1,4.368097782E0,1.085623646E1
4.203779327E1,-5.503492057E-2,4.058227062E0,1.230209923E1
