"Time (s)","Acceleration x (m/s^2)","Acceleration y (m/s^2)","Acceleration z (m/s^2)"
1.620876300E-2,4.695914388E-1,2.949752092E0,9.384052277E0
3.632173200E-2,6.179464459E-1,2.923431158E0,9.775876999E0
5.643470100E-2,3.918247223E-1,2.881556749E0,9.911669731E0
7.654767000E-2,2.165504545E-1,2.931207657E0,9.769894600E0
9.666063800E-2,2.925225794E-1,3.077768087E0,9.358329773E0
1.167735550E-1,4.977070987E-1,3.014358282E0,8.897112846E0
1.368865760E-1,6.017948985E-1,2.900699139E0,8.971290588E0
1.569994920E-1,4.821537733E-1,3.061616659E0,9.337391853E0
1.771124610E-1,4.205385745E-1,3.032902718E0,9.198010445E0
1.972254300E-1,3.942175210E-1,2.926422119E0,9.029315948E0
2.173383990E-1,3.110669553E-1,2.986840963E0,8.938986778E0
2.374513670E-1,2.883351147E-1,3.039483070E0,8.816953659E0
2.575643360E-1,3.649054468E-1,3.011965513E0,8.858229637E0
2.776773050E-1,4.887340367E-1,2.948555708E0,9.045467377E0
2.977902740E-1,4.983053207E-1,2.904288530E0,9.187242508E0
3.179032420E-1,4.336991012E-1,2.923431158E0,8.965308189E0
3.380162110E-1,3.092723191E-1,3.001796007E0,8.563314438E0
3.581291800E-1,2.793620527E-1,3.049054146E0,8.302495956E0
3.782421490E-1,3.966103494E-1,2.987439156E0,8.279166222E0
3.983551170E-1,5.581258535E-1,2.852842808E0,8.355736732E0
4.184680860E-1,5.940182209E-1,2.718844652E0,8.185846329E0
4.385810550E-1,4.073780477E-1,2.797807932E0,7.573882103E0
4.586940240E-1,1.310070455E-1,3.087937593E0,6.875775814E0
4.788069920E-1,-1.854437590E-2,3.250051260E0,6.670591354E0
4.989199610E-1,1.621137410E-1,3.026322365E0,7.476972580E0
5.190329300E-1,6.107679605E-1,2.541177750E0,8.622536659E0
5.391458990E-1,7.926225066E-1,2.335993052E0,8.668000221E0
5.592588670E-1,5.413761139E-1,2.583052158E0,7.411170006E0
5.793718360E-1,2.859423161E-1,2.914458036E0,6.447460651E0
5.994848050E-1,1.615155339E-1,3.059821844E0,6.221937180E0
6.195977740E-1,2.781656384E-1,3.022733212E0,6.603592396E0
6.397107420E-1,4.354937077E-1,2.921038151E0,7.085746288E0
6.598237110E-1,2.285145670E-1,3.069991350E0,7.468597889E0
6.799366800E-1,-1.447657645E-1,3.190829039E0,7.960920811E0
7.000496490E-1,-4.755735099E-1,3.184846878E0,9.355937004E0
7.201626170E-1,-1.200598717E0,3.847060680E0,1.097767162E1
7.402755860E-1,-1.466202021E0,4.644468784E0,1.171825027E1
7.603885550E-1,3.433700502E-1,3.478565931E0,1.361695576E1
7.805015240E-1,1.771885157E0,2.017149448E0,1.719602013E1
8.006144920E-1,1.023529887E0,1.828116536E0,1.911925125E1
8.207274610E-1,-1.233500123E0,2.124228239E0,1.718884087E1
8.408404300E-1,-1.779661894E0,2.318047047E0,1.462194061E1
8.609533990E-1,-1.938186288E-1,2.495713949E0,1.316710472E1
8.810663670E-1,9.894321561E-1,2.532204628E0,1.234875965E1
9.011793360E-1,1.026520967E0,2.272583246E0,1.143230820E1
9.212923050E-1,2.638086975E-1,2.115853310E0,1.016829967E1
9.414052740E-1,-3.756731451E-1,2.003988981E0,8.962915421E0
9.615182420E-1,-6.161518097E-1,1.898704767E0,8.077570915E0
9.816312110E-1,-7.465606928E-1,1.918445587E0,7.426723480E0
1.001744180E0,-7.058826685E-1,1.968694806E0,6.824330330E0
1.021857149E0,-5.090730190E-1,1.930409670E0,6.382256031E0
1.041970065E0,-5.060819983E-1,1.881356835E0,6.448058605E0
1.062083086E0,-5.066801906E-1,1.767697692E0,7.017550468E0
1.082196055E0,-3.415754437E-1,1.613360643E0,7.504489899E0
1.102308972E0,-1.274178028E-1,1.491924882E0,7.712067604E0
1.122421940E0,1.375873014E-2,1.337587833E0,7.928617954E0
1.142534909E0,-9.690931439E-2,1.172483087E0,8.330014229E0
1.162647878E0,-2.937189937E-1,1.126421213E0,8.567501068E0
1.182760847E0,-4.863412082E-1,1.322034478E0,8.023732185E0
1.202873815E0,-4.959124923E-1,1.673779488E0,7.086942673E0
1.222986784E0,-3.296113312E-1,1.911865234E0,6.687341213E0
1.243099753E0,-1.435693651E-1,2.009372711E0,6.914061069E0
1.263212722E0,1.375873014E-2,1.956132531E0,7.569694519E0
1.283325690E0,-1.004985496E-1,2.096112728E0,7.921439171E0
1.303438659E0,-3.236292601E-1,2.532204628E0,7.851449490E0
1.323551628E0,-6.640082598E-2,2.525624275E0,8.242675781E0
1.343664597E0,6.376872063E-1,1.808973908E0,1.086760235E1
1.363777565E0,9.140582681E-1,2.452643156E0,1.461476231E1
1.383890534E0,8.721838593E-1,4.922634602E0,1.569512177E1
1.404003503E0,2.005185366E0,4.443471432E0,1.434736443E1
1.424116472E0,2.763710260E0,2.271386862E0,1.379940796E1
1.444229440E0,5.312066078E-1,1.977667928E0,1.519801331E1
1.464342409E0,-2.593221426E0,2.334796667E0,1.498684597E1
1.484455378E0,-3.238087177E0,2.310868502E0,1.299900913E1
1.504568347E0,-1.398006678E0,2.370090723E0,1.104526901E1
1.524681315E0,3.439682424E-1,2.604587555E0,1.074676514E1
1.544794284E0,8.273184299E-1,2.407777786E0,1.066241741E1
1.564907253E0,3.726821244E-1,2.112862349E0,9.795019150E0
1.585020222E0,-2.883351147E-1,1.852044702E0,8.703892708E0
1.605133190E0,-5.389832854E-1,1.537986755E0,7.905886173E0
1.625246159E0,-4.360919297E-1,1.428515077E0,7.645666599E0
1.645359128E0,-1.220339537E-1,1.554736495E0,7.367500782E0
1.665472097E0,1.100698411E-1,1.714457393E0,6.535397053E0
1.685585065E0,2.578266263E-1,1.749153376E0,5.615356445E0
1.705697982E0,5.030909777E-1,1.813161373E0,5.074578762E0
1.725810951E0,7.974081635E-1,1.879562140E0,4.913661480E0
1.745923920E0,1.199402332E0,1.785045743E0,5.203192711E0
1.766036888E0,1.411167145E0,1.652244091E0,6.052046776E0
1.786149857E0,1.386042476E0,1.591825247E0,7.073781967E0
1.806262826E0,1.359721422E0,1.749153376E0,7.980661869E0
1.826375795E0,1.059422255E0,1.726421595E0,8.883952141E0
1.846488763E0,7.184450030E-1,1.175474167E0,1.008754253E1
1.866601732E0,2.901297510E-1,1.061815023E0,1.118644619E1
1.886714701E0,-1.531406492E-1,1.551745534E0,1.100219822E1
1.906827670E0,-2.835494876E-1,2.034497499E0,9.662816048E0
1.926940638E0,-6.580262445E-3,2.094916344E0,9.558130264E0
1.947053607E0,3.032902777E-1,2.109273195E0,1.158066368E1
1.967166576E0,-3.523431420E-1,3.187838078E0,1.238046455E1
1.987279545E0,-1.500898004E0,4.165904045E0,1.103988552E1
2.007392513E0,-6.191428304E-1,3.428914785E0,1.112303638E1
2.027505482E0,6.837490797E-1,2.632703066E0,1.310788250E1
2.047618451E0,3.714857101E-1,2.482553482E0,1.444427395E1
2.067731420E0,-3.852444589E-1,2.026720762E0,1.440897942E1
2.087844388E0,-3.912265003E-1,1.652244091E0,1.281356525E1
2.107957357E0,1.938186288E-1,1.482353687E0,1.037827015E1
2.128070274E0,9.415757060E-1,1.345364571E0,8.976076126E0
2.148183242E0,1.333400369E0,1.612762451E0,8.606385231E0
2.168296211E0,1.166501045E0,1.815554142E0,8.574680328E0
2.188409180E0,5.138586760E-1,1.832303882E0,7.761718273E0
2.208522149E0,-9.930214286E-2,1.689332843E0,6.644270420E0
2.228635117E0,-2.560320199E-1,1.634297848E0,6.218945980E0
2.248748086E0,-1.286142170E-1,1.772483349E0,6.492924213E0
2.268861055E0,1.016949583E-2,1.794018745E0,7.280162811E0
2.288974024E0,6.400800496E-2,1.658824325E0,8.026723862E0
2.309086992E0,1.286142170E-1,1.649253011E0,8.228319168E0
2.329199961E0,2.835494876E-1,1.683350682E0,7.930412292E0
2.349312930E0,4.713860750E-1,1.514058471E0,7.421339512E0
2.369425899E0,5.641079545E-1,1.458425403E0,7.142575741E0
2.389538867E0,3.493520916E-1,1.620539188E0,7.213762283E0
2.409651836E0,-2.691925503E-2,1.839482427E0,7.063014030E0
2.429764753E0,-2.638086975E-1,1.683948994E0,7.206583500E0
2.449877722E0,-2.524427772E-1,1.296909928E0,8.781061172E0
2.469990690E0,-1.645065546E-1,2.065006018E0,1.061695385E1
2.490103659E0,1.278963685E0,1.941775560E0,1.361097336E1
2.510216628E0,4.089334011E0,3.595215976E-1,1.746162415E1
2.530329597E0,3.832703590E0,-5.856433511E-1,1.881895256E1
2.550442565E0,1.698904037E0,-7.106683254E-1,1.627897072E1
2.570555534E0,1.035493970E0,-2.733799815E-1,1.258445263E1
2.590668503E0,2.562713146E0,-1.034895778E-1,1.116491032E1
2.610781472E0,4.292125702E0,1.531406492E-1,1.160219860E1
2.630894440E0,4.148556232E0,8.787640929E-1,1.114457130E1
2.651007357E0,2.522035122E0,1.141376376E0,1.066301632E1
2.671120326E0,1.040877819E0,7.292127013E-1,1.070429230E1
2.691233295E0,1.226321608E-1,4.743770957E-1,1.069890785E1
2.711346263E0,-4.127619043E-2,4.588237405E-1,1.065763187E1
2.731459232E0,5.012963414E-1,4.564309120E-1,1.018385315E1
2.751572201E0,9.750752449E-1,5.802595019E-1,9.178867340E0
2.771685170E0,7.686942816E-1,7.202396393E-1,8.009973526E0
2.791798138E0,4.139583111E-1,7.286145091E-1,7.113861561E0
2.811911107E0,1.986042857E-1,6.855437160E-1,6.552744865E0
2.832024024E0,2.536391914E-1,8.237292171E-1,6.260820389E0
2.852137045E0,6.000002623E-1,9.900303483E-1,5.894120216E0
2.872249961E0,1.021735311E0,9.948160052E-1,5.733202934E0
2.892362930E0,1.022333503E0,8.883354068E-1,6.710072994E0
2.912475899E0,2.949153781E-1,4.809573591E-1,8.099704742E0
2.932588867E0,-5.473581553E-1,-1.441675574E-1,8.940183640E0
2.952701836E0,-9.595218897E-1,-4.785645287E-3,8.805587769E0
2.972814805E0,5.168496966E-1,6.023930907E-1,9.273982048E0
2.992927774E0,2.136192322E0,9.541380405E-1,1.091007519E1
3.013040742E0,1.789233088E0,1.030110121E0,1.231167030E1
3.033153659E0,-2.033899166E-2,1.618744493E0,1.097408295E1
3.053266628E0,-1.446461320E0,2.482553482E0,1.078205872E1
3.073379597E0,-9.942178130E-1,2.202593327E0,1.383171082E1
3.093492565E0,-3.726821244E-1,8.338986635E-1,1.739582062E1
3.113605534E0,-9.481559992E-1,6.340979785E-2,1.771107483E1
3.133718503E0,-1.036092162E0,1.166501045E-1,1.477029610E1
3.153831472E0,2.650051117E-1,5.647061467E-1,1.118644619E1
3.173944440E0,1.799402595E0,9.158528447E-1,9.430113792E0
3.194057357E0,2.095514536E0,5.856433511E-1,1.000558758E1
3.214170326E0,8.757730722E-1,-2.632104978E-2,1.129591751E1
3.234283295E0,-8.536394835E-1,4.558327198E-1,1.130070305E1
3.254396263E0,-1.102493048E0,1.561316729E0,9.043074608E0
3.274509232E0,2.452643216E-1,2.111067772E0,6.266204357E0
3.294622201E0,1.685145378E0,2.006979942E0,4.552345276E0
3.314735117E0,1.830509305E0,1.740778446E0,4.124628067E0
3.334848086E0,7.513462901E-1,1.478764415E0,4.956133842E0
3.354961055E0,-6.867401004E-1,8.991031051E-1,6.738188744E0
3.375074024E0,-1.852044702E0,7.950153351E-1,8.385048866E0
3.395186992E0,-2.095514536E0,8.177471161E-1,8.563314438E0
3.415299961E0,-1.349551916E0,8.955138922E-1,7.341179848E0
3.435412878E0,-9.894321561E-1,8.386843204E-1,7.253243446E0
3.455525847E0,-1.043270707E0,7.250252366E-1,8.821140289E0
3.475638815E0,-1.300499082E0,7.531409264E-1,1.003729248E1
3.495751784E0,-4.540380836E-1,8.829515576E-1,1.124686432E1
3.515864753E0,1.032503009E0,1.685743570E0,1.160877895E1
3.535977722E0,2.032702923E0,2.566302299E0,1.059960651E1
3.556090638E0,3.240479946E0,1.426122308E0,1.242413330E1
3.576203607E0,3.050848961E0,-4.319044948E-1,1.772184181E1
3.596316576E0,1.260419369E0,-1.061216831E0,2.070030785E1
3.616429545E0,4.360919297E-1,-9.828519225E-1,1.756870270E1
3.636542513E0,1.060020447E0,2.392822644E-3,1.279801178E1
3.656655482E0,2.548954248E0,1.406381488E0,9.864411354E0
3.676768399E0,3.331407309E0,2.015953064E0,8.924630165E0
3.696881367E0,3.057429075E0,1.974676847E0,9.426525116E0
3.716994336E0,2.241476536E0,1.440479279E0,1.001216793E1
3.737107305E0,1.526620865E0,1.082752228E0,9.978070259E0
3.757220274E0,9.409775138E-1,8.847461939E-1,9.066405296E0
3.777333190E0,6.293123364E-1,8.560323119E-1,7.728219032E0
3.797446159E0,6.699903607E-1,9.798609018E-1,6.757929325E0
3.817559128E0,7.010970116E-1,1.135394335E0,6.236892223E0
3.837672097E0,7.363911867E-1,1.151545882E0,5.994618893E0
3.857785013E0,8.781659007E-1,9.906286001E-1,5.940182209E0
3.877897982E0,1.053440213E0,8.374879360E-1,6.056233883E0
3.898010951E0,1.029511929E0,8.823533654E-1,6.528218269E0
3.918123920E0,9.762716293E-1,8.135597110E-1,7.275975227E0
3.938236836E0,1.126421213E0,5.078766346E-1,7.759325504E0
3.958349805E0,1.231705427E0,3.332005441E-1,7.624131203E0
3.978462774E0,1.065404296E0,5.419743061E-1,7.232306480E0
3.998575742E0,3.619144261E-1,1.076770186E0,6.926623344E0
4.018688711E0,-1.597209126E-1,1.269990563E0,8.732605934E0
4.038801628E0,3.397808075E-1,1.424327731E0,1.249711418E1
4.058914597E0,1.292722464E0,2.377269268E0,1.335314655E1
4.079027565E0,1.722832322E0,2.919841766E0,1.068036366E1
4.099140534E0,2.043470621E0,2.037488461E0,1.210887909E1
4.119253451E0,9.080761671E-1,7.375875711E-1,1.580638790E1
4.139366420E0,-1.180259824E0,1.429711580E-1,1.653380585E1
4.159479388E0,-2.623131752E0,2.033899166E-2,1.479781342E1
4.179592357E0,-2.485544443E0,7.399803996E-1,1.342732430E1
4.199705274E0,-6.885347366E-1,1.424925923E0,1.151605701E1
4.219818242E0,1.299900889E0,1.796411633E0,1.085743237E1
4.239931211E0,2.014158487E0,1.565504193E0,1.145503998E1
4.260044128E0,1.109073281E0,1.129412293E0,1.135334492E1
4.280157097E0,9.212367237E-2,9.176474810E-1,9.893723488E0
4.300270065E0,-2.895315289E-1,9.966106415E-1,8.095517159E0
4.320383034E0,-1.818545163E-1,1.166501045E0,6.990631580E0
4.340495951E0,2.470589429E-1,1.300499082E0,6.666403770E0
4.360608920E0,4.133601189E-1,1.363908887E0,6.620342255E0
4.380721888E0,6.101697683E-2,1.250848055E0,6.558726788E0
4.400834857E0,-6.323033571E-1,1.066002488E0,6.215356827E0
4.420947774E0,-1.128814101E0,8.817551732E-1,6.049654007E0
4.441060742E0,-1.118644595E0,9.367900491E-1,6.876972198E0
4.461173711E0,-3.960121572E-1,1.257428288E0,7.150352478E0
4.481286628E0,8.135596663E-2,1.420738459E0,6.993024349E0
4.501399597E0,3.858426511E-1,1.417149186E0,7.101299286E0
4.521512565E0,4.827519655E-1,1.378864050E0,8.091927528E0
4.541625482E0,6.065805554E-1,1.143171072E0,9.674779892E0
4.561738451E0,8.703892231E-1,9.122636318E-1,1.121396351E1
4.581851420E0,1.098903775E0,7.022934556E-1,1.313659668E1
4.601964336E0,9.972088337E-1,9.290133715E-1,1.394656658E1
4.622077305E0,2.209173441E0,9.888339639E-1,1.484387493E1
4.642190274E0,4.195814610E0,7.950153351E-1,1.648176193E1
4.662303190E0,3.674179077E0,7.304090858E-1,1.670249939E1
4.682416159E0,2.908475876E0,6.879365444E-2,1.547318745E1
4.702529128E0,3.079562664E0,9.870393574E-2,1.390768337E1
4.722642097E0,3.077768087E0,8.775677085E-1,1.171406364E1
4.742755013E0,2.337787628E0,1.517647743E0,8.990432739E0
4.762867982E0,1.562513232E0,1.981855392E0,7.351349354E0
4.782980899E0,1.124028444E0,2.086541414E0,7.746763229E0
4.803093867E0,8.285148144E-1,1.474576950E0,9.861420631E0
4.823206836E0,2.775674164E-1,6.209374666E-1,1.175892830E1
4.843319753E0,-3.774677813E-1,2.249253243E-1,1.196830082E1
4.863432722E0,-5.186443329E-1,2.596212626E-1,1.010249710E1
4.883545690E0,1.956132501E-1,6.203392744E-1,7.727022648E0
4.903658607E0,8.889335990E-1,1.010369420E0,6.250650883E0
4.923771576E0,9.427721500E-1,1.244866014E0,5.735595703E0
4.943884545E0,4.833501875E-1,1.325623751E0,5.354538918E0
4.963997461E0,5.084748194E-2,1.228714466E0,4.736592293E0
4.984110430E0,-2.243271172E-1,1.310070395E0,4.023531437E0
5.004223347E0,9.571290575E-3,1.480558991E0,3.857828379E0
5.024336315E0,3.828516304E-1,1.344766378E0,4.896911621E0
5.044449284E0,5.168496966E-1,8.841479421E-1,7.309474945E0
5.064562201E0,1.872383654E-1,5.066801906E-1,1.000917721E1
5.084675170E0,-6.652047038E-1,2.620140910E-1,1.150170040E1
5.104788138E0,-1.564307809E0,3.164508045E-1,1.116909790E1
5.124901055E0,-1.791625977E0,1.283749342E0,1.043509960E1
5.145014024E0,-2.953341246E0,3.813561201E0,9.520442963E0
5.165126940E0,-2.555534601E0,4.631906509E0,1.206939697E1
5.185239909E0,1.374676585E0,1.989632010E0,1.696152306E1
5.205352878E0,1.757528186E0,1.040877819E0,1.907079697E1
5.225465795E0,-9.314061999E-1,1.162911773E0,1.645723534E1
5.245578763E0,-2.411965132E0,1.240678549E0,1.310429287E1
5.265691680E0,-1.577468276E0,1.940579176E0,1.109432220E1
5.285804649E0,1.094716340E-1,2.472383976E0,1.057747269E1
5.305917565E0,1.207777262E0,2.221137524E0,1.159202957E1
5.326030534E0,8.003991842E-1,1.888535261E0,1.263350582E1
5.346143503E0,-2.931207716E-1,1.715653777E0,1.204187965E1
5.366256420E0,-5.964110494E-1,1.874776483E0,1.017906761E1
5.386369388E0,-1.974078715E-1,2.249851465E0,8.200202942E0
5.406482305E0,3.308077157E-1,2.478366137E0,6.902695179E0
5.426595274E0,4.528416991E-1,2.468196630E0,6.400800705E0
5.446708190E0,1.495514158E-2,2.391027927E0,6.265007973E0
5.466821159E0,-6.161518097E-1,2.286940336E0,5.862415314E0
5.486934128E0,-8.566305041E-1,2.187039852E0,5.532206059E0
5.507047045E0,-6.807580590E-1,2.076371908E0,5.643472195E0
5.527160013E0,-8.626125455E-1,1.944766641E0,5.805585861E0
5.547272930E0,-1.341775298E0,1.783251047E0,5.866602898E0
5.567385899E0,-1.734796405E0,1.627119422E0,6.221338749E0
5.587498815E0,-1.521237016E0,1.470389485E0,7.057032108E0
5.607611784E0,-6.819544435E-1,1.316650629E0,7.995018482E0
5.627724701E0,3.008974493E-1,1.307677627E0,8.894122124E0
5.647837670E0,8.506484628E-1,1.375872970E0,9.311071396E0
5.667950586E0,5.856433511E-1,1.515853167E0,8.620741844E0
5.688063555E0,-1.974078640E-2,1.601994753E0,7.813164234E0
5.708176472E0,-1.914258115E-2,1.603789330E0,7.973483086E0
5.728289440E0,2.392822644E-3,2.176870346E0,8.118846893E0
5.748402357E0,1.787438512E0,1.675574064E0,9.582057953E0
5.768515326E0,4.420141697E0,8.787640929E-1,1.355892944E1
5.788628242E0,3.220739365E0,5.365904570E-1,1.668515205E1
5.808741211E0,2.799602449E-1,-1.549352705E-1,1.673719597E1
5.828854128E0,-1.089332461E0,-1.513460279E-1,1.525723553E1
5.848967097E0,-1.316052489E-2,5.820540786E-1,1.450349617E1
5.869080013E0,1.916052699E0,7.674978375E-1,1.398724461E1
5.889192982E0,2.335993052E0,8.374879360E-1,1.330887985E1
5.909305899E0,1.756929994E0,8.697910309E-1,1.236251831E1
5.929418867E0,1.327418327E0,8.488538265E-1,1.156810093E1
5.949531784E0,1.294517040E0,7.477570772E-1,1.088016415E1
5.969644753E0,1.049252748E0,8.135597110E-1,1.009711361E1
5.989757670E0,7.076773047E-1,8.356932998E-1,9.239884377E0
6.009870638E0,5.485545993E-1,8.524430394E-1,8.218747139E0
6.029983555E0,5.479564071E-1,8.991031051E-1,7.171887875E0
6.050096472E0,7.172485590E-1,9.302098155E-1,6.345167637E0
6.070209440E0,9.212366939E-1,1.045663476E0,5.600999832E0
6.090322357E0,1.096511006E0,1.103689432E0,5.331807137E0
6.110435326E0,1.118046403E0,9.930213690E-1,5.738586903E0
6.130548242E0,9.349954724E-1,7.932206988E-1,6.713662148E0
6.150661211E0,5.880361795E-1,6.969096065E-1,7.287341595E0
6.170774128E0,2.907279432E-1,7.094719410E-1,6.778866768E0
6.190887097E0,5.521438122E-1,6.167500615E-1,6.757331371E0
6.211000013E0,1.266401410E0,2.327020019E-1,8.793025017E0
6.231112930E0,1.407577872E0,-4.785645287E-3,1.162792206E1
6.251225899E0,4.486542344E-1,6.927221417E-1,1.196590805E1
6.271338815E0,-1.067198873E0,1.708475351E0,9.796216011E0
6.291451784E0,3.918247223E-1,1.211964726E0,1.161595726E1
6.311564701E0,3.630510092E0,-4.450650215E-1,1.889731598E1
6.331677670E0,3.669393539E0,-1.176670551E0,2.068714905E1
6.351790586E0,3.780659735E-1,-8.057830334E-1,1.525065517E1
6.371903503E0,-1.191027522E0,-2.350948304E-1,1.096750259E1
6.392016472E0,-3.816552162E-1,3.768695593E-1,9.758528709E0
6.412129388E0,5.180460811E-1,4.031906128E-1,1.044048309E1
6.432242357E0,5.096712112E-1,-4.199403822E-1,1.186899853E1
6.452355274E0,-1.686939895E-1,-9.912267923E-1,1.274536991E1
6.472468190E0,-9.852447510E-1,-9.170492887E-1,1.251147175E1
6.492581159E0,-1.012762189E0,-6.711867452E-1,1.101476097E1
6.512694076E0,-4.845465720E-2,-2.727817893E-1,9.103493690E0
6.532806992E0,1.225125194E0,1.441675574E-1,8.327621460E0
6.552919961E0,1.842473388E0,3.637090325E-1,8.482556343E0
6.573032878E0,1.527219057E0,5.168496966E-1,8.668598175E0
6.593145847E0,9.684949517E-1,6.490531564E-1,8.319246292E0
6.613258763E0,7.866404653E-1,7.603194118E-1,7.608577728E0
6.633371680E0,1.129412293E0,9.062815905E-1,7.149155617E0
6.653484649E0,1.742573142E0,1.033101201E0,7.168298244E0
6.673597565E0,2.116451740E0,1.000798106E0,7.652844906E0
6.693710482E0,1.925624013E0,8.793623447E-1,8.274380684E0
6.713823399E0,1.442273855E0,7.639086246E-1,8.408976555E0
6.733936367E0,1.178465128E0,7.250252366E-1,8.020143509E0
6.754049284E0,1.115653515E0,8.656035662E-1,7.532007694E0
6.774162253E0,1.208375454E0,1.032503009E0,7.272984505E0
6.794275170E0,1.336391449E0,1.107876897E0,7.508079052E0
6.814388086E0,1.585843205E0,9.876375198E-1,8.530412674E0
6.834501055E0,1.322632670E0,9.391828775E-1,9.234500885E0
6.854613972E0,5.335994363E-1,1.006181955E0,8.884550095E0
6.874726888E0,3.403790295E-1,9.302098155E-1,8.645866394E0
6.894839805E0,7.244270444E-1,7.842476368E-1,1.082991505E1
6.914952774E0,1.068395257E0,1.408176184E0,1.301456261E1
6.935065690E0,2.117648125E0,1.371685624E0,1.399322701E1
6.955178607E0,4.606183529E0,3.218346536E-1,1.536730480E1
6.975291576E0,3.847060680E0,-1.274178028E-1,1.623111343E1
6.995404492E0,1.863410592E0,-5.491527915E-1,1.552941895E1
7.015517409E0,3.972085714E-1,-2.021935135E-1,1.329512119E1
7.035630326E0,2.536391914E-1,8.374879360E-1,1.084845924E1
7.055743295E0,8.542376757E-1,1.454836130E0,9.629914284E0
7.075856211E0,1.140778184E0,1.587637782E0,9.614361763E0
7.095969128E0,1.246660590E0,1.380658627E0,1.062891865E1
7.116082097E0,1.210170031E0,1.161715388E0,1.161117172E1
7.136195013E0,1.127617717E0,9.146564603E-1,1.197547913E1
7.156307930E0,7.166503668E-1,7.268198729E-1,1.118644619E1
7.176420847E0,3.433700502E-1,9.110672474E-1,9.353543282E0
7.196533815E0,3.756731451E-1,1.227517962E0,7.572087288E0
7.216646732E0,6.879364848E-1,1.481157184E0,6.217749596E0
7.236759649E0,8.452646136E-1,1.715653777E0,5.331807137E0
7.256872565E0,7.399803996E-1,1.783849239E0,4.993222713E0
7.276985482E0,5.431707501E-1,1.699502230E0,5.271986485E0
7.297098451E0,3.846462369E-1,1.557129383E0,5.909673691E0
7.317211367E0,3.906283081E-1,1.302293777E0,6.471388817E0
7.337324284E0,4.893322289E-1,1.076171994E0,6.852446079E0
7.357437201E0,4.941178858E-1,9.002995491E-1,7.384250641E0
7.377550170E0,4.534398913E-1,7.399803996E-1,7.771289825E0
7.397663086E0,4.905286431E-1,6.717849374E-1,7.865208149E0
7.417776003E0,4.845465720E-1,7.501499057E-1,7.732406139E0
7.437888920E0,5.682953596E-1,9.900303483E-1,7.508677483E0
7.458001836E0,1.042074203E0,1.308874011E0,7.399804115E0
7.478114805E0,1.442872047E0,1.491326690E0,7.803592682E0
7.498227722E0,1.150349498E0,1.316650629E0,9.893125534E0
7.518340638E0,4.019941986E-1,1.398604870E0,1.256530952E1
7.538453555E0,-1.142572761E0,2.516052961E0,1.190847969E1
7.558566472E0,-1.389631748E0,2.810968399E0,1.254736328E1
7.578679388E0,2.006979942E0,1.489532113E0,1.686042595E1
7.598792357E0,2.790629387E0,1.281356573E0,1.918445587E1
7.618905274E0,7.908278704E-1,1.221535921E0,1.671386528E1
7.639018190E0,-7.525427341E-1,1.249053478E0,1.338544941E1
7.659131107E0,-4.863412082E-1,1.834696770E0,1.145982552E1
7.679244024E0,2.338984162E-1,2.224128723E0,1.045783138E1
7.699356940E0,5.838487148E-1,1.734198213E0,1.045424175E1
7.719469909E0,4.959124923E-1,1.217348576E0,1.087178993E1
7.739582826E0,1.980060786E-1,1.068993568E0,1.047936630E1
7.759695742E0,9.810572863E-2,1.141974568E0,9.013164520E0
7.779808659E0,2.123630047E-1,1.451845169E0,7.516454220E0
7.799921576E0,4.995017350E-1,1.737189293E0,6.396014690E0
7.820034492E0,7.088736892E-1,1.894517303E0,5.642873764E0
7.840147409E0,6.089733839E-1,1.923829436E0,5.545366287E0
7.860260326E0,8.374879509E-2,1.809572101E0,5.848656654E0
7.880373242E0,-5.084748268E-1,1.555932879E0,6.086144447E0
7.900486211E0,-6.927221417E-1,1.374078393E0,6.388836384E0
7.920599128E0,-2.931207716E-1,1.338186026E0,6.852446079E0
7.940712045E0,1.561316848E-1,1.281954765E0,7.452445984E0
7.960824961E0,4.420739710E-1,1.105484009E0,8.343173981E0
7.980937878E0,5.856433511E-1,1.029511929E0,9.442676544E0
8.001050795E0,4.474578202E-1,1.035493970E0,9.855438232E0
8.021163711E0,6.849454641E-1,9.188438654E-1,9.632905960E0
8.041276628E0,1.066002488E0,1.308874011E0,1.012283611E1
8.061389545E0,7.633104324E-1,2.390429735E0,1.113858986E1
8.081502461E0,2.038086653E0,1.851446509E0,1.345603848E1
8.101615378E0,4.292723656E0,6.299105883E-1,1.597268963E1
8.121728295E0,3.669991732E0,1.728814393E-1,1.746282005E1
8.141841211E0,1.502094388E0,-3.523431420E-1,1.729771423E1
8.161954180E0,2.757728100E-1,-3.589234129E-2,1.501017666E1
8.182067097E0,1.059422255E0,9.852447510E-1,1.200060368E1
8.202180013E0,2.329412937E0,1.415952802E0,1.004207802E1
8.222292930E0,2.918047190E0,1.172483087E0,1.046022415E1
8.242405847E0,2.356930256E0,9.206385016E-1,1.163210869E1
8.262518763E0,1.249651670E0,8.380861282E-1,1.125284672E1
8.282631680E0,5.078766346E-1,6.436693072E-1,1.006361389E1
8.302744597E0,2.805584669E-1,7.758727670E-1,9.137591362E0
8.322857513E0,3.990031779E-1,1.013360381E0,8.428717613E0
8.342970430E0,5.401797295E-1,1.173679471E0,7.635497093E0
8.363083347E0,4.827519655E-1,1.389033556E0,6.471388817E0
8.383196263E0,4.103690982E-1,1.493719578E0,5.404788017E0
8.403309180E0,4.043870270E-1,1.458425403E0,5.113461971E0
8.423422097E0,4.498506486E-1,1.437488198E0,5.772086620E0
8.443535013E0,6.089733839E-1,1.327418327E0,6.600601196E0
8.463647930E0,7.058826685E-1,1.148554921E0,6.954140663E0
8.483760847E0,7.112665176E-1,9.870393276E-1,6.996015072E0
8.503873763E0,5.964110494E-1,9.355936646E-1,6.840481758E0
8.523986680E0,5.383850932E-1,8.524430394E-1,6.786643028E0
8.544099597E0,6.119644046E-1,6.825526357E-1,7.265207767E0
8.564212513E0,6.370890141E-1,6.646065116E-1,7.917850018E0
8.584325430E0,8.267202377E-1,7.124629617E-1,8.502297401E0
8.604438347E0,9.373882413E-1,7.136593461E-1,9.307481766E0
8.624551263E0,1.111466169E0,6.747759581E-1,1.104885864E1
8.644664128E0,1.400997639E0,7.591229677E-1,1.356251907E1
8.664777045E0,9.523434043E-1,1.207179070E0,1.359123230E1
8.684889961E0,-4.139583111E-1,2.156531334E0,1.044347477E1
8.705002878E0,-1.005583763E0,2.681157827E0,1.035015392E1
8.725115795E0,1.371685624E0,1.563709617E0,1.532902050E1
8.745228711E0,2.879163742E0,7.010970116E-1,1.928495407E1
8.765341628E0,1.798804402E0,3.571287692E-1,1.843071556E1
8.785454545E0,-4.187439755E-2,3.068794906E-1,1.612642860E1
8.805567461E0,7.956135273E-2,5.443671346E-1,1.400758362E1
8.825680378E0,5.449653864E-1,1.357926846E0,1.133958626E1
8.845793295E0,5.527420044E-1,1.761715651E0,8.979066849E0
8.865906211E0,4.893322289E-1,1.790429592E0,7.377670288E0
8.886019128E0,8.135596663E-2,1.957328916E0,6.674778938E0
8.906131992E0,-4.217349887E-1,1.898704767E0,6.651448727E0
8.926244909E0,-7.471588850E-1,1.616351724E0,6.851847649E0
8.946357826E0,-8.584251404E-1,1.415952802E0,7.002595425E0
8.966470742E0,-8.913264275E-1,1.464407444E0,6.856633186E0
8.986583659E0,-7.190431952E-1,1.552343726E0,6.351149559E0
9.006696576E0,-5.210371017E-1,1.543370605E0,5.905486107E0
9.026809492E0,-6.849454641E-1,1.520040631E0,5.843272686E0
9.046922409E0,-8.578268886E-1,1.417149186E0,6.110671043E0
9.067035326E0,-5.916253924E-1,1.341177106E0,6.547360897E0
9.087148190E0,1.674975827E-2,1.353141189E0,6.880561352E0
9.107261107E0,3.768695593E-1,1.353141189E0,7.374679565E0
9.127374024E0,2.476571500E-1,1.280758262E0,8.037490845E0
9.147486940E0,-3.020938635E-1,1.241276741E0,8.087141991E0
9.167599857E0,-4.372883439E-1,1.028315544E0,8.336593628E0
9.187712774E0,-2.488535494E-1,8.135597110E-1,1.041476059E1
9.207825638E0,-2.697907388E-1,1.086939692E0,1.324606800E1
9.227938555E0,2.021935135E-1,1.426720500E0,1.456511116E1
9.248051472E0,2.566900492E0,6.652047038E-1,1.555873108E1
9.268164388E0,4.668396950E0,-4.486542568E-2,1.726959991E1
9.288277305E0,4.031308174E0,-2.338984162E-1,1.816571045E1
9.308390170E0,1.746760488E0,4.426721856E-2,1.629631805E1
9.328503086E0,1.252044439E0,5.820540786E-1,1.349133205E1
9.348616003E0,1.981855392E0,1.229910851E0,1.127557850E1
9.368728920E0,2.519043922E0,1.539183140E0,1.038843918E1
9.388841836E0,2.383251429E0,1.420140266E0,1.051286602E1
9.408954753E0,1.805982947E0,1.214357495E0,1.082393360E1
9.429067617E0,1.289731383E0,1.055234790E0,1.061755180E1
9.449180534E0,1.091127157E0,9.954141974E-1,1.003848934E1
9.469293451E0,1.022333503E0,1.118046403E0,9.150752068E0
9.489406367E0,9.816554785E-1,1.254437327E0,8.163114548E0
9.509519232E0,8.691928387E-1,1.319641709E0,7.153941631E0
9.529632149E0,6.855437160E-1,1.358525038E0,6.252445698E0
9.549745065E0,8.470591903E-1,1.400399446E0,5.842076302E0
9.569857982E0,1.184447169E0,1.567897081E0,5.592026711E0
9.589970847E0,1.294517040E0,1.694118381E0,5.061418056E0
9.610083763E0,1.123430252E0,1.654636860E0,4.354937077E0
9.630196680E0,4.648058116E-1,1.357328653E0,4.347160339E0
9.650309597E0,-3.409772217E-1,8.536394835E-1,5.288137913E0
9.670422461E0,-7.369893789E-1,3.649054468E-1,6.976274490E0
9.690535378E0,-1.543370634E-1,-6.520441920E-2,9.525827408E0
9.710648295E0,8.913264275E-1,-1.286142170E-1,1.158305645E1
9.730761159E0,1.365105271E0,3.074777126E-1,1.269332600E1
9.750874076E0,8.596215248E-1,1.606780410E0,1.279382420E1
9.770986992E0,1.323829174E0,1.857428551E0,1.412243938E1
9.791099909E0,3.092125177E0,8.003991842E-1,1.696271896E1
9.811212774E0,2.686541557E0,2.973082066E-1,1.875494385E1
9.831325690E0,3.397808075E-1,4.426721931E-1,1.706202126E1
9.851438607E0,-4.971089065E-1,9.272187948E-1,1.387896919E1
9.871551472E0,7.842476368E-1,1.485942841E0,1.179482079E1
9.891664388E0,2.075175524E0,1.677368641E0,1.117508030E1
9.911777305E0,2.385046005E0,1.469791293E0,1.107996559E1
9.931890170E0,1.684547186E0,1.211964726E0,1.072642612E1
9.952003086E0,8.189435601E-1,1.045065284E0,1.004566765E1
9.972116003E0,4.707878530E-1,9.864411354E-1,9.133403778E0
9.992228867E0,6.825526357E-1,1.118046403E0,8.239086151E0
1.001234178E1,9.008977413E-1,1.302891970E0,7.400402069E0
1.003245470E1,9.972088337E-1,1.441077471E0,6.594020844E0
1.005256756E1,9.134600163E-1,1.520638824E0,5.988636971E0
1.007268048E1,6.807580590E-1,1.567897081E0,5.870790482E0
1.009279335E1,4.384847581E-1,1.590628862E0,6.325426579E0
1.011290626E1,4.534398913E-1,1.564906001E0,6.869195461E0
1.013301918E1,6.759724021E-1,1.503290772E0,7.390830994E0
1.015313205E1,1.200598717E0,1.301695466E0,8.181658745E0
1.017324496E1,1.783849239E0,1.130010486E0,9.209376335E0
1.019335788E1,1.867598057E0,1.129412293E0,9.438488960E0
1.021347074E1,1.250249863E0,1.290927768E0,8.005187988E0
1.023358366E1,8.362914920E-1,1.527219057E0,6.354140759E0
1.025369652E1,7.860422134E-1,1.792822361E0,5.531607628E0
1.027380944E1,8.967102766E-1,1.964507341E0,5.447260857E0
1.029392230E1,1.135992527E0,1.949552298E0,6.125626087E0
1.031403522E1,1.012762189E0,1.962712765E0,7.234699249E0
1.033414814E1,4.025924206E-1,1.825723648E0,8.708079338E0
1.035426100E1,1.986042857E-1,1.382453322E0,1.106680489E1
1.037437392E1,1.088136077E0,1.047458172E0,1.467159176E1
1.039448678E1,2.266601324E0,1.792822361E0,1.510708618E1
1.041459970E1,3.192025423E0,2.092523336E0,1.310967731E1
1.043471256E1,4.432105541E0,1.186241865E0,1.498445320E1
1.045482548E1,3.729214191E0,1.896311939E-1,1.823450470E1
1.047493840E1,2.187039852E0,-1.100698411E-1,1.760698700E1
1.049505126E1,1.541576028E0,7.334001660E-1,1.388136196E1
1.051516418E1,2.294118643E0,1.823330879E0,1.082871914E1
1.053527704E1,3.186043262E0,2.282154560E0,9.795019150E0
1.055538996E1,3.206382275E0,2.253440619E0,1.023589706E1
1.057550283E1,2.242672920E0,2.035693884E0,1.047577763E1
1.059561574E1,1.060618639E0,1.718046665E0,1.044407272E1
1.061572861E1,3.397808075E-1,1.394417405E0,1.072642612E1
1.063584152E1,1.298106313E-1,1.272383451E0,1.068754196E1
1.065595439E1,2.703889608E-1,1.354337573E0,9.733404160E0
1.067606730E1,5.551348329E-1,1.450050473E0,8.169096947E0
1.069618017E1,6.568298340E-1,1.549352646E0,6.577271461E0
1.071629309E1,7.052844763E-1,1.613360643E0,5.529813290E0
1.073640595E1,7.220342159E-1,1.707278967E0,5.289932728E0
1.075651882E1,7.776673436E-1,1.766501307E0,5.463412285E0
1.077663173E1,8.554341197E-1,1.721635938E0,5.732006550E0
1.079674460E1,9.846464992E-1,1.545165181E0,5.912664890E0
1.081685751E1,8.027920127E-1,1.431506157E0,5.880361557E0
1.083697038E1,5.922235847E-1,1.284347534E0,6.032305717E0
1.085708330E1,5.706881881E-1,1.077966571E0,6.457630157E0
1.087719616E1,8.793623447E-1,9.373882413E-1,7.030112743E0
1.089730908E1,1.210170031E0,1.101894855E0,7.204190731E0
1.091742194E1,1.169492126E0,1.480558991E0,6.677171707E0
1.093753480E1,6.945167780E-1,1.879562140E0,7.292127132E0
1.095764772E1,1.214357466E-1,2.356332064E0,1.134975624E1
1.097776059E1,-2.033899277E-1,2.709273338E0,1.546241951E1
1.099787350E1,-2.632104978E-2,3.382853031E0,1.358285809E1
1.101798637E1,2.938984394E0,3.042474031E0,1.209691525E1
1.103809923E1,7.881958008E0,2.152942181E0,1.674916077E1
1.105821215E1,8.449654579E0,1.907079697E0,1.986640930E1
1.107832501E1,3.233301640E0,7.968099117E-1,1.690588951E1
1.109843793E1,-1.088734269E0,6.239284873E-1,1.253599739E1
1.111855080E1,-6.610172391E-1,1.969292998E0,1.123190975E1
1.113866366E1,1.248455167E0,2.656631231E0,1.052124119E1
1.115877658E1,1.640279889E0,2.744567633E0,9.849455833E0
1.117888944E1,9.972088337E-1,2.522035122E0,9.683155060E0
1.119900230E1,6.705885530E-1,2.364706993E0,9.174081802E0
1.121911522E1,6.622136831E-1,2.425724030E0,8.379066467E0
1.123922809E1,5.485545993E-1,2.487339020E0,7.931608677E0
1.125934100E1,4.785645306E-1,2.407179594E0,7.686344624E0
1.127945387E1,6.089733839E-1,2.346162558E0,7.496115208E0
1.129956673E1,4.588237405E-1,2.463410854E0,6.981060028E0
1.131967960E1,1.974078715E-1,2.445464849E0,6.466004848E0
1.133979251E1,1.459621787E-1,2.252244234E0,6.650252342E0
1.135990538E1,3.373879790E-1,2.143969059E0,7.027122021E0
1.138001824E1,7.543373108E-1,2.197807550E0,7.144968510E0
1.140013116E1,8.919246197E-1,2.442473650E0,6.629314899E0
1.142024402E1,8.410771489E-1,2.609373093E0,6.184848309E0
1.144035689E1,6.759724021E-1,2.650649309E0,6.678368092E0
1.146046980E1,4.169493318E-1,2.486142635E0,7.338787079E0
1.148058267E1,7.549355626E-1,2.283949137E0,8.006384850E0
1.150069553E1,1.012163997E0,2.321636200E0,8.589036942E0
1.152080840E1,6.610172391E-1,2.337189436E0,9.363713264E0
1.154092126E1,5.324030295E-2,2.398206472E0,9.895518303E0
1.156103418E1,4.073780477E-1,2.347358942E0,1.051466084E1
1.158114705E1,2.102094650E0,2.221137524E0,1.252403355E1
1.160125991E1,1.618744493E0,4.300500393E0,1.196291637E1
1.162137283E1,1.692921966E-1,5.836094379E0,9.096913338E0
1.164148569E1,4.380660057E0,3.735196114E0,1.238943768E1
1.166159856E1,4.290330887E0,3.101696253E0,1.702373695E1
1.168171142E1,1.172483087E0,2.106282234E0,1.709013748E1
1.170182434E1,2.422732860E-1,2.028515339E0,1.417567921E1
1.172193720E1,1.809572101E0,3.442673683E0,1.266999626E1
1.174205006E1,2.442473650E0,3.908077478E0,1.145683479E1
1.176216293E1,2.401795626E0,3.056232691E0,1.194855976E1
1.178227580E1,2.736790895E0,2.964707375E0,9.136993408E0
1.180238871E1,2.694318295E0,2.909672260E0,1.056670475E1
1.182250158E1,1.572682738E0,2.803789854E0,1.389093399E1
1.184261444E1,1.512862086E0,2.180459738E0,1.226022530E1
1.186272730E1,1.833500385E0,2.241476536E0,1.162433243E1
1.188284017E1,1.467996716E0,2.695514679E0,9.576076508E0
1.190295303E1,7.351947427E-1,2.197209358E0,5.814558983E0
1.193303929E1,4.289134443E-1,3.346362352E0,8.383254051E0
1.195315194E1,5.138586760E-1,3.280559778E0,8.293522835E0
1.197326460E1,7.387840152E-1,3.193221807E0,8.340781212E0
1.199337726E1,7.232306600E-1,3.122035265E0,8.260622025E0
1.201348991E1,5.670989752E-1,2.840280533E0,8.083553314E0
1.203360257E1,1.244267821E0,2.392224550E0,8.578269005E0
1.205371523E1,5.694918036E-1,2.988037348E0,8.755337715E0
1.207382788E1,7.298108935E-1,2.586641312E0,7.421937466E0
1.209394054E1,6.795616150E-1,2.422732830E0,6.856035233E0
1.211405320E1,6.370890141E-1,2.472383976E0,6.942774773E0
1.213416585E1,5.228317380E-1,2.438884497E0,6.832705021E0
1.215427851E1,1.136590764E-1,2.603989124E0,6.227919102E0
1.217439116E1,-2.757728100E-1,2.776870728E0,5.849255085E0
1.219450382E1,-2.183450609E-1,2.755335331E0,6.778866768E0
1.221461648E1,4.683950245E-1,2.388635159E0,8.438288689E0
1.223472908E1,1.172483087E0,1.922633052E0,9.785448074E0
1.225484174E1,1.144965649E0,1.810170293E0,9.514460564E0
1.227495439E1,3.708875179E-2,2.185245275E0,7.554739475E0
1.229506705E1,-6.526423693E-1,2.477767944E0,6.211169243E0
1.231517970E1,-1.036690354E0,2.682952404E0,6.088537216E0
1.233529236E1,-8.901300430E-1,2.709871531E0,8.180462837E0
1.235540502E1,-4.163511395E-1,3.326023579E0,1.263051414E1
1.237551767E1,-6.819544733E-2,4.408177376E0,1.527817249E1
1.239563033E1,1.668993831E0,3.920639992E0,1.400937843E1
1.241574293E1,2.661417007E0,3.842873096E0,1.298943806E1
1.243585559E1,1.137787223E0,4.467998028E0,1.312822151E1
1.245596825E1,-4.713860750E-1,4.634299278E0,1.301097298E1
1.247608090E1,-7.974081635E-1,3.988835335E0,1.418704510E1
1.249619356E1,-5.222335458E-1,2.853441000E0,1.552224064E1
1.251630616E1,-3.565305769E-1,1.867598057E0,1.545643806E1
1.253641882E1,-2.805584669E-1,1.417149186E0,1.345543957E1
1.255653148E1,-1.722832322E-1,1.577468276E0,1.069531918E1
1.257664413E1,-1.674975902E-1,1.909472466E0,8.457431793E0
1.259675674E1,-2.733799815E-1,2.304886341E0,6.537789822E0
1.261686939E1,-4.558327198E-1,2.608176708E0,4.862215519E0
1.263698205E1,-6.065805554E-1,2.501097918E0,4.250849247E0
1.265709470E1,-9.840483069E-1,2.150549412E0,4.805386066E0
1.267720731E1,-1.278365493E0,1.879562140E0,5.698507309E0
1.269731996E1,-1.003190875E0,1.655235052E0,6.081358910E0
1.271743262E1,-5.288137794E-1,1.522433400E0,6.267998695E0
1.273754523E1,-2.075773627E-1,1.466202021E0,6.597609997E0
1.275765788E1,2.452643216E-2,1.322632670E0,7.128817081E0
1.277777054E1,1.262213886E-1,8.889335990E-1,8.658429146E0
1.279788314E1,-1.615155339E-1,6.376872063E-1,1.233260822E1
1.281799580E1,-1.362114310E0,1.874776483E0,1.378086376E1
1.283810846E1,-7.118647099E-1,2.947359324E0,1.112542915E1
1.285822111E1,4.446462631E0,2.266601324E0,1.153280735E1
1.287833372E1,8.874381065E0,1.536192179E0,1.664148331E1
1.289844637E1,7.107879639E0,1.414756417E0,1.875434494E1
1.291855898E1,2.312064886E0,1.505683661E0,1.569631863E1
1.293867163E1,4.259224236E-1,1.568495274E0,1.238525009E1
1.295878429E1,8.895317912E-1,1.951945066E0,1.081615639E1
1.297889689E1,1.443470240E0,2.188236237E0,9.920642853E0
1.299900955E1,1.202393413E0,2.223530531E0,8.624331474E0
1.301912215E1,7.908278704E-1,2.301895380E0,7.143772125E0
1.303923481E1,6.293123364E-1,2.294118643E0,6.069993019E0
1.305934741E1,6.382854581E-1,2.152942181E0,5.930012703E0
1.307946007E1,7.483552694E-1,2.045863390E0,6.318248272E0
1.309957267E1,8.500502706E-1,1.939382792E0,6.406184196E0
1.311968533E1,7.232306600E-1,1.853839397E0,6.217151642E0
1.313979793E1,4.151547253E-1,1.815554142E0,6.044867992E0
1.315991059E1,1.645065546E-1,1.781456470E0,6.018547058E0
1.318002320E1,-7.776673418E-3,1.749751568E0,6.293123722E0
1.320013585E1,4.187439568E-3,1.632503271E0,6.946962357E0
1.322024846E1,4.061816335E-1,1.472184181E0,8.054241180E0
1.324036111E1,9.804590940E-1,1.445264935E0,1.025025368E1
1.326047372E1,1.252044439E0,1.633101463E0,1.226680565E1
1.328058637E1,9.535398483E-1,2.227119684E0,1.239661598E1
1.330069898E1,1.495514158E-2,3.351148129E0,1.076650524E1
1.332081163E1,-1.280758262E0,5.120042324E0,9.628718376E0
1.334092424E1,-8.673982322E-2,4.953741074E0,1.122832012E1
1.336103684E1,2.703889608E0,3.008376360E0,1.542234039E1
1.338114950E1,3.798007727E0,1.826321840E0,1.878186226E1
1.340126210E1,1.208375454E0,1.600200176E0,1.871665955E1
1.342137476E1,-7.238288522E-1,1.194018483E0,1.667199135E1
1.344148736E1,-2.362912297E-1,1.215553880E0,1.379163170E1
1.346159996E1,4.145565331E-1,1.735394597E0,1.045065308E1
1.348171262E1,5.802595019E-1,2.002792597E0,7.250252724E0
1.350182523E1,4.791627228E-1,2.245664120E0,4.823332310E0
1.352193788E1,5.736792088E-1,2.414358139E0,3.677768469E0
1.354205049E1,9.397810698E-1,2.266601324E0,4.426722050E0
1.356216309E1,9.038887620E-1,1.935195327E0,5.942574978E0
1.358227575E1,5.665007830E-1,1.579861164E0,6.528816700E0
1.360238835E1,3.900300860E-1,1.259222865E0,6.202196121E0
1.362250096E1,2.123630047E-1,9.487541914E-1,5.779264927E0
1.364261356E1,3.738785386E-1,6.556333899E-1,5.941977024E0
1.366272622E1,6.927221417E-1,6.023930907E-1,6.376872540E0
1.368283882E1,2.482553422E-1,1.239482164E0,5.804987907E0
1.370295142E1,-4.612165689E-1,1.893320918E0,4.411168575E0
1.372306403E1,-1.064806104E0,2.092523336E0,4.549952030E0
1.374317668E1,-6.000002623E-1,1.511067510E0,8.435297966E0
1.376328929E1,1.656431437E0,9.499505758E-1,1.607677650E1
1.378340189E1,2.420340061E0,2.179861546E0,1.962353897E1
1.380351450E1,7.968099117E-1,3.777070522E0,1.515613842E1
1.382362715E1,3.040679455E0,3.739383698E0,1.322453213E1
1.384373976E1,7.813164234E0,3.105883837E0,1.804367828E1
1.386385236E1,7.625327587E0,3.034099102E0,1.974796486E1
1.388396496E1,3.726222992E0,3.204587698E0,1.584945869E1
1.390407757E1,1.680359721E0,3.308077335E0,1.158066368E1
1.392419023E1,1.536790371E0,3.408575773E0,8.983254433E0
1.394430283E1,1.710269928E0,3.446262836E0,7.601997375E0
1.396441543E1,1.836491346E0,3.187838078E0,6.993024349E0
1.398452804E1,1.779063582E0,2.822932482E0,6.650252342E0
1.400464064E1,1.397408366E0,2.450250387E0,6.580262184E0
1.402475325E1,7.208378315E-1,2.177468538E0,6.307480335E0
1.404486585E1,1.298106313E-1,2.048256159E0,5.624927998E0
1.406497851E1,-8.374879509E-2,1.979462504E0,4.960919380E0
1.408509111E1,4.127619043E-2,1.911865234E0,4.865804672E0
1.410520372E1,7.118647546E-2,2.020738840E0,5.367699623E0
1.412531632E1,5.503492057E-2,2.030309916E0,5.932405472E0
1.414542892E1,5.282155871E-1,1.991426587E0,6.382256031E0
1.416554153E1,1.127019525E0,1.862214208E0,7.037889481E0
1.418565413E1,1.167697430E0,1.542174220E0,8.463413239E0
1.420576674E1,5.736792088E-1,1.456032634E0,1.002592659E1
1.422587934E1,-2.111666054E-1,1.696511269E0,1.088495064E1
1.424599194E1,-5.976074338E-1,2.140978098E0,1.143529987E1
1.426610455E1,-9.391828775E-1,2.857628345E0,1.269272804E1
1.428621715E1,-1.533799291E0,3.999603033E0,1.315753365E1
1.430632976E1,3.786641955E-1,3.559323788E0,1.340698528E1
1.432644236E1,3.224926710E0,2.544168711E0,1.532902050E1
1.434655496E1,2.876172781E0,2.619542599E0,1.720140457E1
1.436666757E1,4.342973232E-1,3.137588739E0,1.627538109E1
1.438678017E1,1.495514214E-1,3.346960783E0,1.344586849E1
1.440689278E1,2.000399828E0,3.421736479E0,1.029272652E1
1.442700538E1,3.507878065E0,3.196212769E0,8.369495392E0
1.444711799E1,3.777668715E0,2.562713146E0,8.306683540E0
1.446723059E1,2.520240545E0,2.100300074E0,8.634500504E0
1.448734320E1,1.180858016E0,1.926820397E0,8.295317650E0
1.450745580E1,3.744767308E-1,1.843071699E0,7.197012424E0
1.452756840E1,4.785645381E-2,1.768894196E0,6.104090691E0
1.454768101E1,2.476571500E-1,1.613360643E0,5.720042706E0
1.456779361E1,5.120640397E-1,1.500898004E0,5.757729530E0
1.458790622E1,5.533402562E-1,1.389631748E0,5.726024628E0
1.460801877E1,4.959124923E-1,1.262213945E0,5.616552830E0
1.462813137E1,5.270192027E-1,1.450050473E0,5.514259815E0
1.464824398E1,9.020941257E-1,1.838286042E0,6.174678802E0
1.466835658E1,1.286142230E0,2.228316069E0,7.004390240E0
1.468846918E1,9.601200819E-1,2.419143677E0,6.958328247E0
1.470858179E1,3.266202807E-1,2.632703066E0,6.700501442E0
1.472869434E1,-2.673979402E-1,2.542972326E0,7.941778183E0
1.474880694E1,4.582255483E-1,1.916650891E0,1.233858967E1
1.476891955E1,9.068797827E-1,2.088934183E0,1.676949883E1
1.478903215E1,1.132403374E0,2.746960402E0,1.569631863E1
1.480914476E1,3.793222189E0,2.464607239E0,1.233200932E1
1.482925736E1,6.570092678E0,1.841277003E0,1.291167068E1
1.484936991E1,7.282555580E0,9.122636318E-1,1.516810226E1
1.486948252E1,3.999603033E0,9.607182741E-1,1.383769321E1
1.488959512E1,1.086939692E0,1.795215130E0,1.013061333E1
1.490970773E1,4.564309120E-1,2.190030813E0,7.558328629E0
1.492982028E1,1.410568953E0,2.319243431E0,7.389036179E0
1.494993288E1,2.425724030E0,2.296511650E0,8.764310837E0
1.497004549E1,2.405385017E0,2.217548370E0,9.763314247E0
1.499015809E1,1.459023595E0,2.119442701E0,8.857631683E0
1.501027064E1,6.119644046E-1,2.018944025E0,7.034300327E0
1.503038325E1,2.787638307E-1,2.119442701E0,6.128616810E0
1.505049585E1,3.182454109E-1,2.226521492E0,6.055037498E0
1.507060840E1,4.701896608E-1,2.355733871E0,6.196812630E0
1.509072101E1,8.895317912E-1,2.427518606E0,6.530013084E0
1.511083361E1,1.473978758E0,2.321636200E0,7.540382385E0
1.513094622E1,1.752144337E0,2.014158487E0,8.918049812E0
1.515105877E1,1.584646821E0,1.833500385E0,1.027418232E1
1.517117137E1,1.265205026E0,1.536790371E0,1.119960594E1
1.519128392E1,1.049850941E0,1.333998680E0,1.157946682E1
1.521139653E1,9.906286001E-1,1.824527264E0,1.182233810E1
1.523150913E1,1.246062398E0,3.185445070E0,1.179960632E1
1.525162168E1,1.606780410E0,4.945964336E0,1.188215923E1
1.527173429E1,2.007578135E0,4.408775806E0,1.246660614E1
1.529184689E1,1.542174220E0,3.204587698E0,1.415593910E1
1.531195944E1,1.273579836E0,2.685345173E0,1.602593040E1
1.533207205E1,9.996016622E-1,2.647658348E0,1.477029610E1
1.535218460E1,1.131805062E0,2.745764017E0,1.125045395E1
1.537229720E1,1.272981644E0,2.769692183E0,8.356932640E0
1.539240976E1,1.176072359E0,2.482553482E0,7.178467751E0
1.541252236E1,5.575276613E-1,2.024926186E0,7.507481098E0
1.543263496E1,-4.067798331E-2,1.396810174E0,7.963313580E0
1.545274752E1,-2.919243574E-1,1.006181955E0,8.099106789E0
1.547286012E1,-3.643072546E-1,9.708877802E-1,7.737790108E0
1.549297267E1,-4.025924206E-1,1.221535921E0,6.735197544E0
1.551308528E1,-3.290131092E-1,1.512263894E0,5.466403484E0
1.553319783E1,-1.495514214E-1,1.725823283E0,4.707280159E0
1.555331043E1,2.931207791E-2,2.012363911E0,4.946562767E0
1.557342299E1,1.974078715E-1,2.133201361E0,6.371488571E0
1.559353559E1,6.502495408E-1,2.190030813E0,7.751548767E0
1.561364814E1,1.514058471E0,2.445464849E0,8.464610100E0
1.563376075E1,2.178066730E0,2.661417007E0,9.499505997E0
1.565387330E1,1.254437327E0,3.273381472E0,1.144965649E1
1.567398590E1,-3.278166950E-1,3.930809498E0,1.338066387E1
1.569409846E1,6.340979785E-2,3.544966698E0,1.433659649E1
1.571421101E1,9.553344250E-1,2.617748022E0,1.518305779E1
1.573432361E1,7.118647099E-1,2.003988981E0,1.555215073E1
1.575443616E1,2.871387079E-2,2.262413740E0,1.349970722E1
1.577454877E1,8.584251404E-1,2.918645382E0,1.093041420E1
1.579466132E1,2.315654039E0,2.870190859E0,1.002712345E1
1.581477392E1,2.373680115E0,2.474776745E0,1.067378330E1
1.583488648E1,1.521835208E0,2.063809633E0,1.049671459E1
1.585499903E1,8.003991842E-1,1.774876237E0,9.031708717E0
1.587511163E1,5.431707501E-1,1.628315806E0,7.387241840E0
1.589522418E1,4.821537733E-1,1.619940877E0,6.061617851E0
1.591533679E1,3.858426511E-1,1.591227055E0,5.432305813E0
1.593544934E1,2.662015259E-1,1.580459356E0,5.228317261E0
1.595556189E1,0.000000000E0,1.579262972E0,5.146363258E0
1.597567450E1,-2.219343036E-1,1.621735573E0,4.848456860E0
1.599578705E1,1.764706671E-1,1.700698733E0,4.636094093E0
1.601589960E1,6.616154313E-1,1.746162295E0,5.778068542E0
1.603601220E1,2.757728100E-1,1.713261008E0,8.514859200E0
1.605612476E1,-9.547362328E-1,1.992623091E0,1.156271744E1
1.607623731E1,-3.255435228E0,3.774079561E0,1.092921734E1
1.609634991E1,-5.352146149E0,6.853642464E0,7.856832981E0
1.611646246E1,-1.946561217E0,5.522036552E0,1.043150997E1
1.613657502E1,3.333201885E0,2.375474691E0,1.978086662E1
1.615668757E1,3.756133318E0,1.670788407E0,2.542733002E1
1.617680017E1,-1.160518974E-1,1.904686809E0,2.035514450E1
1.619691273E1,-1.845464468E0,2.194218397E0,1.352842140E1
1.621702528E1,-8.871390224E-1,2.797209740E0,9.804591179E0
1.623713783E1,8.189435601E-1,2.697309256E0,8.737990379E0
1.625725043E1,2.798406124E0,2.006381750E0,9.953543663E0
1.627736299E1,2.522633314E0,1.699502230E0,1.147657585E1
1.629747554E1,5.485545993E-1,1.633699656E0,1.081615639E1
1.631758814E1,-2.129612118E-1,1.550549030E0,8.700901031E0
1.633770070E1,-3.649054468E-2,1.630708575E0,6.773482800E0
1.635781325E1,5.180460811E-1,1.779661894E0,5.703890800E0
1.637792580E1,1.007976532E0,1.878963947E0,5.499902725E0
1.639803835E1,9.182456732E-1,1.980060697E0,5.498706341E0
1.641815096E1,4.713860750E-1,2.057229280E0,5.318048477E0
1.643826351E1,-4.606183618E-2,2.078166485E0,5.258825779E0
1.645837606E1,-2.117647976E-1,2.041675806E0,5.693721294E0
1.647848861E1,-3.571287692E-1,2.048854351E0,6.455237389E0
1.649860116E1,-4.091726840E-1,2.164308071E0,6.762714863E0
1.651871372E1,-3.487538993E-1,2.380858421E0,6.700501442E0
1.653882632E1,-1.525424421E-1,2.498705149E0,7.013961315E0
1.655893887E1,-1.585244983E-1,2.559123755E0,7.677969456E0
1.657905142E1,-3.248256743E-1,2.687737942E0,8.437690735E0
1.659916398E1,-1.166501045E-1,2.758326292E0,9.531808853E0
1.661927653E1,3.894318938E-1,2.589034081E0,1.197607708E1
1.663938908E1,4.037888348E-1,2.916850805E0,1.541755486E1
1.665950163E1,1.865803480E0,3.400799274E0,1.594577026E1
1.667961418E1,4.597808838E0,3.373879910E0,1.453699589E1
1.669972674E1,4.326223373E0,3.469592810E0,1.392742443E1
1.671983929E1,2.011167526E0,3.189632654E0,1.410868073E1
1.673995189E1,5.988038778E-1,2.536391973E0,1.467278862E1
1.676006444E1,7.244270444E-1,2.089532375E0,1.435454273E1
1.678017700E1,1.287936807E0,2.207378864E0,1.276511097E1
1.680028955E1,1.158126116E0,2.738585472E0,1.053679466E1
1.682040210E1,9.032905698E-1,3.049652576E0,8.377271652E0
1.684051510E1,7.483552694E-1,3.124428272E0,6.788437843E0
1.686062765E1,7.704889178E-1,2.927020311E0,6.103492260E0
1.688074020E1,1.039681435E0,2.657827854E0,6.177071571E0
1.690085275E1,1.554138303E0,2.539981127E0,6.457031727E0
1.692096531E1,2.091925144E0,2.484946251E0,6.381658077E0
1.694107786E1,1.789831281E0,2.429911375E0,5.879165173E0
1.696119041E1,6.496513486E-1,2.195414782E0,5.173880577E0
1.698130296E1,-4.420739710E-1,1.909472466E0,4.926821709E0
1.700141552E1,-6.867401004E-1,1.944766641E0,5.280361176E0
1.702152807E1,-1.567298770E-1,2.415554523E0,5.639284611E0
1.704164062E1,6.669993401E-1,2.866601467E0,6.300900459E0
1.706175317E1,1.252044439E0,3.056830883E0,7.778468132E0
1.708186572E1,1.380658627E0,2.520838737E0,1.011625576E1
1.710197828E1,1.546959877E0,2.058425665E0,1.279920864E1
1.712209083E1,8.261220455E-1,2.660818815E0,1.275075340E1
1.714220338E1,4.630111754E-1,3.082553864E0,1.172483063E1
1.716231593E1,4.815555513E-1,3.391227961E0,1.287398434E1
1.718242848E1,1.752742529E-1,3.456432343E0,1.426361561E1
1.720254104E1,2.063809484E-1,3.378067255E0,1.410269833E1
1.722265359E1,9.158528447E-1,3.766901016E0,1.355474186E1
1.724276609E1,2.570489645E0,4.188037872E0,1.327896881E1
1.726287864E1,3.889533281E0,4.152743816E0,1.300618744E1
1.728299119E1,3.340380430E0,3.730410576E0,1.266820145E1
1.730310374E1,1.328614831E0,3.354737282E0,1.182473087E1
1.732321630E1,-1.854437590E-2,3.069393158E0,1.091964626E1
1.734332885E1,-1.310070455E-1,2.808575630E0,1.054217815E1
1.736344140E1,4.181457460E-1,2.525624275E0,1.039801121E1
1.738355395E1,1.024726272E0,2.248056889E0,9.937392235E0
1.740366645E1,1.015753269E0,1.977069736E0,9.034700394E0
1.742377900E1,5.527420044E-1,1.734796405E0,8.296514511E0
1.744389156E1,3.092723191E-1,1.613958836E0,7.648059368E0
1.746400411E1,3.948157430E-1,1.560120344E0,6.879364967E0
1.748411666E1,7.752745152E-1,1.541576028E0,5.961119175E0
1.750422921E1,9.990034699E-1,1.653440475E0,5.212165833E0
1.752434171E1,1.073779106E0,1.799402595E0,4.771288395E0
1.754445426E1,8.811569214E-1,1.920838356E0,4.837689400E0
1.756456682E1,5.874379873E-1,1.998605132E0,5.060221672E0
1.758467937E1,3.397808075E-1,1.990230203E0,5.579464436E0
1.760479192E1,4.079762697E-1,1.870589137E0,6.678966045E0
1.762490442E1,6.783652306E-1,1.759322882E0,7.901100159E0
1.764501697E1,8.147560954E-1,1.697109461E0,8.603393555E0
1.766512952E1,6.975077987E-1,1.747358680E0,8.784649849E0
1.768524208E1,6.556333899E-1,1.975275040E0,8.475378036E0
1.770535463E1,5.712863803E-1,2.376072884E0,7.959724426E0
1.772546713E1,7.818548083E-1,2.799004316E0,8.206783295E0
1.774557968E1,1.459023595E0,3.162115097E0,1.016351414E1
1.776569223E1,1.890329838E0,4.126422882E0,1.220339584E1
1.778580478E1,2.401197433E0,3.827918053E0,1.263051414E1
1.780591728E1,3.163909674E0,3.734597921E0,1.409611797E1
1.782602984E1,4.050450325E0,3.522234917E0,1.757169342E1
1.784614239E1,3.901497364E0,2.357528448E0,1.908096504E1
1.786625494E1,2.775674343E0,1.346560955E0,1.693639946E1
1.788636744E1,2.616551638E0,1.310668588E0,1.348594856E1
1.790647999E1,3.553341627E0,1.875374794E0,1.112542915E1
1.792659255E1,4.135395527E0,2.396411896E0,1.054158020E1
1.794670505E1,2.874976397E0,2.412563324E0,1.102253723E1
1.796681760E1,1.505085468E0,1.808375716E0,1.066421223E1
1.798693015E1,9.708877802E-1,1.658824325E0,9.814162254E0
1.800704265E1,1.007378340E0,1.719243050E0,8.853444099E0
1.802715520E1,1.250249863E0,1.746162295E0,7.752147198E0
1.804726775E1,1.440479279E0,1.816152334E0,6.692724705E0
1.806738025E1,1.505683661E0,1.803590059E0,5.938985825E0
1.808749281E1,1.183848977E0,1.671386600E0,5.618347645E0
1.810760536E1,7.064808607E-1,1.504487276E0,5.515456200E0
1.812771786E1,4.342973232E-1,1.381855130E0,5.379663467E0
1.814783041E1,6.149554253E-1,1.386042476E0,5.072185993E0
1.816794296E1,9.248259664E-1,1.554138303E0,4.624728203E0
1.818805546E1,1.121037364E0,1.643869162E0,4.403990269E0
1.820816802E1,8.189435601E-1,1.607976794E0,4.524827480E0
1.822828057E1,3.194418252E-1,1.465603828E0,5.060221672E0
1.824839307E1,1.316052489E-2,1.333998680E0,6.129215240E0
1.826850562E1,7.178468257E-2,1.363908887E0,7.362117290E0
1.828861812E1,2.440679073E-1,1.694716692E0,9.466006279E0
1.830873067E1,-2.991028316E-2,2.161915302E0,1.280279732E1
1.832884322E1,-1.074975610E0,3.407977581E0,1.409731483E1
1.834895572E1,-2.067996979E0,5.654838085E0,1.124985600E1
1.836906828E1,9.122636318E-1,5.876173973E0,1.079821014E1
1.838918078E1,4.843072891E0,4.294518471E0,1.575733566E1
1.840929333E1,4.572684288E0,3.333800077E0,2.024387741E1
1.842940583E1,1.400997639E0,2.531008244E0,2.004527283E1
1.844951838E1,-5.688936114E-1,1.809572101E0,1.791207123E1
1.846963088E1,-2.279163599E-1,1.838286042E0,1.552582932E1
1.848974343E1,9.104689956E-1,2.312663078E0,1.300738430E1
1.850985598E1,1.825125456E0,2.382653236E0,1.002353382E1
1.852996848E1,1.836491346E0,2.290529490E0,7.494320393E0
1.855008104E1,1.465005636E0,1.917249203E0,7.033103943E0
1.857019354E1,8.512466550E-1,1.620539188E0,7.888537884E0
1.859030609E1,4.313062727E-1,1.497906923E0,7.752147198E0
1.861041859E1,4.683950245E-1,1.626521230E0,6.558128834E0
1.863053114E1,6.185446382E-1,1.801795483E0,5.330610752E0
1.865064364E1,4.510470629E-1,1.844268084E0,4.603192329E0
1.867075614E1,-1.710868180E-1,1.778465390E0,4.480560303E0
1.869086869E1,-5.425725579E-1,1.544566989E0,5.383252621E0
1.871098119E1,-4.630111754E-1,1.459023595E0,6.727420807E0
1.873109374E1,-3.266202807E-1,1.583450437E0,7.774878979E0
1.875120624E1,2.213360928E-2,1.652842283E0,7.821538925E0
1.877131880E1,7.680960894E-1,1.800599098E0,6.903891563E0
1.879143130E1,1.490130305E0,2.019542217E0,6.224329948E0
1.881154385E1,1.682752490E0,2.207378864E0,6.394220352E0
1.883165635E1,1.414158225E0,1.969292998E0,6.844070911E0
1.885176890E1,1.342373490E0,1.341775298E0,8.205587387E0
1.887188140E1,3.326023519E-1,1.614557028E0,1.104048347E1
1.889199395E1,4.127618968E-1,2.732603550E0,1.333579922E1
1.891210645E1,3.052045345E0,3.400201082E0,1.412602806E1
1.893221895E1,6.293721676E0,3.611367464E0,1.570529175E1
1.895233150E1,7.302296638E0,3.139383316E0,1.748136330E1
1.897244400E1,5.081159115E0,2.429313183E0,1.760399628E1
1.899255656E1,2.795415163E0,2.111665964E0,1.668276024E1
1.901266906E1,1.596012712E0,2.185245275E0,1.484686661E1
1.903278156E1,7.064808607E-1,2.638087034E0,1.279980659E1
1.905289411E1,3.876372576E-1,2.751147747E0,1.119661522E1
1.907300661E1,8.500502706E-1,2.456232548E0,1.007318497E1
1.909311911E1,1.716850281E0,2.142772675E0,9.339186668E0
1.911323166E1,2.033899307E0,1.925624013E0,8.581858635E0
1.913334416E1,1.808973908E0,1.712662816E0,7.928019524E0
1.915345666E1,1.191625714E0,1.633101463E0,7.065407276E0
1.917356921E1,6.634100676E-1,1.642074585E0,5.939583778E0
1.919368171E1,4.612165689E-1,1.741974831E0,4.730011940E0
1.921379421E1,4.642075896E-1,1.849651933E0,3.778266907E0
1.923390676E1,3.864408433E-1,1.795215130E0,3.273979664E0
1.925401926E1,1.776670814E-1,1.648654819E0,3.246462107E0
1.927413176E1,-1.016949639E-1,1.515254974E0,3.464807272E0
1.929424432E1,-2.159522474E-1,1.397408366E0,3.905684710E0
1.931435682E1,1.495514214E-1,1.307079315E0,4.449453831E0
1.933446932E1,5.575276613E-1,1.195214868E0,5.024329185E0
1.935458187E1,8.590233326E-1,1.054038405E0,6.268597126E0
1.937469437E1,8.321040869E-1,9.535398483E-1,7.631907940E0
1.939480687E1,-2.392822644E-3,1.555932879E0,7.688737392E0
1.941491942E1,-2.828316450E0,4.203591347E0,5.382056236E0
1.943503192E1,-4.373481750E0,6.492924213E0,4.275974274E0
1.945514442E1,2.365903378E0,3.943371773E0,1.533799362E1
1.947525692E1,8.190631866E0,1.415952802E0,2.990789032E1
1.949536947E1,4.724030018E0,7.597211599E-1,2.701915550E1
1.951548197E1,-1.304088384E-1,2.194218397E0,1.568375587E1
1.953559447E1,9.649057388E-1,3.256033421E0,1.102851963E1
1.955570697E1,4.413561344E0,3.199802160E0,1.284646702E1
1.957581952E1,5.022534847E0,2.478366137E0,1.588355637E1
1.959593202E1,2.766701221E0,1.671984792E0,1.584587002E1
1.961604452E1,3.643072546E-1,1.421336651E0,1.372702503E1
1.963615702E1,-1.202393398E-1,1.551147223E0,1.165902805E1
1.965626952E1,4.612165689E-1,1.960319996E0,9.744172096E0
1.967638208E1,9.445667267E-1,2.287538528E0,7.802994728E0
1.969649458E1,1.140179992E0,2.353341103E0,6.399604321E0
1.971660708E1,9.547362328E-1,2.309672117E0,5.833701611E0
1.973671958E1,4.103690982E-1,2.248056889E0,5.547161102E0
1.975683208E1,-1.196411327E-1,2.084746838E0,5.276772022E0
1.977694463E1,-5.700899959E-1,1.897508383E0,5.241477966E0
1.979705713E1,-6.502495408E-1,1.791027784E0,5.377869129E0
1.981716963E1,-3.601198196E-1,1.813759565E0,5.469992638E0
1.983728213E1,9.152546525E-2,1.895115495E0,5.311468124E0
1.985739463E1,3.684946895E-1,1.902294040E0,5.551348686E0
1.987750713E1,2.249253243E-1,1.756929994E0,6.355935097E0
1.989761968E1,-3.290131316E-2,1.657029629E0,7.121638298E0
1.991773218E1,-1.130608693E-1,1.545165181E0,7.391428947E0
1.993784468E1,3.768695518E-2,1.314257860E0,7.844869137E0
1.995795718E1,5.138586760E-1,1.250249863E0,8.315058708E0
1.997806968E1,4.067798555E-1,1.820937991E0,7.858627796E0
1.999818218E1,-2.751746029E-2,2.424527645E0,7.039085865E0
2.001829468E1,1.400399446E0,2.385046005E0,8.787042618E0
2.003840718E1,3.032902718E0,2.343171597E0,1.335793209E1
2.005851973E1,4.340580463E0,1.829911113E0,1.685085487E1
2.007863223E1,4.883152962E0,8.763712645E-1,1.814178276E1
2.009874473E1,4.529015064E0,4.636093974E-1,1.825663948E1
2.011885723E1,4.048655987E0,8.285148144E-1,1.698963928E1
2.013896973E1,3.306880951E0,1.612164259E0,1.473260880E1
2.015908223E1,2.941377163E0,1.908874273E0,1.328973675E1
2.017919473E1,2.986242771E0,1.859821439E0,1.269212914E1
2.019930723E1,3.002992392E0,1.707278967E0,1.226859951E1
2.021941973E1,2.598605394E0,1.589432478E0,1.141914749E1
2.023953223E1,1.956730723E0,1.572682738E0,1.004626560E1
2.025964473E1,1.455434322E0,1.605584025E0,8.622536659E0
2.027975723E1,1.155733347E0,1.667797327E0,7.347161770E0
2.029986978E1,9.882357717E-1,1.725225091E0,6.290132523E0
2.031998229E1,1.025922656E0,1.725225091E0,5.534000397E0
2.034009473E1,9.984052777E-1,1.694716692E0,5.264209747E0
2.036020728E1,8.757730722E-1,1.639083505E0,5.250451088E0
2.038031978E1,8.356932998E-1,1.572084427E0,5.340181828E0
2.040043228E1,8.267202377E-1,1.436890006E0,5.639284611E0
2.042054478E1,8.416753411E-1,1.258026481E0,6.265605927E0
2.044065728E1,9.613165259E-1,1.057029366E0,6.943373203E0
2.046076978E1,1.211366415E0,8.033902049E-1,8.301300049E0
2.048088228E1,8.207381964E-1,1.105484009E0,9.940981865E0
2.050099478E1,6.340979785E-2,1.654038668E0,1.147298622E1
2.052110728E1,1.256231871E-2,2.000998020E0,1.344646645E1
2.054121979E1,9.786644578E-1,1.866999865E0,1.470987701E1
2.056133223E1,2.648854733E0,1.425524116E0,1.506820202E1
2.058144479E1,3.154338360E0,1.429711580E0,1.578904057E1
2.060155723E1,2.568096876E0,1.518245935E0,1.633520126E1
2.062166973E1,1.908874273E0,1.303490162E0,1.572862148E1
2.064178223E1,1.486541033E0,1.149751306E0,1.403091335E1
2.066189473E1,1.651645780E0,1.287338614E0,1.251147175E1
2.068200723E1,1.596610904E0,1.372882009E0,1.138863945E1
2.070211973E1,1.117448211E0,1.180858016E0,1.058764172E1
2.072223223E1,4.492524564E-1,9.625129104E-1,1.003071213E1
2.074234473E1,-9.571290761E-2,7.339983582E-1,9.793225288E0
2.076245723E1,-1.884347796E-1,5.700899959E-1,9.369695663E0
2.078256973E1,1.268195957E-1,7.166503668E-1,8.304290771E0
2.080268223E1,5.270192027E-1,1.010369420E0,6.926623344E0
2.082279473E1,8.087740541E-1,1.269392371E0,5.799005508E0
2.084290723E1,9.571290612E-1,1.561915040E0,5.301298618E0
2.086301973E1,8.141579032E-1,1.819143414E0,5.295316696E0
2.088313223E1,6.801598072E-1,1.819143414E0,5.710471153E0
2.090324468E1,7.848458290E-1,1.698305845E0,6.436094761E0
2.092335718E1,1.020538807E0,1.593021631E0,7.314260483E0
2.094346968E1,1.057029366E0,1.485942841E0,8.280363083E0
2.096358218E1,1.035493970E0,1.393221021E0,8.781659126E0
2.098369468E1,1.013360381E0,1.423131227E0,8.560322762E0
2.100380718E1,1.189232826E0,1.546959877E0,8.267202377E0
2.102391968E1,1.402194023E0,1.661217093E0,8.201997757E0
2.104403218E1,1.186241865E0,1.693520188E0,8.109275818E0
2.106414463E1,7.363911867E-1,1.640878081E0,7.886145115E0
2.108425713E1,5.192425251E-1,1.654038668E0,7.686942577E0
2.110436963E1,5.874379873E-1,1.737787485E0,7.459624767E0
2.112448213E1,6.520441771E-1,1.825125456E0,7.052844524E0
2.114459463E1,4.642075896E-1,1.862214208E0,6.789036274E0
2.116470713E1,3.146561682E-1,1.962114573E0,6.986443996E0
2.118481963E1,4.570291340E-1,1.939382792E0,7.878368378E0
2.120493208E1,8.578268886E-1,1.490728498E0,9.956535339E0
2.122504458E1,1.412961721E0,1.291526079E0,1.405304718E1
2.124515708E1,1.091127157E0,2.702095032E0,1.525903034E1
2.126526958E1,1.665404558E0,2.971885681E0,1.317368507E1
2.128538208E1,4.727619171E0,1.798804402E0,1.412602806E1
2.130549452E1,5.050052166E0,1.206580877E0,1.823570061E1
2.132560702E1,2.515454769E0,7.609176040E-1,1.981496429E1
2.134571952E1,6.281159520E-1,3.936193287E-1,1.752742577E1
2.136583203E1,1.246062398E0,4.301098585E-1,1.439641762E1
2.138594447E1,2.189432621E0,9.684949517E-1,1.238764286E1
2.140605697E1,2.355733871E0,1.326221943E0,1.084008503E1
2.142616947E1,1.833500385E0,1.548156261E0,9.065208435E0
2.144628197E1,1.386640668E0,1.712662816E0,7.466204643E0
2.146639442E1,1.198804140E0,1.673181176E0,6.679564476E0
2.148650692E1,9.122636318E-1,1.524826288E0,6.670591354E0
2.150661942E1,5.545366406E-1,1.324427366E0,6.896713257E0
2.152673192E1,2.045863420E-1,1.205384374E0,6.774679184E0
2.154684437E1,7.238288224E-2,1.201795220E0,6.249454498E0
2.156695687E1,7.896314561E-2,1.292722464E0,5.517251015E0
2.158706937E1,1.686939895E-1,1.365703583E0,5.039284706E0
2.160718187E1,3.385843933E-1,1.355534077E0,5.258227825E0
2.162729432E1,4.223332107E-1,1.305284739E0,5.897111416E0
2.164740682E1,1.531406492E-1,1.164706469E0,6.351149559E0
2.166751932E1,1.316052489E-2,9.194421172E-1,6.725626469E0
2.168763182E1,1.046859920E-1,6.951149702E-1,7.277172089E0
2.170774427E1,3.750749528E-1,4.013960063E-1,8.161319733E0
2.172785676E1,5.449653864E-1,3.026920557E-1,9.358927727E0
2.174796927E1,2.494517565E-1,6.017948985E-1,9.327820778E0
2.176808171E1,-4.654040039E-1,1.277169108E0,8.708678246E0
2.178819421E1,-9.224331379E-1,1.983051777E0,1.152981567E1
2.180830671E1,-4.384847581E-1,3.285943747E0,1.701655769E1
2.182841916E1,4.151547253E-1,4.462614059E0,1.645663834E1
2.184853166E1,1.745564103E0,3.790230989E0,1.271306705E1
2.186864416E1,4.025325775E0,2.632703066E0,1.329153156E1
2.188875661E1,3.470789194E0,3.181257725E0,1.622214127E1
2.190886911E1,-5.563312769E-2,3.593421459E0,1.528176212E1
2.192898161E1,-1.862812400E0,3.172284603E0,1.297807217E1
2.194909406E1,-1.380060434E0,2.739183664E0,1.190369415E1
2.196920656E1,2.039881349E-1,2.362314224E0,1.183908844E1
2.198931900E1,1.058824062E0,2.192423820E0,1.140538883E1
2.200943150E1,1.079162955E0,2.120639086E0,1.029631615E1
2.202954400E1,8.997012973E-1,2.042274237E0,9.183054924E0
2.204965645E1,7.351947427E-1,1.819741607E0,8.318648338E0
2.206976895E1,2.895315289E-1,1.688734531E0,7.529016495E0
2.208988145E1,4.127619043E-2,1.649253011E0,6.952346325E0
2.210999390E1,2.871387079E-2,1.742573142E0,6.422934055E0
2.213010640E1,9.511470050E-2,1.851446509E0,6.073582172E0
2.215021885E1,1.405783296E-1,1.986641049E0,5.848656654E0
2.217033135E1,2.386840582E-1,2.103889227E0,5.767300606E0
2.219044385E1,3.954139352E-1,2.257628202E0,5.745765209E0
2.221055630E1,3.212364316E-1,2.416152716E0,5.704489231E0
2.223066880E1,1.459621787E-1,2.406581402E0,5.928217888E0
2.225078124E1,6.819544733E-2,2.289931297E0,6.434898376E0
2.227089374E1,1.818545163E-1,2.351546526E0,6.238687038E0
2.229100619E1,3.762713671E-1,2.442473650E0,5.816353798E0
2.231111869E1,3.074777126E-1,2.392224550E0,7.078567505E0
2.233123119E1,-5.676971674E-1,2.318645239E0,7.919644833E0
2.235134364E1,-7.214360237E-1,2.228914261E0,7.390232563E0
2.237145614E1,-1.902294010E-1,3.088535786E0,7.958528042E0
2.239156859E1,6.544370055E-1,3.476173162E0,9.780064583E0
2.241168104E1,2.017149448E0,4.374678135E0,1.179003525E1
2.243179354E1,1.158126116E0,7.332805157E0,1.233559895E1
2.245190604E1,1.005583763E0,7.893921852E0,1.275494099E1
2.247201848E1,2.960519791E0,4.209573269E0,1.836012840E1
2.249213098E1,2.351546526E0,2.155933142E0,2.049931145E1
2.251224343E1,1.909472466E0,2.968296528E0,1.706800461E1
2.253235593E1,1.974078655E0,4.209573269E0,1.463151264E1
2.255246838E1,3.151347399E0,4.266402721E0,1.399920845E1
2.257258088E1,2.580060959E0,4.152743816E0,1.289611721E1
2.259269333E1,2.082952023E0,4.235296249E0,1.215553856E1
2.261280583E1,1.718046665E0,4.421338081E0,1.085264683E1
2.263291828E1,8.847461939E-1,4.558327198E0,7.448856831E0
2.265303078E1,9.978070259E-1,3.786641836E0,8.925228119E0
2.267314322E1,1.489532113E0,2.988635540E0,1.166022491E1
2.269325572E1,1.305882931E0,3.150151014E0,1.099681473E1
2.271336817E1,-3.050848842E-2,3.371487141E0,8.404191017E0
2.273348062E1,-1.118046403E0,3.204587698E0,6.459424496E0
2.277286542E1,7.507480979E-1,3.246462107E0,8.758927345E0
2.279297766E1,9.044869542E-1,3.264408350E0,9.187242508E0
2.281308995E1,1.138385415E0,3.174677372E0,9.513862610E0
2.283320224E1,7.058826685E-1,3.360121250E0,9.412766457E0
2.285331448E1,5.300102234E-1,3.453441381E0,8.819346428E0
2.287342677E1,1.024726272E0,3.619144201E0,8.499904633E0
2.289353901E1,5.102694035E-1,3.848257065E0,8.355736732E0
2.291365130E1,5.886343718E-1,3.667000771E0,8.363512993E0
2.293376360E1,5.276173949E-1,3.745365620E0,8.498707771E0
2.295387584E1,4.384847581E-1,3.828516245E0,8.700901031E0
2.297398813E1,4.265206456E-1,3.741178274E0,8.874979019E0
2.299410042E1,5.389832854E-1,3.607778311E0,9.078369141E0
2.301421266E1,7.208378315E-1,3.455235958E0,9.157332420E0
2.303432495E1,8.428717852E-1,3.361317635E0,8.988039970E0
2.305443719E1,8.392825127E-1,3.343969584E0,8.536993027E0
2.307454948E1,7.734799385E-1,3.323032379E0,8.186444283E0
2.309466177E1,6.329016089E-1,3.235694408E0,7.972885132E0
2.311477401E1,4.875376225E-1,3.083750248E0,8.016553879E0
2.313488630E1,5.084748268E-1,2.923431158E0,8.084151268E0
2.315499854E1,6.580262184E-1,2.703889608E0,7.768298626E0
2.317511084E1,7.674978375E-1,2.504088879E0,7.267002583E0
2.319522313E1,7.674978375E-1,2.310270309E0,6.506682873E0
2.321533537E1,6.652047038E-1,2.132603168E0,5.770291805E0
2.323544766E1,3.984049559E-1,2.108076811E0,5.484349728E0
2.325555990E1,-4.965107143E-2,2.257030010E0,5.292923450E0
2.327567219E1,-4.067798555E-1,2.442473650E0,5.391627789E0
2.329578448E1,-5.682953596E-1,2.537588358E0,6.028118610E0
2.331589672E1,3.828516230E-2,2.304886341E0,7.320840836E0
2.333600901E1,1.064207911E0,2.082353830E0,8.563314438E0
2.335612125E1,1.490130305E0,1.996212244E0,9.510871887E0
2.337623354E1,9.056833982E-1,2.031506538E0,1.039621639E1
2.339634578E1,-6.849454641E-1,3.050250769E0,1.107996559E1
2.341645807E1,-2.615355253E0,5.485546112E0,1.139880848E1
2.343657031E1,9.451649338E-2,4.451846600E0,1.390529060E1
2.345668261E1,3.601198196E0,1.811366796E0,1.743410492E1
2.347679484E1,1.652244091E0,2.344367981E0,1.857667923E1
2.349690714E1,-1.757528186E0,3.564707518E0,1.512981796E1
2.351701943E1,-2.021337032E0,3.824927092E0,1.205862999E1
2.353713167E1,-3.948157281E-2,3.609572887E0,1.172243786E1
2.355724396E1,1.430309772E0,2.813361168E0,1.360319710E1
2.357735620E1,9.649057388E-1,1.971685886E0,1.396810246E1
2.359746849E1,-1.076770201E-1,1.512263894E0,1.211904812E1
2.361758073E1,-5.090730190E-1,1.488335729E0,1.009232807E1
2.363769302E1,-5.120640397E-1,1.698305845E0,8.734998703E0
2.365780526E1,-4.468596280E-1,1.743171334E0,7.704888821E0
2.367791755E1,-4.875376225E-1,1.618744493E0,6.591628075E0
2.369802979E1,-7.100701332E-1,1.577468276E0,5.496912003E0
2.371814208E1,-9.852447510E-1,1.677368641E0,4.592424870E0
2.373825432E1,-1.112662554E0,1.746162295E0,3.906282902E0
2.375836662E1,-9.643075466E-1,1.782652855E0,2.816950560E0
2.377847886E1,-1.310070455E-1,1.750349760E0,2.462812662E0
2.379859115E1,1.104287624E0,1.701895118E0,4.362115860E0
2.381870339E1,1.711466432E0,1.680957913E0,6.879963398E0
2.383881568E1,1.673181176E0,1.496112347E0,8.390432358E0
2.385892792E1,9.332008362E-1,1.423729420E0,8.166703224E0
2.387904016E1,3.451646566E-1,1.527219057E0,7.564310551E0
2.389915245E1,9.577272534E-1,1.467996716E0,8.707481384E0
2.391926469E1,1.839482427E0,1.890329838E0,1.093819046E1
2.393937698E1,2.042274237E0,2.995813847E0,1.207119179E1
2.395948922E1,3.328416348E0,3.291925669E0,1.352004623E1
2.397960151E1,4.456632137E0,2.727219582E0,1.632323837E1
2.399971375E1,4.769493580E0,1.244866014E0,1.945245171E1
2.401982604E1,3.427120209E0,1.232303679E-1,1.888176346E1
2.403993828E1,1.822134495E0,2.566302419E-1,1.514357662E1
2.406005057E1,1.738385677E0,1.068993568E0,1.205982590E1
2.408016281E1,2.440679073E0,1.781456470E0,1.108355427E1
2.410027505E1,2.444268227E0,1.971685886E0,1.144487095E1
2.412038734E1,1.984846354E0,1.335793257E0,1.186421299E1
2.414049958E1,1.651047587E0,7.250252366E-1,1.191446209E1
2.416061182E1,1.228116274E0,5.676971674E-1,1.119302654E1
2.418072412E1,8.009973764E-1,7.603194118E-1,9.619745255E0
2.420083636E1,6.658028960E-1,1.077966571E0,7.680960655E0
2.422094865E1,6.376872063E-1,1.384247899E0,5.931807518E0
2.424106089E1,4.821537733E-1,1.567897081E0,4.596014023E0
2.426117313E1,2.733799815E-1,1.599003673E0,3.631108284E0
2.428128542E1,1.579262912E-1,1.521237016E0,2.998805046E0
2.430139766E1,3.888336942E-2,1.383051515E0,2.766701221E0
2.432150995E1,4.486542568E-2,9.511470199E-1,2.941975355E0
2.434162219E1,6.933203340E-1,2.781656384E-1,4.509872437E0
2.436173443E1,1.770090580E0,-4.366901144E-2,7.158727169E0
2.438184672E1,1.752144337E0,2.135594189E-1,1.000319481E1
2.440195896E1,8.979067206E-1,9.631111026E-1,1.377308750E1
2.442207120E1,-1.424327731E0,2.987439156E0,1.530329704E1
2.444218349E1,-2.500499725E0,4.557728767E0,1.279023552E1
2.446229573E1,1.620539188E0,2.502892494E0,1.345125294E1
2.448240797E1,5.626124382E0,3.846462369E-1,2.075474548E1
2.450252026E1,4.309473515E0,4.785645381E-2,2.354956245E1
2.452263250E1,2.679961324E-1,6.299105883E-1,1.673001862E1
2.454274474E1,-6.723831892E-1,1.457229018E0,9.675976753E0
2.456285703E1,4.259224236E-1,2.264806747E0,6.561717987E0
2.458296927E1,1.342971683E0,2.465803623E0,5.834300041E0
2.460308151E1,1.125224829E0,2.045265198E0,6.053243160E0
2.462319380E1,-5.862415582E-2,1.453041553E0,6.597012043E0
2.464330604E1,-9.661021233E-1,1.017547846E0,6.845267296E0
2.466341828E1,-8.955138922E-1,5.276173949E-1,6.105885029E0
2.468353052E1,-7.836493850E-2,4.773681164E-1,4.421338081E0
2.470364281E1,1.188634634E0,8.608179688E-1,3.741776466E0
2.472375505E1,2.061416626E0,1.173679471E0,4.268197536E0
2.474386729E1,1.715653777E0,1.302891970E0,5.116453171E0
2.476397958E1,4.043870270E-1,1.349551916E0,6.511468410E0
2.478409182E1,-6.526423693E-1,1.761715651E0,1.035434151E1
2.480420406E1,-1.524227977E0,3.847658873E0,1.618923950E1
2.482431630E1,1.015753269E0,4.432703972E0,1.520399475E1
2.484442860E1,6.109474182E0,1.877767563E0,1.319163132E1
2.486454084E1,5.808577061E0,1.399801224E-1,1.623530197E1
2.488465307E1,3.786641955E-1,5.617151260E-1,1.804367828E1
2.490476531E1,-2.569293261E0,1.119242787E0,1.412064457E1
2.492487761E1,-1.303490162E0,1.307677627E0,9.135796547E0
2.494498985E1,5.198407173E-1,1.792224169E0,6.153741837E0
2.496510208E1,2.320439816E0,2.124826431E0,5.407180786E0
2.498521438E1,3.355933666E0,2.318645239E0,6.096911907E0
2.500532662E1,2.857628345E0,1.971685886E0,6.504290104E0
2.502543886E1,1.820339799E0,1.267597795E0,6.111268997E0
2.504555110E1,1.603191137E0,8.476574421E-1,4.932804108E0
2.506566334E1,2.578864574E0,5.569294691E-1,4.893920422E0
2.508577563E1,3.304488182E0,9.768698215E-1,7.184450150E0
2.510588787E1,9.451649189E-1,2.318047047E0,9.438488960E0
2.512600011E1,-3.760320902E0,3.040679455E0,1.143948650E1
2.514611235E1,-6.929016113E0,3.429512978E0,1.196590805E1
2.516622459E1,-1.018744230E0,1.828116536E0,1.176311588E1
2.518633688E1,5.700301647E0,6.083751321E-1,1.493181133E1
2.520644912E1,2.682952404E0,2.322832584E0,1.497727489E1
2.522656136E1,-2.568695068E0,2.556730986E0,1.083888817E1
2.524667360E1,-3.900300980E0,1.131805062E0,8.078168869E0
2.526678584E1,-2.799004316E0,6.233302951E-1,9.053244591E0
2.528689807E1,-1.770090580E0,1.306481123E0,1.047637558E1
2.530701037E1,-7.974081635E-1,1.732403636E0,9.782457352E0
2.532712261E1,8.434699476E-2,1.910070658E0,8.537590981E0
2.534723485E1,-3.475574851E-1,2.196611166E0,8.105687141E0
2.536734709E1,-6.843472719E-1,1.515254974E0,9.827920914E0
2.538745932E1,-7.381857634E-1,7.268198729E-1,1.123669529E1
2.540757156E1,-5.443671346E-1,7.375875711E-1,1.058524895E1
2.542768386E1,-1.794617064E-2,1.252642632E0,1.019940662E1
2.544779610E1,-3.870390654E-1,3.241078377E0,1.140359497E1
2.546790834E1,-1.138385415E0,5.717649937E0,1.069292641E1
2.548802057E1,2.341975212E0,3.881756544E0,1.079521942E1
2.550813281E1,3.798007727E0,1.119242787E0,1.362832165E1
2.552824505E1,1.037886858E0,4.265206456E-1,1.639502335E1
2.554835729E1,-1.611566067E0,1.253839016E0,1.484566975E1
2.556846953E1,-8.763712645E-1,2.327019930E0,9.909874916E0
2.558858177E1,4.366901219E-1,3.278765202E0,5.105685234E0
2.560869406E1,7.860422134E-1,3.300300598E0,2.146960020E0
2.562880630E1,1.350150228E0,2.636890650E0,2.137987137E0
2.564891854E1,1.299302697E0,2.392822742E0,3.742972851E0
2.566903078E1,7.710871100E-1,1.852044702E0,5.386841774E0
2.568914302E1,7.094719410E-1,6.358926296E-1,7.523034573E0
2.570925526E1,7.956135273E-1,-1.657029688E-1,9.729216576E0
2.572936750E1,-7.776673418E-3,-2.685943544E-1,1.016351414E1
2.574947974E1,-7.531409264E-1,3.499503136E-1,7.688737392E0
2.576959198E1,-7.142575383E-1,1.277767301E0,5.706283569E0
2.578970422E1,-1.932204217E-1,2.474178553E0,7.928617954E0
2.580981646E1,-3.493520916E-1,3.878167391E0,1.156271744E1
2.582992870E1,4.211367965E-1,3.188436270E0,1.404168129E1
2.585004099E1,2.772683144E0,7.746763229E-1,1.638664818E1
2.587015323E1,1.935195327E0,5.228317380E-1,1.736590958E1
2.589026547E1,-1.770688742E-1,1.519442320E0,1.410449314E1
2.591037771E1,1.591227055E-1,2.036890268E0,9.815957069E0
2.593048995E1,1.412363529E0,2.094916344E0,7.614559650E0
2.595060219E1,1.703689694E0,1.965105653E0,7.474579811E0
2.597071443E1,5.910272002E-1,1.830509305E0,8.056035995E0
2.599082667E1,-7.597211599E-1,1.597209096E0,8.634500504E0
2.601093891E1,-1.202991605E0,1.348355532E0,8.439485550E0
2.603105115E1,-6.035895348E-1,1.322034478E0,7.714460373E0
2.605116339E1,5.940182209E-1,1.385444283E0,7.398009300E0
2.607127563E1,1.392024517E0,1.616351724E0,7.030711174E0
2.609138787E1,1.285543919E0,1.682752490E0,6.879364967E0
2.611150011E1,1.158126116E0,1.414756417E0,8.949156761E0
2.613161234E1,-4.372883439E-1,2.856431961E0,1.235055447E1
2.615172458E1,-2.229512453E0,5.031507969E0,1.299960709E1
2.617183682E1,2.471187592E0,3.780061483E0,1.273759270E1
2.619194906E1,7.090531826E0,8.416753411E-1,1.659183311E1
2.621206130E1,6.357729912E0,-1.200000525E0,2.167119598E1
2.623217354E1,7.944171429E-1,-8.745766878E-1,1.870050812E1
2.625228573E1,-2.169692039E0,-1.627119333E-1,1.178166008E1
2.627239802E1,-1.079162955E0,6.771687865E-1,6.413362980E0
2.629251026E1,4.390829504E-1,2.163709879E0,4.021138668E0
2.631262245E1,1.833500385E0,2.337787628E0,4.175475597E0
2.633273469E1,2.571087837E0,1.880160451E0,6.173482418E0
2.635284693E1,1.506880045E0,1.824527264E0,7.390830994E0
2.637295917E1,7.477570772E-1,1.411765337E0,7.199405193E0
2.639307141E1,6.981059909E-1,9.972088337E-1,6.369095802E0
2.641318365E1,1.094118118E0,1.025324464E0,5.825924873E0
2.643329589E1,1.472184181E0,1.067198873E0,5.703890800E0
2.645340813E1,1.595414519E0,8.213363886E-1,6.373881340E0
2.647352037E1,1.430907965E0,5.844469070E-1,6.828517437E0
2.649363261E1,9.152546525E-1,8.422735929E-1,6.836294174E0
2.651374484E1,5.557330847E-1,1.448854089E0,8.574680328E0
2.653385708E1,-3.218346536E-1,2.677568436E0,1.287039471E1
2.655396932E1,-3.220141172E0,5.255236626E0,1.385743427E1
2.657408156E1,-1.823330879E0,4.299902439E0,1.377607822E1
2.659419375E1,3.260220766E0,3.631108403E-1,1.943630028E1
2.661430599E1,4.392025948E0,-7.381857634E-1,2.503969193E1
2.663441823E1,6.723831892E-1,3.607180119E-1,2.004766655E1
2.665453047E1,-6.059823632E-1,1.639681697E0,1.184506989E1
2.667464271E1,4.211367965E-1,2.622533560E0,8.065009117E0
2.669475495E1,1.269990563E0,2.848057270E0,7.989036560E0
2.671486719E1,7.208378315E-1,2.316850424E0,9.320044518E0
2.673497943E1,-3.774677813E-1,1.726421595E0,9.753145218E0
2.675509162E1,-7.872386575E-1,1.526620865E0,8.802596092E0
2.677520386E1,-2.620140910E-1,1.658824325E0,7.739584923E0
2.679531610E1,4.384847581E-1,1.959721804E0,7.159923553E0
2.681542834E1,8.979067206E-1,2.137388945E0,6.657430649E0
2.683554057E1,9.505487680E-1,2.009970903E0,6.220142365E0
2.685565281E1,3.607180119E-1,2.038086653E0,5.667400360E0
2.687576500E1,5.982056609E-4,2.026720762E0,5.231308460E0
2.689587724E1,9.212367237E-2,1.791625977E0,5.877370834E0
2.691598948E1,6.041877344E-2,1.539781332E0,7.258627415E0
2.693610172E1,5.389832854E-1,9.469595551E-1,9.958928108E0
2.695621396E1,-2.362912297E-1,8.799605370E-1,1.285364532E1
2.697632620E1,-2.164906263E0,2.197807550E0,1.230568886E1
2.699643839E1,-2.748156786E0,3.495913982E0,1.003190899E1
2.701655063E1,2.656033039E-1,3.416352510E0,1.104227829E1
2.703666287E1,2.958725214E0,2.981456995E0,1.436231995E1
2.705677511E1,4.520041943E0,2.047657967E0,1.726122475E1
2.707688735E1,3.378067255E0,1.905883193E0,1.656012726E1
2.709699953E1,1.400399446E0,2.297109842E0,1.300259781E1
2.711711177E1,5.724828243E-1,2.721237659E0,9.965508461E0
2.713722401E1,6.131607890E-1,3.078964472E0,7.948956966E0
2.715733625E1,1.302293777E0,3.157927752E0,7.165307522E0
2.717744849E1,1.476371527E0,3.237488985E0,7.349554539E0
2.719756073E1,1.058824062E0,3.186641455E0,7.461419106E0
2.721767292E1,4.905286431E-1,3.044866800E0,6.999604225E0
2.723778516E1,1.423729509E-1,2.856431961E0,6.847660065E0
2.725789740E1,1.585244983E-1,2.728415966E0,7.523632526E0
2.727800958E1,2.787638307E-1,2.626122952E0,8.565108299E0
2.729812182E1,2.141576260E-1,2.560918331E0,8.578269005E0
2.731823406E1,2.775674164E-1,2.538186550E0,7.765307903E0
2.733834630E1,5.449653864E-1,2.546561480E0,7.339983463E0
2.735845849E1,7.022934556E-1,2.558525562E0,7.304689407E0
2.737857073E1,8.488538265E-1,2.456232548E0,7.456035137E0
2.739868297E1,9.146564603E-1,2.272583246E0,7.584051132E0
2.741879521E1,8.231309652E-1,2.119442701E0,7.265207767E0
2.743890740E1,7.405785918E-1,2.032702923E0,6.836294174E0
2.745901964E1,6.795616150E-1,2.167897224E0,6.932007313E0
2.747913188E1,3.499503136E-1,2.221137524E0,7.898109436E0
2.749924412E1,-3.481557071E-1,2.170888424E0,1.058166027E1
2.751935630E1,-3.646063566E0,4.496113777E0,1.266999626E1
2.753946854E1,-7.142575741E0,5.855237007E0,1.287338543E1
2.755958078E1,-1.231107235E0,2.047059774E0,1.778166389E1
2.757969302E1,3.814159393E0,1.589432478E0,2.402992058E1
2.759980521E1,3.813561201E0,2.635694027E0,1.955594063E1
2.761991745E1,1.687538147E0,3.531806231E0,1.170987606E1
2.764002969E1,7.166503668E-1,4.018745422E0,9.591629982E0
2.766014188E1,2.823530734E-1,3.876971006E0,1.020359421E1
2.768025412E1,-3.577269912E-1,2.645863533E0,1.054158020E1
2.770036636E1,-1.150947690E0,1.588834286E0,1.011147022E1
2.772047854E1,-1.510469317E0,1.431506157E0,9.217152596E0
2.774059078E1,-5.742774606E-1,1.688136339E0,7.980063438E0
2.776070302E1,8.189435601E-1,2.048854351E0,6.812964439E0
2.778081521E1,1.745564103E0,2.128415823E0,6.045466423E0
2.780092745E1,1.587039590E0,1.950150490E0,5.353342533E0
2.782103969E1,6.484549642E-1,1.602592945E0,5.383252621E0
2.784115188E1,-1.914258115E-2,1.283151150E0,6.603592396E0
2.786126412E1,-3.667000830E-1,1.722832322E0,7.461419106E0
2.788137636E1,-1.501496136E-1,2.487937450E0,7.241877556E0
2.790148854E1,1.683350682E0,2.402393818E0,9.270393372E0
2.792160078E1,4.278964996E0,1.892124534E0,1.382154179E1
2.794171302E1,4.083351612E0,1.406979680E0,1.626162338E1
2.796182521E1,1.742573142E0,1.062413216E0,1.451426411E1
2.798193745E1,4.731806815E-1,1.490728498E0,1.172901821E1
2.800204964E1,9.996016622E-1,2.475973129E0,1.021854877E1
2.802216188E1,1.836491346E0,2.824128866E0,9.302696228E0
2.804227412E1,2.033899307E0,2.498106956E0,9.234500885E0
2.806238630E1,1.472184181E0,2.364706993E0,9.128618240E0
2.808249854E1,1.199402332E0,2.207378864E0,8.721240044E0
2.810261078E1,1.036092162E0,1.974078655E0,8.517850876E0
2.812272297E1,7.950153351E-1,1.811366796E0,8.507680893E0
2.814283521E1,6.837490797E-1,1.688734531E0,8.306085587E0
2.816294745E1,5.377869010E-1,1.721037745E0,7.641479015E0
2.818305964E1,4.402793646E-1,1.774876237E0,6.853044033E0
2.820317188E1,4.570291340E-1,1.819741607E0,6.233303070E0
2.822328406E1,5.449653864E-1,1.901097536E0,5.737390518E0
2.824339630E1,6.346961856E-1,2.024926186E0,5.625525951E0
2.826350849E1,4.971089065E-1,2.124826431E0,5.659025669E0
2.828362073E1,4.414757788E-1,1.931606054E0,6.233901024E0
2.830373297E1,6.753742099E-1,1.677966833E0,7.507481098E0
2.832384516E1,4.510470629E-1,1.677966833E0,8.697910309E0
2.834395740E1,5.012963414E-1,1.421336651E0,9.507881165E0
2.836406959E1,8.452646136E-1,1.240080357E0,9.805189133E0
2.838418182E1,1.159920812E0,1.246062398E0,8.945567131E0
2.840429401E1,1.292722464E0,1.347757339E0,7.430312634E0
2.842440625E1,1.316650629E0,1.473978758E0,6.244668961E0
2.844451849E1,1.231705427E0,1.487139225E0,6.160321712E0
2.846463068E1,7.256234884E-1,1.408774376E0,7.403991699E0
2.848474292E1,3.188436031E-1,1.543370605E0,1.017428207E1
2.850485511E1,-3.499503136E-1,2.397010088E0,1.309053421E1
2.852496734E1,-2.129014015E0,4.348356724E0,1.173440266E1
2.854507953E1,-1.381855011E-1,3.961916208E0,1.197667599E1
2.856519177E1,3.688536167E0,2.024327993E0,1.709492302E1
2.858530396E1,2.873780012E0,2.040479422E0,2.034796524E1
2.860541620E1,1.028913707E-1,2.486142635E0,1.671566010E1
2.862552839E1,-7.238288224E-2,2.719442844E0,1.248993587E1
2.864564063E1,1.838884234E0,2.992822886E0,1.119242764E1
2.866575287E1,2.053640127E0,3.285345554E0,9.915857315E0
2.868586505E1,7.118647099E-1,3.220141172E0,7.805985451E0
2.870597729E1,1.812563092E-1,2.965305567E0,6.574280262E0
2.872608948E1,6.640082598E-1,2.898306370E0,7.112067223E0
2.874620172E1,1.234696507E0,2.619542599E0,8.488538742E0
2.876631391E1,1.573879123E0,2.057827473E0,9.431310654E0
2.878642615E1,1.121037364E0,1.726421595E0,9.362516403E0
2.880653834E1,3.846462369E-1,1.454836130E0,8.291130066E0
2.882665057E1,-1.878365725E-1,1.112662554E0,7.524230957E0
2.884676276E1,-4.372883439E-1,5.497509837E-1,7.646862984E0
2.886687500E1,2.051845491E-1,3.320041299E-1,8.486145973E0
2.888698719E1,1.371685624E0,1.024726272E0,9.075976372E0
2.890709943E1,2.258226395E0,1.923829436E0,1.036989498E1
2.892721162E1,1.813161373E0,3.161516905E0,1.026401234E1
2.894732380E1,1.692921966E-1,4.919643402E0,7.602595806E0
2.896743604E1,2.291127741E-1,5.690730572E0,6.178866386E0
2.898754823E1,2.126621008E0,3.976871252E0,9.339784622E0
2.900766047E1,2.580659151E0,1.438684583E0,1.581237030E1
2.902777266E1,1.271187067E0,3.002992272E-1,1.977428627E1
2.904788490E1,4.307080805E-2,3.726821244E-1,1.753101540E1
2.906799709E1,5.240281820E-1,1.077368379E0,1.181575775E1
2.908810932E1,1.945963025E0,2.284547329E0,6.809374809E0
2.910822151E1,1.990230203E0,3.014358282E0,5.111667156E0
2.912833375E1,7.304090858E-1,2.515454769E0,7.725826263E0
2.914844594E1,-4.719842672E-1,2.014158487E0,9.980463028E0
2.916855818E1,-9.960124493E-1,1.852044702E0,9.369096756E0
2.918867037E1,-4.803591371E-1,1.684547186E0,7.179066181E0
2.920878255E1,2.039881349E-1,1.877169371E0,5.449055195E0
2.922889479E1,7.351947427E-1,2.149951220E0,4.353142738E0
2.924900698E1,1.121635556E0,2.278565407E0,3.565903902E0
2.926911922E1,1.413560033E0,2.118844509E0,3.301496983E0
2.928923141E1,1.668993831E0,1.718046665E0,4.415954113E0
2.930934365E1,1.731805444E0,1.470987678E0,6.290132523E0
2.932945584E1,1.429711580E0,1.596610904E0,8.336593628E0
2.934956802E1,9.990034699E-1,1.998006940E0,1.035494041E1
2.936968026E1,-2.147558331E-1,3.429512978E0,1.106979561E1
2.938979245E1,-2.493321180E0,6.440880299E0,8.943174362E0
2.940990469E1,-1.899901152E0,6.774679184E0,8.041678429E0
2.943001688E1,2.215753794E0,3.909274101E0,1.202991581E1
2.945012906E1,4.012763500E0,2.851048231E0,1.859342766E1
2.947024130E1,3.052045345E0,3.029313564E0,2.076730728E1
2.949035349E1,2.337189436E0,3.123231649E0,1.699502373E1
2.951046573E1,2.215753794E0,3.178266764E0,1.223629665E1
2.953057792E1,1.901097536E0,2.971287489E0,9.602995872E0
2.955069016E1,1.114457130E0,2.617748022E0,8.327621460E0
2.957080234E1,2.829512656E-1,2.421536446E0,7.738986492E0
2.959091453E1,-3.774677813E-1,2.251047850E0,7.413562775E0
2.961102677E1,-9.553344250E-1,2.118246317E0,7.158128738E0
2.963113896E1,-1.383649707E0,1.962114573E0,6.735795975E0
2.965125115E1,-1.369890928E0,1.801197290E0,6.288337708E0
2.967136339E1,-8.446664214E-1,1.700698733E0,6.172286034E0
2.969147557E1,2.063809484E-1,1.594218135E0,6.362515450E0
2.971158776E1,1.148554921E0,1.492523074E0,6.562315941E0
2.973170000E1,1.916650891E0,1.432104349E0,6.679564476E0
2.975181219E1,2.251047850E0,1.722832322E0,6.219544411E0
2.977192443E1,1.940579176E0,1.947757602E0,7.193423271E0
2.979203662E1,1.675574064E0,1.470987678E0,1.131864929E1
2.981214880E1,7.776673883E-2,2.693121910E0,1.475055504E1
2.983226099E1,-7.363911867E-1,3.851846218E0,1.298046494E1
2.985237323E1,1.872383654E-1,2.901895761E0,1.246720409E1
2.987248542E1,6.346961856E-1,1.929811478E0,1.453400517E1
2.989259766E1,1.683948994E0,1.751546144E0,1.636929893E1
2.991270985E1,2.322234392E0,1.822732687E0,1.612582970E1
2.993282203E1,2.336591244E0,1.467996716E0,1.465603828E1
2.995293427E1,1.179063320E0,1.439282775E0,1.233500099E1
2.997304646E1,-6.520441920E-2,1.958525300E0,9.763314247E0
2.999315865E1,-2.685943544E-1,2.277369022E0,7.762316704E0
3.001327089E1,-9.810572863E-2,2.229512453E0,6.455835342E0
3.003338307E1,-4.486542568E-2,1.926222205E0,5.754738331E0
3.005349526E1,-6.580262631E-2,1.562513232E0,5.332405090E0
3.007360750E1,-6.041877344E-2,1.288534999E0,4.695914268E0
3.009371969E1,1.615155302E-2,9.565308690E-1,4.062414646E0
3.011383188E1,1.226321608E-1,6.807580590E-1,4.531407833E0
3.013394412E1,-9.272187948E-2,6.448656917E-1,5.402993679E0
3.015405630E1,-4.683950245E-1,9.667003751E-1,6.020341873E0
3.017416849E1,-1.445264935E0,2.148156643E0,5.970690727E0
3.019428068E1,-3.505485058E0,4.061218262E0,7.239484787E0
3.021439292E1,-4.840680122E0,5.259424210E0,1.321974659E1
3.023450511E1,-3.878167391E0,6.170491219E0,1.866222191E1
3.025461729E1,-1.692323804E0,6.595815659E0,1.585723591E1
3.027472953E1,9.559326172E-1,4.951348305E0,1.390229988E1
3.029484172E1,2.266003132E0,4.074976921E0,1.619821358E1
3.031495391E1,1.630110383E0,4.133601189E0,1.501017666E1
3.033506615E1,1.119840980E0,3.433102369E0,1.167278671E1
3.035517834E1,1.236491084E0,2.520240545E0,1.138684464E1
3.037529052E1,8.991031051E-1,1.902892232E0,1.244387436E1
3.039540271E1,4.031906128E-1,1.341177106E0,1.207597733E1
3.041551495E1,1.920240223E-1,9.834501147E-1,1.034656525E1
3.043562714E1,3.044866920E-1,1.092921734E0,8.316853523E0
3.045573932E1,5.958128572E-1,1.544566989E0,6.619743824E0
3.047585156E1,8.691928387E-1,1.902294040E0,5.517848969E0
3.049596375E1,9.810572863E-1,2.106880426E0,4.926223755E0
3.051607594E1,7.980063558E-1,2.313261271E0,4.737788677E0
3.053618813E1,5.497509837E-1,2.496910334E0,5.051248550E0
3.055630037E1,4.546363056E-1,2.599801779E0,6.004788399E0
3.057641255E1,3.373879790E-1,2.717648268E0,6.733402729E0
3.059652474E1,1.525424421E-1,2.886342287E0,7.288537979E0
3.061663693E1,-8.614161611E-2,2.947359324E0,8.245666504E0
3.063674917E1,-1.914258152E-1,2.938386202E0,9.801001549E0
3.065686136E1,1.040877849E-1,2.660220623E0,1.193240833E1
3.067697354E1,6.155536175E-1,2.394019127E0,1.425045490E1
3.069708573E1,6.424728632E-1,3.065804005E0,1.455314732E1
3.071719797E1,6.281159520E-1,3.838685751E0,1.252881908E1
3.073731016E1,1.065404296E0,3.960121393E0,1.205025482E1
3.075742235E1,1.971087694E0,2.805584431E0,1.446222019E1
3.077753458E1,2.854637384E0,1.637887120E0,1.755554199E1
3.079764677E1,2.233700037E0,1.746760488E0,1.746940041E1
3.081775896E1,1.764706731E0,2.079362869E0,1.342672634E1
3.083787115E1,1.654636860E0,2.459223509E0,9.724431038E0
3.085798334E1,1.633699656E0,2.778665304E0,7.740781307E0
3.087809557E1,1.548156261E0,2.825325251E0,6.826124668E0
3.089820776E1,1.234696507E0,2.620738983E0,6.295516491E0
3.091831995E1,7.064808607E-1,2.252842426E0,6.361319065E0
3.093843214E1,2.165504545E-1,1.936391711E0,6.735197544E0
3.095854438E1,-2.392822690E-2,1.780858278E0,7.059424877E0
3.097865656E1,-1.238285750E-1,1.951346874E0,6.838088989E0
3.099876875E1,-3.529413417E-2,2.313261271E0,6.875775814E0
3.101888094E1,3.260220885E-1,2.571087837E0,7.696514130E0
3.103899318E1,6.215356588E-1,2.656033039E0,9.041280746E0
3.105910537E1,9.427721500E-1,2.654836655E0,1.043569756E1
3.107921755E1,1.457827210E0,2.295315027E0,1.150887871E1
3.109932974E1,1.896910191E0,1.699502230E0,1.254138184E1
3.111944193E1,1.430907965E0,1.735394597E0,1.299841118E1
3.113955417E1,3.930211067E-1,2.416152716E0,1.123071289E1
3.115966636E1,4.504488707E-1,2.459223509E0,1.034297562E1
3.117977854E1,1.780260086E0,1.810768485E0,1.160818100E1
3.119989073E1,2.908475876E0,1.337587833E0,1.214297676E1
3.122000292E1,2.187039852E0,1.287338614E0,1.057328510E1
3.124011516E1,5.359922647E-1,1.524826288E0,8.792427063E0
3.126022735E1,-7.022934556E-1,2.009970903E0,7.817351341E0
3.128033953E1,-1.401595831E0,2.271386862E0,8.286943436E0
3.130045172E1,-9.104689956E-1,1.896910191E0,1.011924744E1
3.132056391E1,3.924229145E-1,1.519442320E0,1.140957642E1
3.134067615E1,1.847259045E0,1.281954765E0,1.244865990E1
3.136078834E1,2.245065928E0,1.143769264E0,1.297208977E1
3.138090052E1,1.165902853E0,1.135992527E0,1.078923702E1
3.140101271E1,2.027917206E-1,1.405185103E0,8.136195183E0
3.142112490E1,-1.136590727E-2,1.767697692E0,6.724429607E0
3.144123709E1,4.546362907E-2,2.060818434E0,6.049654007E0
3.146134932E1,5.503492057E-2,2.132004976E0,5.697310925E0
3.148146151E1,-9.092725813E-2,2.018345833E0,5.550152302E0
3.150157370E1,-1.477568001E-1,1.738983870E0,5.886941910E0
3.152168589E1,-1.316052489E-2,1.571486235E0,6.345765591E0
3.154179807E1,1.333998591E-1,1.750947952E0,6.379863262E0
3.156191026E1,3.804588020E-1,1.903490424E0,6.301498413E0
3.158202250E1,7.704889178E-1,1.709671736E0,6.887740135E0
3.160213469E1,9.619147182E-1,1.481755376E0,7.997411251E0
3.162224688E1,7.429714203E-1,1.414756417E0,8.055437088E0
3.164235906E1,6.658028960E-1,1.377667665E0,6.568298340E0
3.166247125E1,1.054038405E0,1.456630826E0,5.535196781E0
3.168258344E1,1.570888042E0,1.701296926E0,5.622535229E0
3.170269568E1,1.958525300E0,1.871187329E0,6.721438885E0
3.172280787E1,2.070987940E0,1.681556106E0,8.974879265E0
3.174292005E1,1.399801254E0,2.417349100E0,1.204367447E1
3.176303224E1,-8.147560954E-1,5.263611794E0,1.228295708E1
3.178314443E1,-2.967100143E-1,6.683153629E0,9.129815102E0
3.180325662E1,4.403391838E0,4.703691006E0,9.270991325E0
3.182336880E1,5.745765209E0,3.921238184E0,1.407877064E1
3.184348104E1,2.442473650E0,3.726821184E0,1.771945000E1
3.186359323E1,-6.245267391E-1,2.597409010E0,1.776551247E1
3.188370542E1,-1.034895778E0,2.100300074E0,1.425404453E1
3.190381761E1,4.971089065E-1,1.904088616E0,1.065822983E1
3.192392979E1,2.980858803E0,1.420140266E0,9.609575272E0
3.194404198E1,5.705087185E0,1.240678549E0,1.076830006E1
3.196415417E1,4.923830986E0,1.646860242E0,1.026221848E1
3.198426636E1,1.963310957E0,1.815554142E0,8.695517540E0
3.200437854E1,1.076770201E-1,1.618146300E0,7.524230957E0
3.202449078E1,-6.903293133E-1,1.829312921E0,6.897909641E0
3.204460297E1,-4.689932466E-1,2.023729801E0,6.704689026E0
3.206471516E1,1.896311939E-1,1.890329838E0,6.842276573E0
3.208482734E1,7.561319470E-1,1.733600020E0,7.174878597E0
3.210493953E1,9.361918569E-1,1.530808330E0,7.339983463E0
3.212505172E1,8.195417523E-1,1.085743308E0,7.281359196E0
3.214516391E1,7.411768436E-1,6.382854581E-1,7.690532207E0
3.216527610E1,7.866404653E-1,6.173482537E-1,8.970691681E0
3.218538834E1,7.160521746E-1,1.458425403E0,1.126660538E1
3.220550052E1,-6.161518097E-1,3.070589542E0,1.152323532E1
3.222561271E1,-3.886542082E0,6.318248272E0,8.229515076E0
3.224572490E1,-2.301297188E0,6.290730953E0,7.454240799E0
3.226583708E1,5.751149178E0,2.616551638E0,1.428754425E1
3.228594927E1,8.154739380E0,1.874178290E0,2.052383804E1
3.230606146E1,3.012563705E0,2.557329178E0,1.666541100E1
3.232617365E1,-1.527817249E0,3.108874798E0,1.051884842E1
3.234628584E1,-5.617151260E-1,3.530011654E0,1.060798073E1
3.236639802E1,9.505487680E-1,4.140779495E0,1.035852909E1
3.238651026E1,2.208575249E0,3.131008387E0,1.496172142E1
3.240662245E1,3.954139352E-1,2.775076151E0,1.339861012E1
3.242673464E1,-3.032902777E-1,1.828116536E0,8.864211082E0
3.244684682E1,-2.871387079E-2,2.407179594E0,7.338188648E0
3.246695901E1,6.849454641E-1,2.858226538E0,7.468597889E0
3.248707120E1,8.889335990E-1,2.358724833E0,7.026523590E0
3.250718339E1,1.006181955E0,1.800599098E0,6.460621357E0
3.252729557E1,7.537391186E-1,2.036890268E0,6.322435856E0
3.254740776E1,4.372883439E-1,2.329412937E0,5.114658356E0
3.256751995E1,-1.130608693E-1,2.428714991E0,3.566502094E0
3.258763214E1,-1.663011760E-1,2.470589399E0,3.301496983E0
3.260774432E1,2.685943544E-1,2.326421738E0,4.327419758E0
3.262785651E1,2.416750938E-1,1.720439434E0,5.093721390E0
3.264796870E1,2.171486616E-1,1.113260746E0,6.139982700E0
3.266808094E1,6.454638839E-1,9.182456732E-1,7.863413334E0
3.268819313E1,1.170688510E0,1.172483087E0,8.635098457E0
3.270830531E1,1.243071318E0,2.749951363E0,8.769096375E0
3.272841750E1,1.455434322E0,5.632106304E0,1.017846966E1
3.274852969E1,2.568695068E0,8.554341316E0,1.131565857E1
3.276864188E1,4.020540237E0,8.115856171E0,1.501855087E1
3.278875406E1,2.496910334E0,5.404190063E0,2.002972031E1
3.280886625E1,-3.487538993E-1,4.572684288E0,1.757288933E1
3.282897844E1,9.415757060E-1,5.963512421E0,1.511486244E1
3.284909063E1,2.958127022E0,6.453442574E0,1.421097374E1
3.286920281E1,3.598206997E0,5.855835438E0,1.302353573E1
3.288931500E1,3.172882795E0,5.531009674E0,1.199522018E1
3.290942719E1,2.401197433E0,5.249852657E0,1.096451187E1
3.292953938E1,1.590628862E0,4.796412945E0,1.030289650E1
3.294965156E1,7.860422134E-1,4.246063709E0,9.640084267E0
3.296976375E1,2.841476798E-1,3.862015724E0,8.749954224E0
3.298987594E1,1.447657645E-1,3.226721287E0,8.438887596E0
3.300998813E1,-2.189432681E-1,2.662015200E0,8.566305161E0
3.303010031E1,-2.027917206E-1,2.358724833E0,8.228319168E0
3.305021250E1,6.580262445E-3,2.442473650E0,7.502695560E0
3.307032469E1,-1.471585929E-1,2.617748022E0,6.964310169E0
3.309043688E1,-3.577269912E-1,2.700898647E0,6.841079712E0
3.311054906E1,3.314059377E-1,2.581257343E0,7.552346706E0
3.313066125E1,1.528415442E0,2.523829699E0,8.749954224E0
3.315077344E1,1.589432478E0,2.483151674E0,9.199805260E0
3.317088563E1,9.511470199E-1,2.579462767E0,7.389634609E0
3.319099781E1,-2.931207791E-2,2.737987280E0,9.649655342E0
3.321111000E1,7.280163169E-1,2.884547710E0,1.008215809E1
3.323122219E1,6.933203340E-1,3.172882795E0,1.075872898E1
3.325133438E1,8.560323119E-1,3.208775282E0,1.030528927E1
3.327144656E1,1.475175142E0,2.919841766E0,9.391230583E0
3.330630631E1,6.634100676E-1,2.715853691E0,8.106285095E0
3.332641834E1,1.227517962E0,2.599801779E0,8.176873207E0
3.334653042E1,1.521237016E0,2.575873613E0,8.612964630E0
3.336664246E1,7.136593461E-1,2.900100946E0,7.631309509E0
3.338675449E1,4.677968323E-1,2.886342287E0,6.969096184E0
3.340686652E1,5.300102234E-1,2.924029350E0,7.068397999E0
3.342697860E1,7.597211599E-1,2.890529871E0,7.423133850E0
3.344709063E1,9.092726111E-1,2.691925526E0,7.651648521E0
3.346720266E1,8.159525394E-1,2.574079037E0,7.962715626E0
3.348731469E1,4.654040039E-1,2.643470764E0,8.042875290E0
3.350742678E1,7.537391037E-2,2.882154942E0,7.603193760E0
3.352753881E1,-1.633101404E-1,3.136392355E0,7.401000500E0
3.354765084E1,-3.589233849E-3,3.220739365E0,8.340781212E0
3.356776287E1,3.116651475E-1,2.832503796E0,1.030110168E1
3.358787490E1,2.039881349E-1,2.531606436E0,1.219262791E1
3.360798699E1,-2.638086975E-1,2.682354212E0,1.271725368E1
3.362809902E1,-1.280160099E-1,2.846860647E0,1.229073334E1
3.364821105E1,2.584248483E-1,3.205185890E0,1.143111229E1
3.366832308E1,4.043870270E-1,3.458825111E0,1.082333469E1
3.368843511E1,5.282155871E-1,3.266801119E0,1.088913727E1
3.370854714E1,2.793620527E-1,3.123231649E0,1.165244770E1
3.372865922E1,-2.775674164E-1,3.199203968E0,1.148973656E1
3.374877126E1,-6.652047038E-1,3.596412420E0,1.019820976E1
3.376888329E1,-7.938188910E-1,4.012763500E0,9.098110199E0
3.378899532E1,-2.129612118E-1,3.776472330E0,9.257830620E0
3.380910735E1,3.535395563E-1,2.961716175E0,1.073659515E1
3.382921938E1,6.580262445E-3,2.188236237E0,1.225304699E1
3.384933141E1,-7.746763229E-1,1.847857237E0,1.258265781E1
3.386944350E1,-1.427318692E0,1.976471543E0,1.133001518E1
3.388955553E1,-1.436890006E0,2.315055847E0,9.820742607E0
3.390966756E1,-1.063011408E0,2.461018085E0,9.061020851E0
3.392977959E1,-6.209374666E-1,2.422134638E0,8.472386360E0
3.394989162E1,-5.156532526E-1,2.531008244E0,7.986643791E0
3.397000365E1,-7.064808607E-1,2.580060959E0,7.790432453E0
3.399011568E1,-7.100701332E-1,2.542374134E0,8.126624107E0
3.401022772E1,-5.617151260E-1,2.483749866E0,8.701499939E0
3.403033975E1,-2.614158690E-1,2.285743713E0,9.223732948E0
3.405045178E1,-2.524427772E-1,2.196012974E0,9.349356651E0
3.407056381E1,-3.236292601E-1,2.096710920E0,9.257232666E0
3.409067584E1,-2.739782035E-1,1.950748682E0,9.376275063E0
3.411078787E1,-4.169493318E-1,1.872383714E0,9.561718941E0
3.413089990E1,-5.802595019E-1,1.868196249E0,9.308678627E0
3.415101193E1,-5.240281820E-1,1.828714728E0,9.024530411E0
3.417112397E1,-4.636093974E-1,1.739582062E0,9.251849174E0
3.419123600E1,-3.822534084E-1,1.619342685E0,9.631709099E0
3.421134803E1,-3.326023519E-1,1.552343726E0,9.757930756E0
3.423146006E1,-3.852444589E-1,1.599003673E0,9.514460564E0
3.425157209E1,-3.888336718E-1,1.710868239E0,8.898907661E0
3.427168412E1,-1.585244983E-1,1.722832322E0,8.233702660E0
3.429179615E1,1.890329868E-1,1.666002750E0,8.032107353E0
3.431190818E1,4.061816335E-1,1.660020709E0,8.468797684E0
3.433202022E1,2.207378894E-1,1.713859200E0,8.563912392E0
3.435213225E1,-5.264209956E-2,1.756929994E0,7.979465485E0
3.437224428E1,-1.094716340E-1,1.882553220E0,7.339385033E0
3.439235631E1,1.453639716E-1,1.962114573E0,7.451848030E0
3.441246834E1,5.521438122E-1,1.809572101E0,8.440681458E0
3.443258037E1,4.360919297E-1,1.683948994E0,9.778867722E0
3.445269240E1,-3.170489892E-2,1.823929071E0,1.049491978E1
3.447280443E1,-3.326023519E-1,2.260020971E0,1.008694363E1
3.449291647E1,2.572284266E-2,2.699103832E0,9.620942116E0
3.451302850E1,1.630110383E0,2.588435888E0,1.079521942E1
3.453314048E1,3.115455151E0,2.280359983E0,1.283510113E1
3.455325251E1,2.858824968E0,1.865803480E0,1.414337635E1
3.457336454E1,1.382453322E0,1.853839397E0,1.296670628E1
3.459347657E1,2.883351147E-1,2.308475733E0,1.080120182E1
3.461358860E1,7.357929647E-2,2.864806890E0,9.772886276E0
3.463370063E1,3.457628787E-1,2.901895761E0,9.808777809E0
3.465381266E1,1.338784218E0,2.210968018E0,1.076351452E1
3.467392469E1,1.951346874E0,1.786242127E0,1.176371479E1
3.469403667E1,1.592423439E0,1.506880045E0,1.262154102E1
3.471414871E1,7.597211599E-1,1.274776220E0,1.332024574E1
3.473426074E1,8.913264424E-2,1.261017561E0,1.327717495E1
3.475437277E1,-7.357929647E-2,1.402194023E0,1.243310642E1
3.477448480E1,1.866401732E-1,1.654038668E0,1.105902767E1
3.479459683E1,4.749752879E-1,1.948355794E0,9.397810936E0
3.481470881E1,7.537391186E-1,2.129612207E0,7.993822098E0
3.483482084E1,8.333004713E-1,2.293520451E0,7.318448067E0
3.485493287E1,6.544370055E-1,2.380260229E0,7.118049145E0
3.487504490E1,4.277170599E-1,2.286940336E0,7.302296638E0
3.489515688E1,1.998006850E-1,2.169093609E0,7.517650604E0
3.491526891E1,1.064806059E-1,2.091326952E0,7.721040249E0
3.493538094E1,2.536391914E-1,2.044068813E0,7.874181271E0
3.495549298E1,4.157529473E-1,2.058425665E0,7.696514130E0
3.497560496E1,6.155536175E-1,1.883749604E0,7.767700672E0
3.499571699E1,7.351947427E-1,1.622931957E0,8.400003433E0
3.501582902E1,5.611169338E-1,1.452443361E0,8.937790871E0
3.503594105E1,3.182454109E-1,1.497308731E0,8.903693199E0
3.505605303E1,2.291127741E-1,1.639083505E0,8.573483467E0
3.507616506E1,4.127618968E-1,1.692323804E0,8.493324280E0
3.509627709E1,6.071787477E-1,1.737787485E0,8.541778564E0
3.511638912E1,7.501499057E-1,1.617548108E0,8.813961983E0
3.513650110E1,5.611169338E-1,1.392622828E0,9.367900848E0
3.515661313E1,4.001995921E-1,1.338784218E0,9.774680138E0
3.517672516E1,6.699903309E-2,1.691725612E0,9.187242508E0
3.519683714E1,6.699903309E-2,1.905883193E0,8.614161491E0
3.521694917E1,5.706881881E-1,1.866401672E0,8.761918068E0
3.523706120E1,7.800601721E-1,1.984248161E0,9.827920914E0
3.525717318E1,5.676971674E-1,2.130210400E0,1.113081264E1
3.527728522E1,2.464607358E-1,2.103291035E0,1.163450146E1
3.529739719E1,4.725824669E-2,2.257628202E0,1.154477119E1
3.531750922E1,-4.540380836E-1,3.089732170E0,1.078744221E1
3.533762126E1,-5.449653864E-1,3.580260992E0,1.018505001E1
3.535773329E1,7.920243144E-1,2.729612350E0,1.181037426E1
3.537784527E1,1.077966571E0,2.330609322E0,1.387956810E1
3.539795730E1,-4.959124923E-1,2.644068956E0,1.327597809E1
3.541806928E1,-1.451246977E0,2.836092949E0,1.119601727E1
3.543818131E1,-1.253240824E0,2.909074068E0,1.055892849E1
3.545829334E1,-2.267199457E-1,2.704487801E0,1.145743275E1
3.547840532E1,-4.785645287E-3,2.373081923E0,1.217827129E1
3.549851735E1,-5.599204898E-1,1.993819475E0,1.202094269E1
3.551862933E1,-9.361918569E-1,1.849651933E0,1.141496086E1
3.553874136E1,-8.488538265E-1,1.874776483E0,1.042313576E1
3.555885339E1,-4.965106845E-1,1.898704767E0,9.488738060E0
3.557896537E1,-3.080759048E-1,1.919641972E0,8.587242126E0
3.559907740E1,-3.343969584E-1,1.922034740E0,7.838887215E0
3.561918938E1,-3.409772217E-1,1.825125456E0,7.294519901E0
3.563930141E1,-5.306084156E-1,1.520638824E0,7.089933395E0
3.565941339E1,-1.126421213E0,1.085145116E0,7.393223763E0
3.567952542E1,-1.613360643E0,1.018744230E0,8.151748657E0
3.569963740E1,-1.503290772E0,1.331007600E0,8.536395073E0
3.571974943E1,-5.282155871E-1,1.543370605E0,8.381459236E0
3.573986141E1,6.430711150E-1,1.768295884E0,7.972286701E0
3.575997344E1,1.284347534E0,1.956730723E0,7.643871784E0
3.578008548E1,1.164108157E0,1.831107497E0,7.751548767E0
3.580019746E1,3.433700502E-1,1.494317770E0,8.550751686E0
3.582030943E1,-1.926222295E-1,1.249651670E0,9.326624870E0
3.584042147E1,-2.590230405E-1,1.424327731E0,9.013164520E0
3.586053350E1,-9.690931439E-2,1.644467354E0,7.765905857E0
3.588064548E1,2.823530734E-1,1.781456470E0,6.960123062E0
3.590075746E1,1.351944804E-1,2.084746838E0,6.969096184E0
3.592086949E1,-3.146561682E-1,2.174477577E0,7.564908981E0
3.594098147E1,1.136590727E-2,2.096112728E0,8.328219414E0
3.596109350E1,7.304090858E-1,1.999801517E0,9.997811317E0
3.598120548E1,1.655833244E0,1.954936147E0,1.177866936E1
3.600131751E1,1.374078393E0,2.024327993E0,1.214716434E1
3.602142949E1,-2.602194548E-1,2.580659151E0,1.085982513E1
3.604154152E1,-2.183450609E-1,2.324028969E0,1.079222870E1
3.606165350E1,2.441875458E0,8.668000102E-1,1.450887966E1
3.608176553E1,3.444468260E0,-8.075776696E-2,1.935255051E1
3.610187751E1,1.091127157E0,-3.469592705E-2,1.901037788E1
3.612198954E1,-4.342973232E-1,9.308080077E-1,1.432463264E1
3.614210152E1,3.290131316E-2,2.125424623E0,1.085803127E1
3.616221350E1,1.328016520E0,2.441875458E0,9.946963310E0
3.618232553E1,1.980060697E0,2.222932339E0,1.110449123E1
3.620243751E1,1.462014675E0,1.724626899E0,1.227458191E1
3.622254954E1,6.233302951E-1,1.360319614E0,1.227039433E1
3.624266152E1,1.046859920E-1,1.354337573E0,1.115593719E1
3.626277350E1,1.333998591E-1,1.554736495E0,9.775876999E0
3.628288553E1,2.895315289E-1,1.713859200E0,8.297112465E0
3.630299751E1,3.553341627E-1,1.782652855E0,7.130611420E0
3.632310954E1,3.182454109E-1,1.861616015E0,6.602993965E0
3.634322152E1,-1.555334684E-2,1.895713687E0,6.472585201E0
3.636333350E1,-6.460621208E-2,1.772483349E0,6.739385128E0
3.638344553E1,1.339980662E-1,1.659422517E0,7.202994347E0
3.640355751E1,2.273181528E-1,1.549352646E0,7.492526054E0
3.642366954E1,1.298106313E-1,1.537388563E0,7.473383427E0
3.644378152E1,-8.973085135E-2,1.579861164E0,7.377072334E0
3.646389350E1,-9.092725813E-2,1.479960799E0,7.506882668E0
3.648400553E1,1.465603858E-1,1.381256819E0,7.774878979E0
3.650411751E1,3.900300860E-1,1.398604870E0,7.923832417E0
3.652422949E1,4.570291340E-1,1.514656782E0,7.744370461E0
3.654434152E1,2.123630047E-1,1.738983870E0,7.325626373E0
3.656445350E1,1.698904037E-1,1.932204247E0,7.278368473E0
3.658456548E1,4.289134443E-1,2.077568293E0,7.694719315E0
3.660467751E1,7.812566161E-1,2.179263115E0,8.203792572E0
3.662478949E1,8.931210637E-1,2.379063845E0,8.484351158E0
3.664490152E1,9.104689956E-1,2.531606436E0,9.195018768E0
3.666501350E1,1.297508121E0,2.537588358E0,1.077248764E1
3.668512548E1,1.441077471E0,2.611765862E0,1.238106251E1
3.670523751E1,1.178465128E0,2.459223509E0,1.275135231E1
3.672534949E1,6.340979934E-1,2.529811859E0,1.181336498E1
3.674546147E1,-3.750749528E-1,3.389433384E0,1.046919727E1
3.676557350E1,-9.523434043E-1,3.946362734E0,9.658628464E0
3.678568548E1,2.099701911E-1,3.269792080E0,1.164467144E1
3.680579746E1,1.110867858E0,2.712264538E0,1.407877064E1
3.682590949E1,5.826523304E-1,2.877967358E0,1.434497166E1
3.684602147E1,-2.416750938E-1,2.885744095E0,1.294876003E1
3.686613350E1,1.830509305E-1,2.635095835E0,1.298166084E1
3.688624548E1,7.208378315E-1,2.411965132E0,1.357149220E1
3.690635746E1,3.954139352E-1,2.199003935E0,1.266281700E1
3.692646949E1,2.512463741E-2,2.137987137E0,1.108594704E1
3.694658146E1,1.974078640E-2,2.195414782E0,9.637093544E0
3.696669344E1,1.896311939E-1,2.137388945E0,8.408378601E0
3.698680548E1,2.512463629E-1,2.087737799E0,7.713263988E0
3.700691746E1,1.100698411E-1,2.030309916E0,7.446464062E0
3.702702943E1,-8.434699476E-2,1.968694806E0,7.141977310E0
3.704714146E1,-1.878365725E-1,1.959721804E0,6.735795975E0
3.706725344E1,-1.459621787E-1,2.035095692E0,6.389434814E0
3.708736542E1,9.212367237E-2,2.126022816E0,6.304489613E0
3.710747740E1,4.426721856E-2,2.266601324E0,6.539584160E0
3.712758943E1,-1.328016520E-1,2.340180635E0,6.945167542E0
3.714770141E1,-6.580262445E-3,2.369492531E0,7.259823799E0
3.716781344E1,4.414757788E-1,2.394019127E0,7.456035137E0
3.718792542E1,9.547362328E-1,2.272583246E0,7.822735310E0
3.720803740E1,1.070189953E0,2.055434704E0,8.550751686E0
3.722814943E1,8.979067206E-1,1.854437590E0,9.185447693E0
3.724826141E1,4.474578202E-1,1.853241086E0,9.012566566E0
3.726837339E1,1.914258152E-1,1.986042738E0,8.201997757E0
3.728848542E1,2.350948304E-1,2.364108801E0,7.483552933E0
3.730859740E1,7.064808607E-1,2.617149830E0,7.211967468E0
3.732870938E1,1.596610904E0,2.105085611E0,9.187840462E0
3.734882141E1,1.929213285E0,1.607976794E0,1.253839111E1
3.736893339E1,1.647458434E0,1.344168067E0,1.417268848E1
3.738904537E1,1.009771109E0,1.442273855E0,1.250010586E1
3.740915740E1,6.071787477E-1,2.260619164E0,1.107458115E1
3.742926938E1,3.768695518E-2,3.622135162E0,1.050269699E1
3.744938136E1,4.911268353E-1,4.229313850E0,1.021256733E1
3.746949339E1,2.613560438E0,3.602992773E0,1.161356449E1
3.748960537E1,3.835096598E0,3.275774240E0,1.356790257E1
3.750971735E1,3.370888948E0,2.943171740E0,1.491924953E1
3.752982938E1,1.967498422E0,2.522035122E0,1.537926960E1
3.754994136E1,1.142572761E0,2.204986095E0,1.448255920E1
3.757005334E1,9.481559992E-1,2.072184324E0,1.273938751E1
3.759016537E1,8.602197170E-1,2.057229280E0,1.086700439E1
3.761027735E1,9.978070259E-1,2.146361828E0,8.748757362E0
3.763038933E1,1.236491084E0,2.270788670E0,6.991229534E0
3.765050136E1,1.012762189E0,2.364108801E0,6.086144447E0
3.767061334E1,5.030909777E-1,2.398206472E0,5.830710411E0
3.769072532E1,-9.571290575E-3,2.326421738E0,5.605186939E0
3.771083735E1,-1.399801224E-1,2.146960020E0,5.704489231E0
3.773094933E1,-4.905286431E-2,1.985444546E0,6.366104603E0
3.775106136E1,7.118647546E-2,1.889731646E0,6.927819729E0
3.777117334E1,3.349951655E-2,1.873580098E0,6.824928284E0
3.779128532E1,-1.495514158E-2,1.889133453E0,6.464210510E0
3.781139735E1,8.315058798E-2,1.825125456E0,6.894320011E0
3.783150933E1,3.343969584E-1,1.710269928E0,7.877770424E0
3.785162136E1,5.694918036E-1,1.660618901E0,8.809176445E0
3.787173334E1,9.702895880E-1,1.509272933E0,9.359525681E0
3.789184532E1,1.329213023E0,1.338186026E0,9.747760773E0
3.791195735E1,1.146162033E0,1.465005636E0,9.812965393E0
3.793206933E1,4.061816335E-1,1.945364833E0,8.987442017E0
3.795218136E1,-1.878365725E-1,2.479562521E0,8.510671616E0
3.797229334E1,8.853443712E-2,2.563909531E0,9.759127617E0
3.799240532E1,1.278365493E0,2.158325911E0,1.211366463E1
3.801251735E1,1.688734531E0,2.033301115E0,1.373480225E1
3.803262933E1,5.419743061E-1,2.347358942E0,1.285424328E1
3.805274136E1,-1.094716340E-1,2.677568436E0,1.140239811E1
3.807285334E1,1.034895778E-1,3.091526747E0,1.127378368E1
3.809296532E1,3.451646566E-1,3.089133978E0,1.200299644E1
3.811307735E1,3.661018610E-1,2.689532757E0,1.321017551E1
3.813318933E1,2.099701911E-1,2.226521492E0,1.453041553E1
3.815330136E1,1.932204217E-1,1.761117458E0,1.466321754E1
3.817341334E1,2.602194548E-1,1.676770449E0,1.357328606E1
3.819352537E1,3.224328458E-1,1.902892232E0,1.211785221E1
3.821363735E1,7.752745152E-1,1.896910191E0,1.096391296E1
3.823374938E1,9.403793216E-1,1.899901152E0,1.007258701E1
3.825386136E1,5.222335458E-1,1.962114573E0,9.153144836E0
3.827397339E1,4.606183618E-2,1.923829436E0,8.002795219E0
3.829408537E1,-2.111666054E-1,1.855035782E0,7.127620220E0
3.831419735E1,-2.303091735E-1,1.837687731E0,6.911668301E0
3.833430938E1,-2.632105052E-1,1.858624935E0,7.027719975E0
3.835442136E1,-3.206382394E-1,1.854437590E0,6.946363926E0
3.837453339E1,-2.877369225E-1,1.775474429E0,6.826723099E0
3.839464537E1,-1.214357466E-1,1.691725612E0,7.112067223E0
3.841475740E1,1.663011760E-1,1.653440475E0,7.552944660E0
3.843486938E1,2.309073806E-1,1.804786444E0,7.200003147E0
3.845498141E1,6.580262631E-2,1.972284079E0,6.871588230E0
3.847509339E1,-1.292124242E-1,2.063211441E0,7.335197926E0
3.849520542E1,1.351944804E-1,1.987239242E0,8.043473244E0
3.851531746E1,5.102694035E-1,1.843071699E0,8.461619377E0
3.853542943E1,6.161518097E-1,1.759921074E0,8.971290588E0
3.855554147E1,2.482553422E-1,1.925624013E0,9.063413620E0
3.857565344E1,-1.902294010E-1,2.277967215E0,8.476573944E0
3.859576548E1,-4.187439568E-3,2.444866419E0,8.351549149E0
3.861587746E1,5.359922647E-1,2.528017044E0,9.250652313E0
3.863598949E1,7.668996453E-1,2.647060156E0,1.017727280E1
3.865610147E1,8.979067206E-1,2.733201742E0,1.164467144E1
3.867621350E1,8.739784956E-1,2.879761934E0,1.271785259E1
3.869632553E1,1.552343726E0,2.322234392E0,1.311565876E1
3.871643751E1,2.187638044E0,1.873580098E0,1.339861012E1
3.873654954E1,1.334596872E0,2.221137524E0,1.339621735E1
3.875666152E1,7.028916478E-1,2.194816589E0,1.311446285E1
3.877677355E1,1.460219979E0,2.156531334E0,1.319880962E1
3.879688558E1,2.326421738E0,2.391027927E0,1.330887985E1
3.881699756E1,2.283949137E0,2.426322222E0,1.327538013E1
3.883710959E1,1.863410592E0,2.295315027E0,1.309352589E1
3.885722157E1,1.700100541E0,2.160718918E0,1.261795235E1
3.887733360E1,1.491924882E0,2.016551256E0,1.172303677E1
3.889744563E1,1.139581800E0,1.858624935E0,1.068455124E1
3.891755761E1,7.657032609E-1,1.814955950E0,9.659825325E0
3.893766964E1,4.755735099E-1,1.868794441E0,8.280363083E0
3.895778167E1,4.121637046E-1,1.865803480E0,7.194021225E0
3.897789365E1,2.650051117E-1,1.908874273E0,6.528218269E0
3.899800568E1,1.304088384E-1,1.948355794E0,6.372684956E0
3.901811772E1,-8.374879137E-3,1.968096614E0,6.498906136E0
3.903822969E1,1.034895778E-1,1.904686809E0,6.604190350E0
3.905834173E1,2.452643216E-1,1.859821439E0,6.762116909E0
3.907845376E1,3.014956415E-1,1.837687731E0,6.943971157E0
3.909856579E1,2.315055877E-1,1.826321840E0,6.960123062E0
3.911867777E1,1.190429255E-1,1.850250125E0,6.893123627E0
3.913878980E1,1.118644550E-1,1.820937991E0,7.191628456E0
3.915890183E1,2.003988922E-1,1.706082582E0,8.096714020E0
3.917901386E1,1.154536903E-1,1.716850281E0,8.566305161E0
3.919912589E1,1.477568001E-1,1.780858278E0,8.295317650E0
3.921923787E1,4.450650215E-1,1.903490424E0,7.978269100E0
3.923934990E1,9.523434043E-1,1.955534339E0,8.233104706E0
3.925946193E1,9.954141974E-1,1.981855392E0,8.975478172E0
3.927957397E1,5.042873621E-1,1.977667928E0,9.726225853E0
3.929968594E1,2.697907388E-1,2.003390789E0,1.027119160E1
3.931979798E1,3.762713671E-1,2.261815548E0,1.043809032E1
3.933991001E1,5.533402562E-1,2.461018085E0,1.049073315E1
3.936002204E1,2.913261652E-1,2.790629387E0,1.097527885E1
3.938013407E1,-6.059823632E-1,3.384049416E0,1.106261730E1
3.940024610E1,-6.735795736E-1,3.077169895E0,1.146281719E1
3.942035813E1,1.543370634E-1,2.210968018E0,1.263529968E1
3.944047016E1,1.657029688E-1,2.133799553E0,1.351226902E1
3.946058214E1,-5.826523304E-1,2.334796667E0,1.266879940E1
3.948069417E1,-9.966106415E-1,2.477767944E0,1.153280735E1
3.950080620E1,-2.578266263E-1,2.400599241E0,1.224287701E1
3.952091824E1,5.485545993E-1,1.978864312E0,1.334297752E1
3.954103027E1,5.617151260E-1,1.468594909E0,1.382752419E1
3.956114230E1,3.756731451E-1,1.332203984E0,1.326341629E1
3.958125433E1,5.850451589E-1,1.470987678E0,1.180917835E1
3.960136636E1,1.056431174E0,1.681556106E0,1.058345413E1
3.962147839E1,1.181456208E0,1.908874273E0,9.471988678E0
3.964159042E1,9.146564603E-1,1.975873351E0,8.321639061E0
3.966170246E1,6.029912829E-1,1.891526341E0,8.017151833E0
3.968181449E1,3.595215976E-1,2.009372711E0,8.550153732E0
3.970192652E1,3.780659735E-1,2.196012974E0,8.131409645E0
3.972203855E1,7.986045480E-1,2.318047047E0,6.947560310E0
3.974215058E1,1.036690354E0,2.563909531E0,6.233303070E0
3.976226261E1,1.113260746E0,2.840280533E0,6.129215240E0
3.978237464E1,1.113858938E0,2.859423161E0,6.535995007E0
3.980248667E1,6.634100676E-1,2.739183664E0,7.162316322E0
3.982259871E1,1.932204217E-1,2.623729944E0,7.713263988E0
3.984271074E1,0.000000000E0,2.529213428E0,8.244470596E0
3.986282277E1,-1.674975902E-1,2.428714991E0,8.512466431E0
3.988293480E1,-1.740778536E-1,2.386840582E0,8.544769287E0
3.990304683E1,-3.290131316E-2,2.463410854E0,8.615358353E0
3.992315891E1,1.447657645E-1,2.481357098E0,8.754141808E0
3.994327094E1,2.422732860E-1,2.428714991E0,9.162715912E0
3.996338298E1,1.992024779E-1,2.349751949E0,1.009172916E1
3.998349501E1,2.590230405E-1,2.345564365E0,1.087178993E1
4.000360704E1,8.853443861E-1,2.487937450E0,1.072702408E1
4.002371907E1,2.243869543E0,2.702095032E0,1.007318497E1
4.004383110E1,3.062813044E0,2.779861689E0,9.272188187E0
4.006394318E1,2.449054003E0,3.011367321E0,7.826922894E0
4.008405522E1,1.088136077E0,3.252444267E0,7.392625332E0
4.010416725E1,6.352944374E-1,3.084946632E0,9.602995872E0
4.012427928E1,1.042074203E0,2.848057270E0,1.248455238E1
4.014439131E1,1.326820135E0,2.915654421E0,1.383230972E1
4.016450339E1,1.399203062E0,3.298506021E0,1.267238903E1
4.018461542E1,1.936391711E0,3.643670797E0,1.115952682E1
4.020472746E1,2.884547710E0,3.716053486E0,1.176610756E1
4.022483954E1,3.025724173E0,3.327219963E0,1.321496105E1
4.024495157E1,2.079961061E0,2.738585472E0,1.394656658E1
4.026506360E1,8.955138922E-1,2.239681959E0,1.298046494E1
4.028517563E1,4.289134443E-1,2.030908108E0,1.135513973E1
4.030528772E1,6.765705943E-1,1.950748682E0,9.865009308E0
4.032539975E1,1.339382529E0,1.811366796E0,9.079565048E0
4.034551178E1,1.680957913E0,1.783849239E0,9.053842545E0
4.036562386E1,1.110269666E0,1.792224169E0,8.982057571E0
4.038573589E1,3.948157281E-2,1.717448473E0,7.986643791E0
4.040584792E1,-6.807580590E-1,1.730010748E0,6.672386169E0
4.042596001E1,-6.783652306E-1,1.861616015E0,5.918646812E0
4.044607204E1,-1.136590727E-2,2.083550215E0,5.868995667E0
4.046618412E1,6.161518097E-1,2.404188633E0,6.139982700E0
4.048629615E1,9.296116233E-1,2.656631231E0,6.157928944E0
4.050640818E1,1.057627559E0,2.796013355E0,6.142973900E0
4.052652027E1,1.095314622E0,2.817548752E0,6.364908218E0
4.054663230E1,1.241276741E0,2.733201742E0,6.891927242E0
4.056674438E1,1.316052437E0,2.683550596E0,7.430910587E0
4.058685641E1,1.018146038E0,2.657229662E0,7.825726509E0
4.060696850E1,6.873382926E-1,2.560320139E0,8.127820015E0
4.062708053E1,6.735795736E-1,2.502892494E0,8.609375954E0
4.064719261E1,1.027119160E0,2.429911375E0,9.454640388E0
4.066730464E1,1.558325768E0,2.188834429E0,1.045902824E1
4.068741673E1,1.709671736E0,1.951346874E0,1.146401310E1
4.070752876E1,1.228116274E0,2.101496458E0,1.111825085E1
4.072764084E1,7.836494446E-1,2.615355253E0,9.548559189E0
4.074775287E1,8.027920127E-1,2.887538671E0,9.822537422E0
4.076786496E1,9.954141974E-1,2.787638426E0,1.237328625E1
4.078797704E1,4.462614357E-1,2.684746981E0,1.442991734E1
4.080808907E1,-8.003991842E-1,3.013161898E0,1.350987625E1
4.082820115E1,-1.808375716E0,3.959523201E0,1.040578747E1
4.084831318E1,-4.827519655E-1,4.003790379E0,9.453444481E0
4.086842527E1,1.907079697E0,3.073580742E0,1.179123211E1
4.088853735E1,2.430509567E0,2.520838737E0,1.418465233E1
4.090864938E1,6.831508875E-1,2.364706993E0,1.464048576E1
4.092876147E1,-9.373882413E-1,1.841277003E0,1.332861996E1
4.094887355E1,-1.216750264E0,1.442872047E0,1.223569870E1
4.096898558E1,-6.113662124E-1,1.274776220E0,1.159502029E1
4.098909766E1,-7.058826834E-2,1.289133191E0,1.091665554E1
4.100920975E1,5.922235921E-2,1.484746456E0,9.450452805E0
4.102932178E1,-5.324030295E-2,1.711466432E0,7.709674358E0
4.104943386E1,-1.022931710E-1,1.849651933E0,6.506084919E0
4.106954594E1,2.991028316E-2,1.947757602E0,6.225526333E0
4.108965803E1,1.603191197E-1,1.965105653E0,6.626324177E0
4.110977011E1,2.871387079E-2,1.956730723E0,7.433901787E0
4.112988214E1,-3.337987661E-1,2.058425665E0,8.198408127E0
4.114999423E1,-6.143572330E-1,2.178066730E0,8.596813202E0
4.117010631E1,-3.242274821E-1,2.225923300E0,8.757132530E0
4.119021839E1,5.706881881E-1,2.181057930E0,9.157930374E0
4.121033048E1,1.251446247E0,2.067398787E0,1.002592659E1
4.123044251E1,1.694716692E0,1.920838356E0,1.138385391E1
4.125055459E1,1.674975872E0,1.809572101E0,1.220877934E1
4.127066667E1,1.452443361E0,1.631905079E0,1.225484085E1
4.129077876E1,1.412961721E0,1.525424480E0,1.153878880E1
4.131089084E1,1.640878081E0,1.609771490E0,1.106919765E1
4.133100292E1,1.722832322E0,1.899901152E0,1.129172993E1
4.135111501E1,1.613958836E0,2.087737799E0,1.121874905E1
4.137122709E1,2.126621008E0,1.648056626E0,1.169492054E1
4.139133912E1,2.016551256E0,1.359123230E0,1.248754311E1
4.141145121E1,1.543370605E0,1.065404296E0,1.245224857E1
4.143156329E1,1.127617717E0,8.440681696E-1,1.132941723E1
4.145167537E1,9.248259664E-1,9.403793216E-1,1.007976532E1
4.147178746E1,8.662018180E-1,1.058824062E0,8.897112846E0
4.149189954E1,6.747759581E-1,1.360319614E0,7.743772507E0
4.151201167E1,4.642075896E-1,1.842473388E0,6.765107632E0
4.153212371E1,5.533402562E-1,2.138585329E0,6.535397053E0
4.155223579E1,1.421336651E0,2.043470621E0,7.819146156E0
4.157234787E1,2.194218397E0,1.799402595E0,9.339784622E0
4.159246001E1,2.611167669E0,1.534995675E0,1.024367332E1
4.161257209E1,2.283949137E0,1.253240824E0,1.021077251E1
4.163268417E1,1.325623751E0,1.153340459E0,9.723235130E0
4.165279626E1,5.192425251E-1,1.284347534E0,8.961718559E0
4.167290834E1,2.847459018E-1,1.549950838E0,8.255238533E0
4.169302042E1,2.859423161E-1,1.862812400E0,7.589435101E0
4.171313256E1,4.456632137E-1,2.087737799E0,7.345367432E0
4.173324459E1,6.783652306E-1,2.193620205E0,7.459026337E0
4.175335667E1,7.160521746E-1,2.144567251E0,7.868797302E0
4.177346881E1,7.399803996E-1,1.984248161E0,8.313263893E0
4.179358089E1,9.284151793E-1,1.687538147E0,9.115457535E0
4.181369298E1,9.038887620E-1,1.427916884E0,1.013180923E1
4.183380506E1,7.639086246E-1,1.304686546E0,1.040638542E1
4.185391714E1,6.346961856E-1,1.345962763E0,9.541379929E0
4.187402928E1,6.400800347E-1,1.469791293E0,8.397610664E0
4.189414136E1,7.884350419E-1,1.460219979E0,7.373483181E0
4.191425344E1,1.178465128E0,1.396810174E0,6.937989235E0
4.193436553E1,1.354337573E0,1.590628862E0,6.747759819E0
4.195447766E1,1.246062398E0,1.911267042E0,6.055635929E0
4.197458975E1,8.608179688E-1,2.166102648E0,5.420341492E0
4.199470183E1,6.418746710E-1,2.300100803E0,5.854638577E0
4.201481396E1,1.018744230E0,2.133799553E0,7.508079052E0
4.203492605E1,1.585245013E0,1.788634896E0,9.332008362E0
4.205503813E1,1.997408748E0,1.628315806E0,1.022572803E1
4.207515027E1,2.093719721E0,1.608574986E0,9.861420631E0
4.209526235E1,1.560120344E0,1.850848317E0,8.718249321E0
4.211537449E1,9.613165259E-1,2.084746838E0,8.297112465E0
4.213548657E1,5.730810165E-1,2.140379906E0,8.759525299E0
4.215559865E1,5.228317380E-1,2.134995937E0,9.895518303E0
4.217571079E1,5.072783828E-1,2.142174482E0,1.180738354E1
4.219582287E1,1.944168359E-1,2.465803623E0,1.350688553E1
4.221593501E1,-5.569294691E-1,3.203391314E0,1.303789234E1
4.223604709E1,-5.174478889E-1,3.690928936E0,1.206042480E1
4.225615917E1,1.895713687E0,2.834896564E0,1.318684578E1
4.227627131E1,3.361317635E0,2.378465652E0,1.501436424E1
4.229638339E1,1.731805444E0,2.830709219E0,1.504666710E1
4.231649553E1,-2.584248483E-1,2.650649309E0,1.349372482E1
