"Time (s)","Acceleration x (m/s^2)","Acceleration y (m/s^2)","Acceleration z (m/s^2)"
1.820948400E-2,1.033699393E0,3.543172121E0,8.468797684E0
3.831937900E-2,1.083350420E0,3.402593851E0,9.439684868E0
5.842922300E-2,1.787438512E0,3.272184849E0,8.930013657E0
7.853911900E-2,1.512862086E0,3.879363775E0,7.636693478E0
9.864901500E-2,8.650053740E-1,3.798007727E0,8.141578674E0
1.187588590E-1,6.502495408E-1,3.667000771E0,8.550751686E0
1.388687540E-1,5.593222976E-1,3.748356581E0,8.577671051E0
1.589786500E-1,8.691928387E-1,3.585046530E0,8.678768158E0
1.790885460E-1,9.571290612E-1,3.491726398E0,8.979664803E0
1.991984420E-1,1.010369420E0,3.448057413E0,9.150752068E0
2.193083380E-1,1.047458172E0,3.446262836E0,9.177671432E0
2.394182340E-1,1.163509965E0,3.414557934E0,9.184251785E0
2.595281290E-1,1.311266780E0,3.339782238E0,9.230313301E0
2.796380250E-1,1.271187067E0,3.288336515E0,9.061619759E0
2.997479210E-1,1.000798106E0,3.325425386E0,8.375477791E0
3.198578170E-1,8.009973764E-1,3.363112211E0,7.451249599E0
3.399677130E-1,8.470591903E-1,3.311666489E0,6.852446079E0
3.600776090E-1,9.918249846E-1,3.093321562E0,6.654439926E0
3.801875040E-1,9.690931439E-1,2.855235577E0,6.763911247E0
4.002974520E-1,5.563312769E-1,2.884547710E0,6.624529362E0
4.204073480E-1,4.187439755E-2,3.125026464E0,6.156134605E0
4.405172440E-1,-2.901297510E-1,3.395415306E0,5.989833355E0
4.606271400E-1,-2.494517565E-1,3.437289715E0,6.649055958E0
4.807370880E-1,1.232303679E-1,3.233301640E0,7.913662910E0
5.008469840E-1,7.525427341E-1,3.027518749E0,8.791828156E0
5.209569320E-1,1.143769264E0,2.977867842E0,9.092127800E0
5.410668270E-1,1.083350420E0,3.115455151E0,8.980861664E0
5.611767230E-1,4.827519655E-1,3.307479143E0,8.786444664E0
5.812866710E-1,1.220339537E-1,3.247060299E0,8.812167168E0
6.013966190E-1,8.075776696E-2,3.333800077E0,9.096913338E0
6.215065150E-1,-0.000000000E0,3.882952929E0,9.902098656E0
6.416164630E-1,-3.589234054E-1,4.402793884E0,1.084726334E1
6.617263590E-1,-1.073180914E0,5.453242779E0,1.095314598E1
6.818363070E-1,4.420739710E-1,4.430311203E0,1.185763264E1
7.019462540E-1,1.859223247E0,2.587239504E0,1.541994762E1
7.220561500E-1,5.808576941E-1,2.383251429E0,1.809332848E1
7.421660980E-1,-1.369890928E0,2.708675146E0,1.679282951E1
7.622760460E-1,-1.494317770E0,3.090330362E0,1.448375511E1
7.823859940E-1,-3.128615618E-1,3.472583771E0,1.286082363E1
8.024959420E-1,1.018146038E0,3.187239647E0,1.223270798E1
8.226058900E-1,6.059823632E-1,3.081357241E0,1.113739300E1
8.427157860E-1,-2.662015259E-1,3.067598581E0,9.166305542E0
8.628257340E-1,-8.578268886E-1,3.105883837E0,7.195217609E0
8.829356820E-1,-1.139581800E0,3.120838881E0,6.290730953E0
9.030456290E-1,-1.024128079E0,3.111865759E0,6.181259155E0
9.231555770E-1,-1.098903775E0,3.187838078E0,6.504290104E0
9.432655250E-1,-1.388435364E0,3.297309637E0,7.074978352E0
9.633755250E-1,-1.558923960E0,3.418147087E0,7.452445984E0
9.834854730E-1,-1.295713425E0,3.403192043E0,7.389634609E0
1.003595421E0,-6.346961856E-1,3.437289715E0,7.407580853E0
1.023705369E0,4.055834413E-1,3.439682484E0,7.756932735E0
1.043815317E0,1.408176184E0,3.023331404E0,8.431110382E0
1.063925317E0,1.140179992E0,2.628515720E0,8.730812073E0
1.084035265E0,1.345962733E-1,2.145165443E0,8.668000221E0
1.104145213E0,-6.711867452E-1,1.886740685E0,8.827720642E0
1.124255213E0,-1.112064362E0,1.939980984E0,8.883354187E0
1.144365161E0,-1.011565804E0,1.995015860E0,8.566903114E0
1.164475109E0,-3.810569942E-1,1.911865234E0,8.079365730E0
1.184585109E0,2.985046208E-1,2.024926186E0,7.634300709E0
1.204695057E0,4.917250574E-1,2.198405743E0,7.141379356E0
1.224805057E0,1.770688742E-1,2.495713949E0,6.511468410E0
1.244915004E0,-1.854437590E-2,2.635095835E0,6.245865345E0
1.265025004E0,3.409772366E-2,2.673381090E0,6.330810547E0
1.285134952E0,1.000798106E0,2.611765862E0,6.552744865E0
1.305244952E0,1.353739381E0,2.489732027E0,7.177869797E0
1.325354952E0,9.978070259E-1,3.069991350E0,8.241478920E0
1.345464952E0,-3.343969584E-1,3.988237143E0,9.513862610E0
1.365574900E0,-1.055832982E0,5.059623718E0,1.103629589E1
1.385684900E0,-1.016949583E-2,6.203990936E0,1.193599796E1
1.405794900E0,1.854437590E-1,6.598806858E0,1.162672520E1
1.425904900E0,3.084946632E0,4.134797573E0,1.181994534E1
1.446014900E0,3.387638569E0,2.315055847E0,1.555215073E1
1.466124900E0,9.852447510E-1,1.782054663E0,1.967797470E1
1.486234900E0,-1.129412293E0,1.331605792E0,1.912044716E1
1.506344848E0,-1.416550994E0,1.571486235E0,1.524886036E1
1.526454848E0,-1.818545163E-1,1.986042738E0,1.186481094E1
1.546564900E0,1.158724308E0,2.249253273E0,1.054038334E1
1.566674900E0,1.309472203E0,2.551347256E0,9.932008743E0
1.586784900E0,4.366901219E-1,2.781058073E0,8.563314438E0
1.606894900E0,-3.744767308E-1,2.712264538E0,6.873383045E0
1.627004900E0,-9.266205430E-1,2.706880569E0,6.019743443E0
1.647114900E0,-1.016351461E0,2.666800737E0,6.155536175E0
1.667224900E0,-8.973084688E-1,2.639283419E0,6.790830612E0
1.687334952E0,-8.727820516E-1,2.657827854E0,7.456633568E0
1.707444952E0,-8.542376757E-1,2.638685226E0,8.072187424E0
1.727554952E0,-6.275177598E-1,2.430509567E0,8.703892708E0
1.747665004E0,5.742774159E-2,2.180459738E0,9.142376900E0
1.767775004E0,7.423732281E-1,2.009970903E0,9.208778381E0
1.787885004E0,1.095912814E0,1.780858278E0,9.208179474E0
1.807995057E0,1.034895778E0,1.538584948E0,9.430712700E0
1.828105057E0,5.826523304E-1,1.442872047E0,9.469595909E0
1.848215109E0,-2.273181453E-2,1.511665702E0,8.639883995E0
1.868325109E0,-4.283152521E-1,1.754537225E0,7.411170006E0
1.888435161E0,-3.032902777E-1,2.171486616E0,6.494120598E0
1.908545161E0,4.869394004E-1,2.499901533E0,6.059823513E0
1.928655213E0,1.234696507E0,2.684746981E0,6.129813194E0
1.948765265E0,1.503290772E0,2.598605394E0,6.565905571E0
1.968875265E0,1.220339537E0,2.435295343E0,7.142575741E0
1.988985317E0,6.837490797E-1,2.495713949E0,7.617550850E0
2.009095369E0,9.332008660E-2,2.791825771E0,7.554141045E0
2.029205421E0,-1.842473447E-1,3.201596737E0,7.176673412E0
2.049315421E0,-2.045863420E-1,3.640679598E0,7.869395256E0
2.069425473E0,-1.223928809E0,4.330410957E0,1.124626637E1
2.089535525E0,-2.852244616E0,5.251049519E0,1.367019558E1
2.109645577E0,-3.008376360E0,5.294120312E0,1.242652607E1
2.129755629E0,-1.250249892E-1,4.069592953E0,1.099442196E1
2.149865682E0,3.230310678E0,4.589433670E0,1.116969585E1
2.169975734E0,3.373281717E0,5.073980331E0,1.316411400E1
2.190085786E0,1.171286702E0,3.813561201E0,1.502453327E1
2.210195838E0,-1.210768223E0,2.927020311E0,1.605045700E1
2.230305890E0,-1.863410592E0,2.985644341E0,1.519023609E1
2.250415942E0,-8.446664214E-1,3.471985579E0,1.288415337E1
2.270525994E0,7.513462901E-1,3.555734396E0,1.082991505E1
2.290636098E0,1.312463164E0,3.361915827E0,9.872187614E0
2.310746150E0,7.639086246E-1,2.916252613E0,9.592825890E0
2.330856202E0,-2.500499785E-1,2.477767944E0,9.182456970E0
2.350966254E0,-9.236295223E-1,2.239681959E0,8.449056625E0
2.371076359E0,-9.278169870E-1,2.091925144E0,7.998608112E0
2.391186411E0,-7.465606928E-1,2.721835852E0,6.854838848E0
2.411296463E0,6.161518395E-2,2.708076954E0,6.649653912E0
2.431406567E0,1.716850251E-1,2.767897606E0,7.189235687E0
2.451516619E0,4.845465720E-1,2.758326292E0,7.526025295E0
2.471626723E0,6.574280262E-1,2.756531715E0,7.553543091E0
2.491736775E0,6.819544435E-1,2.812762976E0,7.183253765E0
2.511846879E0,5.754738450E-1,2.873181820E0,6.774080753E0
2.531956932E0,5.718846321E-1,2.818745136E0,6.662814617E0
2.552067036E0,7.363911867E-1,2.595016241E0,7.125825882E0
2.572177088E0,8.303094506E-1,2.341377020E0,7.886145115E0
2.592287192E0,7.471588850E-1,2.238485575E0,8.210970879E0
2.612397296E0,5.096712112E-1,2.234298229E0,7.783253670E0
2.632507348E0,2.410768867E-1,2.357528448E0,7.013363361E0
2.652617452E0,1.214357466E-1,2.597409010E0,6.451648235E0
2.672727557E0,8.494520187E-2,2.916850805E0,6.262615204E0
2.692837661E0,-4.187439755E-2,3.213560820E0,6.463014126E0
2.712947713E0,-3.828516230E-2,3.035893679E0,7.437490940E0
2.733057817E0,-7.776673883E-2,3.521038532E0,9.326624870E0
2.753167921E0,-3.882354796E-1,5.633302689E0,1.090887833E1
2.773278025E0,1.136590719E0,5.251049519E0,1.224586773E1
2.793388129E0,4.368097782E0,2.787040234E0,1.433420372E1
2.813498234E0,4.771288395E0,1.746760488E0,1.745803452E1
2.833608338E0,2.371287346E0,7.800601721E-1,2.023490524E1
2.853718442E0,-3.481557071E-1,9.128618240E-1,1.922932053E1
2.873828546E0,-3.882354796E-1,2.002792597E0,1.457169151E1
2.893938650E0,8.374879360E-1,2.834298372E0,1.049372387E1
2.914048754E0,1.690529227E0,3.133999348E0,8.991030693E0
2.934158859E0,2.044667006E0,3.034099102E0,9.530612946E0
2.954269015E0,1.785045743E0,2.829512835E0,9.831509590E0
2.974379119E0,1.234098315E0,2.458027124E0,9.069396019E0
2.994489223E0,6.951149702E-1,2.118246317E0,8.128418922E0
3.014599327E0,2.697907388E-1,2.015953064E0,7.264011383E0
3.034709484E0,-4.247260094E-2,2.067996979E0,6.430710793E0
3.054819588E0,-4.091726840E-1,2.045265198E0,5.845067501E0
3.074929692E0,-7.435696125E-1,2.050648928E0,5.740381718E0
3.095039848E0,-6.215356588E-1,2.282752752E0,5.898906231E0
3.115149952E0,8.135596663E-2,2.434697151E0,6.119643688E0
3.135260109E0,1.064207911E0,2.274377823E0,6.826723099E0
3.155370213E0,1.576870084E0,1.881955028E0,7.797610760E0
3.175480369E0,1.228116274E0,1.871187329E0,7.899903774E0
3.195590473E0,6.167500615E-1,2.060818434E0,6.577869415E0
3.215700629E0,3.684946895E-1,2.505285263E0,5.127220631E0
3.235810734E0,5.665007830E-1,3.168695450E0,4.719842434E0
3.255920890E0,1.138385415E0,3.139383316E0,5.929414749E0
3.276031046E0,1.784447432E0,2.424527645E0,8.077570915E0
3.296141150E0,1.904088616E0,2.062613010E0,1.037109184E1
3.316251307E0,1.434497118E0,1.981855392E0,1.151246834E1
3.336361463E0,5.934200287E-1,2.094916344E0,1.102433205E1
3.356471619E0,2.931207716E-1,2.143969059E0,1.068156052E1
3.376581723E0,6.299105883E-1,2.149353027E0,1.217288685E1
3.396691879E0,1.152742267E0,3.169293642E0,1.434257889E1
3.416802036E0,1.668395638E0,3.447459221E0,1.586022663E1
3.436912192E0,1.887338877E0,3.351746321E0,1.597747517E1
3.457022348E0,1.341177106E0,3.410370588E0,1.498505211E1
3.477132504E0,2.703889608E-1,3.664607763E0,1.319282722E1
3.497242661E0,-2.117647976E-1,3.443870068E0,1.212742329E1
3.517352817E0,3.810569942E-1,3.081955671E0,1.229791164E1
3.537462973E0,8.219345808E-1,2.590828657E0,1.291466236E1
3.557573129E0,3.678964674E-1,1.869990945E0,1.303789234E1
3.577683286E0,-6.580262184E-1,1.532602906E0,1.235354519E1
3.597793442E0,-1.202393413E0,1.621137381E0,1.077308559E1
3.617903598E0,-1.061815023E0,1.920240164E0,8.963513374E0
3.638013754E0,-6.807580590E-1,2.152942181E0,7.354938507E0
3.658123963E0,-4.342973232E-1,2.277967215E0,6.282954216E0
3.678234119E0,-3.702892959E-1,2.326421738E0,5.924628735E0
3.698344275E0,-4.450650215E-1,2.418545485E0,5.873183250E0
3.718454432E0,-4.677968323E-1,2.430509567E0,5.842076302E0
3.738564640E0,-3.690928817E-1,2.489732027E0,5.743372440E0
3.758674796E0,-3.637090325E-1,2.636890650E0,5.575874805E0
3.778784952E0,-3.750749528E-1,2.778665304E0,5.300700188E0
3.798895161E0,-2.602194548E-1,2.683550596E0,5.392824173E0
3.819005317E0,7.776673418E-3,2.148156643E0,6.573083878E0
3.839115473E0,3.810569942E-1,1.795215130E0,7.905886173E0
3.859225682E0,6.436693072E-1,1.690529227E0,8.519046783E0
3.879335838E0,5.682953596E-1,1.488335729E0,8.694919586E0
3.899446046E0,1.369891018E-1,1.543968797E0,8.391031265E0
3.919556202E0,-8.315058798E-2,1.721037745E0,7.632505894E0
3.939666411E0,-3.349951804E-1,1.876571178E0,6.462415695E0
3.959776619E0,-5.264210105E-1,2.032104731E0,6.206982136E0
3.979886775E0,-6.161518097E-1,2.399402857E0,7.242475986E0
3.999996984E0,-4.121637046E-1,2.947957516E0,8.467002869E0
4.020107192E0,-1.680957973E-1,3.168695450E0,1.014556789E1
4.040217400E0,-7.298108935E-2,3.779463291E0,1.255155087E1
4.060327557E0,4.199403822E-1,4.505684853E0,1.350688553E1
4.080437765E0,3.713062525E0,3.060420275E0,1.516690636E1
4.100547973E0,6.361917019E0,2.094317913E0,1.822672844E1
4.120658182E0,5.682355404E0,1.633101463E0,2.090489578E1
4.140768338E0,2.278565407E0,1.361516118E0,1.900319862E1
4.160878546E0,3.559323549E-1,2.165504456E0,1.391845131E1
4.180988754E0,7.902296782E-1,2.995215654E0,1.038544846E1
4.201098963E0,2.279163599E0,3.344567776E0,9.342776299E0
4.221209171E0,3.089732170E0,3.404388428E0,9.777072906E0
4.241319379E0,3.098705292E0,2.941975355E0,1.040518951E1
4.261429588E0,2.327618122E0,2.477767944E0,1.004925728E1
4.281539796E0,1.575075507E0,2.065006018E0,9.316454887E0
4.301650004E0,1.009771109E0,1.747956991E0,8.610571861E0
4.321760213E0,6.825526357E-1,1.851446509E0,7.695317745E0
4.341870473E0,6.789634228E-1,2.113460541E0,6.705287457E0
4.361980682E0,1.021137118E0,2.312064886E0,5.934798241E0
4.382090890E0,1.300499082E0,2.533401012E0,5.371886730E0
4.402201098E0,1.289731383E0,2.746362209E0,4.763511658E0
4.422311307E0,1.362712502E0,2.861217737E0,4.987240791E0
4.442421567E0,1.492523074E0,2.730808735E0,6.067001820E0
4.462531775E0,1.532602906E0,2.434697151E0,7.152146816E0
4.482641984E0,1.704886079E0,2.122433662E0,8.006384850E0
4.502752244E0,1.831705689E0,1.870589137E0,8.219346046E0
4.522862452E0,1.858624935E0,1.703689694E0,8.188239098E0
4.542972661E0,1.613360643E0,1.671984792E0,7.950153351E0
4.563082921E0,1.331605792E0,1.776072621E0,7.769495010E0
4.583193129E0,1.165902853E0,1.938186288E0,7.584649563E0
4.603303338E0,8.434699774E-1,2.439482689E0,6.840481758E0
4.623413598E0,3.816552162E-1,2.921038151E0,6.298507214E0
4.643523859E0,3.391826153E-1,3.035295486E0,7.527820110E0
4.663634067E0,5.353940725E-1,3.351746321E0,1.124447155E1
4.683744327E0,-9.451649338E-2,4.442873478E0,1.378385448E1
4.703854536E0,-8.362914920E-1,4.239483356E0,1.268435287E1
4.723964796E0,3.170489892E-2,3.632902861E0,1.234158134E1
4.744075057E0,8.703892231E-1,4.012165546E0,1.432044506E1
4.764185265E0,8.021938205E-1,3.878167391E0,1.486361599E1
4.784295525E0,1.070788130E-1,3.639483213E0,1.389212990E1
4.804405786E0,-5.982056726E-3,3.442075491E0,1.348176098E1
4.824515994E0,5.742774159E-2,2.967100143E0,1.328136253E1
4.844626254E0,1.274178028E-1,2.487937450E0,1.277408409E1
4.864736515E0,7.657032460E-2,2.215155602E0,1.196949673E1
4.884846775E0,-4.965107143E-2,2.002792597E0,1.150469112E1
4.904957036E0,-2.715853751E-1,1.977667928E0,1.085803127E1
4.925067244E0,-6.388836503E-1,1.937588096E0,9.713663101E0
4.945177504E0,-9.912267923E-1,1.920838356E0,8.428119659E0
4.965287765E0,-1.034297585E0,1.977069736E0,7.488936901E0
4.985398025E0,-8.823533654E-1,2.073380709E0,6.889534473E0
5.005508286E0,-6.957131624E-1,2.228914261E0,6.467201233E0
5.025618546E0,-4.743770957E-1,2.401197433E0,6.326025009E0
5.045728807E0,-1.477568001E-1,2.609971285E0,6.361917019E0
5.065839067E0,2.374876440E-1,2.703889608E0,6.589235306E0
5.085949327E0,6.143572330E-1,2.605185747E0,6.979863644E0
5.106059588E0,9.314061999E-1,2.368894339E0,7.234699249E0
5.126169900E0,9.828519225E-1,2.027917147E0,7.470990658E0
5.146280161E0,7.250252366E-1,1.815554142E0,7.635497093E0
5.166390421E0,3.475574851E-1,1.679163337E0,7.628318787E0
5.186500682E0,-7.477571070E-2,1.622931957E0,7.465606689E0
5.206610942E0,-6.245267391E-1,1.725225091E0,7.610970497E0
5.226721254E0,-1.061216831E0,1.885544300E0,8.099106789E0
5.246831515E0,-6.789634228E-1,2.381456852E0,8.352147102E0
5.266941775E0,-2.512463741E-2,3.527618885E0,7.463811874E0
5.287052036E0,1.377069473E0,4.140181541E0,6.793223381E0
5.307162348E0,2.321636200E0,4.064807415E0,8.312665939E0
5.327272609E0,2.622533560E0,3.533002615E0,1.239601803E1
5.347382921E0,2.073979139E0,2.946761131E0,1.607677650E1
5.367493182E0,1.900499344E0,2.036292076E0,1.709671783E1
5.387603442E0,2.044068813E0,1.649253011E0,1.617308807E1
5.407713754E0,1.941177368E0,1.673779488E0,1.531585979E1
5.427824015E0,1.713261008E0,1.695913076E0,1.477268887E1
5.447934327E0,1.907079697E0,1.890329838E0,1.408893967E1
5.468044588E0,2.109871387E0,2.030908108E0,1.292303658E1
5.488154900E0,1.959721804E0,2.102094650E0,1.156271744E1
5.508265161E0,1.829312921E0,2.283949137E0,1.045125103E1
5.528375473E0,1.890329838E0,2.363510609E0,9.714859962E0
5.548485786E0,1.823330879E0,2.203789711E0,9.044869423E0
5.568596046E0,1.393221021E0,2.087737799E0,8.125427246E0
5.588706359E0,7.645068169E-1,2.121835470E0,7.109076023E0
5.608816671E0,2.739782035E-1,2.227119684E0,6.306283951E0
5.628926932E0,6.400800496E-2,2.407179594E0,5.833701611E0
5.649037244E0,1.220339537E-1,2.542374134E0,5.875576019E0
5.669147557E0,4.809573591E-1,2.542374134E0,6.458228111E0
5.689257869E0,7.854440212E-1,2.475374937E0,7.130013466E0
5.709368129E0,8.506484628E-1,2.351546526E0,7.513463020E0
5.729478442E0,6.837490797E-1,2.219342947E0,7.605587006E0
5.749588754E0,3.900300860E-1,2.087139606E0,7.519444942E0
5.769699067E0,9.332008660E-2,1.911865234E0,7.368099213E0
5.789809379E0,-8.075776696E-2,1.842473388E0,7.316653252E0
5.809919692E0,-3.768695518E-2,1.904686809E0,7.262814999E0
5.830030004E0,-3.170489892E-2,2.044667006E0,6.809374809E0
5.850140317E0,5.982056609E-4,2.175673962E0,6.451648235E0
5.870250629E0,1.310070455E-1,2.258824587E0,6.781259537E0
5.890360942E0,3.655036688E-1,2.111067772E0,7.703692436E0
5.910471254E0,4.504488707E-1,2.130210400E0,8.873184204E0
5.930581567E0,1.268195957E-1,2.511865616E0,9.717252731E0
5.950691879E0,-2.907279432E-1,2.608774900E0,9.842875481E0
5.970802192E0,-4.223332107E-1,2.528615236E0,1.078325558E1
5.990912504E0,-1.054038405E0,3.150151014E0,1.189053345E1
6.011022817E0,-1.316650629E0,3.709473372E0,1.241276741E1
6.031133182E0,2.512463629E-1,3.116053343E0,1.404168129E1
6.051243494E0,2.224128723E0,2.965305567E0,1.596670723E1
6.071353807E0,2.492124796E0,2.748754978E0,1.621436501E1
6.091464119E0,5.868397355E-1,2.303091764E0,1.499342632E1
6.111574432E0,-5.509474277E-1,2.060220242E0,1.416670609E1
6.131684796E0,-7.357929349E-1,2.053640127E0,1.333161163E1
6.151795109E0,-7.483552694E-1,1.986042738E0,1.248215961E1
6.171905421E0,-6.951149702E-1,1.798804402E0,1.161176968E1
6.192015786E0,-5.569294691E-1,1.733001828E0,1.049551868E1
6.212126098E0,-4.666004181E-1,1.743171334E0,9.477372169E0
6.232236463E0,-4.941178858E-1,1.796411633E0,8.713463783E0
6.252346775E0,-6.029912829E-1,1.746760488E0,8.094919205E0
6.272457088E0,-7.094719410E-1,1.727617979E0,7.636095047E0
6.292567452E0,-6.909275651E-1,1.854437590E0,7.423133850E0
6.312677765E0,-4.761717021E-1,1.937588096E0,7.384849072E0
6.332788129E0,-3.236292601E-1,2.073979139E0,7.130611420E0
6.352898442E0,-4.217349887E-1,2.276172638E0,6.735795975E0
6.373008807E0,-4.354937077E-1,2.355135679E0,6.559325218E0
6.393119171E0,-4.558327198E-1,2.321038008E0,6.927819729E0
6.413229484E0,-4.007977843E-1,2.209173441E0,7.549953461E0
6.433339848E0,-4.103690982E-1,2.037488461E0,7.957331657E0
6.453450161E0,-4.546363056E-1,1.816152334E0,8.400003433E0
6.473560525E0,-4.031906128E-1,1.540977836E0,8.825926781E0
6.493670890E0,-3.493520916E-1,1.290927768E0,9.260822296E0
6.513781202E0,-5.629115105E-1,1.238285661E0,9.470791817E0
6.533891567E0,-1.033699393E0,1.364507079E0,9.055039406E0
6.554001932E0,-1.232901812E0,1.545165181E0,8.049455643E0
6.574112296E0,-1.028913736E0,1.774876237E0,7.458428383E0
6.594222609E0,-7.842476368E-1,2.009970903E0,7.326822758E0
6.614332973E0,-8.315058947E-1,2.196611166E0,7.469794273E0
6.634443338E0,-9.080761671E-1,2.201396942E0,7.798209190E0
6.654553702E0,-5.832505226E-1,2.130210400E0,8.350353241E0
6.674664067E0,-2.398804724E-1,2.221137524E0,9.245866776E0
6.694774379E0,-6.729813814E-1,2.810370207E0,1.099322510E1
6.714884744E0,-7.262216806E-1,2.335394859E0,1.308275795E1
6.734995109E0,6.053841114E-1,8.093722463E-1,1.501376534E1
6.755105473E0,1.908276081E0,3.828516230E-2,1.624905968E1
6.775215838E0,2.192423820E0,-4.576273263E-1,1.757408524E1
6.795326202E0,1.136590719E0,-3.284149170E-1,1.757229042E1
6.815436567E0,3.146561682E-1,3.367897868E-1,1.520698643E1
6.835546932E0,3.643072546E-1,7.770691514E-1,1.237089348E1
6.855657296E0,9.433703423E-1,1.088136077E0,1.041835022E1
6.875767661E0,1.406381488E0,1.469193101E0,9.970891953E0
6.895878025E0,1.180259824E0,1.479362607E0,1.100758266E1
6.915988390E0,6.604190469E-1,1.090528965E0,1.169671535E1
6.936098807E0,-2.273181453E-2,8.279166222E-1,1.131326580E1
6.956209171E0,-5.736792088E-1,7.256234884E-1,9.995418549E0
6.976319536E0,-8.560323119E-1,8.638089895E-1,8.240880966E0
6.996429900E0,-8.883354068E-1,1.278365493E0,6.352345943E0
7.016540265E0,-6.640082598E-1,1.757528186E0,4.916652203E0
7.036650629E0,-3.314059377E-1,2.144567251E0,4.371686935E0
7.056761046E0,3.589234129E-2,2.319243431E0,5.083551884E0
7.076871411E0,2.506481707E-1,2.105085611E0,6.680760860E0
7.096981775E0,1.184447184E-1,1.782054663E0,8.038687706E0
7.117092140E0,-2.590230405E-1,1.452443361E0,8.656036377E0
7.137202557E0,-5.216353536E-1,1.125823021E0,8.532805443E0
7.157312921E0,-5.748756528E-1,1.171884894E0,7.931010723E0
7.177423338E0,-5.844469070E-1,1.731805444E0,6.802196503E0
7.197533702E0,-7.190431952E-1,2.484348059E0,5.633302689E0
7.217644067E0,-3.296113312E-1,2.643470764E0,5.079962254E0
7.237754484E0,5.455635786E-1,2.341377020E0,6.282954216E0
7.257864848E0,1.060020447E0,1.946561217E0,8.861220360E0
7.277975265E0,9.792626500E-1,1.476969719E0,1.112782192E1
7.298085629E0,4.899304509E-1,1.006780148E0,1.219801140E1
7.318196046E0,-4.067798331E-2,5.790630579E-1,1.202453232E1
7.338306411E0,-7.357929647E-2,4.660021961E-1,1.045484066E1
7.358416827E0,-4.325026870E-1,1.740778446E0,8.135597229E0
7.378527192E0,-9.080761671E-1,2.867797852E0,6.009573936E0
7.398637609E0,-6.514459848E-1,2.023131609E0,7.939983845E0
7.418747973E0,1.124626622E-1,1.399801254E0,1.546361637E1
7.438858390E0,4.031906128E-1,1.539781332E0,1.968216324E1
7.458968807E0,-7.226324677E-1,1.337587833E0,1.653500175E1
7.479079171E0,-1.173679471E0,1.202991605E0,1.307677555E1
7.499189588E0,6.550351977E-1,1.299302697E0,1.289851093E1
7.519300004E0,1.744965911E0,1.264008522E0,1.414337635E1
7.539410369E0,8.955138922E-1,8.291130662E-1,1.509332657E1
7.559520786E0,-5.228317380E-1,6.909275651E-1,1.437667656E1
7.579631202E0,-1.253240824E0,1.193420291E0,1.250369453E1
7.599741619E0,-1.034297585E0,1.529013634E0,1.088674450E1
7.619851984E0,-3.684946895E-1,1.588235974E0,9.620343208E0
7.639962400E0,2.213360928E-2,1.532602906E0,9.158528328E0
7.660072817E0,3.409772366E-2,1.317847013E0,9.196813583E0
7.680183234E0,-1.339980662E-1,1.188036442E0,9.020342827E0
7.700293650E0,-3.421736360E-1,1.219741344E0,8.501698494E0
7.720404015E0,-4.552344978E-1,1.342373490E0,8.041678429E0
7.740514432E0,-4.175475538E-1,1.502692580E0,7.686942577E0
7.760624848E0,-2.117647976E-1,1.695913076E0,7.477570534E0
7.780735265E0,-1.794616925E-3,1.832303882E0,7.302894592E0
7.800845682E0,2.303091735E-1,1.926820397E0,7.200003147E0
7.820956098E0,5.413761139E-1,1.867598057E0,7.548757076E0
7.841066515E0,8.021938205E-1,1.603191137E0,8.135597229E0
7.861176932E0,7.770691514E-1,1.351944804E0,8.668000221E0
7.881287348E0,3.158525825E-1,1.244866014E0,8.749954224E0
7.901397765E0,-3.672982752E-1,1.323829174E0,8.281558990E0
7.921508182E0,-6.269195080E-1,1.448854089E0,7.802994728E0
7.941618598E0,-4.534398913E-1,1.567298889E0,7.438089371E0
7.961729015E0,-2.877369225E-1,1.712662816E0,7.214360237E0
7.981839432E0,-2.315055877E-1,1.691127419E0,7.240083218E0
8.001949848E0,-1.507478207E-1,1.593619823E0,7.520641804E0
8.022060317E0,-5.742774159E-2,1.566102386E0,7.915457249E0
8.042170734E0,-4.725824669E-2,1.497906923E0,8.251050949E0
8.062281150E0,-1.238285750E-1,1.547558069E0,8.312665939E0
8.082391567E0,-4.995017350E-1,1.748555183E0,7.780262947E0
8.102501984E0,-1.034297585E0,2.072184324E0,6.914061069E0
8.122612452E0,-1.330409408E0,2.364706993E0,6.695117950E0
8.142722869E0,-6.807580590E-1,1.879562140E0,8.392825127E0
8.162833286E0,2.422732860E-1,1.478764415E0,1.279920864E1
8.182943702E0,6.257231236E-1,2.654238462E0,1.626939964E1
8.203054171E0,2.175673962E0,1.192223907E0,1.642553139E1
8.223164588E0,3.162713289E0,-3.912265003E-1,1.584766483E1
8.243275004E0,2.072782516E0,-5.138586760E-1,1.631605911E1
8.263385473E0,4.181457460E-1,-6.640082598E-2,1.621496201E1
8.283495890E0,2.907279432E-1,7.794619799E-1,1.431446362E1
8.303606307E0,1.216750264E0,1.470389485E0,1.141974640E1
8.323716775E0,2.197807550E0,1.838884234E0,9.630513191E0
8.343827192E0,3.120240688E0,1.977667928E0,1.039322472E1
8.363937661E0,3.090928555E0,1.912463546E0,1.166979599E1
8.384048077E0,1.954936147E0,1.531406522E0,1.152622700E1
8.404158546E0,9.702895880E-1,1.008574724E0,1.071864891E1
8.424268963E0,3.451646566E-1,8.781659007E-1,9.874580383E0
8.444379432E0,6.281159073E-2,9.978070259E-1,9.029914856E0
8.464489848E0,-7.716853172E-2,1.202991605E0,7.860422611E0
8.484600317E0,-2.949153781E-1,1.451845169E0,6.551548481E0
8.504710734E0,-2.632105052E-1,1.744367719E0,5.551348686E0
8.524821202E0,1.082752272E-1,2.015354872E0,5.286343575E0
8.544931619E0,5.521438122E-1,2.136192322E0,5.822933674E0
8.565042088E0,7.962117195E-1,1.987239242E0,7.057630539E0
8.585152557E0,7.322037220E-1,1.724626899E0,7.943572998E0
8.605262973E0,7.561319470E-1,1.547558069E0,8.343772888E0
8.625373442E0,9.637092948E-1,1.379462242E0,8.518448830E0
8.645483911E0,9.894321561E-1,1.295713425E0,8.820542336E0
8.665594327E0,6.490531564E-1,1.295713425E0,9.092127800E0
8.685704796E0,2.871387303E-1,1.399801254E0,8.588438988E0
8.705815265E0,2.793620527E-1,1.481755376E0,7.514061451E0
8.725925682E0,4.761717021E-1,1.465005636E0,6.893722057E0
8.746036150E0,5.665007830E-1,1.375274777E0,6.796214581E0
8.766146619E0,6.795616150E-1,1.148554921E0,6.747161865E0
8.786257088E0,8.727820516E-1,9.469595551E-1,6.604788780E0
8.806367504E0,6.293123364E-1,1.320239902E0,6.089135647E0
8.826477973E0,-3.433700502E-1,1.954337835E0,6.121438503E0
8.846588442E0,-1.028315544E0,2.047657967E0,8.015955925E0
8.866698911E0,-9.750752449E-1,1.593021631E0,1.159920788E1
8.886809379E0,-6.089733839E-1,1.648056626E0,1.478644753E1
8.906919848E0,4.546362907E-2,1.573280931E0,1.574896049E1
8.927030317E0,6.364908218E-1,7.597211748E-2,1.583809280E1
8.947140734E0,5.665007830E-1,-2.733799815E-1,1.655294800E1
8.967251202E0,-4.319044948E-1,5.138586760E-1,1.715952873E1
8.987361671E0,-8.644071817E-1,5.335994363E-1,1.651944923E1
9.007472140E0,2.213360965E-1,4.504488707E-1,1.617248917E1
9.027582609E0,8.129615188E-1,8.422735929E-1,1.530210114E1
9.047693077E0,4.809573591E-1,1.010967612E0,1.339143181E1
9.067803546E0,4.785645287E-3,1.228714466E0,1.139880848E1
9.087914015E0,-2.027917206E-1,1.520638824E0,9.718449593E0
9.108024484E0,-3.104687333E-1,1.794616938E0,8.327022552E0
9.128134952E0,-3.882354796E-1,1.992024899E0,7.291528702E0
9.148245421E0,-3.798605800E-1,2.022533417E0,6.803991318E0
9.168355942E0,-2.865405083E-1,1.993819475E0,6.721438885E0
9.188466411E0,-2.410768867E-1,2.021337032E0,6.878767014E0
9.208576879E0,-1.226321608E-1,2.045265198E0,6.883552551E0
9.228687348E0,-4.247260094E-2,2.090728760E0,6.641877651E0
9.248797817E0,1.746760458E-1,1.980658889E0,6.518647194E0
9.268908286E0,5.132604837E-1,1.706082582E0,6.806982040E0
9.289018807E0,8.021938205E-1,1.396211982E0,7.259225845E0
9.309129275E0,8.739784956E-1,9.696913958E-1,8.012366295E0
9.329239744E0,8.847461939E-1,5.808576941E-1,8.983852386E0
9.349350213E0,6.526423693E-1,6.089733839E-1,9.204590797E0
9.369460682E0,-7.776673418E-3,7.980063558E-1,8.221140862E0
9.389571202E0,-6.065805554E-1,8.608179688E-1,6.903891563E0
9.409681671E0,-8.979067206E-1,9.140582681E-1,6.348756790E0
9.429792140E0,-8.123632669E-1,8.931210637E-1,6.840481758E0
9.449902609E0,-6.735795736E-1,9.314061999E-1,7.522436142E0
9.470013129E0,-8.476574421E-1,1.008574724E0,7.734200954E0
9.490123598E0,-9.355936646E-1,1.322034478E0,7.569694519E0
9.510234067E0,-2.464607358E-1,1.709073544E0,7.417151928E0
9.530344588E0,1.125224829E0,1.926222205E0,8.333004951E0
9.550455057E0,1.329811215E0,3.093321562E0,1.017428207E1
9.570565577E0,4.725824594E-1,3.233899832E0,1.192702484E1
9.590676046E0,2.324627161E0,2.231307179E-1,1.688555145E1
9.610786567E0,4.839483738E0,-8.135597110E-1,2.338385963E1
9.630897036E0,4.517649174E0,7.202396393E-1,2.246501541E1
9.651007557E0,1.886142492E0,1.769492388E0,1.497248936E1
9.671118025E0,1.493121386E0,3.001197815E0,1.032921696E1
9.691228546E0,2.919841766E0,3.378067255E0,1.002712345E1
9.711339015E0,3.643072367E0,2.620140791E0,1.190369415E1
9.731449536E0,2.915654421E0,2.147558212E0,1.262812138E1
9.751560004E0,1.763510346E0,2.015354872E0,1.134616661E1
9.771670525E0,1.247258782E0,1.856232166E0,9.186046600E0
9.791780994E0,6.257231236E-1,1.965105653E0,7.569096088E0
9.811891515E0,-7.417750359E-2,1.889133453E0,7.533802032E0
9.832001984E0,-6.281159073E-2,1.634297848E0,7.910073280E0
9.852112504E0,2.255235314E-1,1.758724689E0,7.614559650E0
9.872223025E0,6.430711150E-1,2.070987940E0,6.692126751E0
9.892333494E0,1.160519004E0,2.309073925E0,5.796612740E0
9.912444015E0,1.640878081E0,2.455035925E0,5.309075356E0
9.932554536E0,1.958525300E0,2.325823545E0,5.475974560E0
9.952665004E0,2.701496840E0,2.634497643E0,5.282754421E0
9.972775525E0,2.616551638E0,2.941975355E0,5.134399414E0
9.992886046E0,1.505085468E0,2.384447813E0,5.581857204E0
1.001299657E1,1.137787223E0,1.501496196E0,6.921837807E0
1.003310704E1,1.241874933E0,1.397408366E0,8.355736732E0
1.005321756E1,1.348355532E0,1.344766378E0,8.851649284E0
1.007332808E1,1.770090580E0,1.374676585E0,7.883752346E0
1.009343860E1,2.730808735E0,1.418345571E0,7.173084259E0
1.011354912E1,3.364308596E0,1.520638824E0,7.524230957E0
1.013365959E1,2.276172638E0,1.518245935E0,7.791628838E0
1.015377011E1,1.073779106E0,1.308874011E0,8.073383331E0
1.017388063E1,3.960121572E-1,1.470987678E0,8.850452423E0
1.019399115E1,3.254238665E-1,2.466402054E0,9.574879646E0
1.021410167E1,-3.553341627E-1,3.990629911E0,8.542975426E0
1.023421219E1,2.751746178E-1,3.898506403E0,8.208578110E0
1.025432271E1,3.294916868E0,2.064407825E0,1.232901859E1
1.027443323E1,4.767699242E0,5.700899959E-1,1.879562187E1
1.029454375E1,2.461018085E0,-5.324030295E-2,2.160240364E1
1.031465428E1,2.165504545E-1,-1.968096644E-1,1.958704758E1
1.033476480E1,5.760720372E-1,-2.416750938E-1,1.651705742E1
1.035487532E1,2.007578135E0,-1.262213886E-1,1.495813274E1
1.037498584E1,2.778067112E0,-8.793623000E-2,1.456271839E1
1.039509636E1,2.124826431E0,4.127619043E-2,1.340279770E1
1.041520688E1,1.116251707E0,2.859423161E-1,1.159801102E1
1.043531740E1,5.096712112E-1,5.461617708E-1,9.664012909E0
1.045542792E1,4.666004181E-1,8.494520187E-1,7.932805061E0
1.047553844E1,5.826523304E-1,1.132403374E0,6.682555676E0
1.049564896E1,6.795616150E-1,1.295115232E0,6.058028698E0
1.051575948E1,7.310073376E-1,1.378265858E0,5.885147095E0
1.053587000E1,7.615157962E-1,1.311266780E0,6.202196121E0
1.055598052E1,5.252245665E-1,1.090528965E0,6.906882763E0
1.057609110E1,6.640082598E-2,9.816554785E-1,7.152745247E0
1.059620162E1,-1.154536903E-1,9.619147182E-1,6.859624386E0
1.061631214E1,1.435693540E-2,9.888339639E-1,6.279963017E0
1.063642266E1,3.924229145E-1,8.787640929E-1,6.241079807E0
1.065653323E1,5.635097623E-1,7.800601721E-1,6.912266254E0
1.067664375E1,4.091726840E-1,5.964110494E-1,7.961519241E0
1.069675428E1,2.051845491E-1,4.648058116E-1,8.667402267E0
1.071686480E1,3.469592705E-2,6.089733839E-1,8.446663857E0
1.073697537E1,3.110669367E-2,7.465606928E-1,7.861618996E0
1.075708589E1,3.439682424E-1,1.018744230E0,7.317251682E0
1.077719641E1,6.011967063E-1,1.390828133E0,6.705287457E0
1.079730698E1,7.645068169E-1,1.657627940E0,6.115456581E0
1.081741750E1,9.684949517E-1,1.783251047E0,6.037091732E0
1.083752803E1,1.588235974E0,1.365105271E0,7.324429989E0
1.085763860E1,2.207378864E0,1.296311617E0,9.923633575E0
1.087774912E1,2.223530531E0,1.251446247E0,1.316889954E1
1.089785964E1,2.225325108E0,3.140579760E-1,1.469671631E1
1.091797021E1,2.109273195E0,4.486542568E-2,1.470927906E1
1.093808073E1,2.565704107E0,-1.597209126E-1,1.530748463E1
1.095819131E1,3.365504980E0,-5.395814776E-1,1.644586945E1
1.097830183E1,3.860819340E0,-8.638089895E-1,1.762493324E1
1.099841240E1,3.607778311E0,-1.229312658E0,1.864906120E1
1.101852292E1,2.589632273E0,-1.499103427E0,1.887219238E1
1.103863349E1,1.816152334E0,-1.412363529E0,1.779183197E1
1.105874402E1,1.725225091E0,-9.768698215E-1,1.528953838E1
1.107885459E1,1.575075507E0,-4.432703853E-1,1.287218952E1
1.109896511E1,1.326221943E0,-1.274178028E-1,1.105603695E1
1.111907568E1,1.068993568E0,1.435693651E-1,9.663414001E0
1.113918625E1,8.835497499E-1,3.954139352E-1,8.603393555E0
1.115929678E1,7.070791125E-1,5.784648657E-1,7.603193760E0
1.117940735E1,5.916253924E-1,7.459624410E-1,6.572485447E0
1.119951787E1,5.491527915E-1,9.990034699E-1,5.524429321E0
1.121962844E1,6.538388133E-1,1.302293777E0,4.613361835E0
1.123973902E1,8.285148144E-1,1.552941918E0,3.943969965E0
1.125984954E1,1.036690354E0,1.739582062E0,3.756731510E0
1.127996011E1,1.201795220E0,1.850250125E0,4.313661098E0
1.130007068E1,1.095314622E0,1.811964989E0,5.184050083E0
1.132018125E1,8.446664214E-1,1.729412556E0,5.989833355E0
1.134029178E1,7.537391186E-1,1.670190215E0,6.809973240E0
1.136040235E1,3.589234054E-1,1.628315806E0,7.559525013E0
1.138051292E1,-1.585244983E-1,1.720439434E0,8.081160545E0
1.140062344E1,6.999006122E-2,1.859821439E0,7.981858253E0
1.142073402E1,1.061216831E0,1.905285001E0,8.014161110E0
1.144084459E1,2.074577332E0,2.001596212E0,8.608778000E0
1.146095516E1,2.393420935E0,1.969292998E0,9.541379929E0
1.148106573E1,2.072184324E0,1.483550072E0,1.059003448E1
1.150117631E1,1.304088354E0,1.166501045E0,1.109073257E1
1.152128683E1,6.999006271E-1,1.252044439E0,1.041236782E1
1.154139740E1,1.136590764E-1,2.248056889E0,8.596813202E0
1.156150797E1,7.722834945E-1,2.438884497E0,7.630113125E0
1.158161855E1,3.422334671E0,1.275374413E0,1.091964626E1
1.160172912E1,3.000001431E0,-2.566302419E-1,1.702672768E1
1.162183969E1,-3.840480447E-1,-1.432104349E0,2.002493477E1
1.164195026E1,-3.794418573E0,-1.153340459E0,1.718046570E1
1.166206084E1,-2.544168711E0,-2.979064286E-1,1.345125294E1
1.168217141E1,1.314257860E0,2.045863420E-1,1.190190029E1
1.170228198E1,4.878965378E0,2.380858511E-1,1.297807217E1
1.172239256E1,5.623133183E0,4.564309120E-1,1.420259857E1
1.174250313E1,3.135195971E0,5.922235847E-1,1.365224934E1
1.176261370E1,1.202393413E0,4.498506486E-1,1.253480148E1
1.178272428E1,9.008977413E-1,6.011967063E-1,1.138086224E1
1.180283485E1,1.346560955E0,8.931210637E-1,9.848259926E0
1.182294542E1,1.660618901E0,1.031306505E0,8.163712502E0
1.184305599E1,1.680359721E0,1.158126116E0,6.906284332E0
1.186316657E1,1.432104349E0,1.329213023E0,6.215955257E0
1.188327714E1,1.220937729E0,1.468594909E0,6.081956863E0
1.190338777E1,1.161117196E0,1.515254974E0,6.367899418E0
1.192349834E1,1.195214868E0,1.530210137E0,6.771687984E0
1.194360891E1,1.271785259E0,1.563111424E0,6.990631580E0
1.196371948E1,1.322632670E0,1.642672777E0,7.208976269E0
1.198383006E1,1.387837172E0,1.664806366E0,7.378268719E0
1.200394063E1,1.533201098E0,1.614557028E0,7.483552933E0
1.202405125E1,1.548754454E0,1.499103427E0,7.551748276E0
1.204416183E1,1.499103427E0,1.308275819E0,7.758727551E0
1.206427240E1,1.398604870E0,1.127019525E0,8.140382767E0
1.208438297E1,1.181456208E0,1.094118118E0,8.470592499E0
1.210449360E1,8.386843204E-1,1.176670551E0,8.169694901E0
1.212460417E1,7.310073376E-1,1.331007600E0,7.406384468E0
1.214471474E1,1.061815023E0,1.439880967E0,7.123433113E0
1.216482537E1,1.533799291E0,1.499701619E0,7.551748276E0
1.218493594E1,1.633101463E0,1.532004714E0,8.118846893E0
1.220504652E1,1.462014675E0,1.478166223E0,8.066205025E0
1.222515714E1,1.407577872E0,1.511067510E0,7.760521889E0
1.224526771E1,1.788036704E0,1.672582984E0,7.874779224E0
1.226537829E1,2.495713949E0,1.797009826E0,8.325826645E0
1.228548891E1,3.622135162E0,1.613360643E0,1.047398281E1
1.230559948E1,4.035495281E0,1.881955028E0,1.504247952E1
1.232571011E1,2.705085993E0,2.703889608E0,1.695733643E1
1.234582068E1,1.895115495E0,3.083750248E0,1.364985657E1
1.236593131E1,3.260220766E0,2.630908489E0,1.121695423E1
1.238604188E1,4.508676052E0,2.054836512E0,1.309472179E1
1.240615250E1,3.806382656E0,1.728814363E0,1.587219048E1
1.242626308E1,1.463809252E0,1.827518344E0,1.567478275E1
1.244637370E1,9.308080077E-1,1.588834286E0,1.374497128E1
1.246648428E1,2.946761131E0,1.359123230E0,1.358644676E1
1.248659490E1,4.334598064E0,1.350150228E0,1.481456280E1
1.250670547E1,3.520440340E0,1.252044439E0,1.444606876E1
1.252681610E1,1.502094388E0,1.306481123E0,1.132702446E1
1.254692667E1,5.479564071E-1,1.411167145E0,8.365307808E0
1.256703730E1,4.887340367E-1,1.498505235E0,6.652645111E0
1.258714792E1,6.945167780E-1,1.666600943E0,5.921638012E0
1.260725849E1,9.684949517E-1,1.808375716E0,5.411966801E0
1.262736912E1,1.274776220E0,1.941177368E0,4.989035130E0
1.264747974E1,1.679761529E0,2.082353830E0,5.321039200E0
1.266759032E1,1.866401672E0,2.281556368E0,6.487540245E0
1.268770094E1,1.529611826E0,2.471187592E0,7.586444378E0
1.270781157E1,8.865407705E-1,2.382055044E0,7.908278942E0
1.272792214E1,5.623133108E-2,2.365305185E0,7.512266636E0
1.274803277E1,-2.769692242E-1,2.400599241E0,6.929614544E0
1.276814339E1,1.441675574E-1,2.341377020E0,6.786643028E0
1.278825402E1,9.804590940E-1,2.201396942E0,7.202994347E0
1.280836459E1,1.759322882E0,2.134995937E0,7.270591736E0
1.282847521E1,2.044667006E0,2.141576290E0,6.907480717E0
1.284858584E1,1.799402595E0,2.129014015E0,6.435496330E0
1.286869646E1,1.723430514E0,2.057229280E0,6.405586243E0
1.288880704E1,2.060220242E0,1.906481385E0,6.850052834E0
1.290891766E1,1.983649969E0,1.785045743E0,7.172485828E0
1.292902829E1,1.885544300E0,1.965703845E0,7.021139622E0
1.294913891E1,2.000399828E0,2.076970100E0,7.774280548E0
1.296924954E1,2.047657967E0,1.995614052E0,9.519845009E0
1.298936016E1,2.006979942E0,2.485544443E0,1.046859932E1
1.300947079E1,2.121237278E0,3.053839922E0,9.535996437E0
1.302958141E1,1.857428551E0,3.454637766E0,8.618349075E0
1.304969198E1,7.046862841E-1,4.365705013E0,9.119047165E0
1.306980261E1,-5.844469070E-1,5.340780258E0,1.031545830E1
1.308991323E1,-3.601198196E-1,5.151747227E0,1.236072350E1
1.311002386E1,1.001396298E0,3.808775425E0,1.517528152E1
1.313013448E1,9.804590940E-1,3.579662561E0,1.643211174E1
1.315024511E1,-3.409772217E-1,3.618546009E0,1.513938904E1
1.317035573E1,-5.563312769E-1,2.949752092E0,1.429113293E1
1.319046636E1,-3.403790295E-1,2.321038008E0,1.473081398E1
1.321057698E1,-3.056831062E-1,1.971087694E0,1.509871101E1
1.323068761E1,-1.555334777E-1,1.887937069E0,1.406261826E1
1.325079823E1,-8.673982322E-2,1.917249203E0,1.172363472E1
1.327090886E1,7.417750359E-2,1.853839397E0,9.710074425E0
1.329101948E1,1.052841991E-1,2.059622049E0,8.050053596E0
1.331113011E1,1.040877849E-1,2.184647083E0,6.714858532E0
1.333124079E1,1.884347796E-1,2.414956331E0,5.822335720E0
1.335135141E1,6.436693072E-1,2.626122952E0,5.617151260E0
1.337146204E1,1.505683661E0,2.338984251E0,6.105885029E0
1.339157266E1,1.682752490E0,1.989033818E0,6.575476646E0
1.341168329E1,1.051047325E0,1.897508383E0,6.236293793E0
1.343179391E1,6.077769399E-1,1.986042738E0,5.845067501E0
1.345190454E1,9.463613629E-1,2.413759947E0,6.071787357E0
1.347201521E1,5.210371017E-1,2.807379246E0,5.182255745E0
1.349212584E1,1.573280841E-1,3.132204771E0,4.722833633E0
1.351223646E1,-2.063809484E-1,3.011367321E0,5.191228867E0
1.353234709E1,-4.588237405E-1,2.559123755E0,5.873781204E0
1.355245771E1,-3.661018610E-1,2.434697151E0,6.628118515E0
1.357256839E1,-2.691925503E-2,2.500499725E0,6.899106026E0
1.359267902E1,5.300102234E-1,2.885145903E0,6.790830612E0
1.361278964E1,7.579265833E-1,3.616153240E0,6.569494724E0
1.363290026E1,8.775677085E-1,3.661018610E0,7.214958668E0
1.365301094E1,1.820339799E0,4.126422882E0,1.101954651E1
1.367312157E1,2.580060959E0,5.580062389E0,1.427318668E1
1.369323219E1,2.120040894E0,6.421737671E0,1.588594913E1
1.371334287E1,2.531008244E0,4.227519512E0,2.046640968E1
1.373345349E1,2.018944025E0,2.918047190E0,2.233819580E1
1.375356412E1,1.304088354E0,2.453839540E0,1.998844337E1
1.377367480E1,1.353739381E0,3.346960783E0,1.674437523E1
1.379378542E1,2.043470621E0,4.514060020E0,1.445743465E1
1.381389605E1,3.845864296E0,4.418346882E0,1.352124214E1
1.383400672E1,4.537988186E0,4.309473515E0,1.160160065E1
1.385411735E1,3.146561861E0,3.925425529E0,1.025922680E1
1.387422797E1,1.941177368E0,3.352942705E0,1.058584690E1
1.389433865E1,8.536394835E-1,2.935395241E0,9.567103386E0
1.391444928E1,4.474578202E-1,2.812762976E0,8.608179092E0
1.393455995E1,8.967102766E-1,2.770290375E0,7.309474945E0
1.395467058E1,9.792626500E-1,2.793022156E0,6.057430744E0
1.397478125E1,8.697910309E-1,2.800200701E0,5.880361557E0
1.399489188E1,4.671986103E-1,2.933600664E0,6.608976364E0
1.401500256E1,2.763710022E-1,2.849851847E0,6.709474564E0
1.403511318E1,3.595215976E-1,3.027518749E0,7.165307522E0
1.405522386E1,1.048654556E0,3.209373474E0,6.422336102E0
1.407533448E1,9.152546525E-1,3.533002615E0,6.516852379E0
1.409544516E1,5.563312769E-1,2.871985435E0,9.724431038E0
1.411555579E1,1.136590764E-1,2.941975355E0,1.023470020E1
1.413566646E1,3.469592705E-2,3.021536827E0,9.128020287E0
1.417289418E1,1.730010748E0,3.872185230E0,8.362317085E0
1.419300470E1,1.450648785E0,3.802195072E0,9.417551994E0
1.421311528E1,9.080761671E-1,3.644867182E0,9.610772133E0
1.423322580E1,6.167500615E-1,3.600001574E0,9.547960281E0
1.425333637E1,1.289731383E0,3.375674486E0,7.840681553E0
1.427344689E1,1.260419369E0,3.762713671E0,8.511868477E0
1.429355746E1,1.173679471E0,3.509672642E0,9.140582085E0
1.431366798E1,7.154539824E-1,3.296711445E0,8.617152214E0
1.433377856E1,5.742774606E-1,3.262015581E0,8.196015358E0
1.435388908E1,6.400800347E-1,3.318845034E0,8.295916557E0
1.437399965E1,7.657032609E-1,3.284747362E0,8.311469078E0
1.439411017E1,7.902296782E-1,3.259024382E0,8.146963120E0
1.441422074E1,7.890332937E-1,3.204587698E0,8.051250458E0
1.443433126E1,7.064808607E-1,3.188436270E0,8.162516594E0
1.445444184E1,5.521438122E-1,3.245863914E0,8.289336205E0
1.447455236E1,4.833501875E-1,3.175873756E0,8.012965202E0
1.449466293E1,5.515456200E-1,3.102892876E0,7.680960655E0
1.451477345E1,6.424728632E-1,3.090928555E0,7.572087288E0
1.453488403E1,6.197410822E-1,3.046661377E0,7.488338470E0
1.455499455E1,6.035895348E-1,2.981456995E0,7.663612843E0
1.457510512E1,5.174478889E-1,2.899502754E0,7.765307903E0
1.459521564E1,4.229314029E-1,2.773879766E0,7.733603001E0
1.461532621E1,5.623133183E-1,2.630908489E0,7.693522930E0
1.463543673E1,7.716853023E-1,2.478964329E0,7.673183918E0
1.465554725E1,9.655039310E-1,2.280958176E0,7.354340553E0
1.467565783E1,7.663014531E-1,2.319841623E0,6.807580471E0
1.469576835E1,1.369891018E-1,2.783450842E0,6.302694798E0
1.471587892E1,-4.085744619E-1,3.137588739E0,6.406782627E0
1.473598944E1,-5.324030519E-1,3.253640652E0,8.075178146E0
1.475610001E1,-4.516452849E-1,3.534797192E0,1.071027374E1
1.477621054E1,-1.214357466E-1,4.058825493E0,1.258086300E1
1.479632106E1,1.124626622E-1,4.060021877E0,1.225484085E1
1.481643163E1,6.909275651E-1,3.425325632E0,1.195334530E1
1.483654215E1,8.847461939E-1,3.991826296E0,1.323470211E1
1.485665272E1,-3.230310678E-1,5.169095039E0,1.380957794E1
1.487676324E1,-1.543370605E0,5.289932728E0,1.364925861E1
1.489687376E1,-1.491924882E0,4.753940582E0,1.465185165E1
1.491698434E1,-8.237292171E-1,4.415954113E0,1.539183140E1
1.493709486E1,-4.486542344E-1,4.438087940E0,1.476431370E1
1.495720543E1,-5.156532526E-1,4.472185612E0,1.324068451E1
1.497731595E1,-5.467599630E-1,4.174279213E0,1.229910851E1
1.499742647E1,-5.605186820E-1,3.654438496E0,1.201316643E1
1.501753705E1,-6.849454641E-1,3.147758245E0,1.158365440E1
1.503764757E1,-9.056833982E-1,2.909074068E0,1.067258739E1
1.505775809E1,-1.037288666E0,3.016152859E0,9.192625999E0
1.507786866E1,-8.697910309E-1,3.061616659E0,7.631309509E0
1.509797918E1,-5.413761139E-1,3.002394199E0,7.131209850E0
1.511808970E1,-3.708875179E-1,2.860619545E0,7.588837147E0
1.513820028E1,-3.409772217E-1,2.737987280E0,7.850851059E0
1.515831080E1,-3.547359705E-1,2.671586514E0,7.483552933E0
1.517842132E1,-3.308077157E-1,2.600998163E0,7.039085865E0
1.519853189E1,-3.080759048E-1,2.585444927E0,7.092326164E0
1.521864241E1,-3.224328458E-1,2.620738983E0,7.504489899E0
1.523875293E1,-3.846462369E-1,2.555534601E0,7.986643791E0
1.525886350E1,-3.918247223E-1,2.435295343E0,8.439485550E0
1.527897403E1,-3.260220885E-1,2.388036966E0,8.723034859E0
1.529908455E1,-2.943171859E-1,2.369492531E0,8.587242126E0
1.531919512E1,-2.566302419E-1,2.510071039E0,8.003992081E0
1.533930564E1,-2.470589429E-1,2.717050076E0,7.316653252E0
1.535941616E1,-1.812563092E-1,2.719442844E0,7.065407276E0
1.537952668E1,-5.623133108E-2,2.545963287E0,7.356733322E0
1.539963725E1,-1.256231871E-2,2.375474691E0,7.766504288E0
1.541974778E1,5.982056726E-3,2.313261271E0,7.728219032E0
1.543985830E1,1.160518974E-1,2.388635159E0,7.345965385E0
1.545996887E1,3.409772217E-1,2.537588358E0,7.207779884E0
1.548007939E1,4.432703853E-1,2.593819857E0,7.503891945E0
1.550018991E1,4.241278172E-1,2.448455811E0,7.852645874E0
1.552030043E1,4.570291340E-1,2.304288149E0,8.227122307E0
1.554041095E1,4.115654826E-1,2.432902336E0,8.087740898E0
1.556052153E1,9.690931439E-2,2.909672260E0,7.339983463E0
1.558063205E1,-1.429711580E-1,3.381656647E0,6.982256413E0
1.560074257E1,2.464607358E-1,3.235694408E0,8.194221497E0
1.562085309E1,1.339980721E0,2.425125837E0,1.077906799E1
1.564096366E1,1.924427629E0,2.274976015E0,1.401117325E1
1.566107418E1,8.285148144E-1,3.820739508E0,1.372283745E1
1.568118470E1,4.558327198E-1,3.870390654E0,1.200479126E1
1.570129522E1,2.315055847E0,2.385644197E0,1.452981758E1
1.572140574E1,2.694318295E0,2.132603168E0,1.785763550E1
1.574151632E1,1.310070395E0,2.380858421E0,1.829911041E1
1.576162684E1,5.138586760E-1,2.527418852E0,1.536192131E1
1.578173736E1,1.193420291E0,2.989233732E0,1.258265781E1
1.580184788E1,1.980658889E0,3.068794966E0,1.164287663E1
1.582195840E1,2.177468538E0,3.005983353E0,1.141077328E1
1.584206892E1,1.930409670E0,2.898306370E0,1.070548820E1
1.586217949E1,1.473978758E0,2.662015200E0,9.728020668E0
1.588229001E1,1.027119160E0,2.443071842E0,8.747561455E0
1.590240054E1,6.825526357E-1,2.346162558E0,7.755138397E0
1.592251106E1,5.479564071E-1,2.365903378E0,6.865606308E0
1.594262158E1,5.395814776E-1,2.458625317E0,6.144170284E0
1.596273210E1,4.893322289E-1,2.554936409E0,5.781059742E0
1.598284267E1,5.341976285E-1,2.556132793E0,6.067001820E0
1.600295319E1,8.470591903E-1,2.438884497E0,7.138388157E0
1.602306371E1,1.261615753E0,2.278565407E0,8.057829857E0
1.604317423E1,1.602592945E0,2.132004976E0,8.596813202E0
1.606328475E1,1.534397483E0,1.931606054E0,8.922237396E0
1.608339528E1,1.276570916E0,1.730608940E0,9.135198593E0
1.610350580E1,8.644071817E-1,1.612164259E0,9.096315384E0
1.612361632E1,7.004988194E-1,1.605584025E0,8.609973907E0
1.614372684E1,7.292127013E-1,1.877767563E0,7.864609718E0
1.616383741E1,5.641079545E-1,2.301895380E0,7.006783009E0
1.618394793E1,4.773681164E-1,2.563909531E0,6.317051888E0
1.620405845E1,4.857429862E-1,2.616551638E0,6.337390900E0
1.622416897E1,5.856433511E-1,2.474776745E0,7.271788120E0
1.624427949E1,8.865407705E-1,2.216950178E0,8.199604988E0
1.626439001E1,1.164706469E0,2.118844509E0,8.453244209E0
1.628450054E1,1.196411371E0,2.151745796E0,8.469993591E0
1.630461106E1,1.057627559E0,2.346760750E0,8.545966148E0
1.632472158E1,6.765705943E-1,2.740978241E0,8.392825127E0
1.634483210E1,3.667000830E-1,3.028116941E0,8.448458672E0
1.636494262E1,4.450650215E-1,3.071786165E0,9.412766457E0
1.638505314E1,4.265206456E-1,3.107080221E0,1.087478065E1
1.640516366E1,1.022931710E-1,3.774079561E0,1.219322586E1
1.642527418E1,-6.281159073E-2,4.211368084E0,1.292542934E1
1.644538475E1,7.974081635E-1,2.965903759E0,1.450828171E1
1.646549522E1,1.034297585E0,2.870190859E0,1.593440437E1
1.648560574E1,-1.986042857E-1,3.794418573E0,1.517767429E1
1.650571626E1,-1.211964726E0,3.675973892E0,1.375394440E1
1.652582684E1,-4.953143001E-1,3.401397467E0,1.434915924E1
1.654593731E1,2.213360965E-1,3.218944550E0,1.468056488E1
1.656604788E1,-2.632104978E-2,2.634497643E0,1.382333660E1
1.658615835E1,-3.547359705E-1,2.426322222E0,1.212203979E1
1.660626892E1,-3.457628787E-1,2.500499725E0,1.022453117E1
1.662637939E1,-4.001995921E-1,2.413161755E0,8.483752251E0
1.664648991E1,-8.398807645E-1,2.547159672E0,7.097710133E0
1.666660043E1,-1.006780148E0,2.775674343E0,6.005386829E0
1.668671095E1,-3.726821244E-1,2.763111830E0,5.347958565E0
1.670682147E1,4.085744619E-1,2.745764017E0,5.508875847E0
1.672693199E1,1.057627559E0,2.794816732E0,6.141179085E0
1.674704251E1,1.180259824E0,2.785245657E0,6.649055958E0
1.676715304E1,9.320043921E-1,2.667997360E0,6.939784050E0
1.678726356E1,6.879364848E-1,2.496312141E0,7.324429989E0
1.680737408E1,5.808576941E-1,2.293520451E0,7.850253105E0
1.682748460E1,6.807580590E-1,1.935793519E0,8.781061172E0
1.684759512E1,6.388836503E-1,1.549352646E0,9.839286804E0
1.686770564E1,4.331009090E-1,1.344168067E0,1.022333431E1
1.688781616E1,1.896311939E-1,1.435095429E0,9.248259544E0
1.690792668E1,1.082752272E-1,1.710868239E0,7.768298626E0
1.692803720E1,1.465603858E-1,2.010569334E0,6.917650223E0
1.694814772E1,1.728814393E-1,2.361117840E0,6.557530403E0
1.696825824E1,1.920240223E-1,2.657229662E0,6.498308182E0
1.698836876E1,1.304088384E-1,2.886940479E0,6.768697262E0
1.700847928E1,-1.495514158E-2,3.097508907E0,7.104888439E0
1.702858975E1,-3.260220885E-1,3.482753277E0,7.075576782E0
1.704870028E1,-8.057830334E-1,4.128217220E0,6.789634228E0
1.706881080E1,-1.114457130E0,4.674378872E0,7.183253765E0
1.708892132E1,-2.051845491E-1,4.009772778E0,9.159725189E0
1.710903184E1,1.852642894E0,2.481955290E0,1.285783291E1
1.712914236E1,2.259422779E0,2.109871387E0,1.571366596E1
1.714925288E1,1.133001566E0,2.310868502E0,1.609113503E1
1.716936340E1,8.392825127E-1,1.365703583E0,1.592722607E1
1.718947392E1,1.488933921E0,9.403793216E-1,1.627657700E1
1.720958439E1,2.140379906E0,9.146564603E-1,1.594277954E1
1.722969491E1,1.554736495E0,1.420140266E0,1.445563984E1
1.724980543E1,5.443671346E-1,2.311466694E0,1.242174053E1
1.726991595E1,2.440679073E-1,2.814557552E0,1.045783138E1
1.729002647E1,6.454638839E-1,2.867199659E0,8.890532494E0
1.731013699E1,2.907279432E-1,3.677768469E0,7.630113125E0
1.733024751E1,2.793620527E-1,3.981058598E0,6.838088989E0
1.735035798E1,-1.435693540E-2,3.931407690E0,6.618547440E0
1.737046850E1,-5.497509837E-1,3.829712629E0,6.954739094E0
1.739057902E1,-2.249253243E-1,3.004786968E0,7.310671329E0
1.741068954E1,-4.127619043E-2,2.663211584E0,7.978867054E0
1.743080007E1,1.118644550E-1,2.848655462E0,8.452047348E0
1.745091054E1,7.806583643E-1,2.579462767E0,8.642276764E0
1.747102106E1,1.399801254E0,2.158325911E0,8.928817749E0
1.749113158E1,1.735992789E0,1.789831281E0,9.637691498E0
1.751124210E1,1.482951880E0,1.515254974E0,1.019043350E1
1.753135262E1,6.819544435E-1,1.230509043E0,1.005284595E1
1.755146309E1,1.375873014E-2,1.090528965E0,9.437292099E0
1.757157361E1,-2.183450609E-1,1.223928809E0,8.803194046E0
1.759168413E1,-5.922235921E-2,1.576870084E0,8.233104706E0
1.761179465E1,2.691925503E-2,1.800599098E0,7.469794273E0
1.763190517E1,1.256231871E-2,1.966900229E0,6.496513367E0
1.765201564E1,2.811566554E-2,2.163111687E0,5.698507309E0
1.767212616E1,3.242274821E-1,2.176272154E0,5.724828243E0
1.769223668E1,8.213363886E-1,1.826321840E0,7.092924595E0
1.771234720E1,1.019940615E0,1.556531072E0,9.043074608E0
1.773245767E1,1.050449133E0,1.520638824E0,1.019162941E1
1.775256819E1,8.937192559E-1,1.509871125E0,9.961320877E0
1.777267871E1,4.540380836E-1,1.738983870E0,8.887541771E0
1.779278923E1,-8.494520187E-2,2.300100803E0,8.017750740E0
1.781289970E1,2.333002165E-2,2.651247501E0,8.075776100E0
1.783301022E1,5.449653864E-1,2.544766903E0,9.767501831E0
1.785312074E1,5.204389095E-1,2.431705952E0,1.205563831E1
1.787323126E1,1.328016520E-1,2.587837696E0,1.346022511E1
1.789334173E1,-6.502495408E-1,3.394218922E0,1.187139130E1
1.791345225E1,-4.301098585E-1,3.591028690E0,1.079162979E1
1.793356278E1,1.365703583E0,2.054238319E0,1.369232941E1
1.795367324E1,2.010569334E0,1.185045362E0,1.774457359E1
1.797378376E1,8.614161611E-1,1.171884894E0,1.875374794E1
1.799389429E1,-1.992024779E-1,1.188036442E0,1.597029686E1
1.801400475E1,-8.673982322E-2,1.304686546E0,1.298824120E1
1.803411528E1,4.037888348E-1,1.435693622E0,1.137906837E1
1.805422580E1,4.378865361E-1,1.429711580E0,1.005224800E1
1.807433626E1,2.632105052E-1,1.502094388E0,8.596813202E0
1.809444679E1,2.931207791E-2,1.660020709E0,7.311867714E0
1.811455731E1,-1.381855011E-1,1.731805444E0,6.524031162E0
1.813466778E1,-2.667997181E-1,1.677966833E0,6.464210510E0
1.815477830E1,-3.702892959E-1,1.479960799E0,7.131807804E0
1.817488882E1,-3.984049559E-1,1.332203984E0,7.773682594E0
1.819499934E1,-3.122633696E-1,1.016351461E0,8.035696983E0
1.821510981E1,-2.632104978E-2,8.189435601E-1,8.248059273E0
1.823522033E1,2.003988922E-1,1.119840980E0,8.495717049E0
1.825533085E1,2.201396823E-1,1.357328653E0,8.024331093E0
1.827544132E1,5.114658475E-1,1.228116274E0,7.419544697E0
1.829555184E1,6.370890141E-1,1.015154958E0,7.503293514E0
1.831566231E1,2.757728100E-1,9.086744189E-1,7.771289825E0
1.833577283E1,-3.571287692E-1,1.042672515E0,7.377072334E0
1.835588335E1,-6.664010882E-1,1.234098315E0,6.941578388E0
1.837599382E1,-5.760720372E-1,1.283151150E0,6.784250259E0
1.839610434E1,-1.710868180E-1,1.283151150E0,7.327421188E0
1.841621486E1,-2.087737769E-1,1.602592945E0,7.934599876E0
1.843632533E1,-8.937192559E-1,2.118246317E0,7.917252064E0
1.845643585E1,-1.226321578E0,2.531008244E0,7.870592117E0
1.847654632E1,-8.542376757E-1,2.427518606E0,9.245866776E0
1.849665684E1,5.270192027E-1,2.233101845E0,1.189771271E1
1.851676736E1,1.820339799E0,2.597409010E0,1.364028549E1
1.853687783E1,2.727219582E0,2.106880426E0,1.350927830E1
1.855698835E1,2.874378204E0,1.383051515E0,1.397169113E1
1.857709882E1,1.971685886E0,1.354935765E0,1.606002808E1
1.859720934E1,1.222732425E0,1.068395257E0,1.799043655E1
1.861731986E1,1.071984529E0,1.002592683E0,1.783729553E1
1.863743033E1,1.752742529E0,1.031306505E0,1.609950829E1
1.865754085E1,1.800000787E0,1.051645517E0,1.433839130E1
1.867765132E1,1.223928809E0,1.423729420E0,1.321376514E1
1.869776184E1,8.243274093E-1,1.670190215E0,1.159980583E1
1.871787236E1,5.102694035E-1,1.737787485E0,9.647860527E0
1.873798283E1,1.064806059E-1,1.691127419E0,8.243872643E0
1.875809335E1,-3.355933726E-1,1.552343726E0,7.513463020E0
1.877820382E1,-5.060819983E-1,1.582253933E0,6.974479675E0
1.879831434E1,-3.696911037E-1,1.714457393E0,6.342774391E0
1.881842481E1,-2.428714931E-1,2.132603168E0,5.509474277E0
1.883853533E1,-8.374879509E-2,2.467598438E0,5.014758110E0
1.885864580E1,2.195414752E-1,2.394019127E0,5.901299000E0
1.887875632E1,3.140579760E-1,2.145763636E0,7.800601959E0
1.889886679E1,2.715853751E-1,1.795813441E0,9.028717995E0
1.891897731E1,1.884347796E-1,1.322034478E0,9.118449211E0
1.893908778E1,-1.555334777E-1,1.122832060E0,8.503493309E0
1.895919830E1,-6.323033571E-1,1.219143152E0,7.478767395E0
1.897930876E1,-5.820540786E-1,1.290927768E0,6.636493683E0
1.899941929E1,-2.117647976E-1,1.484148264E0,7.173084259E0
1.901952975E1,-6.161518395E-2,2.072782516E0,8.376075745E0
1.903964028E1,-5.144568533E-2,2.256431818E0,8.795417786E0
1.905975074E1,-5.024927482E-2,2.005783558E0,8.783453941E0
1.907986126E1,9.810572863E-2,1.724626899E0,8.904889107E0
1.909997173E1,5.204389244E-2,1.589432478E0,8.582456589E0
1.912008225E1,4.187439568E-3,1.870589137E0,8.046463966E0
1.914019272E1,3.481557071E-1,1.959123492E0,8.092526436E0
1.916030324E1,5.778666735E-1,1.583450437E0,9.507282257E0
1.918041371E1,6.263213158E-1,1.523629785E0,1.104048347E1
1.920052423E1,2.452643216E-1,1.637288928E0,1.136231804E1
1.922063470E1,-5.988038778E-1,2.138585329E0,1.028734303E1
1.924074522E1,-1.051645517E0,2.496312141E0,9.969097137E0
1.926085569E1,2.703889608E-1,1.447059512E0,1.234337521E1
1.928096621E1,1.229910851E0,9.906286001E-1,1.549591923E1
1.930107668E1,5.934200287E-1,1.058824062E0,1.657567978E1
1.932118720E1,-4.480560422E-1,7.184450030E-1,1.561137295E1
1.934129767E1,-3.266202807E-1,5.258227587E-1,1.511306763E1
1.936140819E1,5.724828243E-1,5.132604837E-1,1.479841137E1
1.938151866E1,6.873382926E-1,6.089733839E-1,1.363908863E1
1.940162913E1,1.244267747E-1,9.068797827E-1,1.173918819E1
1.942173965E1,-3.541377485E-1,1.246660590E0,9.598808289E0
1.944185012E1,-3.523431420E-1,1.368096352E0,7.711469173E0
1.946196064E1,-2.961117923E-1,1.443470240E0,6.738786697E0
1.948207111E1,-5.808576941E-1,1.494915962E0,6.728617191E0
1.950218158E1,-9.720842242E-1,1.714457393E0,6.818347931E0
1.952229210E1,-1.119840980E0,1.833500385E0,6.763313293E0
1.954240257E1,-7.531409264E-1,1.600200176E0,7.060621262E0
1.956251309E1,-2.362912297E-1,1.636690736E0,7.356134892E0
1.958262356E1,1.674975827E-2,1.798206210E0,7.335197926E0
1.960273408E1,1.052841991E-1,1.832902193E0,7.223333359E0
1.962284455E1,1.393819153E-1,1.760519266E0,6.980462074E0
1.964295501E1,1.010967568E-1,1.469791293E0,6.809973240E0
1.966306554E1,-1.082752272E-1,1.186840057E0,6.872186661E0
1.968317600E1,-2.249253243E-1,8.081758618E-1,7.260422230E0
1.970328653E1,-9.571290761E-2,5.808576941E-1,7.530810833E0
1.972339699E1,-3.649054468E-2,8.291130662E-1,7.162316322E0
1.974350746E1,-1.483550072E-1,1.387837172E0,6.236293793E0
1.976361798E1,-1.680957973E-1,1.756331801E0,5.494519234E0
1.978372845E1,-5.144568533E-2,2.142772675E0,5.998806477E0
1.980383892E1,1.072582722E0,1.996810555E0,8.553742409E0
1.982394944E1,1.665404558E0,1.323829174E0,1.206640625E1
1.984405991E1,1.342971683E0,1.308275819E0,1.424148178E1
1.986417043E1,1.560120344E0,8.763712645E-1,1.330588818E1
1.988428090E1,2.848057270E0,7.716853172E-2,1.529552078E1
1.990439137E1,2.618346214E0,-2.829512656E-1,1.960200310E1
1.992450189E1,1.059422255E0,-1.030110121E0,2.168017006E1
1.994461236E1,-2.793620527E-1,-1.243071318E0,1.985504341E1
1.996472288E1,4.073780477E-1,-7.339983582E-1,1.695374680E1
1.998483335E1,1.534397483E0,-2.985046208E-1,1.456212044E1
2.000494382E1,1.908874273E0,3.230310604E-2,1.283270741E1
2.002505429E1,1.200000525E0,3.696911037E-1,1.164287663E1
2.004516481E1,1.423729509E-1,6.143572330E-1,1.028495026E1
2.006527528E1,-5.174478889E-1,8.338986635E-1,8.599804878E0
2.008538574E1,-5.353940725E-1,1.191625714E0,6.860222340E0
2.010549626E1,-1.471585929E-1,1.422533035E0,5.570491314E0
2.012560673E1,1.423729509E-1,1.569691658E0,5.201996326E0
2.014571720E1,2.727817893E-1,1.845464468E0,5.801996708E0
2.016582772E1,8.793623000E-2,1.908276081E0,6.047859192E0
2.018593819E1,-1.734796464E-1,1.814955950E0,5.716453075E0
2.020604866E1,4.007977992E-2,1.735394597E0,5.930611134E0
2.022615918E1,6.693921089E-1,1.480558991E0,6.913462639E0
2.024626965E1,1.033101201E0,1.111466169E0,7.728816986E0
2.026638012E1,9.134600163E-1,7.369893789E-1,8.312067986E0
2.028649064E1,4.205385745E-1,4.965106845E-1,8.876773834E0
2.030660111E1,-1.274178028E-1,4.504488707E-1,8.950951576E0
2.032671158E1,-1.280160099E-1,5.820540786E-1,8.095517159E0
2.034682210E1,2.386840582E-1,9.032905698E-1,7.082755089E0
2.036693257E1,5.300102234E-1,1.235892892E0,6.223731518E0
2.038704304E1,7.028916478E-1,1.313061476E0,5.635097504E0
2.040715356E1,1.059422255E0,1.166501045E0,5.889334679E0
2.042726403E1,1.555932879E0,1.047458172E0,6.879364967E0
2.044737449E1,1.403988719E0,9.122636318E-1,7.312466145E0
2.046748496E1,9.511470199E-1,9.343972206E-1,6.601199627E0
2.048759548E1,5.611169338E-1,8.919246197E-1,6.380461693E0
2.050770595E1,4.576273263E-1,6.699903607E-1,8.303692818E0
2.052781642E1,4.791627228E-1,4.761717021E-1,1.069711399E1
2.054792694E1,4.648058116E-1,4.426721931E-1,1.272443295E1
2.056803741E1,5.796613097E-1,4.642075896E-1,1.455374527E1
2.058814788E1,1.101894855E0,3.541377485E-1,1.656072617E1
2.060825835E1,1.710269928E0,2.793620527E-1,1.769432449E1
2.062836887E1,2.066800594E0,4.917250574E-1,1.708295822E1
2.064847934E1,1.966302037E0,7.034898400E-1,1.629213142E1
2.066858981E1,1.479960799E0,6.544370055E-1,1.664866257E1
2.068870028E1,1.022333503E0,4.390829504E-1,1.709671783E1
2.070881080E1,5.365904570E-1,2.626122832E-1,1.660080528E1
2.072892126E1,3.373879790E-1,1.692921966E-1,1.552044582E1
2.074903173E1,4.103690982E-1,1.543370634E-1,1.454955769E1
2.076914225E1,3.882354796E-1,2.500499785E-1,1.345244884E1
2.078925272E1,3.631108403E-1,3.044866920E-1,1.194317627E1
2.080936319E1,3.720839322E-1,4.474578202E-1,1.017069244E1
2.082947366E1,4.151547253E-1,5.497509837E-1,8.266005516E0
2.084958418E1,4.426721931E-1,5.922235847E-1,6.932007313E0
2.086969465E1,2.721835673E-1,7.357929349E-1,6.391229153E0
2.088980512E1,-5.922235921E-2,8.225327730E-1,6.040082455E0
2.090991559E1,-4.115654826E-1,6.903293133E-1,6.003592014E0
2.093002611E1,-7.184450030E-1,6.161518097E-1,6.540182590E0
2.095013658E1,-7.046862841E-1,6.263213158E-1,6.931408882E0
2.097024704E1,-4.863412082E-1,7.704889178E-1,6.649055958E0
2.099035751E1,-4.211367965E-1,9.373882413E-1,6.000002861E0
2.101046804E1,-4.325026870E-1,1.007976532E0,5.891129494E0
2.103057850E1,-3.756731451E-1,1.046859860E0,6.580262184E0
2.105068897E1,-2.691925466E-1,1.180259824E0,7.279564857E0
2.107079944E1,-1.830509305E-1,1.316650629E0,7.303493023E0
2.109090996E1,5.982056633E-2,1.415952802E0,6.668796539E0
2.111102043E1,6.113662124E-1,1.394417405E0,6.516852379E0
2.113113090E1,1.128215909E0,1.266401410E0,7.341778278E0
2.115124137E1,9.894321561E-1,1.125823021E0,7.978867054E0
2.117135184E1,2.171486616E-1,1.069591761E0,7.700701237E0
2.119146236E1,-2.075773627E-1,1.174875975E0,6.944569588E0
2.121157283E1,-5.443671346E-2,1.290927768E0,6.637690067E0
2.123168330E1,3.541377485E-1,1.319043517E0,6.461219311E0
2.125179376E1,9.954141974E-1,8.608179688E-1,7.261618614E0
2.127190428E1,1.594816327E0,9.690931439E-2,9.862616539E0
2.129201475E1,1.522433400E0,1.734796353E-2,1.290509033E1
2.131212522E1,1.941775560E0,1.304088384E-1,1.347577858E1
2.133223569E1,3.239881754E0,-1.184447184E-1,1.333819199E1
2.135234621E1,4.362713814E0,-5.922235921E-2,1.483430386E1
2.137245668E1,3.789034605E0,-2.853440940E-1,1.675693703E1
2.139256715E1,2.234896421E0,-8.368897438E-1,1.694597054E1
2.141267762E1,1.363310695E0,-1.057627559E0,1.683589935E1
2.143278814E1,1.400997639E0,-8.841479421E-1,1.660738564E1
2.145289861E1,1.451246977E0,-5.294120312E-1,1.572802353E1
2.147300908E1,1.384247899E0,-3.403790295E-1,1.481934929E1
2.149311955E1,1.407577872E0,-2.835494876E-1,1.409193039E1
2.151323001E1,1.274776220E0,-1.728814393E-1,1.284467220E1
2.153334054E1,9.678967595E-1,8.913264424E-2,1.090648556E1
2.155345100E1,8.422735929E-1,4.253242314E-1,9.007781029E0
2.157356147E1,7.992027402E-1,7.016952634E-1,7.295716286E0
2.159367194E1,8.685946465E-1,8.614161611E-1,5.903691769E0
2.161378246E1,8.518448472E-1,9.655039310E-1,5.149354458E0
2.163389293E1,6.311069727E-1,9.954141974E-1,5.461019516E0
2.165400340E1,3.056831062E-1,8.721838593E-1,6.332006931E0
2.167411387E1,2.518445849E-1,8.440681696E-1,7.005586624E0
2.169422434E1,4.193421602E-1,1.011565804E0,7.015157700E0
2.171433486E1,7.106683254E-1,1.083350420E0,6.996613503E0
2.173444533E1,8.793623447E-1,1.077966571E0,7.395018578E0
2.175455580E1,8.775677085E-1,1.063609719E0,7.994420528E0
2.177466626E1,6.867401004E-1,9.876375198E-1,8.389834404E0
2.179477679E1,5.246263742E-1,8.039883971E-1,8.688339233E0
2.181488725E1,4.971089065E-1,7.585247755E-1,9.047860146E0
2.183499772E1,7.154539824E-1,9.104689956E-1,9.000602722E0
2.185510819E1,1.117448211E0,1.076171994E0,8.654241562E0
2.187521866E1,1.259821177E0,1.219143152E0,8.465208054E0
2.189532918E1,1.105484009E0,1.359721422E0,8.686544418E0
2.191543965E1,6.305087805E-1,1.326820135E0,8.973084450E0
2.193555012E1,1.722832322E-1,1.077368379E0,9.686744690E0
2.195566059E1,-2.907279432E-1,1.245464206E0,1.072881889E1
2.197577111E1,-1.101296663E0,2.560918331E0,1.155912781E1
2.199588158E1,-1.133001566E0,3.667598963E0,1.193539906E1
2.201599204E1,1.377069473E0,2.359921217E0,1.310429287E1
2.203610251E1,4.354937077E0,7.794619799E-1,1.657687759E1
2.205621304E1,4.721637249E0,0.000000000E0,2.028036880E1
2.207632350E1,2.446661234E0,-3.314059377E-1,1.941117477E1
2.209643397E1,4.127618968E-1,-3.373879790E-1,1.532363605E1
2.211654444E1,5.108676553E-1,-2.991028363E-3,1.239123249E1
2.213665491E1,1.483550072E0,3.469592929E-1,1.156211948E1
2.215676543E1,1.893919110E0,4.259224236E-1,1.120319557E1
2.217687590E1,1.481157184E0,3.990031779E-1,9.993623734E0
2.219698637E1,8.093722463E-1,4.869394004E-1,8.399405479E0
2.221709684E1,3.990031779E-1,6.927221417E-1,6.974479675E0
2.223720736E1,2.715853751E-1,9.308080077E-1,5.742176056E0
2.225731783E1,4.199403822E-1,1.109671474E0,5.054837704E0
2.227742830E1,8.853443861E-1,1.335195065E0,5.149354458E0
2.229753876E1,1.253240824E0,1.498505235E0,5.791827202E0
2.231764928E1,1.101894855E0,1.523031592E0,6.655636311E0
2.233775975E1,4.761717021E-1,1.564906001E0,6.865606308E0
2.235787022E1,1.136590764E-1,1.543968797E0,6.548557281E0
2.237798069E1,3.445664644E-1,1.445264935E0,6.405586243E0
2.239809116E1,1.022931695E0,1.271785259E0,6.945765972E0
2.241820168E1,1.481755376E0,9.894321561E-1,7.722835064E0
2.243831215E1,8.763712645E-1,8.273184299E-1,8.930013657E0
2.245842262E1,3.708875179E-2,9.876375198E-1,9.118449211E0
2.247853309E1,1.453639716E-1,1.232901812E0,7.963912010E0
2.249864356E1,1.351346612E0,1.265205026E0,6.550950050E0
2.251875408E1,2.569293261E0,1.570289850E0,5.982655048E0
2.253886455E1,2.843869686E0,1.973480463E0,6.311069489E0
2.255897501E1,2.051247120E0,1.980658889E0,6.352345943E0
2.257908548E1,8.021938205E-1,1.807179332E0,6.070590973E0
2.259919600E1,-3.349951655E-2,1.689931035E0,6.352943897E0
2.261930647E1,-1.310070455E-1,1.850250125E0,7.328617573E0
2.263941694E1,6.783652306E-1,2.198405743E0,8.148757935E0
2.265952741E1,1.616949916E0,2.499901533E0,7.893323898E0
2.267963793E1,2.079362869E0,2.246860504E0,8.466404915E0
2.269974840E1,1.391426325E0,2.676970243E0,9.990633011E0
2.271985887E1,1.262213945E0,3.090330362E0,1.073599720E1
2.273996934E1,3.516851187E0,6.239284873E-1,1.450349617E1
2.276007986E1,4.153940201E0,-5.204389095E-1,2.072064781E1
2.278019033E1,2.851646423E0,-9.128618240E-1,2.426561356E1
2.280030080E1,1.238883972E0,-1.474576950E0,2.179741859E1
2.282041126E1,1.559522152E0,-8.159525394E-1,1.753819275E1
2.284052178E1,3.031706333E0,1.549352705E-1,1.464826202E1
2.286063225E1,3.762115479E0,5.599204898E-1,1.337767315E1
2.288074272E1,3.239881754E0,8.362914920E-1,1.267956734E1
2.290085319E1,1.962712765E0,9.122636318E-1,1.195155048E1
2.292096371E1,7.411768436E-1,7.615157962E-1,1.094417286E1
2.294107418E1,-5.144568533E-2,7.244270444E-1,9.613762856E0
2.296118465E1,-3.463610709E-1,8.063812256E-1,8.087141991E0
2.298129512E1,-2.733799815E-1,9.720842242E-1,6.682555676E0
2.300140564E1,-3.589234129E-2,1.162313581E0,5.572285652E0
2.302151611E1,1.770688742E-1,1.264606714E0,4.787439823E0
2.304162658E1,1.633101404E-1,1.207777262E0,4.444069862E0
2.306173704E1,-4.354937077E-1,6.329016089E-1,4.750949383E0
2.308184757E1,-6.275177598E-1,4.995017350E-1,5.299503803E0
2.310195804E1,-3.050848842E-1,1.765304923E0,5.644070625E0
2.312206850E1,1.090528965E0,1.487737536E0,5.286343575E0
2.314217897E1,2.065006018E0,1.201795220E0,5.422734261E0
2.316228949E1,1.960319996E0,9.218349457E-1,6.791429043E0
2.318239996E1,1.219741344E0,3.942175210E-1,8.475378036E0
2.320251043E1,3.559323549E-1,1.746760458E-1,9.660423279E0
2.322262090E1,-2.129612118E-1,4.073780477E-1,8.965906143E0
2.324273137E1,-7.776673883E-2,7.429714203E-1,7.813164234E0
2.326284189E1,4.193421602E-1,1.304686546E0,7.084549427E0
2.328295236E1,6.412764788E-1,1.886142492E0,6.040082455E0
2.330306283E1,5.563312769E-1,2.018345833E0,5.507679462E0
2.332317335E1,3.367897868E-1,1.575673699E0,7.415955544E0
2.334328382E1,2.135594189E-1,1.433300734E0,1.005823040E1
2.336339429E1,6.999006122E-2,2.076970100E0,1.041057301E1
2.338350475E1,-4.187439568E-3,1.127617717E0,1.168774223E1
2.340361528E1,2.584248483E-1,-3.140579760E-1,1.713859177E1
2.342372574E1,2.811566554E-2,-9.954141974E-1,2.181895256E1
2.344383621E1,-2.057827413E-1,-1.254437327E0,2.097368813E1
2.346394668E1,1.854437590E-1,-1.133001566E0,1.783011818E1
2.348405720E1,1.153938770E0,-7.531409264E-1,1.664088440E1
2.350416767E1,1.488933921E0,-5.090730190E-1,1.651466370E1
2.352427814E1,8.596215248E-1,-3.678964674E-1,1.559641838E1
2.354438861E1,1.172483116E-1,-3.529413417E-2,1.355055428E1
2.356449913E1,-8.913264424E-2,3.864408433E-1,1.145384407E1
2.358460960E1,3.649054468E-2,8.015955687E-1,9.613762856E0
2.360472007E1,2.153540403E-2,1.086341500E0,8.196015358E0
2.362483054E1,-8.315058798E-2,1.229312658E0,7.383054256E0
2.364494106E1,-1.776670814E-1,1.322034478E0,7.170093060E0
2.366505153E1,-4.301098585E-1,1.322632670E0,7.141977310E0
2.368516199E1,-7.094719410E-1,1.316052437E0,7.208976269E0
2.370527251E1,-6.915257573E-1,1.324427366E0,7.126423836E0
2.372538298E1,-3.385843933E-1,1.295713425E0,7.032505512E0
2.374549345E1,1.728814393E-1,1.312463164E0,7.036693096E0
2.376560392E1,7.046862841E-1,1.304686546E0,7.186842918E0
2.378571444E1,9.696913958E-1,1.464407444E0,7.351349354E0
2.380582491E1,8.201399446E-1,1.516451359E0,6.833303452E0
2.382593538E1,6.107679605E-1,1.464407444E0,6.195017815E0
2.384604590E1,3.960121572E-1,1.418345571E0,6.340980053E0
2.386615637E1,1.220339537E-1,1.347159147E0,7.107879639E0
2.388626684E1,-1.304088384E-1,1.451845169E0,7.429714203E0
2.390637731E1,-2.303091735E-1,1.521835208E0,7.231708050E0
2.392648783E1,-1.627119333E-1,1.608574986E0,7.377072334E0
2.394659830E1,7.716853172E-2,1.896311998E0,7.756334782E0
2.396670876E1,-1.794617064E-2,2.170888424E0,7.653443336E0
2.398681923E1,-1.692921966E-1,2.382055044E0,7.671987534E0
2.400692975E1,1.543370634E-1,2.012962103E0,9.157332420E0
2.402704022E1,1.466800332E0,1.447059512E0,1.230209923E1
2.404715069E1,2.834896564E0,1.387837172E0,1.565444374E1
2.406726121E1,2.651845694E0,2.083550215E0,1.542174149E1
2.408737168E1,1.843071699E0,2.329412937E0,1.261914825E1
2.410748215E1,3.244069338E0,1.402194023E0,1.378564930E1
2.412759262E1,4.146163464E0,8.925228715E-1,1.782832336E1
2.414770314E1,3.273979664E0,5.090730190E-1,1.949193382E1
2.416781361E1,1.631905079E0,6.963114142E-1,1.649552155E1
2.418792408E1,1.426122308E0,1.322034478E0,1.254556942E1
2.420803455E1,1.937588096E0,1.724626899E0,1.060199928E1
2.422814507E1,1.839482427E0,1.666600943E0,1.024068260E1
2.424825554E1,1.344168067E0,1.471585870E0,9.982257843E0
2.426836600E1,8.470591903E-1,1.282552958E0,9.284152031E0
2.428847652E1,4.163511395E-1,1.171884894E0,8.321041107E0
2.430858699E1,2.069791555E-1,1.233500123E0,7.445267677E0
2.432869746E1,3.122633696E-1,1.363310695E0,6.791429043E0
2.434880798E1,5.407779217E-1,1.501496196E0,6.284748554E0
2.436891845E1,6.765705943E-1,1.654038668E0,6.157330990E0
2.438902892E1,7.345965505E-1,1.761715651E0,6.379863262E0
2.440913939E1,9.092726111E-1,1.787438512E0,6.730412006E0
2.442924991E1,1.278365493E0,1.773679733E0,6.808178425E0
2.444936038E1,1.424327731E0,1.720439434E0,6.669992924E0
2.446947085E1,1.413560033E0,1.430309772E0,6.750152588E0
2.448958137E1,1.201795220E0,1.011565804E0,7.509275436E0
2.450969184E1,8.931210637E-1,9.014959335E-1,8.200801849E0
2.452980231E1,6.735795736E-1,1.058225870E0,8.042277336E0
2.454991283E1,2.979064286E-1,1.444666624E0,6.694519520E0
2.457002330E1,3.882354796E-1,1.709073544E0,5.813362598E0
2.459013376E1,8.356932998E-1,1.759921074E0,5.472983360E0
2.461024428E1,1.623530149E0,1.493719578E0,6.217151642E0
2.463035475E1,1.831107497E0,1.298704505E0,7.076773167E0
2.465046522E1,9.828519225E-1,1.527817249E0,7.410571575E0
2.467057569E1,-5.084748194E-2,1.911267042E0,7.278966427E0
2.469068621E1,-6.448656917E-1,2.375474691E0,7.446464062E0
2.471079668E1,-5.629115105E-1,2.486740828E0,9.646664619E0
2.473090715E1,6.263213158E-1,2.505883455E0,1.340160179E1
2.475101767E1,8.590233326E-1,4.171288013E0,1.539542103E1
2.477112814E1,6.514459848E-1,4.162314892E0,1.359183121E1
2.479123861E1,2.060818434E0,1.697707653E0,1.548395538E1
2.481134913E1,2.484946251E0,7.112665176E-1,2.104666901E1
2.483145960E1,1.064806059E-1,4.438686073E-1,2.107658005E1
2.485157007E1,-1.880758643E0,3.421736360E-1,1.663430405E1
2.487168059E1,-1.272383451E0,8.458628058E-1,1.429591846E1
2.489179106E1,4.366901219E-1,1.177268744E0,1.387119293E1
2.491190153E1,9.505487680E-1,1.252044439E0,1.312881947E1
2.493201204E1,4.157529473E-1,1.406381488E0,1.135992527E1
2.495212251E1,-6.640082598E-2,1.663609982E0,8.948558807E0
2.497223298E1,-1.088734269E-1,1.961516380E0,6.898507595E0
2.499234350E1,1.262213886E-1,2.154736757E0,5.564508915E0
2.501245397E1,1.333998591E-1,2.312064886E0,4.999803066E0
2.503256444E1,-1.292124242E-1,2.414956331E0,5.262415409E0
2.505267496E1,-5.425725579E-1,2.290529490E0,6.048457623E0
2.507278543E1,-8.632107973E-1,2.103291035E0,6.652645111E0
2.509289590E1,-8.506484628E-1,1.975275040E0,7.066005230E0
2.511300637E1,-2.560320199E-1,1.834098577E0,7.384250641E0
2.513311689E1,4.079762697E-1,1.881356835E0,7.337590694E0
2.515322736E1,5.862415433E-1,1.945364833E0,7.140182972E0
2.517333783E1,4.462614357E-1,1.979462504E0,7.033103943E0
2.519344835E1,1.848455518E-1,1.990828395E0,7.040880680E0
2.521355882E1,-6.939185411E-2,1.934597135E0,7.109674454E0
2.523366928E1,-3.433700502E-1,1.917249203E0,7.189235687E0
2.525377981E1,-3.846462369E-1,1.942373753E0,7.208378315E0
2.527389028E1,-1.196411327E-1,2.006979942E0,7.174280643E0
2.529400074E1,2.500499785E-1,2.056631088E0,7.305287361E0
2.531411126E1,3.577269912E-1,2.295913219E0,7.307082176E0
2.533422173E1,-4.725824669E-2,2.742773056E0,7.391428947E0
2.535433225E1,-2.249253243E-1,2.816950560E0,8.915059090E0
2.537444272E1,3.517449200E-1,2.379662037E0,1.245105267E1
2.539455319E1,1.866999865E0,1.850250125E0,1.689093590E1
2.541466371E1,3.362514019E0,1.526022673E0,1.866820335E1
2.543477418E1,4.121038914E0,6.789634228E-1,1.723011780E1
2.545488465E1,4.426123619E0,-6.939185411E-2,1.837209320E1
2.547499517E1,3.117847919E0,2.679961324E-1,1.928196335E1
2.549510564E1,1.505683661E0,6.873382926E-1,1.617368698E1
2.551521611E1,1.404586911E0,1.440479279E0,1.301037502E1
2.553532663E1,2.124228239E0,1.874178290E0,1.129531956E1
2.555543710E1,2.450250387E0,1.810768485E0,1.032682419E1
2.557554757E1,1.906481385E0,1.706082582E0,9.637691498E0
2.559565809E1,8.715856671E-1,1.665404558E0,8.506484032E0
2.561576856E1,1.752742529E-1,1.582852125E0,7.121040344E0
2.563587902E1,-4.845465720E-2,1.511665702E0,5.871986866E0
2.565598955E1,-3.708875179E-2,1.508076429E0,5.337191105E0
2.567610001E1,-6.340979785E-2,1.444068432E0,5.303691387E0
2.569621048E1,1.016949639E-1,1.319043517E0,5.679962635E0
2.571632100E1,2.883351147E-1,1.359721422E0,6.355935097E0
2.573643147E1,1.986042857E-1,1.496112347E0,6.731009960E0
2.575654194E1,4.785645381E-2,1.719841242E0,6.696912289E0
2.577665246E1,1.028913707E-1,2.029113531E0,6.409773827E0
2.579676293E1,4.887340367E-1,2.168495417E0,6.244668961E0
2.581687345E1,1.125224829E0,2.132004976E0,6.415157318E0
2.583698392E1,1.521835208E0,1.910070658E0,6.957729816E0
2.585709439E1,1.167697430E0,1.685743570E0,7.518846989E0
2.587720491E1,3.397808075E-1,1.636690736E0,7.702496052E0
2.589731538E1,3.828516230E-2,1.621735573E0,7.668398380E0
2.591742585E1,3.954139352E-1,1.514058471E0,7.901698589E0
2.593753637E1,1.048654556E0,1.037886858E0,8.901898384E0
2.595764684E1,1.320838094E0,5.700899959E-1,1.018325520E1
2.597775731E1,8.811569214E-1,3.714857101E-1,1.080419254E1
2.599786783E1,3.355933726E-1,5.138586760E-1,1.013779163E1
2.601797830E1,4.815555513E-1,9.463613629E-1,9.153742790E0
2.603808876E1,1.237089276E0,1.253240824E0,9.439684868E0
2.605819928E1,2.621935368E0,1.406381488E0,1.134736347E1
2.607830975E1,2.988037348E0,1.866999865E0,1.357209015E1
2.609842028E1,2.453241348E0,1.760519266E0,1.505145264E1
2.611853074E1,1.800599098E0,1.001396298E0,1.639681625E1
2.613864121E1,1.467398524E0,4.253242314E-1,1.780379677E1
2.615875173E1,9.290133715E-1,4.701896608E-1,1.757528305E1
2.617886220E1,4.420739710E-1,7.698906660E-1,1.548156261E1
2.619897272E1,4.594219327E-1,7.782655358E-1,1.462612820E1
2.621908319E1,4.055834413E-1,6.029912829E-1,1.463928890E1
2.623919366E1,1.316052489E-2,5.383850932E-1,1.353619766E1
2.625930418E1,-4.247260094E-1,6.969096065E-1,1.143051338E1
2.627941465E1,-4.510470629E-1,9.134600163E-1,9.692128181E0
2.629952512E1,-3.379862010E-1,1.149153113E0,8.233702660E0
2.631963564E1,-2.321037948E-1,1.316650629E0,6.926623344E0
2.633974611E1,-2.751746178E-1,1.442273855E0,5.916254044E0
2.635985658E1,-3.152543902E-1,1.577468276E0,5.270191669E0
2.637996710E1,-1.172483116E-1,1.615753531E0,5.434698582E0
2.640007757E1,-1.788634956E-1,1.561316729E0,5.764907837E0
2.642018809E1,-5.802595019E-1,1.722832322E0,6.026323795E0
2.644029856E1,-7.046862841E-1,1.589432478E0,6.904489517E0
2.646040903E1,-6.735795736E-1,1.403390527E0,8.258229256E0
2.648051954E1,-4.719842672E-1,1.165902853E0,9.299106598E0
2.650063001E1,-2.309073806E-1,9.535398483E-1,9.488140106E0
2.652074054E1,3.230310604E-2,8.691928387E-1,9.040681839E0
2.654085100E1,3.918247223E-1,9.212366939E-1,8.368897438E0
2.656096147E1,7.615157962E-1,1.102493048E0,7.869395256E0
2.658107199E1,7.489534616E-1,1.362712502E0,7.317251682E0
2.660118246E1,5.551348329E-1,1.677368641E0,6.771090031E0
2.662129298E1,7.836494446E-1,1.594218135E0,6.762714863E0
2.664140345E1,1.258026481E0,8.656035662E-1,7.922037601E0
2.666151392E1,1.676172256E0,7.046862841E-1,8.887541771E0
2.668162444E1,1.525424480E0,6.951149702E-1,8.984451294E0
2.670173491E1,1.435693651E-1,8.829515576E-1,8.733204842E0
2.672184538E1,1.064806104E0,1.476371527E0,1.097049332E1
2.674195590E1,2.956930637E0,3.140579700E0,1.311087322E1
2.676206637E1,5.057828903E0,3.598206997E0,1.337228966E1
2.678217689E1,6.064010620E0,1.820339799E0,1.478465271E1
2.680228736E1,3.863212109E0,5.874379873E-1,1.776610947E1
2.682239788E1,8.338986635E-1,7.668996453E-1,1.715235138E1
2.684250835E1,-3.798605800E-1,2.054836512E0,1.290209961E1
2.686261882E1,1.215553880E0,2.605185747E0,1.056431198E1
2.688272934E1,2.734996319E0,2.283949137E0,1.126780224E1
2.690283981E1,2.175673962E0,2.032104731E0,1.213639641E1
2.692295028E1,1.094716311E0,1.694716692E0,1.074975586E1
2.694306080E1,1.824527234E-1,1.598405480E0,8.538787842E0
2.696317126E1,-7.058826834E-2,1.671386600E0,6.824330330E0
2.698328179E1,2.769692242E-1,1.844268084E0,5.593223095E0
2.700339225E1,7.154539824E-1,2.015953064E0,5.221138954E0
2.702350272E1,7.591229677E-1,2.129612207E0,5.971288681E0
2.704361324E1,4.636093974E-1,2.017149448E0,6.417550564E0
2.706372371E1,2.321037948E-1,1.637887120E0,6.178267956E0
2.708383423E1,3.505485058E-1,1.356730461E0,5.984449387E0
2.710394470E1,9.403793216E-1,1.188036442E0,6.026323795E0
2.712405522E1,1.530808330E0,9.942178130E-1,6.218945980E0
2.714416569E1,1.351944804E0,7.339983582E-1,6.795616150E0
2.716427616E1,6.879364848E-1,3.768695593E-1,7.765307903E0
2.718438668E1,-4.187439568E-3,1.896311939E-1,8.874979019E0
2.720449749E1,-1.974078715E-1,3.475574851E-1,8.930612564E0
2.722460801E1,5.742774159E-2,9.349954724E-1,8.604590416E0
2.724471848E1,7.286145091E-1,1.744965911E0,9.000003815E0
2.726482895E1,1.056431174E0,2.510669231E0,1.043988514E1
2.728493947E1,3.583251834E-1,3.219542980E0,1.209093285E1
2.730504994E1,-8.626125455E-1,4.450051785E0,1.291286755E1
2.732516046E1,-1.804188251E0,6.029912949E0,1.219143105E1
2.734527093E1,7.896314561E-2,5.298307419E0,1.311266804E1
2.736538145E1,2.985046148E0,3.391227961E0,1.993819427E1
2.738549192E1,2.261217356E0,2.871985435E0,2.412384033E1
2.740560239E1,-2.093719840E-1,2.395813704E0,1.963610077E1
2.742571291E1,-6.251249313E-1,2.452643156E0,1.360618782E1
2.744582338E1,2.793620527E-1,3.268595695E0,1.099382401E1
2.746593390E1,2.656033039E-1,3.115455151E0,9.752547264E0
2.748604437E1,6.580262445E-3,2.347957134E0,9.056235313E0
2.750615489E1,-9.990034252E-2,2.032702923E0,9.125029564E0
2.752626536E1,-2.207378894E-1,1.828714728E0,8.875576973E0
2.754637582E1,-1.740778536E-1,1.951945066E0,7.905287743E0
2.756648634E1,-3.337987661E-1,1.945963025E0,6.635895252E0
2.758659681E1,-4.516452849E-1,1.888535261E0,5.997610092E0
2.760670733E1,-5.024927258E-1,1.895115495E0,5.931209087E0
2.762681780E1,-1.728814393E-1,2.000399828E0,6.500102520E0
2.764692832E1,-1.519442350E-1,2.427518606E0,6.747759819E0
2.766703879E1,-3.421736360E-1,2.526222467E0,6.318846226E0
2.768714926E1,-4.199403822E-1,2.701496840E0,6.437889099E0
2.770725978E1,-6.795616150E-1,3.018545866E0,6.664609432E0
2.772737025E1,-7.142575383E-1,3.320639610E0,6.759125710E0
2.774748077E1,-2.039881349E-1,3.462414265E0,6.494719028E0
2.776759124E1,3.678964674E-1,3.256033421E0,6.582654953E0
2.778770176E1,4.875376225E-1,2.963510752E0,6.323033810E0
2.780781223E1,-2.775674164E-1,2.902493954E0,6.351747513E0
2.782792275E1,-2.105683982E-1,2.455035925E0,7.678567886E0
2.784803322E1,-5.246263742E-1,2.391626120E0,6.939784050E0
2.786814369E1,-4.289134443E-1,2.290529490E0,6.334399700E0
2.788825421E1,-1.148554832E-1,2.172084808E0,6.743572235E0
2.790836468E1,1.280160099E-1,2.318645239E0,7.748558044E0
2.792847520E1,-1.549352705E-1,2.913859844E0,8.624331474E0
2.794858567E1,9.810572863E-2,4.060619831E0,9.501898766E0
2.796869619E1,9.194421172E-1,5.435296535E0,1.129531956E1
2.798880666E1,1.409372568E0,6.629314899E0,1.232363510E1
2.800891713E1,1.532004714E0,6.810571671E0,1.148674488E1
2.802902765E1,1.563709617E0,5.788836002E0,1.264427280E1
2.804913812E1,9.684949517E-1,4.465006828E0,1.496232033E1
2.806924864E1,3.649054468E-2,3.861417532E0,1.732104492E1
2.808935910E1,-2.117647976E-1,3.809971809E0,1.870050812E1
2.810946963E1,6.592226624E-1,4.080958843E0,1.730369759E1
2.812958010E1,1.359721422E0,4.507479668E0,1.474457359E1
2.814969062E1,1.920838356E0,4.709673405E0,1.263589859E1
2.816980108E1,2.048854351E0,4.597808838E0,1.088973618E1
2.818991161E1,2.230708838E0,4.079164505E0,1.037946606E1
2.821002207E1,1.682752490E0,3.425325632E0,1.006839943E1
2.823013254E1,1.028913736E0,2.941975355E0,9.095118523E0
2.825024306E1,2.865405083E-1,2.764906645E0,8.096115112E0
2.827035353E1,3.672982752E-1,2.548954248E0,7.648657799E0
2.829046405E1,5.521438122E-1,2.860619545E0,7.417750359E0
2.831057452E1,4.133601189E-1,2.927618504E0,7.155735970E0
2.833068504E1,-4.378865361E-1,2.906681299E0,8.278568268E0
2.835079551E1,-5.006981492E-1,2.878565550E0,8.099106789E0
2.837090603E1,1.073180914E0,3.449253798E0,6.049654007E0
2.839101650E1,1.009172916E0,3.271586657E0,1.024247742E1
2.841112702E1,-5.006981492E-1,3.631706476E0,9.463613510E0
2.843123749E1,1.196411327E-1,3.165704250E0,7.497311592E0
2.845963531E1,8.955138922E-1,3.513261795E0,8.935398102E0
2.847974573E1,1.054636598E0,3.530011654E0,9.038289070E0
2.849985614E1,1.001396298E0,3.496512175E0,9.107681274E0
2.851996656E1,8.464609981E-1,3.559921980E0,8.980263710E0
2.854007703E1,7.788637877E-1,3.583251953E0,8.796015739E0
2.856018745E1,8.518448472E-1,3.572484255E0,8.852845192E0
2.858029786E1,1.638485312E0,3.518645763E0,8.994022369E0
2.860040828E1,1.434497118E0,3.687937975E0,8.969495773E0
2.862051870E1,1.168893814E0,3.503092289E0,8.954540253E0
2.864062911E1,9.619147182E-1,3.401397467E0,9.245268822E0
2.866073953E1,9.930213690E-1,3.366103172E0,9.336195946E0
2.868085000E1,1.020538807E0,3.367299557E0,9.143573761E0
2.870096042E1,9.996016622E-1,3.430111170E0,9.000602722E0
2.872107083E1,9.158528447E-1,3.458226919E0,8.992825508E0
2.874118125E1,8.494520187E-1,3.416950703E0,9.025128365E0
2.876129166E1,7.465606928E-1,3.383451223E0,8.967700958E0
2.878140208E1,7.226324677E-1,3.355335474E0,8.945567131E0
2.880151255E1,6.957131624E-1,3.340380430E0,8.994022369E0
2.882162297E1,5.617151260E-1,3.334996462E0,9.008976936E0
2.884173338E1,4.121637046E-1,3.350549936E0,9.001200676E0
2.886184380E1,3.972085714E-1,3.301496983E0,9.078967094E0
2.888195422E1,4.558327198E-1,3.263211966E0,9.099306107E0
2.890206463E1,5.162515044E-1,3.219542980E0,9.070592880E0
2.892217505E1,4.474578202E-1,3.194418192E0,9.028717995E0
2.894228547E1,3.415754437E-1,3.282354355E0,8.955737114E0
2.896239594E1,3.996013701E-1,3.257827997E0,8.748159409E0
2.898250635E1,5.018945336E-1,3.160918713E0,8.612366676E0
2.900261677E1,4.235295951E-1,3.105883837E0,8.528019905E0
2.902272719E1,2.638086975E-1,2.958725214E0,8.449056625E0
2.904283760E1,1.250249892E-1,2.727817774E0,8.538787842E0
2.906294802E1,3.415754437E-1,2.617149830E0,8.416155815E0
2.908305844E1,5.820540786E-1,2.729612350E0,8.008777618E0
2.910316885E1,8.620143533E-1,2.803789854E0,7.708477974E0
2.912327927E1,1.024726272E0,2.939582586E0,7.498507977E0
2.914338974E1,8.644071817E-1,2.944966555E0,7.320840836E0
2.916350015E1,6.795616150E-1,2.868396044E0,7.525427341E0
2.918361057E1,6.915257573E-1,2.769692183E0,8.153543472E0
2.920372099E1,7.292127013E-1,2.633301258E0,8.631509781E0
2.922383140E1,5.162515044E-1,2.617149830E0,8.389834404E0
2.924394182E1,2.255235314E-1,2.752942562E0,7.731808186E0
2.926405224E1,1.698904037E-1,2.831307411E0,7.550551891E0
2.928416265E1,3.511467278E-1,2.849851847E0,8.087740898E0
2.930427307E1,4.905286431E-1,2.870190859E0,8.804988861E0
2.932438349E1,5.515456200E-1,2.845664263E0,9.336793900E0
2.934449390E1,4.917250574E-1,2.955136061E0,9.576674461E0
2.936460432E1,3.206382394E-1,2.860619545E0,1.032981491E1
2.938471474E1,2.632105052E-1,2.316850424E0,1.244207954E1
2.940482515E1,5.862415433E-1,1.942373753E0,1.381077385E1
2.942493557E1,9.846464992E-1,2.013560295E0,1.345843124E1
2.944504604E1,9.349954724E-1,2.376671076E0,1.197069359E1
2.946515646E1,7.082754970E-1,2.998805046E0,1.052183914E1
2.948526687E1,4.677968323E-1,3.768097401E0,9.446864128E0
2.950537729E1,-3.529413417E-2,4.770689964E0,8.283951759E0
2.952548771E1,2.745763958E-1,4.394418716E0,8.916853905E0
2.954559812E1,1.102493048E0,2.868396044E0,1.238824081E1
2.956570854E1,3.403790295E-1,2.293520451E0,1.499641800E1
2.958581896E1,-1.089930773E0,1.998006940E0,1.532064533E1
2.960592937E1,-1.834696770E0,1.740180254E0,1.372582912E1
2.962603979E1,-1.191625714E0,1.718644857E0,1.253420353E1
2.964615021E1,-2.494517565E-1,1.819741607E0,1.206461143E1
2.966626062E1,-1.597209126E-1,1.948355794E0,1.125404263E1
2.968637104E1,-4.677968323E-1,2.160120726E0,9.777072906E0
2.970648146E1,-5.886343718E-1,2.415554523E0,8.250452042E0
2.972659187E1,-3.242274821E-1,2.637488842E0,7.265207767E0
2.974670229E1,1.854437590E-1,2.784049034E0,7.066603661E0
2.976681271E1,5.880361795E-1,2.742773056E0,7.418946743E0
2.978692312E1,4.899304509E-1,2.681157827E0,7.532605648E0
2.980703354E1,1.130608693E-1,2.648854733E0,7.362117290E0
2.982714396E1,-8.374879137E-3,2.571087837E0,7.328617573E0
2.984725437E1,1.250249892E-1,2.511267424E0,7.521239758E0
2.986736479E1,3.260220885E-1,2.283350945E0,7.964509964E0
2.988747521E1,1.232303679E-1,1.878963947E0,8.827720642E0
2.990758562E1,-3.487538993E-1,1.445264935E0,1.003310490E1
2.992769604E1,-4.091726840E-1,1.140778184E0,1.066780186E1
2.994780646E1,-1.262213886E-1,1.387238979E0,1.033759212E1
2.996791687E1,1.866401732E-1,1.745564103E0,9.336793900E0
2.998802729E1,4.905286431E-1,2.005783558E0,8.488538742E0
3.000813771E1,4.845465720E-1,2.283949137E0,8.131409645E0
3.002824812E1,2.662015259E-1,2.373680115E0,7.691130161E0
3.004835854E1,2.452643216E-2,2.350350142E0,7.192824841E0
3.006846896E1,-2.691925503E-2,2.332403898E0,6.824928284E0
3.008857937E1,-7.896314561E-2,2.353341103E0,6.606583118E0
3.010868979E1,-2.321037948E-1,2.294716835E0,6.479165554E0
3.012880021E1,-3.212364316E-1,2.144567251E0,6.550352097E0
3.014891062E1,-2.255235314E-1,2.054836512E0,7.015157700E0
3.016902104E1,-1.058823988E-1,2.036292076E0,7.554739475E0
3.018913146E1,1.226321608E-1,2.129014015E0,8.057829857E0
3.020924187E1,5.958128572E-1,2.367697954E0,8.877969742E0
3.022935229E1,9.128618240E-1,2.776272535E0,1.152742290E1
3.024946271E1,3.409772217E-1,3.075375319E0,1.479721546E1
3.026957312E1,-5.898307562E-1,3.211766243E0,1.672164345E1
3.028968354E1,-3.816552162E-1,3.376272678E0,1.553121376E1
3.030979396E1,6.382854581E-1,3.638286829E0,1.272921848E1
3.032990437E1,5.383850932E-1,4.355535507E0,1.075035381E1
3.035001479E1,7.836493850E-2,4.274777889E0,1.064267731E1
3.037012521E1,-2.931207791E-2,3.673580885E0,1.109013462E1
3.039023562E1,-7.663014531E-1,3.915854216E0,1.096929741E1
3.041034604E1,-8.213363886E-1,4.088735580E0,9.878767967E0
3.043045646E1,1.124626622E-1,4.320839405E0,8.159524918E0
3.045056687E1,1.538584948E0,4.493122578E0,7.633702278E0
3.047067724E1,2.509472847E0,3.965505362E0,9.072985649E0
3.049078765E1,2.289931297E0,3.172882795E0,1.108415222E1
3.051089807E1,1.473380566E0,2.510669231E0,1.189890862E1
3.053100849E1,8.009973764E-1,1.988435626E0,1.103749275E1
3.055111890E1,6.849454641E-1,1.673181176E0,9.961320877E0
3.057122932E1,8.793623447E-1,1.600200176E0,1.092802143E1
3.059133974E1,3.349951804E-1,1.657627940E0,1.231286716E1
3.061145015E1,-4.336991012E-1,1.623530149E0,1.150528908E1
3.063156057E1,-4.265206456E-1,1.846062660E0,9.246464729E0
3.065167099E1,3.086741269E-1,2.258226395E0,7.780860901E0
3.067178140E1,8.961120844E-1,2.469991207E0,7.253841877E0
3.069189182E1,1.128814101E0,2.572882652E0,6.949953556E0
3.071200224E1,1.113260746E0,2.593819857E0,6.537789822E0
3.073211265E1,9.164510965E-1,2.492124796E0,6.235695839E0
3.075222307E1,5.324030519E-1,2.478366137E0,6.212365627E0
3.077233344E1,5.623133108E-2,2.572284460E0,6.284150600E0
3.079244385E1,-3.984049559E-1,2.589034081E0,6.436094761E0
3.081255427E1,-3.212364316E-1,2.338385820E0,7.275377274E0
3.083266469E1,1.668993831E-1,1.938784599E0,8.429914474E0
3.085277510E1,4.444667995E-1,1.767697692E0,9.401998520E0
3.087288552E1,1.034895778E-1,1.935195327E0,9.577272415E0
3.089299594E1,-2.291127741E-1,2.121835470E0,8.766105652E0
3.091310635E1,8.195417374E-2,2.213959217E0,8.292326927E0
3.093321677E1,6.502495408E-1,2.210369825E0,8.843274117E0
3.095332713E1,4.797609448E-1,2.197807550E0,9.352347374E0
3.097343760E1,-1.878365725E-1,2.368894339E0,9.375079155E0
3.099354797E1,-5.742774606E-1,2.554936409E0,9.685547829E0
3.101365838E1,-1.627119333E-1,2.492124796E0,1.053380394E1
3.103376880E1,5.443671346E-1,2.505883455E0,1.148734283E1
3.105387922E1,9.320043921E-1,2.663211584E0,1.182174015E1
3.107398963E1,2.333002165E-2,3.329014540E0,1.115832996E1
3.109410005E1,-5.395814776E-1,3.744169235E0,1.030588722E1
3.111421047E1,1.192223907E0,2.644667149E0,1.181575775E1
3.113432088E1,2.179861546E0,1.622333765E0,1.493001652E1
3.115443130E1,8.877372146E-1,1.480558991E0,1.690469360E1
3.117454167E1,-9.744769931E-1,1.543968797E0,1.516032600E1
3.119465208E1,-8.404789567E-1,1.629512191E0,1.267179012E1
3.121476250E1,7.680960894E-1,1.573879123E0,1.207358456E1
3.123487292E1,1.475175142E0,1.521237016E0,1.242533016E1
3.125498333E1,8.823533654E-1,1.606182218E0,1.136710358E1
3.127509375E1,9.391828626E-2,1.784447432E0,9.458827972E0
3.129520416E1,-1.836491376E-1,1.990230203E0,7.738388538E0
3.131531458E1,1.854437590E-2,2.256431818E0,6.443871498E0
3.133542495E1,1.872383654E-1,2.423331022E0,5.863013744E0
3.135553536E1,6.161518395E-2,2.514258385E0,6.085546017E0
3.137564578E1,-1.190429255E-1,2.351546526E0,6.958328247E0
3.139575620E1,-1.770688742E-1,2.199602127E0,7.999804497E0
3.141586661E1,-7.776673418E-3,2.186441660E0,8.541778564E0
3.143597703E1,3.385843933E-1,2.224726915E0,8.442476273E0
3.145608745E1,7.052844763E-1,2.157129526E0,8.128418922E0
3.147619786E1,9.008977413E-1,1.855035782E0,8.684749603E0
3.149630823E1,7.292127013E-1,1.398006678E0,9.805189133E0
3.151641864E1,2.344966233E-1,1.097707391E0,1.035434151E1
3.153652906E1,-4.881358147E-1,1.266401410E0,9.362516403E0
3.155663948E1,-8.015955687E-1,1.669592023E0,7.572087288E0
3.157674989E1,-4.408775866E-1,2.001596212E0,6.265605927E0
3.159686031E1,1.842473447E-1,2.099103689E0,6.275775433E0
3.161697068E1,6.161518097E-1,1.857428551E0,7.369295597E0
3.163708109E1,1.375873014E-2,1.929213285E0,7.858627796E0
3.165719151E1,-8.051848412E-1,2.179861546E0,7.145566463E0
3.167730193E1,-1.217348576E0,2.580060959E0,6.445665836E0
3.169741234E1,-1.359721422E0,3.125624657E0,6.020341873E0
3.171752276E1,-6.598208547E-1,3.068794966E0,6.878767014E0
3.173763312E1,2.697907388E-1,2.406581402E0,1.012881851E1
3.175774354E1,1.155135155E0,1.757528186E0,1.455912971E1
3.177785396E1,1.109671474E0,1.945963025E0,1.599123383E1
3.179796437E1,9.571290575E-3,2.812164783E0,1.371506119E1
3.181807479E1,1.616351724E0,2.419741869E0,1.262154102E1
3.183818521E1,4.475176334E0,1.174277663E0,1.596730518E1
3.185829562E1,4.182055950E0,7.411768436E-1,1.872024727E1
3.187840599E1,1.489532113E0,1.048654556E0,1.599302864E1
3.189851640E1,4.827519655E-1,2.028515339E0,1.157348537E1
3.191862682E1,1.649851203E0,2.611167669E0,9.817152977E0
3.193873724E1,2.844467878E0,2.450848579E0,1.028375340E1
3.195884765E1,2.565704107E0,2.158924341E0,1.111765194E1
3.197895807E1,1.268794179E0,1.856232166E0,1.049551868E1
3.199906844E1,4.785645306E-1,1.555334687E0,9.519845009E0
3.201917885E1,1.597209126E-1,1.537388563E0,8.605786324E0
3.203928927E1,1.621137410E-1,1.604985833E0,7.711469173E0
3.205939969E1,2.153540403E-1,1.683948994E0,6.909873486E0
3.207951010E1,2.590230405E-1,1.750947952E0,6.154938221E0
3.209962052E1,3.900300860E-1,1.879562140E0,5.530411243E0
3.211973088E1,7.519445419E-1,1.989033818E0,5.420939922E0
3.213984130E1,1.057627559E0,2.062613010E0,5.672185898E0
3.215995172E1,1.188634634E0,2.050648928E0,5.935396671E0
3.218006213E1,1.204786181E0,1.916052699E0,6.669394970E0
3.220017255E1,9.690931439E-1,1.750947952E0,7.592426300E0
3.222028292E1,5.557330847E-1,1.682752490E0,7.935796261E0
3.224039333E1,2.560320199E-1,1.793420553E0,7.682755470E0
3.226050375E1,2.596212626E-1,2.133201361E0,7.292127132E0
3.228061416E1,4.432703853E-1,2.329412937E0,7.577471256E0
3.230072458E1,8.662018180E-1,2.141576290E0,8.617751122E0
3.232083495E1,1.328016520E0,1.888535261E0,1.037049294E1
3.234094536E1,1.197009563E0,1.729412556E0,1.193839073E1
3.236105578E1,5.605186820E-1,1.600798368E0,1.245942783E1
3.238116620E1,3.708875179E-2,1.604387641E0,1.258205986E1
3.240127661E1,5.563312769E-2,1.500299811E0,1.278844070E1
3.242138698E1,9.631111473E-2,1.530808330E0,1.275195026E1
3.244149739E1,-4.701896608E-1,2.032104731E0,1.165962696E1
3.246160781E1,-8.554340899E-2,1.939382792E0,1.137846947E1
3.248171823E1,7.549355626E-1,1.474576950E0,1.305224895E1
3.250182864E1,3.481557071E-1,1.413560033E0,1.411226940E1
3.252193901E1,-5.437689424E-1,1.531406522E0,1.312164116E1
3.254204942E1,-6.765705943E-1,1.807179332E0,1.216570854E1
3.256215984E1,5.036891699E-1,1.577468276E0,1.294158173E1
3.258227026E1,8.530412912E-1,1.143769264E0,1.400878048E1
3.260238068E1,3.098705411E-1,8.297112584E-1,1.420798302E1
3.262249104E1,-4.767699242E-1,8.943174481E-1,1.232961655E1
3.264260146E1,-6.496513486E-1,1.158724308E0,1.023111153E1
3.266271187E1,-5.108676553E-1,1.389631748E0,8.522037506E0
3.268282229E1,-3.535395563E-1,1.460818172E0,7.296314240E0
3.270293271E1,-3.020938635E-1,1.446461320E0,6.869195461E0
3.272304307E1,-3.212364316E-1,1.384846091E0,6.978667259E0
3.274315349E1,-2.464607358E-1,1.324427366E0,6.937391281E0
3.276326390E1,1.214357466E-1,1.244866014E0,6.557530403E0
3.278337432E1,6.185446382E-1,1.148554921E0,6.232704639E0
3.280348469E1,6.801598072E-1,1.051645517E0,6.322435856E0
3.282359510E1,2.177468538E-1,9.451649189E-1,6.584449768E0
3.284370552E1,-4.588237405E-1,9.750752449E-1,6.844669342E0
3.286381594E1,-8.428717852E-1,1.057029366E0,7.161718369E0
3.288392635E1,-8.566305041E-1,9.655039310E-1,7.642675400E0
3.290403672E1,-8.572286963E-1,8.458628058E-1,8.048258781E0
3.292414713E1,-9.361918569E-1,7.830511928E-1,8.443673134E0
3.294425755E1,-1.199402332E0,8.159525394E-1,8.938388824E0
3.296436797E1,-1.442872047E0,8.787640929E-1,9.141778946E0
3.298447833E1,-1.250848055E0,9.224331379E-1,9.099306107E0
3.300458875E1,-8.249256015E-1,1.135992527E0,9.455238342E0
3.302469916E1,-7.417750359E-1,1.548754454E0,9.571888924E0
3.304480958E1,-6.299105883E-1,1.846660852E0,9.163912773E0
3.306492000E1,-2.596212626E-1,2.062613010E0,9.597611427E0
3.308503036E1,6.107679605E-1,2.140379906E0,1.106800079E1
3.310514078E1,1.723430514E0,2.029711723E0,1.271845055E1
3.312525120E1,2.328814745E0,2.374876499E0,1.347278786E1
3.314536161E1,1.704287887E0,3.152543783E0,1.245524025E1
3.316547198E1,2.504687071E0,2.226521492E0,1.311506081E1
3.318558239E1,3.662214994E0,1.141974568E0,1.637887192E1
3.320569281E1,2.955734253E0,5.210371017E-1,1.881775475E1
3.322580323E1,1.210768223E0,1.010967568E-1,1.716072655E1
3.324591359E1,5.976074338E-1,5.850451589E-1,1.367617798E1
3.326602401E1,1.360917926E0,1.189831018E0,1.154596710E1
3.328613442E1,1.691127419E0,1.216750264E0,1.047876835E1
3.330624484E1,1.436291814E0,1.217946768E0,9.744770050E0
3.332635521E1,8.757730722E-1,1.354337573E0,8.815158844E0
3.334646562E1,4.683950245E-1,1.423729420E0,7.661818027E0
3.336657604E1,2.368894368E-1,1.482951880E0,6.596413612E0
3.338668646E1,2.303091735E-1,1.600798368E0,5.717051506E0
3.340679687E1,4.336991012E-1,1.775474429E0,5.283950806E0
3.342690724E1,8.512466550E-1,1.814357758E0,5.364708424E0
3.344701765E1,1.103091240E0,1.785643935E0,5.620141983E0
3.346712807E1,1.015753269E0,1.627717614E0,6.062814236E0
3.348723849E1,7.818548083E-1,1.457827210E0,6.448657036E0
3.350734885E1,5.964110494E-1,1.326221943E0,6.847062111E0
3.352745927E1,5.772684813E-1,1.216750264E0,7.426125050E0
3.354756969E1,6.233302951E-1,1.201196909E0,7.802396297E0
3.356768010E1,8.219345808E-1,1.360319614E0,7.555337429E0
3.358779047E1,1.093519926E0,1.548754454E0,7.102495670E0
3.360790088E1,1.418943882E0,1.789233088E0,7.246663570E0
3.362801130E1,1.667797327E0,1.884347796E0,8.651249886E0
3.364812172E1,1.659422517E0,1.927418590E0,1.086700439E1
3.366823213E1,1.090528965E0,2.075175524E0,1.200000572E1
3.368834250E1,5.611169338E-1,2.149353027E0,1.111107159E1
3.370845292E1,4.791627228E-1,2.119442701E0,1.014975548E1
3.372856333E1,6.233302951E-1,2.316252232E0,1.053739262E1
3.374867370E1,5.886343718E-1,2.491526604E0,1.146042442E1
3.376878411E1,2.871387303E-1,2.509472847E0,1.204905796E1
3.378889453E1,-2.356930375E-1,2.781656265E0,1.217288685E1
3.380900495E1,-1.256231815E-1,2.654836655E0,1.228116226E1
3.382911531E1,7.316055298E-1,1.732403636E0,1.341894913E1
3.384922573E1,1.219143152E0,1.302891970E0,1.522612858E1
3.386933614E1,3.523431420E-1,1.561915040E0,1.552164268E1
3.388944656E1,-6.227321029E-1,1.692323804E0,1.351884937E1
3.390955693E1,-2.033899166E-2,1.640279889E0,1.280818176E1
3.392966734E1,1.134796143E0,1.548754454E0,1.340878010E1
3.394977776E1,1.368096352E0,1.414756417E0,1.275314617E1
3.396988818E1,9.032905698E-1,1.476371527E0,1.110808086E1
3.398999854E1,5.988038778E-1,1.563111424E0,9.450452805E0
3.401010896E1,5.114658475E-1,1.626521230E0,8.038089752E0
3.403021937E1,4.546363056E-1,1.700698733E0,7.164709091E0
3.405032979E1,3.290131092E-1,1.691725612E0,6.632306099E0
3.407044015E1,1.184447184E-1,1.558923960E0,6.354140759E0
3.409055057E1,-1.435693540E-2,1.386640668E0,6.352943897E0
3.411066099E1,5.383851007E-3,1.264008522E0,6.457630157E0
3.413077140E1,-6.460621208E-2,1.253240824E0,6.356533527E0
3.415088177E1,-2.428714931E-1,1.335195065E0,6.153143406E0
3.417099219E1,-5.012963414E-1,1.537388563E0,5.959922791E0
3.419110260E1,-5.982056856E-1,1.772483349E0,6.019743443E0
3.421121302E1,-1.375873089E-1,1.747358680E0,6.684948444E0
3.423132338E1,3.290131092E-1,1.561316729E0,7.528418064E0
3.425143380E1,3.409772217E-1,1.517049551E0,8.282156944E0
3.427154422E1,-1.914258152E-1,1.667199135E0,8.520243645E0
3.429165463E1,-6.197410822E-1,1.954337835E0,8.330612183E0
3.431176500E1,-6.418746710E-1,2.358724833E0,8.160721779E0
3.433187542E1,-2.584248483E-1,2.662015200E0,8.426324844E0
3.435198583E1,1.004985496E-1,2.572882652E0,9.427721024E0
3.437209625E1,-3.056831062E-1,2.512463808E0,1.157169056E1
3.439220661E1,-6.681957245E-1,2.548954248E0,1.329212952E1
3.441231703E1,-6.640082598E-2,2.331805706E0,1.321017551E1
3.443242745E1,1.250249863E0,2.583052158E0,1.253240871E1
3.445253786E1,3.049054146E0,2.695514679E0,1.388734436E1
3.447264823E1,3.815355778E0,2.353939295E0,1.583151245E1
3.449275864E1,2.547757864E0,2.175075769E0,1.602951813E1
3.451286906E1,1.604985833E0,2.008176327E0,1.468235970E1
3.453297948E1,1.715653777E0,2.018345833E0,1.294576836E1
3.455308984E1,2.497508526E0,1.799402595E0,1.250489140E1
3.457320026E1,2.593221426E0,1.675574064E0,1.238704491E1
3.459331068E1,1.678565025E0,1.682752490E0,1.160399342E1
3.461342109E1,8.333004713E-1,1.674377680E0,1.049671459E1
3.463353146E1,3.583251834E-1,1.724626899E0,8.953942299E0
3.465364187E1,1.758724600E-1,1.781456470E0,7.488936901E0
3.467375229E1,1.220339537E-1,1.883151412E0,6.470790863E0
3.469386271E1,2.195414752E-1,2.100898266E0,5.927021503E0
3.471397307E1,3.678964674E-1,2.297109842E0,5.655436516E0
3.473408349E1,4.372883439E-1,2.288734913E0,5.876772404E0
3.475419390E1,2.919243574E-1,2.248655081E0,6.329614162E0
3.477430432E1,5.922235921E-2,2.206780672E0,6.460621357E0
3.479441469E1,-1.082752272E-1,2.168495417E0,6.453442574E0
3.481452510E1,-1.555334777E-1,2.149951220E0,6.562914371E0
3.483463552E1,1.770688742E-1,2.063211441E0,6.843472958E0
3.485474594E1,4.546363056E-1,2.008774519E0,6.987640381E0
3.487485630E1,4.917250574E-1,1.864607096E0,7.019943237E0
3.489496672E1,3.026920557E-1,1.859821439E0,7.335795879E0
3.491507713E1,9.511470050E-2,2.008176327E0,7.832306862E0
3.493518755E1,3.170489892E-2,2.236092806E0,8.120641708E0
3.495529792E1,-1.734796353E-2,2.437089920E0,8.430512428E0
3.497540833E1,4.151547253E-1,2.361117840E0,9.606584549E0
3.499551875E1,8.063812256E-1,2.217548370E0,1.161416245E1
3.501562911E1,4.049852192E-1,2.255833626E0,1.330289745E1
3.503573953E1,-3.224328458E-1,2.584846735E0,1.352662659E1
3.505584995E1,-8.338986635E-1,2.969492912E0,1.249890900E1
3.507596036E1,2.482553422E-1,2.361117840E0,1.337827110E1
3.509607073E1,8.775677085E-1,1.827518344E0,1.534397507E1
3.511618114E1,8.554340899E-2,1.603789330E0,1.656551170E1
3.513629156E1,-1.088136077E0,1.124028444E0,1.630409622E1
3.515640198E1,-1.385444283E0,1.028913736E0,1.549173164E1
3.517651234E1,-7.746763229E-1,1.192223907E0,1.423310757E1
3.519662276E1,-6.568298340E-1,1.572682738E0,1.257129192E1
3.521673318E1,-7.334001660E-1,1.856232166E0,1.075633621E1
3.523684359E1,-7.668996453E-1,2.068595171E0,8.817551613E0
3.525695396E1,-7.310073376E-1,2.269592285E0,7.359126091E0
3.527706437E1,-6.161518097E-1,2.362314224E0,6.502495766E0
3.529717479E1,-5.108676553E-1,2.292922258E0,6.424728870E0
3.531728521E1,-6.149554253E-1,2.234896421E0,6.949355125E0
3.533739557E1,-8.943174481E-1,2.175673962E0,7.284948349E0
3.535750599E1,-1.055234790E0,2.149353027E0,7.006184578E0
3.537761640E1,-1.038485050E0,2.223530531E0,6.588637352E0
3.539772682E1,-7.657032609E-1,2.294716835E0,6.508477688E0
3.541783719E1,-5.198407173E-1,2.356332064E0,6.827321053E0
3.543794760E1,-4.773681164E-1,2.337787628E0,7.082755089E0
3.545805802E1,-5.252245665E-1,2.242074728E0,7.289135933E0
3.547816844E1,-7.274180651E-1,2.200798512E0,7.795815945E0
3.549827880E1,-8.297112584E-1,2.103291035E0,8.276175499E0
3.551838922E1,-6.598208547E-1,2.123031855E0,8.383852005E0
3.553849963E1,-4.833501875E-1,2.273181438E0,8.152346611E0
3.555861005E1,-4.235295951E-1,2.383251429E0,7.972885132E0
3.557872042E1,-4.749752879E-1,2.380858421E0,8.252246857E0
3.559883083E1,-6.281159520E-1,2.347358942E0,8.671588898E0
3.561894125E1,-8.440681696E-1,2.365903378E0,8.988039970E0
3.563905167E1,-1.042074203E0,2.128415823E0,9.314660072E0
3.565916203E1,-1.197607756E0,2.180459738E0,1.016471100E1
3.567927245E1,-4.474578202E-1,2.618346214E0,1.031785107E1
3.569938286E1,4.342973232E-1,2.626721144E0,1.060499001E1
3.571949328E1,9.475577474E-1,2.216950178E0,1.162134171E1
3.573960364E1,8.189435601E-1,1.828116536E0,1.245583820E1
3.575971406E1,1.531406492E-1,1.920838356E0,1.259163094E1
3.577982448E1,-4.558327198E-1,2.386242390E0,1.192582798E1
3.579993489E1,5.162515044E-1,1.723430514E0,1.266162109E1
3.582004526E1,2.056631088E0,1.229910851E0,1.432523060E1
3.584015568E1,2.606382132E0,1.085145116E0,1.582971859E1
3.586026609E1,1.989632010E0,9.714859724E-1,1.551386547E1
3.588037651E1,6.909275651E-1,1.189831018E0,1.318385410E1
3.590048687E1,3.014956415E-1,1.298106313E0,1.133539867E1
3.592059729E1,2.009970993E-1,1.560718536E0,1.012642574E1
3.594070771E1,-2.093719877E-2,1.872981906E0,8.740981102E0
3.596081812E1,-2.566302419E-1,1.981855392E0,7.328019142E0
3.598092854E1,-3.882354796E-1,1.978864312E0,6.322435856E0
3.600103890E1,-4.109672904E-1,2.033301115E0,5.980261803E0
3.602114932E1,-2.602194548E-1,2.137388945E0,6.042475224E0
3.604125974E1,3.349951655E-2,2.264208317E0,6.025725842E0
3.606137010E1,1.232303679E-1,2.395813704E0,5.980261803E0
3.608148052E1,0.000000000E0,2.538186550E0,6.360720634E0
3.610159094E1,-1.166501045E-1,2.649452925E0,6.797410965E0
3.612170135E1,-1.375873089E-1,2.654238462E0,7.316653252E0
3.614181177E1,2.213360965E-1,2.511267424E0,8.066205025E0
3.616192213E1,8.673982024E-1,2.066202402E0,9.269196510E0
3.618203255E1,1.164706469E0,1.652244091E0,1.043569756E1
3.620214297E1,1.025922656E0,1.386042476E0,1.130788136E1
3.622225338E1,5.599204898E-1,1.225723386E0,1.143470097E1
3.624236375E1,3.529413342E-1,1.292124271E0,1.050449181E1
3.626247416E1,6.538388133E-1,1.640279889E0,9.164510727E0
3.628258458E1,8.285148144E-1,1.966302037E0,8.368298531E0
3.630269500E1,5.503492355E-1,2.196611166E0,7.756932735E0
3.632280536E1,7.962117195E-1,2.286940336E0,6.863811970E0
3.634291578E1,1.503889084E0,2.093719721E0,7.470990658E0
3.636302620E1,1.460818172E0,2.076970100E0,9.206983566E0
3.638313661E1,-1.067797065E0,3.519842148E0,9.974481583E0
3.640324698E1,-2.319841623E0,2.799602509E0,1.060020447E1
3.642335739E1,-4.654040039E-1,2.997010350E-1,1.365823174E1
3.644346781E1,8.566305041E-1,-6.693921089E-1,1.868794441E1
3.646357823E1,-4.187439755E-2,-9.397810698E-1,2.075953102E1
3.648368859E1,-1.673181176E0,-9.780662656E-1,1.761655807E1
3.650379901E1,-6.711867452E-1,-7.184450030E-1,1.402732468E1
3.652390942E1,8.859425783E-1,-3.409772366E-2,1.286620712E1
3.654401984E1,1.414756417E0,4.426721931E-1,1.275553894E1
3.656413026E1,8.823533654E-1,6.885347366E-1,1.146820068E1
3.658424062E1,1.890329868E-1,9.918249846E-1,9.358329773E0
3.660435104E1,-2.285145670E-1,1.370489120E0,7.265805721E0
3.662446146E1,-3.254238665E-1,1.621735573E0,5.747560024E0
3.664457187E1,-1.860419661E-1,1.802393675E0,5.152943611E0
3.666468224E1,1.333998591E-1,1.936989903E0,5.261219025E0
3.668479265E1,5.120640397E-1,1.971087694E0,5.740979671E0
3.670490307E1,5.581258535E-1,1.918445587E0,5.784648895E0
3.672501349E1,5.551348329E-1,1.755733609E0,5.720042706E0
3.674512385E1,7.190431952E-1,1.375274777E0,6.060421467E0
3.676523427E1,7.914260626E-1,9.948160052E-1,6.984051228E0
3.678534469E1,5.084748268E-1,9.702895880E-1,7.521239758E0
3.680545510E1,2.877369225E-1,1.200598717E0,6.733402729E0
3.682556552E1,6.909275651E-1,1.258624673E0,5.721239090E0
3.684567588E1,1.896910191E0,1.255035520E0,6.510272026E0
3.686578630E1,2.575275421E0,1.409372568E0,8.634500504E0
3.688589672E1,1.847259045E0,1.395613790E0,9.578469276E0
3.690600713E1,4.857429862E-1,1.270588875E0,8.822337151E0
3.692611750E1,-1.992024779E-1,1.369292736E0,8.200801849E0
3.694622792E1,-2.135594189E-1,1.634297848E0,9.198608398E0
3.696633833E1,1.627119333E-1,1.945963025E0,1.058584690E1
3.698644875E1,7.710871100E-1,1.941775560E0,1.182592773E1
3.700655917E1,2.175673962E0,1.455434322E0,1.370788288E1
3.702666953E1,3.972683907E0,1.095314622E0,1.544148254E1
3.704677995E1,4.530809879E0,2.183450609E-1,1.629392624E1
3.706689036E1,3.100499868E0,-8.368897438E-1,1.707338715E1
3.708700078E1,1.241276741E0,-1.573280931E0,1.779721642E1
3.710711120E1,3.194418252E-1,-1.844268084E0,1.759083557E1
3.712722156E1,4.803591371E-1,-1.191625714E0,1.538285828E1
3.714733198E1,1.256830096E0,-3.290131316E-2,1.255633640E1
3.716744239E1,1.898106575E0,6.849454641E-1,1.040040398E1
3.718755281E1,2.033899307E0,8.931210637E-1,9.541978836E0
3.720766323E1,1.466202021E0,9.595218897E-1,9.704092026E0
3.722777359E1,8.141579032E-1,9.200403094E-1,9.504291534E0
3.724788401E1,4.121637046E-1,9.613165259E-1,8.536395073E0
3.726799443E1,2.027917206E-1,1.136590719E0,7.420741081E0
3.728810484E1,2.428714931E-1,1.272981644E0,6.594020844E0
3.730821521E1,4.067798555E-1,1.339980721E0,6.136393547E0
3.732832562E1,6.125625968E-1,1.333400369E0,6.174080849E0
3.734843604E1,6.305087805E-1,1.296311617E0,6.445665836E0
3.736854646E1,6.370890141E-1,1.086341500E0,6.570691109E0
3.738865687E1,5.102694035E-1,7.411768436E-1,6.710072994E0
3.740876729E1,1.196411322E-3,6.699903607E-1,6.805785656E0
3.742887765E1,-3.367897868E-1,5.958128572E-1,6.840481758E0
3.744898807E1,-2.045863420E-1,6.574280262E-1,6.987041950E0
3.746909849E1,4.372883439E-1,8.799605370E-1,7.191628456E0
3.748920890E1,1.221535921E0,1.167697430E0,7.441080093E0
3.750931927E1,1.581655741E0,1.485344648E0,7.802994728E0
3.752942969E1,1.375872970E0,1.776072621E0,8.220541954E0
3.754954010E1,1.374078393E0,1.922034740E0,8.568697929E0
3.756965052E1,1.596012712E0,1.969292998E0,9.021539688E0
3.758976094E1,1.622333765E0,1.827518344E0,9.789037704E0
3.760987130E1,1.028315544E0,1.767099500E0,1.066899776E1
3.762998172E1,5.078766346E-1,1.749751568E0,1.157647610E1
3.765009213E1,2.147558331E-1,1.457229018E0,1.298943806E1
3.767020255E1,-6.520441920E-2,1.249053478E0,1.443589878E1
3.769031297E1,-5.252245665E-1,1.453639746E0,1.428395462E1
3.771042333E1,-9.906286001E-1,1.972284079E0,1.232842064E1
3.773053375E1,-1.884347796E-1,1.607976794E0,1.262453270E1
3.775064417E1,9.008977413E-1,9.559326172E-1,1.482473278E1
3.777075458E1,1.231107235E0,7.381857634E-1,1.672762489E1
3.779086500E1,8.225327730E-1,6.777670383E-1,1.662413597E1
3.781097536E1,5.090730190E-1,7.986045480E-1,1.483490181E1
3.783108578E1,7.794619799E-1,1.152742267E0,1.283091354E1
3.785119620E1,8.620143533E-1,1.303490162E0,1.118166065E1
3.787130661E1,5.832505226E-1,1.370489120E0,9.719047546E0
3.789141703E1,8.434699476E-2,1.512263894E0,8.084749222E0
3.791152745E1,-1.962114573E-1,1.537986755E0,6.704689026E0
3.793163781E1,-3.744767308E-1,1.555932879E0,5.947360516E0
3.795174823E1,-4.791627228E-1,1.520040631E0,5.940780640E0
3.797185864E1,-5.922235847E-1,1.390828133E0,6.242874146E0
3.799196906E1,-7.214360237E-1,1.238285661E0,6.582056999E0
3.801207948E1,-7.597211599E-1,1.159920812E0,6.681957245E0
3.803218989E1,-7.818548083E-1,1.166501045E0,6.769893646E0
3.805230026E1,-9.798609018E-1,1.388435364E0,6.698707104E0
3.807241068E1,-9.625129104E-1,1.601994753E0,6.315855503E0
3.809252109E1,-5.234299302E-1,1.493121386E0,6.351747513E0
3.811263151E1,-2.446661144E-1,1.268794179E0,7.180262566E0
3.813274193E1,-5.826523304E-1,1.236491084E0,7.716853142E0
3.815285229E1,-1.269392371E0,1.407577872E0,7.395616531E0
3.817296271E1,-1.347757339E0,1.606780410E0,6.853044033E0
3.819307312E1,-7.818548083E-1,1.777269006E0,7.503891945E0
3.821318354E1,-4.743770957E-1,1.738983870E0,8.809774399E0
3.823329396E1,-3.068794906E-1,1.456032634E0,9.921838760E0
3.825340432E1,-2.356930375E-1,9.451649189E-1,1.106740284E1
3.827351474E1,1.393819153E-1,7.375875711E-1,1.216032505E1
3.829362515E1,7.884350419E-1,1.271187067E0,1.242533016E1
3.831373557E1,1.457229018E0,2.225325108E0,1.136351490E1
3.833384599E1,1.875972986E0,2.743969440E0,9.950552940E0
3.835395640E1,2.924627542E0,1.992024899E0,1.193300629E1
3.837406682E1,3.216551781E0,6.340979934E-1,1.650927925E1
3.839417719E1,1.895115495E0,-2.105683982E-1,2.002553177E1
3.841428760E1,6.598208547E-1,5.204389244E-2,1.970190430E1
3.843439802E1,1.271187067E0,1.164108157E0,1.590329742E1
3.845450844E1,2.946761131E0,1.987837434E0,1.279681587E1
3.847461885E1,3.829712629E0,2.349751949E0,1.181456184E1
3.849472927E1,3.598805189E0,2.487339020E0,1.116849995E1
3.851483969E1,2.633301258E0,2.347358942E0,1.018385315E1
3.853495005E1,1.648056626E0,2.146361828E0,8.991030693E0
3.855506047E1,8.614161611E-1,2.001596212E0,7.733603001E0
3.857517088E1,5.437689424E-1,1.943570137E0,6.767500877E0
3.859528130E1,5.413761139E-1,2.075773716E0,5.992226124E0
3.861539172E1,7.848458290E-1,2.203789711E0,5.312066078E0
3.863550213E1,1.211964726E0,2.229512453E0,5.001597404E0
3.865561250E1,1.475773335E0,2.181057930E0,5.121238708E0
3.867572292E1,1.515853167E0,2.027917147E0,5.480760098E0
3.869583333E1,1.392622828E0,1.781456470E0,5.895915031E0
3.871594375E1,1.060020447E0,1.603789330E0,6.322435856E0
3.873605417E1,6.598208547E-1,1.469791293E0,6.723233223E0
3.875616458E1,4.193421602E-1,1.310668588E0,7.337590694E0
3.877627495E1,2.524427772E-1,1.299302697E0,7.964509964E0
3.879638536E1,1.555334777E-1,1.467996716E0,8.072187424E0
3.881649578E1,9.990034252E-2,1.758126378E0,7.641479015E0
3.883660620E1,2.033899277E-1,2.032702923E0,7.569096088E0
3.885671661E1,4.438686073E-1,2.006381750E0,8.392825127E0
3.887682703E1,8.374879360E-1,1.935793519E0,9.699306488E0
3.889693745E1,9.469595551E-1,1.997408748E0,1.109611702E1
3.891704786E1,6.023930907E-1,2.132004976E0,1.240199947E1
3.893715823E1,9.930214286E-2,2.292922258E0,1.383589840E1
3.895726864E1,-1.860419661E-1,2.315654039E0,1.489412498E1
3.897737906E1,-5.724828243E-1,2.703291416E0,1.420858097E1
3.899748948E1,-1.136590719E0,3.589832067E0,1.228654575E1
3.901759989E1,-8.973085321E-3,3.284747362E0,1.254018497E1
3.903771031E1,5.264210105E-1,2.947359324E0,1.375454235E1
3.905782068E1,-1.262213886E-1,3.095116138E0,1.346381474E1
3.907793109E1,-8.763712645E-1,2.702095032E0,1.257607746E1
3.909804151E1,-9.678967595E-1,2.255833626E0,1.299900913E1
3.911815193E1,-7.405785918E-1,1.898704767E0,1.336271763E1
3.913826234E1,-8.350951076E-1,1.599003673E0,1.260598755E1
3.915837276E1,-1.223330617E0,1.568495274E0,1.121097183E1
3.917848318E1,-1.438684583E0,1.716850281E0,9.707083702E0
3.919859359E1,-1.254437327E0,1.792822361E0,8.265407562E0
3.921870401E1,-9.708877802E-1,1.813161373E0,7.303493023E0
3.923881437E1,-7.483552694E-1,1.784447432E0,6.722635269E0
3.925892479E1,-6.382854581E-1,1.753340840E0,6.461219311E0
3.927903521E1,-6.885347366E-1,1.754537225E0,6.428318024E0
3.929914562E1,-8.153542876E-1,1.682154298E0,6.626922131E0
3.931925604E1,-9.960124493E-1,1.587637782E0,6.821339130E0
3.933936646E1,-1.149153113E0,1.619940877E0,6.771687984E0
3.935947687E1,-1.186840057E0,1.823330879E0,6.352943897E0
3.937958729E1,-1.110269666E0,2.109273195E0,5.892325878E0
3.939969765E1,-1.213759303E0,2.280359983E0,5.939583778E0
3.941980807E1,-1.049850941E0,2.184647083E0,6.786643028E0
3.943991849E1,-5.270192027E-1,1.894517303E0,8.106285095E0
3.946002890E1,-3.690928817E-1,1.741974831E0,9.252447128E0
3.948013932E1,-5.563312769E-1,1.713261008E0,9.623334885E0
3.950024974E1,-1.019342422E0,1.828116536E0,9.019146919E0
3.952036015E1,-1.180259824E0,1.952543259E0,8.336593628E0
3.954047057E1,-8.177471161E-1,2.150549412E0,8.394021988E0
3.956058094E1,-4.480560422E-1,2.364706993E0,8.905488014E0
3.958069135E1,-3.361915946E-1,2.496910334E0,9.346364975E0
3.960080177E1,-3.056831062E-1,2.530410051E0,9.684351921E0
3.962091219E1,-2.243271172E-1,2.627319336E0,1.013180923E1
3.964102260E1,-2.051845491E-1,2.556730986E0,1.077248764E1
3.966113302E1,2.111666054E-1,2.396411896E0,1.138804150E1
3.968124344E1,7.447660565E-1,2.462214470E0,1.189890862E1
3.970135385E1,1.054636598E0,2.484946251E0,1.237926769E1
3.972146427E1,1.746162295E0,1.480558991E0,1.365763378E1
3.974157469E1,2.038086653E0,6.873382926E-1,1.560778427E1
3.976168510E1,9.924231768E-1,7.609176040E-1,1.643869209E1
3.978179552E1,-7.058826834E-2,8.578268886E-1,1.484447384E1
3.980190588E1,3.194418252E-1,1.351346612E0,1.257069397E1
3.982201630E1,1.515853167E0,1.882553220E0,1.134138107E1
3.984212672E1,2.224726915E0,1.889133453E0,1.109791183E1
3.986223713E1,2.065604210E0,1.878365755E0,1.087238789E1
3.988234755E1,1.487737536E0,1.809572101E0,1.012762165E1
3.990245797E1,9.631111026E-1,1.706082582E0,9.075976372E0
3.992256838E1,5.784648657E-1,1.660020709E0,7.947760582E0
3.994267880E1,4.001995921E-1,1.718644857E0,6.927819729E0
3.996278922E1,3.852444589E-1,1.759322882E0,6.190830231E0
3.998289963E1,5.024927258E-1,1.831107497E0,5.718247890E0
4.000301005E1,6.903293133E-1,1.876571178E0,5.469992638E0
4.002312042E1,9.637092948E-1,1.849053741E0,5.643472195E0
4.004323083E1,1.069591761E0,1.939382792E0,6.036493301E0
4.006334125E1,8.153542876E-1,2.126022816E0,5.974878311E0
4.008345167E1,4.965106845E-1,2.383849621E0,5.903093338E0
4.010356208E1,3.499503136E-1,2.595016241E0,6.436692715E0
4.012367250E1,3.577269912E-1,2.636890650E0,7.676773071E0
4.014378292E1,3.415754437E-1,2.577069998E0,9.024530411E0
4.016389333E1,5.940182209E-1,2.439482689E0,1.022572803E1
4.018400375E1,1.431506157E0,2.374278307E0,1.113500023E1
4.020411417E1,2.706282377E0,2.010569334E0,1.337767315E1
4.022422458E1,2.813959360E0,9.559326172E-1,1.686880112E1
4.024433500E1,7.645068169E-1,2.255235314E-1,1.801257133E1
4.026444542E1,-1.859821439E0,1.102493048E0,1.412423420E1
4.028455583E1,-1.491924882E0,2.167897224E0,1.066421223E1
4.030466625E1,2.377867460E0,1.566102386E0,1.196770287E1
4.032477666E1,3.916452408E0,1.889731646E0,1.283809185E1
4.034488708E1,2.242672920E0,2.762513638E0,1.111346436E1
4.036499745E1,9.595218897E-1,2.048854351E0,1.032144070E1
4.038510786E1,1.003789067E0,1.445863128E0,1.199222851E1
4.040521828E1,8.805587292E-1,1.124626637E0,1.307258797E1
4.042532870E1,-3.290131316E-2,9.343972206E-1,1.248395348E1
4.044543911E1,-8.793623447E-1,1.031306505E0,1.121336555E1
4.046554953E1,-6.819544435E-1,1.180858016E0,9.946963310E0
4.048565995E1,-1.028913707E-1,1.355534077E0,8.834300995E0
4.050577036E1,2.877369225E-1,1.457827210E0,8.234300613E0
4.052588078E1,3.852444589E-1,1.454237938E0,7.919644833E0
4.054599120E1,3.529413342E-1,1.449452281E0,7.736593723E0
4.056610161E1,3.535395563E-1,1.475773335E0,7.450651646E0
4.058621203E1,3.649054468E-1,1.533201098E0,7.347161770E0
4.060632245E1,2.560320199E-1,1.511067510E0,7.093522549E0
4.062643286E1,1.680957973E-1,1.505085468E0,6.681358814E0
4.064654328E1,2.231307179E-1,1.527817249E0,6.572485447E0
4.066665370E1,3.391826153E-1,1.583450437E0,6.655037880E0
4.068676411E1,9.810572863E-2,1.668395638E0,6.872186661E0
4.070687453E1,-2.063809484E-1,1.520040631E0,7.098906517E0
4.072698495E1,-2.572284341E-1,1.369292736E0,7.524230957E0
4.074709536E1,-1.435693651E-1,1.414158225E0,7.809575081E0
4.076720578E1,1.363908947E-1,1.534397483E0,7.787441254E0
4.078731620E1,5.641079545E-1,1.603191137E0,8.095517159E0
4.080742661E1,8.901300430E-1,1.665404558E0,8.751151085E0
4.082753703E1,7.752745152E-1,1.702493310E0,8.974879265E0
4.084764745E1,2.428714931E-1,1.855633974E0,8.164310455E0
4.086775781E1,3.708875179E-2,2.046461582E0,7.195816040E0
4.088786823E1,5.455635786E-1,2.136192322E0,7.172485828E0
4.090797870E1,8.446664214E-1,2.309672117E0,7.933403492E0
4.092808906E1,6.358926296E-1,2.592025042E0,8.469993591E0
4.094819948E1,7.417750359E-1,2.429911375E0,1.023470020E1
4.096830989E1,1.209571838E0,1.862214208E0,1.403988647E1
4.098842031E1,2.050050735E0,1.372283816E0,1.602533150E1
4.100853073E1,1.996212244E0,1.353739381E0,1.435334682E1
4.102864114E1,1.696511269E0,1.643270969E0,1.249950695E1
4.104875156E1,3.221935749E0,1.086341500E0,1.399621773E1
4.106886198E1,3.964907169E0,6.795616150E-1,1.684247971E1
4.108897239E1,2.630310297E0,6.089733839E-1,1.760758591E1
4.110908281E1,7.896314859E-1,9.493523836E-1,1.497009659E1
4.112919328E1,9.200403094E-1,1.597807288E0,1.216630650E1
4.114930364E1,1.722832322E0,1.925624013E0,1.078026390E1
4.116941406E1,1.559522152E0,1.736590981E0,1.047278690E1
4.118952448E1,9.230313301E-1,1.392622828E0,1.042313576E1
4.120963489E1,3.511467278E-1,1.257428288E0,1.011984539E1
4.122974536E1,2.991028363E-3,1.223330617E0,9.461818695E0
4.124985573E1,4.725824669E-2,1.262812138E0,8.322237015E0
4.126996620E1,2.195414752E-1,1.441077471E0,6.984051228E0
4.129007661E1,5.413761139E-1,1.568495274E0,5.991029739E0
4.131018698E1,8.536394835E-1,1.707877159E0,5.476572990E0
4.133029745E1,1.075573802E0,1.813161373E0,5.276174068E0
4.135040781E1,1.199402332E0,1.708475351E0,5.289932728E0
4.137051828E1,1.366301775E0,1.520040631E0,5.594419479E0
4.139062870E1,1.413560033E0,1.437488198E0,6.004190445E0
4.141073911E1,1.042672515E0,1.263410330E0,6.522834301E0
4.143084953E1,4.923232496E-1,9.924231768E-1,6.947560310E0
4.145095995E1,1.567298770E-1,9.008977413E-1,7.153343201E0
4.147107036E1,1.585244983E-1,9.924231768E-1,7.094718933E0
4.149118078E1,2.632105052E-1,1.229312658E0,6.922435760E0
4.151129120E1,2.081755698E-1,1.491924882E0,7.360322475E0
4.153140161E1,1.387837082E-1,1.560718536E0,8.273782730E0
4.155151203E1,2.009970993E-1,1.519442320E0,9.169894218E0
4.157162245E1,9.690931439E-2,1.916052699E0,1.024068260E1
4.159173286E1,2.542374134E-1,2.199602127E0,1.150768185E1
4.161184328E1,7.932206988E-1,1.967498422E0,1.332323647E1
4.163195370E1,8.105686903E-1,2.390429735E0,1.434257889E1
4.165206411E1,2.721835673E-1,3.244069338E0,1.341715431E1
4.167217453E1,7.668996453E-1,2.176870346E0,1.416012573E1
4.169228495E1,6.520441771E-1,1.503290772E0,1.657687759E1
4.171239536E1,-2.536391914E-1,1.884347796E0,1.739163399E1
4.173250578E1,-8.644071817E-1,1.882553220E0,1.542712593E1
4.175261620E1,-6.580262631E-2,1.958525300E0,1.456571007E1
4.177272661E1,7.363911867E-1,2.126022816E0,1.434078407E1
4.179283703E1,5.341976285E-1,2.042274237E0,1.298345566E1
4.181294745E1,5.144568533E-2,1.976471543E0,1.138863945E1
4.183305786E1,2.392822690E-2,1.899302959E0,1.000917721E1
4.185316833E1,1.980060786E-1,1.814357758E0,8.819346428E0
4.187327875E1,1.920240223E-1,1.767099500E0,7.695317745E0
4.189338916E1,1.046859920E-1,1.744367719E0,6.842276573E0
4.191349958E1,5.024927482E-2,1.680359721E0,6.365506649E0
4.193361000E1,2.757728100E-1,1.436890006E0,6.353542328E0
4.195372042E1,-1.100698411E-1,1.829911113E0,6.261418819E0
4.197383083E1,3.098705411E-1,1.675574064E0,6.591030121E0
4.199394125E1,3.643072546E-1,1.645065546E0,6.120840549E0
4.201405167E1,2.213360965E-1,2.027917147E0,5.343173027E0
4.203416208E1,7.579265833E-1,2.029113531E0,5.029115200E0
4.205427250E1,7.716853023E-1,2.103291035E0,5.708078384E0
4.207438292E1,5.599204898E-1,2.049452543E0,6.177071571E0
4.209449333E1,1.872383654E-1,1.369292736E0,7.420741081E0
4.211460375E1,-1.256231815E-1,1.378265858E0,7.030711174E0
4.213471417E1,-1.555334684E-2,1.748555183E0,6.631708145E0
4.215482458E1,-1.866401732E-1,2.057827473E0,6.549155712E0
4.217493500E1,-1.902294010E-1,2.145165443E0,6.893123627E0
