"Time (s)","Acceleration x (m/s^2)","Acceleration y (m/s^2)","Acceleration z (m/s^2)"
1.669521100E-2,9.349954724E-1,3.516252756E0,8.317451477E0
3.680489800E-2,7.848458290E-1,3.281756163E0,7.849654675E0
5.691463800E-2,7.872386575E-1,3.401397467E0,8.688339233E0
7.702437700E-2,6.424728632E-1,3.454637766E0,1.012821960E1
9.713406500E-2,4.845465720E-1,3.229712248E0,1.018265629E1
1.172438050E-1,3.421736360E-1,3.135794163E0,9.739984512E0
1.373535440E-1,4.313062727E-1,3.300898790E0,9.295517921E0
1.574632840E-1,4.570291340E-1,3.479762316E0,8.962915421E0
1.775729710E-1,4.157529473E-1,3.458825111E0,9.133403778E0
1.976827110E-1,3.696911037E-1,3.391826153E0,9.625727654E0
2.177924500E-1,2.267199457E-1,3.324826956E0,9.948160172E0
2.379021380E-1,2.392822690E-2,3.300300598E0,9.975677490E0
2.580118770E-1,-4.007977992E-2,3.280559778E0,9.805787086E0
2.781216170E-1,1.046859920E-1,3.255435228E0,9.539586067E0
2.982313050E-1,4.450650215E-1,3.286541939E0,9.194420815E0
3.183410440E-1,6.622136831E-1,3.401995659E0,8.949754715E0
3.384507840E-1,6.053841114E-1,3.472583771E0,9.061619759E0
3.585604710E-1,4.600201547E-1,3.420539856E0,9.283554077E0
3.786702110E-1,3.020938635E-1,3.370290756E0,9.432506561E0
3.987799500E-1,3.409772217E-1,3.342773199E0,9.379864693E0
4.188896900E-1,4.504488707E-1,3.415156126E0,9.266205788E0
4.389993770E-1,5.832505226E-1,3.490530014E0,9.217751503E0
4.591091170E-1,6.939185858E-1,3.502494097E0,9.278169632E0
4.792188570E-1,7.716853023E-1,3.503690481E0,9.169296265E0
4.993285960E-1,6.975077987E-1,3.553939819E0,9.004191399E0
5.194382840E-1,5.682953596E-1,3.550350666E0,8.874979019E0
5.395480230E-1,3.379862010E-1,3.503092289E0,8.934201241E0
5.596577630E-1,1.022931710E-1,3.460021496E0,9.205188751E0
5.797674500E-1,-1.495514158E-2,3.433700562E0,9.488140106E0
5.998771900E-1,-5.383851007E-3,3.384647608E0,9.568299294E0
6.199869300E-1,5.623133108E-2,3.378665686E0,9.559925079E0
6.400966690E-1,1.657029688E-1,3.378665686E0,9.408578873E0
6.602063570E-1,2.560320199E-1,3.346960783E0,9.345169067E0
6.803160960E-1,2.841476798E-1,3.315854073E0,9.491728783E0
7.004258360E-1,2.709871531E-1,3.306282759E0,9.630513191E0
7.205355230E-1,2.985046208E-1,3.246462107E0,9.514460564E0
7.406452630E-1,2.721835673E-1,3.265006542E0,9.369096756E0
7.607550020E-1,1.950150430E-1,3.404388428E0,9.165707588E0
7.808647420E-1,1.896311939E-1,3.485146284E0,8.989236832E0
8.009744300E-1,2.356930375E-1,3.480958700E0,8.991629601E0
8.210841690E-1,2.793620527E-1,3.440878868E0,9.209974289E0
8.411939090E-1,8.733802289E-2,3.366103172E0,9.544371605E0
8.613035960E-1,-1.818545163E-1,3.267399311E0,9.789635658E0
8.814133360E-1,-1.184447184E-1,3.216551781E0,9.547362328E0
9.015230750E-1,-1.148554832E-1,3.278765202E0,9.193224907E0
9.216328150E-1,-7.238288224E-2,3.339184046E0,9.048459053E0
9.417425020E-1,1.004985496E-1,3.355335474E0,9.294919968E0
9.618522420E-1,2.757728100E-1,3.352942705E0,9.528220177E0
9.819619820E-1,1.369891018E-1,3.362514019E0,9.403793335E0
1.002071721E0,-5.802594870E-2,3.332603693E0,9.315258980E0
1.022181409E0,-1.202393398E-1,3.250051260E0,9.385847092E0
1.042291148E0,-6.041877344E-2,3.276372433E0,9.355937004E0
1.062400888E0,1.178465188E-1,3.361915827E0,9.167501450E0
1.082510627E0,3.373879790E-1,3.433700562E0,9.043074608E0
1.102620315E0,4.833501875E-1,3.455235958E0,8.985647202E0
1.122730055E0,3.547359705E-1,3.433700562E0,9.221938133E0
1.142839794E0,1.651047617E-1,3.360719442E0,9.386445045E0
1.162949534E0,-1.734796353E-2,3.367299557E0,9.336195946E0
1.183059221E0,-1.268195957E-1,3.356531858E0,9.099904060E0
1.203168961E0,-1.268195957E-1,3.311666489E0,8.822337151E0
1.223278700E0,1.668993831E-1,3.239881754E0,9.032905579E0
1.243388440E0,4.211367965E-1,3.306880951E0,9.198608398E0
1.263498127E0,4.402793646E-1,3.171686411E0,9.397212982E0
1.283607867E0,5.186443329E-1,3.102892876E0,9.627521515E0
1.303717607E0,4.809573591E-1,3.047857761E0,9.786046028E0
1.323827346E0,3.194418252E-1,3.038286448E0,9.573683739E0
1.343937034E0,1.154536903E-1,3.070589542E0,9.227322578E0
1.364046773E0,-3.571287692E-1,3.128615618E0,9.009575844E0
1.384156513E0,-8.374879509E-2,3.025125980E0,8.952746391E0
1.404266252E0,1.316052526E-1,2.789433002E0,9.212965012E0
1.424375940E0,-3.493520916E-1,3.283550978E0,9.512666702E0
1.444485680E0,-3.756731451E-1,3.243471146E0,9.821340561E0
1.464595419E0,-2.775674164E-1,2.961716175E0,1.000319481E1
1.484705159E0,-2.309073806E-1,2.922234535E0,9.972088814E0
1.504814846E0,-2.344966233E-1,2.918645382E0,9.890133858E0
1.524924586E0,-2.183450609E-1,2.830709219E0,9.989436150E0
1.545034325E0,-5.742774159E-2,2.839682341E0,1.024666500E1
1.565144065E0,-2.099701911E-1,2.912065268E0,1.016052341E1
1.585253805E0,-6.185446382E-1,2.906083107E0,9.794421196E0
1.605363492E0,-7.369893789E-1,2.855235577E0,9.455238342E0
1.625473232E0,-3.577269912E-1,2.846262455E0,9.513264656E0
1.645582971E0,2.859423161E-1,2.833700180E0,9.622138023E0
1.665692711E0,3.349951804E-1,2.853441000E0,9.583254814E0
1.685802398E0,-2.267199457E-1,2.790629387E0,9.601201057E0
1.705912138E0,-8.279166222E-1,2.772084951E0,9.519845009E0
1.726021877E0,-8.961120844E-1,2.810968399E0,9.248259544E0
1.746131617E0,-6.987041831E-1,2.908475876E0,8.971290588E0
1.766241305E0,-5.629115105E-1,2.976671457E0,8.858229637E0
1.786351044E0,-4.289134443E-1,3.050250769E0,8.860622406E0
1.806460784E0,-3.661018610E-1,3.131008387E0,8.880961418E0
1.826570523E0,-2.943171859E-1,3.114258766E0,9.035896301E0
1.846680263E0,-3.433700502E-1,3.072384357E0,9.135198593E0
1.866789950E0,-3.164508045E-1,2.982653379E0,9.470791817E0
1.886899690E0,-1.387837082E-1,2.970091105E0,9.725028992E0
1.907009430E0,-1.728814393E-1,3.009572744E0,9.767501831E0
1.927119169E0,-3.110669553E-1,2.988037348E0,9.546165466E0
1.947228857E0,-3.583251834E-1,2.963510752E0,9.425328255E0
1.967338596E0,-2.775674164E-1,3.037090063E0,9.453444481E0
1.987448336E0,-2.087737769E-1,3.027518749E0,9.737591743E0
2.007558075E0,-7.836493850E-2,3.001197815E0,9.891928673E0
2.027667815E0,1.316052489E-2,2.986840963E0,9.833903313E0
2.047777555E0,1.064806059E-1,2.947957516E0,9.800403595E0
2.067887242E0,1.908276081E-1,2.919243574E0,9.872786522E0
2.087996982E0,3.044866920E-1,2.923431158E0,9.874580383E0
2.108106721E0,3.200400174E-1,2.903092146E0,9.848259926E0
2.128216461E0,2.273181528E-1,2.933002472E0,9.823135376E0
2.148326200E0,1.148554832E-1,2.923431158E0,9.730413437E0
2.168435888E0,3.110669367E-2,2.857030153E0,9.802198410E0
2.188545627E0,1.298106313E-1,2.821137905E0,9.966106415E0
2.208655367E0,2.769692242E-1,2.906083107E0,9.872187614E0
2.228765107E0,3.762713671E-1,3.007179976E0,9.503693581E0
2.248874794E0,3.966103494E-1,3.050250769E0,9.323633194E0
2.268984534E0,3.720839322E-1,3.023929596E0,9.700503349E0
2.289094273E0,3.200400174E-1,2.973680258E0,1.011864853E1
2.309204013E0,2.207378894E-1,2.923431158E0,9.821340561E0
2.329313752E0,2.560320199E-1,3.011367321E0,9.087342262E0
2.349423492E0,3.116651475E-1,3.154338360E0,8.547162056E0
2.369533180E0,3.337987661E-1,3.179463148E0,8.422736168E0
2.389642919E0,2.709871531E-1,3.115455151E0,8.788239479E0
2.409752659E0,1.262213886E-1,3.068196774E0,9.253643036E0
2.429862398E0,4.426721856E-2,3.100499868E0,9.310472488E0
2.449972138E0,1.010967568E-1,3.188436270E0,8.977870941E0
2.470081877E0,1.477568001E-1,3.221935749E0,8.772088051E0
2.490191565E0,1.956132501E-1,3.268595695E0,8.894720078E0
2.510301305E0,2.476571500E-1,3.379263878E0,9.141180992E0
2.530411044E0,2.303091735E-1,3.375076294E0,9.218349457E0
2.550520784E0,9.272187948E-2,3.343371391E0,9.296115875E0
2.570630523E0,7.357929647E-2,3.298506021E0,9.540781975E0
2.590740211E0,1.106680483E-1,3.263810158E0,9.766903877E0
2.610849950E0,6.221338734E-2,3.246462107E0,9.775876999E0
2.630959690E0,3.110669367E-2,3.264408350E0,9.704092026E0
2.651069430E0,9.332008660E-2,3.282952785E0,9.659226418E0
2.671179169E0,1.519442350E-1,3.285345554E0,9.650852203E0
2.691288857E0,1.357926875E-1,3.327219963E0,9.465408325E0
2.711398596E0,-3.649054468E-2,3.357728481E0,9.236295700E0
2.731508336E0,-6.939185411E-2,3.311068296E0,9.083752632E0
2.751618075E0,-6.999006122E-2,3.304488182E0,9.220742226E0
2.771727815E0,-1.980060786E-1,3.287738323E0,9.408578873E0
2.791837555E0,-2.584248483E-1,3.275176048E0,9.314062119E0
2.811947242E0,-2.614158690E-1,3.293122053E0,9.159725189E0
2.832056982E0,-1.830509305E-1,3.328416348E0,9.105886459E0
2.852166721E0,-7.118647546E-2,3.320041418E0,9.206384659E0
2.872276461E0,-4.486542568E-2,3.293720484E0,9.424132347E0
2.892386200E0,-1.848455518E-1,3.251247883E0,9.479764938E0
2.912495940E0,-2.386840582E-1,3.227319479E0,9.396016121E0
2.932605627E0,-1.196411327E-1,3.224328518E0,9.321240425E0
2.952715367E0,-8.434699476E-2,3.186641455E0,9.259027481E0
2.972825107E0,-1.788634956E-1,3.223730326E0,9.229715347E0
2.992934846E0,-2.709871531E-1,3.252444267E0,9.177073479E0
3.013044586E0,-1.710868180E-1,3.133401155E0,9.272786140E0
3.033154325E0,-5.623133108E-2,3.050848961E0,9.677172661E0
3.053264065E0,-3.589233849E-3,3.090928555E0,9.915857315E0
3.073373752E0,1.579262912E-1,3.114856958E0,9.757930756E0
3.093483492E0,3.918247223E-1,3.201596737E0,9.495318413E0
3.113593232E0,5.276173949E-1,3.315854073E0,9.232108116E0
3.133702971E0,6.717849374E-1,3.327818155E0,9.174679756E0
3.153812711E0,7.393822074E-1,3.296711445E0,9.470791817E0
3.173922450E0,7.016952634E-1,3.241078377E0,9.701101303E0
3.194032190E0,5.976074338E-1,3.162713289E0,9.598209381E0
3.214141877E0,4.486542344E-1,3.128615618E0,9.443274498E0
3.234251617E0,2.602194548E-1,3.139383316E0,9.398408890E0
3.254361357E0,2.273181453E-2,3.168097258E0,9.431908607E0
3.274471096E0,-9.810572863E-2,3.122633457E0,9.541379929E0
3.294580836E0,-1.298106313E-1,3.104089260E0,9.763314247E0
3.314690575E0,-8.853443712E-2,3.132204771E0,9.830313683E0
3.334800315E0,-2.572284266E-2,3.135195971E0,9.805787086E0
3.354910002E0,-4.127619043E-2,3.153141975E0,9.744172096E0
3.375019742E0,-9.152546525E-2,3.171088219E0,9.662218094E0
3.395129482E0,-5.324030295E-2,3.207578659E0,9.568299294E0
3.415239221E0,7.118647546E-2,3.256631613E0,9.373882294E0
3.435348961E0,1.758724600E-1,3.255435228E0,9.206384659E0
3.455458700E0,1.824527234E-1,3.275176048E0,9.294919968E0
3.475568440E0,1.686939895E-1,3.233301640E0,9.424730301E0
3.495678180E0,1.812563092E-1,3.231507063E0,9.416953087E0
3.515787867E0,2.129612118E-1,3.224328518E0,9.350552559E0
3.535897607E0,2.626122832E-1,3.229114056E0,9.198608398E0
3.556007346E0,2.518445849E-1,3.269193888E0,9.076574326E0
3.576117086E0,2.518445849E-1,3.281157970E0,9.153742790E0
3.596226825E0,2.739782035E-1,3.288934708E0,9.182456970E0
3.616336565E0,3.966103494E-1,3.360121250E0,8.983852386E0
3.636446305E0,3.894318938E-1,3.480360508E0,8.726624489E0
3.656556044E0,2.285145670E-1,3.491128206E0,8.771489143E0
3.676665732E0,7.058826834E-2,3.429512978E0,8.976076126E0
3.696775471E0,2.392822690E-2,3.352344513E0,9.128618240E0
3.716885211E0,1.118644550E-1,3.248256683E0,9.268598557E0
3.736994950E0,1.393819153E-1,3.242274761E0,9.428917885E0
3.757104690E0,1.435693651E-1,3.357130051E0,9.313464165E0
3.777214430E0,1.938186288E-1,3.354139090E0,9.251849174E0
3.797324169E0,2.554338276E-1,3.344567776E0,9.454042435E0
3.817433909E0,2.715853751E-1,3.327219963E0,9.682557106E0
3.837543596E0,2.596212626E-1,3.342175007E0,9.658030510E0
3.857653336E0,2.494517565E-1,3.379263878E0,9.378069878E0
3.877763075E0,2.685943544E-1,3.436093330E0,9.105288506E0
3.897872815E0,2.673979402E-1,3.484548092E0,8.926424980E0
3.917982555E0,2.679961324E-1,3.534797192E0,8.914461136E0
3.938092294E0,3.499503136E-1,3.485744476E0,9.098110199E0
3.958202034E0,3.643072546E-1,3.437289715E0,9.421140671E0
3.978311773E0,1.932204217E-1,3.365504980E0,9.541978836E0
3.998421513E0,4.905286431E-2,3.287140131E0,9.598209381E0
4.018531252E0,4.127619043E-2,3.281756163E0,9.601201057E0
4.038640992E0,1.196411327E-1,3.314059258E0,9.483354568E0
4.058750680E0,1.387837082E-1,3.470191002E0,9.222537041E0
4.078860419E0,1.722832322E-1,3.481556892E0,8.967700958E0
4.098970159E0,2.285145670E-1,3.445664644E0,9.071788788E0
4.119079898E0,3.517449200E-1,3.427120209E0,9.323633194E0
4.139189638E0,2.787638307E-1,3.525824070E0,9.371489525E0
4.159299377E0,9.631111473E-2,3.589832067E0,9.152546883E0
4.179409117E0,1.304088384E-1,3.510270834E0,8.984451294E0
4.199518857E0,2.931207716E-1,3.465405464E0,9.139984131E0
4.219628596E0,5.030909777E-1,3.605983734E0,9.080761909E0
4.239738336E0,6.041877270E-1,3.789034605E0,8.908478737E0
4.259848075E0,7.537391186E-1,3.823132277E0,8.877969742E0
4.279957815E0,8.177471161E-1,3.867997885E0,9.025727272E0
4.300067502E0,5.964110494E-1,3.920041800E0,9.081958771E0
4.320177242E0,2.572284341E-1,3.829114437E0,8.934201241E0
4.340286982E0,5.144568533E-2,3.811766386E0,8.964112282E0
4.360396721E0,-4.127619043E-2,3.939184189E0,8.847461700E0
4.380506461E0,-8.255238086E-2,4.042674065E0,8.608778000E0
4.400616200E0,-2.051845491E-1,4.128217220E0,8.635697365E0
4.420725940E0,-3.343969584E-1,4.137788773E0,8.791230202E0
4.440835680E0,-4.755735099E-1,4.148556232E0,8.916254997E0
4.460945419E0,-5.730810165E-1,4.116253376E0,8.940781593E0
4.481055159E0,-6.454638839E-1,4.084548473E0,8.949156761E0
4.501164898E0,-5.838487148E-1,4.037290096E0,9.004789352E0
4.521274638E0,-4.594219327E-1,3.996013880E0,9.189635277E0
4.541384377E0,-3.026920557E-1,3.977469444E0,9.141778946E0
4.561494117E0,-2.889333367E-1,4.045066833E0,8.650053978E0
4.581603857E0,-4.582255483E-1,4.171288013E0,8.349754333E0
4.601713596E0,-3.427718580E-1,4.241278172E0,8.406583786E0
4.621823284E0,-1.262213886E-1,4.350749969E0,8.381459236E0
4.641933023E0,-1.232303679E-1,4.389034748E0,8.316255569E0
4.662042763E0,1.902294010E-1,4.310669899E0,8.407780647E0
4.682152502E0,2.368894368E-1,4.369892120E0,8.501698494E0
4.702262242E0,1.633101404E-1,4.447659016E0,8.515457153E0
4.722371982E0,8.135596663E-2,4.555335999E0,8.541180611E0
4.742481721E0,4.013960063E-1,4.705485821E0,8.469993591E0
4.762591461E0,8.315058947E-1,4.825725079E0,8.189435959E0
4.782701200E0,9.487541914E-1,4.893322468E0,8.097909927E0
4.802810940E0,5.898307562E-1,4.904688358E0,8.452646255E0
4.822920680E0,2.602194548E-1,4.875974178E0,9.506086349E0
4.843030419E0,2.530409992E-1,4.844269276E0,1.085384369E1
4.863140159E0,2.267199457E-1,5.123033047E0,1.133659554E1
4.883249898E0,1.034895778E-1,5.696114540E0,1.040578747E1
4.903359638E0,6.939185411E-2,6.168696880E0,8.908478737E0
4.923469377E0,3.601198196E-1,6.098706722E0,8.542376518E0
4.943579117E0,7.710871100E-1,5.395216942E0,9.811769485E0
4.963688857E0,5.431707501E-1,4.838885784E0,1.105125141E1
4.983798596E0,-1.740778536E-1,4.639084816E0,1.121755219E1
5.003908336E0,-1.356730461E0,5.338985443E0,1.056490993E1
5.024018075E0,-1.796411633E0,5.626124382E0,1.031605625E1
5.044127815E0,-5.988038778E-1,4.149752617E0,1.182233810E1
5.064237555E0,1.458425403E0,2.036890268E0,1.494377518E1
5.084347294E0,2.011765718E0,1.120439172E0,1.630170250E1
5.104457034E0,1.842473447E-1,1.060020447E0,1.447059536E1
5.124566721E0,-1.790429592E0,1.074975610E0,1.146820068E1
5.144676513E0,-2.657229662E0,8.578268886E-1,9.903892517E0
5.164786200E0,-1.923829436E0,1.174875975E0,1.027836990E1
5.184895940E0,-8.368897438E-1,1.922034740E0,1.010429192E1
5.205005680E0,-1.298106313E-1,2.264806747E0,8.452047348E0
5.225115419E0,3.194418252E-1,2.199003935E0,6.790830612E0
5.245225159E0,3.846462369E-1,1.954936147E0,5.839683533E0
5.265334898E0,1.615155302E-2,1.602592945E0,5.964110374E0
5.285444638E0,-5.180460811E-1,1.432702541E0,7.092326164E0
5.305554377E0,-8.925228715E-1,1.578066587E0,7.657630444E0
5.325664117E0,-1.016351461E0,1.945963025E0,7.047461033E0
5.345773857E0,-6.209374666E-1,2.499303341E0,6.063412666E0
5.365883596E0,-3.589233849E-3,3.080160856E0,5.671587944E0
5.385993336E0,3.726821244E-1,3.303889751E0,6.208178520E0
5.406103075E0,3.678964674E-1,3.580260992E0,7.351947784E0
5.426212815E0,6.041877344E-2,4.180859566E0,8.353941917E0
5.446322555E0,8.195417374E-2,4.762315273E0,8.199007034E0
5.466432294E0,2.883351147E-1,5.049454212E0,7.617550850E0
5.486542034E0,6.215356588E-1,5.152345181E0,8.096714020E0
5.506651773E0,7.280163169E-1,5.244469166E0,9.333803177E0
5.526761513E0,5.551348329E-1,4.999204636E0,1.055234814E1
5.546871252E0,3.349951804E-1,4.415356159E0,1.136650562E1
5.566980992E0,7.339983582E-1,3.762115479E0,1.165424252E1
5.587090732E0,1.777269006E0,2.881556749E0,1.154178047E1
5.607200471E0,1.897508383E0,2.557329178E0,1.145384407E1
5.627310211E0,8.021938205E-1,3.623331785E0,1.039980507E1
5.647419950E0,-1.674975827E-2,3.848257065E0,1.002054310E1
5.667529690E0,4.887340367E-1,2.559721947E0,1.203171062E1
5.687639430E0,1.180259824E0,1.115653515E0,1.448854065E1
5.707749169E0,1.744367719E0,-6.514459848E-1,1.655294800E1
5.727858909E0,1.058824062E0,-9.230313301E-1,1.719063568E1
5.747968648E0,-2.739782035E-1,5.144568682E-1,1.361516094E1
5.768078388E0,-1.043868899E0,2.053041935E0,9.061020851E0
5.788188127E0,-2.123630047E-1,2.635095835E0,7.228717327E0
5.808297867E0,1.301695466E0,2.910270452E0,8.029714584E0
5.828407607E0,1.767099500E0,3.050848961E0,9.367302895E0
5.848517346E0,9.595218897E-1,2.928216696E0,8.901898384E0
5.868627086E0,3.409772366E-2,2.877369165E0,7.442276478E0
5.888736825E0,-4.695914388E-1,2.793022156E0,5.691926956E0
5.908846565E0,-5.659025311E-1,2.843271494E0,4.740181446E0
5.928956305E0,-2.949153781E-1,3.065804005E0,5.402395248E0
5.949066044E0,-1.764706671E-1,3.211168051E0,5.850451469E0
5.969175836E0,-4.241278172E-1,3.278167009E0,5.767899036E0
5.989285523E0,-6.783652306E-1,3.407379389E0,6.109474182E0
6.009395263E0,-7.220342159E-1,3.683750391E0,6.637690067E0
6.029505002E0,-7.824530005E-1,3.981656790E0,7.762316704E0
6.049614794E0,-7.124629617E-1,4.409373760E0,9.446265221E0
6.069724482E0,-6.939185858E-1,5.058426857E0,9.989436150E0
6.089834273E0,-6.957131624E-1,5.591428280E0,9.067003250E0
6.109943961E0,-6.275177598E-1,5.867201328E0,8.355138779E0
6.130053752E0,-5.425725579E-1,5.829514027E0,9.453444481E0
6.150163492E0,-4.283152521E-1,5.246861935E0,1.128395367E1
6.170273232E0,-3.164508045E-1,4.773681164E0,1.295175076E1
6.190382971E0,-6.801598072E-1,5.139184952E0,1.262034512E1
6.210492711E0,-1.220339537E0,5.272584915E0,1.136351490E1
6.230602450E0,-3.463610709E-1,3.585644722E0,1.349910927E1
6.250712190E0,6.693921089E-1,2.350948334E0,1.617548180E1
6.270821930E0,2.775674164E-1,2.361117840E0,1.490190125E1
6.290931669E0,-2.973082066E-1,2.027917147E0,1.168774223E1
6.311041409E0,-4.977070987E-1,1.467398524E0,1.028315544E1
6.331151148E0,-1.286740422E0,1.414158225E0,1.037946606E1
6.351260888E0,-1.823330879E0,1.651047587E0,1.021854877E1
6.371370627E0,-1.627119422E0,2.007578135E0,8.924630165E0
6.391480367E0,-6.029912829E-1,2.062014818E0,7.736593723E0
6.411590107E0,4.043870270E-1,1.908276081E0,7.837690353E0
6.431699846E0,5.054838061E-1,1.803590059E0,8.169694901E0
6.451809586E0,-2.135594189E-1,1.845464468E0,7.524828911E0
6.471919325E0,-7.962117195E-1,1.932204247E0,6.386443615E0
6.492029065E0,-1.171286702E0,2.228316069E0,5.110470772E0
6.512138805E0,-1.268195987E0,2.626122952E0,4.283750534E0
6.532248544E0,-7.310073376E-1,2.963510752E0,4.847260475E0
6.552358284E0,-1.788634956E-1,3.264408350E0,5.867799282E0
6.572468023E0,7.537391037E-2,3.605385542E0,6.760322094E0
6.592577763E0,-3.708875179E-2,3.846462488E0,7.721040249E0
6.612687502E0,-2.039881349E-1,4.046263218E0,8.821739197E0
6.632797242E0,-8.554340899E-2,4.214358807E0,9.501898766E0
6.652907034E0,2.380858511E-1,4.451248169E0,9.724431038E0
6.673016773E0,3.984049559E-1,4.958526611E0,9.468997002E0
6.693126513E0,-5.742774159E-2,5.508277893E0,8.538188934E0
6.713236252E0,-3.672982752E-1,5.589633465E0,8.507680893E0
6.733345992E0,2.213360928E-2,5.013561726E0,1.001336479E1
6.753455732E0,1.085743308E0,4.097708702E0,1.163450146E1
6.773565471E0,2.185245275E0,3.848257065E0,1.255872917E1
6.793675211E0,1.202991605E0,5.143372059E0,1.082692432E1
6.813784950E0,6.125625968E-1,4.283152580E0,9.449854851E0
6.833894690E0,1.819143414E0,1.956730723E0,1.176012516E1
6.854004430E0,1.871187329E0,1.652842283E0,1.495334721E1
6.874114169E0,1.085145116E0,1.640878081E0,1.594816303E1
6.894223909E0,1.081555843E0,1.673181176E0,1.402552986E1
6.914333648E0,1.940579176E0,2.253440619E0,1.115773201E1
6.934443388E0,2.444268227E0,2.477767944E0,1.013599682E1
6.954553127E0,2.118246317E0,2.530410051E0,1.028315544E1
6.974662867E0,1.304686546E0,2.863012314E0,9.602396965E0
6.994772659E0,9.708877802E-1,2.799004316E0,8.194819450E0
7.014882346E0,8.255237937E-1,2.716451883E0,6.848856449E0
7.034992138E0,6.065805554E-1,2.553141832E0,5.858228207E0
7.055101877E0,1.615155339E-1,2.398804665E0,5.623133183E0
7.075211617E0,-3.936193287E-1,2.481357098E0,5.617151260E0
7.095321357E0,-7.453642488E-1,2.659622431E0,5.263013363E0
7.115431096E0,-7.579265833E-1,2.938984394E0,4.865206718E0
7.135540836E0,-5.886343718E-1,3.171088219E0,4.731208801E0
7.155650575E0,-2.488535494E-1,3.207578659E0,5.395216942E0
7.175760315E0,-7.776673418E-3,3.213560820E0,6.377470493E0
7.195870055E0,1.429711580E-1,3.269792080E0,7.412964344E0
7.215979794E0,2.231307179E-1,3.598206997E0,8.580063820E0
7.236089534E0,-2.949153781E-1,4.393820763E0,8.965308189E0
7.256199273E0,-7.369893789E-1,4.914857864E0,8.292924881E0
7.276309013E0,-6.287141442E-1,5.086542606E0,7.966304779E0
7.296418752E0,-2.727817893E-1,5.393422127E0,8.907281876E0
7.316528492E0,2.093719877E-2,5.596213818E0,1.008156013E1
7.336638284E0,5.383851007E-2,5.326423168E0,1.136710358E1
7.356748023E0,-2.703889608E-1,4.750949383E0,1.341595840E1
7.376857763E0,-7.022934556E-1,4.433900356E0,1.452503204E1
7.396967502E0,-1.588235974E0,4.989035130E0,1.317009544E1
7.417077242E0,-1.441675663E0,4.609772682E0,1.227637672E1
7.437186982E0,-7.178468257E-2,3.392424345E0,1.350209999E1
7.457296721E0,-6.705885530E-1,3.756731510E0,1.414756393E1
7.477406461E0,-1.749153376E0,3.248854876E0,1.406202030E1
7.497516200E0,-1.256231904E0,1.358525038E0,1.508016682E1
7.517625940E0,2.362912297E-1,3.810569942E-1,1.616112328E1
7.537735680E0,5.676971674E-1,6.203392744E-1,1.408176136E1
7.557845419E0,-1.076770201E-2,1.397408366E0,9.638887405E0
7.577955159E0,-1.034895778E-1,1.724028707E0,6.398407936E0
7.598064950E0,-3.290131316E-2,1.747956991E0,4.795216560E0
7.618174690E0,-1.076770201E-1,1.835893154E0,4.625326157E0
7.638284430E0,-1.148554832E-1,1.865205288E0,5.367101192E0
7.658394169E0,-4.725824669E-2,1.675574064E0,5.952146530E0
7.678503909E0,3.505485058E-1,1.525424480E0,6.463014126E0
7.698613648E0,7.980063558E-1,1.767697692E0,7.419544697E0
7.718723388E0,9.116654396E-1,2.294118643E0,7.237690449E0
7.738833127E0,1.375873089E-1,2.769692183E0,5.431109428E0
7.758942867E0,-4.564309120E-1,3.038884640E0,3.828516245E0
7.779052607E0,-4.965106845E-1,3.397209883E0,3.474378586E0
7.799162346E0,-1.926222295E-1,3.830909014E0,4.896911621E0
7.819272086E0,-1.531406492E-1,4.360321045E0,6.479165554E0
7.839381825E0,-1.788634956E-1,4.959125042E0,7.807780266E0
7.859491617E0,-3.589233849E-3,5.389832973E0,8.829515457E0
7.879601305E0,1.639083475E-1,5.289334297E0,9.315258980E0
7.899711096E0,5.294120312E-1,4.691128731E0,1.037288570E1
7.919820836E0,7.489534616E-1,3.961916208E0,1.280219936E1
7.939930575E0,6.957131624E-1,4.040280819E0,1.497129345E1
7.960040315E0,9.816554785E-1,5.288736343E0,1.324128246E1
7.980150055E0,4.719842434E0,3.389433384E0,1.287996578E1
8.000259794E0,5.718247890E0,1.588834286E0,1.625863075E1
8.020369534E0,1.941775560E0,1.758126378E0,1.946321869E1
8.040479273E0,-5.425725579E-1,1.487737536E0,2.017329025E1
8.060589013E0,4.301098585E-1,1.218544960E0,1.661815262E1
8.080698805E0,2.150549412E0,1.701296926E0,1.132881927E1
8.100808544E0,1.648056626E0,2.077568293E0,8.050053596E0
8.120918284E0,3.194418252E-1,2.194218397E0,7.384849072E0
8.141028023E0,7.118647546E-2,2.033899307E0,7.469195843E0
8.161137763E0,3.774677813E-1,1.693520188E0,7.400402069E0
8.181247502E0,7.651050687E-1,1.599601984E0,6.753741741E0
8.201357242E0,6.705885530E-1,1.836491346E0,5.680561066E0
8.221466982E0,4.845465720E-2,1.993819475E0,4.874179840E0
8.241576721E0,-6.699903607E-1,2.090728760E0,4.302893162E0
8.261686461E0,-1.242473125E0,2.408974171E0,3.854837179E0
8.281796200E0,-1.524826288E0,2.803191662E0,3.882952929E0
8.301905992E0,-1.341775298E0,3.098705292E0,4.725824833E0
8.322015732E0,-5.479564071E-1,3.279961586E0,5.776273727E0
8.342125471E0,4.707878530E-1,3.563511133E0,6.821339130E0
8.362235211E0,1.097109199E0,3.975674868E0,7.705487251E0
8.382344950E0,9.134600163E-1,4.442275047E0,8.088936806E0
8.402454690E0,2.057827413E-1,4.864010334E0,7.917850018E0
8.422564430E0,-1.453639716E-1,5.173282623E0,7.765307903E0
8.442674169E0,-2.015953064E-1,5.443671703E0,8.758927345E0
8.462783909E0,6.101697683E-2,5.523232937E0,1.052423191E1
8.482893648E0,7.238288522E-1,5.352744102E0,1.220997620E1
8.503003440E0,1.098903775E0,5.123033047E0,1.319103336E1
8.523113180E0,-6.161518097E-1,5.999404430E0,1.244925785E1
8.543222919E0,-1.962114573E0,6.166902065E0,1.162612724E1
8.563332659E0,7.926225066E-1,2.591426849E0,1.546421432E1
8.583442398E0,3.371487141E0,8.291130662E-1,1.957628059E1
8.603552138E0,2.887538671E0,2.119442701E0,1.742333794E1
8.623661877E0,6.909275651E-1,2.724228621E0,1.157228851E1
8.643771617E0,-2.333002165E-2,1.661815286E0,9.987641335E0
8.663881357E0,3.337987661E-1,1.003190875E0,1.218664551E1
8.683991148E0,-3.888336942E-2,9.493523836E-1,1.299123192E1
8.704100888E0,-6.867401004E-1,9.439685345E-1,1.088495064E1
8.724210627E0,-1.108475089E0,1.202991605E0,8.346165657E0
8.744320367E0,-1.063609719E0,1.332802176E0,6.288936138E0
8.764430107E0,-1.022931695E0,1.483550072E0,4.956732273E0
8.784539846E0,-1.289133191E0,1.858026743E0,4.661218643E0
8.804649586E0,-1.477568030E0,2.249253273E0,5.014758110E0
8.824759325E0,-1.375872970E0,2.486740828E0,5.575874805E0
8.844869065E0,-1.000199914E0,2.679363251E0,5.914459229E0
8.864978857E0,-5.898307562E-1,2.955734253E0,5.784050465E0
8.885088596E0,-6.574280262E-1,3.375674486E0,5.534000397E0
8.905198336E0,-1.150349498E0,3.815953970E0,5.848656654E0
8.925308075E0,-1.415354609E0,3.991228104E0,6.926623344E0
8.945417815E0,-1.481157184E0,4.348356724E0,8.312665939E0
8.965527555E0,-1.215553880E0,4.725226402E0,8.962915421E0
8.985637294E0,-3.738785386E-1,4.870590687E0,9.192625999E0
9.005747034E0,5.665007830E-1,4.998606682E0,9.699904442E0
9.025856773E0,6.735795736E-1,5.271986485E0,1.044646549E1
9.045966513E0,1.728814393E-1,5.395814896E0,1.064148045E1
9.066076305E0,-1.848455518E-1,5.167898655E0,1.059003448E1
9.086186044E0,3.080759048E-1,4.235296249E0,1.098126125E1
9.106295784E0,1.707278967E0,3.120838881E0,1.249950695E1
9.126405523E0,1.725225091E0,3.661616802E0,1.385683632E1
9.146515263E0,1.313659668E0,4.189832687E0,1.248275757E1
9.166625002E0,2.067996979E0,3.519243956E0,1.043270683E1
9.186734742E0,2.282752752E0,3.007179976E0,1.005344391E1
9.206844482E0,1.747358680E0,2.297109842E0,1.130369377E1
9.226954221E0,6.394818425E-1,1.384247899E0,1.264008522E1
9.247064013E0,-6.460621208E-2,8.883354068E-1,1.291884899E1
9.267173752E0,2.093719877E-2,1.200598717E0,1.184148121E1
9.287283492E0,6.472585201E-1,1.790429592E0,1.019940662E1
9.307393232E0,1.564906001E0,2.149951220E0,8.903693199E0
9.327502971E0,1.866401672E0,2.329412937E0,7.864609718E0
9.347612711E0,1.630110383E0,2.324028969E0,6.795616150E0
9.367722450E0,1.217348576E0,1.948355794E0,6.183651924E0
9.387832190E0,6.442674994E-1,1.946561217E0,6.611967087E0
9.407941930E0,9.152546525E-2,2.397608280E0,6.265605927E0
9.428051721E0,-4.019941986E-1,2.860619545E0,4.795814991E0
9.448161461E0,-4.725824594E-1,3.219542980E0,3.400799274E0
9.468271200E0,-2.841476798E-1,3.665804386E0,3.278167009E0
9.488380940E0,2.853440940E-1,3.680161238E0,5.522634506E0
9.508490680E0,8.614161611E-1,3.590430260E0,8.559724808E0
9.528600419E0,8.362914920E-1,3.874577999E0,1.015513897E1
9.548710159E0,-3.116651475E-1,4.292723656E0,9.228518486E0
9.568819950E0,-1.610967875E0,4.674977303E0,7.701898098E0
9.588929690E0,-1.524227977E0,5.222933769E0,8.157132149E0
9.609039430E0,-4.911268353E-1,5.849255085E0,9.562915802E0
9.629149169E0,9.224331379E-1,6.171089649E0,1.069591713E1
9.649258909E0,1.939382792E0,5.757729530E0,1.180678558E1
9.669368648E0,1.236491084E0,4.732405186E0,1.328375530E1
9.689478388E0,-2.691925466E-1,3.753740549E0,1.510708618E1
9.709588127E0,-1.645663738E0,4.168296814E0,1.483131313E1
9.729697867E0,-1.371087432E0,4.256233215E0,1.306241894E1
9.749807607E0,4.426721856E-2,2.985046148E0,1.325205040E1
9.769917398E0,8.374879137E-3,2.613560438E0,1.368455315E1
9.790027138E0,-1.441675663E0,2.671586514E0,1.204307652E1
9.810136877E0,-2.340778828E0,1.654038668E0,1.142931747E1
9.830246617E0,-2.062613010E0,5.551348329E-1,1.317069435E1
9.850356357E0,-9.792626500E-1,3.236292601E-1,1.463091373E1
9.870466096E0,-4.546362907E-2,7.878368497E-1,1.354397392E1
9.890575836E0,2.853440940E-1,1.344766378E0,1.040758228E1
9.910685575E0,2.811566554E-2,1.564906001E0,7.662416458E0
9.930795367E0,-3.924229145E-1,1.564906001E0,5.767300606E0
9.950905107E0,-1.052243710E0,1.467398524E0,4.398606300E0
9.971014846E0,-1.676172256E0,1.365703583E0,3.685544968E0
9.991124586E0,-1.959123492E0,1.347159147E0,3.818944931E0
1.001123432E1,-1.706082582E0,1.625923038E0,4.592424870E0
1.003134406E1,-1.071984529E0,2.229512453E0,5.136193752E0
1.005145381E1,-5.072783828E-1,2.912663460E0,5.379065514E0
1.007156354E1,-2.889333367E-1,3.492324591E0,5.843871117E0
1.009167334E1,-2.333002090E-1,4.009772778E0,6.903293133E0
1.011178308E1,-1.734796464E-1,4.621138573E0,8.059026718E0
1.013189282E1,-5.443671346E-2,5.121238708E0,8.713463783E0
1.015200256E1,-1.172483116E-1,5.422734261E0,8.631509781E0
1.017211229E1,-5.347958803E-1,5.902495384E0,8.407780647E0
1.019222203E1,-9.966106415E-1,6.111268997E0,8.947959900E0
1.021233177E1,-6.263213158E-1,5.603990555E0,1.002532864E1
1.023244151E1,2.913261652E-1,4.968696117E0,1.097408295E1
1.025255125E1,1.251446247E0,4.191029072E0,1.195573807E1
1.027266104E1,1.296909928E0,3.693321705E0,1.278604794E1
1.029277078E1,2.709871531E-1,4.182055950E0,1.169731331E1
1.031288052E1,2.925225794E-1,3.763910055E0,9.776474953E0
1.033299026E1,1.521237016E0,1.986641049E0,1.000917721E1
1.035310000E1,2.813361168E0,6.873382926E-1,1.213520050E1
1.037320974E1,2.677568436E0,2.051845491E-1,1.389392471E1
1.039331948E1,1.929811478E0,-1.543370634E-1,1.396690559E1
1.041342922E1,8.901300430E-1,1.734796464E-1,1.302832127E1
1.043353896E1,1.728814393E-1,9.415757060E-1,1.205504036E1
1.045364875E1,2.117647976E-1,1.351346612E0,1.123131084E1
1.047375849E1,1.185045362E0,1.314257860E0,1.127378368E1
1.049386823E1,1.933400750E0,1.354337573E0,1.109432220E1
1.051397797E1,1.401595831E0,1.780858278E0,9.895518303E0
1.053408771E1,5.252245665E-1,2.231307030E0,8.235497475E0
1.055419745E1,-1.381855011E-1,2.408974171E0,6.106483459E0
1.057430719E1,-4.971089065E-1,2.603989124E0,3.960719585E0
1.059441693E1,-5.096712112E-1,2.878565550E0,2.858226538E0
1.061452672E1,-4.474578202E-1,3.119642496E0,3.007179976E0
1.063463646E1,-4.594219327E-1,3.399004459E0,4.393820763E0
1.065474620E1,-6.245267391E-1,3.675375462E0,5.366502762E0
1.067485594E1,-8.638089895E-1,3.992424488E0,6.031109333E0
1.069496568E1,-9.176474810E-1,4.135395527E0,6.791429043E0
1.071507542E1,-9.816554785E-1,4.301098824E0,8.416155815E0
1.073518516E1,-6.969096065E-1,4.430311203E0,1.018265629E1
1.075529490E1,-6.017948985E-1,4.494917393E0,1.086461163E1
1.077540464E1,-9.314061999E-1,4.657031059E0,1.073420238E1
1.079551443E1,-1.426720500E0,4.922036171E0,1.025264645E1
1.081562417E1,-1.794616938E0,5.120640278E0,1.037228775E1
1.083573391E1,-1.722832322E0,5.038686275E0,1.121994495E1
1.085584365E1,-1.428515077E0,4.796412945E0,1.253181076E1
1.087595339E1,-1.062413216E0,4.517649174E0,1.399980736E1
1.089606313E1,-1.558325768E0,5.135595798E0,1.357807255E1
1.091617287E1,-2.223530531E0,5.460421085E0,1.212203979E1
1.093628261E1,-1.034297585E0,4.145565033E0,1.326162148E1
1.095639240E1,-3.062812984E-1,3.256631613E0,1.525125313E1
1.097650214E1,-6.855437160E-1,3.134597778E0,1.478166199E1
1.099661188E1,-9.768698215E-1,2.623729944E0,1.285902882E1
1.101672162E1,1.615155302E-2,1.894517303E0,1.260538960E1
1.103683136E1,1.135992527E0,1.604387641E0,1.310309696E1
1.105694110E1,1.500299811E0,1.877169371E0,1.148375416E1
1.107705084E1,1.457229018E0,2.332403898E0,8.648857117E0
1.109716058E1,1.485942841E0,2.208575249E0,6.453442574E0
1.111727032E1,1.292124271E0,1.948953986E0,5.201996326E0
1.113738006E1,7.549355626E-1,1.773679733E0,4.427320004E0
1.115748985E1,-6.041877344E-2,1.643869162E0,4.198207378E0
1.117759959E1,-6.628118753E-1,1.600200176E0,4.457828522E0
1.119770932E1,-7.369893789E-1,1.651047587E0,4.910670280E0
1.121781906E1,-2.739782035E-1,1.972284079E0,5.555535793E0
1.123792881E1,2.524427772E-1,2.528615236E0,5.920441628E0
1.125803854E1,5.030909777E-1,3.192025423E0,5.414957523E0
1.127814828E1,2.865405083E-1,3.742972851E0,4.456034184E0
1.129825808E1,-1.214357466E-1,4.421338081E0,4.535595417E0
1.131836782E1,-3.020938635E-1,5.096712112E0,5.642275810E0
1.133847756E1,-4.875376225E-1,5.556134224E0,6.704689026E0
1.135858729E1,-6.610172391E-1,5.827121258E0,7.215556622E0
1.137869703E1,-4.582255483E-1,5.870790482E0,7.141379356E0
1.139880677E1,-8.973085135E-2,5.788238049E0,7.277770042E0
1.141891651E1,-2.333002165E-2,5.400600910E0,8.455039024E0
1.143902625E1,1.489532143E-1,4.733003139E0,1.077607632E1
1.145913599E1,2.907279432E-1,4.743771076E0,1.286022568E1
1.147924578E1,2.038086653E0,3.964907169E0,1.297986603E1
1.149935552E1,4.173680782E0,2.445464849E0,1.283091354E1
1.151946526E1,3.487539053E0,1.715653777E0,1.481875038E1
1.153957500E1,1.573280841E-1,1.989033818E0,1.799941063E1
1.155968474E1,-1.256830096E0,1.000798106E0,2.002792549E1
1.157979448E1,7.046862841E-1,8.374879137E-3,1.882971954E1
1.159990422E1,2.613560438E0,4.408775866E-1,1.462911987E1
1.162001396E1,3.053839922E0,1.544566989E0,1.082273674E1
1.164012370E1,2.395813704E0,2.002194405E0,8.590831757E0
1.166023349E1,1.646860242E0,1.986042738E0,8.087740898E0
1.168034323E1,1.174277663E0,1.782652855E0,8.765507698E0
1.170045297E1,5.575276613E-1,1.666002750E0,9.000003815E0
1.172056271E1,3.888336942E-2,1.621735573E0,8.062616348E0
1.174067245E1,1.615155302E-2,1.751546144E0,6.172286034E0
1.176078219E1,2.327020019E-1,2.033301115E0,4.285545349E0
1.178089193E1,4.947160780E-1,2.266601324E0,3.245863914E0
1.180100167E1,4.791627228E-1,2.581257343E0,3.600599766E0
1.182111141E1,-1.046859920E-1,2.934797049E0,5.206183910E0
1.184122120E1,-5.832505226E-1,3.073580742E0,6.856633186E0
1.186133094E1,-8.219345808E-1,3.468994617E0,7.760521889E0
1.188144068E1,-7.818548083E-1,4.059423447E0,7.526025295E0
1.190155042E1,-3.942175210E-1,4.548157692E0,7.178467751E0
1.192166016E1,2.632104978E-2,4.898705959E0,7.590033531E0
1.194176990E1,2.177468538E-1,5.247459888E0,8.771489143E0
1.196187964E1,2.033899166E-2,5.492125988E0,9.882955551E0
1.198198938E1,-4.019941986E-1,5.363512039E0,1.046560764E1
1.200209917E1,-4.211367965E-1,4.867599487E0,1.119900799E1
1.202220891E1,-2.775674164E-1,4.444668293E0,1.220219898E1
1.204231865E1,-8.386843204E-1,5.276772022E0,1.169192982E1
1.206242839E1,-8.739784956E-1,5.000401020E0,1.145743275E1
1.208253813E1,-4.570291340E-1,3.323630571E0,1.373599815E1
1.210264787E1,-1.336989641E0,3.670589924E0,1.448315716E1
1.212275761E1,-2.184647083E0,4.122235298E0,1.287817192E1
1.214286735E1,-1.289133191E0,2.769093990E0,1.293200970E1
1.216297709E1,5.730810165E-1,1.298106313E0,1.510529137E1
1.218308682E1,1.063609719E0,8.183453679E-1,1.658106422E1
1.220319656E1,-7.716853172E-2,1.110867858E0,1.477986717E1
1.222330636E1,-9.326026440E-1,1.459621787E0,1.132044411E1
1.224341610E1,-4.175475538E-1,1.432104349E0,8.688339233E0
1.226352584E1,4.791627228E-1,1.422533035E0,7.085746288E0
1.228363558E1,9.846464992E-1,1.609771490E0,6.135197163E0
1.230374532E1,8.608179688E-1,1.751546144E0,5.230112076E0
1.232385506E1,2.662015259E-1,1.843669891E0,4.109074593E0
1.234396479E1,-3.523431420E-1,2.057827473E0,3.059223652E0
1.236407453E1,-9.655039310E-1,2.514258385E0,2.781656265E0
1.238418433E1,-1.074377418E0,3.075973511E0,3.582653761E0
1.240429406E1,-4.504488707E-1,3.506083488E0,4.645665169E0
1.242440380E1,1.890329868E-1,3.769891977E0,5.220541000E0
1.244451354E1,5.988038778E-1,4.007379532E0,5.894718647E0
1.246462328E1,5.575276613E-1,4.277170658E0,6.787839413E0
1.248473302E1,4.247260094E-2,4.605585575E0,7.841279984E0
1.250484276E1,-5.066801906E-1,4.820341110E0,8.684151649E0
1.252495250E1,-8.769695163E-1,4.963312149E0,9.235696793E0
1.254506224E1,-8.470591903E-1,5.170889854E0,9.655039787E0
1.256517198E1,-7.022934556E-1,5.442475319E0,1.015035343E1
1.258528177E1,5.982056609E-4,5.308476925E0,1.059900761E1
1.260539151E1,1.169492126E0,4.613361835E0,1.108235836E1
1.262550125E1,1.377667665E0,4.549952030E0,1.150349522E1
1.264561099E1,1.220339537E-1,5.370092392E0,1.126899815E1
1.266572073E1,8.183453679E-1,4.255635262E0,1.142812061E1
1.268583047E1,2.805584431E0,2.778665304E0,1.283809185E1
1.270594021E1,3.449851990E0,2.533999205E0,1.406202030E1
1.272604995E1,2.794218540E0,2.424527645E0,1.410987663E1
1.274615969E1,2.703889608E0,1.886142492E0,1.293320656E1
1.276626943E1,2.720041037E0,1.924427629E0,1.166740322E1
1.278637922E1,2.467598438E0,2.499303341E0,1.107338524E1
1.280648896E1,2.177468538E0,2.490928411E0,1.079521942E1
1.282659870E1,1.871187329E0,1.974078655E0,1.025862885E1
1.284670844E1,1.508076429E0,1.627717614E0,9.622138023E0
1.286681818E1,9.846464992E-1,1.551147223E0,9.362516403E0
1.288692792E1,3.816552162E-1,1.618744493E0,8.787042618E0
1.290703766E1,-4.785645287E-3,1.800000787E0,7.569694519E0
1.292714740E1,-5.324030295E-2,2.091925144E0,6.077769279E0
1.294725714E1,2.051845491E-1,2.364706993E0,4.943571568E0
1.296736688E1,4.875376225E-1,2.684148788E0,4.223331928E0
1.298747662E1,5.150550604E-1,3.089133978E0,3.760320902E0
1.300758641E1,3.320041299E-1,3.519842148E0,4.114458561E0
1.302769615E1,-1.513460279E-1,3.805784464E0,5.593821049E0
1.304780589E1,-7.202396393E-1,3.912265062E0,6.893123627E0
1.306791563E1,-8.662018180E-1,4.066602230E0,7.927421570E0
1.308802537E1,-5.982056856E-1,4.415954113E0,8.693124771E0
1.310813511E1,-4.313062727E-1,5.007579803E0,9.033503532E0
1.312824485E1,-3.678964674E-1,5.475974560E0,9.175876617E0
1.314835459E1,-4.695914388E-1,5.539982796E0,9.451649666E0
1.316846432E1,-6.257231236E-1,5.277968407E0,1.013719273E1
1.318857407E1,-7.645068169E-1,4.811367989E0,1.122353458E1
1.320868381E1,-8.979067206E-1,4.227519512E0,1.239841080E1
1.322879360E1,-1.947159410E0,5.014159679E0,1.230927753E1
1.324890334E1,-2.790031195E0,5.535196781E0,1.140897846E1
1.326901308E1,-1.370489120E0,4.055834293E0,1.263888931E1
1.328912282E1,-4.701896608E-1,3.462414265E0,1.430489159E1
1.330923256E1,-5.012963414E-1,3.343371391E0,1.398006630E1
1.332934229E1,-1.698904037E-1,2.321038008E0,1.328554916E1
1.334945203E1,5.706881881E-1,1.658824325E0,1.389512062E1
1.336956177E1,4.217349887E-1,1.649253011E0,1.410808277E1
1.338967151E1,1.884347796E-1,1.785643935E0,1.300618744E1
1.340978125E1,6.221339107E-1,2.055434704E0,1.132283688E1
1.342989099E1,8.991031051E-1,2.288136721E0,9.482157707E0
1.345000078E1,7.417750359E-1,2.336591244E0,8.007580757E0
1.347011052E1,4.336991012E-1,2.130210400E0,6.799205780E0
1.349022026E1,4.067798331E-2,1.981855392E0,5.779862881E0
1.351033000E1,-2.530409992E-1,2.070987940E0,5.298905849E0
1.353043974E1,-4.109672904E-1,2.407777786E0,5.182255745E0
1.355054948E1,-1.591227055E-1,2.632104874E0,5.219942570E0
1.357065922E1,3.337987661E-1,2.656631231E0,5.081159115E0
1.359076896E1,8.512466550E-1,2.877967358E0,5.102694511E0
1.361087870E1,1.012762189E0,3.360121250E0,5.023731232E0
1.363098844E1,4.582255483E-1,4.035495281E0,4.924428940E0
1.365109818E1,-3.948157430E-1,4.685146809E0,4.785047054E0
1.367120792E1,-5.916253924E-1,5.030909538E0,5.135595798E0
1.369131771E1,-3.690928817E-1,5.289334297E0,6.348756790E0
1.371142745E1,-8.913264424E-2,5.767300606E0,7.604390144E0
1.373153719E1,1.956132501E-1,6.177670002E0,8.297112465E0
1.375164693E1,3.948157281E-2,6.360122681E0,8.420342445E0
1.377175667E1,1.633101404E-1,5.738586903E0,9.202795982E0
1.379186641E1,1.200598717E0,4.433301926E0,1.196471119E1
1.381197615E1,1.792822361E0,4.109673023E0,1.561615849E1
1.383208589E1,1.842473388E0,4.406383038E0,1.550788403E1
1.385219563E1,2.301297188E0,3.729214191E0,1.268315601E1
1.387230537E1,2.781058073E0,2.544168711E0,1.197667599E1
1.389241511E1,2.093121529E0,1.835294962E0,1.437069416E1
1.391252485E1,7.214360237E-1,1.853241086E0,1.592004681E1
1.393263459E1,7.010970116E-1,1.677368641E0,1.575015640E1
1.395274438E1,1.916052699E0,1.696511269E0,1.408594894E1
1.397285412E1,2.924627542E0,2.106282234E0,1.182652569E1
1.399296386E1,3.096312523E0,2.296511650E0,1.031964588E1
1.401307360E1,2.175673962E0,2.426322222E0,9.069396019E0
1.403318334E1,1.213759303E0,2.312663078E0,7.570292473E0
1.405329308E1,4.139583111E-1,2.113460541E0,6.132206440E0
1.407340282E1,-3.547359705E-1,2.108675003E0,4.779065132E0
1.409351256E1,-8.344969153E-1,2.150549412E0,3.575475216E0
1.411362229E1,-9.768698215E-1,2.216950178E0,2.938386202E0
1.413373203E1,-8.338986635E-1,2.394617319E0,3.252444267E0
1.415384177E1,-5.922235847E-1,2.644068956E0,4.083351612E0
1.417395151E1,-3.894318938E-1,2.969492912E0,4.720440865E0
1.419406125E1,-2.087737769E-1,3.380460262E0,5.131408215E0
1.421417104E1,-3.529413417E-2,3.911068678E0,5.860022545E0
1.423428078E1,-7.657032460E-2,4.456632137E0,6.625127792E0
1.425439052E1,-2.338984162E-1,4.911268711E0,7.557132244E0
1.427450026E1,-3.242274821E-1,5.239085197E0,7.957331657E0
1.429461000E1,-4.348955154E-1,5.668596745E0,8.368298531E0
1.431471974E1,-2.554338276E-1,5.895915031E0,9.377471924E0
1.433482948E1,3.128615618E-1,5.691328526E0,1.074138069E1
1.435493922E1,8.554341197E-1,5.112265587E0,1.273639679E1
1.437504896E1,7.692924738E-1,4.307080746E0,1.487737465E1
1.439515870E1,-4.378865361E-1,3.943371773E0,1.490489197E1
1.441526844E1,-1.851446509E0,4.492524624E0,1.297029495E1
1.443537818E1,-1.602592945E0,3.976273060E0,1.257727432E1
1.445548792E1,-5.377869010E-1,3.290131092E0,1.462553024E1
1.447559766E1,-1.244267747E-1,3.028116941E0,1.624068642E1
1.449570740E1,9.529415965E-1,1.603789330E0,1.676232147E1
1.451581714E1,1.840080619E0,6.622136831E-1,1.654517174E1
1.453592693E1,1.331605792E0,9.248259664E-1,1.434437370E1
1.455603667E1,5.958128572E-1,1.599003673E0,1.202213955E1
1.457614641E1,5.395814776E-1,1.584646821E0,1.080538845E1
1.459625615E1,8.309076428E-1,1.295713425E0,9.655039787E0
1.461636589E1,1.014556766E0,1.202393413E0,8.160123825E0
1.463647563E1,8.368897438E-1,1.164706469E0,6.393023968E0
1.465658537E1,5.880361795E-1,1.164108157E0,4.856233597E0
1.467669511E1,4.917250574E-1,1.593619823E0,3.923032761E0
1.469680485E1,4.360919297E-1,2.288734913E0,3.611367464E0
1.471691459E1,-2.392822690E-2,2.665006161E0,3.522234917E0
1.473702432E1,-5.976074338E-1,2.766103029E0,3.417548895E0
1.475713406E1,-9.816554785E-1,3.005385160E0,3.379862070E0
1.477724381E1,-8.889335990E-1,3.527618885E0,3.888336897E0
1.479735354E1,-1.292124242E-1,4.515854359E0,5.173282623E0
1.481746328E1,6.837490797E-1,5.620740414E0,7.227520943E0
1.483757308E1,7.896314859E-1,6.104688644E0,7.975875854E0
1.485768276E1,-1.800599098E-1,5.940780640E0,7.007979393E0
1.487779250E1,-8.566305041E-1,5.724828243E0,6.893123627E0
1.489790229E1,-1.213161111E0,5.800800323E0,8.800801277E0
1.491801203E1,-1.208973646E0,5.570491314E0,1.088794136E1
1.493812177E1,6.819544733E-2,4.616353035E0,1.221356487E1
1.495823151E1,2.385644197E0,3.221935749E0,1.299063396E1
1.497834125E1,2.464009047E0,3.467200041E0,1.343091393E1
1.499845099E1,1.533799291E0,3.294318676E0,1.246780205E1
1.501856073E1,2.335993052E0,1.791625977E0,1.233081341E1
1.503867047E1,2.578864574E0,2.112862349E0,1.219561863E1
1.505878021E1,2.950350285E0,2.896511793E0,1.114696407E1
1.507888995E1,4.110270977E0,1.805384636E0,1.113918781E1
1.509899969E1,5.331807137E0,6.640082598E-1,1.392503166E1
1.511910943E1,4.349553585E0,1.185643673E0,1.628315735E1
1.513921917E1,1.603789330E0,2.050050735E0,1.497667694E1
1.515932891E1,1.190429255E-1,2.296511650E0,1.183071327E1
1.517943865E1,4.929214716E-1,2.333002090E0,9.729216576E0
1.519954839E1,8.745766878E-1,2.684746981E0,8.302495956E0
1.521965813E1,5.700899959E-1,3.032304525E0,6.699305058E0
1.523976787E1,1.196411322E-3,2.943770170E0,4.600799561E0
1.525987761E1,-7.441678643E-1,2.812762976E0,2.869592667E0
1.527998735E1,-1.485344648E0,2.806781054E0,2.795415163E0
1.530009709E1,-1.791625977E0,2.811566591E0,4.603790760E0
1.532020683E1,-1.350150228E0,2.749353170E0,6.598806858E0
1.534031656E1,-5.886343718E-1,2.732005358E0,8.169694901E0
1.536042636E1,-2.392822644E-3,2.916252613E0,8.967700958E0
1.538053610E1,1.100698411E-1,3.203391314E0,8.824729919E0
1.540064584E1,-2.739782035E-1,3.714857101E0,7.712665558E0
1.542075558E1,-9.188438654E-1,4.424329281E0,6.603592396E0
1.544086532E1,-1.061216831E0,5.051248550E0,6.509674072E0
1.546097506E1,-9.379864931E-1,5.589633465E0,7.133602619E0
1.548108479E1,-6.424728632E-1,5.525027275E0,8.036892891E0
1.550119453E1,-2.871387079E-2,4.998606682E0,9.279366493E0
1.552130427E1,3.296113312E-1,4.670191765E0,1.116909790E1
1.554141401E1,2.626122832E-1,4.535595417E0,1.274836063E1
1.556152375E1,-7.148557901E-1,5.573482037E0,1.217348480E1
1.558163349E1,-9.936196208E-1,5.864808083E0,1.153041458E1
1.560174323E1,4.013960063E-1,3.964907169E0,1.476431370E1
1.562185297E1,8.309076428E-1,2.696112871E0,1.880399704E1
1.564196271E1,-2.590230405E-1,2.455035925E0,1.947637939E1
1.566207245E1,-1.120439172E0,2.298306227E0,1.556590939E1
1.568218219E1,-7.752745152E-1,2.171486616E0,1.238166046E1
1.570229193E1,2.279163599E-1,1.945364833E0,1.235593796E1
1.572240167E1,9.182456732E-1,1.996810555E0,1.298345566E1
1.574251141E1,1.057029366E0,2.097907305E0,1.155434227E1
1.576262115E1,1.258026481E0,1.948953986E0,9.309874535E0
1.578273089E1,1.269990563E0,1.893919110E0,7.130611420E0
1.580284063E1,1.090528965E0,1.913659930E0,5.137390137E0
1.582295037E1,9.385846853E-1,1.828116536E0,3.614358664E0
1.584306011E1,8.853443861E-1,1.893320918E0,3.080759048E0
1.586316985E1,8.967102766E-1,2.225325108E0,3.362514019E0
1.588327959E1,7.908278704E-1,2.568695068E0,4.072584152E0
1.590338933E1,2.871387303E-1,2.985046148E0,4.771886349E0
1.592349907E1,-1.471585929E-1,3.565903902E0,5.426323414E0
1.594360880E1,-4.486542344E-1,3.991228104E0,6.404389858E0
1.596371854E1,-6.466603279E-1,4.440480709E0,6.967899323E0
1.598382828E1,-4.163511395E-1,4.849653244E0,7.229315281E0
1.600393802E1,2.703889608E-1,5.044668198E0,7.131807804E0
1.602404776E1,6.311069727E-1,5.174479008E0,7.269395351E0
1.604415750E1,3.469592929E-1,5.237888813E0,8.001599312E0
1.606426724E1,-4.863412082E-1,5.261219025E0,8.754739761E0
1.608437698E1,-9.720842242E-1,5.426323414E0,9.446265221E0
1.610448672E1,-5.784648657E-1,5.408975601E0,1.004028416E1
1.612459646E1,4.977070987E-1,5.035097122E0,1.046919727E1
1.614470620E1,4.851447940E-1,6.464808464E0,9.827920914E0
1.616481594E1,1.674975872E0,6.073582172E0,8.913264275E0
1.618492568E1,3.627519131E0,3.208775282E0,1.191087246E1
1.620503542E1,4.356133461E0,7.519445419E-1,1.681556129E1
1.622514516E1,2.642872572E0,-3.355933726E-1,1.973839378E1
1.624525490E1,-2.099701911E-1,-9.451649338E-2,1.808196259E1
1.626536464E1,-1.127019525E0,4.594219327E-1,1.441675663E1
1.628547438E1,4.911268353E-1,1.007378340E0,1.110509014E1
1.630558412E1,2.356332064E0,2.110469580E0,9.434899330E0
1.632569391E1,3.751945972E0,2.647658348E0,8.863613129E0
1.634580360E1,3.675375462E0,2.813361168E0,8.432307243E0
1.636591334E1,2.444268227E0,2.745764017E0,8.094919205E0
1.638602308E1,1.171286702E0,2.485544443E0,7.933403492E0
1.640613282E1,2.542374134E-1,2.387438774E0,7.862216949E0
1.642624256E1,-8.135596663E-2,2.644667149E0,7.688138962E0
1.644635229E1,-5.324030295E-2,3.026920557E0,6.779464722E0
1.646646203E1,2.153540403E-2,3.304488182E0,5.682953835E0
1.648657177E1,1.818545163E-1,3.686143398E0,5.056034088E0
1.650668151E1,3.822534084E-1,4.016951084E0,5.133202553E0
1.652679125E1,3.667000830E-1,4.140181541E0,5.989234924E0
1.654690099E1,2.350948304E-1,4.189832687E0,6.930810928E0
1.656701073E1,1.609173268E-1,4.355535507E0,6.905686378E0
1.658712047E1,2.392822653E-1,4.531407833E0,6.777071953E0
1.660723021E1,4.193421602E-1,4.716253281E0,6.910471916E0
1.662733995E1,5.156532526E-1,4.890331268E0,7.227520943E0
1.664744969E1,3.768695593E-1,5.087141037E0,7.951947689E0
1.666755943E1,-1.016949583E-2,5.259424210E0,8.534002304E0
1.668766917E1,-4.157529473E-1,5.145765305E0,8.571688652E0
1.670777891E1,-5.515456200E-1,4.891527653E0,8.807381630E0
1.672788865E1,-3.577269912E-1,4.685744762E0,9.723235130E0
1.674799839E1,-3.529413417E-2,4.483551502E0,1.047817039E1
1.676810813E1,-6.113662124E-1,5.350351334E0,9.632905960E0
1.678821787E1,-2.371885538E0,6.945765972E0,8.089534760E0
1.680832761E1,-2.682354212E0,6.290132523E0,1.001755238E1
1.682843735E1,-1.619342685E0,4.392025948E0,1.426182079E1
1.684854709E1,4.941178858E-1,2.533999205E0,1.826381683E1
1.686865683E1,9.894321561E-1,1.575075507E0,1.789532280E1
1.688876656E1,-8.602197170E-1,2.415554523E0,1.263290691E1
1.690887630E1,-2.115853310E0,2.983251572E0,8.362915039E0
1.692898604E1,-2.062014818E0,2.662613392E0,8.264211655E0
1.694909578E1,-5.886343718E-1,2.022533417E0,1.173978615E1
1.696920552E1,7.369893789E-1,1.470987678E0,1.405843163E1
1.698931526E1,1.031904817E0,1.354935765E0,1.265085316E1
1.700942500E1,2.907279432E-1,1.807777524E0,8.891130447E0
1.702953474E1,-2.009970993E-1,2.130210400E0,5.827719688E0
1.704964448E1,-4.630111754E-1,2.176870346E0,4.590032101E0
1.706975422E1,-3.080759048E-1,2.264806747E0,6.320641041E0
1.708986396E1,-1.459621787E-1,2.376671076E0,8.422137260E0
1.710997370E1,-3.511467278E-1,2.575275421E0,8.638090134E0
1.713008344E1,-3.816552162E-1,2.736192703E0,7.670791149E0
1.715019318E1,-1.070788130E-1,2.883949518E0,7.783852100E0
1.717030292E1,2.464607358E-1,3.023929596E0,8.796614647E0
1.719041266E1,5.294120312E-1,3.177070379E0,9.366106033E0
1.721052240E1,6.388836503E-1,3.096312523E0,9.391828537E0
1.723063214E1,5.802595019E-1,2.870789051E0,9.790233612E0
1.725074188E1,7.399803996E-1,2.689532757E0,1.079342461E1
1.727085162E1,8.015955687E-1,2.781656265E0,1.151246834E1
1.729096136E1,6.029912829E-1,3.197409153E0,1.069292641E1
1.731107104E1,2.494517565E-1,3.799802303E0,8.827720642E0
1.733118078E1,1.405783296E-1,4.194019794E0,7.377670288E0
1.735129052E1,4.845465720E-1,4.184448719E0,7.768298626E0
1.737140026E1,7.920243144E-1,3.925425529E0,9.544969559E0
1.739151000E1,4.462614357E-1,3.829114437E0,1.029511929E1
1.741161974E1,-8.434699476E-2,3.886542082E0,9.622138023E0
1.743172948E1,-1.986042857E-1,3.778266907E0,8.968897820E0
1.745183922E1,-4.785645381E-2,3.645465374E0,9.196215630E0
1.747194896E1,2.632105052E-1,3.563511133E0,9.800403595E0
1.749205870E1,4.833501875E-1,3.722633839E0,9.385248184E0
1.751216844E1,4.977070987E-1,4.042075634E0,8.217551231E0
1.753227818E1,3.607180119E-1,4.219144344E0,7.479963779E0
1.755238792E1,1.818545163E-1,4.205385685E0,7.780262947E0
1.757249766E1,2.883351147E-1,3.880560160E0,8.743373871E0
1.759260740E1,5.557330847E-1,3.722035646E0,9.425328255E0
1.761271714E1,5.994020700E-1,3.908675671E0,9.756733894E0
1.763282688E1,1.836491376E-1,4.029513359E0,9.205188751E0
1.765293662E1,-1.663011760E-1,3.971487284E0,8.780462265E0
1.767304636E1,-5.383851007E-3,3.815355778E0,8.982656479E0
1.769315610E1,3.565305769E-1,3.671786308E0,9.463015556E0
1.771326584E1,6.095715761E-1,3.739981890E0,9.224330902E0
1.773337552E1,-2.338984162E-1,4.003790379E0,9.749555588E0
1.775348526E1,-2.135594189E-1,3.941577196E0,8.923434258E0
1.777359500E1,9.032905847E-2,4.174877167E0,8.388039589E0
1.779370474E1,1.375873089E-1,4.036691666E0,8.521439552E0
1.781381448E1,3.074777126E-1,3.867399693E0,9.201599121E0
1.783392422E1,3.463610709E-1,4.083950043E0,9.732806206E0
1.785403396E1,3.409772366E-2,4.122235298E0,9.496515274E0
1.787414370E1,-2.033899166E-2,4.065405846E0,9.366106033E0
1.789425344E1,6.580262631E-2,4.193421841E0,9.258428574E0
1.791436318E1,2.775674164E-1,4.165904045E0,9.010771751E0
1.793447292E1,4.689932466E-1,4.155136585E0,9.004191399E0
1.795458266E1,4.731806815E-1,4.262813568E0,9.288339615E0
1.797469240E1,2.195414752E-1,4.238885403E0,9.712467194E0
1.799480214E1,3.355933726E-1,4.197010994E0,9.347561836E0
1.801491183E1,4.354937077E-1,4.193421841E0,9.004191399E0
1.803502156E1,4.959124923E-1,4.126422882E0,8.851649284E0
1.805513130E1,4.031906128E-1,4.054039955E0,8.842078209E0
1.807524104E1,2.614158690E-1,4.124628067E0,8.879166603E0
1.809535078E1,2.685943544E-1,4.197010994E0,8.806783676E0
1.811546052E1,2.656033039E-1,4.183850288E0,8.730812073E0
1.813557026E1,1.375873014E-2,4.149154663E0,8.889336586E0
1.815568000E1,2.404786795E-1,4.069592953E0,8.815158844E0
1.817578974E1,4.187439680E-1,4.207180500E0,8.953942299E0
1.819589948E1,3.373879790E-1,4.265804768E0,9.084351540E0
1.821600922E1,1.375873089E-1,4.207180500E0,8.833105087E0
1.823611896E1,3.589233849E-3,4.242474556E0,8.689535141E0
1.825622865E1,6.939185411E-2,4.233501434E0,8.745168686E0
1.827633839E1,1.716850251E-1,4.166502476E0,8.815756798E0
1.829644813E1,2.524427772E-1,4.258625984E0,8.753543854E0
1.831655787E1,4.492524564E-1,4.371088982E0,8.790632248E0
1.833666761E1,4.079762697E-1,4.385445595E0,9.150752068E0
1.835677735E1,-3.529413417E-2,4.314259052E0,9.138189316E0
1.837688709E1,1.663011760E-1,4.185046673E0,9.005986214E0
1.839699683E1,3.260220885E-1,4.284946918E0,9.126823425E0
1.841710656E1,3.798605800E-1,4.283750534E0,9.099306107E0
1.843721630E1,2.009970993E-1,4.325624943E0,8.949754715E0
1.845732604E1,1.016949639E-1,4.374678135E0,8.745168686E0
1.847743578E1,2.566302419E-1,4.308875561E0,8.748757362E0
1.849754547E1,3.786641955E-1,4.275375843E0,9.038289070E0
1.851765521E1,3.756731451E-1,4.250849247E0,9.281759262E0
1.853776495E1,2.225325108E-1,4.281357765E0,9.058030128E0
1.855787469E1,1.088734269E-1,4.289732933E0,8.615956306E0
1.857798443E1,1.950150430E-1,4.231108665E0,8.740383148E0
1.859809417E1,1.148554832E-1,4.247858524E0,8.831310272E0
1.861820391E1,7.118647546E-2,4.253242016E0,8.837292671E0
1.863831365E1,1.950150430E-1,4.204189301E0,9.025128365E0
1.865842339E1,2.009970993E-1,4.173680782E0,9.291330338E0
1.867853313E1,2.847459018E-1,4.170091629E0,9.265008926E0
1.869864282E1,2.446661144E-1,4.261018753E0,9.153742790E0
1.871875256E1,1.573280841E-1,4.286741734E0,8.925228119E0
1.873886229E1,1.429711580E-1,4.240081787E0,8.645866394E0
1.875897203E1,2.003988922E-1,4.234099865E0,8.673981667E0
1.877908177E1,2.739782035E-1,4.245465755E0,8.821739197E0
1.879919151E1,3.200400174E-1,4.220939159E0,8.995817184E0
1.881930125E1,3.098705411E-1,4.307679176E0,9.036494255E0
1.883941099E1,2.548356056E-1,4.402195454E0,8.822337151E0
1.885952073E1,2.518445849E-1,4.410570145E0,8.654839516E0
1.887963042E1,2.542374134E-1,4.412963390E0,8.781659126E0
1.889974016E1,2.703889608E-1,4.320839405E0,9.093922615E0
1.891984990E1,2.404786795E-1,4.287938118E0,9.299705505E0
1.893995964E1,2.530409992E-1,4.314259052E0,9.192028046E0
1.896006938E1,3.272185028E-1,4.280759811E0,9.013762474E0
1.898017912E1,3.744767308E-1,4.295714855E0,9.017950058E0
1.900028886E1,3.218346536E-1,4.314259052E0,8.953344345E0
1.902039860E1,3.032902777E-1,4.269393921E0,8.839086533E0
1.904050828E1,3.984049559E-1,4.252644062E0,8.983852386E0
1.906061802E1,5.371887088E-1,4.233501434E0,9.195018768E0
1.908072776E1,4.414757788E-1,4.221537113E0,9.169894218E0
1.910083750E1,2.225325108E-1,4.220939159E0,9.035896301E0
1.912094724E1,1.591227055E-1,4.170091629E0,8.971888542E0
1.914105698E1,1.357926875E-1,4.246063709E0,8.962915421E0
1.916116672E1,1.914258152E-1,4.302295208E0,8.870193481E0
1.918127646E1,2.859423161E-1,4.284946918E0,8.913862228E0
1.920138620E1,2.524427772E-1,4.261018753E0,9.015557289E0
1.922149594E1,2.853440940E-1,4.231706619E0,9.024530411E0
1.924160563E1,2.925225794E-1,4.268795490E0,8.900103569E0
1.926171537E1,2.656033039E-1,4.272384644E0,8.995218277E0
1.928182511E1,2.267199457E-1,4.247260094E0,9.153742790E0
1.930193485E1,2.039881349E-1,4.260420799E0,8.974879265E0
1.932204459E1,2.805584669E-1,4.244867325E0,8.784051895E0
1.934215433E1,3.846462369E-1,4.259224415E0,8.867202759E0
1.936226406E1,3.619144261E-1,4.317250252E0,8.918647766E0
1.938237375E1,3.326023519E-1,4.316651821E0,8.773283958E0
1.940248349E1,3.882354796E-1,4.344767570E0,8.713463783E0
1.942259323E1,4.217349887E-1,4.352544308E0,8.831310272E0
1.944270297E1,3.852444589E-1,4.323830605E0,9.029914856E0
1.946281271E1,3.541377485E-1,4.331008911E0,9.115457535E0
1.948292245E1,3.296113312E-1,4.375874519E0,9.001200676E0
1.950303219E1,3.284149170E-1,4.405784607E0,8.864211082E0
1.952314193E1,3.463610709E-1,4.418945312E0,8.962317467E0
1.954325162E1,2.919243574E-1,4.402195454E0,9.134600639E0
1.956336136E1,2.584248483E-1,4.336990833E0,8.991030693E0
1.958347110E1,3.164508045E-1,4.328018188E0,8.886344910E0
1.960358084E1,3.487538993E-1,4.361517429E0,8.889336586E0
1.962369058E1,3.176472187E-1,4.368097782E0,8.860024452E0
1.964380032E1,2.883351147E-1,4.397409916E0,8.888737679E0
1.966391006E1,3.541377485E-1,4.373481750E0,8.892327309E0
1.968401974E1,3.451646566E-1,4.319643021E0,8.950352669E0
1.970412948E1,2.003988922E-1,4.374079704E0,8.919844627E0
1.972423922E1,1.567298770E-1,4.400999069E0,9.005986214E0
1.974434896E1,2.368894368E-1,4.357928276E0,9.060422897E0
1.976445870E1,2.931207716E-1,4.350749969E0,8.927620888E0
1.978456844E1,3.696911037E-1,4.369892120E0,8.682954788E0
1.980467818E1,4.163511395E-1,4.406980991E0,8.685946465E0
1.982478792E1,4.223332107E-1,4.414757729E0,8.785846710E0
1.984489761E1,3.469592929E-1,4.390829563E0,8.720642090E0
1.986500735E1,2.889333367E-1,4.386641979E0,8.775078773E0
1.988511709E1,4.001995921E-1,4.400999069E0,8.831310272E0
1.990522682E1,4.145565331E-1,4.403391838E0,8.830113411E0
1.992533657E1,3.655036688E-1,4.403391838E0,8.912666321E0
1.994544630E1,3.439682424E-1,4.362115860E0,9.044869423E0
1.996555604E1,3.493520916E-1,4.360321045E0,9.161520004E0
1.998566573E1,3.098705411E-1,4.400400639E0,9.002995491E0
2.000577547E1,3.397808075E-1,4.409972191E0,8.742775917E0
2.002588521E1,3.433700502E-1,4.427320004E0,8.730213165E0
2.004599495E1,3.290131092E-1,4.395017147E0,8.918049812E0
2.006610469E1,2.608176768E-1,4.336392879E0,9.071788788E0
2.008621443E1,2.303091735E-1,4.304687977E0,9.044271469E0
2.010632412E1,2.961117923E-1,4.345366001E0,9.038887978E0
2.012643386E1,3.912265003E-1,4.348356724E0,9.055637360E0
2.014654360E1,4.648058116E-1,4.338785648E0,9.074779510E0
2.016665334E1,4.175475538E-1,4.392624378E0,9.065208435E0
2.018676308E1,3.780659735E-1,4.403391838E0,8.917451859E0
2.020687282E1,4.127618968E-1,4.408177376E0,8.779864311E0
2.022698256E1,4.618147612E-1,4.443471432E0,8.696713448E0
2.024709224E1,5.066801906E-1,4.395615101E0,8.775676727E0
2.026720198E1,4.390829504E-1,4.381856441E0,8.811569214E0
2.028731172E1,3.254238665E-1,4.485944271E0,8.711071014E0
2.030742146E1,3.655036688E-1,4.509274483E0,8.846863747E0
2.032753120E1,4.247260094E-1,4.485345840E0,8.710473061E0
2.034764094E1,3.535395563E-1,4.543970108E0,6.215356827E0
2.036775063E1,-2.392822644E-3,4.013959885E0,1.004327488E1
2.038786037E1,5.365904570E-1,4.452444553E0,1.164646626E1
2.040797011E1,4.486542344E-1,4.325624943E0,9.640682220E0
