"Time (s)","Gyroscope x (rad/s)","Gyroscope y (rad/s)","Gyroscope z (rad/s)"
2.926328400E-2,-1.714953631E-1,-2.451024577E-2,-1.863084175E-2
4.937302300E-2,-5.314370990E-1,1.756949425E-1,-2.687728032E-2
6.948276300E-2,-4.633276463E-1,3.733040392E-1,-3.710897267E-2
8.959245000E-2,-1.915006191E-1,1.957001835E-1,-6.276455522E-2
1.097021900E-1,3.023693897E-2,-5.215108395E-2,-4.795150831E-2
1.298119300E-1,1.004843712E-1,-9.949174523E-2,-7.330167107E-3
1.499216170E-1,2.779355086E-2,6.070294604E-2,-7.330167107E-3
1.700313570E-1,-1.145338640E-1,2.419718653E-1,-1.710372418E-2
1.901410960E-1,-1.817270666E-1,2.902288139E-1,-2.596100792E-2
2.102508360E-1,-1.276670843E-1,2.291440815E-1,-2.932066843E-2
2.303605230E-1,-1.679829881E-2,1.158319116E-1,-7.330167107E-3
2.504702630E-1,8.368607610E-2,3.275668249E-2,4.902049154E-2
2.705800020E-1,1.398840249E-1,-3.741439432E-3,1.177408099E-1
2.906896900E-1,1.513374150E-1,6.872031372E-4,1.611109674E-1
3.107994300E-1,9.880454093E-2,4.802786559E-2,1.424801201E-1
3.309091690E-1,1.725643501E-2,8.528954536E-2,8.964183182E-2
3.510189090E-1,-2.428117767E-2,9.017632902E-2,5.085303262E-2
3.711285960E-1,-1.313321572E-2,6.757497787E-2,4.642439261E-2
3.912383360E-1,2.458660305E-2,4.711159319E-2,7.116370648E-2
4.113480750E-1,4.382828996E-2,4.466820508E-2,8.964183182E-2
4.314577630E-1,3.298575059E-2,3.306210786E-2,8.322793990E-2
4.515675020E-1,1.969982497E-2,1.320957206E-2,5.864133686E-2
4.716772420E-1,2.901524492E-2,4.504998680E-3,1.786728203E-2
4.917869300E-1,1.954711229E-2,2.542651631E-2,-3.726168349E-2
5.118966690E-1,-1.068982668E-2,4.863871261E-2,-9.116895497E-2
5.320064090E-1,-5.680879578E-2,4.955498502E-2,-1.302631795E-1
5.521161480E-1,-9.972081333E-2,3.596363217E-2,-1.375933439E-1
5.722258360E-1,-8.964183182E-2,2.817532979E-2,-1.097997949E-1
5.923355750E-1,-5.161659420E-2,2.977880416E-3,-7.437065244E-2
6.124453150E-1,-1.679829881E-2,-1.214058883E-2,-3.802524135E-2
6.325550020E-1,-1.527118147E-4,-3.749075159E-2,-2.076880634E-2
6.526647420E-1,-2.107422985E-2,-5.047125369E-2,-1.893626526E-2
6.727744820E-1,-4.291202128E-2,-4.466820508E-2,-1.664558798E-2
6.928842210E-1,-3.008422814E-2,-3.779617324E-2,-9.468132630E-3
7.129939090E-1,7.024743594E-3,-2.985516004E-2,6.108472589E-3
7.331036480E-1,3.359659761E-2,-1.908897655E-3,2.870982140E-2
7.532133880E-1,6.001574174E-2,6.184828468E-3,4.734066129E-2
7.733231270E-1,6.077930331E-2,-3.107685409E-2,5.131116882E-2
7.934328150E-1,2.870982140E-2,-6.436803192E-2,3.374931216E-2
8.135425550E-1,-5.192201585E-3,-7.979192585E-2,7.788302377E-3
8.336522940E-1,-4.581354558E-3,-1.094180122E-1,-1.664558798E-2
8.537619820E-1,6.093201414E-2,-1.217876747E-1,3.817795310E-3
8.738717210E-1,1.417165697E-1,-8.483141661E-2,5.955760926E-2
8.939814610E-1,1.409530044E-1,-2.832804248E-2,9.880454093E-2
9.140912000E-1,6.398624927E-2,3.168770298E-2,1.230857223E-1
9.342008880E-1,-2.336490713E-2,1.071273386E-1,1.397313178E-1
9.543106270E-1,-4.245388508E-2,1.784437597E-1,1.269035190E-1
9.744203670E-1,-3.054236295E-3,1.889808774E-1,8.689302206E-2
9.945301070E-1,7.024743594E-3,1.323247850E-1,7.956285775E-2
1.014639794E0,6.566607859E-3,5.016583204E-2,1.056765765E-1
1.034749534E0,1.664558798E-2,-8.399150101E-4,1.401894391E-1
1.054859273E0,6.108472589E-3,5.154023692E-2,1.620272398E-1
1.074969013E0,-4.367557913E-2,1.332410574E-1,1.499630064E-1
1.095078700E0,-1.006370857E-1,1.767639220E-1,1.006370857E-1
1.115188440E0,-1.320957243E-1,2.016559541E-1,4.642439261E-2
1.135298180E0,-1.044548824E-1,1.637834162E-1,2.168507688E-2
1.155407919E0,-5.497625470E-2,9.093988687E-2,3.206948191E-2
1.175517607E0,-2.596100792E-2,2.634278871E-2,6.856760383E-2
1.195627346E0,-6.322269142E-2,2.023431472E-2,1.218640283E-1
1.215737086E0,-1.574458778E-1,1.048366576E-1,1.745496094E-1
1.235846825E0,-2.104368806E-1,1.796654463E-1,1.475196183E-1
1.255956513E0,-2.425063550E-1,1.685174853E-1,8.918370306E-2
1.276066252E0,-2.380777150E-1,1.865374744E-1,4.902049154E-2
1.296175992E0,-1.960819662E-1,1.486649513E-1,-1.435491070E-2
1.316285680E0,-1.293469071E-1,1.349208951E-1,-6.719319522E-2
1.336395419E0,-1.171299592E-1,1.911188364E-1,-8.994726092E-2
1.356505159E0,-1.582094431E-1,2.757211924E-1,-8.276980370E-2
1.376614898E0,-2.269297540E-1,2.758738995E-1,-1.023169141E-2
1.396724638E0,-2.838912606E-1,2.515927255E-1,-6.062658876E-2
1.416834325E0,-2.875563502E-1,2.532725334E-1,-7.345438004E-2
1.436944065E0,-2.475458533E-1,1.682120711E-1,-3.802524135E-2
1.457053805E0,-1.627907902E-1,4.512634128E-2,-2.061609551E-2
1.477163544E0,-7.681404054E-2,8.933641016E-3,-9.620844387E-3
1.497273232E0,-4.199574888E-2,4.588989913E-2,-9.773556143E-3
1.517382971E0,-4.581354558E-2,7.032378763E-2,-1.435491070E-2
1.537492711E0,-2.840439789E-2,6.390989572E-2,-1.863084175E-2
1.557602450E0,4.749337584E-2,8.131904155E-2,-4.840964451E-2
1.577712138E0,1.128540337E-1,5.810684711E-2,-4.627167806E-2
1.597821877E0,1.285833418E-1,-2.970244735E-2,1.832541823E-2
1.617931617E0,9.788827598E-2,-9.628479928E-2,7.773031294E-2
1.638041357E0,8.444963396E-2,-6.116108224E-2,5.909947306E-2
1.658151096E0,8.704573661E-2,3.672719002E-2,-5.864133686E-2
1.678260784E0,1.021642014E-1,9.200886637E-2,-1.470614821E-1
1.698370523E0,1.423274130E-1,5.520532280E-2,-1.327065676E-1
1.718480263E0,1.745496094E-1,-1.595838554E-2,-2.993151546E-2
1.738590002E0,1.609582454E-1,-7.093463838E-2,4.886778072E-2
1.758699690E0,1.053711548E-1,-7.795938104E-2,8.979454637E-2
1.778809430E0,4.413371533E-2,-9.368869662E-2,1.082726792E-1
1.798919169E0,-1.145338640E-2,-1.361425817E-1,1.000262350E-1
1.819028909E0,-6.261184067E-2,-1.926459521E-1,7.727217674E-2
1.839138648E0,-9.193251282E-2,-2.213557810E-1,5.115845799E-2
1.859248336E0,-1.091889441E-1,-2.621298432E-1,4.230117425E-2
1.879358075E0,-7.543963939E-2,-1.848576516E-1,4.245388508E-2
1.899467815E0,-3.054236248E-2,-1.227039397E-1,2.825168520E-2
1.919577555E0,-1.527118147E-3,-8.528954536E-2,2.458660305E-2
1.939687242E0,-7.941014133E-3,-6.482616812E-2,5.283828825E-2
1.959796982E0,-4.459185153E-2,-8.040276915E-2,7.375980914E-2
1.979906721E0,-7.330167294E-2,-4.039227590E-2,9.513945878E-2
2.000016461E0,-5.421269313E-2,-1.458397787E-2,1.078145429E-1
2.020126200E0,-1.695101149E-2,-1.412584260E-2,1.053711548E-1
2.040235888E0,-2.596100792E-3,-2.710634656E-2,1.001789495E-1
2.060345627E0,1.206423342E-2,-2.512109280E-2,9.849911928E-2
2.080455367E0,3.084778599E-2,-2.023431472E-2,8.154810965E-2
2.100565107E0,4.031591862E-2,7.635590737E-5,4.779879749E-2
2.120674846E0,4.871506989E-2,2.344126441E-2,1.710372418E-2
2.140784534E0,6.642963737E-2,2.023431472E-2,-3.359660041E-3
2.160894273E0,7.375980914E-2,-1.145338640E-3,-1.832541777E-3
2.181004013E0,9.819369763E-2,-3.229855001E-2,2.183778957E-2
2.201113752E0,1.540862173E-1,-4.253023863E-2,3.069507517E-2
2.221223492E0,1.843231618E-1,-2.924431302E-2,1.359135192E-2
2.241333180E0,1.539335102E-1,-3.458922729E-2,-2.229592577E-2
2.261442919E0,1.059819981E-1,-5.581616983E-2,-5.482354015E-2
2.281552659E0,1.455343664E-1,-7.551599294E-2,-7.101099193E-2
2.301662398E0,2.597627938E-1,-9.857547283E-2,-7.162184268E-2
2.321772138E0,3.086305857E-1,-1.259108931E-1,-6.016845629E-2
2.341881825E0,2.461714447E-1,-1.005607322E-1,-6.658235192E-2
2.361991565E0,1.181989461E-1,-5.871769413E-2,-9.865183383E-2
2.382101305E0,-3.359660041E-3,-3.611634299E-2,-1.324011385E-1
2.402211044E0,-4.245388508E-2,-2.680092305E-2,-1.449235082E-1
2.422320784E0,9.162708884E-4,-3.367295489E-2,-1.278197914E-1
2.442430471E0,4.199574888E-2,-6.543701142E-2,-1.081199646E-1
2.462540211E0,1.420219894E-2,-6.986565888E-2,-1.082726792E-1
2.482649950E0,-4.672981426E-2,-5.474718660E-2,-1.096470803E-1
2.502759690E0,-8.521319181E-2,-2.420482226E-2,-1.218640283E-1
2.522869430E0,-9.223793447E-2,8.399150101E-4,-1.432436854E-1
2.542979169E0,-9.880454093E-2,-4.657710437E-3,-1.588202864E-1
2.563088857E0,-1.052184403E-1,-2.725905925E-2,-1.499630064E-1
2.583198596E0,-8.735115826E-2,-2.786990628E-2,-1.426328421E-1
2.603308336E0,-4.917320609E-2,2.214321401E-3,-1.331647038E-1
2.623418075E0,-1.542389300E-2,-9.391776286E-3,-1.162136942E-1
2.643527815E0,1.130067464E-2,-4.176668078E-2,-9.972081333E-2
2.663637555E0,3.329117596E-2,-5.062396824E-2,-9.834641218E-2
2.683747242E0,6.383354217E-2,-5.245650932E-2,-1.140757278E-1
2.703856982E0,7.559234649E-2,-3.733803704E-2,-1.281252056E-1
2.723966721E0,6.291726977E-2,-6.910209358E-2,-1.305686086E-1
2.744076461E0,2.443389036E-2,-8.269345015E-2,-1.270562261E-1
2.764186200E0,1.557660475E-2,-4.970769584E-2,-1.195733473E-1
2.784295940E0,3.038965166E-2,-3.122956678E-2,-9.666658193E-2
2.804405627E0,2.626643144E-2,-2.344126441E-2,-6.536065787E-2
2.824515367E0,5.650337320E-3,-3.290939704E-2,-4.275930673E-2
2.844625107E0,-2.870982140E-2,-3.199312463E-2,-4.016320780E-2
2.864734846E0,-4.627167806E-2,-1.198787708E-2,-4.840964451E-2
2.884844586E0,-3.069507517E-2,-5.421269219E-3,-5.176930502E-2
2.904954273E0,-1.359135192E-2,-1.931804419E-2,-3.191677108E-2
2.925064013E0,-1.236965694E-2,-1.840177365E-2,-1.175880991E-2
2.945173752E0,-2.535016090E-2,-8.780929260E-3,-1.023169141E-2
2.965283492E0,-4.474456236E-2,-1.107160654E-2,-6.872031838E-3
2.985393232E0,-6.306997687E-2,-4.023956135E-2,8.551862091E-3
3.005502971E0,-9.529217333E-2,-8.376242965E-2,2.977880463E-2
3.025612711E0,-1.159082651E-1,-8.055548370E-2,5.161659420E-2
3.045722398E0,-7.207997888E-2,-4.787515476E-2,7.406523079E-2
3.065832138E0,2.596100792E-3,-6.375718117E-2,9.513945878E-2
3.085941877E0,5.192201585E-2,-8.467870206E-2,9.666658193E-2
3.106051617E0,6.169557199E-2,-6.757497787E-2,7.055285573E-2
3.126161357E0,2.611372061E-2,-6.100837141E-2,2.244863659E-2
3.146271096E0,-2.458660305E-2,-3.000787087E-2,-3.634541109E-2
3.166380836E0,-3.054236248E-2,2.008160390E-2,-8.964183182E-2
3.186490523E0,-1.053711493E-2,4.405735806E-2,-1.310267299E-1
3.206600263E0,-1.725643501E-2,5.108210072E-2,-1.560714692E-1
3.226710002E0,-4.474456236E-2,7.414158434E-2,-1.681357026E-1
3.246819742E0,-6.352811307E-2,9.445225447E-2,-1.661504507E-1
3.266929482E0,-5.864133686E-2,6.635328382E-2,-1.365243644E-1
3.287039221E0,-2.886253223E-2,-9.086352773E-3,-9.513945878E-2
3.307148961E0,1.725643501E-2,-5.398362502E-2,-5.085303262E-2
3.327258648E0,5.085303262E-2,-4.588989913E-2,-1.771457121E-2
3.347368388E0,7.375980914E-2,-2.206685767E-2,3.665083554E-3
3.367478127E0,9.697200358E-2,-1.977618039E-2,2.932066843E-2
3.387587867E0,1.230857223E-1,-4.207210615E-2,6.566607952E-2
3.407697607E0,1.450762302E-1,-6.039752439E-2,8.765657991E-2
3.427807346E0,1.320957243E-1,-5.764871091E-2,8.964183182E-2
3.447917086E0,1.026223376E-1,-4.543176666E-2,8.063183725E-2
3.468026773E0,9.529217333E-2,-3.825430945E-2,7.360709459E-2
3.488136513E0,1.059819981E-1,-2.634278871E-2,7.421794534E-2
3.508246252E0,1.061347127E-1,-7.864658721E-3,7.666133344E-2
3.528355992E0,1.044548824E-1,1.145338640E-3,7.299624383E-2
3.548465732E0,8.414421231E-2,3.894151188E-3,6.169557199E-2
3.568575471E0,5.787777901E-2,-1.298050396E-3,5.864133686E-2
3.588685211E0,6.032116711E-2,-1.275143679E-2,6.261184067E-2
3.608794950E0,6.826218218E-2,-6.948387716E-3,6.581879407E-2
3.628904690E0,4.031591862E-2,2.496838197E-2,4.413371533E-2
3.649014377E0,-1.404948719E-2,3.046600707E-2,1.863084175E-2
3.669124117E0,-4.062134400E-2,2.825168660E-3,1.145338640E-2
3.689233857E0,-4.642439261E-2,-1.885990985E-2,2.473931387E-2
3.709343596E0,-5.680879578E-2,-2.634278871E-2,4.367557913E-2
3.729453336E0,-5.803048983E-2,-1.641651988E-2,5.757235363E-2
3.749563075E0,-4.611896724E-2,-1.443126611E-2,6.276455522E-2
3.769672815E0,-6.948387623E-2,-2.954973653E-2,6.001574174E-2
3.789782555E0,-1.058292910E-1,-2.573194169E-2,5.070032179E-2
3.809892242E0,-1.038440317E-1,-8.170082234E-3,4.566083103E-2
3.830001982E0,-6.719319522E-2,-6.642963737E-3,4.795150831E-2
3.850111721E0,-2.764083818E-2,-2.389939874E-2,5.176930502E-2
3.870221461E0,-2.031067200E-2,-3.229855001E-2,5.238015205E-2
3.890331200E0,-3.741439432E-2,-2.634278871E-2,4.428642616E-2
3.910440940E0,-6.566607952E-2,-4.375193641E-2,3.100049868E-2
3.930550680E0,-1.012479365E-1,-7.215633243E-2,1.389677543E-2
3.950660419E0,-1.185043678E-1,-6.482616812E-2,-1.145338640E-2
3.970770159E0,-1.101052165E-1,-2.741177008E-2,-3.527642787E-2
3.990879898E0,-9.437590092E-2,-1.756185899E-3,-2.779355086E-2
4.010989638E0,-6.444438547E-2,1.672194339E-2,-7.635590737E-4
4.031099377E0,-2.305948362E-2,2.374668792E-2,2.458660305E-2
4.051209065E0,1.420219894E-2,1.214058883E-2,2.947338112E-2
4.071318805E0,8.704573847E-3,-1.672194339E-2,2.443389036E-2
4.091428544E0,-3.970507160E-2,-2.519744914E-3,2.611372061E-2
4.111538284E0,-7.360709459E-2,7.918107510E-2,2.962609194E-2
4.131648023E0,-6.047387794E-2,1.712663025E-1,1.893626526E-2
4.151757763E0,-2.351761982E-2,1.624090075E-1,1.114796288E-2
4.171867502E0,-7.635590620E-3,8.590039611E-2,1.908897609E-2
4.191977242E0,-8.399149403E-3,3.016058356E-2,3.359659761E-2
4.212086982E0,4.886778072E-3,4.695888236E-2,3.710897267E-2
4.232196721E0,-8.704573847E-3,1.033095419E-1,1.801999472E-2
4.252306409E0,-5.573981255E-2,9.735377878E-2,-2.122694254E-2
4.272416148E0,-1.033858955E-1,9.368869662E-2,-7.223268598E-2
4.292525888E0,-1.256818175E-1,1.272853017E-1,-1.328592747E-1
4.312635627E0,-1.420219839E-1,1.278961450E-1,-1.588202864E-1
4.332745367E0,-1.583621502E-1,9.048175067E-2,-1.340809762E-1
4.352855107E0,-1.418692768E-1,5.627430230E-2,-9.987352788E-2
4.372964846E0,-1.507265568E-1,3.321481869E-2,-7.589777559E-2
4.393074586E0,-1.915006191E-1,3.382566571E-2,-6.765133142E-2
4.413184325E0,-2.150182426E-1,2.786990628E-2,-4.856235534E-2
4.433294065E0,-2.079934925E-1,1.672194339E-2,-1.756185852E-2
4.453403805E0,-1.863084137E-1,-3.741439432E-3,2.122694254E-2
4.473513544E0,-1.713426560E-1,-2.619007602E-2,6.658235192E-2
4.493623284E0,-1.719534993E-1,-3.000787087E-2,1.149920002E-1
4.513733023E0,-1.711899489E-1,2.977880416E-3,1.640124917E-1
4.533842711E0,-1.302631795E-1,1.916533336E-2,2.035648525E-1
4.553952502E0,-8.826743066E-2,5.367820337E-2,2.351761907E-1
4.574062190E0,-1.117850468E-1,7.582141459E-2,2.809897363E-1
4.594171930E0,-1.408002973E-1,7.353074104E-2,3.335226178E-1
4.614281669E0,-1.270562261E-1,5.726693198E-3,3.235963285E-1
4.634391409E0,-1.230857223E-1,-1.611109637E-2,2.944283783E-1
4.654501148E0,-1.427855492E-1,2.160872146E-2,2.759502530E-1
4.674610888E0,-1.559187621E-1,9.933903813E-2,2.286095917E-1
4.694720627E0,-1.528645307E-1,1.776801944E-1,2.024958730E-1
4.714830367E0,-1.290414780E-1,1.961583197E-1,2.191414535E-1
4.734940107E0,-8.108997345E-2,1.259108931E-1,2.504473627E-1
4.755049846E0,-5.451811850E-2,8.437328041E-2,2.112004459E-1
4.775159586E0,-9.666658193E-2,1.172063202E-1,1.143811494E-1
4.795269325E0,-1.794363856E-1,1.540098637E-1,1.801999472E-2
4.815379065E0,-2.518217862E-1,1.420983374E-1,-1.527118147E-4
4.835488805E0,-2.090624720E-1,1.326302141E-1,4.566083103E-2
4.855598544E0,5.344913341E-3,1.752368063E-1,9.819369763E-2
4.875708284E0,2.765611112E-1,1.931040883E-1,1.194206402E-1
4.895818023E0,3.614688516E-1,1.002553031E-1,9.849911928E-2
4.915927763E0,1.769929975E-1,-5.245650932E-2,5.360184610E-2
4.936037502E0,-5.115845799E-2,-7.185091078E-2,-1.481304597E-2
4.956147242E0,-7.040014863E-2,1.150683537E-1,-6.383354217E-2
4.976256982E0,8.903098851E-2,2.984752357E-1,-4.077405483E-2
4.996366721E0,2.411319613E-1,3.853682578E-1,3.558185324E-2
5.016476461E0,1.820324808E-1,2.176143415E-2,1.328592747E-1
5.036586200E0,-9.254335612E-2,-4.928773940E-1,2.064663768E-1
5.056695888E0,-2.757975459E-1,-7.483642697E-1,2.046338320E-1
5.076805627E0,-8.994726092E-2,-2.783172727E-1,9.162709117E-3
5.096915367E0,2.629697323E-1,3.465794623E-1,-2.102841735E-1
5.117025107E0,4.052971601E-1,6.417713761E-1,-2.166980654E-1
5.137134846E0,2.205158621E-1,4.609606266E-1,1.740914769E-2
5.157244586E0,3.573456407E-2,8.101361990E-2,3.333698809E-1
5.177354325E0,1.734806150E-1,-1.370588541E-1,4.701996744E-1
5.197464065E0,3.686463237E-1,-2.384594977E-1,4.278984964E-1
5.217573805E0,3.468085229E-1,-2.673220336E-1,3.051182032E-1
5.237683544E0,1.504211426E-1,-1.277434379E-1,1.530172378E-1
5.257793284E0,-1.232384369E-1,1.317139417E-1,4.337015375E-2
5.277903023E0,-2.480039895E-1,3.642940223E-1,4.123219103E-2
5.298012763E0,-5.375456065E-2,4.084277451E-1,1.214058921E-1
5.318122502E0,2.764083743E-1,2.347944081E-1,2.371614426E-1
5.338232242E0,4.682144225E-1,-4.512634128E-2,3.387148082E-1
5.358341982E0,4.367557764E-1,-2.315874696E-1,3.359659910E-1
5.378451721E0,2.602209449E-1,-2.746522129E-1,2.457133085E-1
5.398561461E0,9.498675168E-2,-1.717244387E-1,1.646233350E-1
5.418671200E0,7.314895838E-2,-1.397313084E-2,1.200314835E-1
5.438780940E0,1.808107942E-1,2.466295846E-2,9.590301663E-2
5.458890680E0,1.643179059E-1,-1.367534250E-1,2.977880463E-2
5.479000419E0,-3.710897267E-2,-3.119138777E-1,-5.192201585E-2
5.499110159E0,-2.564031482E-1,-2.937411666E-1,-1.563768983E-1
5.519219898E0,-3.394783735E-1,-9.506310523E-2,-2.389939874E-1
5.539329638E0,-2.664821148E-1,3.130592173E-3,-2.502946556E-1
5.559439377E0,-5.451811850E-2,-9.139802307E-2,-1.724116355E-1
5.579549117E0,2.084516287E-1,-2.056264579E-1,-1.068982705E-1
5.599658857E0,4.850127101E-1,-1.005607322E-1,-1.261399537E-1
5.619768596E0,7.218687534E-1,1.149156392E-1,-1.663031727E-1
5.639878336E0,4.987567961E-1,8.926005661E-2,-2.133384049E-1
5.659988075E0,7.299624383E-2,-2.485384792E-1,-2.396048307E-1
5.680097815E0,-2.011214644E-1,-5.649573803E-1,-3.694098890E-1
5.700207555E0,-2.728960216E-1,-6.538356543E-1,-5.085303187E-1
5.720317294E0,-4.413371533E-2,-5.304445028E-1,-5.784723759E-1
5.740427034E0,4.147652984E-1,-4.054498672E-2,-5.010474920E-1
5.760536773E0,3.765873313E-1,2.746522129E-1,-3.465031087E-1
5.780646513E0,-1.501157135E-1,2.387649268E-1,-1.542389393E-1
5.800756252E0,-6.400152445E-1,2.028776407E-1,-1.287360638E-1
5.820865992E0,-7.340856791E-1,3.690280914E-1,-3.043546379E-1
5.840975732E0,-4.208737612E-1,5.507551432E-1,-4.924955964E-1
5.861085471E0,-5.207473040E-2,4.563792646E-1,-5.399889946E-1
5.881195211E0,2.005106062E-1,2.427354306E-1,-4.727957845E-1
5.901304950E0,1.748550236E-1,3.283303929E-3,-3.584146202E-1
5.921414690E0,5.589252338E-2,1.382041909E-2,-2.576248348E-1
5.941524430E0,1.046075895E-1,1.208714023E-1,-2.446443290E-1
5.961634169E0,1.779092699E-1,1.514137685E-1,-2.597627938E-1
5.981743909E0,2.043284029E-1,7.368344814E-2,-2.325800955E-1
6.001853648E0,1.985253543E-1,-1.014770046E-1,-1.927223057E-1
6.021963388E0,1.200314835E-1,-2.254789919E-1,-1.537808031E-1
6.042073127E0,9.239064902E-2,-1.964637488E-1,-8.750387281E-2
6.062182867E0,2.506000996E-1,-4.237752780E-2,-4.871506989E-2
6.082292607E0,3.581092060E-1,8.040276915E-2,-4.230117425E-2
6.102402346E0,2.095206082E-1,4.390464723E-2,-7.162184268E-2
6.122512086E0,-1.052184403E-1,-9.414683282E-2,-1.131594554E-1
6.142621825E0,-2.953446507E-1,-1.645469815E-1,-1.230857223E-1
6.162731565E0,-2.699944973E-1,-9.994988143E-2,-6.413896382E-2
6.182841305E0,-7.345438004E-2,1.312558055E-1,1.252236869E-2
6.202951044E0,-1.162136942E-1,1.404185146E-1,3.710897267E-2
6.223060836E0,-4.593571424E-1,-2.218139172E-1,1.192679256E-1
6.243170575E0,-3.755183518E-1,-3.009186387E-1,1.974563748E-1
6.263280315E0,1.545443535E-1,2.481566928E-2,1.751604527E-1
6.283390055E0,4.107947946E-1,1.022405624E-1,1.285833418E-1
6.303499794E0,2.622061968E-1,7.864658721E-3,1.235438585E-1
6.323609534E0,1.110214889E-1,-3.122956678E-2,1.440072358E-1
6.343719273E0,1.682884246E-1,-8.574768156E-2,2.742704153E-1
6.363829013E0,2.964136302E-1,-2.412083149E-1,4.312581718E-1
6.383938752E0,2.241809368E-1,-3.690280914E-1,5.121954083E-1
6.404048492E0,2.596100792E-3,-2.387649268E-1,4.564556181E-1
6.424158232E0,-7.773031294E-2,9.246700257E-2,3.101576865E-1
6.444267971E0,5.176930502E-2,3.510081172E-1,1.945548505E-1
6.464377711E0,2.432699203E-1,3.868953884E-1,1.866138428E-1
6.484487450E0,3.955236077E-1,2.318928838E-1,2.386885732E-1
6.504597190E0,3.808632791E-1,-6.345175952E-2,3.245126009E-1
6.524706930E0,2.183778882E-1,-2.668638825E-1,4.072824121E-1
6.544816669E0,1.047603041E-1,-2.712925375E-1,4.074351192E-1
6.564926409E0,3.619270027E-2,-1.366007179E-1,3.371876776E-1
6.585036148E0,-3.817795217E-2,-3.077143058E-2,2.396048307E-1
6.605145888E0,-6.963659078E-2,1.397313084E-2,1.985253543E-1
6.625255627E0,-1.588202827E-2,-2.512109280E-2,1.918060333E-1
6.645365367E0,3.787253052E-2,-2.603736520E-2,1.837123185E-1
6.665475107E0,8.735115826E-2,9.796462953E-2,1.510319859E-1
6.685584846E0,8.383878320E-2,8.819106966E-2,5.894676223E-2
6.705694586E0,-9.956810623E-2,-1.272853017E-1,8.093725890E-3
6.725804325E0,-3.109212518E-1,-3.551313281E-1,2.962609194E-2
6.745914065E0,-3.654393852E-1,-4.463002682E-1,1.067455560E-1
6.766023857E0,-2.034121305E-1,-1.451525837E-1,1.591257155E-1
6.786133596E0,5.818320066E-2,4.053735137E-1,2.702999115E-2
6.806243336E0,-1.168245375E-1,3.494809866E-1,-7.452336699E-2
6.826353075E0,-5.737382770E-1,-3.321481869E-2,-6.459710002E-2
6.846462815E0,-6.682668924E-1,3.947600350E-2,-1.137702987E-1
6.866572555E0,-2.554868758E-1,1.520246118E-1,-1.258345395E-1
6.886682294E0,3.161134422E-1,-1.692810506E-1,-1.969982497E-2
6.906792034E0,4.810422063E-1,-5.208236575E-1,1.298050396E-2
6.926901773E0,1.191152185E-1,-3.885752261E-1,-1.134648770E-1
6.947011513E0,-2.084516287E-1,8.849649876E-2,-2.570139766E-1
6.967121252E0,-2.290677279E-1,3.975852132E-1,-3.591781855E-1
6.987230992E0,-1.188097894E-1,4.426352084E-1,-3.985778391E-1
7.007340732E0,-1.343864016E-2,2.992388010E-1,-4.561502039E-1
7.027450471E0,3.390202299E-2,9.643751383E-2,-5.380037427E-1
7.047560211E0,8.551862091E-3,3.917058185E-2,-5.867187977E-1
7.067669950E0,5.497625470E-2,1.346154660E-1,-5.618267655E-1
7.087779690E0,1.554606259E-1,2.108186632E-1,-4.760027230E-1
7.107889482E0,2.281514555E-1,2.088334113E-1,-3.616215885E-1
7.127999221E0,2.249445021E-1,5.566345528E-2,-2.843494117E-1
7.148108961E0,1.275143623E-1,-9.979717433E-2,-2.487675399E-1
7.168218700E0,2.733541466E-2,-1.179698780E-1,-2.345653474E-1
7.188328440E0,-7.681404054E-2,-5.673243850E-2,-2.145601064E-1
7.208438180E0,-1.458397806E-1,9.750649333E-2,-1.812689304E-1
7.228547919E0,-9.544488788E-2,2.598391473E-1,-1.563768983E-1
7.248657659E0,-5.512896553E-2,2.480803430E-1,-1.058292910E-1
7.268767398E0,-1.805053651E-1,4.237752780E-2,-3.558185324E-2
7.288877138E0,-4.165978432E-1,-1.592020690E-1,1.740914769E-2
7.308986877E0,-5.905365944E-1,-2.088334113E-1,1.404948719E-2
7.329096617E0,-7.397360206E-1,-1.278961450E-1,-2.412846684E-2
7.349206357E0,-8.060129285E-1,-1.412584260E-2,-2.244863659E-2
7.369316096E0,-5.821374655E-1,1.622563004E-1,7.620319724E-2
7.389425888E0,-2.495311052E-1,3.357369304E-1,1.870719790E-1
7.409535627E0,-2.583884001E-1,2.297549248E-1,3.327590525E-1
7.429645367E0,-3.843756318E-1,1.036149636E-1,4.107947946E-1
7.449755107E0,-2.440334857E-1,2.050156146E-1,2.880144715E-1
7.469864846E0,-4.520269856E-2,9.849912487E-3,1.627907902E-1
7.489974586E0,7.437065244E-2,-6.339830756E-1,2.177670449E-1
7.510084325E0,2.545706034E-1,-8.971055746E-1,3.542914093E-1
7.530194065E0,7.021689415E-1,-2.616716921E-1,3.964398801E-1
7.550303805E0,9.613208771E-1,2.836622000E-1,3.687990308E-1
7.570413544E0,8.209787011E-1,4.502707720E-1,3.758237660E-1
7.590523284E0,5.263976455E-1,3.383330107E-1,3.338280320E-1
7.610633023E0,2.261662036E-1,1.775274873E-1,2.762556672E-1
7.630742815E0,8.429691941E-2,9.155073017E-2,2.341072112E-1
7.650852555E0,1.398840249E-1,-4.986040667E-2,2.087570578E-1
7.670962294E0,1.809635013E-1,-2.167744190E-1,2.412846684E-1
7.691072034E0,2.147128135E-1,-2.063900232E-1,2.808370292E-1
7.711181773E0,4.228590131E-1,9.391776286E-3,2.061609477E-1
7.731291513E0,6.235223413E-1,1.898971349E-1,7.635590434E-2
7.751401252E0,5.787777901E-1,6.757497787E-2,5.543438718E-2
7.771510992E0,2.904578745E-1,-2.323510200E-1,8.429691941E-2
7.791620732E0,-7.543963939E-2,-3.670428395E-1,1.070509851E-1
7.811730471E0,-2.903051674E-1,-3.502445519E-1,9.529217333E-2
7.831840211E0,-4.314108789E-1,-3.085542321E-1,9.743013978E-2
7.851949950E0,-5.172349215E-1,-2.089861184E-1,8.826743066E-2
7.872059690E0,-5.945070982E-1,-1.413347870E-1,4.169032723E-2
7.892169482E0,-7.553126216E-1,-1.607291847E-1,7.788302377E-3
7.912279221E0,-8.762603998E-1,-2.916032076E-1,3.054236248E-2
7.932388961E0,-6.009209752E-1,-2.050156146E-1,1.608055383E-1
7.952498700E0,-5.971032009E-2,-1.107160654E-2,2.394521236E-1
7.972608440E0,-1.467560530E-1,-2.114295065E-1,7.528692484E-2
7.992718180E0,-4.935645759E-1,-8.208259940E-2,-4.569137394E-1
8.012827919E0,-3.755183518E-1,2.421245873E-1,-8.606837988E-1
8.032937659E0,3.452814221E-1,-1.682120711E-1,-6.536065936E-1
8.053047398E0,1.223068953E0,-9.154309630E-1,-1.731752008E-1
8.073157138E0,1.429153562E0,-1.093034863E0,-1.695101149E-2
8.093266877E0,8.539644480E-1,-6.179483533E-1,-1.652341783E-1
8.113376617E0,1.983726472E-1,-3.397838026E-2,-2.137965411E-1
8.133486409E0,-1.058292910E-1,2.609081268E-1,-1.669140160E-1
8.153596148E0,-8.170082420E-2,3.184804916E-1,-1.629435122E-1
8.173705888E0,1.136175916E-1,2.541888058E-1,-2.293731421E-1
8.193815627E0,2.673983872E-1,2.079171389E-1,-3.787252903E-1
8.213925367E0,2.785463631E-1,2.880908251E-1,-5.059342384E-1
8.234035107E0,2.241809368E-1,4.557684064E-1,-5.271611810E-1
8.254144846E0,1.534753740E-1,5.823665261E-1,-4.385883212E-1
8.274254586E0,2.397575416E-2,4.974587262E-1,-2.817533016E-1
8.294364325E0,-1.067455560E-1,3.025984466E-1,-7.421794534E-2
8.314474065E0,-1.606528312E-1,1.425564736E-1,1.186570823E-1
8.334583857E0,-1.765348613E-1,4.329380020E-2,1.953184158E-1
8.354693596E0,-1.322484314E-1,1.534753758E-2,1.403421611E-1
8.374803336E0,-5.008947477E-2,2.206685767E-2,1.221694518E-2
8.394913075E0,-1.007897966E-2,7.398887724E-2,-6.719319522E-2
8.415022815E0,-1.198787764E-1,1.248419061E-1,-5.176930502E-2
8.435132555E0,-3.506263196E-1,1.486649513E-1,1.985253533E-3
8.455242294E0,-4.734066129E-1,1.017824262E-1,5.222744122E-2
8.475352034E0,-4.204156399E-1,9.849912487E-3,8.353336155E-2
8.495461773E0,-2.559449971E-1,7.246175408E-2,5.436540768E-2
8.515571513E0,-9.590301663E-2,3.230618536E-1,-4.840964451E-2
8.535681305E0,-2.929012477E-1,1.749313772E-1,-1.786728203E-2
8.555791044E0,-8.394568563E-1,-6.339830756E-1,2.171562016E-1
8.575900784E0,-7.566870451E-1,-8.717554212E-1,3.319954872E-1
8.596010523E0,1.531699449E-1,-7.795938104E-2,1.360662282E-1
8.616120263E0,5.729747415E-1,2.192178071E-1,-2.493783981E-1
8.636230002E0,4.932591692E-2,-1.046839505E-1,-3.362714052E-1
8.656339742E0,-4.411844313E-1,-3.484120071E-1,-2.959555089E-1
8.676449482E0,-2.861819267E-1,-2.410555929E-1,-2.904578745E-1
8.696559221E0,1.627907902E-1,-1.000262424E-2,-2.079934925E-1
8.716669013E0,4.340069890E-1,6.100837141E-2,-8.261708915E-2
8.736778752E0,5.146388412E-1,1.132358089E-1,2.886253223E-2
8.756888492E0,4.242334068E-1,1.257581860E-1,9.391776472E-2
8.776998232E0,2.554868758E-1,9.338327497E-2,1.366770715E-1
8.797107971E0,1.488940120E-1,2.214321401E-3,1.907370538E-1
8.817217711E0,1.505738497E-1,-8.223531395E-2,2.687727809E-1
8.837327450E0,2.406738251E-1,-1.048366576E-1,3.385621011E-1
8.857437190E0,3.180987239E-1,-9.491039068E-2,3.400892019E-1
8.877546930E0,2.861819267E-1,3.588727675E-3,2.851129472E-1
8.897656721E0,1.493521482E-1,4.191939160E-2,2.370087355E-1
8.917766461E0,1.725643501E-2,-3.321481869E-2,2.583884001E-1
8.937876200E0,1.221694518E-3,-1.201078445E-1,3.451287150E-1
8.957985940E0,9.529217333E-2,-1.362952888E-1,4.616478086E-1
8.978095680E0,9.498675168E-2,-1.931804419E-2,5.638120174E-1
8.998205419E0,-8.399149403E-3,1.724879891E-1,5.554128885E-1
9.018315159E0,-8.170082420E-2,3.245889544E-1,4.219427407E-1
9.038424898E0,-5.803048983E-2,3.412345648E-1,2.939702570E-1
9.058534638E0,-3.206948191E-2,1.506502032E-1,2.696890533E-1
9.078644377E0,-7.437065244E-2,-1.825669706E-1,3.413109183E-1
9.098754169E0,-1.603474021E-1,-3.450523317E-1,4.248442650E-1
9.118863909E0,-2.809897438E-2,-8.987089992E-2,4.022429287E-1
9.138973648E0,2.747285664E-1,2.213557810E-1,3.828485310E-1
9.159083388E0,2.229592502E-1,3.655157387E-1,3.093941510E-1
9.179193127E0,-1.540862173E-1,4.317926466E-1,9.101624042E-2
9.199302867E0,-4.827220440E-1,3.978906274E-1,-1.864611208E-1
9.219412607E0,-4.735593498E-1,1.356844455E-1,-3.663556576E-1
9.239522346E0,-1.998997629E-1,-2.694599926E-1,-3.054236174E-1
9.259632138E0,1.052184403E-1,-5.188384056E-1,-1.181989461E-1
9.279741877E0,1.913478971E-1,-4.140780866E-1,3.527642787E-2
9.299851617E0,8.765657991E-2,-2.130329795E-2,4.260659590E-2
9.319961357E0,3.817795310E-3,4.125509560E-1,-1.004843712E-1
9.340071096E0,3.741439432E-2,5.522822738E-1,-2.877090573E-1
9.360180836E0,2.305948362E-2,2.503710091E-1,-4.471401870E-1
9.380290575E0,5.803049076E-3,1.320957206E-2,-4.857762754E-1
9.400400315E0,1.614163816E-1,1.135412306E-1,-4.410317242E-1
9.420510055E0,2.759502530E-1,3.690280914E-1,-3.596363366E-1
9.440619846E0,1.470614821E-1,5.098283887E-1,-2.457133085E-1
9.460729586E0,-2.177670449E-1,3.624614775E-1,-1.688992679E-1
9.480839325E0,-6.282563806E-1,-9.926267667E-4,-1.374406368E-1
9.500949065E0,-6.972821355E-1,-2.111240774E-1,-1.562241912E-1
9.521058805E0,-3.603998721E-1,-1.335464865E-1,-2.368560284E-1
9.541168544E0,7.314895838E-2,1.556897014E-1,-3.045073450E-1
9.561278284E0,1.789782494E-1,1.592020690E-1,-2.144073844E-1
9.581388023E0,-2.535016090E-2,-1.378224194E-1,4.138490185E-2
9.601497763E0,-1.779092699E-1,-3.447469175E-1,2.362451702E-1
9.621607502E0,-2.573194206E-1,-4.033882618E-1,2.377723008E-1
9.641717294E0,-3.681881726E-1,-2.482330501E-1,-6.872031838E-3
9.661827034E0,-4.818057716E-1,1.565296017E-2,-3.358132839E-1
9.681936773E0,-4.422534108E-1,1.784437597E-1,-3.972034156E-1
9.702046513E0,-6.093201414E-2,3.882697821E-1,-1.560714692E-1
9.722156252E0,1.831014603E-1,2.853420377E-1,1.056765765E-1
9.742265992E0,1.006370857E-1,7.406522986E-3,1.936385781E-1
9.762375732E0,1.940967143E-1,-2.023431472E-2,8.704573661E-2
9.782485523E0,3.584146202E-1,-2.099787444E-2,-1.181989461E-1
9.802595263E0,1.082726792E-1,-1.637834162E-1,-1.827960461E-1
9.822705002E0,-2.628170252E-1,-2.870218456E-1,-8.246437646E-3
9.842814742E0,-2.722851634E-1,-1.350736022E-1,2.657185495E-1
9.862924482E0,1.264453828E-1,2.326564491E-1,4.483618736E-1
9.883034221E0,5.135698318E-1,4.629458785E-1,4.179722369E-1
9.903143961E0,6.546755433E-1,4.976114631E-1,2.845021188E-1
9.923253700E0,6.717792749E-1,4.218663871E-1,1.574458778E-1
9.943363440E0,6.360446811E-1,3.038201630E-1,7.834116369E-2
9.963473232E0,5.241069198E-1,1.633252800E-1,1.033858955E-1
9.983582971E0,3.796415627E-1,4.421006888E-2,2.351761907E-1
1.000369271E1,3.057290614E-1,-2.481566928E-2,4.179722369E-1
1.002380245E1,3.226800561E-1,-7.902836055E-2,5.378510356E-1
1.004391219E1,3.278722763E-1,-1.204132661E-1,5.488462448E-1
1.006402193E1,2.279987335E-1,-1.648524106E-1,4.784461260E-1
1.008413167E1,9.468132257E-2,-1.387386769E-1,3.988832533E-1
1.010424141E1,3.634541109E-2,-6.177192926E-2,3.301629424E-1
1.012435115E1,6.123743951E-2,6.100837141E-2,2.556395829E-1
1.014446094E1,6.719319522E-2,1.912715435E-1,1.850867122E-1
1.016457068E1,-3.222219273E-2,2.350998372E-1,1.249182671E-1
1.018468042E1,-1.907370538E-1,6.681142002E-2,1.023169160E-1
1.020479016E1,-2.835858464E-1,-2.143310308E-1,1.476723254E-1
1.022489990E1,-3.093941510E-1,-4.183540046E-1,1.809635013E-1
1.024500964E1,-3.242071867E-1,-3.673482835E-1,1.569877416E-1
1.026511938E1,-2.396048307E-1,-1.794363745E-2,8.979454637E-2
1.028522912E1,3.390202299E-2,3.612397909E-1,8.490777016E-2
1.030533891E1,5.054761097E-2,3.916294575E-1,1.217113137E-1
1.032544865E1,-3.452814221E-1,1.934095174E-1,1.097997949E-1
1.034555839E1,-7.421793938E-1,2.306711972E-1,1.435491070E-2
1.036566813E1,-7.855495811E-1,3.791070879E-1,-1.863084137E-1
1.038577787E1,-5.233433843E-1,1.790546030E-1,-3.564293683E-1
1.040588761E1,-2.750339806E-1,-1.842468083E-1,-4.286620617E-1
1.042599735E1,-1.779092699E-1,-4.258368909E-1,-3.875826001E-1
1.044610709E1,-2.040229887E-1,-5.670953393E-1,-3.106158376E-1
1.046621688E1,-2.863346636E-1,-6.429930925E-1,-2.689255178E-1
1.048632662E1,-2.225011140E-1,-4.789806008E-1,-3.477247953E-1
1.050643636E1,-4.123218823E-3,-1.100288630E-1,-5.045598149E-1
1.052654610E1,2.684673667E-1,1.008661538E-1,-5.909947157E-1
1.054665584E1,5.419742465E-1,1.407239437E-1,-5.922164321E-1
1.056676558E1,6.080984473E-1,-4.046862945E-3,-5.488462448E-1
1.058687532E1,3.880407214E-1,-1.097234413E-1,-4.929537475E-1
1.060698506E1,4.062134400E-2,-1.040730998E-1,-4.685198367E-1
1.062709479E1,-2.313583940E-1,1.763821393E-2,-4.611896873E-1
1.064720453E1,-2.658712566E-1,1.440836042E-1,-4.621059597E-1
1.066731433E1,-2.560977042E-1,1.092653051E-1,-4.506525695E-1
1.068742406E1,-2.773246467E-1,-5.596888065E-2,-4.170559645E-1
1.070753380E1,-3.671191931E-1,-2.822877765E-1,-3.617742956E-1
1.072764354E1,-3.226800561E-1,-2.858001590E-1,-2.808370292E-1
1.074775328E1,-1.464506239E-1,-1.042258143E-1,-2.415900975E-1
1.076786302E1,-3.054236295E-3,1.460688561E-1,-2.041756958E-1
1.078797276E1,2.107422985E-2,3.503972590E-1,-1.398840249E-1
1.080808250E1,-6.581879407E-2,3.630723357E-1,-4.459185153E-2
1.082819229E1,-1.722589284E-1,2.189123929E-1,6.200099736E-2
1.084830203E1,-2.469350100E-1,9.338327497E-2,1.762294322E-1
1.086841177E1,-1.722589284E-1,1.395022422E-1,2.916795611E-1
1.088852151E1,1.125486046E-1,4.314872324E-1,3.837648034E-1
1.090863125E1,1.969982386E-1,5.105919242E-1,4.585935771E-1
1.092874099E1,-2.137965336E-2,2.219666243E-1,5.975613594E-1
1.094885073E1,4.840964451E-2,1.700446010E-1,6.523848772E-1
1.096896047E1,4.908157587E-1,1.708081663E-1,6.365028620E-1
1.098907021E1,8.102889061E-1,-1.672957987E-1,6.558972597E-1
1.100918000E1,7.463026643E-1,-6.497124434E-1,7.371399403E-1
1.102928974E1,6.733064055E-1,-6.828508973E-1,7.661551833E-1
1.104939948E1,8.136485219E-1,-2.409028858E-1,7.169819474E-1
1.106950922E1,8.580876589E-1,1.350736022E-1,5.891621709E-1
1.108961896E1,7.168292403E-1,3.029038906E-1,4.188885093E-1
1.110972870E1,5.430431962E-1,3.436779380E-1,2.214321345E-1
1.112983844E1,4.129327536E-1,3.027511835E-1,3.344388679E-2
1.114994818E1,2.841966748E-1,1.596602052E-1,-7.910472155E-2
1.117005797E1,2.151709497E-1,-6.032116711E-3,-5.696150661E-2
1.119016771E1,2.006633282E-1,-1.934095174E-1,5.299099907E-2
1.121027745E1,2.086043358E-1,-2.844257653E-1,1.866138428E-1
1.123038719E1,2.884726226E-1,-2.387649268E-1,2.557922900E-1
1.125049693E1,4.054498672E-1,-1.408766508E-1,2.144073844E-1
1.127060667E1,3.875826001E-1,-1.436254680E-1,9.758284688E-2
1.129071641E1,1.589729935E-1,-2.601445615E-1,2.046338283E-2
1.131082615E1,-8.551861346E-2,-3.591018319E-1,-1.542389300E-2
1.133093594E1,-2.240282297E-1,-3.584909737E-1,-5.558710173E-2
1.135104568E1,-2.866400778E-1,-2.683910131E-1,-6.398624927E-2
1.137115542E1,-3.778090179E-1,-1.969218850E-1,-5.085303262E-2
1.139126516E1,-5.870242119E-1,-2.144837379E-1,-6.994201243E-2
1.141137490E1,-9.103151560E-1,-3.462740481E-1,-9.666658193E-2
1.143148464E1,-1.148392797E0,-4.146889448E-1,-2.489202656E-2
1.145159438E1,-1.096165419E0,-3.241308331E-1,1.550024897E-1
1.147170412E1,-9.034430981E-1,-1.995179802E-1,3.067980409E-1
1.149181386E1,-1.008661509E0,2.634278871E-2,1.099525094E-1
1.151192365E1,-1.345238328E0,3.901023269E-1,-3.823903799E-1
1.153203339E1,-1.335922956E0,4.892123044E-1,-6.963658929E-1
1.155214313E1,-7.968502641E-1,-1.924932450E-1,-4.456130862E-1
1.157225287E1,7.269082218E-2,-9.213867188E-1,8.353336155E-2
1.159236261E1,6.392516494E-1,-8.296069503E-1,3.452814221E-1
1.161247235E1,5.604523420E-1,-1.906607002E-1,2.417428046E-1
1.163258209E1,1.433963925E-1,4.136199355E-1,-1.099525020E-2
1.165269183E1,-2.961082160E-1,7.069793344E-1,-2.115058601E-1
1.167280156E1,-4.585935771E-1,7.440882921E-1,-3.348970115E-1
1.169291136E1,-1.927223057E-1,6.181010604E-1,-3.975088596E-1
1.171302110E1,2.751866877E-1,3.484120071E-1,-3.570402265E-1
1.173313084E1,6.433748603E-1,1.970745921E-1,-2.441861928E-1
1.175324058E1,7.096518278E-1,2.079171389E-1,-1.771457046E-1
1.177335032E1,4.672981501E-1,3.656684458E-1,-1.815743446E-1
1.179346006E1,9.681928903E-2,5.484644771E-1,-2.319692522E-1
1.181356979E1,-1.324011385E-1,5.757998824E-1,-2.822114229E-1
1.183367953E1,-6.077930331E-2,3.778853714E-1,-2.360924631E-1
1.185378927E1,2.270824611E-1,4.451549426E-2,-1.217113137E-1
1.187389907E1,5.074613690E-1,-2.297549248E-1,-4.275931045E-3
1.189400880E1,5.352548957E-1,-3.661265671E-1,7.513421029E-2
1.191411854E1,3.498627543E-1,-3.015294671E-1,9.651386738E-2
1.193422828E1,1.058292910E-1,-1.031568274E-1,7.131642103E-2
1.195433802E1,-2.916795574E-2,1.610346138E-1,2.229592577E-2
1.197444776E1,-6.933116168E-2,2.827459276E-1,-2.748812549E-3
1.199455750E1,-1.012479365E-1,2.564795017E-1,5.039490014E-2
1.201466724E1,-4.932591692E-2,2.442625463E-1,1.464506239E-1
1.203477698E1,9.025268257E-2,3.671955466E-1,2.031067163E-1
1.205488677E1,-4.657710344E-2,3.436779380E-1,2.035648525E-1
1.207499651E1,-2.301367074E-1,1.621035933E-1,2.044811249E-1
1.209510625E1,3.909422457E-2,1.920351088E-1,2.347180545E-1
1.211521599E1,3.170297146E-1,-3.520007432E-2,2.467822880E-1
1.213532573E1,1.149920002E-1,-7.224032283E-1,3.078670204E-1
1.215543547E1,-2.512109280E-1,-1.049206495E0,3.362714052E-1
1.217554521E1,-2.289150059E-1,-5.644991994E-1,2.409792393E-1
1.219565495E1,1.852394342E-1,3.279486299E-1,1.925695986E-1
1.221576469E1,5.302154422E-1,8.231930137E-1,3.321481943E-1
1.223587448E1,6.824691296E-1,7.259156108E-1,5.204418898E-1
1.225598422E1,7.249229550E-1,2.963372767E-1,5.745018721E-1
1.227609396E1,7.258392572E-1,1.908897655E-3,4.772244096E-1
1.229620370E1,7.450809479E-1,6.604786217E-2,3.020639718E-1
1.231631344E1,7.246175408E-1,2.879381180E-1,1.491994411E-1
1.233642318E1,5.967977643E-1,4.502707720E-1,8.475505561E-2
1.235653292E1,3.443651497E-1,4.004867375E-1,1.107160673E-1
1.237664266E1,1.110214889E-1,1.025459841E-1,2.176143378E-1
1.239675240E1,2.412846684E-2,-2.430408597E-1,3.075616062E-1
1.241686214E1,-2.901524538E-3,-4.070533514E-1,2.831276953E-1
1.243697193E1,-1.027750522E-1,-4.264477491E-1,1.782146841E-1
1.245708167E1,-2.397575527E-1,-3.148154020E-1,4.428642616E-2
1.247719141E1,-3.490992188E-1,-1.639361382E-1,-3.817795217E-2
1.249730115E1,-3.691044450E-1,-8.284615725E-2,-3.833066672E-2
1.251741089E1,-3.274141252E-1,-1.156791970E-1,2.840439789E-2
1.253752063E1,-2.725905776E-1,-2.161635756E-1,1.307213157E-1
1.255763037E1,-2.394521236E-1,-3.514662385E-1,2.247917950E-1
1.257774011E1,-2.115058601E-1,-4.980695844E-1,3.191677034E-1
1.259784985E1,-2.371614426E-1,-5.533512831E-1,3.397837877E-1
1.261795964E1,-3.066453338E-1,-3.705552220E-1,2.550287247E-1
1.263806938E1,-3.516952991E-1,-1.282015741E-1,1.754658818E-1
1.265817912E1,-5.322006941E-1,-3.003077805E-1,2.327328026E-1
1.267828886E1,-7.553126216E-1,-4.543940127E-1,2.547233105E-1
1.269839860E1,-7.970029712E-1,-2.167744190E-1,7.284353673E-2
1.271850834E1,-5.948125124E-1,3.901786730E-2,-1.562241912E-1
1.273861808E1,-3.526115716E-1,-3.413109109E-2,-2.617480457E-1
1.275872782E1,-2.545706034E-1,-1.908134073E-1,-3.555130959E-1
1.277883756E1,-3.191677034E-1,-1.882173121E-1,-4.726430774E-1
1.279894729E1,-3.686463237E-1,1.046075951E-2,-6.209262609E-1
1.281905703E1,-3.116848171E-1,1.915769726E-1,-7.478297353E-1
1.283916683E1,-2.127275616E-1,2.540360987E-1,-8.348754644E-1
1.285927656E1,-8.826743066E-2,2.732777894E-1,-8.606837988E-1
1.287938630E1,1.597365588E-1,3.204657435E-1,-8.127322793E-1
1.289949604E1,4.540122151E-1,3.326826990E-1,-6.853706241E-1
1.291960578E1,6.500942111E-1,2.891598344E-1,-5.308262706E-1
1.293971552E1,6.821636558E-1,2.517454326E-1,-4.019374847E-1
1.295982526E1,6.122216582E-1,2.460950911E-1,-3.500154912E-1
1.297993500E1,4.556920528E-1,2.129566222E-1,-3.727695346E-1
1.300004474E1,1.901262105E-1,1.485122442E-1,-4.240806997E-1
1.302015448E1,-3.741439432E-2,8.086090535E-2,-4.581354558E-1
1.304026427E1,-8.506047726E-2,-8.628217503E-3,-4.170559645E-1
1.306037401E1,-6.551336497E-2,-1.483595222E-1,-2.794626355E-1
1.308048375E1,-1.771457121E-2,-2.186069638E-1,-1.345391124E-1
1.310059349E1,1.481304597E-2,-1.877591759E-1,-6.306997687E-2
1.312070323E1,-3.481829539E-2,-6.956022978E-2,-5.726693198E-2
1.314081297E1,-1.542389393E-1,2.786990628E-2,-8.460234851E-2
1.316092271E1,-3.026748300E-1,5.276193097E-2,-8.490777016E-2
1.318103245E1,-3.848337829E-1,8.254073560E-2,-4.779879749E-2
1.320114219E1,-3.451287150E-1,1.676012129E-1,4.413371533E-2
1.322125193E1,-1.505738497E-1,4.466057122E-1,1.798945218E-1
1.324136167E1,-6.658235192E-2,3.824667335E-1,3.362714052E-1
1.326147146E1,-2.127275616E-1,-6.788039953E-2,5.360184908E-1
1.328158120E1,-1.433963925E-1,-1.656159610E-1,6.135960817E-1
1.330169094E1,1.281252056E-1,-1.558424085E-1,5.635066032E-1
1.332180068E1,1.881409585E-1,-3.926984370E-1,4.963133931E-1
1.334191042E1,4.459185153E-2,-4.995967150E-1,4.614951015E-1
1.336202016E1,3.878879920E-2,-2.325037420E-1,3.918585181E-1
1.338212990E1,1.606528312E-1,1.126249656E-1,4.304946065E-1
1.340223964E1,2.849602401E-1,3.109976053E-1,5.123481154E-1
1.342234938E1,3.935383558E-1,3.549786210E-1,4.764608741E-1
1.344245912E1,4.575245976E-1,3.450523317E-1,3.652866483E-1
1.346256886E1,5.256340504E-1,3.109976053E-1,2.657185495E-1
1.348267860E1,5.612159371E-1,1.779856235E-1,2.072299272E-1
1.350278839E1,5.424323678E-1,4.039227590E-2,2.043284029E-1
1.352289813E1,5.193728805E-1,-8.170082234E-3,2.315111160E-1
1.354300787E1,5.254813433E-1,-7.864658721E-3,2.805316150E-1
1.356311761E1,5.491516590E-1,-4.008685052E-2,3.002314270E-1
1.358322735E1,5.413633585E-1,-8.223531395E-2,2.701472044E-1
1.360333709E1,5.328115225E-1,-6.284090877E-2,1.504211426E-1
1.362344682E1,4.619532526E-1,-2.389939874E-2,-8.857285604E-3
1.364355656E1,3.371876776E-1,-3.443651274E-2,-8.872556686E-2
1.366366631E1,1.137702987E-1,-1.517191827E-1,-7.589777559E-2
1.368377604E1,-1.427855492E-1,-2.705289721E-1,-2.702999115E-2
1.370388578E1,-3.002314270E-1,-2.978644073E-1,1.634016447E-2
1.372399552E1,-3.816268146E-1,-2.897706628E-1,5.650337320E-3
1.374410526E1,-5.004366040E-1,-2.697654068E-1,-5.008947477E-2
1.376421506E1,-7.887565494E-1,-4.253787696E-1,-5.100574717E-2
1.378432479E1,-1.164122105E0,-6.106181741E-1,2.916795574E-2
1.380443453E1,-1.167176366E0,-5.273902416E-1,1.230857223E-1
1.382454427E1,-6.262711287E-1,-2.508291602E-1,1.878355294E-1
1.384465401E1,-3.571929336E-1,-2.097496837E-1,1.244601309E-1
1.386476375E1,-6.977402568E-1,-1.022405624E-1,-3.206948191E-2
1.388487349E1,-1.010035992E0,1.943257898E-1,-2.157817930E-1
1.390498323E1,-7.420266867E-1,2.848838866E-1,-2.568612695E-1
1.392509297E1,-1.976090819E-1,-7.154548168E-2,-1.014006436E-1
1.394520271E1,3.072561622E-1,-4.963897467E-1,2.993151546E-2
1.396531245E1,4.546230733E-1,-5.374692082E-1,-4.321744293E-2
1.398542219E1,2.944283783E-1,-1.065164879E-1,-2.692309320E-1
1.400553198E1,1.792836636E-1,4.090386033E-1,-5.131117105E-1
1.402564172E1,1.945548505E-1,6.819345951E-1,-6.430694461E-1
1.404575146E1,2.721324563E-1,7.129350901E-1,-6.911736727E-1
1.406586120E1,3.587200642E-1,5.951942801E-1,-6.644490957E-1
1.408597094E1,3.524588645E-1,3.766636848E-1,-5.740436912E-1
1.410608068E1,2.058555335E-1,2.337254286E-1,-4.440859556E-1
1.412619042E1,-1.527118147E-3,2.389176339E-1,-2.892361879E-1
1.414630016E1,-1.267508119E-1,2.883962691E-1,-1.528645307E-1
1.416640990E1,-1.160609797E-1,3.171060979E-1,-5.008947477E-2
1.418651964E1,-6.688777357E-2,1.868429035E-1,7.177455351E-3
1.420662938E1,-4.550812021E-2,-1.450762269E-3,3.649812192E-2
1.422673912E1,-4.871506989E-2,-1.953947693E-1,2.321219631E-2
1.424684886E1,-8.154810965E-2,-2.694599926E-1,2.870982140E-2
1.426695865E1,-1.004843712E-1,-2.612135708E-1,5.253286287E-2
1.428706834E1,-2.447970361E-1,-2.386122048E-1,9.208522737E-2
1.430717813E1,-4.529432356E-1,-1.660740972E-1,1.301104724E-1
1.432728787E1,-6.490252018E-1,-1.578276604E-1,1.163664013E-1
1.434739761E1,-8.154810667E-1,-6.482616812E-2,5.573981255E-2
1.436750735E1,-7.531746626E-1,2.453315258E-1,-7.330167107E-3
1.438761709E1,-3.371876776E-1,6.735354662E-1,3.130592033E-2
1.440772683E1,8.521319181E-2,8.128086329E-1,1.973036677E-1
1.442783657E1,8.460234851E-2,2.407501787E-1,4.269822240E-1
1.444794630E1,3.054236295E-3,-2.436517030E-1,5.787777901E-1
1.446805604E1,1.801999360E-1,-5.345677137E-1,5.609105229E-1
1.448816578E1,3.509317636E-1,-9.302440286E-1,5.001311898E-1
1.450827552E1,4.834856093E-1,-9.442934990E-1,4.156815708E-1
1.452838526E1,6.172611713E-1,-4.722612798E-1,2.718270421E-1
1.454849500E1,4.746283293E-1,-1.473669056E-2,2.040229887E-1
1.456860474E1,2.924431264E-1,2.547996640E-1,1.925695986E-1
1.458871453E1,3.006895781E-1,3.626142144E-1,1.757712960E-1
1.460882427E1,4.672981501E-1,4.053735137E-1,1.273616552E-1
1.462893401E1,6.679614782E-1,3.473430276E-1,5.039490014E-2
1.464904375E1,7.461498976E-1,1.559951156E-1,1.420219894E-2
1.466915349E1,6.685723066E-1,-8.170082234E-3,7.177455351E-3
1.468926323E1,5.179984570E-1,6.635328382E-2,-4.947862774E-2
1.470937297E1,4.245388508E-1,2.980171144E-1,-1.522536725E-1
1.472948271E1,4.162923992E-1,3.204657435E-1,-1.831014603E-1
1.474959245E1,4.248442650E-1,-4.650074616E-2,-1.021642014E-1
1.476970219E1,3.321481943E-1,-5.574744940E-1,4.046862945E-2
1.478981193E1,1.006370857E-1,-8.687011600E-1,1.394258887E-1
1.480992167E1,-6.765133142E-2,-6.935406923E-1,9.666658193E-2
1.483003141E1,-2.092151903E-2,-2.338781506E-1,-1.183516532E-1
1.485014115E1,-2.229592577E-2,1.700446010E-1,-3.147390485E-1
1.487025089E1,-3.067980409E-1,2.008923888E-1,-3.184041381E-1
1.489036063E1,-6.102364063E-1,2.977880416E-3,-2.031067163E-1
1.491047037E1,-5.955760479E-1,-2.549523711E-1,-1.985253580E-2
1.493058011E1,-3.460449576E-1,-5.712185502E-1,2.061609477E-1
1.495068985E1,-1.039967462E-1,-6.617766619E-1,3.327590525E-1
1.497079964E1,9.681928903E-2,-2.109713703E-1,2.470877171E-1
1.499090938E1,2.892361879E-1,2.618243992E-1,2.189887464E-1
1.501101912E1,2.324273884E-1,2.016559541E-1,3.000787199E-1
1.503112886E1,2.095206082E-1,7.230904698E-2,3.171824515E-1
1.505123860E1,1.320957243E-1,-1.404185146E-1,1.805053651E-1
1.507134834E1,-2.733541429E-1,-6.646781564E-1,-1.156028435E-1
1.509145808E1,-9.147437811E-1,-1.082497716E0,-4.068242610E-1
1.511156782E1,-1.128387570E0,-5.110501051E-1,-7.169819474E-1
1.513167756E1,-8.391514421E-1,4.211028218E-1,-8.922951221E-1
1.515178729E1,-5.806103349E-1,8.305231929E-1,-7.574505806E-1
1.517189703E1,-4.660764635E-1,7.136986852E-1,-5.303681493E-1
1.519200677E1,-2.857238054E-1,4.273640215E-1,-4.851654470E-1
1.521211651E1,-1.557660475E-2,1.604237556E-1,-5.813738704E-1
1.523222625E1,1.659977436E-1,-1.450762269E-3,-6.781931520E-1
1.525233599E1,3.481829539E-2,1.145338640E-3,-7.047650218E-1
1.527244573E1,-3.662029207E-1,1.941730678E-1,-6.175665855E-1
1.529255547E1,-6.749862432E-1,3.942255378E-1,-4.338542521E-1
1.531266521E1,-6.404733658E-1,3.507026732E-1,-2.307475507E-1
1.533277495E1,-3.439069986E-1,1.705027372E-1,-6.368082762E-2
1.535288469E1,7.284353673E-2,2.848075330E-2,3.145863488E-2
1.537299443E1,4.813476503E-1,5.154023692E-2,6.276455522E-2
1.539310417E1,7.724163532E-1,1.683647782E-1,7.773031294E-2
1.541321391E1,8.222004175E-1,1.369061470E-1,1.256818175E-1
1.543332370E1,6.772769094E-1,2.649549954E-2,2.235700935E-1
1.545343344E1,4.914266169E-1,-9.674293548E-2,2.716743052E-1
1.547354318E1,3.216110766E-1,-2.497601658E-1,2.573194206E-1
1.549365292E1,1.157555580E-1,-4.482855201E-1,2.180724740E-1
1.551376266E1,-7.727217674E-2,-4.568373859E-1,1.878355294E-1
1.553387240E1,-1.255291104E-1,-2.008923888E-1,2.000524700E-1
1.555398214E1,-8.231166750E-2,3.375694752E-1,2.684673667E-1
1.557409188E1,-3.652866483E-1,5.600705743E-1,3.287885487E-1
1.559420162E1,-8.677085042E-1,3.073325157E-1,3.471139669E-1
1.561431136E1,-8.044858575E-1,1.934095174E-1,3.159607351E-1
1.563442110E1,1.527118124E-2,1.636307091E-1,3.232909143E-1
1.565453084E1,8.732061386E-1,-2.664821222E-2,4.188885093E-1
1.567464058E1,9.161182046E-1,-3.662792742E-1,6.007682681E-1
1.569475032E1,4.763081372E-1,-3.853682578E-1,7.317950130E-1
1.571486006E1,2.626643181E-1,3.122956678E-2,7.753179073E-1
1.573496979E1,3.967452943E-1,4.177431762E-1,7.421793938E-1
1.575507953E1,5.717530251E-1,5.562527776E-1,6.952968836E-1
1.577518927E1,7.148439884E-1,5.898494124E-1,6.178719997E-1
1.579529901E1,8.138012886E-1,4.769953489E-1,5.143333673E-1
1.581540875E1,7.832589149E-1,2.158581465E-1,4.201101959E-1
1.583551849E1,6.193991303E-1,-1.122431830E-2,3.556658030E-1
1.585562823E1,4.294256270E-1,-9.078717232E-2,2.840439677E-1
1.587573797E1,2.727433145E-1,3.947600350E-2,1.959292591E-1
1.589584771E1,1.992889196E-1,1.732515544E-1,1.200314835E-1
1.591595745E1,1.716480851E-1,1.010188684E-1,9.422318637E-2
1.593606719E1,1.643179059E-1,-9.307785332E-2,1.101052165E-1
1.595617693E1,2.370087355E-1,-2.494547516E-1,1.353026628E-1
1.597628667E1,2.739650011E-1,-3.219928741E-1,1.788255423E-1
1.599639641E1,2.240282297E-1,-2.708344162E-1,1.637070626E-1
1.601650615E1,1.969982497E-2,-1.031568274E-1,6.719319522E-2
1.603661589E1,-2.199050188E-1,1.730988473E-1,-4.520269856E-2
1.605672563E1,-3.335226178E-1,3.137464225E-1,-7.055285573E-2
1.607683537E1,-3.332171738E-1,2.027249336E-1,4.443913698E-2
1.609694511E1,-2.313583940E-1,-6.223006546E-2,2.104368806E-1
1.611705485E1,-1.513374150E-1,-3.320718408E-1,3.315373361E-1
1.613716459E1,-1.389677525E-1,-3.019876182E-1,3.631486893E-1
1.615727432E1,-5.357130170E-1,-2.735832036E-1,2.644968629E-1
1.617738407E1,-1.400978208E0,-2.352525443E-1,2.046338283E-2
1.619749380E1,-1.894924521E0,2.680855989E-1,-2.214321345E-1
1.621760354E1,-1.470538378E0,9.090170860E-1,-4.077405334E-1
1.623771328E1,-3.494046330E-1,1.125562429E0,-2.993151546E-1
1.625782302E1,6.192464232E-1,5.180748105E-1,1.632489264E-1
1.627793276E1,1.025765300E0,-4.485909641E-1,6.203153729E-1
1.629804250E1,8.950439692E-1,-8.796964288E-1,7.233958840E-1
1.631815224E1,5.442649126E-1,-6.031352878E-1,5.074613690E-1
1.633826198E1,2.263189107E-1,1.779092662E-2,7.910472155E-2
1.635837172E1,1.847812906E-2,5.017346740E-1,-2.935121059E-1
1.637848146E1,-1.878355257E-2,5.686224699E-1,-4.860817194E-1
1.639859120E1,6.902574003E-2,3.394020200E-1,-5.080721974E-1
1.641870094E1,2.473931462E-1,1.924932450E-1,-4.149180055E-1
1.643881068E1,4.781406820E-1,2.102078199E-1,-3.216110766E-1
1.645892042E1,5.793886185E-1,2.051683217E-1,-2.779355049E-1
1.647903016E1,5.256340504E-1,1.456107199E-1,-2.632751763E-1
1.649913990E1,3.736858070E-1,7.246175408E-2,-2.962609231E-1
1.651924964E1,2.322746664E-1,2.817532979E-2,-3.597890437E-1
1.653935938E1,2.305948436E-1,1.824906096E-2,-3.927747905E-1
1.655946912E1,3.249707520E-1,1.229330152E-2,-3.776563108E-1
1.657957886E1,3.071034551E-1,3.397838026E-2,-3.300102353E-1
1.659968860E1,2.122694254E-1,1.089598835E-1,-2.809897363E-1
1.661979834E1,9.849911928E-2,1.680593491E-1,-2.631224692E-1
1.663990808E1,4.428642802E-3,2.143310308E-1,-2.591519356E-1
1.666001782E1,2.428117767E-2,2.434989959E-1,-2.542651594E-1
1.668012756E1,1.078145429E-1,1.533990204E-1,-2.309002578E-1
1.670023729E1,1.090362370E-1,-3.199312463E-2,-1.663031727E-1
1.672034703E1,6.261184067E-2,-1.575222313E-1,-7.666133344E-2
1.674045677E1,1.140757278E-1,-5.703786388E-2,1.328592747E-2
1.676056651E1,2.440334857E-1,2.854947448E-1,5.757235363E-2
1.678067625E1,1.021642014E-1,4.886014462E-1,5.955760833E-3
1.680078599E1,-4.395045936E-1,7.704310864E-2,3.436015919E-2
1.682089573E1,-7.511894107E-1,-5.220453143E-1,1.550024897E-1
1.684100547E1,-5.963396430E-1,-9.192487597E-1,2.664821148E-1
1.686111521E1,1.501157135E-1,-4.253787696E-1,2.374668717E-1
1.688122495E1,7.614210844E-1,3.652102947E-1,1.653869003E-1
1.690133469E1,5.137225389E-1,5.739673376E-1,2.141019702E-1
1.692144443E1,-2.406738251E-1,3.302392960E-1,3.587200642E-1
1.694155417E1,-7.811209559E-1,1.397313084E-2,5.250232220E-1
1.696166391E1,-6.061131954E-1,4.222481698E-2,5.522059202E-1
1.698177365E1,4.199574888E-2,3.108448982E-1,4.685198367E-1
1.700188339E1,5.467082858E-1,5.316661596E-1,3.756710589E-1
1.702199313E1,6.026008129E-1,4.406499267E-1,3.370349705E-1
1.704210287E1,2.547233105E-1,1.587439328E-1,3.009949923E-1
1.706221261E1,-2.302894145E-1,-2.832804248E-2,3.042019308E-1
1.708232235E1,-3.013004065E-1,9.597937763E-2,2.944283783E-1
1.710243209E1,-2.290677279E-2,1.993652731E-1,2.704526186E-1
1.712254183E1,2.105895877E-1,1.702736691E-2,2.803788781E-1
1.714265156E1,1.783674061E-1,-3.720823228E-1,2.637332976E-1
1.716276125E1,7.223268598E-2,-5.153260231E-1,2.305948436E-1
1.718287104E1,1.649287529E-2,-3.604762256E-1,1.527118087E-1
1.720298078E1,-5.436540768E-2,-1.660740972E-1,3.527642787E-2
1.722309052E1,-1.840177327E-1,-1.004080176E-1,-5.711421743E-2
1.724320021E1,-2.348707765E-1,-1.547734290E-1,-9.162709117E-2
1.726330995E1,-6.413896382E-2,-1.911188364E-1,-1.183516532E-1
1.728341969E1,2.672456801E-1,-1.402658075E-1,-1.563768983E-1
1.730352943E1,4.544703662E-1,-1.940203607E-1,-1.908897758E-1
1.732363917E1,2.979407609E-1,-2.586174607E-1,-2.093679011E-1
1.734374891E1,-1.178935245E-1,-2.155527323E-1,-2.228065431E-1
1.736385865E1,-3.933856487E-1,-4.657710437E-3,-2.654131353E-1
1.738396839E1,-3.240544796E-1,2.143310308E-1,-3.190149665E-1
1.740407813E1,-1.348445266E-1,2.329618782E-1,-3.214583695E-1
1.742418787E1,-5.375456065E-2,7.154548168E-2,-2.670929730E-1
1.744429761E1,-6.566607952E-2,-1.201078445E-1,-2.017323077E-1
1.746440735E1,-4.413371533E-2,-1.184280142E-1,-1.247655526E-1
1.748451709E1,8.796200156E-2,1.290414855E-2,-6.780404598E-2
1.750462683E1,1.742441803E-1,5.428905040E-2,-6.368082762E-2
1.752473656E1,1.097997949E-1,-2.053973824E-2,-9.147437662E-2
1.754484630E1,-5.085303262E-2,-1.723352820E-1,-1.146865711E-1
1.756495604E1,-1.747023165E-1,-2.627406716E-1,-9.284878522E-2
1.758506578E1,-2.112004459E-1,-1.810398549E-1,-6.108472496E-2
1.760517547E1,-1.818797737E-1,8.322793990E-3,-5.589252338E-2
1.762528526E1,-9.055810422E-2,9.643751383E-2,-8.368607610E-2
1.764539495E1,-5.528167635E-2,-3.214583546E-2,-6.917845458E-2
1.766550469E1,-5.405998230E-2,-1.845522225E-1,-2.733541466E-2
1.768561443E1,-5.283828825E-2,-1.830251068E-1,-9.315420873E-3
1.770572417E1,-6.810946763E-2,-2.786990628E-2,-6.490252167E-2
1.772583391E1,-3.023693897E-2,7.826480269E-2,-3.130592033E-2
1.774594365E1,6.994201243E-2,-3.794888780E-2,6.261184346E-3
1.776605339E1,3.191677108E-2,-1.569113880E-1,6.261184067E-2
1.778616313E1,-9.849911928E-2,-1.462215632E-1,5.344913527E-2
1.780627287E1,-1.940967143E-1,-6.345175952E-2,5.344913527E-2
1.782638261E1,-1.688992679E-1,2.954973653E-2,-3.970507067E-3
1.784649235E1,-1.133121699E-1,8.590039611E-2,-9.162709117E-3
1.786660209E1,-8.780929446E-2,6.696412712E-2,2.031067200E-2
1.788671183E1,-3.069507517E-2,-1.145338640E-3,3.771981969E-2
1.790682156E1,8.093725890E-3,-4.436278343E-2,3.649812192E-2
1.792693130E1,-1.114796288E-2,-3.642176837E-2,1.679829881E-2
1.794704099E1,-4.260659590E-2,2.985516004E-2,-4.734066315E-3
1.796715078E1,2.748812549E-3,6.421531737E-2,-1.527118147E-3
1.798726047E1,9.758284688E-2,1.840177365E-2,1.099525020E-2
1.800737021E1,1.320957243E-1,-3.703261539E-2,1.221694518E-2
1.802747995E1,1.259872466E-1,-4.848600179E-2,-1.756185852E-2
1.804758969E1,9.666658193E-2,6.032116711E-3,-5.146388337E-2
1.806769943E1,7.146912813E-2,5.138752609E-2,-6.734590977E-2
1.808780917E1,7.635590434E-2,1.840177365E-2,-7.849387079E-2
1.810791891E1,8.643488586E-2,-7.001836598E-2,-9.666658193E-2
1.812802865E1,8.383878320E-2,-1.114032716E-1,-8.017370105E-2
1.814813839E1,6.856760383E-2,-7.154548168E-2,-3.466558084E-2
1.816824813E1,5.192201585E-3,2.084516361E-2,-2.748812735E-2
1.818835787E1,-1.435491070E-2,7.475243509E-2,-4.459185153E-2
1.820846761E1,4.886778072E-3,4.253023863E-2,-6.169557199E-2
1.822857729E1,8.399149403E-3,3.741439432E-3,-4.581354558E-2
1.824868703E1,1.527118147E-4,-8.628217503E-3,-2.840439789E-2
1.826879677E1,-3.206948051E-3,6.032116711E-3,-1.908897609E-2
1.828890651E1,-1.756185852E-2,1.962346770E-2,-1.740914769E-2
1.830901625E1,-5.421269313E-2,3.504735976E-2,-3.542914242E-2
1.832912599E1,-6.749862432E-2,4.512634128E-2,-6.872031838E-2
1.834923573E1,-2.428117767E-2,3.061871976E-2,-6.169557199E-2
1.836934547E1,-2.015795931E-2,2.367033157E-3,-7.024743594E-3
1.838945521E1,-2.657185495E-2,3.031329438E-2,3.206948051E-3
1.840956495E1,-1.084253844E-2,3.886515647E-2,-1.557660475E-2
1.842967469E1,1.191152167E-2,2.191414498E-2,-3.222219273E-2
1.844978438E1,1.634016447E-2,1.756185899E-3,-2.473931387E-2
1.846989412E1,-1.099525020E-2,1.298050396E-3,-1.236965694E-2
1.849000386E1,-3.466558084E-2,1.908897655E-3,-1.801999472E-2
1.851011360E1,-1.496575773E-2,-8.017370477E-3,-3.084778599E-2
1.853022334E1,4.107947648E-2,3.130592173E-3,-4.107947648E-2
1.855033308E1,3.863608837E-2,9.849912487E-3,-2.260134928E-2
1.857044282E1,-5.497625098E-3,1.198787708E-2,-4.886778072E-3
1.859055256E1,-1.679830020E-3,2.061609412E-3,-4.581354558E-3
1.861066229E1,7.482878864E-3,-4.940227047E-2,-0.000000000E0
1.863077203E1,-1.557660475E-2,-8.131904155E-2,1.832541777E-3
1.865088177E1,-3.206948191E-2,-5.703786388E-2,1.832541777E-3
1.867099146E1,-3.665083647E-2,5.268557463E-3,1.084253844E-2
1.869110120E1,-3.848337755E-2,5.031854287E-2,2.031067200E-2
1.871121094E1,-1.252236869E-2,3.260397166E-2,2.565558441E-2
1.873132068E1,1.068982668E-2,-1.916533336E-2,3.848337755E-2
1.875143042E1,5.497625098E-3,-5.841226876E-2,5.024218559E-2
1.877154016E1,-1.985253533E-3,-8.208259940E-2,4.810422286E-2
1.879164990E1,-1.740914769E-2,-7.811209559E-2,3.848337755E-2
1.881175964E1,-1.710372418E-2,-4.069769755E-2,3.069507517E-2
1.883186938E1,-1.832541777E-3,-1.779092662E-2,2.275406010E-2
1.885197907E1,-9.620844387E-3,-4.191939160E-2,1.572931744E-2
1.887208880E1,-3.863608837E-2,-6.604786217E-2,1.206423342E-2
1.889219854E1,-6.658235192E-2,-5.199837312E-2,8.704573847E-3
1.891230828E1,-6.688777357E-2,-4.810422193E-3,1.359135192E-2
1.893241802E1,-3.649812192E-2,3.810159862E-2,2.107422985E-2
1.895252776E1,-1.435491070E-2,2.924431302E-2,1.969982497E-2
1.897263750E1,-1.527118147E-3,6.184828468E-3,1.420219894E-2
1.899274724E1,2.092151903E-2,-9.849912487E-3,3.512371797E-3
1.901285698E1,1.969982497E-2,-1.458397787E-2,9.162708884E-4
1.903296667E1,-7.177455351E-3,-1.641651988E-2,-3.054236295E-3
1.905307641E1,-1.847812906E-2,5.421269219E-3,-2.183778957E-2
1.907318615E1,-1.160609815E-2,4.436278343E-2,-5.161659420E-2
1.909329589E1,-5.803049076E-3,6.910209358E-2,-6.123743951E-2
1.911340563E1,1.985253533E-3,4.329380020E-2,-4.749337584E-2
1.913351537E1,2.305948362E-2,8.780929260E-3,-2.718270384E-2
1.915362511E1,4.245388508E-2,-2.374668792E-2,-1.389677543E-2
1.917373485E1,4.321744293E-2,-4.451549426E-2,-1.130067464E-2
1.919384459E1,4.474456236E-2,-6.345175952E-2,-1.404948719E-2
1.921395427E1,4.596625641E-2,-4.818057641E-2,-3.817795310E-3
1.923406401E1,3.100049868E-2,-1.122431830E-2,-1.374406274E-3
1.925417375E1,-2.748812549E-3,1.015533600E-2,-1.221694518E-3
1.927428349E1,5.344913341E-3,2.672456671E-3,8.399149403E-3
1.929439323E1,4.550812021E-2,-1.718007959E-2,2.443389036E-2
1.931450297E1,5.008947477E-2,-4.146125913E-2,3.787253052E-2
1.933461271E1,2.825168520E-2,-3.397838026E-2,3.634541109E-2
1.935472240E1,3.176405653E-2,-1.275143679E-2,2.061609551E-2
1.937483214E1,4.245388508E-2,-2.344126441E-2,8.246437646E-3
1.939494188E1,2.886253223E-2,-4.069769755E-2,-3.054236295E-4
1.941505162E1,2.901524538E-3,-4.283566400E-2,-1.603474095E-2
1.943516136E1,-1.374406368E-2,-3.290939704E-2,-2.580829710E-2
1.945527110E1,-7.024743594E-3,-1.962346770E-2,-2.535016090E-2
1.947538084E1,6.413896102E-3,1.565296017E-2,-2.473931387E-2
1.949549058E1,6.566607859E-3,3.168770298E-2,-2.290677279E-2
1.951560026E1,4.428642802E-3,3.283303929E-3,-2.550287358E-2
1.953571000E1,2.932066843E-2,-3.428380191E-2,-2.779355086E-2
1.955581974E1,5.940489471E-2,-4.039227590E-2,-2.565558441E-2
1.957592948E1,4.337015375E-2,-1.427855436E-2,-1.679829881E-2
1.959603922E1,2.428117767E-2,1.305686031E-2,-2.092151903E-2
1.961614896E1,1.801999472E-2,1.183516532E-2,-2.977880463E-2
1.963625870E1,1.847812906E-2,-1.122431830E-2,-2.825168520E-2
1.965636844E1,2.412846684E-2,-3.046600707E-2,-2.611372061E-2
1.967647813E1,2.733541466E-2,-2.542651631E-2,-2.672456764E-2
1.969658787E1,3.374931216E-2,-1.229330152E-2,-1.985253580E-2
1.971669761E1,4.321744293E-2,-2.160872146E-2,-2.901524538E-3
1.973680735E1,7.253811508E-2,-6.375718117E-2,4.734066315E-3
1.975691709E1,9.040539712E-2,-7.200361788E-2,6.108472589E-3
1.977702682E1,6.505523622E-2,-4.008685052E-2,1.679830020E-3
1.979713657E1,6.719320081E-3,3.741439432E-3,-6.566607859E-3
1.981724625E1,-2.153236605E-2,1.901262067E-2,-2.046338283E-2
1.983735599E1,-2.107422985E-2,4.390464723E-2,-2.932066843E-2
1.985746573E1,-2.397575416E-2,1.030804776E-2,-1.710372418E-2
1.987757547E1,-1.267508045E-2,-2.420482226E-2,-1.068982668E-2
1.989768521E1,-9.773556143E-3,-2.954973653E-2,-1.863084175E-2
1.991779495E1,-1.908897609E-2,-2.084516361E-2,-2.687728032E-2
1.993790464E1,-2.504473738E-2,-2.512109280E-2,-2.932066843E-2
1.995801438E1,-2.092151903E-2,-2.496838197E-2,-2.489202656E-2
1.997812412E1,1.374406274E-3,1.908897655E-3,-1.924168877E-2
1.999823386E1,-1.374406274E-3,1.733279042E-2,-1.343864016E-2
2.001834360E1,-2.458660305E-2,1.122431830E-2,-2.000524849E-2
2.003845334E1,-3.069507517E-2,-2.970244735E-2,-2.993151546E-2
2.005856308E1,-8.093725890E-3,-3.962871432E-2,-3.634541109E-2
2.007867282E1,1.939439960E-2,-3.122956678E-2,-2.565558441E-2
2.009878250E1,3.558185324E-2,-3.443651274E-2,-7.788302377E-3
2.011889224E1,4.917320609E-2,-5.581616983E-2,-7.635590737E-4
2.013900198E1,5.146388337E-2,-5.337277800E-2,-5.039489828E-3
2.015911172E1,4.963133857E-2,-1.122431830E-2,-9.468132630E-3
2.017922146E1,6.200099736E-2,-4.963133950E-3,-1.359135192E-2
2.019933120E1,7.101099193E-2,-2.725905925E-2,-1.511846948E-2
2.021944089E1,7.192726433E-2,-6.940752268E-2,-2.305948362E-2
2.023955063E1,4.352286831E-2,-5.398362502E-2,-3.222219273E-2
2.025966037E1,2.733541466E-2,-5.344913807E-4,-3.771981969E-2
2.027977011E1,1.801999472E-2,2.710634656E-2,-3.451287001E-2
2.029987985E1,1.038440317E-2,1.076618303E-2,-3.313846514E-2
2.031998959E1,2.183778957E-2,-2.298312820E-2,-4.199574888E-2
2.034009927E1,-1.146865711E-1,6.192464009E-2,-4.535540938E-2
2.036020901E1,-5.331169367E-1,2.021140903E-1,-1.939439960E-2
2.038031875E1,-1.010952219E-1,1.417929232E-1,1.068982761E-3
2.040042849E1,3.904841244E-1,-6.436803192E-2,-4.443913698E-2
