Time (s),Acceleration x (m/s^2),Acceleration y (m/s^2),Acceleration z (m/s^2),Gyroscope x (rad/s),Gyroscope y (rad/s),Gyroscope z (rad/s)
7.314540904,0.251246363,3.651447296,8.975478172,0.069254808,0.034665581,-0.100408018
7.334650956,0.251246363,3.654438496,8.758329391,0.01718008,0.042912021,-0.114915639
7.354761008,0.166301176,3.660420418,8.785248756,-0.036269058,0.085824043,-0.119649708
7.37487106,0.046061836,3.671188116,8.960522652,-0.043446511,0.098346412,-0.109723441
7.394981113,-0.048454657,3.662813187,8.98026371,-0.028786177,0.063222691,-0.095368527
7.415091165,-0.190827608,3.662813187,9.004789352,-0.024357535,0.023059484,-0.06513159
7.435201217,-0.206380948,3.644867182,9.141778946,-0.010155336,-0.005650337,-0.024510246
7.455311217,-0.021535404,3.623331785,9.168698311,0.001603474,-0.020616096,-0.006490252
7.475421269,0.078963146,3.644867182,9.123832703,-0.010002624,0.002137966,-0.011224318
7.495531321,0.102891371,3.673580885,9.123832703,-0.034741938,0.040774055,-0.020081604
7.515641373,0.074177504,3.637688637,9.071190834,-0.070476502,0.081700824,-0.026648212
7.535751425,0.020338992,3.553341627,9.154341698,-0.098270051,0.084296919,-0.024052111
7.555861477,0.005383851,3.467798233,9.351150513,-0.086205818,0.074981503,-0.014736691
7.575971477,-0.005383851,3.457628727,9.36550808,-0.059939388,0.083686076,-0.002367033
7.596081529,-0.025722843,3.446262836,9.280562401,-0.040392276,0.074370652,0.016721943
7.616191581,0.02751746,3.420539856,9.31944561,-0.015194826,0.040163208,0.035352785
7.636301633,0.081355967,3.471387386,9.404989243,0.026037365,0.027640838,0.042224817
7.656411685,0.157328084,3.522234917,9.407382011,0.072614469,0.037261683,0.036269058
7.676521738,0.142372951,3.548556089,9.240483284,0.097811915,0.007635591,0.032451261
7.69663179,0.190827608,3.611367464,9.163912773,0.105447508,-0.001221695,0.028328042
7.71674179,0.272183567,3.702893019,9.095118523,0.102698699,0.026571855,0.007101099
7.736851842,0.259621263,3.77647233,8.958727837,0.079486497,0.05482354,-0.023593975
7.756961894,0.112462662,3.88056016,8.983852386,0.054747187,0.036956258,-0.046042614
7.777071946,-0.012562319,3.992424488,8.974281311,0.027869906,0.006872032,-0.061008371
7.797181998,-0.068793654,4.050450325,8.901898384,-0.050623968,0.012064233,-0.067574978
7.81729205,-0.096311115,4.072584152,9.111868858,-0.150955632,0.055739813,-0.07291989
7.83740205,-0.212961212,4.061218262,9.497113228,-0.228380516,0.08933641,-0.064215317
7.857512102,-0.318843603,4.084548473,9.76211834,-0.325657934,0.080479123,-0.039170582
7.877622154,-0.340977222,4.103690624,10.53858948,-0.390713185,0.074065231,-0.003436016
7.897732206,-0.342771858,4.163511276,11.413764,-0.33573693,0.074217945,0.011071607
7.917842258,-0.41934216,4.219144344,11.62852001,-0.26075542,0.060015742,0.026342789
7.937952258,-0.418145746,4.110869408,11.31087303,-0.275568456,0.093612343,0.022219568
7.95806231,-0.571884632,4.000799656,11.12183952,-0.418659449,0.166761309,0.02741177
7.978171716,-0.586241543,3.751945972,11.62552929,-0.57488364,0.202495873,0.032756682
7.998281768,-0.38285163,3.223730326,12.51745319,-0.647116303,0.209978744,0.053372778
8.01839182,-0.04127619,2.641077995,13.47936821,-0.557627201,0.256555855,0.055052608
8.038501872,-0.111266255,2.420938253,13.82752419,-0.262740672,0.300536841,0.013362284
8.058611872,-0.837487936,2.347957134,12.66341591,0.042224817,0.197761804,0.006490252
8.078721924,-1.549950838,2.274976015,11.17807102,0.19951798,-0.035734564,0.087274805
8.098831976,-1.849651933,2.357528448,9.985248566,0.184246808,-0.198372647,0.198296294
8.118942028,-1.552941918,2.253440619,9.472586632,0.011987877,-0.186308414,0.274194062
8.13905208,-0.946361363,1.931007862,9.919445992,-0.156911388,-0.075592346,0.287785411
8.159162132,-0.510269404,1.581655741,10.7545414,-0.162867144,0.028709821,0.259381026
8.179272132,-0.474975288,1.325623751,10.94357395,-0.010766183,0.075439639,0.239833906
8.199382184,-0.881755173,1.392622828,10.2275219,0.196005613,0.049325917,0.284883887
8.219492236,-1.043868899,1.599601984,8.997611046,0.348412007,-0.016187452,0.377274543
8.239602288,-0.655035198,1.756331801,7.625327587,0.354215056,-0.078952007,0.416826904
8.259712341,-0.181854516,1.819143414,6.727420807,0.196921885,-0.060168456,0.377885371
8.279822341,0.066400826,1.78684032,6.838686943,0.020692451,0.022143213,0.289312542
8.299932393,-0.151944235,1.734796405,7.711469173,0.007253811,0.089183703,0.228533238
8.320042445,-0.524626374,1.752742529,8.095517159,0.145152584,0.051005747,0.23601611
8.340152497,-0.560518682,1.823330879,7.646862984,0.250523746,-0.07177455,0.280760676
8.360262549,-0.141774744,1.937588096,7.142575741,0.23051849,-0.117435388,0.280455262
8.380372549,0.315852583,2.05722928,7.130013466,0.160881892,-0.028709821,0.203946635
8.400482601,0.370887518,2.117648125,7.389036179,0.125147328,0.056045234,0.100102596
8.420592653,0.072981089,2.25104785,7.57806921,0.143472746,0.039857782,0.034589227
8.440702705,-0.236889437,2.453241348,7.640282631,0.159660205,-0.055892523,0.024052111
8.460812757,-0.141176537,2.480160713,7.750950813,0.151261047,-0.137746051,0.020997874
8.480922757,0.114855483,2.615355253,7.743174076,0.101018868,-0.148435891,-0.021456011
8.501032809,0.210568398,2.838485956,7.698308468,-0.040544987,-0.092237934,-0.103767678
8.521142861,0.12801601,2.843271494,8.207980156,-0.194478497,-0.051463883,-0.185926631
8.541252913,-0.139381915,2.724826813,9.00179863,-0.30137676,-0.055892523,-0.220592216
8.561362966,-0.306281298,2.641077995,10.03011417,-0.287174583,-0.052227441,-0.204557478
8.581472966,-0.313459754,2.651845694,10.70309544,-0.164394274,-0.04382829,-0.184399515
8.601583018,-0.325423867,2.787040234,10.76471043,-0.030466007,-0.094681323,-0.174320534
8.62169307,-0.400797784,2.921038151,10.5918293,0.031840414,-0.152253673,-0.164852411
8.641803122,-0.567697167,3.204587698,10.69172955,0.046042614,-0.217614338,-0.149428517
8.661913174,-0.591625392,3.350549936,11.0811615,0.012904149,-0.300842285,-0.099949881
8.682023174,-0.13519448,3.062813044,11.90190029,-0.046958882,-0.339325666,-0.030466007
8.702133226,0.485742986,3.286541939,13.09292698,0.052456509,-0.202190444,-0.024662958
8.722243278,0.636490822,3.8213377,12.81117249,0.211887643,-0.160041988,-0.115373775
8.74235333,0.473778874,4.05224514,11.51067352,0.1828724,-0.356123954,-0.173404262
8.762463382,1.350150228,3.805186272,10.67617607,-0.133393765,-0.5392254,-0.25815931
8.782573382,2.623729944,3.211766243,11.60339546,-0.535331249,-0.36467582,-0.475010097
8.802683434,2.594418049,2.868994236,13.40100288,-0.642534971,0.124612838,-0.710873485
8.822793486,1.368694544,2.74396944,13.99980736,-0.433014363,0.418735802,-0.832279384
8.842903538,0.13519448,2.395813704,12.91466236,-0.17477867,0.331537336,-0.766002476
8.863013591,-0.4444668,2.171486616,11.69312572,-0.004504999,0.047646087,-0.597943127
8.883123591,-0.394815743,2.133799553,10.85025406,0.114152081,-0.114992,-0.436068595
8.903233643,-0.229112774,2.090130568,9.946365356,0.140571222,-0.122627586,-0.322909147
8.923343695,-0.130408838,1.886740685,9.497711182,0.110028863,-0.109036237,-0.210055098
8.943453747,-0.011365907,1.769492388,9.470193863,0.173404262,-0.116977252,-0.10575293
8.963563747,0.177667081,1.80658114,9.064012527,0.322450995,-0.173022479,-0.040850412
8.983673799,0.513260484,1.744965911,8.23370266,0.461876869,-0.195318416,-0.033367533
9.003783851,0.616750062,1.749153376,7.205985546,0.538080096,-0.159889266,-0.053220067
9.023893903,0.500698149,1.901695848,6.183651924,0.531055331,-0.11942064,-0.078875653
9.044003955,0.267996132,2.072782516,5.5154562,0.434999615,-0.084296919,-0.093383275
9.064113955,0.043070808,2.204986095,5.47597456,0.328254044,-0.071927264,-0.080097348
9.084224007,-0.095114701,2.267797709,5.969494343,0.277401,-0.08490777,-0.042224817
9.104334059,0.011365907,2.354537487,6.526423931,0.310386777,-0.072232686,-0.016874656
9.124444111,0.132203445,2.573480844,6.552744865,0.315884382,-0.087045737,-0.028022617
9.144554163,0.119042926,2.793620348,6.480361938,0.214331031,-0.121558607,-0.053067356
9.164664163,0.092721879,3.016751051,6.905087948,0.079181075,-0.120031484,-0.068338536
9.184774216,0.160917327,3.195016384,7.44048214,-0.03397838,-0.098193698,-0.082998872
9.204884268,0.139980122,3.242872953,7.92742157,-0.132477492,-0.07345438,-0.082235314
9.22499432,0.177068874,3.230310678,8.384450912,-0.217385262,-0.062459134,-0.066047862
9.24510432,0.340977222,3.150151014,8.77448082,-0.308248788,-0.047646087,-0.046500746
9.265214372,0.4869394,3.134597778,9.34815979,-0.373762161,-0.020463383,-0.021150587
9.285324424,0.653838813,3.196810961,10.03549862,-0.379259795,0.022601349,0.004046863
9.305434476,0.763908625,3.351746321,10.62592697,-0.28625831,0.098499119,0.016569233
9.325544528,0.781854808,3.421138287,10.76351452,-0.130644962,0.092543356,0.025731942
9.345654528,0.831505895,3.360719442,10.64028454,0.070018366,0.084144212,0.028328042
9.36576458,0.605982363,3.567698479,9.633503914,0.214941874,0.133164704,0.026037365
9.385874632,0.362512618,3.739383698,8.650053978,0.19875443,0.103233188,0.025884653
9.405984684,0.316450805,3.883551121,8.308478355,0.11888615,0.070552856,-0.003588728
9.426094684,0.513260484,3.969692707,8.702097893,0.041919392,0.051463883,-0.044210069
9.446204736,0.713659346,3.923630953,9.417551994,0.009544488,0.088572852,-0.09964446
9.466314788,0.701695263,3.829712629,10.06839943,0.020387027,0.108578101,-0.143472746
9.486424841,0.404985219,3.869194269,10.4596262,0.039628714,0.056045234,-0.159354776
9.506534841,0.116051897,3.895515203,10.90050316,0.056121591,0.050853033,-0.135837153
9.526644893,-0.338584393,4.094119549,11.1631155,0.111250557,0.102164201,-0.075974129
9.546754945,-0.735792935,4.384847641,10.63131142,0.077501245,0.13026318,0.013362284
9.566864997,-0.750748098,4.360321045,10.12403297,-0.148664951,0.128430635,0.08376243
9.586975049,-0.458225548,4.054039955,10.81137085,-0.406442493,0.165234178,0.109876148
9.607085049,-0.250648171,3.533002615,11.90548897,-0.584962606,0.171037227,0.118580721
9.627195101,-0.016151553,2.831905603,13.19342613,-0.645589173,0.169510111,0.156300545
9.647305153,0.142372951,2.458027124,14.17508125,-0.456379265,0.246324152,0.172946125
9.667415205,-0.173479646,2.399402857,13.4345026,-0.135073602,0.3229855,0.183941379
9.687525205,-0.613160789,2.39760828,11.21695423,0.009086353,0.256403148,0.219523236
9.707635257,-0.896710277,2.381456852,9.653842926,-0.036574479,0.118504368,0.264115095
9.727745309,-1.017547846,2.337189436,9.321240425,-0.109265305,0.008093726,0.310692191
9.747855361,-0.989432156,2.203191519,9.547362328,-0.124689199,-0.084602349,0.356200308
9.767965361,-0.681356251,1.829911113,9.873384476,-0.100255303,-0.133928254,0.397890627
9.788075413,-0.27577281,1.510469317,10.16231823,-0.02893889,-0.070858285,0.429349273
9.808185466,-0.084346995,1.530210137,9.887741089,0.08376243,0.038636088,0.436984867
9.828295518,-0.057427742,1.695314884,9.000003815,0.162103593,0.085365906,0.425531477
9.848405518,0.033499517,1.791027784,8.147561073,0.19508934,0.05314371,0.390865892
9.86851557,0.097507522,1.79820621,7.388438225,0.136295289,0.011147963,0.346274048
9.888625622,0.153140649,1.823330879,7.142575741,0.030771431,0.043217443,0.304736435
9.908735674,0.123828575,1.865205288,7.371089935,-0.021608721,0.098804541,0.270834416
9.928845674,0.038285162,1.921436548,7.612166882,0.021303298,0.090558104,0.26075542
9.948955726,0.07537391,2.027318954,7.492526054,0.076279551,0.025502874,0.249760166
9.969065778,0.231505588,2.18644166,7.253243446,0.083457008,-0.011453386,0.213872895
9.98917583,0.289531529,2.364108801,7.161119938,0.038712446,-0.001985254,0.159354776
10.00928583,0.175274253,2.540579557,7.294519901,-0.010155336,0.011453386,0.108501747
10.02939588,0.031704899,2.658426046,7.557132244,-0.06192464,-0.018783553,0.079944633
10.04950593,0.151346028,2.631506681,8.036294937,-0.084067851,-0.03451287,0.04924956
10.06961599,0.24047868,2.638087034,8.38564682,-0.101935133,-0.015576605,0.003130592
10.08972599,0.119042926,2.734996319,8.754739761,-0.114457503,0.037108973,-0.019470757
10.10983604,-0.034695927,2.930011272,9.050253868,-0.100408018,0.034665581,-0.034436513
10.12994609,-0.047258247,3.041277647,9.1423769,-0.105142087,0.003970507,-0.057954133
10.15005614,-0.159122706,3.037688255,9.268000603,-0.149733931,-0.052380152,-0.065437011
10.17016614,-0.257826626,3.047259569,9.629914284,-0.192493245,-0.102775052,-0.056427017
10.1902762,-0.48394838,3.267399311,9.907482147,-0.213872895,-0.158056721,-0.043904647
10.21038625,-0.555134833,3.21954298,10.0839529,-0.27113983,-0.223875523,0.006032117
10.2304963,-0.110069841,2.63389945,10.77607632,-0.27846998,-0.213491112,0.071850911
10.2506063,0.2434697,2.333600283,11.69432259,-0.159965619,-0.129346907,0.140723944
10.27071635,0.326022089,2.773281336,12.06640625,0.079181075,-0.100331664,0.161034614
10.2908264,0.221934304,3.362514019,11.09910774,0.208833411,-0.203106716,0.13308835
10.31093646,0.471386075,3.393022537,10.20778179,0.083151586,-0.290915996,0.071392775
10.33104646,0.802792013,3.355335474,10.3094759,-0.151566476,-0.208604336,-0.042530239
10.35115651,0.702293456,3.249453068,11.08415222,-0.359559953,-0.093459629,-0.155384272
10.37126656,0.541376114,2.754138947,12.2356987,-0.44049722,-0.116213694,-0.191118836
10.39137661,0.872782052,2.252842426,13.29272842,-0.416826904,-0.194554851,-0.186842904
10.41148661,1.466202021,1.901097536,13.97886944,-0.296031863,-0.12048962,-0.228227809
10.43159666,1.529013634,1.703689694,13.89392471,-0.090329036,0.071010992,-0.293741167
10.45170672,1.103689432,1.768295884,12.59043407,0.098728187,0.170120955,-0.320465744
10.47181677,0.903888762,1.887338877,11.1128664,0.185926631,0.150726557,-0.332224548
10.49192677,0.802792013,1.89391911,9.980463028,0.185010359,0.066735066,-0.352840662
10.51203682,0.749551714,1.792822361,9.288937569,0.053983625,-0.014965758,-0.366126567
10.53214687,0.868594647,1.58703959,9.756135941,-0.055358034,0.006261184,-0.371776909
10.55225692,0.893719256,1.427318692,10.42134094,0.015347538,0.112090468,-0.376816392
10.57236692,0.574277461,1.417149186,10.14317513,0.160576478,0.150268421,-0.3482593
10.59247698,0.369092882,1.425524116,9.32303524,0.263962358,0.06123744,-0.289465249
10.61258703,0.384048045,1.503889084,8.557332039,0.323519975,-0.050547611,-0.24640052
10.63269708,0.407378048,1.683948994,7.858029366,0.337722182,-0.07711947,-0.221355781
10.65280708,0.387637258,1.812563181,7.240083218,0.328254044,-0.038177952,-0.182719693
10.67291713,0.582054079,1.847259045,6.555736065,0.261366278,-0.005803049,-0.163172573
10.69302718,0.707079113,1.992024899,6.191428661,0.135684446,0.00335966,-0.174167827
10.71313718,0.843469977,2.182852507,6.483353138,0.039170582,0.009468133,-0.227616966
10.73324724,0.817148924,2.382055044,7.000202656,0.026648212,0.006872032,-0.317716926
10.75335729,0.446261436,2.439482689,7.393822193,0.057037864,-0.028404398,-0.376052856
10.77346734,0.002991028,2.425125837,7.555337429,0.074905142,-0.0865876,-0.370402515
10.79357734,-0.273379982,2.513062,7.755736351,0.058106847,-0.115908265,-0.322450995
10.81368739,-0.224327117,2.538784742,8.040482521,0.016263809,-0.092543356,-0.26854372
10.83379744,-0.017347964,2.608176708,8.444869041,-0.003588728,0.003665084,-0.246095091
10.8539075,-0.059820566,2.832503796,8.629714966,0.021761434,0.071927264,-0.247774914
10.8740175,-0.2434697,2.937189817,8.569295883,0.045431767,0.016034741,-0.229907632
10.89412755,-0.224925324,2.982055187,8.656634331,0.06024481,-0.04550812,-0.187911883
10.9142376,-0.125623182,3.203989506,8.717651367,0.057343286,-0.010231691,-0.163630709
10.9343476,-0.230309174,3.49471736,8.565707207,0.026800923,0.022448637,-0.147290543
10.95445765,-0.157328084,3.610769272,8.374878883,-0.070629217,-0.029473381,-0.14637427
10.9745677,0.077766739,3.515056372,8.702695847,-0.177680194,-0.051005747,-0.166379526
10.99467776,0.187836573,3.282952785,9.271589279,-0.247927636,0.003512372,-0.194783926
11.01478776,-0.007178468,3.083750248,9.904491425,-0.24487339,0.07070557,-0.181650698
11.03489781,-0.350548506,3.103491068,10.42552853,-0.17584765,0.086282179,-0.113693945
11.05500786,-0.588634372,3.363112211,10.70189953,-0.085747682,0.01007898,-0.010918895
11.07511791,-0.357726991,3.478565931,10.86401272,-0.053525493,-0.05635066,0.077043109
11.09522791,-0.011365907,3.669393539,11.09850979,-0.078875653,-0.017409148,0.109112591
11.11533797,0.085543409,3.949951887,11.41615677,-0.172946125,0.083075225,0.093994118
11.13544802,0.022133609,3.868596077,12.06102276,-0.231740177,0.142632842,0.068949386
11.15555802,-0.214755833,3.640679598,12.49173069,-0.236321539,0.119573347,0.070323788
11.17566807,-0.403788835,3.43011117,12.56770229,-0.269001871,0.057419643,0.092467003
11.19577812,-0.366700083,2.969492912,12.78245831,-0.374220312,-0.018172706,0.13049224
11.21588817,-0.096909314,2.365903378,13.61695576,-0.435915887,-0.042606596,0.185010359
11.23599817,0.142372951,1.828116536,14.48674679,-0.301224053,0.061695572,0.244109839
11.25610823,0.16749759,1.445863128,14.31805229,0.041766681,0.215018243,0.297864407
11.27621828,-0.187238365,1.439880967,12.44806194,0.38628453,0.251363635,0.359101832
11.29632833,-0.604785919,1.808973908,10.14616585,0.566637218,0.065055236,0.412550956
11.31643833,-0.733998358,2.059622049,8.314460754,0.486921608,-0.204481125,0.453935862
11.33654838,-0.320040017,2.062014818,7.71864748,0.214941874,-0.308936,0.46080789
11.35665843,0.337986201,1.856232166,8.625527382,0.021303298,-0.118351653,0.398959607
11.37676843,0.370887518,1.701895118,9.34457016,0.055052608,0.14171657,0.310997605
11.39687849,-0.160917327,1.664806366,8.839086533,0.151108339,0.173938751,0.2836622
11.41698854,-0.474377096,1.643270969,8.135597229,0.207153574,0.015729317,0.309623212
11.43709859,-0.393619329,1.569093466,7.852645874,0.249912888,-0.109341659,0.347037613
11.45720859,-0.133998066,1.607976794,7.606184959,0.268238306,-0.078188449,0.373456746
11.47731864,0.160917327,1.75334084,7.353144169,0.259075582,-0.003512372,0.364904881
11.4974287,0.418743968,1.901695848,7.200601578,0.241361022,0.025502874,0.319396764
11.5175387,0.62751776,2.067398787,7.147959232,0.227464244,0.012980504,0.234794408
11.53764875,0.608973384,2.219342947,7.198208809,0.208833411,-0.005955761,0.145763427
11.5577588,0.449850649,2.357528448,7.297510624,0.194173068,-0.016187452,0.079028361
11.57786885,0.272781789,2.502892494,7.435696602,0.165005118,-0.016951011,0.032603972
11.59797885,0.214755833,2.517847538,7.744968891,0.131408513,0.004428643,0.001603474
11.6180889,0.07537391,2.570489645,8.150551796,0.148512244,0.068109468,-0.004352287
11.63819896,-0.229710966,2.931207657,8.030312538,0.178749174,0.100942507,0.014736691
11.65830896,-0.404985219,3.381656647,7.544569969,0.10575293,0.041537613,0.033214819
11.67841901,-0.147158593,3.576073408,7.638488293,-0.046348035,-0.028862532,0.003130592
11.69852906,0.235693038,3.445066452,8.454441071,-0.194478497,-0.011606098,-0.071392775
11.71863911,0.276371002,3.265604734,9.602396965,-0.282745928,0.074370652,-0.128201574
11.73874911,-0.034695927,3.254238844,10.75394344,-0.216316283,0.119726062,-0.135073602
11.75885916,-0.440877587,3.293122053,11.04227829,-0.03840702,0.063833542,-0.081624463
11.77896922,-0.552143812,3.267997503,10.26461124,0.042530239,-0.069178455,0.022983128
11.79907927,0.233898416,2.980260611,9.626923561,-0.104683951,-0.197303668,0.080860905
11.81918927,1.384846091,2.770290375,10.47458076,-0.293741167,-0.116824538,-0.000534491
11.83929932,1.701296926,2.94317174,11.51605701,-0.306874394,0.114381149,-0.205779165
11.85940937,0.694516778,3.189034462,11.57348537,-0.262740672,0.167982996,-0.355742186
11.87951937,-0.344566464,3.173480988,11.22173977,-0.321992874,-0.019241689,-0.351771653
11.89962942,-0.566500783,2.916252613,11.87378407,-0.452866882,-0.264802277,-0.250218302
11.91973948,0.107078813,2.458027124,13.41536045,-0.476537228,-0.271674305,-0.164699689
11.93984948,0.575473845,2.362314224,14.3569355,-0.339554727,-0.174855024,-0.149275795
11.95995953,0.669990361,2.391027927,13.96271801,-0.183483243,-0.136677072,-0.161645457
11.98006958,0.604785919,2.284547329,12.89432335,-0.153857157,-0.139884025,-0.142098337
12.00017963,0.935593665,2.048854351,12.37029457,-0.184552223,-0.080784552,-0.122856654
12.02028963,1.175474167,1.90229404,12.3547411,-0.116595469,0.096666582,-0.141640201
12.04039968,0.869192839,1.964507341,11.6021986,0.050623968,0.190584347,-0.167906642
12.06050974,0.491126835,1.953739643,10.36690426,0.165005118,0.093765058,-0.154773429
12.08061974,0.470787853,1.764706731,9.493523598,0.254341513,-0.068567604,-0.120718688
12.10072979,0.544965386,1.624726534,8.753543854,0.310997605,-0.153475374,-0.083151586
12.12083984,0.676570594,1.606182218,8.062017441,0.338638455,-0.092543356,-0.05092939
12.14094989,0.872782052,1.660020709,7.263412952,0.319549471,-0.031916771,-0.062382776
12.16105989,1.006181955,1.689931035,6.696912289,0.257853895,0.04214846,-0.105447508
12.18116994,0.885344386,1.823330879,6.321837425,0.23494713,0.109799795,-0.170502737
12.20128,0.485742986,1.968694806,5.811567783,0.193867654,0.12552911,-0.218301535
12.22139,0.097507522,1.982453585,5.502893925,0.106363781,0.090252683,-0.228838652
12.24150005,-0.214157626,1.99501586,5.783452511,0.02817533,0.031611346,-0.189133585
12.2616101,-0.329611331,2.134397745,6.377470493,0.01809635,0.024128467,-0.1260636
12.28172015,-0.237487644,2.416750908,6.84945488,0.050013117,0.061542861,-0.073530741
12.30183015,-0.050249275,2.745764017,6.941578388,0.063146338,0.016951011,-0.072461754
12.3219402,-0.031704899,3.029313564,7.073183537,-0.016721943,-0.120336913,-0.094146833
12.34205026,0.109471634,3.156731367,7.683353424,-0.150955632,-0.206466377,-0.11552649
12.36216026,0.265005112,3.187838078,8.57228756,-0.279080838,-0.17531316,-0.147137836
12.38227031,0.412761897,3.083152056,9.567103386,-0.341539979,-0.020616096,-0.169281051
12.40238036,0.448654234,2.868994236,10.2347002,-0.308401495,0.14248012,-0.180429012
12.42249036,0.237487644,2.726621389,10.33160973,-0.225173578,0.20371756,-0.155689701
12.44260041,-0.003589234,2.746362209,10.07737255,-0.135684446,0.181116208,-0.092008866
12.46271047,-0.044865426,2.852244616,9.718449593,-0.072461754,0.114992,-0.026800923
12.48282052,0.171086818,2.876172781,9.611968994,-0.042377528,0.084296919,0.012140589
12.50293052,0.349352092,2.941377163,9.748957634,-0.026190076,0.089947261,0.010155336
12.52304057,0.258424848,3.05324173,9.721440315,-0.117817164,0.131790295,0.01046076
12.54315062,0.083748795,2.995215654,9.855438232,-0.459128082,0.241437376,0.058717694
12.56326062,0.097507522,3.010170937,11.64766216,-0.763329983,0.390636832,0.138280556
12.58337067,0.049052864,3.236292601,14.3946228,-0.574425519,0.350015491,0.121329539
12.60348073,-0.195015043,3.178864956,15.72503185,0.023593975,0.009620844,0.058412269
12.62359073,-0.383449823,2.940778971,14.76730537,0.530444503,-0.298246175,0.012751437
12.64370078,-0.631106973,2.809772015,12.87458229,0.633601308,-0.487150699,0.027564483
12.66381083,-0.498903513,2.576471806,11.72483063,0.412550956,-0.494633555,0.083915144
12.68392088,0.174077854,2.160120726,12.02632618,0.13858597,-0.310615838,0.119191572
12.70403088,0.702891648,1.69950223,12.65085316,0.075515993,0.098804541,0.108959884
12.72414093,0.320040017,1.732403636,12.02154064,0.21097137,0.38605547,0.077043109
12.74425099,-0.42771706,2.052443504,10.47517967,0.362919629,0.356887519,0.066353284
12.76436099,-0.864407182,2.150549412,8.821739197,0.423546225,0.131637588,0.066047862
12.78447104,-1.175474167,2.088335991,7.493124008,0.242888138,-0.19562383,0.100102596
12.80458109,-0.88354975,1.805384636,7.582854748,-0.057496,-0.325276166,0.158438504
12.82469109,-0.291326165,1.447657704,8.979066849,-0.214941874,-0.156987742,0.172946125
12.84480114,-0.069990061,1.150349498,10.00618649,-0.155842409,0.101553358,0.170808166
12.8649112,-0.355932355,1.111466169,9.924231529,0.041308545,0.229373142,0.209749684
12.8850212,-0.66400826,1.421934843,8.790034294,0.214941874,0.18676655,0.256937623
12.90513125,-0.710668325,1.687538147,7.679764271,0.266863883,0.061695572,0.283814907
12.9252413,-0.588634372,1.78684032,6.899106026,0.193562225,-0.000152712,0.285036594
12.9453513,-0.396610349,1.864008784,6.674180508,0.038712446,0.052532863,0.266253054
12.96546135,-0.296111792,1.996810555,7.169494629,-0.042682953,0.130110472,0.22013408
12.9855714,-0.417547554,2.082952023,7.561319351,-0.032756682,0.132401139,0.194020361
13.00568146,-0.424127817,2.133201361,7.738388538,0.005268557,0.060321167,0.210055098
13.02579146,-0.18005991,2.239083767,7.804191113,0.039628714,0.0219905,0.217079848
13.04590151,0.047258247,2.450250387,7.788637638,0.057496,-0.007482879,0.193867654
13.06601156,0.050249275,2.684746981,7.790432453,0.034131091,-0.092848785,0.161340028
13.08612156,0.102891371,2.827718258,8.115856171,0.019012621,-0.207229927,0.143472746
13.10623161,0.305084884,2.932404041,8.288737297,-0.004963134,-0.235634327,0.108807169
13.12634166,0.417547554,2.952743053,8.163114548,-0.124841906,-0.130110472,0.081166327
13.14645166,0.511465848,2.87856555,8.140980721,-0.326116085,0.098651834,0.062840909
13.16656172,0.51505506,2.785843849,8.420941353,-0.552434981,0.417208672,0.049554985
13.18667177,0.493519664,2.717648268,8.962317467,-0.71553123,0.757374227,0.033672955
13.20678182,0.311066955,2.840878725,10.01156998,-0.634899378,0.651544929,-0.03229855
13.22689182,-0.037088752,2.91804719,10.86161995,-0.340471,0.095292173,-0.105142087
13.24700187,-0.214755833,2.895315409,11.04227829,-0.050471254,-0.419652075,-0.161798164
13.26711192,-0.400797784,2.851048231,10.76231766,0.033062108,-0.539836288,-0.187453747
13.28722192,-0.598205686,2.705085993,10.80838013,-0.050776679,-0.34329617,-0.159660205
13.30733198,-0.860817969,2.621337175,11.43649578,-0.095826663,-0.11331217,-0.05260922
13.32744203,-0.89192462,2.714657307,11.95992565,-0.032451261,-0.109799795,0.074294299
13.34755203,-0.372083932,2.821736097,11.93539906,0.059023116,-0.21517095,0.1182753
13.36766208,0.203988135,2.842673302,11.27139091,-0.019928891,-0.125987247,0.047722444
13.38777213,0.228514567,2.748754978,11.15414238,-0.207764417,0.079868279,-0.042988375
13.40788213,-0.041874398,2.549552441,11.68235874,-0.29618457,0.112090468,-0.076890402
13.42799218,-0.138185501,2.458625317,12.17288685,-0.252050847,-0.055434387,-0.073378026
13.44810224,0.321236432,2.316252232,12.29133129,-0.19172968,-0.318251431,-0.104683951
13.46821224,1.171286702,1.990828395,12.47139168,-0.184399515,-0.406518847,-0.227616966
13.48832229,1.481755376,1.680359721,12.56710434,-0.150497496,-0.167830288,-0.384757429
13.50843234,0.904486954,1.520638824,11.96889877,-0.045126341,0.176687568,-0.454394013
13.52854234,0.183649138,1.652842283,10.77069283,0.100560732,0.335049719,-0.435152322
13.54865239,-0.196809664,1.707278967,9.21117115,0.162409008,0.164623335,-0.376358271
13.56876244,-0.001196411,1.40697968,8.103293419,-0.032145835,-0.166761309,-0.338638455
13.58887245,0.415752947,1.145563841,9.159725189,-0.179512739,-0.184628591,-0.330239296
13.6089825,0.326620281,1.10010016,10.46441174,0.017638214,0.065513365,-0.33314082
13.62909255,-0.324227482,1.071984529,9.69452095,0.296031863,0.189057231,-0.248080343
13.64920255,-0.617348254,1.216750264,8.076375008,0.412245542,0.095444888,-0.098575473
13.6693126,-0.361316234,1.497906923,7.047461033,0.392851144,-0.072079979,-0.008780929
13.68942265,0.19262223,1.569093466,6.766304016,0.252661705,-0.148894012,0.001145339
13.70953265,0.815354288,1.506880045,7.547560692,0.173709691,-0.032680329,-0.057801422
13.72964271,0.617946446,1.655833244,8.257631302,0.286716431,0.105065726,-0.12530005
13.74975276,0.074775711,1.737787485,7.736593723,0.429196566,0.091627091,-0.122245811
13.76986276,-0.114257284,1.823330879,6.769295216,0.413314521,-0.001068983,-0.098728187
13.78997281,-0.162711933,2.00638175,6.302096844,0.261977106,-0.081853531,-0.082082599
13.81008286,0.055633128,2.158325911,6.646663189,0.05856498,-0.060626589,-0.084067851
13.83019291,0.241675094,2.297109842,7.500302792,-0.060550235,0.089030989,-0.119344287
13.85030291,0.055633128,2.478964329,8.068597794,-0.092467003,0.209978744,-0.137669697
13.87041297,-0.19561325,2.629712105,8.138587952,-0.120260552,0.158820286,-0.110945135
13.89052302,-0.166899383,2.71286273,8.346763611,-0.169891894,0.015882028,-0.063146338
13.91063302,0.050249275,2.734398127,9.078967094,-0.16699037,-0.111785047,-0.018249061
13.93074307,0.31525439,2.907279491,9.830911636,-0.072309047,-0.207382649,-0.004810422
13.95085312,0.570089996,3.147160053,9.936794281,0.01305686,-0.177145705,-0.02741177
13.97096312,0.785444021,3.242274761,9.634101868,-0.030160584,-0.067956761,-0.085136838
13.99107317,0.741176844,3.201596737,9.817152977,-0.136753425,0.010537115,-0.145152584
14.01118323,0.553938448,3.075973511,10.58405304,-0.166379526,0.055739813,-0.162714437
14.03129323,0.495912492,2.946761131,11.32343483,-0.086205818,0.071163706,-0.168364778
14.05140328,0.387637258,2.868396044,11.71167088,0.039781429,0.077577598,-0.170808166
14.07151333,0.089132644,2.934797049,11.83789158,0.172946125,0.070247434,-0.149123088
14.09162333,-0.181256309,3.138186932,11.59262753,0.250218302,-0.014507622,-0.124689199
14.11173338,-0.19262223,3.239881754,11.47179031,0.180581719,-0.152100965,-0.130797669
14.13184343,-0.2434697,3.284747362,12.03111267,0.097811915,-0.18126893,-0.174320534
14.15195343,-0.604187727,3.242274761,12.44626713,0.044210069,-0.099568106,-0.188675448
14.17206349,-0.906879783,2.975475073,12.28714466,-0.042072106,0.027640838,-0.14118208
14.19217354,-1.047458172,2.644667149,12.0729866,-0.170197323,0.096055731,-0.053525493
14.21228354,-0.645463884,2.097309113,12.35952759,-0.281676948,0.082769804,0.031687703
14.23239359,-0.114257284,1.600798368,13.17069435,-0.246705934,0.146603346,0.047264308
14.25250364,-0.491126835,1.487139225,13.36092377,-0.003130592,0.251363635,0.063146338
14.27261364,-1.288534999,1.545165181,12.14297676,0.274346769,0.189362645,0.148817658
14.2927237,-1.776670814,1.775474429,10.49850941,0.424462497,0.04214846,0.274041355
14.31283375,-1.987239242,2.139781713,8.979066849,0.407511473,-0.13438639,0.393156558
14.33294375,-1.630708575,2.097907305,7.889734268,0.166532233,-0.23105298,0.454088569
14.3530538,-0.948754191,1.749153376,8.168498039,-0.110181578,-0.103691325,0.454241306
14.37316385,-0.781256616,1.563111424,9.147761345,-0.180276305,0.129652336,0.424462497
14.39327385,-1.171286702,1.487737536,9.31525898,-0.060550235,0.228151456,0.457600951
14.4133839,-1.316650629,1.484746456,8.747561455,0.110945135,0.175465882,0.555794656
14.43349396,-1.155135155,1.675574064,7.814958572,0.245178819,0.076661333,0.65459919
14.45360396,-0.79082787,1.900499344,6.885347366,0.255715936,-0.000916271,0.715225756
14.47371401,-0.205184549,1.968694806,6.415755749,0.125758186,-0.005192202,0.726373732
14.49382406,0.472582459,2.035095692,6.996613503,0.022677705,0.116366401,0.675215304
14.51393406,0.77108711,2.204986095,7.840083599,0.103920393,0.257166684,0.570760429
14.53404411,0.614357233,2.355135679,7.756932735,0.253119826,0.271063477,0.466916382
14.55415411,0.337986201,2.517847538,7.185646534,0.333446235,0.145534366,0.399875879
14.57426416,0.290727943,2.70149684,6.908079147,0.325810671,-0.014202199,0.337874889
14.59437422,0.415154725,2.86480689,7.104888439,0.256784916,-0.09101624,0.259228319
14.61448427,0.555134833,2.928814888,7.691728592,0.200892389,-0.050242186,0.176916644
14.63459427,0.550349236,3.05862546,8.111070633,0.15813309,0.029778805,0.092161581
14.65470432,0.420538575,3.26141715,8.305487633,0.085594974,0.113159455,0.01641652
14.67481437,0.184247345,3.460619688,8.496315002,-0.00038178,0.14614521,-0.040544987
14.69492437,-0.023330022,3.637688637,8.807980537,-0.086511239,0.096055731,-0.080555484
14.71503442,-0.055633128,3.631108284,9.276973724,-0.170044601,0.003970507,-0.11888615
14.73514442,0.003589234,3.474976778,10.01156998,-0.24640052,-0.07009472,-0.144999862
14.75525448,0.149551421,3.169293642,11.04108143,-0.267474741,-0.08933641,-0.146068856
14.77536453,0.270388961,2.854637384,12.11127186,-0.163019866,-0.037414394,-0.10132429
14.79547453,0.223130718,3.01376009,12.45763302,0.052151084,-0.037872531,-0.034283802
14.81558458,0.496510685,3.296711445,11.57707405,0.106058352,-0.160958245,-0.021761434
14.83569463,0.939182878,3.477967739,11.0943222,-0.017790927,-0.173022479,-0.097353779
14.85580463,0.865005374,3.764508247,11.17687416,-0.178901896,-0.178978249,-0.229449496
14.87591468,0.531206608,3.702893019,11.50110245,-0.323825389,-0.315655321,-0.306263536
14.89602474,0.719641388,3.124428272,11.98445225,-0.499138564,-0.487914234,-0.314357281
14.91613474,1.567298889,2.424527645,13.14257812,-0.662692905,-0.390789539,-0.346732169
14.93624479,1.828116536,2.078764677,14.29591846,-0.604204297,-0.041690327,-0.422477245
14.95635484,1.048056364,2.112264156,14.12124252,-0.317716926,0.201579601,-0.453172296
14.97646484,0.196211457,2.169093609,12.33978653,-0.062230065,0.169510111,-0.378954381
14.99657489,0.171086818,2.067996979,10.861022,0.111555979,-0.045355409,-0.293893874
15.01668495,0.36849469,2.00638175,9.57906723,0.173251554,-0.277935505,-0.267474741
15.03679494,0.597607434,1.797009826,8.929415703,0.046653461,-0.356887519,-0.244567975
15.056905,0.882951558,1.641476393,9.326025963,-0.046653461,-0.12995775,-0.232961878
15.07701505,0.760319412,1.669592023,9.457033157,0.011071607,0.115450129,-0.228533238
15.09712505,0.588634372,1.647458434,8.853444099,0.145763427,0.214865521,-0.199212566
15.1172351,0.482751966,1.667797327,7.901698589,0.300155073,0.178978249,-0.167906642
15.13734515,0.425922424,1.774278045,6.867999077,0.366432011,0.005803049,-0.14561072
15.15745515,0.675972402,1.790429592,6.249454498,0.30397287,-0.09910997,-0.146832407
15.1775652,0.937986493,1.880758643,6.468996048,0.238306791,-0.012064233,-0.197227314
15.19767526,0.86380899,2.002792597,6.875775814,0.27113983,0.128583342,-0.259839147
15.21778526,0.442073971,2.111067772,6.718447685,0.358949125,0.151490122,-0.276179314
15.23789531,0.056829538,2.280958176,6.245266914,0.386742681,0.022143213,-0.240292043
15.25800536,0.056829538,2.498705149,6.015556335,0.312219292,-0.120947756,-0.20761171
15.27811536,0.388833672,2.697309256,6.360122681,0.198143587,-0.15393351,-0.228838652
15.29822541,0.540777922,2.810370207,6.851249218,0.053830914,-0.08597675,-0.298322529
15.31833541,0.327218503,2.877967358,7.505686283,-0.075515993,0.029015245,-0.336195052
15.33844547,0.125623182,2.921038151,8.170890808,-0.170197323,0.081853531,-0.336500496
15.35855552,-0.136989102,3.064009428,8.754739761,-0.194020361,0.125070974,-0.300613195
15.37866552,-0.299102843,3.222533941,8.837292671,-0.213720188,0.138509616,-0.250065595
15.39877557,-0.197407872,3.296113253,8.921639442,-0.261366278,0.174091473,-0.210513234
15.41888562,-0.161515534,3.425325632,9.192028046,-0.262129843,0.204022989,-0.193409517
15.43899562,-0.344566464,3.591626883,9.436096191,-0.237543225,0.140494868,-0.159354776
15.45910567,-0.326022089,3.616751432,9.787840843,-0.208069846,0.050089475,-0.109112591
15.47921573,-0.190827608,3.560520172,10.28734303,-0.170197323,-0.004428643,-0.067116842
15.49932573,-0.031106694,3.442673683,10.86161995,-0.13858597,0.044286426,-0.025884653
15.51943578,0.036490545,3.396013498,11.37488079,-0.117511742,0.271063477,0.003588728
15.53954583,-0.207577363,3.649054527,11.71406364,-0.090481751,0.457371891,0.020845164
15.55965583,-0.680159807,3.972085476,12.03948689,0.011835165,0.233801782,0.033672955
15.57976588,-0.82731843,4.061218262,12.37866974,0.17844376,-0.3672719,0.023593975
15.59987593,-0.474377096,3.863212109,12.48215961,0.219981372,-0.749356866,-0.013820419
15.61998593,-0.096311115,3.418745279,12.46481133,0.031229567,-0.69392246,-0.058412269
15.64009599,0.0526421,2.750549555,13.05942822,-0.31909135,-0.306645334,-0.031840414
15.66020604,0.077766739,2.018944025,14.66561031,-0.430876374,0.168135703,0.057496
15.68031604,-0.242273286,1.701296926,15.2973156,-0.103614964,0.374449372,0.15782766
15.70042609,-0.519242525,1.683948994,13.57328606,0.363072336,0.20707722,0.227464244
15.72053614,-0.570089996,1.66600275,10.9932251,0.601760924,-0.221279413,0.241513729
15.74064614,-0.522233546,1.703689694,9.037093163,0.438206554,-0.499367625,0.227616966
15.7607562,-0.282951266,1.648654819,8.979664803,0.128965125,-0.304201931,0.196921885
15.7808662,-0.197407872,1.435693622,9.506086349,-0.05581617,0.105371155,0.131713942
15.80097625,-0.393021107,1.017547846,9.540184021,-0.159354776,0.309852272,0.106974624
15.8210863,-0.3912265,0.525822759,9.620942116,-0.236932382,0.423622578,0.129270554
15.8411963,-0.431904495,0.339182615,10.21316528,-0.111861408,0.487456113,0.16332528
15.86130635,-0.720239639,0.524626374,10.30110168,0.262435257,0.389109701,0.201045111
15.8814164,-0.979860902,0.721436024,8.968298912,0.607411265,0.196387395,0.270987123
15.9015264,-0.947557747,0.933200836,7.204190731,0.669794023,0.076355904,0.350244552
15.92163646,-0.586241543,1.27477622,6.141179085,0.510591924,0.145687074,0.36856997
15.94174651,-0.222532511,1.518245935,6.022734642,0.285800159,0.299620569,0.311913878
15.96185651,-0.211764798,1.612164259,6.701099873,0.166684941,0.412321895,0.246247798
15.98196656,-0.506680191,1.77846539,7.424330235,0.216010869,0.361774296,0.216621712
16.00207661,-0.757328391,1.897508383,7.70728159,0.324894399,0.18233791,0.237085089
16.02218661,-0.669990361,1.998605132,7.60678339,0.353909642,0.047340661,0.271597952
16.04229666,-0.513858676,2.312663078,7.631309509,0.31283015,0.015118469,0.278317273
16.06240666,-0.412761897,2.663211584,7.662416458,0.236321539,-0.025044737,0.251287282
16.08251672,-0.256630242,2.796013355,7.732406139,0.095979378,-0.088878274,0.20318307
16.10262677,-0.150747821,2.767897606,8.19481945,-0.074599721,-0.115450129,0.159965619
16.12273677,-0.021535404,2.670988321,9.045467377,-0.188217312,-0.068262182,0.132172078
16.14284682,-0.003589234,2.73798728,9.82732296,-0.172640711,0.029473381,0.101935133
16.16295687,-0.166899383,2.823530674,9.945169449,-0.093994118,0.065207943,0.081471756
16.18306687,-0.232702002,2.759522676,9.630513191,-0.03229855,0.033596598,0.087580226
16.20317692,-0.235693038,2.877967358,9.195018768,0.000839915,0.010689827,0.081166327
16.22328698,-0.365503669,3.108874798,8.730812073,-0.008933641,-0.005344913,0.064062603
16.24339698,-0.466600418,3.142972469,8.536395073,-0.081471756,-0.052990999,0.058259558
16.26350703,-0.392422915,3.068794966,9.035896301,-0.128048852,-0.091474377,0.062993623
16.28361703,-0.220139682,3.035893679,9.736394882,-0.081471756,-0.102316916,0.045431767
16.30372708,-0.250049979,3.043072224,9.865608215,-0.023288552,-0.093306921,0.024815669
16.32383713,-0.279362053,2.976671457,9.742975235,-0.028022617,-0.104149461,0.025121093
16.34394713,-0.172881439,2.947359324,10.01396275,-0.031076854,-0.102622338,0.023593975
16.36405718,-0.198006079,3.105285645,10.20598698,0.010155336,-0.089489125,0.009391776
16.38416724,-0.214755833,3.073580742,10.03789139,0.046195325,-0.11942064,0.00465771
16.40427724,-0.055633128,2.955136061,9.795618057,0.053067356,-0.136982501,0.00038178
16.42438729,0.12801601,2.995813847,9.649057388,0.024968382,-0.088725567,-0.030160584
16.44449734,0.134596273,3.00538516,9.600004196,0.018401774,-0.013133216,-0.069712944
16.46460734,-0.122632161,3.020938635,9.337990761,0.031076854,-0.001832542,-0.071392775
16.48471739,-0.33200413,3.115455151,8.967103004,0.037796173,-0.03771982,-0.040544987