Time (s),Acceleration x (m/s^2),Acceleration y (m/s^2),Acceleration z (m/s^2),Gyroscope x (rad/s),Gyroscope y (rad/s),Gyroscope z (rad/s)
8.602320534,0.206380948,4.457230568,8.571090698,0.028633466,-0.013133216,-0.10300412
8.622430638,0.144167557,4.418346882,8.599205971,-0.019318044,0.01007898,-0.093841411
8.642540743,0.011365907,4.399802685,8.80738163,-0.035505496,0.044744562,-0.072309047
8.662650847,-0.020937199,4.413561344,8.857032776,0.002214321,0.044744562,-0.03672719
8.682760951,0.031704899,4.443471432,8.694320679,0.033520244,0.016645588,-0.016263809
8.702871055,0.10049855,4.470390797,8.581260681,0.028786177,0.01343864,-0.007101099
8.722981159,0.090329058,4.48833704,8.640482903,0.011682454,0.03130592,-0.004504999
8.743091263,0.037686955,4.519443989,8.682954788,0.01809635,0.044286426,0.005115846
8.763201368,0.090927258,4.526622295,8.649456024,0.038559735,0.023212196,0.017638214
8.783311472,0.155533478,4.546961308,8.559724808,0.048791423,0.010231691,0.02741177
8.803421576,0.192024022,4.597808838,8.529216766,0.040086851,0.016645588,0.035200074
8.82353168,0.210568398,4.685146809,8.584251404,0.023593975,0.019241689,0.042072106
8.843641784,0.210568398,4.774877548,8.785248756,0.01809635,-0.013285927,0.074752435
8.863751888,0.541974306,4.826921463,9.123234749,0.054594472,-0.072690822,0.132172078
8.883861993,1.006780148,4.911866665,9.303893089,0.153551728,-0.090710819,0.143625468
8.903972097,0.940379322,5.163711071,8.935996056,0.259533733,-0.123543859,0.107585475
8.924082201,0.636490822,5.23429966,8.326424599,0.276942879,-0.153169945,0.079181075
8.944192305,0.331405938,5.145765305,8.111668587,0.19508934,-0.156529605,0.099186324
8.964302409,0.365503669,5.054837704,8.63390255,0.105294794,-0.102775052,0.149428517
8.984412513,0.483350188,4.953142643,9.245866776,0.130186826,-0.036650836,0.179054603
9.004522618,0.577866674,4.912465096,9.436096191,0.230365768,-0.074828789,0.19508934
9.024632722,0.649053156,4.944767952,9.190233231,0.284120321,-0.12216945,0.188828155
9.044742826,0.61615181,5.03689146,9.058628082,0.220439509,-0.091168955,0.174931377
9.06485293,0.533001244,5.193621635,9.287740707,0.119344287,-0.003665084,0.139807671
9.084963034,0.131605253,5.224130154,9.594620705,0.078875653,0.050089475,0.119191572
9.105073138,-0.231505588,5.091328144,9.585049629,0.09689565,0.013896775,0.158438504
9.125183243,-0.268594354,5.374279499,9.050851822,0.039017867,-0.058794048,0.205015615
9.145293347,0.330209523,5.4622159,8.640482903,-0.267169327,-0.124460131,0.189439014
9.165403451,1.057029366,5.158327579,9.727422714,-0.769285739,-0.063986249,0.057648711
9.185513555,1.003190875,4.660022259,11.84566879,-1.139611959,0.203106716,-0.062535487
9.205623659,0.271585375,3.988835335,13.30529022,-1.122813582,0.430189192,-0.072614469
9.225733763,-0.199202478,3.428316593,13.18744373,-0.737674415,0.422859013,0.067574978
9.245843868,0.034097724,3.273979664,11.50828075,-0.360628963,0.253043473,0.193409517
9.265953972,0.171086818,3.420539856,10.11446095,-0.363530487,0.153322667,0.221966624
9.286064076,0.044267219,3.498904943,10.12582684,-0.456684679,0.332148194,0.183941379
9.30617418,-0.583250523,3.442075491,10.22333431,-0.427822143,0.461953253,0.127590716
9.326284284,-0.935593665,3.200998545,10.33220863,-0.362003356,0.355971247,0.17141901
9.346394388,-0.4869394,2.790031195,10.90887833,-0.250981867,0.123391144,0.24304086
9.366504493,0.137587309,2.544168711,11.35573769,-0.072461754,0.056197949,0.257701188
9.386614597,0.290727943,2.48195529,10.72343445,0.132935628,0.21150586,0.218148828
9.406724701,-0.16749759,2.623729944,9.059824944,0.235557973,0.344517857,0.169128329
9.426834805,-0.384646237,2.681157827,7.753343582,0.178901896,0.342379898,0.154468
9.446944909,-0.443868607,2.612364054,7.197012424,0.044668205,0.272590578,0.132935628
9.467055013,-0.500698149,2.569293261,7.43749094,-0.063299045,0.196234688,0.127285302
9.487165118,-0.373280346,2.43708992,7.885547161,-0.068338536,0.171800792,0.134615466
9.507275222,-0.190827608,2.35274291,7.980661869,7.64E-05,0.173175201,0.143167332
9.527385326,-0.093320087,2.397010088,7.6426754,0.061161082,0.18233791,0.144389018
9.54749543,-0.038285162,2.515454769,7.230511665,0.073225312,0.180047229,0.131103098
9.567605534,-0.002392823,2.648854733,6.982854843,0.048027866,0.16645588,0.106058352
9.587715638,0.003589234,2.800798893,6.921837807,0.012140589,0.143701822,0.079486497
9.607825743,-0.089730851,2.967100143,7.037889481,-0.016721943,0.105981998,0.048486002
9.627935847,-0.238085851,3.040081263,7.334001541,-0.02893889,0.034360159,0.038101599
9.648045951,-0.301495642,3.139383316,7.641479015,-0.014278554,-0.005955761,0.053372778
9.668156055,-0.282951266,3.375076294,7.743772507,-0.004199575,-0.029015245,0.054899897
9.688266159,-0.270388961,3.549154282,7.819146156,-0.046195325,-0.061848287,0.030007871
9.708376263,-0.423529595,3.685544968,8.288139343,-0.128201574,-0.120947756,0.020997874
9.728486368,-0.414556533,3.793222189,9.004789352,-0.188522741,-0.160347402,0.035963632
9.748596524,-0.231505588,3.855435371,9.595218658,-0.200281546,-0.136218935,0.046042614
9.768706628,-0.030508488,3.874577999,10.02293587,-0.178138331,-0.083380654,0.028633466
9.788816732,-0.093320087,3.881756544,10.32323551,-0.12530005,-0.092543356,0.018401774
9.808926836,-0.126221389,3.904488325,10.53499985,-0.054747187,-0.152253673,0.032756682
9.82903694,-0.04127619,3.981058598,10.61695385,0.009544488,-0.175465882,0.045584477
9.849147045,-0.179461703,4.149154663,10.62532902,0.033367533,-0.164928764,0.048180576
9.869257149,-0.227318153,4.247260094,10.78804111,0.03397838,-0.195165694,0.0678804
9.889367253,0.079561353,4.160520554,10.96989536,0.0290916,-0.228762299,0.061466504
9.909477357,0.237487644,4.118047714,11.08654594,-0.000687203,-0.197456375,0.030771431
9.929587461,0.049651071,4.110270977,10.91426182,-0.0290916,-0.192416892,-0.020234315
9.949697565,-0.294317186,3.878765583,10.78385353,-0.097659208,-0.389873266,-0.038712446
9.96980767,-0.267996132,3.724428415,11.26720333,-0.23158747,-0.528077483,0.009239065
9.989917774,0.309870541,3.506083488,12.1352005,-0.36078167,-0.507614076,0.05260922
10.01002788,1.277767301,3.211168051,12.8691988,-0.4696652,-0.36360684,0.039017867
10.03013798,2.002792597,3.041875839,13.3525486,-0.504178047,-0.086129464,-0.05581617
10.05024809,1.908276081,2.936591625,13.11266804,-0.356963873,0.245407879,-0.192951381
10.07035819,1.061815023,2.967100143,11.67099285,-0.140723944,0.344059706,-0.274346769
10.09046835,0.763908625,2.881556749,10.32981491,-0.0096972,0.181116208,-0.271292538
10.11057845,0.950548768,2.672184706,9.848259926,-0.047569729,-0.080784552,-0.285647452
10.13068856,1.323230863,2.379662037,10.49372387,-0.067269556,-0.065818794,-0.295726419
10.15079866,1.150349498,2.142174482,10.57866859,0.092314295,0.136371657,-0.319702178
10.17090876,0.720837832,2.120639086,9.531210899,0.328559458,0.218072474,-0.275721192
10.19101887,0.676570594,2.167897224,8.206783295,0.538080096,0.125681818,-0.210818663
10.21112897,0.772283495,2.279761791,6.855436802,0.647498071,-0.029473381,-0.198296294
10.23123908,0.777667344,2.483749866,5.819942951,0.566331744,-0.101553358,-0.229144082
10.25134918,0.800997376,2.522633314,5.684150219,0.376358271,-0.051769305,-0.274346769
10.27145928,0.661017239,2.547757864,6.173482418,0.26228255,0.052838288,-0.308554232
10.29156939,0.302093864,2.68713975,6.504888535,0.282135069,0.083075225,-0.312372029
10.31167949,-0.008973085,2.948555708,6.556334019,0.338943869,-0.017409148,-0.2836622
10.3317896,-0.061016977,3.177668571,6.662216663,0.352993369,-0.141563848,-0.26594764
10.3518997,-0.098105729,3.212962627,6.900900364,0.342608959,-0.175465882,-0.263656944
10.37200981,-0.246460736,3.263211966,6.967899323,0.291908622,-0.132401139,-0.246247798
10.39211996,-0.22791636,3.348157167,7.176074982,0.191424266,-0.084755056,-0.205168322
10.41223007,0.032901313,3.326023579,7.638488293,0.080708191,-0.062153708,-0.185621217
10.43234017,0.128614217,3.324826956,8.218149185,0.00297788,-0.049784053,-0.180429012
10.45245027,0.136390895,3.355933666,8.627322197,-0.003130592,-0.018019995,-0.155689701
10.47256038,0.083748795,3.445066452,8.683553696,0.047417019,-0.024128467,-0.100102596
10.49267048,0.230309174,3.568894863,8.267202377,0.116290048,-0.227540597,-0.000839915
10.51278059,0.699302435,3.948755503,8.091329575,0.06849125,-0.513569832,0.020997874
10.53289069,0.829113066,4.250251293,8.613563538,-0.019318044,-0.528382897,-0.050471254
10.5530008,0.61615181,4.260420799,8.464012146,-0.097659208,-0.266787529,-0.109112591
10.5731109,0.324825674,4.371686935,8.392825127,-0.270070851,0.072690822,-0.068643957
10.593221,0.521037102,4.59242487,9.086145401,-0.368111819,0.240826532,-0.048333291
10.61333111,0.630508781,4.692923546,9.942177773,-0.347343028,0.177145705,-0.108349033
10.63344126,0.650847733,4.481756687,10.75095177,-0.250523746,0.061695572,-0.151719183
10.65355137,0.619741082,4.302893162,11.06560802,-0.157674953,0.055281676,-0.123009369
10.67366147,0.434895515,4.383052826,11.37846947,-0.121940382,0.116977252,-0.09323056
10.69377158,0.029910283,4.505684853,11.70748329,-0.072767183,0.213949248,-0.061619218
10.71388168,-0.241076887,4.57866621,11.30848026,-0.034589227,0.271979749,-0.002214321
10.73399178,-0.1477568,4.53858614,11.03569794,-0.135073602,0.193027735,0.053830914
10.75410189,0.016749758,4.471587181,11.51127148,-0.272056103,0.074523367,0.064826168
10.77421199,0.250049979,4.100101471,12.1034956,-0.37483114,0.056656085,0.051845662
10.7943221,0.565902531,3.684348583,12.51446247,-0.406137079,0.089183703,0.03229855
10.8144322,0.839282513,3.142374277,12.60239887,-0.39621079,0.086282179,-0.030924143
10.83454231,0.690927565,2.556132793,12.42353535,-0.321840137,0.138967753,-0.08376243
10.85465246,-0.072981089,2.334198475,11.65783215,-0.168059349,0.263580591,-0.079486497
10.87476257,-0.892522872,2.519642353,10.3471632,-0.007864659,0.29015246,-0.009849912
10.89487267,-1.473978758,2.804388046,9.111868858,0.036421768,0.104913019,0.066505998
10.91498277,-1.465603828,2.688336134,8.625527382,-0.064062603,-0.155918762,0.153857157
10.93509288,-0.941575706,2.308475733,9.121439934,-0.168059349,-0.221584842,0.251592726
10.95520298,-0.37986058,2.203191519,9.509675026,-0.134920895,-0.077730313,0.294657439
10.97531309,-0.304486692,2.281556368,9.075976372,-0.019012621,0.030695075,0.283051342
10.99542319,-0.379262388,2.319841623,8.145766258,0.055052608,-0.009315421,0.270376265
11.0155333,-0.292522579,2.292324066,7.534400463,0.040544987,-0.088267431,0.252356261
11.03564345,-0.233898416,2.239083767,7.401598454,-0.02741177,-0.08765658,0.224715442
11.05575356,-0.323031068,2.172084808,7.675576687,-0.041919392,-0.023212196,0.220286787
11.07586366,-0.36011982,2.200200319,7.739584923,0.039017867,0.030389652,0.24380441
11.09597376,-0.23509483,2.317448616,7.492526054,0.136448011,0.049020492,0.266405761
11.11608387,-0.011365907,2.431107759,7.207779884,0.210055098,0.031000499,0.251745433
11.13619397,0.252442777,2.502892494,6.999604225,0.231740177,0.040621344,0.193562225
11.15630408,0.250648171,2.627917528,6.993024349,0.212345779,0.067498624,0.094910391
11.17641418,-0.107078813,2.784647465,7.397411346,0.167143077,0.03115321,0.014736691
11.19652428,-0.346959293,2.89292264,8.181658745,0.140113086,-0.014965758,0.012904149
11.21663444,-0.192024022,3.088535786,8.803194046,0.139807671,-0.007482879,0.057037864
11.23674454,0.393021107,3.358924866,9.175278664,0.143778175,0.037872531,0.063909896
11.25685465,0.848853827,3.476173162,9.021539688,0.14561072,0.091932513,-0.020387027
11.27696475,0.752542734,3.505485058,8.771489143,0.049096849,0.089794546,-0.127896145
11.29707486,0.352941334,3.513859987,9.142974854,-0.067269556,0.101400644,-0.172335282
11.31718496,-0.063409798,3.668197155,9.664012909,-0.093841411,0.127361655,-0.161950886
11.33729507,-0.348753899,3.732205153,10.06600666,-0.053220067,0.081700824,-0.112319537
11.35740517,-0.33200413,3.703491211,10.25743294,0.031076854,-0.006872032,-0.037338037
11.37751527,-0.174676046,3.811168194,10.34836006,0.10132429,-0.084449634,0.032909397
11.39762543,0.099302143,3.966103554,10.34417248,0.132630214,-0.116824538,0.075363278
11.41773553,0.300299227,4.194618225,10.30349445,0.1182753,-0.105371155,0.077195823
11.43784564,0.279362053,4.415954113,10.44467068,0.063757181,-0.13438639,0.037032615
11.45795574,0.101694964,4.421338081,10.80957603,0.018249061,-0.224486366,0.007711946
11.47806585,0.116051897,4.353142738,11.03749275,-0.019318044,-0.319625825,0.00038178
11.49817595,0.25603202,4.231706619,10.99262714,-0.132477492,-0.368493617,-0.034894649
11.51828606,0.266799718,4.135993958,11.3389883,-0.346884877,-0.368493617,-0.05260922
11.53839616,0.720837832,3.981058598,11.93898869,-0.530139089,-0.279309899,-0.053678203
11.55850626,1.47457695,3.679563046,12.39302635,-0.649865151,-0.12384928,-0.139349535
11.57861642,1.67437768,3.241078377,12.6945219,-0.684377968,0.009773556,-0.291450501
11.59872652,1.292124271,2.895913601,12.93021584,-0.540676177,0.072538115,-0.394225538
11.61883663,0.821934581,2.542972326,12.40020561,-0.231892884,0.077424891,-0.411634684
11.63894673,0.533599436,2.330609322,11.11047363,0.068338536,-0.017409148,-0.35192439
11.65905684,0.693918586,2.118246317,9.864411354,0.180887148,-0.164623335,-0.283814907
11.67916694,1.176072359,1.911865234,9.508479118,0.129117847,-0.144159958,-0.231892884
11.69927704,1.575075507,1.856232166,9.601799011,0.117969878,0.072385401,-0.232045606
11.7193872,1.333400369,2.080559254,9.126823425,0.250065595,0.247087717,-0.284425765
11.7394973,0.811166883,2.21754837,7.988438606,0.434083343,0.21257484,-0.318175077
11.75960741,0.458823741,2.203789711,6.637690067,0.510591924,0.068567604,-0.314357281
11.77971751,0.153140649,2.246860504,5.685346603,0.394836396,-0.040926766,-0.286869139
11.79982762,0.051445685,2.379662037,5.641079426,0.20211409,0.000152712,-0.233572722
11.81993772,0.008374879,2.524427891,5.964110374,0.09796463,0.113617592,-0.200586975
11.84004783,-0.02632105,2.59740901,6.166304111,0.056427017,0.127819791,-0.173709691
11.86015798,0.025722843,2.639881611,6.460022926,0.007864659,0.046577103,-0.152024612
11.88026809,0.138783708,2.626122952,7.159923553,-0.045889899,-0.027640838,-0.142861903
11.90037819,0.332602352,2.719442844,8.00638485,-0.044515494,0.026419144,-0.141487494
11.9204883,0.110668048,3.119642496,8.606385231,0.053067356,0.119726062,-0.163019866
11.9405984,-0.349352092,3.325425386,8.328817368,0.184246808,0.087809294,-0.154009864
11.9607085,-0.588634372,3.457030535,7.784450054,0.184399515,-0.043064732,-0.081624463
11.98081861,-0.130408838,3.499503136,7.981858253,0.053830914,-0.154086217,-0.018554486
12.00092871,0.509671211,3.405584812,8.80738163,-0.054899897,-0.101095222,-0.021608721
12.02103887,0.794417143,3.355933666,9.510273933,-0.052303795,0.032985751,-0.062230065
12.04114897,0.568893611,3.47557497,9.578469276,0.053525493,0.114075728,-0.104683951
12.06125908,0.218943268,3.59641242,9.00179863,0.1260636,0.046577103,-0.114762932
12.08136918,0.089132644,3.728017569,8.678768158,0.089412771,-0.041843038,-0.103156827
12.10147928,0.171086818,3.798605919,9.146564484,-0.010002624,-0.085518613,-0.107738182
12.12158939,0.286540508,3.759722471,10.20120144,-0.017638214,-0.07177455,-0.112624966
12.14169949,0.220139682,3.778865099,10.79821014,0.109570727,-0.043064732,-0.115068354
12.1618096,0.023928227,3.909872293,10.83410263,0.262893379,-0.098804541,-0.084525988
12.18191975,-0.081954174,4.019343853,10.75872898,0.346884877,-0.175007746,-0.030466007
12.20202986,-0.288933337,4.231706619,10.71984577,0.327032358,-0.041384902,0.068185829
12.22213996,-0.273379982,4.662415028,10.58644581,0.184094086,0.160500124,0.175542235
12.24225006,0.077168532,4.97467804,10.63549805,-0.028328042,0.236703306,0.169586465
12.26236017,0.165104762,4.922036171,10.90768242,-0.187453747,0.124307416,0.048486002
12.28247027,-0.260817677,4.629513741,11.19302654,-0.283204049,-0.037567105,-0.043751936
12.30258038,-0.403190613,3.99302268,11.39940739,-0.382161319,-0.087045737,-0.043446511
12.32269053,-0.238085851,3.34038043,11.94975662,-0.507537723,-0.00671932,0.035352785
12.34280064,0.001794617,3.01376009,12.66521072,-0.504483461,0.183712319,0.109570727
12.36291074,-0.11545369,2.931805849,12.45882893,-0.29771167,0.310310394,0.139502242
12.38302085,-0.545563579,3.079562664,11.03988552,-0.048944138,0.260068208,0.142098337
12.40313095,-1.057029366,3.330210924,9.511469841,0.050165832,0.112395898,0.13858597
12.42324106,-1.300499082,3.144767046,8.472985268,-0.049096849,-0.068262182,0.160881892
12.44335116,-1.109073281,2.69850564,8.467600822,-0.253119826,-0.119878776,0.225020856
12.46346132,-0.583250523,2.334796667,9.154341698,-0.386895388,0.007941014,0.284273028
12.48357142,-0.198006079,2.034497499,9.602396965,-0.352229804,0.18310146,0.307332516
12.50368152,-0.058624156,1.810170293,9.332008362,-0.202419505,0.245102465,0.317716926
12.52379163,0.074775711,1.709671736,8.778668404,-0.091856159,0.163248926,0.318327785
12.54390173,0.226121739,1.676770449,8.845068932,-0.077806666,0.058335911,0.31649524
12.56401184,0.232103795,1.794018745,9.497711182,0.024510246,0.087503873,0.32794863
12.58412199,0.344566464,1.939382792,9.214161873,0.309928626,0.217614338,0.316647947
12.6042321,0.084346995,2.287538528,7.646862984,0.546021104,0.249836534,0.260908127
12.6243422,-0.319441825,2.656033039,6.203990936,0.57595259,0.129346907,0.222577468
12.64445231,-0.402592421,2.934797049,5.523232937,0.391934872,-0.044133715,0.190202564
12.66456241,-0.221336097,3.023929596,6.125626087,0.142556474,-0.102316916,0.165005118
12.68467251,-0.019142581,2.958127022,7.383652687,0.031382278,-0.010689827,0.136753425
12.70478262,0.175274253,3.120838881,8.164909363,0.108501747,0.145534366,0.09323056
12.72489277,-0.092123672,3.46420908,8.007580757,0.281371504,0.189515367,0.0264955
12.74500288,-0.649053156,3.853640795,7.051050186,0.373304039,-0.023364907,-0.018554486
12.76511298,-0.802792013,4.068396568,6.646663189,0.236626953,-0.310463131,-0.029549737
12.78522309,-0.403190613,3.961916208,7.526025295,-0.001145339,-0.356582075,-0.044820916
12.80533319,0.13519448,3.675973892,8.69551754,-0.196616456,-0.153475374,-0.088343784
12.8254433,0.344566464,3.577867985,10.01156998,-0.303209305,0.103996746,-0.132324785
12.8455534,0.047258247,3.619144201,11.19242764,-0.180734426,0.184628591,-0.159965619
12.8656635,-0.62751776,3.850051641,11.50828075,0.171266303,-0.035887275,-0.137975127
12.88577366,-0.97926265,4.051646709,10.57627583,0.449659944,-0.251516372,-0.054594472
12.90588376,-1.012762189,4.416552544,9.437292099,0.403082848,-0.281295151,0.036574479
12.92599387,-1.137787223,4.771886349,9.570094109,0.118122585,-0.178978249,0.109112591
12.94610397,-1.102493048,5.067998409,10.79761219,-0.082082599,-0.129652336,0.208375275
12.96621408,-0.113659076,4.855037212,11.66979599,-0.117511742,-0.222653821,0.300155073
12.98632418,1.265803218,4.579264164,11.92283726,-0.176763922,-0.322680056,0.255868644
13.00643434,2.205584288,4.33340168,12.18844032,-0.341692686,-0.313822776,0.033672955
13.02654444,1.884945989,4.036093712,12.86800194,-0.489823133,-0.193333164,-0.240902886
13.04665454,0.876969516,3.534198999,13.31127262,-0.463556707,-0.065513365,-0.350702673
13.06676465,0.385842651,3.000599623,12.99721432,-0.291297793,-0.029931515,-0.283051342
13.08687475,0.3912265,2.849253654,12.07956696,-0.059633963,-0.008857286,-0.164852411
13.10698486,0.633499801,2.866003275,10.81735325,0.107127339,-0.055434387,-0.097353779
13.12709496,1.10608232,2.963510752,9.958928108,0.121024117,-0.087045737,-0.099491745
13.14720512,1.44347024,3.101696253,9.568299294,0.075974129,-0.017867282,-0.208222553
13.16731522,1.120439172,2.970091105,9.301499367,0.027869906,0.031764057,-0.340776414
13.18742533,0.522831738,2.655434847,9.160323143,0.038101599,0.018172706,-0.367500991
13.20753543,0.131605253,2.519043922,8.83968544,0.12438377,0.012064233,-0.300613195
13.22764553,0.034695927,2.443071842,8.124231339,0.223188311,0.016492875,-0.207459003
13.24775564,0.183649138,2.373680115,7.24666357,0.243957117,-0.006872032,-0.12972869
13.2678658,0.427118838,2.4173491,6.728019238,0.194020361,-0.005803049,-0.082235314
13.2879759,0.578464866,2.523231506,6.513861656,0.169586465,0.015882028,-0.078722939
13.308086,0.533599436,2.644667149,6.200401783,0.185621217,0.034207448,-0.087427512
13.32819611,0.501296341,2.719442844,5.877968788,0.177222058,-0.002596101,-0.093688697
13.34830621,0.558125854,2.810968399,5.956932068,0.097659208,-0.062000997,-0.112930387
13.36841632,0.572482824,2.812762976,6.710670948,0.046653461,-0.050242186,-0.123009369
13.38852642,0.340977222,2.915056229,7.32203722,0.113999367,-0.007635591,-0.112014115
13.40863652,0.176470667,3.143570662,7.208378315,0.217537984,-0.036498122,-0.076279551
13.42874668,0.2955136,3.381656647,6.792026997,0.203335777,-0.095444888,-0.048027866
13.44885678,0.547358155,3.62153697,6.857231617,0.067422263,-0.067040488,-0.059023116
13.46896689,0.558724105,3.814757586,7.420143127,-0.069254808,-0.021226943,-0.095521241
13.48907699,0.650249541,3.836891174,8.23729229,-0.151108339,-0.05314371,-0.122093096
13.5091871,0.560518682,3.930809498,9.024530411,-0.15003936,-0.076355904,-0.144847155
13.52929725,0.333798766,4.039084435,9.250652313,-0.071545482,-0.078493871,-0.146679699
13.54940736,0.259023041,4.044468403,8.885746956,-0.056274302,-0.09575031,-0.135379016
13.56951746,0.317048997,4.070191383,8.797810555,-0.164546982,-0.090710819,-0.122398518
13.58962756,0.443868607,4.039084435,9.346364975,-0.289312542,-0.053601846,-0.124841906
13.60973767,0.466002196,3.942773581,10.12463093,-0.324741662,0.001985254,-0.132935628
13.62984777,0.458823741,3.88594389,10.83709335,-0.266863883,0.041079476,-0.128812417
13.64995788,0.35174492,3.857828379,11.2510519,-0.112624966,0.049325917,-0.12163496
13.67006798,0.178863496,3.859024763,10.95852947,0.063757181,0.044286426,-0.092619717
13.69017814,-0.05383851,4.148556232,10.23290634,0.119802415,0.018936265,-0.063757181
13.71028824,-0.136989102,4.307679176,9.927223206,0.031076854,-0.072385401,-0.061466504
13.73039835,-0.16869399,4.239483356,10.28794098,-0.12530005,-0.111937761,-0.078112096
13.75050845,-0.38285163,4.2574296,10.96869946,-0.302140325,-0.072385401,-0.095368527
13.77061856,-0.379262388,3.858426571,11.884552,-0.522808909,-0.075286925,-0.084984124
13.79072871,-0.162113741,3.252444267,13.39621735,-0.678116798,-0.085824043,-0.01733279
13.81083882,0.055034921,2.920439959,14.53101349,-0.506163299,-0.016034741,0.057496
13.83094892,0.023330022,2.73798728,13.26939774,-0.115831912,0.055892523,0.097353779
13.85105902,-0.045463629,2.574677229,10.88136101,-0.055510744,-0.034360159,0.116595469
13.87116913,0.044865426,2.426322222,10.21854877,-0.294352025,0.082922518,0.142556474
13.89127923,-0.381056994,2.547757864,10.83111191,-0.378648937,0.297940761,0.134462759
13.91138934,-0.987039328,2.532204628,10.8999052,-0.201503232,0.259151936,0.16699037
13.93149944,-1.116251707,2.315654039,10.33101177,0.017485503,0.003512372,0.259839147
13.9516096,-0.748953462,2.187039852,9.60419178,0.11552649,-0.188599095,0.354062349
13.9717197,-0.200997099,2.097907305,9.254241943,0.070171081,-0.132095724,0.386131823
13.9918298,0.025124637,2.003988981,9.142974854,0.032145835,0.052685577,0.369028091
14.01193991,-0.113060869,1.99800694,8.786444664,0.095063105,0.156071469,0.349175572
14.03205001,-0.230309174,2.034497499,8.004590034,0.209444255,0.173327908,0.353298783
14.05216012,-0.221934304,2.073380709,6.934998035,0.284578472,0.12110047,0.352382511
14.07227027,-0.216550455,2.189432621,5.961717606,0.208833411,0.043217443,0.341539979
14.09238038,-0.279362053,2.59740901,5.848058701,0.014889402,0.07177455,0.339860141
14.11249048,-0.239880472,3.008974552,6.613163471,-0.098880902,0.157445878,0.328712195
14.13260059,-0.241675094,3.108276606,7.315456867,-0.02893889,0.166761309,0.298017114
14.15271069,-0.12801601,3.0448668,7.445865631,0.125452757,0.035123717,0.281982362
14.1728208,0.321834654,2.97427845,7.404589653,0.155995116,-0.105981998,0.227311537
14.1929309,0.37986058,2.927020311,8.103892326,0.058717694,-0.073148958,0.136906147
14.21304106,-0.019740786,2.843869686,9.017352104,0.028633466,0.04871507,0.098575473
14.23315116,-0.429511666,2.849253654,9.383454323,0.09964446,0.092543356,0.154926136
14.25326126,-0.245862529,2.946761131,9.116056442,0.172182575,0.035581853,0.261671692
14.27337137,0.549750984,3.197409153,8.691329956,0.14744325,0.008551862,0.294657439
14.29348147,1.112064362,3.427120209,8.502297401,0.041155834,0.044591852,0.190355271
14.31359158,1.000798106,3.437289715,8.670990944,-0.070171081,0.072232686,0.053830914
14.33370168,0.463011175,3.339782238,9.130413055,-0.121024117,0.046729814,-0.003894151
14.35381184,0.04007978,3.345165968,9.639486313,-0.103156827,0.011606098,0.039781429
14.37392194,0.104685992,3.471985579,9.934999466,-0.063146338,-0.052532863,0.106058352
14.39403205,0.501296341,3.606581926,10.30588722,-0.103920393,-0.14507623,0.120565981
14.41414215,0.945763171,3.667000771,11.26780224,-0.186537474,-0.163554356,0.088649206
14.43425225,1.000199914,3.862015724,12.34397411,-0.143320039,-0.100331664,0.024662958
14.45436236,0.62751776,4.018745422,12.41276741,0.015042114,-0.129041478,-0.026342789
14.47447251,0.628714144,3.949353695,11.68834019,0.022524992,-0.344059706,-0.046348035
14.49458262,1.300499082,3.608974695,11.54536915,-0.191424266,-0.432632566,-0.115679197
14.51469272,1.415354609,3.107678413,12.13280678,-0.501887381,-0.280226171,-0.247316778
14.53480283,1.221535921,2.614757061,13.11147213,-0.680254757,-0.028557109,-0.292977631
14.55491293,1.270588875,2.42273283,13.48834133,-0.592903614,0.15393351,-0.279233545
14.57502303,1.174875975,2.636292458,12.6873436,-0.358490974,0.238993987,-0.295268297
14.59513314,0.979860902,2.843869686,11.56032467,-0.147290543,0.150268421,-0.32794863
14.61524324,0.852443039,2.871985435,10.73360443,0.007406523,0.008551862,-0.363683194
14.6353534,0.713659346,2.751147747,9.972686768,0.066200569,-0.106134713,-0.365057588
14.6554635,0.872183859,2.569891453,9.876375198,0.007559235,-0.127056226,-0.340318292
14.67557361,1.243071318,2.355733871,10.58644581,-0.011071607,-0.023670331,-0.335584223
14.69568371,1.385444283,2.123031855,10.87238789,0.170044601,0.100484371,-0.361239791
14.71579382,1.098903775,2.009372711,9.888339996,0.441108078,0.125070974,-0.376358271
14.73590392,0.803988397,2.033301115,8.44726181,0.637724519,0.007177455,-0.369944364
14.75601408,0.609571576,2.030908108,7.11685276,0.713622332,-0.035581853,-0.365057588
14.77612418,0.336191595,2.019542217,6.04187727,0.657882512,0.020157959,-0.348106593
14.79623428,0.105882399,2.034497499,5.513063431,0.525710404,0.101247937,-0.291603208
14.81634439,0.116650105,2.084746838,5.40060091,0.413161814,0.124154702,-0.227769673
14.83645449,0.141774744,2.199003935,5.52981329,0.338791162,0.083686076,-0.186995611
14.8565646,0.114855483,2.299502611,5.819344521,0.327032358,0.043981001,-0.157522231
14.8766747,-0.010767702,2.474178553,5.706882,0.353756905,-0.014049487,-0.137975127
14.89678481,-0.214755833,2.81695056,5.547759533,0.27220881,-0.119115219,-0.113083102
14.91689496,-0.285344094,3.17407918,5.943771362,0.105905645,-0.198830783,-0.085900396
14.93700507,-0.229710966,3.423531055,6.674778938,-0.061161082,-0.238077715,-0.075821415
14.95711517,0.070588268,3.484548092,7.444669247,-0.245178819,-0.211811289,-0.074141584
14.97722527,0.488135815,3.349951744,8.386244774,-0.44462046,-0.15943113,-0.096437514
14.99733538,0.733998358,3.102294445,9.601201057,-0.569538713,-0.052380152,-0.124841906
15.01744548,0.472582459,3.147160053,10.65284634,-0.491350263,0.153322667,-0.121176824
15.03755564,-0.133399859,3.42472744,10.40578747,-0.209902391,0.262206197,-0.065437011
15.05766574,-0.377467781,3.678366661,8.985647202,-0.037643462,0.13912046,0.026037365
15.07777585,0.148355007,3.859622955,8.314460754,-0.099949881,0.020310672,0.082235314
15.09788595,0.665802896,4.069592953,8.81456089,-0.224715442,0.066887774,0.022372281
15.11799606,0.949950576,3.979264021,9.835697174,-0.271445245,0.135302663,-0.067574978
15.13810616,1.192223907,3.799802303,10.69890785,-0.27113983,0.228151456,-0.124536485
15.15821626,1.338186026,3.822534084,11.75952721,-0.237695932,0.1937913,-0.171724439
15.17832642,1.098305583,3.74536562,12.79322624,-0.059633963,0.039552361,-0.286716431
15.19843652,0.299102843,3.594019651,12.88953781,0.201961368,-0.114228435,-0.356200308
15.21854663,-0.576670229,3.713062525,11.93779182,0.320618451,-0.157445878,-0.36078167
15.23865673,-1.24965167,3.833301783,11.2510519,0.154620707,-0.087045737,-0.308554232
15.25876684,-1.562513232,3.716053486,11.54776192,-0.117511742,-0.004734066,-0.185010359
15.27887694,-1.03848505,3.33439827,12.32722378,-0.331766427,0.050853033,-0.057037864
15.29898704,-0.181256309,2.967100143,13.03669643,-0.478827894,0.101400644,-0.024510246
15.3190972,0.241076887,2.450250387,13.70907879,-0.569996834,0.148741305,-0.063757181
15.3392073,-0.016749758,2.083550215,14.05005646,-0.471039593,0.292901248,-0.084067851
15.35931741,-1.013360381,2.081755638,12.76690483,-0.185315788,0.439199179,-0.046958882
15.37942751,-1.849053741,2.223530531,10.74616623,0.017638214,0.40010494,0.070629217
15.39953762,-2.169093609,2.264208317,9.203393936,0.075363278,0.225860775,0.220286787
15.41964772,-1.876571178,2.151147604,8.526823044,0.002825169,-0.058335911,0.361545235
15.43975783,-1.049850941,1.917847395,8.976076126,-0.106363781,-0.180810794,0.445231289
15.45986793,-0.431306273,1.77009058,9.850652695,-0.069102094,-0.058488626,0.45973891
15.47997809,-0.314057976,1.691127419,9.735198975,0.120260552,0.07711947,0.442787916
15.50008819,-0.374476731,1.694716692,8.830113411,0.296948135,0.08154811,0.452714175
15.5201983,-0.273978204,1.804188251,7.953144073,0.404457241,0.035123717,0.449049085
15.5403084,-0.265603304,1.904686809,7.150950432,0.456837386,0.008246438,0.416063339
15.5604185,-0.276371002,1.966900229,6.559325218,0.415299773,0.003512372,0.39254573
15.58052861,-0.290129751,2.128415823,6.439683914,0.346274048,0.036498122,0.371624202
15.60063871,-0.321236432,2.274976015,6.439683914,0.320313036,0.060473878,0.340776414
15.62074887,-0.394815743,2.368894339,6.458228111,0.304583728,0.029778805,0.315273553
15.64085897,-0.397208571,2.513660192,6.649653912,0.27999711,-0.025655584,0.31023404
15.66096908,-0.288933337,2.711068153,7.194619656,0.271750689,-0.057266932,0.310386777
15.68107918,-0.233300209,2.907279491,7.50269556,0.296795398,-0.08154811,0.297100842
15.70118928,-0.06759724,3.192025423,7.411170006,0.266100347,-0.142785549,0.277401
15.72129939,0.186640173,3.484548092,7.328019142,0.134615466,-0.139425889,0.221661195
15.74140949,0.367298275,3.690330744,7.613363266,-0.052151084,-0.111326911,0.134004623
15.76151965,0.480957359,3.658625841,8.272585869,-0.216774419,-0.047493376,0.042988375
15.78162975,0.328414917,3.612564087,9.07059288,-0.291908622,0.02687728,-0.006184828
15.80173986,0.06759724,3.723232031,9.631111145,-0.247774914,0.043522868,-0.006490252
15.82184996,-0.070588268,3.876971006,9.712467194,-0.132477492,-0.00503949,0.005115846
15.84196006,-0.138185501,3.982853174,9.407979965,-0.063909896,-0.066887774,0.006642964
15.86207017,-0.246460736,4.080958843,9.332606316,-0.109876148,-0.131943002,0.002367033
15.88218027,-0.343968242,4.081557274,9.808777809,-0.219981372,-0.174855024,0.0096972
15.90229038,-0.278165638,3.937389612,10.83290672,-0.327643186,-0.20707722,0.048180576
15.92240053,0.084346995,3.815355778,12.26620674,-0.304278284,-0.179589093,0.097048357
15.94251064,0.314057976,3.945166349,13.10548973,-0.082540736,-0.089947261,0.125758186
15.96262074,0.459421933,4.07736969,12.4546423,0.167295799,-0.109341659,0.122398518
15.98273085,0.669392109,4.165904045,11.15474129,0.189439014,-0.254570603,0.094757684
16.00284095,1.214955688,3.970889091,10.8364954,-0.015042114,-0.357803792,0.018707197
16.02295106,1.436890006,3.572484255,11.56271744,-0.228685945,-0.30633989,-0.096742935
16.04306116,1.357926846,3.255435228,12.44806194,-0.299238801,-0.179894522,-0.167906642
16.06317126,1.223928809,3.03948307,12.65504074,-0.233725429,-0.115450129,-0.209902391
16.08328142,1.298704505,2.76909399,12.20758247,-0.155842409,-0.124307416,-0.234794408
16.10339152,1.393221021,2.653042078,11.70449162,-0.142556474,-0.064749807,-0.269765407
16.12350163,1.190429211,2.61415863,11.24327564,-0.114152081,0.028709821,-0.309165061
16.14361173,0.824925602,2.507678032,10.49671459,-0.052761931,0.045660831,-0.319244057
16.16372184,0.595214605,2.374278307,9.76211834,-0.002672457,-0.007788302,-0.289007098
16.18383194,0.677767038,2.123630047,9.134002686,0.038559735,-0.089794546,-0.252661705
16.20394204,0.850050271,2.00099802,8.718847275,0.026342789,-0.109341659,-0.223646447
16.22405215,0.985244751,1.977069736,8.534600258,0.022524992,-0.030542362,-0.227464244
16.2441623,0.754935563,2.049452543,8.219346046,0.07933379,0.069178455,-0.237390518
16.26427241,0.581455886,2.08534503,7.549953461,0.157522231,0.113159455,-0.217385262
16.28438251,0.522233546,2.152942181,6.887141705,0.176000372,0.111174204,-0.191576973
16.30449262,0.43908295,2.258226395,6.595815659,0.16592139,0.095292173,-0.160881892
16.32460272,0.518644333,2.304288149,6.516852379,0.196005613,0.067498624,-0.131866649
16.34471283,0.613758981,2.427518606,6.390631199,0.219523236,0.034818295,-0.127896145
16.36482293,0.669990361,2.556730986,6.41336298,0.203030363,0.025502874,-0.151413769
16.38493303,0.506680191,2.64227438,6.591628075,0.199212566,0.02183779,-0.168822914
16.40504319,0.497707099,2.720041037,6.676573277,0.17844376,-0.013285927,-0.168517485
16.4251533,0.569491804,2.843869686,6.905087948,0.11888615,-0.001221695,-0.183941379
16.4452634,0.418145746,3.010170937,7.161119938,0.057496,0.0219905,-0.219370529
16.4653735,0.136390895,3.167499065,7.439883709,-0.021150587,-0.027182704,-0.233878151
16.48548361,0.143569365,3.230908871,8.103293419,-0.114762932,-0.083686076,-0.224257305
16.50559371,0.354735971,3.132204771,8.78584671,-0.177527487,-0.051463883,-0.218454257
16.52570382,0.476769924,3.098705292,9.367302895,-0.217843399,0.045966256,-0.209902391
16.54581392,0.396610349,3.217748165,9.716654778,-0.17584765,0.171189949,-0.204252049
16.56592408,0.058624156,3.395415306,9.419346809,-0.096284799,0.17531316,-0.192798659
16.58603418,-0.098105729,3.435495138,8.998209953,-0.083151586,0.08322794,-0.152940884
16.60614428,0.059820566,3.45583415,9.06341362,-0.140723944,0.067193195,-0.114610218
16.62625439,0.16331014,3.55154705,9.619745255,-0.194631204,0.131332159,-0.109876148
16.64636449,0.069391854,3.598206997,10.23589706,-0.189439014,0.148588598,-0.103920393
16.6664746,0.065802626,3.6299119,10.84965611,-0.131561235,0.091932513,-0.077501245
16.6865847,0.123828575,3.628117323,11.21336555,-0.078570232,0.0645971,-0.051540237
16.7066948,0.035294134,3.745963812,11.68714428,-0.084678702,0.090099968,-0.00633754
16.72680491,-0.061615184,4.051048756,12.08435249,-0.03397838,0.179130957,0.011682454
16.74691506,-0.325423867,4.16710043,11.70987606,-0.010766183,0.129346907,-0.03504736
16.76702517,-0.568893611,3.990031719,11.50229836,-0.13751699,0.018325418,-0.055052608
16.78713527,-0.566500783,3.711267948,12.11127186,-0.331308276,-0.05635066,-0.067116842
16.80724538,-0.241076887,3.046661377,13.17847061,-0.51914382,-0.129499614,-0.066200569
16.82735548,0.148953214,2.492124796,14.52622795,-0.630470753,-0.107814543,-0.038101599
16.84746559,0.199800685,2.160718918,15.39601898,-0.454699427,0.087045737,-0.022219568
16.86757569,-0.314656168,1.856232166,13.97528076,-0.066200569,0.328024983,0.025121093
16.8876858,-0.942173898,2.044068813,11.39641571,0.178749174,0.365897507,0.119802415
16.9077959,-1.177866936,2.234298229,9.391230583,0.234794408,0.215781793,0.172335282
16.92790606,-1.399801254,2.160120726,8.348558426,0.03840702,-0.135760799,0.1828724
16.94801616,-0.93978107,1.55054903,9.750752449,-0.264878631,-0.339478374,0.25082916
16.96812626,-0.378065974,1.10608232,11.67817116,-0.23494713,-0.153628081,0.297558963
16.98823637,-0.50368917,0.881156921,12.02752304,0.101477005,0.089183703,0.36856997
17.00834647,-0.446261436,0.786042213,10.60738277,0.507537723,0.166761309,0.490586698
17.02845658,-0.238085851,1.060618639,8.69551754,0.789978206,0.078188449,0.565262795
17.04856668,0.139381915,1.213161111,6.894918442,0.927877009,0.055739813,0.554420233
17.06867678,0.252442777,1.36211431,5.313860893,0.838693261,0.083838783,0.47485739
17.08878689,0.139980122,1.517049551,4.732405186,0.55976516,0.105371155,0.393309265
17.10889705,0.001794617,1.615155339,5.483152866,0.303362012,0.09575031,0.328406751
17.12900715,-0.199800685,1.730010748,6.742375851,0.233267292,0.134997249,0.291755915
17.14911725,-0.511465848,1.969292998,7.456035137,0.297100842,0.130110472,0.290534228
17.16922736,-0.464805812,2.19242382,7.716254711,0.369791657,-0.022906773,0.320618451
17.18933746,0.063409798,2.37786746,7.7838521,0.346274048,-0.130110472,0.312524736
17.20944756,0.521037102,2.548356056,8.012366295,0.235405266,-0.080326416,0.23937577
17.22955767,0.681356251,2.568096876,8.341380119,0.1182753,0.040010497,0.125910893
17.24966777,0.324825674,2.739781857,8.61655426,0.040544987,0.152100965,0.045737188
17.26977788,-0.049052864,2.97726965,8.724829674,0.020234315,0.142632842,0.028328042
17.28988803,-0.031106694,3.138186932,8.758329391,0.024357535,0.031611346,0.044057358
17.30999814,0.314057976,3.258426189,8.747561455,0.009239065,-0.070247434,0.03229855
17.33010824,0.511465848,3.292523861,8.854042053,-0.070934638,-0.099262677,-0.021761434
17.35021835,0.684945464,3.214757204,9.23270607,-0.158743933,-0.028557109,-0.076126836
17.37032845,0.588634372,3.215953588,9.71186924,-0.168670192,0.060168456,-0.131255806
17.39043856,0.199800685,3.323032379,9.930213928,-0.074141584,0.058946762,-0.147290543
17.41054866,-0.105882399,3.390629768,9.666405678,0.054747187,-0.062764555,-0.126979873