Time (s),Acceleration x (m/s^2),Acceleration y (m/s^2),Acceleration z (m/s^2),Gyroscope x (rad/s),Gyroscope y (rad/s),Gyroscope z (rad/s)
3.315362765,0.049651071,3.61615324,9.489934921,0.03451287,0.086434886,0.021914145
3.335472296,0.21535404,3.671188116,9.309874535,0.072843537,0.042912021,0.041461259
3.355581827,0.314656168,3.750749588,9.123832703,0.074676074,0.056808796,0.025121093
3.375691358,0.24047868,3.777668715,8.979664803,0.045966256,0.093001492,0.007101099
3.39580089,0.160917327,3.800998688,8.874979019,0.010231691,0.118198946,0.002061609
3.415910421,0.106480606,3.814757586,8.858827591,-0.016492875,0.11774081,-0.001450762
3.436019952,0.095114701,3.80159688,8.81456089,-0.024586603,0.085213192,-0.015042114
3.456129483,0.028115666,3.789632797,8.756534576,-0.038177952,0.049020492,-0.031687703
3.476238962,-0.086739823,3.825525284,8.796614647,-0.082769804,0.044744562,-0.030924143
3.496348494,-0.104087785,3.796811342,8.98803997,-0.129652336,0.052532863,-0.01733279
3.516458025,-0.114257284,3.771686792,9.248259544,-0.149199441,0.029626092,-0.011835165
3.536567556,-0.104685992,3.752544165,9.485747337,-0.133164704,-0.004886778,-0.008933641
3.556677087,-0.101694964,3.701098442,9.522237778,-0.102927767,-0.009468133,-0.001145339
3.576786619,-0.13519448,3.739383698,9.434301376,-0.084144212,0.029626092,0.012446013
3.59689615,-0.161515534,3.797409534,9.310472488,-0.088267431,0.068720318,0.030007871
3.617005681,-0.212961212,3.853640795,9.308678627,-0.097277425,0.062000997,0.045737188
3.637115212,-0.186640173,3.893720627,9.172286987,-0.073148958,0.05803049,0.062535487
3.657224744,-0.133399859,3.975076675,8.818149567,-0.050853033,0.07345438,0.059175827
3.677334275,-0.110668048,4.023531437,8.517850876,-0.085213192,0.080173701,0.040697698
3.697443806,-0.162711933,3.995415688,8.691329956,-0.176076725,0.054976255,0.012140589
3.717553337,-0.340977222,3.902095556,9.382257462,-0.242659077,0.009620844,-0.01977618
3.737662869,-0.735792935,3.792623997,9.908080101,-0.201121464,0.053449135,-0.027717194
3.757772348,-1.174875975,3.763311863,9.732208252,-0.062306419,0.183254182,0.026953636
3.777881879,-1.198205948,3.82731986,8.961120605,0.044133715,0.255944997,0.128506988
3.79799141,-0.764506817,3.925425529,8.549555779,0.017714571,0.193180442,0.222882897
3.818100942,-0.110069841,3.922434568,8.792427063,-0.07345438,0.095903017,0.245789662
3.838210473,0.16869399,3.803989887,9.476176262,-0.103844032,0.083991498,0.198296294
3.858320004,-0.023330022,3.686143398,9.758528709,-0.039246935,0.149963006,0.135226309
3.878429535,-0.650847733,3.806980848,9.609575272,0.014507622,0.238383144,0.124078348
3.898539067,-1.040877819,3.943371773,9.459425926,-0.010689827,0.247851282,0.196463749
3.918648598,-0.902692318,3.938585997,9.742377281,-0.081089973,0.084755056,0.275415748
3.938758129,-0.635294437,4.071387768,10.0767746,-0.110563353,-0.020005248,0.311608464
3.95886766,-0.149551421,3.787240028,10.35912704,-0.146297917,-0.164623335,0.270376265
3.978977192,0.662213683,3.19382,11.12961674,-0.240215689,-0.370326161,0.210818663
3.999086723,1.223330617,2.709871531,12.16331577,-0.318404138,-0.293053985,0.141792923
4.019196202,0.714257538,2.359921217,12.62513065,-0.21410197,0.126292676,0.061008371
4.039305733,-0.327816695,2.196611166,11.53101254,0.111937761,0.489594072,0.061161082
4.059415265,-0.929611623,2.39760828,9.806983948,0.44439137,0.496618807,0.167448506
4.079524796,-0.760319412,2.726023197,8.296514511,0.628714562,0.263275176,0.276026607
4.099634327,-0.828514814,3.200998545,7.43749094,0.645207405,0.074065231,0.273583204
4.119743858,-1.259222865,3.601198196,7.341778278,0.55067879,-0.081700824,0.234641701
4.13985339,-1.275972724,3.73160696,7.493722439,0.416903257,-0.240368396,0.231892884
4.159962921,-0.946361363,3.485146284,7.715656757,0.258846521,-0.35581854,0.208375275
4.180072452,-0.39960137,3.050250769,8.450253487,0.062000997,-0.46729815,0.159812912
4.200181983,0.294915378,2.660818815,9.534799576,-0.126750812,-0.467756301,0.111403272
4.220291515,0.192024022,2.669193745,10.61336517,-0.206313655,-0.244797036,0.03229855
4.240401046,-0.497108907,2.785843849,10.76411247,-0.069483876,0.089947261,-0.017943637
4.260510525,-0.985244751,2.785245657,9.796813965,0.138662323,0.232274666,-0.003588728
4.280620056,-0.960120082,3.028715372,8.768498421,0.235328913,0.132859275,0.080250062
4.300729587,-0.537188709,3.394218922,8.406583786,0.189820781,-0.040010497,0.133241057
4.320839119,-0.221336097,3.491726398,8.466404915,0.128277928,-0.097888276,0.09155073
4.34094865,-0.431904495,3.563511133,8.635697365,0.094986752,-0.079410143,0.011224318
4.361058181,-0.600598455,3.577867985,8.673383713,0.073759809,-0.057114217,-0.002214321
4.381167712,-0.657428026,3.653241873,8.778069496,0.048104223,-0.045813546,0.018707197
4.401277244,-0.585643351,3.73998189,8.889336586,0.055128966,-0.028709821,0.042530239
4.421386775,-0.46420759,3.828516245,8.673981667,0.090558104,-0.001221695,0.043904647
4.441496306,-0.468395025,3.929612875,8.376673698,0.086129464,0.014354911,0.018249061
4.461605785,-0.640080035,3.944568157,8.335995674,0.041079476,0.007024744,0.009849912
4.481715317,-0.720239639,3.893720627,8.505886078,0.023059484,-0.012827792,0.026342789
4.501824848,-0.725623488,3.907479286,8.525029182,0.063986249,-0.023364907,0.061466504
4.521934379,-0.664606512,4.032504559,8.383852005,0.105981998,-0.05635066,0.089718193
4.54204391,-0.466002196,4.106681824,8.244470596,0.113159455,-0.115755558,0.10743276
4.562153442,-0.247058943,4.157529354,8.347361565,0.074217945,-0.14950487,0.097506493
4.582262973,-0.151944235,4.246063709,8.706285477,0.028404398,-0.13805148,0.070629217
4.602372504,-0.196809664,4.277170658,9.195617676,-0.002901525,-0.155460626,0.029702447
4.622482035,-0.301495642,4.25802803,9.626325607,0.017714571,-0.174702317,0.016111096
4.642591515,-0.119641133,4.186841488,9.687940598,0.077577598,-0.177451134,0.015042114
4.662701046,0.017946171,4.2071805,9.600603104,0.100484371,-0.204022989,-0.005726693
4.682810577,0.193818629,4.170091629,9.62931633,0.092390649,-0.237161443,-0.037032615
4.702920108,-0.250049979,4.683351994,9.570094109,0.07711947,-0.201885015,-0.072767183
4.72302964,-0.268594354,4.670789719,9.201001167,0.018172706,-0.214560106,-0.079028361
4.743139171,0.366700083,4.110270977,9.574281693,-0.199441627,-0.532658815,-0.060092099
4.763248702,0.592821837,4.032504559,10.32921696,-0.378114462,-0.424996972,0.017638214
4.783358233,1.031904817,3.375076294,10.89153004,-0.494328141,-0.295039237,0.021150587
4.803467712,1.557129383,2.280359983,11.78046417,-0.558619797,-0.370326161,0.012904149
4.823577244,1.462014675,1.631905079,12.89193058,-0.405602574,-0.310004979,0.042682953
4.843686775,0.575473845,1.596610904,12.41037464,0.098193698,0.042453885,0.097659208
4.863796306,-0.503090978,2.401795626,10.37827015,0.660631299,0.199899763,0.168364778
4.883905837,-0.732801914,3.470191002,8.312665939,0.903290391,-0.12583454,0.283051342
4.904015369,0.680159807,3.759722471,7.118647575,0.728740752,-0.573432863,0.339860141
4.9241249,2.193620205,3.522833109,7.474579811,0.280989736,-0.689646542,0.181345284
4.944234431,2.449054003,3.121437073,8.675178528,-0.102316916,-0.279004484,-0.070476502
4.96434391,1.357926846,2.877369165,9.371489525,-0.205855534,0.340089202,-0.290381521
4.984453442,0.065802626,2.74935317,9.227920532,-0.131179452,0.592369139,-0.35192439
5.004562973,-0.429511666,2.752344131,8.977870941,-0.038177952,0.450805277,-0.243651703
5.024672504,-0.081954174,2.949752092,8.986844063,0.045355409,0.225249931,-0.090787172
5.044782035,0.609571576,3.302693367,8.758329391,0.131179452,0.194707558,-0.004352287
5.064891567,1.110867858,3.683750391,8.209176064,0.150115714,0.28862533,-0.027259059
5.085001098,1.184447169,3.914657831,7.882555962,0.041537613,0.319167703,-0.11720632
5.105110629,0.872782052,3.932005882,8.193024635,-0.107203692,0.303438366,-0.205015615
5.125220108,0.476171702,3.77647233,8.60518837,-0.167066723,0.301605821,-0.241361022
5.14532964,0.28414768,3.703491211,8.741579056,-0.15057385,0.286487371,-0.218301535
5.165439171,0.479760945,3.684946775,8.7032938,-0.13912046,0.257777542,-0.169128329
5.185548702,0.668793917,3.718446493,8.861818314,-0.170120955,0.268009245,-0.154468
5.205658233,0.487537623,3.786641836,9.068798065,-0.180505365,0.317640573,-0.156453252
5.225767765,0.098105729,3.850649834,8.928817749,-0.121253178,0.368493617,-0.143778175
5.245877296,-0.102293171,3.976871252,8.525627136,-0.053601846,0.33184278,-0.100560732
5.265986775,0.024526432,4.042075634,8.373682976,-0.054212693,0.218683317,-0.049860407
5.286096306,0.187836573,4.05523634,8.589634895,-0.080631837,0.151948258,-0.020539738
5.306205837,0.086141616,4.067200184,8.740383148,-0.050089475,0.187835529,-0.011682454
5.326315369,-0.224327117,4.236492634,8.631509781,0.010231691,0.200816035,0.015042114
5.3464249,-0.304486692,4.453042984,8.411369324,0.04214846,0.143396393,0.067727692
5.366534431,-0.035892341,4.50269413,8.528019905,-0.002596101,0.007941014,0.087885648
5.386643962,0.342771858,4.355535507,9.119047165,-0.093765058,-0.09575031,0.093688697
5.406753494,0.552742004,4.086342812,9.732208252,-0.124765553,-0.032680329,0.082846157
5.426862973,0.223130718,3.968496323,9.982257843,-0.07177455,0.140800297,0.065437011
5.446972504,-0.305084884,3.987040758,9.6693964,0.023364907,0.2521272,0.088038363
5.467082035,-1.216152072,4.577469826,9.077172279,0.055281676,0.300384134,0.122856654
5.487191567,-1.487737536,4.644468784,9.417551994,-0.054365408,0.092085227,0.16332528
5.507301098,-0.909870803,4.180261135,10.6295166,-0.223570094,-0.395981729,0.212651208
5.527410629,-0.299102843,3.893720627,11.73200989,-0.250447363,-0.272896022,0.238612205
5.54752016,0.111864455,3.181257725,12.19681549,-0.197303668,-0.206771791,0.189591721
5.56762964,0.552143812,2.497508526,12.14895916,-0.112243183,-0.286792785,0.173862398
5.587739171,0.505483806,2.499901533,11.40239811,0.03115321,-0.014660334,0.194173068
5.607848702,-0.11545369,2.818146944,9.802796364,0.205244675,0.324665308,0.153246313
5.627958233,-0.833300471,3.151945591,8.557332039,0.255639583,0.230289415,0.111555979
5.648067765,-0.626919508,3.104687452,8.185248375,0.167066723,-0.156376898,0.141640201
5.668177296,0.110069841,2.818745136,8.965308189,0.010689827,-0.445765793,0.137822419
5.688286775,0.495912492,2.575275421,9.824930191,-0.043675579,-0.312448382,0.107127339
5.708396306,0.316450805,2.604587555,9.865009308,0.014202199,0.040621344,0.060855657
5.728505837,-0.034695927,2.680559635,9.385248184,0.062153708,0.167066723,0.019623468
5.748615369,-0.033499517,2.544168711,9.197412491,0.057572354,0.034360159,0.003588728
5.7687249,-0.066999033,2.627319336,9.198010445,0.076814041,-0.017103724,0.007711946
5.788834431,-0.175274253,2.827120066,8.696713448,0.150726557,0.123543859,0.014736691
5.808943962,-0.364905447,3.134597778,7.878368378,0.176534861,0.199594349,0.024357535
5.829053494,-0.304486692,3.394817114,7.438089371,0.097735561,0.145534366,0.042377528
5.849162973,-0.068793654,3.450450182,7.715058327,-0.040315919,-0.011300675,0.021761434
5.869272504,0.123230368,3.299702406,8.483752251,-0.127819791,-0.10185878,-0.040239561
5.889382035,-0.069391854,3.172284603,9.14596653,-0.121558607,-0.093001492,-0.096132085
5.909491567,-0.372682124,3.191427231,9.278767586,-0.049478628,-0.011606098,-0.087732941
5.929601098,-0.430708081,3.333201885,9.100502968,0.014965758,0.016187452,-0.031840414
5.949710629,-0.142372951,3.528217077,8.846863747,0.042912021,-0.031611346,0.013667707
5.969820108,0.136390895,3.729812384,8.568697929,0.037567105,-0.028404398,-0.002367033
5.98992964,0.057427742,3.850051641,8.478966713,-0.018936265,-0.017867282,-0.066658705
6.010039171,-0.17587246,3.76510644,8.618947029,-0.071927264,-0.017867282,-0.094604969
6.030148702,-0.406181634,3.750749588,8.772088051,-0.065207943,-0.015882028,-0.081624463
6.050258233,-0.437886536,3.849453449,8.759525299,-0.015423893,-0.012827792,-0.039628714
6.070367765,-0.31226337,4.010969162,8.657830238,0.023059484,-0.04871507,-0.009391776
6.090477244,-0.274576396,4.30827713,8.684749603,0.027488127,-0.107203692,-0.017027367
6.110586775,-0.416949332,4.549354076,9.122037888,0.002748813,-0.201732308,-0.064978875
6.130696306,-0.615553618,4.451248169,9.894919395,0.005497625,-0.321916491,-0.097506493
6.150805837,-0.502492726,4.348356724,10.1084795,0.106440134,-0.340852767,-0.055663455
6.170915369,-0.149551421,4.355535507,9.856635094,0.17531316,-0.362537861,-0.037643462
6.1910249,0.373878539,4.149752617,9.838089943,0.122627586,-0.426371396,-0.033520244
6.211134379,0.563509762,4.202992916,10.30887794,0.021685077,-0.403922737,-0.040697698
6.23124391,0.069391854,4.789832592,10.45005512,0.001832542,-0.156529605,-0.048027866
6.251353442,0.214755833,4.643870354,10.47159004,-0.055128966,-0.193180442,-0.077959381
6.271462973,0.920040309,4.445864677,10.81436157,-0.198983491,-0.37872529,-0.066047862
6.291572504,1.80658114,3.982254982,11.27498055,-0.33291176,-0.283280402,-0.116900891
6.311682035,2.172683001,2.756531715,11.48195934,-0.386208177,-0.151642829,-0.259075582
6.331791567,1.852642894,1.847857237,11.10808086,-0.213491112,0.213491112,-0.323214561
6.351901046,1.000798106,1.810768485,10.11625576,0.095597595,0.537392855,-0.322145581
6.372010577,0.037686955,2.318645239,9.233902931,0.398272425,0.546250165,-0.27480492
6.392120108,-0.565902531,3.170490026,8.474779129,0.677276909,0.264802277,-0.19432579
6.41222964,-0.369691104,3.863212109,7.326224804,0.84968853,-0.133011997,-0.145763427
6.432339171,0.846460998,4.042674065,6.342774391,0.673764527,-0.501811028,-0.214178324
6.45244865,1.954337835,3.71186614,6.677769661,0.095444888,-0.604738772,-0.393767417
6.472558181,1.967498422,3.052045345,8.284550667,-0.511126459,-0.230900258,-0.579006851
6.492667712,0.561715126,2.550748825,10.07198906,-0.762566447,0.381626815,-0.717669189
6.512777244,-1.004985452,2.297109842,10.60798073,-0.623522341,0.644291163,-0.660707653
6.532886775,-1.668993831,2.3216362,10.37587738,-0.320083976,0.519525588,-0.424157053
6.552996306,-1.182652593,2.61415863,9.787242889,-0.016187452,0.169968247,-0.136448011
6.573105785,-0.233898416,3.107678413,8.809176445,0.203412131,-0.062000997,0.010613471
6.593215317,0.037686955,3.675973892,7.882555962,0.255944997,-0.051769305,0.002367033
6.613324848,-0.056231331,4.071985722,7.367500782,0.113617592,-0.00503949,-0.026342789
6.633434379,0.062811591,4.079164505,7.579265594,-0.120642334,-0.005192202,-0.0432938
6.65354391,0.208773777,3.873979807,8.670990944,-0.314433634,-0.078493871,-0.079944633
6.673653442,0.213559419,3.478565931,9.754341125,-0.319473118,-0.058641337,-0.094604969
6.693762921,-0.023928227,3.296711445,9.990633011,-0.148741305,0.030847786,-0.071850911
6.713872452,-0.28713873,3.450450182,9.431310654,0.048562355,0.090863533,-0.002672457
6.733981983,-0.161515534,3.71186614,8.459226608,0.16202724,0.090252683,0.089718193
6.754091515,0.111266255,3.961317778,7.766504288,0.157293171,0.080784552,0.120107845
6.774201046,0.175274253,4.169493675,7.678567886,0.079104722,0.044133715,0.10239327
6.794310577,0.300299227,4.240679741,7.934599876,0.017409148,0.022143213,0.070171081
6.814420056,0.272781789,4.314259052,8.416155815,-0.020310672,0.000305424,0.016874656
6.834529587,0.101096757,4.34775877,8.819346428,-0.02107423,0.023212196,-0.01565296
6.854639119,-0.048454657,4.281956196,9.036494255,-0.002290677,0.058335911,-0.024204822
6.87474865,-0.047258247,4.17846632,9.268000603,0.006108473,0.050853033,7.64E-05
6.894858181,0.314656168,4.100699902,9.60778141,0.029931515,0.032680329,0.033825666
6.91496766,0.680159807,4.138985157,10.01635551,0.078646585,0.005497625,0.031229567
6.935077192,0.757328391,4.191627026,10.15813065,0.147977755,-0.009926268,-0.001756186
6.955186723,0.046061836,4.803591251,9.390034676,0.224639073,0.221126705,-0.051234815
6.975296254,-0.589830756,5.141577721,8.388039589,0.091779798,0.405449867,-0.104989372
6.995405785,-0.721436024,4.716851711,8.887541771,-0.295344651,0.124612838,-0.102240562
7.015515317,-0.732801914,4.579264164,10.11625576,-0.552816749,0.14950487,-0.043446511
7.035624796,-0.548554599,3.9625144,11.33181,-0.619246423,0.102469631,-0.097201072
7.055734327,0.247058943,2.239083767,12.6873436,-0.586260676,-0.364064962,-0.182566971
7.075843858,-0.280558467,1.673181176,13.93938828,-0.32145837,-0.465160191,-0.141029358
7.09595339,-1.60977149,2.089532375,12.39900875,0.304507345,0.185850278,0.027869906
7.116062921,-2.61714983,3.011965513,9.388239861,0.704917729,0.468519837,0.166532233
7.136172452,-2.230708838,3.492922783,7.840083599,0.510362864,-0.066582352,0.356811166
7.156281931,-0.316450805,2.952144861,9.096913338,0.027793551,-0.660631299,0.469512463
7.176391462,0.654437006,2.292922258,11.20857906,-0.126903519,-0.623369634,0.390407741
7.196500994,0.257826626,2.059622049,11.42752266,0.177756548,-0.092390649,0.261671692
7.216610525,-0.595214605,2.313859463,9.197412491,0.554343879,0.329857528,0.236779675
7.236720056,-1.027717352,2.867199659,7.23230648,0.607793033,0.295497358,0.297253549
7.256829535,-0.843469977,3.282354355,6.331408501,0.427287668,0.073148958,0.375136584
7.276939067,-0.451645285,3.579662561,6.423532486,0.203412131,-0.08933641,0.35711658
7.297048598,-0.107078813,3.684348583,7.193423271,-0.003970507,-0.198678076,0.268085599
7.317158129,0.154337063,3.572484255,8.221738815,-0.144465372,-0.221584842,0.194783926
7.33726766,0.268594354,3.488137245,9.046664238,-0.177451134,-0.160500124,0.148817658
7.357377192,0.263210505,3.446262836,9.405587196,-0.117129959,-0.10521844,0.099949881
7.377486671,0.113060869,3.432504177,9.220144272,-0.038330667,-0.023059484,0.069102094
7.397596202,-0.153140649,3.527020693,8.797810555,0.016034741,0.082006246,0.079028361
7.417705733,-0.263808698,3.681955814,8.419146538,0.043675579,0.116671823,0.113235809
7.437815265,-0.179461703,3.899702787,8.133802414,0.072996244,0.086893022,0.142251059
7.457924796,0.00418744,4.071387768,7.895118237,0.095139459,0.021226943,0.124078348
7.478034275,0.214157626,4.162314892,7.820940971,0.074676074,-0.052380152,0.087580226
7.498143806,0.489332229,4.169493675,8.119445801,0.014354911,-0.109188944,0.036574479
7.518253337,0.576072037,4.213162422,8.627322197,-0.041079476,-0.098957255,-0.01977618
7.538362869,0.48394838,4.483551502,9.347561836,-0.064444385,-0.082617089,-0.062077351
7.5584724,0.393021107,4.639084816,9.590433121,-0.011911522,-0.041537613,-0.090481751
7.578581879,0.286540508,4.754538536,9.331410408,0.038025241,-0.040621344,-0.140876651
7.59869141,0.191425815,4.841876507,9.118449211,-0.012064233,-0.110868774,-0.165157825
7.618800942,-0.038883369,4.982454777,9.380462646,-0.137135208,-0.176992998,-0.176153079
7.638910473,-0.705284476,5.644668579,9.568898201,-0.22295925,-0.152253673,-0.158438504
7.659020004,0.110069841,5.149354458,9.816555023,-0.390789539,-0.353069723,-0.167753935
7.679129535,1.341177106,3.923630953,11.42812061,-0.735001981,-0.665976226,-0.240597457
7.699239015,1.432104349,3.384049416,13.26580906,-0.902755916,-0.294428378,-0.264725924
7.719348546,0.890130043,2.790629387,13.97169113,-0.738361597,0.174396887,-0.30656898
7.739458077,0.730409086,1.683948994,13.42911911,-0.377809018,0.142021984,-0.320465744
7.759567608,0.577268481,1.293918848,12.03769207,0.122780301,0.174549609,-0.221661195
7.77967714,-0.081355967,1.600200176,9.486345291,0.672390103,0.428967476,-0.123467505
7.799786619,-1.021137118,2.381456852,7.033702374,0.974912226,0.495091707,-0.069254808
7.81989615,-1.19581306,3.075375319,5.571687698,0.904664815,0.160194695,0.057343286
7.840005681,0.133399859,3.302095175,5.575874805,0.533727765,-0.374296665,0.14301461
7.860115212,1.482353687,3.324228764,7.014559746,0.08154811,-0.645971,0.022372281
7.880224744,1.873580098,2.984447956,8.590232849,-0.246171445,-0.478446126,-0.209596962
7.900334223,1.248455167,2.599801779,9.842277527,-0.399494112,-0.119573347,-0.414383501
7.920443754,0.226719946,2.347358942,10.35494041,-0.418430358,0.184475869,-0.472719431
7.940553285,-0.555134833,2.195414782,10.42971611,-0.358720064,0.308477879,-0.372082323
7.960662817,-0.850050271,2.280359983,10.25503922,-0.205702812,0.282516867,-0.191576973
7.980772348,-0.65563339,2.626721144,9.522237778,0.014660334,0.214865521,-0.031382278
8.000881827,-0.329013109,3.108874798,8.460422516,0.173786044,0.153628081,0.038254309
8.020991358,-0.154935271,3.543172121,7.791030407,0.158820286,0.046882529,0.034131091
8.04110089,0.001794617,3.738785267,7.768298626,0.025502874,-0.016492875,0.013820419
8.061210421,-0.003589234,3.714258909,8.260622025,-0.113923013,-0.01007898,-0.029397024
8.081319952,-0.261415869,3.659822226,8.798408508,-0.153628081,0.051463883,-0.032909397
8.101429431,-0.300299227,3.667598963,8.992825508,-0.097277425,0.093917765,0.016263809
8.121538962,-0.092721879,3.792025566,8.985647202,-0.038483378,0.070400149,0.067574978
8.141648494,0.090927258,3.934398651,8.984451294,-0.020463383,0.05482354,0.09796463
8.161758025,0.084346995,4.063611031,8.876773834,0.002901525,0.150421143,0.114610218
8.181867556,-0.066400826,4.169493675,8.569295883,0.045049984,0.228915006,0.122856654
8.201977035,-0.205184549,4.29691124,8.292326927,0.072843537,0.209215179,0.143472746
8.222086567,-0.122632161,4.395615101,8.318648338,0.076661333,0.102469631,0.176153079
8.242196098,0.101096757,4.409972191,8.534002304,0.082311668,0.027029991,0.195852906
8.262305629,0.293120772,4.481158733,8.86480999,0.093612343,0.028098974,0.187453747
8.282415108,0.385842651,4.511667252,9.1860466,0.113770299,0.064902522,0.163172573
8.30252464,0.345762879,4.51346159,9.388239861,0.135608092,0.077577598,0.121024117
8.322634171,0.214755833,4.470390797,9.462417603,0.137440637,0.119726062,0.084220566
8.342743702,-0.066999033,4.496711731,9.51745224,0.102775052,0.186155707,0.075515993
8.362853233,-0.614955425,4.838885784,9.574281693,0.044744562,0.321000248,0.09521582
8.382962765,-1.741376638,5.523232937,9.794421196,-0.014813046,0.377961755,0.137058854
8.403072244,-1.902892232,5.549553871,10.48594666,-0.083533362,0.059404895,0.194173068
8.423181775,-1.642074585,5.111069202,11.54716396,-0.122933008,-0.304965496,0.238917634
8.443291306,-1.036092162,4.749752998,12.48215961,-0.069636591,-0.325734288,0.328864902
8.463400837,0.075972117,3.922434568,13.04387474,-0.007024744,-0.333828032,0.378648937
8.483510317,0.999601662,2.564507723,12.84586811,0.162943512,-0.179283664,0.366890132
8.503619848,0.902094126,2.062014818,11.43051338,0.464396626,0.235939756,0.357727438
8.523729379,0.142372951,2.502892494,9.535996437,0.66994673,0.476308137,0.374525726
8.54383891,-0.366101861,2.978466034,8.24865818,0.657577097,0.357040227,0.4065952
8.563948442,-0.130408838,3.031108141,7.999804497,0.49020493,0.048256934,0.402777404
8.584057921,0.428913444,2.647060156,8.903095245,0.266482115,-0.176229432,0.374067605
8.604167452,0.908076167,2.283949137,9.562317848,0.200205192,-0.005803049,0.364294022
8.624276983,0.676570594,2.344367981,9.142974854,0.307714313,0.293359399,0.312219292
8.644386515,0.135792688,2.705085993,7.850851059,0.408045977,0.379947007,0.253730685
8.664496046,-0.162113741,3.037688255,6.918846607,0.363759548,0.269536346,0.225326285
8.684605525,-0.210568398,3.184248686,6.507281303,0.208298922,0.088725567,0.201961368
8.704715056,-0.275174618,3.234498024,6.69152832,0.029626092,-0.013744064,0.177832902
8.724824587,-0.247058943,3.334996462,7.080960274,-0.091779798,-0.03115321,0.190507993
8.744934119,0.026919255,3.428914785,7.141379356,-0.147672325,0.024128467,0.198449001
8.765043598,0.178863496,3.601796389,7.129415035,-0.209367901,0.037414394,0.169739187
8.785153129,0.185443759,3.818944931,7.308876991,-0.283433139,-0.008704574,0.128048852
8.80526266,0.116650105,3.985246181,7.610372543,-0.332759053,-0.043064732,0.073225312
8.825372192,-0.059222359,4.122833252,7.969893932,-0.360094458,-0.04382829,0.027869906
8.845481671,-0.136989102,4.166502476,8.228319168,-0.361468852,-0.02687728,0.026953636
8.865591202,-0.011365907,4.281357765,8.414361,-0.346808523,-0.047951508,0.043904647
8.885700733,0.272781789,4.390829563,8.623732567,-0.329704821,-0.068720318,0.043446511
8.905810265,0.363709033,4.55354166,8.888737679,-0.310004979,-0.069789298,0.010155336
8.925919796,0.390628308,4.652843475,9.245268822,-0.277019233,-0.078341164,-0.035810921
8.946029327,0.367896467,4.682155609,9.60419178,-0.226318911,-0.109952509,-0.078417517
8.966138806,0.280558467,4.760520458,9.926624298,-0.155613333,-0.142021984,-0.098422766
8.986248337,0.303290278,4.797609329,10.07497978,-0.069942012,-0.192569599,-0.106516488
9.006357869,0.48394838,4.886143684,10.1330061,-0.004123219,-0.250447363,-0.114762932
9.0264674,0.798604548,4.864010334,10.01815033,0.022601349,-0.251363635,-0.144083604
9.046576879,0.975673437,4.631308079,9.912267685,-0.001527118,-0.224944502,-0.225173578
9.06668641,0.266799718,4.789832592,10.13659477,-0.061084725,-0.194249421,-0.286716431
9.086795942,-0.201595306,4.999803066,10.06660461,-0.0787993,-0.139884025,-0.263656944
9.106905473,0.228514567,4.758127689,10.21615601,-0.208451629,-0.333675325,-0.267474741
9.127014952,0.832104087,4.652245522,10.9112711,-0.396898001,-0.35841462,-0.267780155
9.147124483,1.892722726,3.83270359,11.7649107,-0.592216432,-0.360094458,-0.374220312
9.167234015,2.399402857,2.273779631,13.20060444,-0.730115175,-0.388804287,-0.551671445
9.187343546,1.693520188,1.219741344,13.95075417,-0.471115947,0.028251685,-0.586184323
9.207453025,0.311665148,1.157527924,12.39721394,0.169662833,0.652537584,-0.484936357
9.227562556,-0.669990361,1.933998942,10.02233791,0.710109949,0.633295894,-0.336500496
9.247672087,-0.669392109,2.696112871,8.237890244,0.885575831,0.060473878,-0.175542235
9.267781619,0.326620281,2.90967226,7.519444942,0.744164646,-0.428051204,-0.102240562
9.287891098,0.951745212,2.958725214,7.812565804,0.46989426,-0.411252916,-0.157674953
9.308000629,0.826720238,2.976073265,8.091927528,0.272896022,-0.057572354,-0.218606964
9.32811016,0.265603304,3.047259569,7.813762188,0.183865026,0.27869907,-0.270528972
9.348219692,-0.237487644,3.146561861,7.636095047,0.098040983,0.277324647,-0.273583204
9.368329223,-0.225523531,3.020938635,7.939385414,0.019547112,0.060626589,-0.229907632
9.388438702,-0.114855483,2.978466034,8.416155815,0.023212196,-0.051158458,-0.196311042
9.408548233,-0.153738856,3.06999135,8.348558426,0.101400644,0.027335415,-0.16256173
9.428657765,-0.204586342,3.355335474,7.821538925,0.127056226,0.12583454,-0.114762932
9.448767244,-0.105882399,3.729214191,7.42313385,0.061695572,0.17088452,-0.055205323
9.468876775,0.101694964,3.943969965,7.500302792,-0.050089475,0.129346907,-0.058412269
9.488986306,0.18005991,4.028316975,7.701898098,-0.129652336,0.108119965,-0.098270051
9.509095837,0.151944235,4.021138668,8.026723862,-0.201885015,0.062153708,-0.159507483
9.529205369,-0.037686955,3.98165679,8.608778,-0.259304673,0.014049487,-0.177069351
9.549314848,-0.059820566,3.902693748,8.913862228,-0.235634327,0.064444385,-0.140876651
9.569424379,-0.160917327,4.079762459,8.949754715,-0.188446373,0.134233683,-0.103614964
9.58953391,-0.053240303,4.259224415,8.871390343,-0.165692315,0.155460626,-0.048333291
9.609643442,0.177667081,4.368695736,8.831908226,-0.16645588,0.170426384,-0.037796173
9.629752921,0.090329058,4.493122578,8.999405861,-0.182490617,0.195471123,-0.060397524
9.649862452,-0.123828575,4.566103935,9.123234749,-0.176229432,0.209826037,-0.053678203
9.669971983,-0.317647219,4.686343193,9.19980526,-0.133775547,0.189668074,-0.021303298
9.690081515,-0.288335115,4.737190723,9.289535522,-0.079562858,0.108883523,0.023593975
9.710190994,-0.122033954,4.727619171,9.431310654,-0.029626092,0.027182704,0.059633963
9.730300525,0.011365907,4.713860512,9.699904442,0.013744064,-0.00503949,0.077195823
9.750410056,0.085543409,4.594219685,9.829116821,0.077272177,-0.014660334,0.078570232
9.770519587,-0.198604286,4.639683247,9.563513756,0.146450624,0.038177952,0.064520739
9.790629119,-1.486541033,5.508875847,8.906085968,0.142785549,0.194402143,0.091245309
9.810738598,-2.459821701,6.212365627,8.330014229,-0.000916271,0.318709552,0.188828155
9.830848129,-1.848455548,5.816353798,9.331410408,-0.372922242,-0.0645971,0.267169327
9.85095766,-0.291924357,4.293322086,12.5928278,-0.749585927,-0.674069941,0.246553227
9.87106714,0.720837832,2.787040234,16.15454292,-0.651163161,-0.888706386,0.254341513
9.891176671,1.24666059,1.420738459,16.67498207,0.102469631,-0.590383887,0.281676948
9.911286202,0.630508781,1.254437327,13.20060444,1.109298587,0.009009997,0.322298288
9.931395733,-0.105882399,2.210369825,8.317451477,1.662115335,0.333217174,0.370707929
9.951505212,-0.619741082,3.361317635,5.116453171,1.369672298,0.15057385,0.360018104
9.971614744,-0.113060869,3.534797192,5.088337421,0.502879977,-0.277324647,0.334820658
9.991724275,0.765105069,2.795415163,7.763513088,-0.27610296,-0.397050709,0.270376265
10.01183381,0.907477975,2.230708838,10.17488003,-0.442711562,0.072385401,0.17584765
10.03194334,0.110668048,2.272583246,10.29870892,-0.094986752,0.505934238,0.091856159
10.05205282,-0.480957359,2.441875458,8.416753769,0.315808028,0.550373375,0.06681142
10.07216235,-0.881156921,3.031108141,6.891329288,0.423622578,0.24357535,0.081624463
10.09227188,-0.727418065,3.333800077,6.069394588,0.259610087,-0.03771982,0.126216322
10.11238141,-0.476171702,3.482753277,6.437889099,-0.048867781,-0.143701822,0.119802415
10.13249089,-0.260817677,3.461816072,7.378268719,-0.280989736,-0.048562355,0.121787675
10.15260042,-0.07537391,3.488137245,8.170890808,-0.352764279,0.033443887,0.11384666
10.17270995,0.083748795,3.614358664,8.462217331,-0.3151972,0.036039989,0.082998872
10.19281948,0.099302143,3.759124279,8.558527946,-0.274728566,-0.005344913,0.037338037
10.21292896,-0.078963146,3.89730978,8.618349075,-0.255028725,-0.041079476,-0.005115846
10.23303849,-0.213559419,4.020540237,8.606983185,-0.234107211,-0.033902023,-0.011987877
10.25314802,-0.159720913,4.241876125,8.607581139,-0.224180937,-0.045049984,0.004810422
10.27325756,0.323031068,4.509872437,8.657830238,-0.206924513,-0.093306921,0.010766183
10.29336704,0.581455886,4.564907551,8.763114929,-0.170731813,-0.112548605,-0.053678203
10.31347657,0.19561325,4.508676052,8.867800713,-0.118504368,-0.028557109,-0.110028863
10.3335861,-0.320040017,4.47397995,8.734998703,-0.091321662,0.057419643,-0.099491745
10.35369563,-0.652044177,4.649254322,8.754739761,-0.124154702,0.098957255,-0.034741938
10.37380511,-0.614955425,4.892724037,9.175876617,-0.164012492,0.015118469,0.051234815
10.39391464,-0.133399859,4.96450901,9.949356079,-0.144159958,-0.175465882,0.07291989
10.41402417,0.421136797,4.838287354,10.42851925,-0.030847786,-0.302522093,0.051387526
10.4341337,0.693320334,4.768297195,10.4350996,0.077272177,-0.312295675,-0.013973131
10.45424318,0.401994199,4.738985062,10.4793663,0.132248431,-0.299926013,-0.089260057
10.47435271,-0.577268481,5.353940487,10.15753174,0.199899763,-0.22402823,-0.075821415
10.49446224,-0.065802626,5.437689304,9.288937569,0.192416892,-0.295039237,-0.03993414
10.51457178,1.835893154,4.487140656,10.16650486,-0.176382139,-0.819375217,-0.144847155
10.53468125,2.39162612,4.106681824,11.59442234,-0.533116937,-0.669641316,-0.248691186
10.55479078,2.351546526,3.023929596,12.61077309,-0.600920975,0.048562355,-0.415147066
10.57490032,1.317248821,2.100300074,12.52762318,-0.435228676,0.297635317,-0.542814136
10.59500985,0.473180682,1.71924305,11.32941723,-0.036803547,0.495397121,-0.441566199
10.61511938,0.165702969,1.987837434,9.572486877,0.311837524,0.493259162,-0.295726419
10.63522886,-0.113659076,2.516651154,8.540582657,0.434617817,0.193485871,-0.231282041
10.65533839,0.232702002,2.697309256,8.211568832,0.398577839,-0.14690876,-0.15782766
10.67544792,0.830309451,2.70149684,8.118846893,0.308477879,-0.135149956,-0.121940382
10.6955574,0.764506817,2.956930637,7.890930653,0.231358394,0.10521844,-0.147290543
10.71566693,0.376271367,3.198605776,7.468597889,0.162332654,0.229373142,-0.186384767
10.73577646,0.181256309,3.270988464,7.165307522,0.078188449,0.180199936,-0.211887643
10.75588599,-0.030508488,3.310470104,7.497311592,-0.061848287,0.067651331,-0.239681199
10.77599547,-0.126221389,3.186043262,8.185846329,-0.16202724,0.02107423,-0.217079848
10.796105,-0.184845552,3.202793121,8.667402267,-0.157293171,0.073148958,-0.166684941
10.81621454,-0.208773777,3.358326674,8.68774128,-0.098040983,0.110410646,-0.118122585
10.83632407,-0.125623182,3.433700562,8.541180611,-0.07070557,0.099262677,-0.080555484
10.85643355,-0.113659076,3.558127165,8.519644737,-0.078952007,0.092085227,-0.05092939
10.87654308,-0.121435747,3.662813187,8.566903114,-0.085671328,0.105676577,-0.030007871
10.89665261,-0.081954174,3.71186614,8.705088615,-0.078035735,0.08765658,-0.013820419
10.91676214,0.011964113,3.902095556,8.939585686,-0.058183201,0.02107423,0.023441264
10.93687162,0.234496623,4.118646145,8.966505051,-0.027946262,0.03939965,0.053525493
10.95698115,0.239880472,4.36989212,8.842078209,-0.007330167,0.116213694,0.037032615
10.97709068,0.169292197,4.445864677,8.746963501,0.009620844,0.158667579,0.018249061
10.99720021,0.099900343,4.514657974,8.733204842,0.032069482,0.132706568,0.012140589
11.01730969,0.075972117,4.663611412,8.791230202,0.056808796,0.111021489,0.01565296
11.03741922,0.029312078,4.777270317,8.834898949,0.064138964,0.150726557,0.01885991
11.05752875,-0.010169496,4.806582451,8.881559372,0.060321167,0.173786044,0.023135839
11.07763828,-0.00418744,4.831707001,9.062815666,0.052990999,0.124918267,0.036574479
11.09774777,0.159720913,4.740779877,9.354740143,0.056197949,0.030695075,0.036269058
11.1178573,0.306281298,4.581656933,9.696315765,0.064749807,-0.022295926,0.022372281
11.13796683,0.306879491,4.430311203,10.03609657,0.072843537,-0.020005248,0.025273805
11.15807636,0.129212424,4.506283283,10.1330061,0.11942064,0.041537613,0.065437011
11.17818584,-0.687936485,5.29591465,9.264410973,0.19043164,0.24357535,0.107585475
11.19829537,-1.101894855,5.655436516,8.252246857,0.098957255,0.269230932,0.113693945
11.2184049,-0.448056042,5.008177757,8.805587769,-0.262358904,-0.142174706,0.087427512
11.23851438,-0.209970191,4.174279213,10.79462147,-0.536782026,-0.208604336,0.046500746
11.25862391,-0.282353073,3.276372433,12.30329609,-0.470505089,-0.068720318,0.00038178
11.27873344,-0.957129061,2.676372051,12.9194479,-0.180199936,-0.153780803,-0.000992627
11.29884297,-1.640279889,2.745764017,12.05862999,0.25319618,-0.19226417,0.136448011
11.31895245,-1.6713866,3.184846878,9.998409271,0.538767278,-0.149046734,0.243957117
11.33906198,-0.851844847,3.189632654,8.998807907,0.392469376,-0.341463625,0.277859151
11.35917152,0.43609193,2.618944407,9.812367439,0.005650337,-0.492190182,0.281982362
11.37928105,0.603589535,2.168495417,10.66181946,-0.129805043,-0.044133715,0.225326285
11.39939053,-0.484546572,2.309073925,10.01575756,0.058183201,0.473406613,0.163630709
11.41950006,-1.01036942,2.679961443,8.480163574,0.265107721,0.494022727,0.221508488
11.43960959,-0.573679209,2.806781054,7.620542049,0.28862533,0.1291942,0.275721192
11.45971912,-0.024526432,2.798406124,7.729415417,0.190584347,-0.130874023,0.267627448
11.4798286,0.037088752,2.839084148,8.260622025,0.131943002,-0.039246935,0.253883392
11.49993813,-0.187836573,3.059223652,8.195417404,0.175618589,0.160347402,0.259991854
11.52004766,-0.293718994,3.399004459,7.702496052,0.221584842,0.196998239,0.278164566
11.54015714,-0.038285162,3.68674159,7.359724045,0.186002985,0.086893022,0.285800159
11.56026667,0.226719946,3.825525284,7.482954502,0.091474377,-0.023212196,0.236474246
11.5803762,0.182452723,3.81595397,7.765307903,0.02519745,-0.018630842,0.158743933
11.60048573,-0.125024989,3.915256023,7.801798344,0.018172706,0.027640838,0.109876148
11.62059521,-0.372083932,4.082753658,7.54157877,0.009162709,0.077424891,0.103920393
11.64070474,-0.400199592,4.195216179,7.359724045,-0.048867781,0.078952007,0.121482246
11.66081428,-0.25603202,4.300500393,7.712067604,-0.136677072,0.004581355,0.135684446
11.68092381,-0.064008005,4.382454872,8.28155899,-0.16279079,-0.055587102,0.134768173
11.70103329,0.023330022,4.576273441,8.589634895,-0.106134713,-0.089794546,0.100866154
11.72114282,-0.016749758,4.790431023,8.568099976,-0.047798797,-0.109341659,0.06345176
11.74125235,-0.102891371,4.928616524,8.474181175,-0.045355409,-0.132095724,0.041919392
11.76136188,-0.114257284,5.064409256,8.529216766,-0.085060477,-0.165539607,0.033062108
11.78147136,0.048454657,5.096114159,8.941978455,-0.161416382,-0.221432135,0.021303298
11.80158089,0.350548506,4.939982414,9.523433685,-0.215476364,-0.231358394,0.009544488
11.82169042,0.541376114,4.772484779,9.915857315,-0.200816035,-0.175160453,-0.024052111
11.8417999,0.379262388,4.759324074,10.18863869,-0.15500249,-0.127667084,-0.066353284
11.86190943,-0.287736923,5.333601475,10.01037312,-0.100331664,-0.053754561,-0.059328541
11.88201896,0.033499517,5.699703693,9.589835167,-0.176992998,-0.114992,-0.064368032
11.90212849,1.35912323,5.077569485,11.05842972,-0.595576048,-0.649788797,-0.171571717
11.92223797,2.385644197,3.963112593,14.11466217,-1.007058024,-0.849001348,-0.250523746
11.9423475,3.157927752,1.895713687,16.47338676,-0.95620501,-0.563812017,-0.349633694
11.96245704,2.263011932,0.787238658,15.96730518,-0.301453114,0.116519116,-0.391629458
11.98256652,0.861416161,1.290329576,12.98166084,0.554649293,0.742484868,-0.290534228
12.00267605,0.157328084,1.963310957,9.598209381,1.069440842,0.625507593,-0.222272053
12.02278558,-0.113060869,2.498106956,7.459026337,1.131289124,0.037414394,-0.189744428
12.04289511,0.07537391,2.814557552,6.83509779,0.913674772,-0.442100704,-0.139960378
12.06300459,0.579063058,3.016152859,6.931408882,0.675291657,-0.408809543,-0.090329036
12.08311412,0.950548768,3.400201082,6.642475605,0.487303406,-0.098346412,-0.116900891
12.10322365,0.888933599,3.729812384,6.254240036,0.244033486,0.198067218,-0.224104583
12.12333318,0.569491804,3.665206194,6.395416737,-0.060168456,0.302369386,-0.325810671
12.14344266,-0.001196411,3.382853031,7.243672371,-0.289847016,0.249683812,-0.393462002
12.16355219,-0.494117886,3.196810961,8.051250458,-0.334897012,0.217919767,-0.36963895
12.18366172,-0.755533755,3.287738323,8.353343964,-0.254417896,0.217461631,-0.266100347
12.2037712,-0.674775958,3.558127165,8.379665375,-0.167372152,0.145381644,-0.140113086
12.22388073,-0.206380948,3.660420418,8.334799767,-0.127972499,0.041384902,-0.053220067
12.24399026,0.148953214,3.659224033,8.501698494,-0.150115714,-0.005192202,-0.036879905
12.2640998,0.206979156,3.714857101,8.912666321,-0.187682822,0.006413896,-0.026648212
12.28420928,0.07537391,3.822534084,9.210572243,-0.182643324,0.08933641,-0.003130592
12.30431881,-0.046660043,3.912265062,9.243474007,-0.111326911,0.175465882,0.031534988
12.32442834,0.083748795,3.988237143,8.962317467,-0.020768806,0.144465372,0.071545482
12.34453787,0.200997099,4.177269936,8.559126854,0.048562355,0.109188944,0.095368527
12.36464735,0.236889437,4.378267288,8.09312439,0.086129464,0.122016743,0.086969376
12.38475688,0.165702969,4.520640373,7.637889862,0.074065231,0.156529605,0.064062603
12.40486641,0.058624156,4.621737003,7.430910587,0.009773556,0.168135703,0.046806172
12.42497589,0.021535404,4.675575256,7.762316704,-0.082006246,0.110257931,0.03397838
12.44508542,0.055633128,4.645066738,8.534002304,-0.139578596,0.035429142,0.034436513
12.46519495,0.108873427,4.627718925,9.047860146,-0.102469631,0.058794048,0.048944138
12.48530448,0.066400826,4.757529736,9.166903496,-0.04382829,0.147672325,0.048027866
12.50541396,0.086739823,4.746761799,9.151350021,-0.027793551,0.179283664,0.049554985
12.52552349,0.111864455,4.662415028,9.312267303,-0.047951508,0.153780803,0.0432938
12.54563302,0.031106694,4.461417675,9.656833649,-0.050853033,0.173633337,0.030313294
12.5657425,-0.378664196,4.519443989,9.917651176,-0.00335966,0.195318416,0.055663455
12.58585204,-1.37886405,5.474180222,9.199206352,0.079257429,0.424691558,0.117664456
12.60596157,-1.589432478,5.60279417,8.499904633,-0.035276428,0.352458865,0.145305291
12.6260711,-1.292124271,5.525027275,9.01316452,-0.390025973,0.03115321,0.172793418
12.64618058,0.072981089,4.310669899,10.83529949,-0.746302664,-0.136371657,0.144694448
12.66629011,0.888335407,2.408375978,13.01097298,-0.907642663,-0.358109206,0.025121093
12.68639964,0.31525439,1.515853167,14.03988647,-0.635281146,-0.123696573,0.000229068
12.70650912,-1.154536963,1.665404558,12.31944752,-0.005955761,0.466076464,0.087274805
12.72661865,-2.050050735,2.161915302,9.622735977,0.404533595,0.496771544,0.176153079
12.74672818,-1.752742529,2.388635159,8.6590271,0.281906009,-0.189668074,0.323825389
12.76683766,-0.022133609,1.903490424,10.24427223,-0.105371155,-0.788832903,0.453019589
12.78694719,1.10608232,1.433300734,12.07597733,-0.211811289,-0.516013205,0.465847403
12.80705672,0.767497838,1.530210137,11.91565895,0.124460131,0.173633337,0.396058083
12.82716625,-0.131007046,2.118844509,9.44207859,0.55220592,0.549304426,0.358338267
12.84727573,-0.61615181,2.771486759,7.224529743,0.670862973,0.346197695,0.350244552
12.86738527,-0.485742986,3.096312523,6.187241077,0.481653065,-0.036345411,0.336958617
12.8874948,-0.144765765,3.116053343,6.498308182,0.169968247,-0.23181653,0.278164566
12.90760433,0.038883369,3.048455954,7.529016495,-0.076050483,-0.180810794,0.214178324
12.92771381,0.083748795,3.014956474,8.458029747,-0.168288425,-0.032985751,0.178901896
12.94782334,0.142372951,3.153141975,8.770293236,-0.127972499,0.031916771,0.163478002
12.96793287,0.211166605,3.382853031,8.577671051,-0.043370154,0.017561859,0.126369029
12.98804235,0.302093864,3.49471736,8.065009117,-0.003512372,-0.027946262,0.061161082
13.00815188,0.153738856,3.611965895,7.869993687,-0.072385401,-0.065818794,-0.006642964
13.02826141,0.003589234,3.672982693,8.094321251,-0.163859785,-0.042606596,-0.019165333
13.04837089,-0.066400826,3.742374659,8.329415321,-0.184475869,0.012980504,-0.017790927
13.06848042,-0.046660043,3.862015724,8.34915638,-0.127514362,0.001374406,-0.013362284
13.08858995,0.104087785,4.015156269,8.232506752,-0.075897776,-0.106745556,-0.026037365
13.10869948,0.23509483,4.131806374,8.336593628,-0.076050483,-0.197914511,-0.050623968
13.12880896,0.324227482,4.156930923,8.623732567,-0.093001492,-0.222348407,-0.074905142
13.14891849,0.038285162,4.344169617,8.767302513,-0.093917765,-0.140342161,-0.08712209
13.16902803,-0.169292197,4.548157692,8.626724243,-0.082769804,-0.076966755,-0.06956023
13.1891375,-0.170488611,4.746163845,8.493922234,-0.110105217,-0.13438639,-0.058870405
13.20924704,0.016151553,4.78385067,8.550751686,-0.182185188,-0.233038232,-0.066505998
13.22935657,0.254237413,4.608576298,8.906683922,-0.28862533,-0.269689053,-0.107585475
13.24946605,0.190229401,4.330410957,9.770493507,-0.405449867,-0.246171445,-0.154926136
13.26957558,0.078364939,3.940979004,10.8239336,-0.43706122,-0.211353153,-0.150192067
13.28968511,-0.691525757,4.487739086,11.06560802,-0.332606345,-0.096055731,-0.101477005
13.30979464,-0.667597532,4.249652863,10.22632599,-0.287403643,-0.149046734,-0.059939388
13.32990412,0.742373228,3.037688255,11.20618629,-0.685676038,-0.929785907,-0.01565296
13.35001365,1.569691658,2.900699139,13.0259285,-1.012708426,-0.870686412,0.076737687
13.37012318,2.669791937,2.324028969,13.22453213,-0.924746394,-0.113159455,0.002367033
13.39023266,2.535793781,1.663609982,12.69751358,-0.750044107,0.478293389,-0.259533733
13.41034219,1.676770449,1.018146038,11.83071327,-0.432327151,0.890615284,-0.399875879
13.43045172,0.335593373,1.081555843,10.71864891,-0.009773556,0.95337987,-0.373762161
13.4505612,-0.45583272,1.716850281,9.647262573,0.407282412,0.526550353,-0.299544215
13.47067073,-0.361316234,2.266003132,8.677571297,0.676055193,-0.103080474,-0.283967614
13.49078027,0.235693038,2.489133835,8.12961483,0.643985748,-0.46729815,-0.314051837
13.5108898,1.030708313,2.479562521,8.404191017,0.406518847,-0.407435119,-0.348870128
13.53099928,1.379462242,2.329412937,9.052646637,0.223111957,-0.017867282,-0.431945354
13.55110881,0.763310432,2.340778828,8.904889107,0.216545358,0.336882263,-0.537774682
13.57121834,-0.473180682,2.457428932,8.323433876,0.218072474,0.458898991,-0.525099576
13.59132782,-0.709471941,2.17806673,8.076375008,0.164012492,0.307408869,-0.367653698
13.61143735,-0.390628308,2.497508526,8.169096947,0.09743014,0.096208446,-0.227769673
13.63154688,0.038883369,2.892324448,8.228917122,0.076966755,0.128736064,-0.138280556
13.65165636,0.257228434,2.962314367,8.051250458,0.053907271,0.318709552,-0.153093591
13.67176589,-0.134596273,3.133401155,8.001599312,-0.024586603,0.422400892,-0.162867144
13.69187542,-0.365503669,3.235694408,8.283353806,-0.112548605,0.306950748,-0.09521582
13.71198495,-0.260219455,3.317050457,8.737391472,-0.130110472,0.016492875,-0.027564483
13.73209443,-0.072981089,3.40498662,9.280562401,-0.03451287,-0.199441627,-0.006795676
13.75220396,0.110668048,3.438486099,9.19621563,0.110868774,-0.250752807,-0.024662958
13.77231344,-0.023928227,3.507878065,8.915657043,0.202190444,-0.135302663,-0.045584477
13.79242297,-0.154935271,3.642474174,8.773283958,0.242659077,-0.156376898,0.008628218
13.8125325,-0.117846519,3.75134778,8.909674644,0.251669079,-0.196998239,0.092925139
13.83264204,-0.080757767,3.885345697,9.034101486,0.235787049,-0.213796541,0.11552649
13.85275152,-0.143569365,4.095914364,9.240483284,0.220821291,-0.217614338,0.103614964
13.87286105,-0.08015956,4.180261135,9.521639824,0.28236416,-0.19821994,0.110945135
13.89297058,-0.078963146,4.281956196,9.425328255,0.430952728,-0.121253178,0.146068856
13.91308006,-0.014955142,4.481756687,9.212367058,0.566102684,-0.022601349,0.180123583
13.93318959,0.135792688,4.598406792,9.110074043,0.560605049,-0.009162709,0.134004623
13.95329912,0.129212424,4.670789719,9.216554642,0.43446511,-0.131484866,0.052456509
13.9734086,0.01375873,4.649254322,9.591031075,0.269078225,-0.224486366,0.021456011
13.99351813,-0.301495642,4.838287354,9.860821724,0.152864531,-0.175924003,0.067116842
14.01362766,-0.707079113,5.358128071,9.868000984,0.120031484,0.096819289,0.229296789
14.03373719,0.25603202,5.391029358,10.21316528,0.117129959,0.037261683,0.476079077
14.05384667,1.868196249,5.770291805,10.77966595,0.125376403,-0.118198946,0.642382264
14.0739562,4.389034748,5.219344616,11.34915733,0.099720813,-0.265871257,0.511202812
14.09406573,5.048257351,3.659822226,12.03709412,-0.223417386,-0.688119412,-0.158591226
14.11417521,2.446063042,2.395215511,12.03111267,-0.550831497,-0.627492845,-0.57121855
14.13428474,0.213559419,1.728814363,10.91725349,-0.500436604,0.194554851,-0.604967833
14.15439428,-2.259422779,1.785643935,9.629914284,-0.250294656,0.531131685,-0.467985362
14.17450375,-2.715255499,1.870589137,9.424132347,-0.008093726,0.152559102,-0.062535487
14.19461328,-1.568495274,2.071586132,10.02532864,0.159278423,-0.545792043,0.226853401
14.21472282,-0.481555551,2.191227436,10.35912704,0.272437871,-0.863967121,0.213720188
14.2348323,-0.407378048,2.249253273,10.2837534,0.325123459,-0.6684196,0.121024117
14.25494183,-0.640080035,2.169692039,9.725627899,0.322527349,-0.252432644,0.131561235
14.27505136,-1.051645517,2.283949137,9.023334503,0.260373652,0.07711947,0.183330536
14.29516084,-1.178465128,2.612364054,8.531609535,0.167066723,0.114839286,0.280760676
14.31527037,-0.706480861,2.776272535,8.294719696,0.118351653,0.088420138,0.389338762
14.3353799,-0.07537391,2.959921598,8.06441021,0.124460131,0.116977252,0.429807395
14.35548938,0.501894534,3.267399311,7.740781307,0.12659809,0.200968742,0.411940128
14.37559891,0.806381226,3.497110367,7.496713161,0.047951508,0.248614833,0.318785906
14.39570844,0.595812857,3.690330744,7.528418064,-0.093154207,0.26831466,0.215552732
14.41581792,0.394815743,3.608974695,7.657630444,-0.184475869,0.300994992,0.167295799
14.43592745,0.133399859,3.605385542,7.89930582,-0.192569599,0.305881769,0.156300545
14.45603698,0.139381915,3.772284985,8.272585869,-0.121558607,0.274728566,0.193867654
14.47614646,0.338584393,4.027718544,8.312067986,0.000152712,0.272285163,0.232656449
14.49625599,0.583250523,4.191627026,8.055437088,0.100484371,0.256555855,0.216621712
14.51636553,0.661017239,4.350749969,7.942974567,0.096208446,0.131179452,0.14637427
14.536475,0.661017239,4.453042984,8.011170387,0.001985254,0.003054236,0.112930387
14.55658454,0.748355269,4.512265205,8.316255569,-0.092848785,-0.002443389,0.110334285
14.57669407,0.701695263,4.627718925,8.678768158,-0.12384928,0.038483378,0.093688697
14.59680355,0.656829834,4.74436903,9.049654961,-0.085365906,0.036345411,0.086205818
14.61691308,0.777069151,4.775475979,9.521040916,-0.000916271,-0.059863031,0.073072605
14.63702261,0.806381226,4.746163845,9.850652695,0.107509121,-0.210436881,0.031534988
14.65713209,0.865005374,4.604389191,9.857233047,0.219905019,-0.30527091,0.008322794
14.67724162,1.006780148,4.603192329,9.746564865,0.256555855,-0.344059706,0.001145339
14.69735115,1.083948612,4.655236244,9.952945709,0.189515367,-0.357345641,-0.012446013
14.71746068,0.311665148,5.18046093,10.02413273,0.091627091,-0.249378398,-0.000534491
14.73757016,0.141774744,5.509474277,10.03789139,0.028557109,-0.130568609,0.103767678
14.75767969,1.658226132,5.131408215,10.71625614,-0.133164704,-0.492037475,0.076737687
14.77778917,2.391027927,5.188836098,11.36231804,-0.391094953,-0.604891479,-0.024052111
14.7978987,3.248256683,3.902095556,11.92582798,-0.61939913,-0.320847511,-0.148512244
14.81800823,3.018545866,2.370090723,11.86062336,-0.703848779,-0.015729317,-0.349480987
14.83811771,1.534995675,1.773679733,10.85025406,-0.462411374,0.606571317,-0.368875384
14.85822724,-0.18005991,2.130808592,9.43848896,0.014965758,1.070204377,-0.252508998
14.87833678,-1.354337573,2.787040234,8.335995674,0.517540336,0.974759519,-0.086663954
14.89844625,-1.089930773,3.477967739,7.645666599,0.836249888,0.315044463,0.047569729
14.91855578,0.557527661,3.671188116,7.576274872,0.820673287,-0.448972732,0.00801737
14.93866532,1.804786444,3.390629768,8.132007599,0.49127391,-0.785167813,-0.17844376
14.9587748,2.061416626,2.98863554,9.146564484,0.010231691,-0.602448106,-0.344746918
14.97888433,1.264008522,2.545963287,10.20359421,-0.354444116,-0.050700322,-0.415605217
14.99899386,-0.051445685,2.196611166,10.61396313,-0.410947502,0.480889499,-0.346426755
15.01910334,-0.784845829,2.200798512,10.35494041,-0.173480615,0.671626568,-0.130644962
15.03921287,-0.71485579,2.48793745,9.610772133,0.213491112,0.518456638,0.11720632
15.0593224,-0.215952247,2.901297569,8.725427628,0.609320164,0.248156697,0.282440513
15.07943188,0.23509483,3.343969584,7.817949772,0.91168952,0.038636088,0.346732169
15.09954141,0.562313318,3.806980848,6.652645111,1.018129706,-0.006108473,0.329628438
15.11965094,0.800399184,4.252644062,5.720042706,0.813190401,0.026724568,0.256632209
15.13976042,1.001994491,4.515256405,5.583651543,0.344517857,0.02107423,0.172946125
15.15986995,1.073180914,4.508078098,6.367300987,-0.16202724,-0.004886778,0.089260057
15.17997948,0.911067247,4.305884361,7.505088329,-0.473712057,0.01007898,0.005421269
15.20008896,0.57128638,4.220340729,8.432307243,-0.533575058,0.123085722,-0.024357535
15.22019849,0.52043891,4.253840446,8.91505909,-0.415986985,0.208298922,0.007711946
15.24030797,0.690927565,4.392624378,9.035298347,-0.222501114,0.209826037,0.02817533
15.2604175,0.709471941,4.633700848,8.855237961,-0.036803547,0.16279079,0.015958386
15.28052704,0.535992265,4.859224796,8.323433876,0.082922518,0.142785549,-0.008933641
15.30063652,0.192024022,4.996811867,7.894520283,0.082617089,0.120031484,-0.025273805
15.32074605,-0.062811591,5.152943611,7.96690321,-0.018783553,0.069636591,0.024357535
15.34085558,0.010767702,5.221737385,8.595019341,-0.111174204,-0.007482879,0.111861408
15.36096506,0.483350188,5.149354458,8.968298912,-0.093154207,-0.070552856,0.17844376
15.38107459,0.756131947,5.213362217,8.978468895,-0.03115321,-0.088725567,0.159965619
15.40118412,0.708873689,5.359324455,8.941379547,-0.027029991,-0.071010992,0.119649708
15.4212936,0.110069841,5.669793129,8.712865829,-0.105065726,0.068262182,0.084220566
15.44140313,-0.747757077,5.974279881,8.553144455,-0.263733298,0.200663328,0.10239327
15.46151266,-0.309870541,5.553143024,9.495318413,-0.540294409,-0.066887774,0.13049224
15.48162214,0.372083932,5.170291424,11.32642555,-0.833882868,-0.414918006,0.133851901
15.50173167,1.095912814,4.570291042,13.15753365,-0.90413028,-0.360094458,0.138891399
15.5218412,1.851446509,3.162713289,14.12004662,-0.731184185,-0.437977493,0.010918895
15.54195068,1.822134495,1.890329838,13.89272785,-0.361468852,-0.452485114,-0.094146833
15.56206021,0.847657442,1.501496196,12.37029457,0.136982501,-0.063986249,-0.050165832
15.58216969,-0.358923405,2.070389748,10.164711,0.595270634,0.479973227,0.122093096
15.60227922,-1.008574724,2.803191662,8.267202377,0.816702783,0.637724519,0.269307286
15.62238875,-0.90329057,3.276970625,7.203592777,0.717287421,0.357803792,0.355894893
15.64249823,-0.117846519,3.396013498,7.326822758,0.377350897,-0.09743014,0.367959112
15.66260776,0.608973384,3.183650494,8.242077827,0.014660334,-0.357192934,0.296948135
15.6827173,0.76271224,2.928216696,9.212367058,-0.188751802,-0.237466872,0.190355271
15.70282678,0.419940382,2.764308453,9.886545181,-0.220821291,-0.01007898,0.10300412
15.72293631,-0.020338992,2.638685226,9.917053223,-0.116977252,0.186002985,0.111555979
15.74304584,-0.208773777,2.711068153,9.395418167,0.064291671,0.247240424,0.185621217
15.76315532,-0.06759724,2.986242771,8.552546501,0.230289415,0.211200446,0.245026112
15.78326485,0.139980122,3.32901454,7.768897057,0.308477879,0.161110967,0.259381026
15.80337438,0.319441825,3.553939819,7.176673412,0.274423122,0.135149956,0.237695932
15.82348386,0.373280346,3.683750391,6.926623344,0.141105712,0.137287915,0.195852906
15.84359339,0.479162723,3.778266907,7.020541668,-0.038788799,0.142632842,0.157216817
15.86370287,0.50368917,3.903890133,7.508079052,-0.21150586,0.131790295,0.105294794
15.8838124,0.369691104,3.992424488,8.065009117,-0.316877008,0.108578101,0.066964127
15.90392193,0.30388847,4.022933006,8.541180611,-0.30786702,0.119115219,0.058259558
15.92403141,0.284745902,4.11744976,8.966505051,-0.213032976,0.127208948,0.063757181
15.94414094,0.26739794,4.229912281,8.983852386,-0.063986249,0.122016743,0.07933379
15.96425047,0.238684058,4.405186653,8.699705124,0.08490777,0.110716067,0.076890402
15.98435995,0.375074953,4.606183529,8.560322762,0.156529605,0.039552361,0.052151084
16.00446948,0.473778874,4.724030018,8.548956871,0.1291942,-0.057266932,0.008780929
16.02457902,0.448654234,4.742574692,8.805587769,0.06566608,-0.108272679,-0.03504736
16.04468849,0.417547554,4.706083775,9.131011009,0.015882028,-0.14171657,-0.061466504
16.06479802,0.445663214,4.630111694,9.424132347,-0.001832542,-0.164012492,-0.075515993
16.0849075,0.510867655,4.53858614,9.569496155,0.001068983,-0.137898773,-0.090939887
16.10501704,0.096311115,4.84905529,9.566504478,-0.005650337,-0.069942012,-0.101477005
16.12512657,-0.45583272,5.328217983,9.256035805,-0.021379653,0.016645588,-0.071087353
16.14523605,-0.017347964,5.060820103,9.397810936,-0.144770801,-0.114992,-0.067269556
16.16534558,0.668195725,4.783252239,10.49791145,-0.445002228,-0.367577344,-0.093383275
16.18545511,1.844866276,4.075575352,11.66321564,-0.761039317,-0.2583884,-0.0898709
16.20556459,2.581855536,2.737389088,12.88415337,-0.957884848,-0.161416382,-0.24044475
16.22567412,2.097907305,1.492523074,13.31546021,-0.851902843,-0.000610847,-0.390407741
16.2457836,0.66400826,0.936790049,12.61974621,-0.379641563,0.345739543,-0.388575226
16.26589313,-0.533599436,1.19581306,11.26481056,0.282058716,0.520594597,-0.212803915
16.28600266,-0.835095108,2.088335991,9.641879082,0.852895498,0.315502614,0.034741938
16.30611214,0.309272319,2.871985435,8.282755852,1.115407109,-0.045813546,0.205168322
16.32622167,1.758126378,3.366103172,7.518846989,0.940093935,-0.313975483,0.171571717
16.3463312,2.64227438,3.454039574,7.417151928,0.447598338,-0.323290914,0.029244313
16.36644068,2.578864574,3.229712248,8.055437088,-0.087503873,-0.13026318,-0.181956127
16.38655021,1.402792215,2.891726255,8.918049812,-0.416139692,0.197609082,-0.340012848
16.40665969,0.302692056,2.632104874,9.410373688,-0.44958359,0.340852767,-0.319854885
16.42676922,-0.17587246,2.714059114,9.275178909,-0.246324152,0.339478374,-0.168975622
16.44687875,0.029312078,3.052045345,8.733802795,0.050547611,0.230442122,-0.013667707
16.46698823,0.521037102,3.458226919,8.030911446,0.278851777,0.03283304,0.051234815
16.48709776,0.826122046,3.757329702,7.334599495,0.350473613,-0.058794048,0.03504736
16.50720724,0.905683398,3.871587038,6.837490559,0.260526359,-0.035276428,-0.020539738
16.52731678,0.761515796,3.952943087,6.902695179,0.038025241,-0.012369657,-0.088038363
16.54742631,0.418145746,3.875176191,7.46261549,-0.207993493,-0.031000499,-0.116442762
16.56753578,0.203988135,3.778266907,8.257032394,-0.330621094,-0.028557109,-0.078417517
16.58764532,0.202791721,3.809971809,8.769096375,-0.276713818,0.017867282,-0.007864659
16.60775485,0.445065022,3.86081934,8.702695847,-0.110257931,0.06291727,0.046500746
16.62786433,0.682552636,4.064807415,8.412566185,0.029320668,0.037567105,0.0432938
16.64797386,0.860817969,4.231706619,8.215756416,0.049478628,-0.04718795,0.003130592
16.66808334,0.769292474,4.310071945,8.333004951,-0.044591852,-0.07345438,-0.049096849
16.68819287,0.525224567,4.222733974,8.697910309,-0.155155197,-0.008246438,-0.064368032
16.7083024,0.288335115,4.225126743,9.113064766,-0.202954009,0.059863031,-0.033367533
16.72841188,0.276371002,4.374079704,9.503094673,-0.17088452,0.062764555,0.029244313
16.74852141,0.570688188,4.522434711,9.729216576,-0.081089973,0.018630842,0.071545482
16.76863089,0.705882669,4.656432629,9.780662537,0.018936265,0.031458635,0.053525493
16.78874042,0.500698149,4.698307037,9.788438797,0.067193195,0.034971006,0.009086353
16.80884995,0.138185501,4.712664127,9.845269203,0.03451287,-0.003054236,0.006795676
16.82895943,-0.418145746,5.067399979,9.739984512,-0.032222193,0.069789298,0.084220566
16.84906896,-0.687936485,5.411966801,9.638887405,-0.10185878,0.241284668,0.186690196
16.86917844,0.33499518,4.978865623,10.28136063,-0.272437871,0.03115321,0.196311042
16.88928797,0.609571576,4.627120972,11.24566841,-0.499214917,-0.082769804,0.136600718
16.9093975,0.205184549,4.509872437,12.19023514,-0.584122717,0.156987742,0.156605959
16.92950698,0.642472863,3.518047571,12.71845055,-0.523801506,0.058335911,0.130339533
16.94961652,1.165304661,2.215753794,12.9954195,-0.370173425,-0.230747551,0.086053111
16.96972605,0.853041291,1.533201098,12.1980114,-0.057419643,-0.078493871,0.130186826
16.98983552,-0.297906429,1.825125456,10.09591675,0.439810038,0.632532358,0.274346769
17.00994506,-1.560718536,2.685345173,8.344370842,0.842205644,0.934290886,0.38735351
17.03005454,-1.786242127,3.460619688,7.530810833,0.912911236,0.390484124,0.49364093
17.05016407,-0.254237413,3.336193085,8.268997192,0.639098942,-0.516165912,0.485089093
17.07027355,1.211366415,2.679961443,9.3367939,0.274728566,-0.910544217,0.394530982
17.09038308,1.768295884,2.151147604,10.35733318,0.033291176,-0.515402377,0.272819668
17.11049261,0.642472863,2.001596212,10.4033947,0.030084228,0.156529605,0.188370019
17.13060209,-0.306281298,2.020140409,9.300303459,0.232732803,0.588093221,0.25815931
17.15071162,-0.688534737,2.380260229,8.188837051,0.428814769,0.509141207,0.353909642
17.1708211,-0.470787853,2.840878725,7.301698208,0.536171198,0.126139954,0.459433496
17.19093063,0.449252456,3.227319479,6.751947403,0.543806791,-0.162332654,0.497611463
17.21104016,1.15094769,3.638286829,6.566503525,0.42927292,-0.189209938,0.407358766
17.23114964,1.415354609,3.794418573,6.585047722,0.200816035,-0.077272177,0.256632209
17.25125917,1.162313581,3.807579041,6.867999077,-0.077272177,-0.008857286,0.105294794
17.27136865,0.699302435,3.809373617,7.490731239,-0.289541602,-0.009926268,0.022983128
17.29147818,0.487537623,3.838685751,8.198408127,-0.363148689,-0.015423893,0.011071607
17.31158771,0.555733085,4.003192425,8.657232285,-0.306034476,-0.01175881,0.026190076
17.33169719,0.715453982,4.15633297,8.619544983,-0.1653869,-0.014202199,0.017943637
17.35180672,0.911067247,4.292125702,8.333602905,-0.042453885,-0.038483378,-0.037032615
17.3719162,0.924227774,4.454239368,8.209774017,-0.028862532,-0.084755056,-0.113999367
17.39202573,0.860817969,4.494917393,8.437092781,-0.10460759,-0.127972499,-0.16332528
17.41213526,0.669990361,4.47397995,8.796015739,-0.170273677,-0.119115219,-0.180123583
17.43224474,0.337986201,4.652843475,9.034700394,-0.154849783,-0.04214846,-0.155078843
17.45235428,0.408574462,4.881358147,9.03828907,-0.072385401,-0.003817795,-0.110945135
17.47246375,0.795015335,5.005784988,9.272188187,-0.030084228,-0.132553861,-0.134920895
17.49257329,1.057029366,4.89631319,9.875777245,-0.061695572,-0.350473613,-0.217232555
17.51268276,0.958325446,4.752145767,10.7545414,-0.128125206,-0.48241663,-0.29358846
17.5327923,0.843469977,4.470390797,11.41735363,-0.138204187,-0.421331883,-0.300460488
17.55290183,0.23509483,4.718646049,11.28514957,-0.041690327,-0.200357899,-0.232809156
17.57301131,0.351146728,4.955535889,10.69172955,0.107661828,-0.076203197,-0.147290543
17.59312084,1.529611826,4.536193371,10.54875851,0.115450129,-0.415376127,-0.213872895
17.61323032,1.395015597,4.92442894,10.2029953,0.039094225,-0.419652075,-0.287938118
17.63333985,0.973878801,5.136193752,9.759127617,-0.030389652,-0.101400644,-0.359254539
17.65344938,1.367498159,4.084548473,10.14556789,-0.211658582,-0.365133941,-0.511202812
17.67355886,1.918445587,2.87318182,10.73360443,-0.326345146,-0.453401387,-0.533498704
17.69366839,1.478764415,2.187039852,10.69113159,-0.177145705,0.030542362,-0.50249821
17.71377787,0.262612283,2.511267424,10.2347002,0.145687074,0.417666823,-0.396974355
17.7338874,0.180658117,3.031706333,9.486943245,0.483180195,0.309394151,-0.230823904
17.75399688,0.995414197,3.14895463,8.764310837,0.658035219,-0.032374904,-0.202572227
17.77410641,1.379462242,3.170490026,8.203792572,0.618788302,-0.146297917,-0.273125082
17.79421594,1.119242787,3.099901676,7.605587006,0.432632566,0.035276428,-0.320465744
17.81432542,0.561715126,3.048455954,7.428517818,0.176534861,0.198372647,-0.349175572
17.83443495,0.165702969,3.001796007,7.811369419,-0.057725064,0.236550599,-0.315120816
17.85454443,-0.034695927,2.934198856,8.267800331,-0.171342656,0.242048234,-0.23494713
17.87465396,-0.187836573,2.983849764,8.474779129,-0.118046232,0.226166204,-0.146832407
17.89476344,-0.060418773,3.226721287,8.401200294,0.022906773,0.158667579,-0.072461754
17.91487297,0.18005991,3.55992198,8.102097511,0.122474879,0.096055731,-0.035963632
17.9349825,0.322432846,3.723830223,7.706683636,0.117129959,0.077424891,-0.03993414
17.95509198,0.142971158,3.815355778,7.472187042,0.016492875,0.078952007,-0.059939388
17.97520152,-0.117248312,3.858426571,7.404589653,-0.117588095,0.097735561,-0.034436513
17.99531099,-0.201595306,3.901497364,7.448258877,-0.215018243,0.12659809,0.025121093
18.01542052,-0.077766739,3.977469444,7.649255753,-0.273201436,0.10521844,0.064368032
18.03553006,0.036490545,4.16710043,7.980661869,-0.333980739,0.032222193,0.074294299
18.05563954,0.25603202,4.210171223,8.283353806,-0.380405128,0.059252184,0.092161581
18.07574907,0.250049979,4.317250252,8.575876236,-0.397050709,0.125070974,0.084067851
18.09585855,0.008374879,4.468596458,8.903693199,-0.371395141,0.148130462,0.087885648
18.11596808,-0.072981089,4.462614059,9.017352104,-0.283738554,0.13362284,0.113693945
18.13607756,-0.105882399,4.611567497,9.096913338,-0.166150451,0.111174204,0.14194563
18.15618709,-0.031106694,4.743771076,8.991030693,-0.071316421,0.078493871,0.170197323
18.17629662,0.063409798,4.779663086,8.888737679,-0.03130592,0.057877779,0.175694943
18.1964061,0.202791721,4.906482697,9.064012527,-0.060932014,0.033749312,0.177985624
18.21651563,0.305683106,4.936393261,9.457631111,-0.137898773,0.022143213,0.164088845
18.23662511,0.191425815,4.847858906,9.973882675,-0.196692824,0.045355409,0.145916134
18.25673464,-0.074177504,4.851448059,10.3728857,-0.184170455,0.107509121,0.165310547
18.27684412,-0.994816005,5.584249973,10.25683403,-0.112090468,0.262969732,0.239986613
18.29695365,-0.850050271,5.690730572,10.07438183,-0.081089973,0.246171445,0.338943869
18.31706313,0.36311084,5.250451088,10.90828037,-0.242353648,-0.169357404,0.27999711
18.33717266,1.051047325,4.480560303,12.36550903,-0.463480353,-0.31779328,0.186384767
18.35728219,1.03549397,3.544368505,13.54756355,-0.564422846,-0.255028725,0.137975127
18.37739167,0.77108711,2.400599241,13.76351547,-0.374449372,-0.11942064,0.143778175
18.3975012,0.049651071,1.796411633,12.61615753,0.091168955,0.118809789,0.247011364
18.41761068,-0.470787853,1.852044702,10.52722359,0.653148413,0.354596824,0.431181818
18.43772021,-0.595214605,2.407777786,8.571688652,1.026681542,0.35581854,0.544035852
18.45782969,-0.365503669,2.987439156,7.262216568,1.049435616,0.166150451,0.562208533
18.47793922,-0.031106694,3.206980467,7.050451756,0.731642306,-0.090252683,0.519907355
18.49804875,0.407378048,3.022135019,7.954938889,0.259304673,-0.29641363,0.476995349
18.51815823,0.71485579,2.809772015,8.991030693,-0.049784053,-0.136066228,0.492266536
18.53826776,0.713659346,2.834896564,9.55035305,-0.056808796,0.170273677,0.467985362
18.55837724,0.524626374,2.927020311,9.299106598,0.129346907,0.30267483,0.392087579
18.57848678,0.257228434,3.040081263,8.69910717,0.30374381,0.218072474,0.310081333
18.59859625,0.001794617,3.232105255,7.979465485,0.361927003,0.057419643,0.279080838
18.61870578,0.118444718,3.331407309,7.42672348,0.314739049,-0.00503949,0.275263041
18.63881532,0.305683106,3.482155085,7.281957626,0.178061977,0.014965758,0.251287282
18.6589248,0.610169768,3.573082447,7.609774113,-0.007177455,0.026113721,0.223951876
18.67903433,0.772283495,3.58504653,8.158926964,-0.158514857,0.037567105,0.167295799
18.69914381,0.622732103,3.607180119,8.532805443,-0.191806033,0.119573347,0.114610218
18.71925334,0.299701035,3.753740549,8.570492744,-0.119878776,0.166150451,0.091703445
18.73936282,0.162711933,3.960719585,8.401798248,-0.015882028,0.131943002,0.104531236
18.75947235,0.239282265,4.215555191,8.17986393,0.067498624,0.06139015,0.120718688
18.77958188,0.364307255,4.433900356,7.997411251,0.098957255,0.017561859,0.12270394
18.79969136,0.542572558,4.597210407,8.023134232,0.067804046,-0.029931515,0.103462257
18.81980089,0.693320334,4.663012981,8.217551231,0.009162709,-0.039246935,0.08544226
18.83991037,0.744766057,4.73360157,8.517251968,-0.025961008,0.001527118,0.07124006
18.8600199,0.595812857,4.860421181,8.722436905,-0.001832542,0.040010497,0.061771929
18.88012938,0.364905447,4.993820667,8.831908226,0.07513421,-0.016340164,0.05428905
18.90023891,0.355334163,5.1296134,8.910871506,0.151948258,-0.156835035,0.070476502
18.92034839,0.867996395,5.087738991,8.898308754,0.19562383,-0.293970257,0.079486497
18.94045792,1.384247899,5.050650597,9.000003815,0.168288425,-0.34436515,0.035200074
18.96056745,1.464407444,5.184050083,9.370891571,0.065055236,-0.362232417,-0.055052608
18.98067693,1.039083242,5.260620594,9.52881813,-0.060473878,-0.271521598,-0.132324785
19.00078646,0.628115952,5.214558601,9.594620705,-0.189362645,-0.171342656,-0.161798164
19.02089594,0.704686284,5.15533638,9.934401512,-0.352306157,-0.200968742,-0.13858597
19.04100547,2.191825628,4.377668858,10.75693417,-0.541974247,-0.38605547,-0.142403767
19.06111495,3.473181963,3.119642496,11.85105228,-0.704459608,-0.551289678,-0.294046611
19.08122448,3.287738323,2.127219439,12.06102276,-0.652690291,-0.322221935,-0.443398744
19.10133396,1.669592023,1.736590981,11.0811615,-0.300384134,0.311073959,-0.475620955
19.12144349,0.248255342,2.216950178,9.915857315,0.156835035,0.57877779,-0.345815897
19.14155302,0.329611331,2.976073265,9.293125153,0.484554589,0.113006741,-0.169739187
19.1616625,1.763510346,3.336791277,8.903095245,0.583969951,-0.474170178,-0.127438009
19.18177204,2.818146944,3.483351469,8.551948547,0.474170178,-0.522427142,-0.265489489
19.20188152,2.674577475,3.62153697,8.186444283,0.173022479,-0.182490617,-0.481424004
19.22199105,1.615155339,3.512065411,8.316255569,-0.244797036,0.136524364,-0.639175296
19.24210052,0.769292474,3.130410194,9.05563736,-0.60275352,0.211963996,-0.657958865
19.26221006,0.297308207,2.807379246,9.95055294,-0.737750769,0.248920262,-0.570913136
19.28231954,-0.018544376,2.742174864,10.43330479,-0.595728815,0.292443126,-0.432098091
19.30242907,0.007178468,2.854039192,10.22154045,-0.249225676,0.298093468,-0.28625831
19.32253855,0.278165638,3.150749207,9.48873806,0.138815045,0.225097209,-0.198143587
19.34264808,0.509073019,3.44147706,8.47238636,0.411100209,0.123391144,-0.181497991
19.36275761,0.472582459,3.638885021,7.539783955,0.499825776,0.082464382,-0.210665941
19.38286709,0.168095797,3.848855257,6.920641422,0.397661567,0.107203692,-0.228227809
19.40297662,-0.101096757,3.997808456,6.764509678,0.178520113,0.115144707,-0.189133585
19.4230861,-0.081954174,4.02712059,7.195217609,-0.007941014,0.086129464,-0.139196813
19.44319563,0.043669011,4.127619267,7.837690353,-0.065513365,0.052685577,-0.106363781
19.46330511,0.234496623,4.220340729,8.185248375,-0.000458135,0.05207473,-0.097201072
19.48341464,0.239880472,4.343571186,8.229515076,0.089947261,0.037261683,-0.132324785
19.50352412,0.139381915,4.440480709,8.20857811,0.116366401,0.025350161,-0.154773429
19.52363365,0.139381915,4.393820763,8.267800331,0.047493376,0.029167956,-0.164088845
19.54374313,-0.065204419,4.29392004,8.384450912,-0.063375406,0.12048962,-0.166226804
19.56385266,-0.468993247,4.175475597,8.376075745,-0.142632842,0.285876513,-0.135379016
19.58396219,-0.816550732,4.259822369,8.395816803,-0.183406889,0.35841462,-0.066047862
19.60407167,-0.793818891,4.391427994,8.755337715,-0.219141454,0.291984975,0.01641652
19.6241812,-0.507278383,4.471587181,9.410971642,-0.240062967,0.189209938,0.09796463
19.64429068,-0.091525465,4.577469826,10.07019424,-0.186919257,0.18126893,0.165157825
19.66440021,-0.318245411,4.996811867,10.25683403,-0.065513365,0.285876513,0.198907137
19.68450969,-1.185045362,5.707480431,9.867402077,0.036956258,0.442406118,0.268696427
19.70461922,-0.803988397,5.603990555,10.17787075,-0.016645588,0.175924003,0.307332516
19.7247287,0.327218503,4.905286312,11.39880848,-0.200357899,-0.398119688,0.248996615
19.74483823,0.998405278,4.464408875,12.72144127,-0.343143433,-0.465007484,0.225631699
19.76494771,1.274178028,3.792623997,13.37288761,-0.364523113,-0.201732308,0.177222058
19.78505724,1.318445325,2.747558594,13.29093361,-0.27717194,-0.069942012,0.078264803
19.80516672,0.681954444,1.935793519,12.51506042,-0.097582847,0.06902574,0.062077351
19.82527625,-0.466002196,1.776072621,10.82094193,0.200205192,0.345892251,0.219981372
19.84538578,-1.145563841,2.304288149,9.023932457,0.548082709,0.544112206,0.429501981
19.86549526,-1.358525038,2.895913601,7.578667641,0.795170426,0.462411374,0.560986877
19.8856048,-1.05224371,3.400201082,6.648457527,0.817771792,0.110105217,0.600997329
19.90571428,-0.433699101,3.623331785,6.489933014,0.585344374,-0.251363635,0.556252778
19.92582381,0.337986201,3.346362352,6.967899323,0.221737549,-0.408045977,0.475162804
19.94593329,0.6867401,3.010170937,7.701299667,-0.121864028,-0.29900974,0.368264556
19.96604282,0.553938448,2.771486759,8.467600822,-0.359636337,-0.071927264,0.283204049
19.9861523,0.193220422,2.741576433,9.029914856,-0.466687292,0.08490777,0.255105078
20.00626183,-0.141176537,2.88454771,9.270393372,-0.419346631,0.19562383,0.288243562
20.02637131,-0.153738856,3.128615618,9.16750145,-0.248156697,0.18233791,0.336042345
20.04648084,0.159720913,3.311666489,8.806783676,-0.052532863,0.074370652,0.355131328
20.06659032,0.653240562,3.457628727,8.416155815,0.0503949,-0.014049487,0.334515244
20.08669985,0.949352384,3.631108284,8.18345356,0.030847786,0.005497625,0.278928131
20.10680938,0.853639484,3.751945972,7.856235027,-0.055739813,0.119726062,0.206848159
20.12691886,0.486341208,3.882952929,7.837690353,-0.160347402,0.160805538,0.147290543
20.14702839,0.376271367,3.916452408,8.257631302,-0.238535851,0.063528113,0.126216322
20.16713787,0.453439891,3.935595036,8.726025581,-0.234259918,-0.020157959,0.13049224
20.1872474,0.672383189,3.93679142,8.857032776,-0.118351653,-0.004886778,0.122551233
20.20735688,0.610169768,4.107280254,8.711668968,0.009773556,0.002748813,0.079028361
20.22746641,0.571884632,4.234099865,8.432905197,0.082617089,-0.031000499,0.054441761
20.24757589,0.573081017,4.291527271,8.358129501,0.073607095,-0.097277425,0.015500249
20.26768542,0.553340256,4.350749969,8.522037506,0.028251685,-0.131943002,0.003894151
20.2877949,0.510867655,4.39800787,8.851051331,0.017867282,-0.104913019,0.001908898
20.30790443,0.542572558,4.450650215,9.230313301,0.067956761,-0.134997249,-0.016263809
20.32801391,0.552143812,4.457828522,9.443872452,0.129805043,-0.180505365,-0.049707696
20.34812344,0.495912492,4.616353035,9.421140671,0.158514857,-0.174396887,-0.078722939
20.36823297,0.290129751,4.621138573,9.312865257,0.113464877,-0.160958245,-0.120871402
20.38834245,0.092721879,4.419543266,9.442676544,0.015576605,-0.229220435,-0.120413266
20.40845198,-0.108275227,4.704289436,9.756135941,-0.05635066,-0.258082956,-0.039017867
20.42856146,-0.086141616,5.252843857,10.00738239,-0.064291671,-0.189668074,0.031993125
20.44867099,1.118644595,4.753342152,10.54935646,-0.13912046,-0.457524598,-0.029244313
20.46878047,2.24566412,4.32263422,11.57707405,-0.39017868,-0.601379156,-0.165310547
20.48889,2.309073925,3.707080364,12.66042423,-0.667503357,-0.294428378,-0.292366773
20.50899948,1.783849239,2.475374937,13.09173107,-0.738819778,-0.076203197,-0.379717916
20.52910902,1.232901812,1.687538147,12.42951679,-0.436144948,0.11163234,-0.342761666
20.54921849,0.971485972,1.570888042,11.00339508,0.120031484,0.34070006,-0.22715883
20.56932802,0.601794899,2.14696002,9.471988678,0.654980958,0.370784283,-0.174625963
20.5894375,0.364905447,2.806781054,8.081160545,0.999346137,0.160194695,-0.167448506
20.60954704,0.404985219,3.384647608,6.993622303,1.055238605,-0.173327908,-0.181039855
20.62965652,1.183250785,3.541975737,6.592226505,0.795170426,-0.465160191,-0.230365768
20.64976605,2.033301115,3.3852458,6.985845566,0.279157192,-0.50165832,-0.32535252
20.66987553,2.111665964,3.091526747,7.781459332,-0.283738554,-0.201426879,-0.445231289
20.68998506,1.107876897,2.806182861,8.861818314,-0.688883007,0.198525354,-0.530291796
20.71009459,0.047258247,2.556132793,9.650253296,-0.796163023,0.360094458,-0.471650451
20.73020407,-0.366101861,2.484946251,9.963115692,-0.585955262,0.337493122,-0.289159834
20.75031355,-0.136390895,2.814557552,9.674779892,-0.173633337,0.224333659,-0.097659208
20.77042308,0.326022089,3.393620729,8.751151085,0.236550599,0.124307416,-0.003894151
20.79053261,0.580857694,3.870390654,7.719843864,0.43446511,0.026724568,-0.027717194
20.81064209,0.654437006,4.146761417,7.027719975,0.352000743,-0.050242186,-0.085900396
20.83075162,0.58803618,4.252644062,6.879963398,0.060626589,-0.031611346,-0.124536485
20.8508611,0.43609193,4.208974838,7.471588612,-0.281447887,0.012064233,-0.134462759
20.87097063,0.438484758,4.049852371,8.562117577,-0.504865289,0.024586603,-0.123162076
20.89108011,0.55154562,3.82731986,9.464810371,-0.520136416,0.045966256,-0.10239327
20.91118964,0.671186745,3.678964853,9.986445427,-0.373074949,0.057877779,-0.091703445
20.93129912,0.65563339,3.691527128,9.903294563,-0.160500124,0.088572852,-0.063757181
20.95140865,0.730409086,3.808775425,9.357132912,0.055128966,0.149810284,-0.01809635
20.97151813,0.772283495,4.066003799,8.590232849,0.201732308,0.168288425,-0.016874656
20.99162766,0.707677305,4.265206337,8.018946648,0.235023484,0.154391646,-0.041766681
21.01173714,0.593420029,4.445864677,7.901100159,0.168441132,0.099720813,-0.061619218
21.03184667,0.629312336,4.562514782,8.09312439,0.090099968,0.081700824,-0.080402769
21.05195615,0.423529595,4.640879631,8.510671616,0.026266431,0.066429637,-0.117511742
21.07206568,0.314057976,4.612165451,8.913264275,0.010231691,0.050242186,-0.119649708
21.09217516,0.260219455,4.604987144,9.31525898,0.027793551,0.056961507,-0.122093096
21.11228469,0.151944235,4.614558697,9.565308571,0.04550812,0.073301673,-0.11720632
21.13239417,0.062213387,4.587040901,9.71186924,0.045355409,0.069483876,-0.091092594
21.1525037,0.06759724,4.612165451,9.942177773,0.027029991,0.042453885,-0.046195325
21.17261318,-0.02751746,4.861019135,9.998409271,0.041537613,0.102927767,0.019165333
21.19272271,-0.673579574,5.615356445,9.548559189,0.111326911,0.312906504,0.078112096
21.21283224,-0.573679209,5.766104221,9.271589279,0.103691325,0.298704296,0.110028863
21.23294172,-0.270388961,5.748157978,9.458230019,-0.077272177,0.002596101,0.050165832
21.25305125,-0.318843603,5.510670662,10.16171932,-0.290457875,0.0193944,-0.014889402
21.27316073,0.119042926,4.129413605,11.58006477,-0.495244414,-0.187377393,-0.119802415
21.29327026,0.708873689,2.639283419,13.07378483,-0.603058934,-0.487303406,-0.154162571
21.31337974,0.608973384,1.408176184,13.43270779,-0.413849026,-0.273201436,-0.079486497
21.33348928,-0.652044177,0.988833964,11.80199909,0.141258434,0.381168693,0.138738677
21.35359875,-1.722832322,1.746162295,9.829715729,0.804027677,0.744317412,0.41911757
21.37370829,-1.862214208,2.690130949,8.094321251,1.250404358,0.451568842,0.628332734
21.39381776,-0.725623488,3.336193085,7.178467751,1.285528064,-0.186919257,0.672008336
21.4139273,0.570089996,3.584448338,7.23230648,0.902679563,-0.701252639,0.517005861
21.43403678,1.469193101,3.138186932,7.84845829,0.338409394,-0.683996201,0.357574701
21.45414631,1.574477315,2.686541557,8.726624489,-0.154086217,-0.247545853,0.216010869
21.47425578,0.425922424,2.665604353,9.353543282,-0.40377003,0.263733298,0.122856654
21.49436532,-0.583848715,2.739183664,9.157930374,-0.34696123,0.487761527,0.156911388
21.5144748,-0.811765075,2.894717216,8.866603851,-0.125223681,0.354444116,0.236474246
21.53458433,-0.250049979,3.257827997,8.651249886,0.102622338,0.007177455,0.294352025
21.55469381,0.565304339,3.558127165,8.364709854,0.244644329,-0.183559597,0.259075582
21.57480334,0.886540771,3.811168194,8.039883614,0.241437376,-0.152711809,0.145763427
21.59491282,0.844666421,3.980460405,7.779664516,0.091932513,-0.053754561,0.038712446
21.61502235,0.716052175,4.032504559,7.80897665,-0.126445383,0.013744064,-0.030007871
21.63513183,0.538385093,4.049852371,8.138587952,-0.289847016,0.046118967,-0.083609715
21.65524136,0.342771858,4.039682865,8.487939835,-0.32038939,0.040315919,-0.123467505
21.67535084,0.242273286,4.021736622,8.656634331,-0.240826532,0.007330167,-0.148664951
21.69546037,0.126221389,4.083950043,8.415556908,-0.129346907,0.002901525,-0.149123088
21.7155699,0.123828575,4.13120842,7.973483086,-0.046882529,0.020463383,-0.129117847
21.73567938,0.12023934,4.210171223,7.685746193,-0.018478129,-0.00671932,-0.118428014
21.75578891,0.354735971,4.24367094,7.723433495,-0.028557109,-0.058335911,-0.098270051
21.77589839,0.466600418,4.461417675,7.983054638,-0.064138964,-0.083380654,-0.090634465
21.79600792,0.294317186,4.696512699,8.045268059,-0.0645971,-0.034971006,-0.083304293
21.8161174,0.103489578,4.97467804,7.996214867,-0.018478129,-0.063680828,-0.108196318
21.83622693,-0.035892341,5.18046093,7.88494873,0.034971006,-0.132095724,-0.14118208
21.85633641,-0.00418744,5.237290382,8.123034477,0.033138465,-0.303132951,-0.171266303
21.87644594,0.22372891,5.263013363,8.594420433,-0.017561859,-0.494175434,-0.180887148
21.89655542,0.418743968,5.251647472,9.266803741,-0.082922518,-0.583969951,-0.193409517
21.91666495,0.842871785,5.085944653,10.00259686,-0.132706568,-0.603364408,-0.204862893
21.93677443,1.356132269,4.825126648,10.68215847,-0.18569757,-0.576792538,-0.238459498
21.95688396,1.637288928,4.493721008,11.38146114,-0.226318911,-0.498451352,-0.265794903
21.97699344,1.172483087,4.404588223,11.57408333,-0.113617592,-0.330162942,-0.234183565
21.99710297,0.022133609,5.022534847,10.94357395,0.220057726,-0.019241689,-0.142709196
22.01721245,0.221934304,5.311468124,10.48654556,0.527313888,-0.208909765,-0.038865156
22.03732198,1.809572101,5.576473236,9.927223206,0.50532341,-0.842587411,-0.078112096
22.05743146,3.460619688,5.191228867,9.643074989,0.163096219,-0.916194558,-0.269459993
22.07754099,4.420141697,3.764508247,9.985847473,-0.411711067,-0.725381136,-0.631539702
22.09765047,3.487539053,2.536391973,10.72463131,-0.937116027,-0.265565842,-0.953456223
22.11776,1.564906001,1.502094388,11.22473145,-1.100212216,0.342838019,-1.008127093
22.13786948,0.020338992,1.183250785,11.47956657,-0.858622193,0.539530814,-0.815404713
22.15797902,-0.574875653,1.514656782,11.69551849,-0.36207971,0.149810284,-0.536094844
22.17808849,0.218345061,1.756929994,11.18943691,0.244797036,-0.338867515,-0.305194557
22.19819802,1.143171072,1.977069736,9.636494637,0.738667071,-0.328177691,-0.228533238
22.2183075,0.93978107,2.533401012,7.67138958,0.879161894,-0.015271181,-0.251439989
22.23841704,0.396610349,2.892324448,6.235097408,0.638640821,0.158667579,-0.291297793
22.25852657,-0.056829538,2.920439959,6.127420425,0.159736559,0.176840276,-0.291450501
22.27863605,-0.311066955,2.791227579,7.363911629,-0.306950748,0.070400149,-0.218912393
22.29874558,-0.213559419,2.568096876,8.660821915,-0.498145938,0.036498122,-0.111097843
22.31885506,0.058025949,2.527418852,9.673583984,-0.402090222,0.07513421,-0.021303298
22.33896459,0.538983285,2.520838737,10.1772728,-0.178520113,0.027946262,0.032909397
22.35907407,0.897906721,2.387438774,10.0019989,0.013133216,0.079104722,0.049096849
22.3791836,0.760319412,2.404786825,9.719047546,0.074217945,0.173480615,0.051692948
22.39929308,0.552742004,2.519043922,9.684351921,0.034665581,0.186002985,0.094299547
22.41940261,0.613160789,2.619542599,9.729815483,0.007482879,0.167372152,0.161798164
22.43951209,0.737587571,2.795415163,9.710672379,0.050089475,0.217614338,0.19615832
22.45962162,0.805783033,3.158525944,9.530014038,0.115908265,0.258999229,0.208833411
22.4797311,1.066002488,3.388236761,9.302098274,0.140647575,0.236703306,0.198296294
22.49984063,1.253240824,3.490530014,9.168698311,0.102927767,0.200663328,0.157980368
22.51995011,1.252642632,3.513261795,9.081958771,0.046271678,0.258541107,0.112930387
22.54005964,0.993619621,3.500101328,9.096315384,-0.010537115,0.310921252,0.075515993
22.56016912,0.808774054,3.457030535,9.192625999,-0.033443887,0.303285658,0.085747682
22.58027865,0.869791031,3.465405464,9.351150513,-0.01099525,0.269536346,0.113235809
22.60038818,0.921236694,3.549154282,9.427721024,0.038177952,0.275492102,0.121482246
22.62049766,0.827916622,3.705285788,9.335597992,0.094528615,0.293206692,0.12331479
22.64060719,0.653240562,3.981058598,9.09571743,0.133775547,0.273812294,0.120413266
22.66071667,0.449252456,4.262813568,8.767900467,0.139425889,0.227998734,0.110945135
22.6808262,0.357726991,4.415356159,8.707481384,0.073607095,0.140953004,0.09155073
22.70093568,0.613160789,4.277170658,9.181260109,-0.065513365,-0.032527618,0.059481252
22.72104521,1.033101201,3.744169235,9.845867157,-0.186613843,-0.145992488,0.007864659
22.74115469,0.945164919,3.422334671,10.27537823,-0.217614338,-0.019699825,-0.023746688
22.76126422,0.469591439,3.43609333,10.29452133,-0.136982501,0.117129959,-0.011224318
22.7813737,0.309870541,3.42472744,9.79083252,0.024281178,0.110410646,0.00465771
22.80148323,0.359521598,3.503092289,9.158528328,0.162332654,0.047340661,-0.003130592
22.82159271,0.402592421,3.574278831,8.733204842,0.190278918,0.004734066,-0.031687703
22.84170224,0.339182615,3.544368505,8.607581139,0.104454882,-0.030084228,-0.062535487
22.86181172,0.211764798,3.440280676,8.703892708,-0.020463383,0.000305424,-0.074294299
22.88192125,-0.008973085,3.335594654,8.944969177,-0.109799795,0.080326416,-0.066047862
22.90203073,-0.229710966,3.209373474,9.169296265,-0.127208948,0.098804541,-0.041003123
22.92214027,-0.311066955,3.099303484,9.332008362,-0.075592346,0.033291176,-0.002367033
22.94224974,-0.234496623,3.111267567,9.360123634,0.019088976,-0.011300675,0.045584477
22.96235928,-0.102891371,3.202194929,9.188439369,0.108272679,0.020768806,0.078722939
22.98246875,-0.000598206,3.324826956,8.821739197,0.138815045,0.074676074,0.091703445