Time (s),Acceleration x (m/s^2),Acceleration y (m/s^2),Acceleration z (m/s^2),Gyroscope x (rad/s),Gyroscope y (rad/s),Gyroscope z (rad/s)
6.693530477,-0.853639484,4.874777794,10.0839529,0.293512106,0.32794863,0.248462126
6.71364006,-0.760917604,4.904089928,9.908679008,0.273354143,0.219370529,0.318862259
6.733749592,-0.383449823,4.947759151,10.21137047,0.194402143,0.077348538,0.3167243
6.753859175,0.068195447,4.636094093,10.87358475,0.133928254,-0.044515494,0.271674305
6.773968706,1.022931695,3.68674159,11.84925747,0.090099968,-0.240750179,0.194402143
6.79407829,1.124028444,2.810370207,12.28355503,0.202037737,-0.095521241,0.120031484
6.814187821,-0.12801601,2.594418049,11.02612686,0.529757261,0.306874394,0.12995775
6.834297404,-1.013360381,2.883351326,8.761320114,0.818840742,0.403846383,0.213338405
6.854406935,-1.01036942,3.346960783,7.076773167,0.79028362,0.062535487,0.257166684
6.874516519,-0.298504621,3.413959742,6.7704916,0.480889499,-0.31542626,0.211658582
6.89462605,0.093320087,3.120838881,7.5924263,0.169204697,-0.338180304,0.121711314
6.914735633,-0.16749759,2.96291256,8.458627701,0.038330667,-0.106821917,0.069483876
6.934845165,-0.614357233,2.944368362,8.788239479,0.06291727,0.062688202,0.081242688
6.954954696,-0.662213683,3.056830883,8.574081421,0.126445383,0.037948888,0.128583342
6.975064279,-0.419940382,3.298506021,8.24865818,0.150115714,-0.067727692,0.132859275
6.99517381,-0.257228434,3.466601849,7.996813297,0.113159455,-0.110334285,0.086434886
7.015283394,-0.424127817,3.59102869,7.82273531,0.025502874,-0.060397524,0.064291671
7.035392925,-0.490528643,3.739383698,7.722835064,-0.073607095,0.006032117,0.091627091
7.055502508,-0.267996132,3.97627306,7.888537884,-0.148435891,0.00801737,0.109494373
7.07561204,-0.063409798,4.180859566,8.05065155,-0.146603346,-0.016263809,0.093306921
7.095721623,-0.121435747,4.413561344,7.883154392,-0.091474377,-0.050165832,0.054670829
7.115831154,-0.179461703,4.582255363,7.602595806,-0.077883027,-0.126674444,0.029015245
7.135940738,-0.05383851,4.663012981,7.602595806,-0.140800297,-0.186079353,0.018019995
7.156050269,0.056231331,4.717449665,7.837690353,-0.199441627,-0.164546982,0.013591352
7.176159852,0.101694964,4.805984497,8.021339417,-0.188140959,-0.136295289,-0.004886778
7.196269383,0.123828575,4.889732838,8.04287529,-0.153017238,-0.142709196,-0.037414394
7.216378967,0.210568398,4.968098164,7.981259823,-0.144312665,-0.143625468,-0.066429637
7.236488498,0.175274253,5.053641319,8.182256699,-0.161721811,-0.165768668,-0.102775052
7.256598081,0.120837547,5.056034088,8.647661209,-0.158972994,-0.254646957,-0.124154702
7.276707613,0.245264322,5.020740032,9.175278664,-0.110257931,-0.307179809,-0.129346907
7.296817196,0.332602352,5.135595798,9.668199539,-0.057266932,-0.31542626,-0.14690876
7.316926727,0.208773777,5.195415974,9.976275444,-0.002748813,-0.276637465,-0.170120955
7.33703631,0,5.221138954,10.03071213,0.05207473,-0.23601611,-0.1653869
7.357145842,0.065204419,5.146363258,10.11924744,0.085671328,-0.248691186,-0.140494868
7.377255425,0.353539556,4.871188641,10.3848505,0.109036237,-0.312982857,-0.142174706
7.397364956,0.378065974,4.575077057,10.79581738,0.173786044,-0.33680591,-0.150268421
7.41747454,-0.090927258,4.700700283,10.77547836,0.315960735,-0.254799664,-0.095597595
7.437584071,0.361914426,4.509274483,10.46022415,0.455386639,-0.289770663,-0.040315919
7.457693654,0.545563579,4.728217602,9.763913155,0.52303797,-0.225173578,-0.017714571
7.477803185,0.782453001,5.070391178,8.523832321,0.498604089,-0.137975127,-0.010231691
7.497912769,2.351546526,4.525425911,7.637889862,0.195929259,-0.24823305,-0.22738789
7.5180223,2.832503796,3.747758389,8.367102623,-0.3229855,-0.252661705,-0.573432863
7.538131831,1.710269928,2.839682341,10.1084795,-0.751647532,-0.032756682,-0.789367378
7.558241415,-0.164506555,2.128415823,11.64706421,-0.830904961,0.209291548,-0.712400615
7.578350998,-1.37886405,2.181656122,12.05504036,-0.523801506,0.392698437,-0.376281917
7.598460529,-0.926022351,2.712264538,10.99083233,-0.072232686,0.415299773,-0.048867781
7.61857006,0.146560386,3.52044034,9.414560318,0.148435891,0.212651208,0.015118469
7.638679644,0.719641388,3.979862213,8.229515076,0.07513421,-0.031840414,-0.080784552
7.658789175,0.491126835,3.727419376,7.76949501,-0.121711314,-0.03840702,-0.202801287
7.678898758,-0.354735971,3.373281717,7.950153351,-0.251210928,0.105905645,-0.195318416
7.69900829,-0.783649445,3.159124136,8.05424118,-0.233038232,0.273888648,-0.068262182
7.719117873,-0.792622507,3.21954298,7.984251022,-0.112395898,0.336500496,0.073912516
7.739227404,-0.563509762,3.573680639,7.625925541,0.029626092,0.280607969,0.163096219
7.759336988,-0.342173636,3.875774384,7.133004189,0.105523862,0.193104088,0.171953499
7.779446519,-0.327218503,4.023531437,6.904489517,0.082617089,0.071545482,0.147519618
7.799556102,-0.257826626,4.011567116,7.22094059,-0.00167983,-0.01641652,0.145992488
7.819665633,-0.070588268,4.002593994,7.795217991,-0.066887774,0.024204822,0.164470628
7.839775217,0.131605253,4.10249424,8.093722343,-0.075745061,0.14118208,0.166761309
7.859884748,0.270388961,4.250251293,8.219346046,-0.066429637,0.192187816,0.148130462
7.879994331,0.495912492,4.353740692,8.493922234,-0.065055236,0.140418515,0.118962504
7.900103863,0.57128638,4.497310162,8.867800713,-0.048409645,0.115221061,0.082922518
7.920213446,0.443270385,4.679164886,9.023334503,0.016645588,0.200128838,0.071469128
7.940322977,0.321834654,4.920839787,8.830712318,0.092848785,0.275721192,0.067498624
7.96043256,0.224327117,5.215157032,8.737990379,0.086129464,0.248691186,0.045660831
7.980542144,0.079561353,5.373083115,9.264410973,-0.004428643,0.132324785,0.037261683
8.000651675,-0.079561353,5.430510998,10.20359421,-0.039246935,0.068185829,0.054976255
8.020761206,-0.415154725,5.481956482,10.69890785,0.089947261,0.130644962,0.08490777
8.04087079,-0.888933599,5.606981754,10.39202881,0.237619579,0.168822914,0.129499614
8.060980321,-1.342971683,6.036493301,9.768099785,0.222348407,0.201961368,0.244949758
8.081089904,-1.586441398,6.653841496,9.317651749,-0.010537115,0.245178819,0.349404633
8.101199435,-0.473180682,6.496513367,9.991828918,-0.430494607,-0.010918895,0.334133446
8.121309019,1.421934843,4.923830986,12.32722378,-0.829836011,-0.455462992,0.168746561
8.14141855,2.300100803,3.423531055,15.12144279,-0.900541544,-0.581908345,0.007482879
8.161528133,2.08534503,1.996810555,15.79502201,-0.39124766,-0.047264308,-0.080020994
8.181637665,0.719641388,1.261615753,13.4159584,0.388040721,0.70407784,-0.096819289
8.201747248,-0.631705165,1.842473388,9.904491425,0.915507317,1.02187109,0.030236939
8.221856831,-1.099501967,2.796013355,7.070192814,0.971247137,0.74469918,0.156376898
8.241966363,-0.701097012,3.321237803,6.059225082,0.65330112,0.093994118,0.138967753
8.262075894,-0.174077854,3.273979664,6.866204739,0.285112947,-0.305805415,0.028709821
8.282185477,-0.406181634,2.961716175,7.984848976,0.13805148,-0.188064605,-0.046577103
8.30229506,-1.058824062,2.753540754,8.394619942,0.174702317,0.08437328,-0.030084228
8.322404592,-1.436890006,2.554936409,8.027321815,0.217461631,0.212345779,0.077577598
8.342514175,-1.509871125,2.658426046,7.658827305,0.196692824,0.11720632,0.214560106
8.362623706,-1.379462242,2.888136864,7.546364307,0.184628591,-0.048791423,0.313211918
8.38273329,-1.02711916,3.090928555,7.364510059,0.216698065,-0.128354281,0.373838514
8.402842821,-0.576072037,3.375674486,7.082755089,0.196540102,-0.149123088,0.383459359
8.422952404,-0.114855483,3.500101328,7.012166977,0.074217945,-0.18180342,0.351848006
8.443061935,0.028713871,3.546163082,7.357331276,-0.076508619,-0.188522741,0.308325142
8.463171519,-0.078364939,3.7710886,7.676773071,-0.124307416,-0.097659208,0.297788024
8.48328105,-0.151346028,4.093521118,7.622336388,-0.075592346,-0.01977618,0.280989736
8.503390633,-0.045463629,4.355535507,7.308278561,-0.038788799,-0.035352785,0.251821786
8.523500165,0.250648171,4.545764923,7.256234646,-0.105829291,-0.132324785,0.19928892
8.543609748,0.33499518,4.683351994,7.608577728,-0.198067218,-0.153246313,0.141869277
8.563719279,0.185443759,4.695316315,8.011170387,-0.200816035,-0.098117344,0.098957255
8.583828863,-0.0526421,4.844269276,8.34915638,-0.140800297,-0.098270051,0.094986752
8.603938394,0.072981089,5.015954494,8.558527946,-0.06902574,-0.135379016,0.109341659
8.624047977,0.211764798,5.230710506,8.779266357,-0.045966256,-0.208069846,0.074523367
8.644157508,-0.042472601,5.535196781,9.096913338,-0.056961507,-0.286716431,0.055434387
8.664267092,-0.050847482,5.621338367,9.53898716,-0.071163706,-0.377579957,0.047951508
8.684376623,0.01375873,5.688935757,10.15334511,-0.095139459,-0.432861626,0.055128966
8.704486206,0.370289296,5.6566329,10.57807064,-0.097735561,-0.421408266,0.081242688
8.724595738,0.55154562,5.861218929,10.69591713,-0.121711314,-0.364752173,0.064444385
8.744705321,0.658624411,6.215955257,10.43809032,-0.217156202,-0.293435752,0.055281676
8.764814852,2.040479422,5.313860893,10.58405304,-0.430341899,-0.385673702,-0.100942507
8.784924435,2.167897224,4.3986063,11.03450203,-0.609320164,-0.228838652,-0.291374147
8.805033967,0.769292474,3.733401537,11.5202446,-0.514027953,0.043904647,-0.308172435
8.82514355,0.4953143,2.827120066,11.48136139,-0.117435388,0.015042114,-0.190278918
8.845253081,0.829711258,2.46221447,11.43290615,0.334591597,-0.256632209,-0.149810284
8.865362665,0.948754191,2.871387243,10.80658531,0.701405346,-0.389644206,-0.111479625
8.885472248,1.444068432,3.209373474,9.305088997,0.858393133,-0.354215056,-0.131179452
8.905581779,2.006979942,3.594617844,8.220541954,0.638335407,-0.33573693,-0.235023484
8.925691363,2.429911375,3.701696634,8.190631866,0.110257931,-0.18623206,-0.372158706
8.945800894,1.582253933,3.439682484,8.929415703,-0.348793775,0.174625963,-0.503796279
8.965910477,0.238684058,3.081955671,9.511469841,-0.48760882,0.424920619,-0.511126459
8.986020008,-0.482153773,2.898904562,9.710672379,-0.386513591,0.438817412,-0.412169188
9.006129592,-0.640080035,2.804986238,9.469595909,-0.175160453,0.291145086,-0.273812294
9.026239123,-0.392422915,2.927020311,8.820542336,0.031611346,0.148054108,-0.15393351
9.046348706,0.038883369,3.095714331,7.969893932,0.151184693,0.100255303,-0.09910997
9.066458238,0.207577363,3.244069338,7.359126091,0.127056226,0.113999367,-0.087962002
9.086567821,0.189032987,3.37387991,7.018746853,0.038636088,0.214178324,-0.06291727
9.106677352,0.082552381,3.462414265,6.906882763,-0.014507622,0.308096081,-0.049478628
9.126786935,-0.128614217,3.603590965,6.789036274,-0.000763559,0.322909147,-0.027946262
9.146896467,-0.178265289,3.83569479,6.644868374,0.009773556,0.238612205,-0.003206948
9.16700605,-0.157926291,4.100101471,6.690331936,-0.026724568,0.123772927,0.005650337
9.187115581,-0.005982057,4.214358807,7.087540627,-0.091779798,0.067727692,0.023212196
9.207225165,0.293120772,4.220939159,7.625327587,-0.148283169,0.06024481,0.044744562
9.227334748,0.396610349,4.40937376,8.115258217,-0.173022479,0.136295289,0.058488626
9.247444279,0.389431894,4.590032101,8.575278282,-0.154544354,0.199059844,0.065360658
9.267553863,0.174077854,4.718048096,8.902496338,-0.094070479,0.169739187,0.063833542
9.287663394,-0.079561353,4.858626366,9.230313301,-0.004886778,0.111097843,0.108730815
9.307772977,-0.068793654,5.06500721,9.451051712,0.074828789,0.068796672,0.185544848
9.327882508,0.139980122,5.315655708,9.572486877,0.109952509,0.060855657,0.240368396
9.347992092,0.341575444,5.511268616,9.761520386,0.101095222,0.05428905,0.257166684
9.368101623,0.473180682,5.761917114,10.15753174,0.075745061,0.076737687,0.244033486
9.388211206,0.530010223,5.933003902,10.58166027,0.069636591,0.100713439,0.20371756
9.408320738,0.451645285,5.942574978,10.75753212,0.051463883,0.135073602,0.156224191
9.428430321,0.035294134,6.029912949,10.69651508,-0.028557109,0.227311537,0.138204187
9.448539904,0.138783708,5.702096462,10.92323494,-0.175007746,0.173098847,0.148741305
9.468649435,0.535992265,5.026124001,11.47238827,-0.253807038,0.183025107,0.138967753
9.488759019,0.24047868,4.640879631,11.12662506,-0.140036732,0.310386777,0.161263675
9.50886855,0.358923405,3.916452408,10.06062317,0.038483378,0.161187321,0.130721316
9.528978133,0.245862529,3.245863914,9.543772697,0.128736064,-0.141029358,0.074828789
9.549087665,-0.345164657,3.052643538,9.443274498,0.180810794,-0.298627943,0.09743014
9.569197248,-0.679561615,2.953939438,9.178269386,0.253501624,-0.339249283,0.158667579
9.589306779,-0.430109859,2.995813847,8.937192917,0.244797036,-0.375136584,0.211658582
9.609416363,0.460618347,3.000001431,9.185447693,0.103080474,-0.405220807,0.213491112
9.629525894,1.10309124,2.832503796,9.710074425,-0.046271678,-0.287938118,0.114992
9.649635477,0.671186745,2.753540754,10.09172916,-0.034818295,-0.054899897,0.048104223
9.669745008,0.006580262,2.737389088,9.494720459,0.171189949,0.147137836,0.050242186
9.689854592,-0.490528643,3.032304525,8.361719131,0.390025973,0.136142582,0.072232686
9.709964175,-0.552143812,3.352344513,7.432705402,0.486997992,-0.024510246,0.121253178
9.730073706,-0.071186475,3.617349625,6.798008919,0.429578334,-0.223035604,0.099873528
9.75018329,0.228514567,3.832105398,6.7734828,0.248156697,-0.31649524,-0.005344913
9.770292821,0.122632161,3.682554007,7.307082176,0.054212693,-0.264573216,-0.074828789
9.790402404,-0.062811591,3.512663603,7.688737392,-0.029320668,-0.073072605,-0.072996244
9.810511935,-0.247058943,3.65563488,7.649255753,-0.032069482,0.057037864,-0.05971032
9.830621519,-0.261415869,3.871587038,7.403393269,-0.031611346,0.047875155,-0.046271678
9.85073105,-0.021535404,4.091128349,7.178467751,-0.060779303,0.002825169,-0.050547611
9.870840633,0.084945202,4.350151539,7.019345284,-0.125223681,0.034283802,-0.067193195
9.890950217,0.002392823,4.563711166,7.013363361,-0.202037737,0.077043109,-0.072385401
9.911059748,-0.133399859,4.759922504,7.252047062,-0.27717194,0.111708693,-0.059099473
9.931169331,-0.098703936,4.805984497,7.838887215,-0.361774296,0.120107845,-0.014049487
9.951278863,-0.085543409,5.023132801,8.860622406,-0.395065457,0.013514996,0.06291727
9.971388446,0.123828575,5.266004562,9.742975235,-0.286181927,-0.110945135,0.124001995
9.991498029,0.292522579,5.504688263,10.56311512,-0.139884025,-0.387811661,0.09910997
10.01160756,0.466600418,5.440680504,11.20558834,-0.029167956,-0.508606672,0.064444385
10.03171714,0.713061154,5.017150879,11.37069321,0.017103724,-0.385062844,0.081089973
10.05182668,0.811765075,4.776073933,11.24267673,0.022143213,-0.127590716,0.138356909
10.07193626,-0.366101861,5.769095421,10.22991467,0.066887774,0.157522231,0.22402823
10.09204579,-0.285344094,6.232704639,8.970093727,-0.017867282,0.009544488,0.281600595
10.11215537,2.259422779,5.087738991,9.709476471,-0.47982052,-0.672008336,0.080937259
10.1322649,3.439682484,3.527618885,12.10648632,-0.874580562,-0.628638208,-0.172564358
10.15237449,2.440679073,2.182852507,13.83171082,-0.81425941,0.09689565,-0.328788549
10.17248407,0.297308207,1.807777524,13.43569946,-0.286181927,0.649865151,-0.243880764
10.1925936,-0.52342993,2.376671076,11.97547913,0.335813284,0.495015353,-0.022143213
10.21270318,0.481555551,2.815155745,10.1282196,0.756687045,0.035658211,0.108272679
10.23281272,1.822134495,3.252444267,8.73200798,0.781120956,-0.287632704,-0.011911522
10.2529223,2.097907305,3.457030535,7.765905857,0.496618807,-0.175389513,-0.197609082
10.27303183,1.72223413,3.403192043,7.304689407,0.075592346,0.187759176,-0.330468357
10.29314142,1.002592683,3.372085333,7.746165276,-0.285418391,0.458517224,-0.369562596
10.31325095,0.643071115,3.212364435,8.458627701,-0.369715303,0.492113829,-0.336576849
10.33336053,0.552742004,3.110071182,8.776275635,-0.169510111,0.400639445,-0.32924667
10.35347011,0.428315252,3.189034462,8.484351158,0.103844032,0.248385772,-0.335202426
10.37357964,0.260219455,3.234498024,7.744370461,0.261748046,0.160729185,-0.29748261
10.39368923,0.149551421,3.380460262,7.060621262,0.272590578,0.191576973,-0.213032976
10.41379876,0.113659076,3.693321705,6.56530714,0.220668569,0.276637465,-0.135302663
10.43390834,0.153738856,3.98763895,6.354140759,0.160347402,0.273430497,-0.091779798
10.45401792,0.324227482,4.238885403,6.426523209,0.076661333,0.133851901,-0.094681323
10.47412746,0.492921472,4.289732933,6.994818687,-0.012522369,-0.078112096,-0.145228937
10.49423704,0.389431894,4.137788773,7.823931694,-0.030847786,-0.140418515,-0.164165199
10.51434657,0.095114701,4.189234257,8.310871124,0.033443887,-0.068796672,-0.113617592
10.53445615,-0.092123672,4.455435753,8.246265411,0.124001995,0.036269058,-0.032985751
10.55456568,0.050249275,4.787439823,7.922037601,0.137898773,0.058106847,0.018478129
10.57467527,0.298504621,5.136193752,7.959724426,0.04382829,-0.01565296,0.008704574
10.59478485,0.339780808,5.215157032,8.525627136,-0.073759809,-0.101477005,-0.044591852
10.61489438,0.112462662,5.21695137,9.382257462,-0.108272679,-0.077348538,-0.066429637
10.63500397,-0.150149614,5.254638672,9.963115692,-0.03939965,0.012598725,-0.037872531
10.6551135,-0.346959293,5.382654667,10.0145607,0.061848287,0.078570232,0.022906773
10.67522308,-0.467796832,5.806782246,9.866804123,0.121558607,0.064062603,0.088267431
10.69533266,-0.358923405,6.086742401,9.836894035,0.106440134,-0.01046076,0.094681323
10.7154422,-0.665802896,6.296712875,9.9643116,0.048867781,-0.003130592,0.085213192
10.73555178,-1.767697692,7.010970116,9.69452095,-0.040315919,0.108349033,0.150268421
10.75566131,-0.626919508,6.102295876,10.63310528,-0.300384134,-0.34932828,0.132553861
10.77577089,1.076770186,4.284348965,13.13420391,-0.570073187,-0.758137822,0.091474377
10.79588042,1.584048629,3.199203968,15.19920921,-0.481500357,-0.452866882,0.099873528
10.81599001,0.684945464,2.34137702,14.42393494,0.118962504,0.207764417,0.11942064
10.83609959,-0.456430912,2.517847538,11.43290615,0.801431596,0.509522975,0.204786539
10.85620912,-0.637687206,3.255435228,8.140382767,1.0841012,0.389338762,0.29015246
10.87631871,-0.088534437,3.535395384,6.090929985,0.842511058,0.02817533,0.223570094
10.89642824,0.298504621,3.324228764,6.062814236,0.300994992,-0.252967119,0.098193698
10.91653782,0.357726991,3.038286448,7.302894592,-0.100331664,-0.026342789,0.07070557
10.9366474,0.069391854,3.083750248,8.130811691,-0.195012987,0.342608959,0.037108973
10.95675694,-0.327816695,3.115455151,8.095517159,-0.124918267,0.411329269,0.029320668
10.97686652,-0.471984267,3.19980216,7.755138397,-0.018325418,0.260297298,0.060779303
10.99697605,-0.468993247,3.380460262,7.302296638,0.088572852,0.068033114,0.071163706
11.01708563,-0.402592421,3.479164124,6.90030241,0.118198946,-0.121940382,0.057266932
11.03719522,-0.286540508,3.542573929,6.723233223,0.027946262,-0.196005613,0.0645971
11.05730475,0.004785645,3.597010612,6.937989235,-0.130110472,-0.139044106,0.092085227
11.07741433,0.154337063,3.75673151,7.289734364,-0.242964491,-0.044820916,0.098193698
11.09752386,0.114257284,3.884747505,7.539186001,-0.235939756,-0.023746688,0.085060477
11.11763345,0.165104762,3.918246984,7.557730198,-0.158972994,-0.089718193,0.063986249
11.13774303,0.090329058,4.087539196,7.569694519,-0.121405892,-0.170655459,0.04382829
11.15785256,-0.184247345,4.368695736,7.678567886,-0.133470133,-0.214789167,0.044744562
11.17796214,-0.36311084,4.563112736,7.874779224,-0.152406395,-0.217232555,0.068567604
11.19807168,-0.155533478,4.676173687,8.189435959,-0.169662833,-0.232503742,0.1007898
11.21818126,0.138185501,4.839483738,8.756534576,-0.181574345,-0.279844403,0.101247937
11.23829084,0.22372891,5.01774931,9.253045082,-0.1435491,-0.263809651,0.082006246
11.25840037,0.146560386,5.201996326,9.515657425,-0.063680828,-0.212498486,0.052380152
11.27850996,-0.071186475,5.398806095,9.602396965,-0.012369657,-0.224715442,0.040468629
11.29861949,0.056231331,5.439484119,9.835697174,-0.016951011,-0.310539484,0.061542861
11.31872907,0.683150888,5.188836098,10.19880867,-0.040468629,-0.337569475,0.07711947
11.33883865,0.692722142,5.338387489,10.34177971,-0.048562355,-0.234336287,0.086129464
11.35894819,-0.04127619,6.202196121,9.706484795,-0.011147963,-0.018707197,0.153169945
11.37905777,1.396810174,5.351547718,9.357132912,-0.13362284,-0.279691696,0.144465372
11.3991673,2.979662418,4.278367043,10.19521904,-0.380710542,-0.450118065,0.042912021
11.41927688,3.01376009,3.735196114,11.16849995,-0.495397121,-0.13308835,-0.085365906
11.43938647,2.340778828,3.015554667,11.52921772,-0.429731041,0.002367033,-0.200205192
11.459496,1.937588096,2.383251429,11.7403841,-0.275644839,-0.092772424,-0.210131452
11.47960558,1.664806366,2.351546526,11.70209885,-0.063986249,-0.175236806,-0.16981554
11.49971517,1.545763373,2.496910334,11.12901783,0.130110472,-0.223799169,-0.153780803
11.5198247,1.593021631,2.797807932,9.956535339,0.195929259,-0.164394274,-0.144159958
11.53993428,1.710269928,3.088535786,8.819346428,0.068414897,0.020539738,-0.22402823
11.56004381,1.137188911,3.16032052,8.353343964,-0.190737054,0.197990865,-0.353375137
11.58015339,0.328414917,2.982653379,8.669795036,-0.392469376,0.220897645,-0.390484124
11.60026298,-0.074775711,2.761317253,9.298508644,-0.379336149,0.172946125,-0.359025478
11.62037251,-0.199202478,2.66799736,9.600004196,-0.169968247,0.124841906,-0.286945492
11.64048209,0.04007978,2.813361168,9.23270607,0.101400644,0.111250557,-0.217461631
11.66059162,0.320040017,3.127419233,8.29531765,0.282058716,0.144083604,-0.188904509
11.68070121,0.429511666,3.468994617,7.237092018,0.284807533,0.167448506,-0.195318416
11.70081079,0.399003178,3.698705673,6.662216663,0.154238939,0.172793418,-0.206160948
11.72092032,0.400797784,3.846462488,6.637690067,-0.006566608,0.198143587,-0.218988746
11.7410299,0.305084884,3.884149313,7.057630539,-0.115602844,0.19875443,-0.237161443
11.76113949,0.198604286,3.833301783,7.704290867,-0.1435491,0.153857157,-0.231969252
11.78124902,0.12801601,3.835096598,8.417351723,-0.081089973,0.182566971,-0.174091473
11.8013586,0.093320087,3.909872293,8.471190453,0.082464382,0.326421499,-0.096819289
11.82146813,0.047856454,4.248456478,7.941180229,0.222195685,0.340929121,-0.047493376
11.84157772,0.121435747,4.718048096,7.496115208,0.219905019,0.228838652,-0.024281178
11.8616873,0.315852583,5.041677475,7.717451096,0.095444888,0.002061609,-0.032069482
11.88179683,0.534197629,5.181657314,8.60159874,0.008857286,-0.127896145,-0.042606596
11.90190642,0.427118838,5.347360611,9.431310654,0.059099473,-0.107280053,-0.050242186
11.922016,0.204586342,5.537590027,9.521639824,0.228151456,-0.002672457,-0.022448637
11.94212553,0.13519448,5.742176056,8.87258625,0.320542097,0.072309047,-0.00671932
11.96223511,0.086141616,6.040082455,8.535796165,0.183559597,-0.013667707,-0.004123219
11.9823447,0.178265289,5.994618893,9.146564484,-0.086434886,-0.128048852,-0.014660334
12.00245423,-0.165104762,6.021538258,10.43210888,-0.288930744,-0.114762932,0.01175881
12.02256381,-0.364905447,6.080760479,11.49153042,-0.361163437,-0.008933641,0.085365906
12.04267334,0.291326165,5.511867046,12.27458191,-0.418430358,-0.035352785,0.115297422
12.06278292,0.393021107,5.286941528,12.7692976,-0.457677305,0.021914145,0.147825033
12.08289251,0.792024314,4.559523582,12.70947742,-0.397050709,0.021456011,0.126750812
12.10300204,1.304686546,3.135195971,12.35354519,-0.258082956,-0.014889402,0.047493376
12.12311162,0.700498819,2.352144718,11.64347458,-0.075897776,0.180276305,0.03939965
12.14322121,-0.528215587,2.228914261,10.24546814,0.179283664,0.498680443,0.15500249
12.16333074,-1.391426325,2.48733902,8.829515457,0.391400367,0.530139089,0.285418391
12.18344032,-1.768894196,2.94377017,7.859824181,0.466534585,0.278164566,0.429425627
12.20354985,-1.204187989,3.241676569,7.60678339,0.374296665,-0.11384666,0.516165912
12.22365944,-0.37148571,3.179463148,7.917850018,0.254112452,-0.202877641,0.53449136
12.24376902,0.218345061,3.087339401,8.151150703,0.202343151,-0.07291989,0.490815759
12.26387855,0.279960245,2.983251572,8.034500122,0.200357899,0.058412269,0.402242929
12.28398813,-0.07537391,2.930011272,7.736593723,0.208604336,0.085136838,0.366202921
12.30409772,-0.299102843,3.01376009,7.345965385,0.235023484,0.074141584,0.385444611
12.32420725,-0.293718994,3.160918713,6.896713257,0.269230932,0.038101599,0.408504099
12.34431683,-0.021535404,3.385843992,6.570092678,0.256403148,-0.013667707,0.418888509
12.36442642,0.498305321,3.667598963,6.495316982,0.187530115,-0.029702447,0.385902762
12.38453595,0.833898664,3.896711588,6.650850773,0.098651834,0.003894151,0.29381752
12.40464553,0.778265536,4.163511276,6.91106987,0.004123219,0.03840702,0.187835529
12.42475511,0.604785919,4.29392004,7.336992264,-0.083838783,0.03672719,0.119115219
12.44486464,0.497707099,4.332205296,7.999206066,-0.132095724,0.003436016,0.083838783
12.46497423,0.325423867,4.53858614,8.625527382,-0.105065726,0.034436513,0.102775052
12.48508381,0.366700083,4.878366947,8.898308754,-0.005344913,0.061619218,0.135302663
12.50519334,0.424726009,5.260022163,8.744570732,0.098346412,0.026190076,0.118809789
12.52530292,0.376271367,5.676373482,8.397012711,0.108272679,-0.061313793,0.077272177
12.54541251,0.285942316,5.866602898,8.337790489,-0.011453386,-0.169891894,0.029626092
12.56552204,0.271585375,5.874977589,9.06341362,-0.189820781,-0.293130338,0.017103724
12.58563162,0.649053156,5.612365723,10.32921696,-0.283738554,-0.382161319,0.047493376
12.60574115,1.421934843,5.301896572,11.81456184,-0.252279908,-0.469054341,0.056961507
12.62585074,1.676770449,5.402395248,12.67717457,-0.075439639,-0.336653203,0.050547611
12.64596032,0.793818891,6.092126369,11.46281719,0.17088452,0.003588728,0.04703524
12.6660699,1.574477315,5.233103275,9.57906723,0.098193698,-0.077501245,-0.036956258
12.68617944,2.519043922,3.649652719,9.0418787,-0.377503604,-0.077043109,-0.280837029
12.70628902,0.775274515,2.644667149,9.801599503,-0.743859232,0.413161814,-0.394607335
12.72639855,-1.192822099,2.381456852,10.4291172,-0.674375355,0.672161043,-0.233496368
12.74650813,-1.479960799,2.503490686,10.89631653,-0.309394151,0.215247303,0.06123744
12.76661772,0.232702002,2.722434044,11.19242764,0.088114716,-0.384451985,0.229525864
12.7867273,2.18105793,2.969492912,11.19003487,0.28755635,-0.663761914,0.168135703
12.80683683,3.136392355,3.288934708,11.02313614,0.219294161,-0.580839396,-0.025350161
12.82694642,2.66739893,3.538386583,10.44646549,0.096972004,0.005268557,-0.213643834
12.847056,1.460219979,3.649652719,9.17109108,0.015729317,0.584199071,-0.32558158
12.86716553,0.713659346,3.501895905,8.246265411,-0.069331162,0.636273801,-0.350015491
12.88727511,0.570688188,3.211168051,7.796414375,-0.057266932,0.385520965,-0.360094458
12.9073847,0.428315252,3.001796007,7.572087288,0.069178455,0.120107845,-0.41415444
12.92749423,0.145363972,2.92941308,7.355536938,0.186002985,0.015805673,-0.408351392
12.94760381,0.063409798,3.017947674,6.948158741,0.195471123,0.101935133,-0.333980739
12.96771339,0.046660043,3.233899832,6.646064758,0.09743014,0.232656449,-0.271674305
12.98782293,0.108873427,3.388834953,6.93619442,-0.027335415,0.224410012,-0.239452124
13.00793251,0.116650105,3.457030535,7.545766354,-0.060779303,0.153704435,-0.231358394
13.02804209,0.017347964,3.450450182,8.026124954,0.037567105,0.100713439,-0.225860775
13.04815162,-0.173479646,3.518047571,8.072785378,0.183559597,0.050776679,-0.175771296
13.06826121,-0.10767702,3.77049017,7.646264553,0.302369386,0.036574479,-0.085518613
13.08837079,0.050847482,4.221537113,7.215556622,0.341310918,0.027106347,-0.04718795
13.10848032,0.008973085,4.6432724,7.037889481,0.29122144,0.023899399,-0.043370154
13.1285899,-0.05383851,4.984847546,7.107879639,0.178520113,0.066200569,-0.031764057
13.14869949,-0.390628308,5.432903767,7.471588612,0.027640838,0.138433263,-0.027335415
13.16880902,-0.790229678,5.802595139,8.09312439,-0.105523862,0.192798659,-0.016034741
13.1889186,-1.034297585,5.787041664,9.111868858,-0.176534861,0.164852411,0.019088976
13.20902819,-1.080359459,5.684150219,10.2335043,-0.124612838,0.149275795,0.109188944
13.22913772,-0.785444021,5.753541946,10.98126125,-0.000458135,0.12713258,0.190889776
13.2492473,-0.16869399,5.65603447,11.10748291,0.046882529,0.126369029,0.203412131
13.26935688,0.043669011,5.409573555,11.1876421,-0.061848287,0.214025602,0.193180442
13.28946642,-0.905085146,5.598606586,11.25523949,-0.151184693,0.522503495,0.2948865
13.309576,-1.565504193,5.815755367,10.8999052,-0.134233683,0.741034091,0.488830507
13.32968558,-0.138783708,5.073382378,11.25284672,-0.135455385,0.360476226,0.519983709
13.34979511,0.830309451,4.118646145,12.28295708,-0.06566608,0.050165832,0.455386639
13.3699047,0.365503669,3.323032379,12.19621658,0.229984,0.09521582,0.421179175
13.39001428,-0.527617395,2.998206854,10.92024422,0.569767773,0.014736691,0.432021737
13.41012386,-0.640080035,3.038286448,9.469595909,0.679109454,-0.209596962,0.487761527
13.43023339,0.170488611,2.96291256,8.660223007,0.458593577,-0.393920124,0.468214423
13.45034298,0.735194743,2.930609465,9.229715347,0.017256435,-0.442329764,0.362690568
13.47045256,0.843469977,2.61714983,10.10010433,-0.308172435,-0.22013408,0.254876018
13.49056209,0.324227482,2.384447813,10.60798073,-0.352764279,0.11552649,0.198678076
13.51067168,-0.064606212,2.340778828,10.39023399,-0.111479625,0.302140325,0.248614833
13.53078126,-0.009571291,2.565704107,9.07477951,0.278546363,0.248691186,0.27717194
13.55089079,0.083150588,2.946162939,7.430312634,0.600768268,0.055052608,0.245102465
13.57100037,0.34037903,3.291925669,5.851647854,0.63451761,-0.213262051,0.167066723
13.59110996,0.693320334,3.518645763,5.135595798,0.333675325,-0.381245047,0.089947261
13.61121954,1.10608232,3.526422262,5.560321808,-0.062611841,-0.317258805,0.033596598
13.63132907,1.216152072,3.612564087,6.345765591,-0.288930744,-0.074752435,-0.041384902
13.65143865,1.069591761,3.743571043,6.761518478,-0.290457875,0.094299547,-0.117129959
13.67154824,0.885344386,3.772284985,6.73400116,-0.185239434,0.048944138,-0.195471123
13.69165777,0.636490822,3.878167391,6.668796539,-0.098040983,-0.115068354,-0.244186193
13.71176735,0.25603202,4.256233215,6.862615108,-0.073301673,-0.215858147,-0.239146695
13.73187694,-0.035294134,4.841876507,7.459624767,-0.057572354,-0.285036594,-0.186002985
13.75198647,0.055034921,5.420939922,8.024929047,0.022143213,-0.294504732,-0.149810284
13.77209605,0.251246363,5.906084538,8.102695465,0.11942064,-0.247774914,-0.169662833
13.79220563,0.546161771,5.989234924,8.014759064,0.101706065,-0.324436247,-0.247393146
13.81231522,0.936191857,5.843871117,8.166703224,-0.093917765,-0.43942824,-0.347419381
13.83242475,0.488135815,6.02811861,9.265008926,-0.357651085,-0.355131328,-0.393691063
13.85253433,0.044267219,5.717649937,11.1056881,-0.411252916,-0.211582214,-0.324359894
13.87264392,-0.069990061,5.133800983,12.18185997,-0.127972499,-0.210665941,-0.195165694
13.89275345,0.104087785,5.194219589,12.16570854,0.231511116,-0.325810671,-0.090099968
13.91286303,-0.415752947,6.440282345,11.28275681,0.415681571,-0.338943869,0.018019995
13.93297261,0.79920274,6.384050846,10.24786091,0.257472128,-0.496542454,-0.000458135
13.9530822,2.336591244,5.463412285,10.57089233,-0.255181432,-0.542661429,-0.194402143
13.97319173,2.851646423,4.152743816,12.14297676,-0.760657549,-0.246705934,-0.311684817
13.99330131,2.679961443,2.458027124,13.56371498,-0.837013483,0.175694943,-0.35474956
14.01341089,1.229910851,1.726421595,13.18744373,-0.339325666,0.637495458,-0.249989241
14.03352042,0.081355967,2.143370867,11.51127148,0.35062632,0.548922598,-0.096666582
14.05363001,0.138185501,2.720041037,9.426525116,0.846939743,-0.01977618,0.03451287
14.07373959,1.261615753,3.227917671,7.885547161,0.900083423,-0.504178047,0.026571855
14.09384918,2.120040894,3.43609333,6.956533432,0.627492845,-0.441871643,-0.102011494
14.11395871,1.651047587,3.663411379,6.491129398,0.216392636,-0.063757181,-0.282669574
14.13406829,0.598205686,3.648456335,6.607181549,-0.144159958,0.201961368,-0.360858023
14.15417787,0.165104762,3.427120209,7.144370079,-0.308630586,0.211429507,-0.336424142
14.17428746,0.099900343,3.366103172,7.640282631,-0.251821786,0.167906642,-0.302827537
14.19439699,0.159720913,3.44985199,7.907082558,-0.089030989,0.015805673,-0.282974988
14.21450657,0.340977222,3.640679598,7.814360619,0.044439137,-0.079486497,-0.270147204
14.23461615,0.375074953,3.932005882,7.408777237,0.063375406,0.027717194,-0.251821786
14.25472568,0.313459754,4.14197588,6.843472958,-0.00671932,0.168517485,-0.22738789
14.27483527,0.283549488,4.311866283,6.68016243,-0.112243183,0.203030363,-0.207840785
14.29494485,0.54317075,4.404588223,7.02652359,-0.175465882,0.119649708,-0.196540102
14.31505444,0.770488918,4.449453831,7.616952896,-0.16721943,0.017638214,-0.234107211
14.33516397,0.64725852,4.570889473,8.062616348,-0.118046232,-0.022066858,-0.25686127
14.35527355,0.499501735,4.727021217,8.179265976,-0.068109468,0.030924143,-0.228151456
14.37538313,0.484546572,4.990829945,8.140980721,-0.015118469,0.116442762,-0.182948753
14.39549272,0.452243477,5.350351334,8.131409645,0.024128467,0.100866154,-0.161721811
14.41560225,0.426520646,5.748756409,8.156534195,0.03451287,0.040086851,-0.158667579
14.43571183,0.350548506,5.98803854,8.401798248,-0.011300675,-0.045737188,-0.192111462
14.45582142,0.139980122,5.984449387,9.058030128,-0.10628742,-0.144083604,-0.212422133
14.47593095,-0.061016977,5.810371399,9.923633575,-0.177756548,-0.150192067,-0.176687568
14.49604053,-0.141176537,5.527420521,10.67916775,-0.167524859,-0.041308545,-0.109799795
14.51615011,-0.369092882,5.419743061,11.01476097,-0.085671328,0.103462257,0.009315421
14.5362597,-0.756131947,5.84446907,10.69771194,0.012980504,0.180123583,0.146450624
14.55636928,-0.978664458,6.387639999,10.05464077,0.028557109,0.079181075,0.233496368
14.57647881,-0.088534437,5.939583778,10.50329494,-0.133928254,-0.299544215,0.217308909
14.59658839,0.529412031,4.962714195,11.87797165,-0.294581085,-0.418964863,0.175007746
14.61669798,0.541974306,3.98165679,12.6125679,-0.2521272,-0.064215317,0.192875028
14.63680751,0.054436713,3.22492671,11.83849049,0.031611346,0.330392003,0.29015246
14.65691709,-0.47557351,3.173480988,10.24845982,0.37246412,0.378648937,0.347113967
14.67702668,-1.039681435,3.456432343,8.662017822,0.616497576,0.16332528,0.393996477
14.69713626,-1.047458172,3.691527128,7.630113125,0.632685065,-0.231129333,0.418888509
14.71724584,-0.471386075,3.867399693,7.744968891,0.401937485,-0.528153837,0.426065952
14.73735537,0.640080035,3.62153697,8.288139343,0.104454882,-0.398501486,0.392927498
14.75746496,1.181456208,3.272184849,8.792427063,-0.144770801,-0.064826168,0.284349412
14.77757454,1.045065284,3.095714331,9.083154678,-0.256708562,0.243193567,0.22738789
14.79768412,0.623330295,3.127419233,8.558527946,-0.177145705,0.458211809,0.187835529
14.81779365,0.024526432,3.212962627,7.593024254,-0.004275931,0.433472484,0.160652831
14.83790324,-0.255433828,3.420539856,6.728617191,0.147214189,0.238764927,0.200816035
14.85801282,-0.105882399,3.697509289,6.083751678,0.198067218,-0.006490252,0.230136707
14.8781224,0.331405938,3.959523201,5.787639618,0.136066228,-0.096284799,0.231205687
14.89823194,0.644267499,4.214358807,5.762515068,0.008093726,-0.023593975,0.188599095
14.91834152,0.62751776,4.405784607,5.998208046,-0.131943002,0.023593975,0.115602844
14.9384511,0.482751966,4.457828522,6.727420807,-0.226318911,-0.073988877,0.066124216
14.95856068,0.379262388,4.556532383,7.676175117,-0.21959959,-0.170197323,0.063069977
14.97867022,0.327816695,4.854438782,8.293522835,-0.120336913,-0.140723944,0.083686076
14.9987798,0.327816695,5.091926575,8.251050949,-0.008093726,-0.047264308,0.08322794
15.01888938,0.254237413,5.266004562,7.919046402,0.014813046,-0.050318543,0.0787993
15.03899897,0.387637258,5.452046394,8.03928566,-0.050700322,-0.16592139,0.093917765
15.0591085,0.707677305,5.503491879,8.756534576,-0.092848785,-0.250065595,0.088267431
15.07921808,0.773479939,5.520840168,9.369695663,-0.040163208,-0.268391013,0.072232686
15.09932766,0.608973384,5.718846321,9.626923561,0.046882529,-0.25449425,0.07711947
15.11943725,0.481555551,5.91266489,9.418149948,0.104302168,-0.254952371,0.092848785
15.13954678,0.78783685,5.949753284,9.058030128,0.044133715,-0.319244057,0.091932513
15.15965636,1.747956991,5.658427238,9.56770134,-0.16279079,-0.445536733,0.032222193
15.17976595,2.121237278,5.161318302,10.93998528,-0.361927003,-0.406442493,-0.072079979
15.19987553,0.790229678,5.50109911,12.01496029,-0.31412819,-0.106058352,-0.047951508
15.21998506,1.21555388,4.988437176,12.17827129,-0.079562858,-0.138127834,0.019852536
15.24009464,2.593221426,4.410570145,12.1352005,0.062611841,-0.263198823,-0.029931515
15.26020423,2.241476536,4.624129772,11.32941723,0.180199936,-0.000839915,-0.083380654
15.28031381,1.93040967,4.365705013,9.70468998,0.295039237,0.152024612,-0.167066723
15.30042339,2.006979942,4.267599106,8.397610664,0.2081462,0.035505496,-0.292290419
15.32053292,2.202593327,3.838685751,8.502297401,-0.110257931,-0.21020782,-0.446682066
15.34064251,1.716252089,3.125026464,9.70468998,-0.329857528,-0.214178324,-0.510821044
15.36075209,1.232303619,2.821137905,10.29930687,-0.25945738,-0.008475506,-0.459357142
15.38086168,0.969093144,3.035893679,9.76211834,-0.050089475,0.217385262,-0.393538356
15.40097121,0.812363267,3.482753277,8.560921669,0.062153708,0.254036099,-0.375365645
15.42108079,0.798604548,3.719642878,7.558926582,0.027335415,0.178596467,-0.372311413
15.44119037,0.826720238,3.714258909,6.973283291,-0.052380152,0.136600718,-0.392011225
15.46129996,0.53479588,3.778266907,6.7202425,-0.112243183,0.101018868,-0.42301172
15.48140954,0.290129751,3.701098442,6.56530714,-0.145381644,0.120260552,-0.409573078
15.50151907,0.139381915,3.704089403,6.519843578,-0.184017733,0.138891399,-0.362690568
15.52162865,0.110069841,3.786043644,6.796214581,-0.216698065,0.102851406,-0.311073959
15.54173824,0.346959293,3.802793503,7.194619656,-0.19928892,0.066964127,-0.273354143
15.56184782,0.501894534,3.918246984,7.642077446,-0.147366896,0.051387526,-0.266787529
15.58195735,0.387039065,4.092324734,7.95254612,-0.06902574,0.07291989,-0.240062967
15.60206694,0.133399859,4.340580463,8.109873772,0.030542362,0.079639211,-0.187377393
15.62217652,0.078364939,4.677370071,7.99202776,0.127972499,0.049707696,-0.127361655
15.6422861,0.265005112,4.984249592,7.935796261,0.16279079,-0.004810422,-0.10628742
15.66239569,0.311066955,5.208576679,8.009375572,0.141258434,-0.010918895,-0.096055731
15.68250522,0.220737889,5.432903767,8.156534195,0.110868774,0.027259059,-0.091168955
15.7026148,0.05383851,5.614758492,8.295916557,0.087351158,0.069102094,-0.092237934
15.72272438,-0.086739823,5.689534187,8.781659126,0.041384902,0.023441264,-0.083533362
15.74283397,-0.145962179,5.595615864,9.592227936,0.021379653,-0.053067356,-0.05971032
15.76294355,-0.291924357,5.416752338,10.36032391,0.084755056,-0.080860905,-0.015118469
15.78305308,-0.091525465,5.195415974,10.76710415,0.179589093,-0.055510744,0.069789298
15.80316266,0.108873427,5.264209747,10.80239773,0.237619579,0.103614964,0.147977755
15.82327225,-1.324427366,6.479165554,9.963713646,0.250447363,0.516700447,0.251669079
15.84338183,-1.086939692,6.386443615,9.431908607,0.10185878,0.326268792,0.348641068
15.86349136,0.493519664,5.524429321,10.26640511,-0.204481125,-0.156758681,0.287403643
15.88360095,0.427118838,4.828716278,12.03410339,-0.342990726,-0.208680689,0.191806033
15.90371053,-0.4444668,3.923630953,12.48096275,-0.149352148,-0.098270051,0.177603841
15.92382011,-0.733998358,3.348157167,11.96231842,0.068414897,-0.167295799,0.216698065
15.94392964,-0.412163705,2.928216696,11.30608654,0.098346412,-0.282898635,0.299620569
15.96403923,0.294915378,2.418545485,10.98365402,0.029320668,-0.261366278,0.372158706
15.98414881,0.954736233,2.42273283,10.96331501,-0.041690327,-0.092772424,0.416903257
16.00425839,1.320239902,2.527418852,10.92921734,-0.066735066,0.148817658,0.383153945
16.02436798,0.843469977,2.556730986,10.328619,0.030847786,0.359559953,0.333522618
16.04447756,0.394815743,2.651845694,9.056833267,0.233343646,0.40399912,0.335965991
16.06458709,0.400797784,2.860021353,7.60319376,0.439657301,0.294962883,0.329093963
16.08469668,0.612562597,3.0448668,6.265007973,0.525786758,0.06345176,0.252279908
16.10480626,0.814756095,3.2895329,5.739185333,0.377503604,-0.182414264,0.143701822
16.12491584,0.841077149,3.322434187,5.982056618,0.124001995,-0.185010359,0.084449634
16.14502542,0.565304339,3.376870871,6.501298904,-0.026571855,0.01137703,0.035276428
16.16513496,0.229710966,3.563511133,6.976872444,-0.041690327,0.115373775,0.039552361
16.18524454,0.44745782,3.774677753,7.095317364,0.025961008,0.070018366,0.056961507
16.20535412,0.659222662,4.09172678,7.039684296,0.089489125,-0.004810422,-0.010384403
16.22546371,0.460618347,4.313062668,7.00439024,0.08597675,-0.023441264,-0.079715565
16.24557329,-0.011964113,4.517050743,7.069594383,0.039094225,0.04161397,-0.065360658
16.26568282,-0.288933337,4.826921463,7.214958668,0.01099525,0.099033609,-0.002443389
16.2857924,-0.193220422,5.109274387,7.49132967,0.016951011,0.05428905,0.04871507
16.30590199,0.16869399,5.330610752,7.912466049,0.050242186,-0.065895148,0.078646585
16.32601157,0.433699101,5.653641701,8.147561073,0.104454882,-0.135531738,0.060932014
16.34612115,0.285942316,6.054439545,8.224729538,0.115908265,-0.137364283,0.013744064
16.36623068,-0.017946171,6.205785751,8.179265976,0.059404895,-0.138433263,-0.006108473
16.38634027,-0.010169496,6.007779598,8.586046219,-0.052990999,-0.285647452,0.006261184
16.40644985,0.598803878,5.548357487,9.722636223,-0.1435491,-0.453325033,0.050547611
16.42655944,0.282951266,6.262016773,10.55533886,-0.128736064,-0.356811166,0.125070974
16.44666902,0.681954444,6.761518478,10.16171932,-0.09101624,-0.26335153,0.190278918
16.46677855,3.090928555,5.803193092,10.39980507,-0.392011225,-0.397279799,-0.014507622
16.48688813,4.056432724,4.46620369,12.23031521,-0.877023935,-0.278164566,-0.28602922
16.50699772,2.706282377,3.280559778,13.84367561,-0.985602081,0.320618451,-0.43293801
16.5271073,0.449252456,2.847458839,13.8993082,-0.567935228,0.653377473,-0.388804287
16.54721688,-0.169292197,2.953341246,13.21615791,0.032527618,0.220592216,-0.196081966
16.56732647,1.42971158,2.751147747,11.9276228,0.520900011,-0.2696127,-0.083075225
16.587436,2.37248373,3.060420275,10.43629551,0.684454382,-0.349480987,-0.16202724
16.60754558,2.14157629,3.350549936,8.502297401,0.565033734,-0.098880902,-0.260220945
16.62765516,1.487737536,3.602992773,6.852446079,0.277324647,0.198601708,-0.329552084
16.64776475,1.101894855,3.742374659,6.357131481,-0.059557609,0.312372029,-0.363454133
16.66787433,0.890130043,3.607180119,6.617949009,-0.253654331,0.277401,-0.395981729
16.68798386,0.515653253,3.4809587,6.97627449,-0.204939261,0.245331526,-0.446376622
16.70809345,-0.16869399,3.530609846,6.862017155,-0.020921519,0.212193072,-0.44439137
16.72820303,-0.66699934,3.668197155,6.336792469,0.120642334,0.138433263,-0.365592092
16.74831261,-0.742373228,3.863810301,5.980261803,0.122016743,0.069865659,-0.25319618
16.7684222,-0.459421933,4.009772778,6.160920143,0.036956258,0.033520244,-0.158667579
16.78853173,-0.122632161,4.106681824,6.778268337,-0.018019995,0.041003123,-0.105981998
16.80864131,0.093320087,4.298107624,7.293323517,0.005650337,0.098117344,-0.082006246
16.82875089,0.129810631,4.540979385,7.42612505,0.06291727,0.138127834,-0.08933641
16.84886048,-0.097507522,4.788038254,7.604390144,0.107814543,0.070934638,-0.07513421
16.86897006,0.030508488,4.998008251,7.915457249,0.156682327,-0.011224318,-0.011911522
16.88907964,0.348753899,5.268397331,8.114061356,0.222501114,-0.027717194,0.021532366
16.90918918,0.409770876,5.682953835,7.905287743,0.283280402,0.052456509,0.019547112
16.92929876,0.25603202,6.140581131,7.556533813,0.255334169,0.126216322,-0.015423893
16.94940834,-0.18005991,6.700501442,7.875377655,0.116213694,0.07291989,-0.018325418
16.96951792,-0.205782741,6.873383045,8.871988297,0.016034741,-0.045737188,0.015271181
16.98962751,0.101694964,6.83569622,9.850054741,0.026113721,-0.057496,0.0219905
17.00973709,0.189032987,6.737590313,10.44048309,0.078646585,0.047722444,0.034971006
17.02984668,-0.036490545,6.596413612,10.9058876,0.084755056,0.254646957,0.096513867
17.04995621,-0.778265536,7.273582458,10.60917759,0.092085227,0.539607227,0.219446883
17.07006579,-0.707079113,7.456035137,9.774680138,-0.005497625,0.422629952,0.211963996
17.09017537,0.491725057,6.501298904,11.03749275,-0.330773801,-0.398501486,0.039857782
17.11028496,1.217946768,4.852046013,13.66182041,-0.494633555,-0.932229281,-0.115908265
17.13039454,0.726819873,3.651447296,14.67577934,-0.158209443,-0.511202812,-0.101247937
17.15050407,-0.38285163,3.339184046,12.84048462,0.433701545,0.329017609,0.041537613
17.17061365,-1.143171072,3.960719585,9.729815483,0.693617046,0.490128577,0.170426384
17.19072324,-0.952941597,4.245465755,7.395018578,0.480125934,0.212498486,0.279920757
17.21083282,-0.066999033,3.824927092,6.616154671,0.108883523,-0.004504999,0.299620569
17.2309424,0.395413935,3.560520172,7.639086246,-0.197456375,-0.150344789,0.21257484
17.25105199,0.332602352,3.366701365,8.688339233,-0.292290419,0.045431767,0.188904509
17.27116152,-0.073579296,3.125026464,8.63390255,-0.201732308,0.371776909,0.185850278
17.2912711,-0.665204704,3.211168051,7.882555962,-0.065818794,0.482187569,0.266176701
17.31138068,-0.496510685,3.170490026,7.097112179,0.079868279,0.402471989,0.381932259
17.33149027,-0.045463629,3.193221807,6.352943897,0.202190444,0.18730104,0.382695794
17.35159985,0.014955142,3.34576416,5.986244202,0.241895512,-0.046958882,0.320542097
17.37170944,-0.104685992,3.560520172,6.111867428,0.235634327,-0.159202069,0.331537336
17.39181897,0.105284199,3.781257868,6.194419384,0.264802277,-0.12865971,0.326956004
17.41192855,0.012562319,4.056432724,5.880361557,0.27457583,-0.048638713,0.258999229
17.43203813,-0.087338023,4.246063709,5.74337244,0.164623335,-0.126827166,0.217003495
17.45214772,0.178863496,4.443471432,6.257231236,-0.031764057,-0.263198823,0.189515367
17.4722573,0.454636306,4.6432724,7.21794939,-0.185392141,-0.261824399,0.133928254
17.49236688,0.465404004,4.779663086,8.036892891,-0.25579229,-0.139960378,0.076966755
17.51247642,0.309272319,4.849653244,8.55134964,-0.277630091,0.010918895,0.06902574
17.532586,0.33499518,4.923830986,8.885149002,-0.269536346,0.067269556,0.091779798
17.55269558,0.30388847,5.133202553,9.279964447,-0.227235183,0.044668205,0.100484371
17.57280517,0.16749759,5.394618511,9.531210899,-0.149810284,-0.058870405,0.115450129
17.59291475,0.22372891,5.653641701,9.839884758,-0.092237934,-0.235557973,0.135302663
17.61302433,0.897308469,5.629115105,10.4853487,-0.095139459,-0.413161814,0.15393351
17.63313386,2.014158487,5.271388054,11.3820591,-0.129805043,-0.479133308,0.12995775
17.65324345,2.238485575,5.146363258,11.65065384,-0.086282179,-0.110945135,0.06123744
17.67335303,0.753140926,5.838487148,10.36451149,0.032985751,0.392393023,0.042301174
17.69346261,0.93978107,5.600999832,9.148359299,-0.037567105,0.177832902,0.063833542
17.7135722,2.478964329,4.746163845,9.293723106,-0.302522093,-0.190049857,-0.033291176
17.73368178,2.571087837,4.272983074,10.33878803,-0.401632071,-0.03993414,-0.145992488
17.75379131,1.660020709,4.013959885,10.16829967,-0.191806033,0.265642196,-0.220210433
17.77390089,0.901495934,4.089931965,9.331410408,0.048562355,0.176458508,-0.223875523
17.79401048,1.418345571,3.823730469,8.566305161,0.127056226,-0.172335282,-0.183254182
17.81412006,2.553740025,3.695714474,8.909674644,-0.034054734,-0.516853154,-0.240062967
17.83422964,2.913859844,3.803391695,9.605388641,-0.257777542,-0.404609948,-0.359025478
17.85433923,2.224726915,3.793820381,9.88534832,-0.419041216,0.006184828,-0.502269149
17.87444881,0.935593665,3.704687595,9.680164337,-0.479667813,0.345815897,-0.52303797
17.89455834,0.104685992,3.600001574,9.291928291,-0.448514611,0.395294547,-0.437366635
17.91466792,-0.093320087,3.481556892,8.874381065,-0.295039237,0.261518985,-0.337034971
17.93477751,-0.102293171,3.463012457,8.200202942,-0.057419643,0.140113086,-0.273965001
17.95488709,-0.171685025,3.579064369,7.295716286,0.113923013,0.075363278,-0.231663823
17.97499668,-0.221336097,3.709473372,6.483353138,0.132095724,0.069254808,-0.163248926
17.99510626,-0.132203445,3.850051641,6.120840549,0.042453885,0.095979378,-0.098651834
18.01521584,0.012562319,4.018745422,6.382256031,-0.062764555,0.082235314,-0.063222691
18.03532537,0.186640173,4.149752617,7.036693096,-0.076814041,0.061161082,-0.042759307
18.05543496,0.281156659,4.262215137,7.639086246,0.025808297,0.030007871,-0.042301174
18.07554454,0.193220422,4.47756958,7.961519241,0.155155197,-0.034741938,-0.027793551
18.09565412,0.198006079,4.807778835,8.088936806,0.243117213,-0.076890402,0.011453386
18.11576371,0.259621263,5.157131195,8.036892891,0.266176701,-0.055052608,0.036956258
18.13587329,0.399003178,5.364109993,8.007580757,0.214407384,0.004352287,0.04214846
18.15598287,0.419940382,5.606981754,8.136195183,0.102011494,0.06681142,0.041843038
18.1760924,0.342771858,5.792425632,8.56271553,-0.018172706,0.076432265,0.029778805
18.19620199,0.360718012,5.765506268,9.076574326,-0.099568106,0.076890402,0.027182704
18.21631157,0.377467781,5.759523869,9.796216011,-0.132095724,0.075974129,0.038177952
18.23642115,0.408574462,5.751149178,10.51167011,-0.096513867,0.074447006,0.075286925
18.25653074,0.00418744,5.956333637,10.62772179,0.006566608,0.222577468,0.122474879
18.27664032,-1.046261668,6.607181549,9.845867157,0.047951508,0.434694171,0.214407384
18.2967499,-0.97088778,6.735197544,9.574281693,-0.16721943,0.279080838,0.31412819
18.31685944,0.401994199,6.173482418,11.27438164,-0.548082709,-0.174625963,0.283127695
18.33696902,1.366301775,4.789832592,14.03569984,-0.723701298,-0.507995844,0.185392141
18.3570786,1.225723386,3.54018116,15.61017704,-0.383459359,-0.357727438,0.147672325
18.37718818,0.196211457,2.595614433,14.17567921,0.331995487,0.204099342,0.208757058
18.39729777,-0.693320334,2.600998163,11.11705399,0.824032962,0.412245542,0.338409394
18.41740735,-0.928415179,2.836691141,8.407182693,0.868166685,0.252814412,0.507308662
18.43751694,-0.273978204,2.953341246,7.277770042,0.579694033,-0.136142582,0.579388619
18.45762647,0.778863788,2.947957516,7.776075363,0.245713309,-0.294046611,0.537392855
18.47773605,1.19581306,2.845664263,8.466404915,0.109494373,-0.004810422,0.429883748
18.49784563,0.830309451,2.654238462,8.171489716,0.163554356,0.330850154,0.316877008
18.51795522,0.2434697,2.772683144,7.410571575,0.221126705,0.361545235,0.274423122
18.5380648,0.060418773,2.879163742,6.908677101,0.250752807,0.233420014,0.293359399
18.55817438,0.284745902,3.068794966,6.690930367,0.247087717,-0.015042114,0.267551094
18.57828397,0.570688188,3.387040377,6.843472958,0.200968742,-0.161950886,0.227540597
18.5983935,0.800399184,3.570689678,6.850052834,0.136524364,-0.08101362,0.163859785
18.61850308,0.600598455,3.753142357,6.762714863,0.038941514,0.022830416,0.091474377
18.63861266,0.297906429,3.883551121,6.84646368,-0.077883027,0.060702946,0.082922518
18.65872225,0.285344094,4.057629108,7.011568546,-0.135913521,0.080860905,0.104302168
18.67883183,0.304486692,4.413561344,7.11685276,-0.144770801,0.092772424,0.093612343
18.69894142,0.367896467,4.70488739,7.264011383,-0.160041988,0.051234815,0.072690822
18.719051,0.463609397,4.844269276,7.697112083,-0.192111462,-0.016874656,0.044286426
18.73916053,0.461216569,4.92442894,8.352147102,-0.183712319,-0.032145835,0.053601846
18.75927011,0.504885554,5.062016487,8.904889107,-0.099720813,-0.003588728,0.104149461
18.7793797,0.556929469,5.298905849,9.181859016,0.073759809,0.006948388,0.162485376
18.79948928,0.571884632,5.730212212,8.902496338,0.277324647,-0.033825666,0.205550104
18.81959886,0.705882669,6.150152206,8.279764175,0.38239038,-0.18730104,0.209826037
18.83970845,1.177268744,6.277570248,8.024331093,0.332453609,-0.4050681,0.191653326
18.85981803,1.891526341,6.049654007,8.190631866,0.184628591,-0.489059597,0.135608092
18.87992756,1.926222205,6.068796635,8.540582657,-0.017714571,-0.363072336,0.057266932
18.90003714,1.688734531,6.296712875,9.253643036,-0.273201436,-0.241208315,-0.006413896
18.92014673,1.967498422,5.997011662,10.50748253,-0.565033734,-0.130797669,-0.085518613
18.94025631,2.306680918,5.052444935,12.16152096,-0.71056807,-0.081777178,-0.155918762
18.96036589,2.187638044,4.406383038,13.21855068,-0.517234922,-0.062077351,-0.189973503
18.98047548,1.747956991,4.204787731,12.35055447,-0.04718795,0.026953636,-0.206008241
19.00058506,1.728216171,4.132404804,10.28794098,0.299467862,0.003283304,-0.285265684
19.02069464,2.025524378,3.966103554,9.072985649,0.227082461,-0.191424266,-0.433548838
19.04080418,2.060818434,3.385843992,9.369096756,-0.080937259,-0.254188806,-0.546250165
19.06091376,1.59840548,2.986840963,10.13180923,-0.246171445,-0.038559735,-0.581679285
19.08102334,1.017547846,2.833101988,10.14377308,-0.19821994,0.259381026,-0.561215937
19.10113292,0.400199592,3.119044304,9.360123634,-0.098346412,0.433625192,-0.521205425
19.12124251,-0.014356935,3.346362352,8.408378601,-0.063222691,0.439580947,-0.46470204
19.14135209,-0.171685025,3.428914785,7.909475327,-0.065055236,0.278622717,-0.439046472
19.16146168,-0.270987153,3.487539053,7.689335346,-0.030236939,0.093841411,-0.399188697
19.18157121,-0.078364939,3.446262836,7.673782349,0.007330167,-0.050471254,-0.374143958
19.20168079,-0.08793623,3.530609846,7.498507977,0.032527618,0.009849912,-0.325887024
19.22179037,-0.042472601,3.666402578,6.918248653,0.034971006,0.147901386,-0.259762794
19.24189996,0.005982057,3.973282099,6.346364021,-0.014660334,0.214789167,-0.215476364
19.26200954,0.205184549,4.151547432,6.041278839,-0.104760304,0.171113595,-0.209367901
19.28211912,0.324227482,4.277768612,6.279364586,-0.219446883,0.042530239,-0.245255172
19.30222871,0.202193514,4.369294167,7.039684296,-0.292443126,-0.04940227,-0.254723311
19.32233829,0.054436713,4.454837322,7.899903774,-0.270299912,-0.082846157,-0.211811289
19.34244782,0.128614217,4.689334393,8.472985268,-0.182643324,-0.105905645,-0.132401139
19.3625574,0.621535659,4.878965378,8.694320679,-0.07711947,-0.052303795,-0.085518613
19.38266699,0.815354288,4.992624283,8.547162056,-0.017867282,0.047264308,-0.107814543
19.40277657,0.585045159,5.200201988,8.530412674,-0.022448637,0.074752435,-0.130568609
19.42288615,0.141176537,5.341378212,8.904889107,-0.006566608,0.013667707,-0.115755558
19.44299574,-0.095712908,5.474778175,9.116056442,0.098040983,-0.012751437,-0.06291727
19.46310532,-0.023928227,5.632704735,9.105886459,0.185239434,-0.02893889,-0.026266431
19.48321485,0.155533478,5.583651543,9.177073479,0.182796046,-0.041919392,-0.010384403
19.50332444,0.232103795,5.495117188,9.4809618,0.147672325,-0.053067356,0.004886778
19.52343402,0.030508488,5.549553871,9.966106415,0.154391646,-0.064978875,0.038941514
19.5435436,-0.768694282,6.184848309,9.756135941,0.202343151,0.048638713,0.107050985
19.56365318,-0.76271224,6.275775433,9.387042999,0.088572852,-0.029702447,0.152711809
19.58376277,-0.080757767,5.833701611,10.28495026,-0.222501114,-0.273125082,0.185850278
19.60387235,0.692722142,5.132006168,12.09452248,-0.427593082,-0.38002336,0.228304163
19.62398188,1.831705689,3.890729666,13.45484161,-0.338409394,-0.449965358,0.174855024
19.64409147,1.9812572,2.775674343,13.13181114,0.040315919,-0.234183565,0.067040488
19.66420105,0.545563579,2.694916487,10.74556828,0.460884243,0.244720683,0.008093726
19.68431063,-0.815952539,3.260220766,8.38564682,0.552664042,0.267780155,0.041995749
19.70442022,-0.492921472,3.626322746,7.869395256,0.200816035,-0.292977631,0.119878776
19.7245298,0.782453001,3.44985199,9.330213547,-0.246324152,-0.54464668,0.102927767
19.74463938,1.033699393,3.081955671,10.63669491,-0.385902762,-0.06681142,0.000458135
19.76474892,-0.017347964,2.933002472,10.57627583,-0.217919767,0.469970614,-0.024128467
19.7848585,-0.802792013,2.97726965,9.254241943,0.050853033,0.56602633,0.079715565
19.80496808,-0.8356933,3.322434187,7.931608677,0.269078225,0.371929616,0.194096714
19.82507767,-0.370887518,3.638885021,6.859624386,0.397966981,0.076584972,0.242353648
19.84518725,0.221934304,3.939184189,6.306283951,0.382848531,-0.240750179,0.1797418
19.86529683,0.689132929,4.082753658,6.487540245,0.249531105,-0.365515739,0.087198444
19.88540642,0.951745212,4.10608387,7.027719975,0.105371155,-0.252661705,0.009468133
19.905516,0.870987415,4.218546391,7.648059368,0.004886778,-0.132324785,-0.068109468
19.92562553,0.745364249,4.221537113,8.184649467,-0.012980504,-0.08101362,-0.103691325
19.94573511,0.534197629,4.306482315,8.449654579,0.07070557,-0.040392276,-0.135760799
19.9658447,0.081954174,4.37288332,8.184649467,0.207229927,-0.028328042,-0.158056721
19.98595428,-0.141774744,4.475176334,7.67138958,0.278393626,-0.034894649,-0.1291942
20.00606386,-0.114855483,4.770689964,7.42612505,0.233038232,-0.039323293,-0.079104722
20.02617345,0.133998066,4.919044971,7.603792191,0.160500124,-0.036879905,-0.048104223
20.04628303,0.329611331,5.052444935,7.970492363,0.151490122,-0.047417019,-0.031611346
20.06639261,0.320040017,5.252245903,8.209774017,0.23181653,-0.061008371,-0.012064233
20.08650214,0.10767702,5.534598827,7.975875854,0.350168198,-0.080555484,0.009926268
20.10661173,-0.04007978,5.913262844,7.611568928,0.374602079,-0.190507993,0.027029991
20.12672131,0.300299227,6.040680885,7.672585964,0.254876018,-0.354825914,0.046577103
20.14683089,0.868594647,5.998806477,8.12183857,0.082769804,-0.413467228,0.047646087
20.16694048,1.508076429,5.722435474,8.653044701,-0.08765658,-0.39254573,0.008857286
20.18705006,1.917249203,5.38624382,9.329615593,-0.244949758,-0.297253549,-0.059557609
20.20715964,1.369292736,5.535196781,10.09531879,-0.296871781,-0.083609715,-0.089947261
20.22726918,-0.288335115,6.738188744,9.968499184,-0.198678076,0.120413266,-0.003054236
20.24737876,0.899701297,6.072385788,9.617352486,-0.220057726,-0.266100347,0.023059484
20.26748834,2.946162939,4.724628448,10.55354404,-0.427898496,-0.632608712,-0.108119965
20.28759792,3.382254839,3.906282902,11.35095215,-0.500742018,-0.23601611,-0.235634327
20.30770751,2.046461582,3.696312666,10.95912743,-0.342838019,0.39514181,-0.326956004
20.32781709,0.75972116,3.806382656,9.754940033,-0.105523862,0.432708919,-0.307408869
20.34792668,0.611366212,4.073182583,8.905488014,0.029931515,0.040086851,-0.24876754
20.36803621,1.44646132,3.997808456,8.730812073,0.015118469,-0.310844898,-0.271063477
20.38814579,1.99501586,3.800400496,8.873184204,-0.066887774,-0.334515244,-0.36834091
20.40825537,1.716850281,3.670589924,8.823533058,-0.142785549,-0.084984124,-0.479515106
20.42836496,0.929611623,3.749552965,8.622536659,-0.223264679,0.127590716,-0.490663052
20.44847454,0.665204704,3.906881094,8.307282448,-0.246782288,0.198296294,-0.436908513
20.46858412,0.889531791,3.985246181,8.062017441,-0.224486366,0.160729185,-0.473101199
20.48869371,0.783051193,3.963710785,8.060821533,-0.205550104,0.042072106,-0.525328636
20.50880329,0.564706147,3.854238987,8.085946083,-0.158056721,-0.000992627,-0.521205425
20.52891282,0.269790739,3.894318819,7.800003529,-0.080784552,0.109723441,-0.475850016
20.5490224,-0.061016977,4.131806374,7.244270325,-0.031764057,0.184552223,-0.391858518
20.56913199,-0.071784683,4.33340168,6.866204739,-0.037567105,0.124994621,-0.324665308
20.58924157,0.076570325,4.449453831,7.01575613,-0.092848785,-0.005573981,-0.300231427
20.60935115,0.191425815,4.427918434,7.637291908,-0.143243685,-0.120871402,-0.293512106
20.62946074,0.130408838,4.357928276,8.354539871,-0.103385896,-0.100255303,-0.253501624
20.64957027,0.075972117,4.485944271,8.601000786,0.011911522,-0.024357535,-0.165692315
20.66967985,0.293120772,4.734797955,8.331210136,0.117282674,0.053372778,-0.082769804
20.68978944,0.379262388,5.063212872,7.745566845,0.165539607,0.122093096,-0.054059982
20.70989902,0.147158593,5.42572546,7.229315281,0.128736064,0.119191572,-0.067651331
20.7300086,-0.114257284,5.610570908,7.286144733,0.000763559,0.066353284,-0.07345438
20.75011818,-0.413958311,5.626124382,8.277371407,-0.124918267,-0.03993414,-0.038636088
20.77022777,-0.329013109,5.310869694,9.553344727,-0.126445383,-0.144236311,0.02183779
20.79033735,-0.154337063,5.158327579,10.73240757,-0.036039989,-0.197532728,0.093001492
20.81044688,0.144167557,4.953142643,11.11226845,0.12583454,-0.045431767,0.178367406
20.83055647,-0.226121739,5.275575638,10.48953629,0.305118203,0.306721687,0.24769856
20.85066605,-1.923231244,6.828517437,9.135796547,0.313364655,0.608022094,0.359178186
20.87077563,-1.487139225,6.879963398,8.748159409,0.007941014,0.228380516,0.425302416
20.89088522,0.278165638,5.606981754,10.81017494,-0.465618312,-0.509064853,0.301911265
20.9109948,1.535593987,3.859622955,13.78445339,-0.663990974,-0.758595944,0.221279413
20.93110438,1.042074203,2.812762976,15.20519161,-0.319931239,-0.296489984,0.204175696
20.95121392,-0.600598455,2.682354212,13.23470211,0.415986985,0.517616689,0.335049719
20.9713235,-1.244866014,3.346362352,9.941579819,0.80433315,0.5722875,0.463174939
20.99143308,-0.783051193,3.723232031,7.613363266,0.625813007,0.130186826,0.533422351
21.01154266,0.485144794,3.335594654,7.076773167,0.147825033,-0.202266797,0.476613581
21.03165225,0.735792935,3.157927752,8.227720261,-0.211811289,-0.072309047,0.375060231
21.05176183,0.359521598,2.998206854,8.96889782,-0.216239929,0.289159834,0.333217174
21.07187142,0.101694964,2.944368362,8.571688652,-0.034818295,0.453783155,0.337493122
21.091981,-0.017946171,3.187838078,7.51645422,0.117435388,0.437137574,0.347113967
21.11209053,0.101694964,3.30089879,6.933203697,0.148283169,0.182414264,0.311990231
21.13220011,0.218345061,3.390031576,6.942774773,0.071163706,-0.164394274,0.234718055
21.1523097,0.526421011,3.352344513,7.482954502,-0.015882028,-0.245789662,0.207382649
21.17241928,0.668793917,3.460021496,7.84845829,-0.050242186,-0.037338037,0.178520113
21.19252886,0.500698149,3.646063566,7.737192154,-0.047493376,0.121787675,0.148741305
21.21263845,0.558125854,3.674777269,7.509275436,-0.049936764,0.066353284,0.128430635
21.23274803,0.650847733,3.865604877,7.46261549,-0.050853033,-0.018707197,0.093459629
21.25285756,0.361914426,4.169493675,7.179664135,-0.022448637,0.037643462,0.052227441
21.27296714,0.008973085,4.48534584,6.776473522,-0.044744562,0.026037365,0.038483378
21.29307673,0.137587309,4.730610371,7.006184578,-0.155307919,-0.104836658,0.054518119
21.31318631,0.4869394,4.84845686,7.907082558,-0.236703306,-0.187911883,0.054518119
21.33329589,0.505483806,4.952544689,8.64167881,-0.200357899,-0.163478002,0.038177952
21.35340548,0.361914426,5.053641319,8.935996056,-0.108883523,-0.125147328,0.046118967
21.37351506,0.391824722,5.196612358,9.10349369,-0.050547611,-0.163172573,0.065360658
21.39362459,0.494117886,5.356931686,9.513264656,-0.042301174,-0.243346274,0.078952007
21.41373418,0.643669307,5.365904808,9.924231529,-0.020310672,-0.304889143,0.093917765
21.43384376,0.86680001,5.327021599,10.14676476,0.033902023,-0.351618946,0.109036237
21.45395334,1.33399868,5.11884594,10.16710377,0.0787993,-0.366126567,0.105065726
21.47406293,0.781854808,5.54117918,9.93559742,0.123543859,-0.227311537,0.09575031
21.49417251,-0.028115666,6.411568165,9.320044518,0.106745556,-0.214941874,0.131637588
21.51428204,1.824527264,5.2707901,9.652048111,-0.145992488,-0.699801862,0.071163706
21.53439162,2.725425005,4.746163845,11.03210926,-0.390331388,-0.553045809,-0.02275406
21.55450121,3.040679455,3.958925009,12.04008579,-0.471879512,-0.122093096,-0.161416382
21.57461079,2.815155745,2.772084951,12.06939697,-0.341005474,0.106974624,-0.268009245
21.59472037,2.313261271,2.754138947,11.39821053,-0.018019995,0.108654454,-0.308019728
21.61482996,2.027917147,3.077169895,10.21675491,0.303591102,-0.088496499,-0.400410384
21.63493954,2.048854351,3.162115097,8.934201241,0.43293801,-0.379107088,-0.480278671
21.65504907,2.539382935,3.27577424,8.148757935,0.241437376,-0.435763151,-0.572974742
21.67515865,2.319243431,3.321835995,8.03928566,-0.149810284,-0.106974624,-0.683690786
21.69526824,0.994217813,3.225524902,8.126026154,-0.454164922,0.365515739,-0.724922955
21.71537782,-0.225523531,3.214159012,8.238488197,-0.542890489,0.611229062,-0.636350155
21.7354874,-0.826122046,3.309871912,8.400003433,-0.460578829,0.504636169,-0.491426617
21.75559699,-0.818345368,3.337389469,8.47597599,-0.278088212,0.205473751,-0.342074454
21.77570657,-0.388833672,3.410968781,8.460422516,-0.062153708,0.014431266,-0.219905019
21.7958161,-0.060418773,3.616751432,8.018946648,0.102469631,0.02893889,-0.140036732
21.81592568,-0.043070808,3.836292982,7.309474945,0.127667084,0.10239327,-0.084296919
21.83603527,0.077168532,3.972683907,7.087540627,0.04214846,0.079181075,-0.027182704
21.85614485,0.348753899,4.038486481,7.304689407,-0.036650836,0.049554985,0.008551862
21.87625444,0.643669307,4.128815651,7.588837147,-0.046118967,0.042835664,0.012827792
21.89636402,0.830907643,4.258625984,7.704888821,-0.014813046,0.051998373,-0.011300675
21.9164736,0.935593665,4.382454872,7.862216949,-0.01099525,0.02741177,-0.052838288
21.93658313,0.978066266,4.509274483,8.196015358,-0.037872531,0.018554486,-0.086740308
21.95669272,0.994217813,4.49970293,8.573483467,-0.040774055,0.043446511,-0.117435388
21.9768023,0.830309451,4.545764923,8.876773834,-0.008399149,0.087885648,-0.138509616
21.99691188,0.555134833,4.738985062,9.126225471,0.03771982,0.123467505,-0.13026318
22.01702147,0.318245411,4.965705395,9.327820778,0.092848785,0.11720632,-0.115908265
22.03713105,0.151346028,5.128417015,9.483952522,0.151642829,0.074447006,-0.086129464
22.05724058,0.226121739,5.099703312,9.5754776,0.197456375,0.009849912,-0.050547611
22.07735017,0.299102843,5.040481091,9.780662537,0.22295925,-0.045584477,-0.03115321
22.09745975,0.285942316,4.96391058,9.904491425,0.246171445,-0.053372778,0.005955761
22.11756933,0.113659076,5.048257351,9.781859398,0.249531105,0.004046863,0.050700322
22.13767892,-0.936191857,6.046064377,9.331410408,0.181116208,0.164088845,0.140647575
22.1577885,-0.528215587,6.004190445,9.429515839,-0.028709821,-0.043599222,0.213491112
22.17789803,0.355932355,5.388038158,10.71087265,-0.277477354,-0.24487339,0.198372647
22.19800761,-0.093918286,5.54117918,11.802598,-0.354596824,0.013209572,0.196998239
22.2181172,0.465404004,4.421338081,12.44327641,-0.347724795,-0.06849125,0.168899268
22.23822678,1.423131227,2.643470764,13.10130215,-0.290305167,-0.285036594,0.123696573
22.25833636,0.521635354,1.986042738,12.64786243,0.027793551,0.163936138,0.181421638
22.27844595,-1.077966571,2.216351986,10.55474091,0.485928983,0.670786619,0.338714808
22.29855548,-1.973480463,2.961716175,8.697312355,0.71056807,0.445231289,0.521968961
22.31866506,-0.964905739,3.336791277,7.93878746,0.601226389,-0.221508488,0.690410137
22.33877464,1.000798106,3.309871912,8.626724243,0.309394151,-0.542356014,0.662463844
22.35888423,2.052443504,2.991028309,9.294919968,0.090099968,-0.200128838,0.516471386
22.37899381,1.616351724,2.803191662,9.180662155,0.026724568,0.433319777,0.352306157
22.39910339,0.18843478,2.888735056,8.119445801,0.062611841,0.78119731,0.30007872
22.41921292,-0.687338293,3.190230846,7.269993305,0.094375901,0.702245295,0.372922242
22.43932251,-0.736989379,3.485146284,6.955935478,0.133011997,0.343372524,0.468825281
22.45943209,-0.023330022,3.738785267,7.269395351,0.172258928,-0.098422766,0.478904247
22.47954168,0.86680001,3.858426571,7.695317745,0.243422627,-0.235252544,0.42820394
22.49965126,1.307079315,3.940380573,7.582854748,0.282058716,-0.149123088,0.319778532
22.51976084,1.368694544,4.091128349,7.29631424,0.195165694,-0.043599222,0.206313655
22.53987037,1.347159147,4.130012035,7.305287361,0.024586603,0.022524992,0.106134713
22.55997996,1.05822587,4.133002758,7.763513088,-0.114381149,0.061313793,0.014507622
22.58008954,0.628115952,4.135993958,8.257631302,-0.124918267,0.094910391,-0.01267508
22.60019912,0.325423867,4.211966038,8.365905762,-0.014965758,0.076584972,0.007330167
22.62030871,0.287736923,4.459623337,7.987840176,0.125223681,0.028633466,0.048562355
22.64041829,0.518644333,4.767100811,7.442276478,0.186155707,-0.035200074,0.06139015
22.66052782,0.857826889,4.890331268,7.311867714,0.132553861,-0.138280556,0.02275406
22.6806374,0.943370342,4.915455818,7.751548767,0.049936764,-0.20654273,-0.015882028
22.70074699,0.828514814,4.957928658,8.239086151,0.052227441,-0.167906642,-0.031458635
22.72085657,0.626321316,5.100899696,8.432905197,0.12216945,-0.138891399,-0.040010497
22.74096615,0.582054079,5.130809784,8.425726891,0.165845037,-0.214025602,-0.044286426
22.76107574,0.679561615,5.182255745,8.500502586,0.135608092,-0.278622717,-0.044744562
22.78118527,0.987039328,5.056632519,9.010173798,0.053601846,-0.328101337,-0.065207943
22.80129485,1.296909928,4.761118889,9.878767967,-0.002901525,-0.343372524,-0.093154207
22.82140444,0.69511497,5.097908497,10.52183914,0.067651331,-0.197074592,-0.060473878
22.84151402,-0.558125854,6.380461693,10.18564796,0.206771791,-0.135989875,0.054670829
22.8616236,1.135992527,6.102894306,10.38305569,0.0645971,-0.771881878,0.113923013
22.88173313,3.326023579,5.578267574,11.68654537,-0.300842285,-1.157021046,0.018936265
22.90184272,4.636692047,4.527220249,12.52343559,-0.572363854,-0.732482195,-0.203412131
22.9219523,4.492524624,2.961716175,12.4109726,-0.62306422,0.070934638,-0.508530319
22.94206188,2.794816732,1.945364833,11.73021507,-0.477529854,0.708353758,-0.667808771
22.96217147,0.432502687,2.206780672,10.33160973,-0.139731318,1.118843079,-0.585191667
22.98228105,-1.144367456,2.964707375,8.815158844,0.328941256,1.08387208,-0.413543582
23.00239058,-1.666600943,3.798007727,7.323233604,0.683690786,0.438664675,-0.207688063
23.02250016,-0.17587246,4.299304008,6.448058605,0.680636585,-0.457906365,-0.093001492
23.04260975,2.001596212,4.234697819,6.787839413,0.316877008,-0.833882868,-0.207382649
23.06271933,2.941975355,3.884747505,7.600800991,-0.203564853,-0.40140301,-0.424844265
23.08282892,1.679761529,3.616751432,8.628518105,-0.568546057,0.360476226,-0.561215937
23.10293845,0.19262223,3.092125177,9.00179863,-0.636960983,0.710797131,-0.506545067
23.12304803,-0.655035198,3.018545866,9.422935486,-0.523954213,0.566637218,-0.294733793
23.14315761,-0.355932355,3.203989506,9.953543663,-0.266634822,0.15889664,-0.015576605
23.1632672,0.818345368,3.467200041,9.887143135,0.088420138,-0.112166829,0.117129959
23.18337678,1.384247899,3.94815731,8.935398102,0.339936495,-0.123467505,0.076814041
23.20348636,1.250249863,4.141377926,7.691728592,0.29900974,-0.057801422,-0.004123219
23.22359589,0.932602644,3.985844374,7.198806763,0.007635591,-0.0290916,-0.043522868