Time (s),Acceleration x (m/s^2),Acceleration y (m/s^2),Acceleration z (m/s^2),Gyroscope x (rad/s),Gyroscope y (rad/s),Gyroscope z (rad/s)
2.307122677,1.543370605,2.075175524,9.584450722,-0.187682822,-0.001908898,-0.018630842
2.327231688,1.465603828,2.235494614,9.982855797,-0.162638083,0.042835664,-0.042606596
2.347340698,1.343569875,2.490928411,10.03071213,-0.079868279,0.114762932,-0.05650337
2.367449709,1.20179522,2.46819663,9.662816048,-0.057725064,0.083915144,-0.086740308
2.387558719,1.097109199,2.477767944,9.379266739,-0.153475374,-0.035200074,-0.076050483
2.407667677,1.006181955,2.586043119,9.515657425,-0.255639583,-0.003436016,-0.003970507
2.427776688,1.228116274,2.438286304,9.651450157,-0.326345146,0.103767678,0.070400149
2.447885698,1.43808639,2.226521492,9.839884758,-0.383001238,0.188675448,0.089794546
2.467994709,1.457229018,2.236690998,10.26580715,-0.355207682,0.242430002,0.075439639
2.488103719,1.356730461,2.298904419,10.18564796,-0.314433634,0.208527982,0.056656085
2.508212729,1.025922656,2.335394859,9.844072342,-0.348793775,0.195242062,0.081089973
2.52832174,0.707079113,2.347957134,10.06002426,-0.383459359,0.093688697,0.206008241
2.54843075,0.860817969,1.887338877,10.32921696,-0.40636614,-0.231282041,0.344517857
2.568539761,0.701097012,1.899302959,10.03250694,-0.511737287,-0.543577731,0.517693043
2.588648771,0.820139945,1.713261008,9.40977478,-0.671931982,-0.601760924,0.750731289
2.608757781,2.032702923,1.150349498,9.192028046,-0.800973475,-0.526626706,0.869159281
2.628866792,3.433102369,0.815952539,9.487542152,-0.795323134,-0.010613471,0.667656064
2.648975802,3.617349625,0.673579574,10.65882874,-0.543806791,0.603135288,0.272132456
2.669084813,2.503490686,1.123430252,11.17268753,-0.067651331,0.704230547,-0.006566608
2.689193823,1.813161373,1.366899967,10.24546814,0.419423014,0.756610692,-0.094375901
2.709302834,1.861017823,1.333400369,9.336195946,0.695373237,0.791276276,-0.18310146
2.729411844,1.161117196,1.658824325,8.898907661,0.70774293,0.601302743,-0.26831466
2.749520854,0.754337311,2.106282234,8.596813202,0.585573435,0.264115095,-0.24326992
2.769629865,0.972084224,2.163111687,8.528617859,0.451645196,0.153246313,-0.214407384
2.789738875,1.042074203,1.977069736,8.634500504,0.341692686,0.236474246,-0.221584842
2.809847886,0.786640465,1.905285001,8.682954788,0.22349374,0.390865892,-0.196081966
2.829956896,0.473180682,2.124826431,9.235098839,0.21020782,0.653988361,-0.093459629
2.850065906,0.592821837,2.328216314,10.16889763,0.339860141,0.709880889,-0.065207943
2.870174917,0.544965386,2.48793745,9.982257843,0.539912641,0.645894647,-0.103996746
2.890283927,0.549152792,2.563311338,9.689137459,0.717974603,0.727137327,-0.164317906
2.910392938,0.045463629,2.679961443,9.649655342,0.826552689,0.526015818,-0.172869772
2.930501948,-0.601794899,3.137588739,8.801998138,0.712476969,-0.269765407,-0.051158458
2.950610959,-0.139980122,3.287140131,8.04287529,0.426753163,-0.531360745,0.079410143
2.970719969,0.327816695,3.287140131,8.745168686,0.144694448,-0.404151827,0.175160453
2.990828979,1.147358418,3.911068678,9.470791817,0.023823043,-0.010918895,0.17790927
3.01093799,0.901495934,3.081955671,9.498908043,-0.068873025,0.407206059,-0.121864028
3.031047,-0.038285162,2.873780012,9.366703987,-0.168288425,0.474399239,-0.176687568
3.051156063,-1.042672515,2.950948477,9.436694145,-0.282058716,0.689570189,0.067498624
3.071265073,-1.328614831,3.157329559,10.26819992,-0.425302416,0.5217399,0.262358904
3.091374084,-0.808774054,3.08973217,11.48554897,-0.385291904,0.144694448,0.297788024
3.111483094,0.210568398,2.404786825,12.48814106,-0.17531316,-0.388575226,0.151948258
3.131592104,0.878764093,1.508674622,13.02233887,0.126369029,-0.720570684,0.002901525
3.151701115,0.611366212,1.378265858,12.87039471,0.453325033,-0.553045809,0.001221695
3.171810125,-0.016151553,1.505085468,11.50887871,0.754167318,-0.17920731,0.11163234
3.191919136,-0.417547554,1.763510346,9.382855415,0.843503714,-0.007864659,0.228915006
3.212028146,-0.403190613,2.150549412,7.865208149,0.666205287,-0.011682454,0.33810395
3.232137156,0.090927258,2.435893536,7.985447407,0.407358766,-0.101477005,0.354291409
3.252246167,0.386440843,2.659622431,9.111269951,0.32794863,-0.358796418,0.258082956
3.272355229,0.559322298,2.610569477,10.05344391,0.435457736,-0.821513236,0.126445383
3.29246424,1.028315544,2.203789711,9.795618057,0.54831177,-1.13228178,0.008857286
3.31257325,1.402194023,1.78684032,9.237491608,0.449354529,-0.831592202,-0.03939965
3.332682261,1.310668588,1.656431437,9.23270607,0.270681679,-0.322450995,-0.046577103
3.352791271,0.993619621,1.944766641,9.568898201,0.132782921,0.035658211,-0.055128966
3.372898905,0.75134629,2.176870346,9.656833649,0.10743276,0.21540001,-0.051005747
3.393007916,0.756730139,2.196012974,9.111269951,0.129423261,0.274346769,-0.04703524
3.413116926,0.652642369,2.364706993,8.595019341,0.106821917,0.26594764,-0.039552361
3.433225937,0.704088092,2.529811859,8.64167881,0.091092594,0.159660205,-0.043981001
3.453334999,0.760917604,2.740978241,8.627920151,0.10300412,0.05581617,-0.079715565
3.47344401,0.652642369,2.782254457,8.292326927,0.070323788,0.027564483,-0.130568609
3.49355302,0.384048045,2.936591625,8.313861847,-0.016340164,0.089107342,-0.130415887
3.51366203,0.336191595,3.032304525,8.608179092,-0.052990999,0.086663954,-0.139884025
3.533771041,0.191425815,2.960519791,8.78584671,-0.072538115,-0.006795676,-0.181727067
3.553880051,0.259621263,2.996412039,8.941978455,-0.132095724,-0.077043109,-0.161416382
3.573989062,0.655035198,3.104687452,9.293723106,-0.165845037,-0.070476502,-0.167524859
3.594098124,0.536590457,3.169293642,9.559326172,-0.086129464,0.003741439,-0.200205192
3.614207135,0.478564531,3.108874798,9.485747337,0.037872531,-0.001450762,-0.223875523
3.634316145,0.307477713,3.133999348,8.977272034,0.069254808,-0.048486002,-0.243880764
3.654425155,0.181256309,3.256631613,8.976076126,0.030389652,-0.123620212,-0.190737054
3.674534166,0.314057976,3.528815269,9.279964447,0.075210571,-0.138738677,-0.134539112
3.694643228,0.341575444,3.710669756,8.95932579,0.174473241,-0.075363278,-0.142785549
3.714752239,0.151346028,3.848855257,8.793622971,0.149428517,-0.08101362,-0.150879279
3.734861249,0.315852583,3.843471289,9.096315384,0.047340661,-0.169433758,-0.121405892
3.75497026,0.659222662,3.657429457,9.927821159,-0.029626092,-0.261213571,-0.154544354
3.77507927,0.358325183,3.688536167,10.46082211,0.011300675,-0.237390518,-0.168441132
3.795188333,-0.00418744,3.889533281,10.16590691,0.046882529,-0.118580721,-0.149046734
3.815297343,0.453439891,3.538984776,9.903294563,-0.135149956,-0.183941379,-0.130721316
3.835406353,1.126421213,3.162713289,10.5858469,-0.483485609,-0.250981867,-0.119878776
3.855515364,1.397408366,3.099303484,12.02931786,-0.674222648,-0.237085089,-0.142632842
3.875624374,1.447059512,2.602194548,12.57428265,-0.595423341,-0.174625963,-0.161416382
3.895733437,1.188036442,2.033301115,11.48076344,-0.478904247,-0.072461754,-0.03130592
3.915842447,1.336391449,1.496710539,9.944570541,-0.524565101,0.033062108,0.123391144
3.935951458,0.905085146,1.393819213,9.324232101,-0.519678295,0.09689565,0.194554851
3.956060468,0.402592421,2.065006018,8.617152214,-0.309546858,0.278622717,0.333217174
3.97616953,0.79920274,2.36111784,8.509475708,-0.012827792,0.53578943,0.368188173
3.996278541,1.432104349,2.575275421,8.803792953,0.229144082,0.436679423,0.19821994
4.016387551,1.779063582,2.810968399,9.345169067,0.37849623,0.023899399,-0.083686076
4.036496562,1.807777524,2.566302299,9.668798447,0.475315511,-0.375136584,-0.351084471
4.056605624,1.695314884,1.811964989,9.421739578,0.485699922,-0.354367763,-0.486539841
4.076714635,1.016949654,1.441077471,9.396016121,0.391171306,-0.108501747,-0.497993231
4.096823645,0.036490545,1.612164259,9.287740707,0.27480492,0.049707696,-0.310768545
4.116932655,-0.10767702,1.963310957,9.108279228,0.211276799,0.154315293,-0.064749807
4.137041718,0.293718994,2.34137702,8.61296463,0.216774419,0.349786401,0.114992
4.157150728,0.725025237,2.836691141,8.334799767,0.279080838,0.549228013,0.180505365
4.177259739,0.756131947,3.299702406,8.364709854,0.397127062,0.43163994,0.164928764
4.197368801,0.826122046,3.653241873,8.210372925,0.422019094,0.073683448,0.112395898
4.217477812,1.118046403,3.698705673,7.785048485,0.251134574,-0.181039855,0.019088976
4.237586822,1.251446247,3.41635251,7.749754429,-0.010384403,-0.203946635,-0.116366401
4.257695833,0.971485972,3.241676569,8.432307243,-0.200663328,-0.191882402,-0.19821994
4.277804895,0.798604548,3.10408926,9.355937004,-0.226318911,-0.065895148,-0.189668074
4.297913905,0.754337311,2.924627542,9.673583984,-0.127819791,0.113235809,-0.106440134
4.318022916,0.785444021,2.840280533,9.328418732,-0.0361927,0.252203554,-0.001221695
4.338131978,0.988235772,3.19980216,9.098708153,-0.047646087,0.265184075,0.055892523
4.358240989,1.120439172,3.519842148,9.20399189,-0.045660831,0.29251948,0.05314371
4.378349999,1.069591761,3.574278831,9.090931892,-0.021532366,0.325810671,0.002596101
4.398459062,0.638285458,3.644867182,8.96889782,-0.037567105,0.254799664,-0.04703524
4.418568072,0.446859628,3.569493294,9.101698875,-0.068109468,0.128048852,-0.013285927
4.438677083,0.542572558,3.492922783,9.792626381,-0.062306419,-0.005268557,0.041690327
4.458786145,0.723828852,3.487539053,10.10788059,0.011147963,-0.03397838,0.042301174
4.478895155,0.736989379,3.470789194,9.893125534,0.029167956,0.003283304,0.017409148
4.499004166,0.307477713,3.641875982,9.708877563,-0.040774055,0.066505998,0.016492875
4.519113228,-0.296111792,4.015156269,9.664610863,-0.187377393,0.060855657,0.054976255
4.539222239,-0.275174618,3.984049797,10.45244789,-0.356582075,-0.088343784,0.091168955
4.559331249,0.150149614,3.60478735,11.33121204,-0.481805772,-0.140876651,0.10017895
4.579440312,0.741176844,2.92402935,12.45284748,-0.568546057,-0.190355271,0.072996244
4.599549322,1.20717907,2.08235383,13.62951756,-0.422553599,-0.227616966,0.027946262
4.619658385,0.732203722,1.507478237,13.17547989,0.037108973,-0.069407523,0.040468629
4.639767395,0.071784683,1.284945726,10.71446133,0.441260785,0.073225312,0.146297917
4.659876405,-0.394815743,1.717448473,8.336593628,0.533498704,0.188064605,0.288319916
4.679985468,-0.663410068,2.477169752,6.868597507,0.42171368,0.302140325,0.40377003
4.700094478,-0.590429008,2.963510752,6.984649181,0.165768668,0.136906147,0.395370901
4.720203489,-0.350548506,2.964707375,8.45085144,-0.000458135,-0.142556474,0.353069723
4.740312551,0.393619329,2.394617319,9.900901794,0.049325917,-0.343372524,0.288167208
4.760421562,0.894317448,1.942373753,10.12762165,0.16256173,-0.368417263,0.187835529
4.780530624,0.921236694,1.808375716,9.630513191,0.130797669,-0.249454752,0.093612343
4.800639635,0.521037102,1.963310957,9.458827972,-0.018478129,-0.037185326,0.031916771
4.820748645,0.011365907,2.011765718,9.56411171,-0.078952007,0.155078843,0.055587102
4.840857708,-0.179461703,2.120040894,9.251849174,-0.007024744,0.220592216,0.143243685
4.860966718,0.019740786,2.536391973,8.606385231,0.081319042,0.155842409,0.214407384
4.88107578,0.479760945,2.922832966,8.024929047,0.089107342,0.063299045,0.198678076
4.901184791,0.745962441,3.12921381,7.812565804,0.018478129,-0.046806172,0.115755558
4.921293853,0.800997376,3.108276606,8.126026154,-0.072996244,-0.1622563,0.005803049
4.941402864,0.597009242,2.888735056,8.734998703,-0.107050985,-0.176153079,-0.061695572
4.961511874,0.378664196,2.726023197,9.111868858,-0.079410143,-0.129881397,-0.059863031
4.981620937,0.265005112,2.838485956,8.976076126,-0.035429142,-0.041919392,-0.022906773
5.001729947,0.27577281,3.022733212,8.611170769,-0.038636088,0.026648212,0.009468133
5.02183901,0.4444668,3.229114056,8.531609535,-0.105065726,0.001450762,0.002443389
5.04194802,0.589830756,3.373281717,8.822935104,-0.154544354,-0.027106347,-0.036498122
5.062057083,0.549152792,3.412165165,9.389435768,-0.124918267,-0.10743276,-0.077577598
5.082166093,0.553340256,3.43011117,9.440283775,-0.060626589,-0.20761171,-0.125681818
5.102275155,0.514456868,3.503092289,9.43489933,-0.084755056,-0.258464754,-0.177603841
5.122384166,0.570089996,3.400799274,9.937392235,-0.148741305,-0.283051342,-0.189820781
5.142493228,0.785444021,3.190230846,10.41416264,-0.176534861,-0.263809651,-0.208909765
5.162602239,0.716052175,3.138186932,10.9058876,-0.175618589,-0.171113595,-0.222806543
5.182711301,0.374476731,3.151945591,10.94357395,-0.092696071,-0.050165832,-0.173938751
5.202820312,0.098105729,3.605983734,10.11027431,-0.097582847,-0.021150587,-0.121558607
5.222929322,1.026520967,3.28414917,10.39801121,-0.330468357,-0.20654273,-0.127208948
5.243038385,1.785643935,2.519043922,11.73141098,-0.484860003,-0.053372778,-0.174855024
5.263147447,1.097109199,2.522035122,12.33679581,-0.390942246,0.273430497,-0.198525354
5.283256458,0.740578592,2.313261271,11.60160065,-0.249531105,0.196921885,-0.162332654
5.30336552,1.392622828,1.764706731,11.45982552,-0.14507623,-0.006032117,-0.158820286
5.32347453,1.540977836,1.45782721,11.40299606,0.123925641,0.100713439,-0.175465882
5.343583593,0.933799028,1.552343726,10.277771,0.478675187,0.215552732,-0.167524859
5.363692603,0.556929469,1.881356835,8.463413239,0.692471743,0.188980877,-0.113159455
5.383801666,0.603589535,2.36650157,7.18145895,0.592445493,0.059328541,-0.098499119
5.403910676,0.976869822,2.730210543,7.359126091,0.329170317,-0.107127339,-0.137440637
5.424019739,1.73060894,2.681157827,8.323433876,0.10743276,-0.209291548,-0.260068208
5.444128749,1.976471543,2.382055044,9.061619759,-0.034054734,-0.145916134,-0.467756301
5.464237812,1.271187067,1.849053741,9.732208252,-0.170120955,-0.034436513,-0.584122717
5.484346822,0.4953143,1.513460279,10.60020447,-0.172411636,0.125147328,-0.491121203
5.504455885,0.084346995,1.648056626,10.49551868,0.035887275,0.309928626,-0.305423617
5.524564895,0.090927258,2.081755638,9.102297783,0.218759671,0.369333535,-0.166150451
5.544673958,0.327816695,2.585444927,7.999206066,0.191424266,0.238917634,-0.107050985
5.56478302,0.637089014,2.966501951,7.957930088,0.085289545,0.091703445,-0.135455385
5.58489203,0.683150888,2.993421078,8.333004951,0.030847786,-0.017027367,-0.209520608
5.605001093,0.460618347,2.798406124,8.496912956,-0.004581355,-0.065284304,-0.233496368
5.625110103,0.37986058,2.73798728,8.811569214,-0.076814041,-0.078264803,-0.201732308
5.645219166,0.418145746,2.702095032,9.250652313,-0.11942064,-0.017638214,-0.160041988
5.665328176,0.462412983,2.612962246,9.415757179,-0.118504368,0.023288552,-0.119267926
5.685437239,0.488734037,2.659622431,9.477372169,-0.118351653,0.023899399,-0.08322794
5.705546301,0.481555551,2.834298372,9.509077072,-0.092848785,0.044362783,-0.046577103
5.725655312,0.390628308,2.951546669,9.36550808,-0.055892523,0.068796672,-0.01099525
5.745764374,0.445065022,3.074178934,9.123832703,-0.029320668,0.079639211,0.031000499
5.765873385,0.459421933,3.317050457,8.888737679,-0.025808297,0.119038858,0.051769305
5.785982447,0.37986058,3.453441381,8.671588898,-0.018325418,0.1182753,0.067040488
5.80609151,0.431306273,3.536591768,8.547162056,-0.023212196,0.012751437,0.066735066
5.82620052,0.465404004,3.698705673,8.761918068,-0.033749312,-0.039323293,0.05482354
5.846309583,0.482751966,3.659822226,9.021539688,-0.027793551,-0.010918895,0.051158458
5.866418593,0.510269404,3.454039574,9.318847656,-0.035734564,0.008628218,0.052380152
5.886527655,0.38285163,3.42472744,9.837491989,-0.01267508,0.045737188,0.080937259
5.906636718,0.392422915,3.34875536,10.21914768,0.054059982,0.094299547,0.112395898
5.926745728,-0.201595306,3.690330744,10.09711361,0.1040731,0.206237301,0.148130462
5.946854791,-0.92303133,4.069592953,9.674779892,0.029778805,0.178291038,0.221737549
5.966963853,-0.518046081,3.744169235,9.868000984,-0.206313655,-0.048638713,0.294122964
5.987072864,0.594018221,3.321237803,11.41914749,-0.504712522,-0.233878151,0.237466872
6.007181926,1.587637782,2.089532375,13.83829117,-0.548998952,-0.286411017,0.120336913
6.027290937,1.236491084,1.048654556,14.91027641,-0.074370652,-0.143472746,0.08322794
6.047399999,-0.095114701,1.052842021,12.28475189,0.585268021,0.111555979,0.204633832
6.067509062,-0.853041291,1.727019787,8.386843681,0.768064082,0.128354281,0.375365645
6.087618072,-0.530608416,2.306680918,6.397211552,0.38109234,0.009849912,0.494328141
6.107727135,0.373878539,2.542972326,7.532605648,-0.055587102,-0.033367533,0.471268654
6.127836197,0.62751776,2.4173491,9.693324089,-0.117282674,-0.124231063,0.356734812
6.147945208,0.513260484,2.096112728,10.68395329,0.112624966,-0.272666931,0.287250936
6.16805427,0.469591439,1.959721804,10.01874828,0.309012353,-0.256632209,0.288014472
6.188163333,0.518046081,2.126022816,8.991629601,0.263962358,-0.115221061,0.284654826
6.208272395,0.480359137,2.222334146,8.679964066,0.110028863,0.044210069,0.249531105
6.228381405,0.396012157,2.236092806,8.84387207,0.040163208,0.113541231,0.214712814
6.248490468,0.342771858,2.385046005,8.91505909,0.083915144,0.073988877,0.193180442
6.26859953,0.522831738,2.502892494,8.508877754,0.135226309,0.003741439,0.169357404
6.288708541,0.659222662,2.714657307,7.992625713,0.089107342,-0.001756186,0.118504368
6.308817603,0.659820855,2.910868645,7.942376614,-0.01343864,0.036879905,0.066887774
6.328926666,0.677168787,2.932404041,8.268398285,-0.088725567,0.029397024,0.008551862
6.349035676,0.550947428,2.954537868,8.544769287,-0.099262677,0.004963134,-0.046118967
6.369144739,0.334396958,2.972483873,8.586046219,-0.084296919,0.010918895,-0.054212693
6.389253801,0.272183567,3.064009428,8.386843681,-0.101553358,0.008475506,-0.035123717
6.409362864,0.445065022,3.290131092,8.356334686,-0.164776042,0.018554486,-0.028557109
6.429471874,0.610169768,3.397808075,8.606385231,-0.244186193,0.0096972,-0.064902522
6.449580937,0.608375132,3.322434187,9.064610481,-0.273201436,-0.014889402,-0.101400644
6.469689999,0.623928487,3.292523861,9.714859962,-0.22295925,-0.110639706,-0.121864028
6.48979901,0.554536641,3.369094372,10.00379372,-0.122474879,-0.188217312,-0.133470133
6.509908072,0.587437987,3.281756163,9.906285286,-0.064291671,-0.254188806,-0.12552911
6.530017135,0.704686284,3.240479946,9.957133293,-0.092696071,-0.261824399,-0.101247937
6.550126197,0.910468996,3.25005126,10.15155029,-0.124918267,-0.185468495,-0.089794546
6.570235208,0.744167864,3.215953588,10.10070229,-0.162943512,-0.100102596,-0.114381149
6.59034427,-0.084945202,3.760919094,9.675976753,-0.240215689,-0.057801422,-0.084755056
6.610453333,0.76271224,3.522234917,10.14975548,-0.480584085,-0.345510483,-0.082311668
6.630562395,2.395813704,2.150549412,12.30030441,-0.636960983,-0.425684184,-0.182796046
6.650671405,1.841875196,1.7670995,13.57328606,-0.369562596,-0.095368527,-0.253501624
6.670780468,1.020538807,1.808375716,11.73500061,-0.052838288,-0.035658211,-0.233038232
6.69088953,1.607378602,1.214955688,10.41715336,-0.10521844,-0.103156827,-0.225555345
6.710998593,1.37048912,1.247856975,10.65224838,-0.077577598,0.271597952,-0.242353648
6.731107655,0.205184549,1.763510346,9.861420631,0.179970875,0.53166616,-0.2583884
6.751216666,-0.466600418,2.014158487,8.20498848,0.33680591,0.406900644,-0.192722306
6.771325728,-0.074775711,2.275574446,7.573882103,0.204252049,0.037032615,-0.118198946
6.791434791,0.824327409,2.395813704,8.488538742,0.027793551,-0.179512739,-0.163707063
6.811543853,1.194018483,2.254039049,9.471389771,-0.02275406,-0.137669697,-0.288930744
6.831652916,0.741775036,2.226521492,9.882955551,-0.008093726,-0.022372281,-0.386208177
6.851761926,0.177068874,1.966302037,9.628120422,-0.037872531,0.072767183,-0.377961755
6.871870989,-0.009571291,1.630708575,9.840482712,-0.118351653,0.175236806,-0.272437871
6.891980051,-0.077168532,1.6181463,10.21017456,-0.071469128,0.280913383,-0.137898773
6.912089114,-0.165702969,1.852044702,9.898509026,0.074752435,0.290381521,-0.013896775
6.932198176,-0.020937199,2.091326952,9.0418787,0.178749174,0.218606964,0.087045737
6.952307187,0.203389928,2.401197433,8.453842163,0.179360032,0.113541231,0.129652336
6.972416249,0.438484758,2.59740901,8.362915039,0.134310037,0.032145835,0.125223681
6.992525312,0.517447889,2.602194548,8.527421951,0.086816669,0.013209572,0.10628742
7.012634374,0.53479588,2.523829699,9.040083885,0.082082599,-0.037643462,0.110105217
7.032743437,0.466002196,2.560320139,9.113663673,0.136600718,-0.055968881,0.137593344
7.052852499,0.597607434,2.682952404,8.711071014,0.123925641,-0.078722939,0.177298412
7.07296151,1.110867858,2.843869686,8.508877754,0.001985254,-0.02817533,0.178520113
7.093070572,1.331605792,3.038286448,8.897112846,-0.121253178,0.061161082,0.10017895
7.113179635,1.076171994,3.114258766,9.364311218,-0.161416382,0.110028863,0.011300675
7.133288697,0.676570594,3.097508907,9.812367439,-0.103844032,0.086205818,-0.032527618
7.15339776,0.376271367,3.019144058,9.861420631,-0.02183779,0.036574479,-0.03115321
7.173506822,0.285344094,2.99401927,9.896116257,-0.004581355,0.035505496,-0.001527118
7.193615885,0.241076887,2.982055187,10.03430176,0.000152712,0.112319537,0.0361927
7.213724895,0.131007046,2.964108944,10.00498962,0.009162709,0.175542235,0.083380654
7.233833958,0.133998066,2.986242771,9.951150894,-0.009315421,0.201808661,0.144923508
7.25394302,-0.136989102,3.372683525,9.949954987,-0.054670829,0.235557973,0.196387395
7.274052083,-0.098105729,3.52582407,10.2711916,-0.153628081,0.065895148,0.205702812
7.294161145,0.533001244,2.78285265,11.26002502,-0.23991026,-0.159660205,0.171648085
7.314270208,0.415752947,2.475374937,12.10050392,-0.239452124,-0.135379016,0.155918762
7.33437927,0.159122706,2.284547329,12.47856998,-0.164470628,-0.100560732,0.186308414
7.354488333,0.465404004,1.55054903,12.47617722,-0.020616096,-0.060550235,0.244033486
7.374597395,0.458225548,1.131805062,11.98086262,0.257701188,0.114762932,0.322069228
7.394706405,-0.139381915,1.407577872,10.17846966,0.591987371,0.252967119,0.414459854
7.414815468,-0.687338293,2.035693884,7.890930653,0.71919632,0.199823409,0.500589311
7.43492453,-0.596411049,2.48793745,6.314060688,0.506468713,0.041919392,0.544264913
7.455033593,0.035294134,2.596810818,6.86022234,0.108501747,-0.159507483,0.496618807
7.475142655,0.623928487,2.26540494,8.835497856,-0.084144212,-0.277095586,0.399341404
7.495251718,0.782453001,1.856232166,10.21256733,-0.004734066,-0.305958122,0.286945492
7.51536078,0.538385093,1.576870084,10.02114105,0.130034104,-0.208375275,0.229831278
7.535469843,0.27577281,1.563111424,9.201001167,0.116137333,-0.019318044,0.25319618
7.555578905,0.055034921,1.731805444,8.709874153,0.021379653,0.138280556,0.310463131
7.575687968,0.077766739,1.998605132,8.658429146,-0.036803547,0.196311042,0.353527844
7.59579703,0.232103795,2.325823545,8.772088051,-0.01099525,0.16699037,0.369257182
7.615906093,0.471984267,2.562713146,8.528019905,0.054365408,0.074599721,0.331690073
7.636015155,0.519242525,2.710469961,8.087740898,0.031000499,-0.016263809,0.260831773
7.656124218,0.509671211,2.749951363,8.319844246,-0.048104223,-0.084678702,0.211811289
7.676233228,0.483350188,2.752942562,8.792427063,-0.06566608,-0.100866154,0.181879774
7.696342291,0.435493708,2.915056229,8.95513916,-0.032985751,-0.096284799,0.179894522
7.716451353,0.602991283,3.081955671,8.820542336,-0.024128467,-0.099339038,0.184170455
7.736560416,0.965503931,3.097508907,8.687142372,-0.091627091,-0.1040731,0.147214189
7.756669478,1.13120687,3.082553864,9.172885895,-0.187988237,-0.096437514,0.092848785
7.776778541,1.14795661,3.096312523,9.891330719,-0.190584347,-0.059023116,0.036345411
7.796887603,0.95114702,3.059223652,10.16889763,-0.104302168,-0.027717194,-0.005955761
7.816996666,0.656829834,3.022135019,9.930811882,-0.024128467,-0.032909397,0.021532366
7.837105728,0.909272611,3.114856958,9.64068222,-0.011147963,-0.095521241,0.067804046
7.857214791,1.435095429,3.256033421,9.63290596,-0.061542861,-0.124994621,0.027946262
7.877323853,1.637288928,3.277568817,9.940981865,-0.100331664,-0.108959884,-0.069178455
7.897432916,1.418943882,2.998206854,10.26580715,-0.093612343,-0.104225814,-0.163401648
7.917541978,0.713659346,3.227917671,9.95414257,-0.083838783,-0.081319042,-0.183406889
7.937651041,0.775872767,3.096910715,9.747162819,-0.250294656,-0.280302525,-0.1575986
7.957760103,2.088335991,2.075773716,10.79761219,-0.503643572,-0.403693676,-0.158972994
7.977869166,2.373081923,1.914856315,12.04905796,-0.550220668,-0.186842904,-0.225249931
7.997978228,2.101496458,1.861017823,11.81336498,-0.45950985,-0.019012621,-0.34070006
8.018087291,1.896910191,1.21854496,11.32403278,-0.426982224,0.056274302,-0.466229171
8.038196353,1.228714466,0.832702279,11.4323082,-0.248156697,0.23601611,-0.466229171
8.058305416,0.308674127,1.040877819,10.57208824,0.110792421,0.398654193,-0.392163932
8.078414478,-0.378065974,1.731805444,9.111269951,0.383535713,0.359559953,-0.280378878
8.098523541,0.019142581,2.283350945,8.00638485,0.410565704,0.102545984,-0.167524859
8.118632603,1.144367456,2.520240545,7.998608112,0.22715883,-0.153704435,-0.222501114
8.138741666,1.804786444,2.455634356,8.882157326,0.031764057,-0.22349374,-0.40010494
8.158850728,1.55892396,1.960319996,9.83509922,-0.113464877,-0.139807671,-0.570684075
8.178959843,0.689731121,1.432104349,10.59601688,-0.174396887,0.037643462,-0.586260676
8.199068905,-0.089132644,1.18743825,10.99860954,-0.098040983,0.253577977,-0.434159696
8.219177968,-0.484546572,1.292722464,10.46381378,0.116442762,0.415757924,-0.196234688
8.23928703,-0.257228434,1.686939955,9.164510727,0.270223558,0.420339257,0.009620844
8.259396093,0.229112774,2.275574446,8.201399803,0.304583728,0.330392003,0.102927767
8.279505155,0.501296341,2.697907448,7.670193195,0.254036099,0.207306296,0.077577598
8.299614218,0.421734989,2.877967358,7.728219032,0.156147838,0.054594472,0.022295926
8.31972328,0.405583441,2.831905603,8.289336205,0.09353599,-0.05428905,0.001221695
8.339832343,0.454038084,2.700898647,8.714061737,0.093383275,-0.065895148,0.006108473
8.359941405,0.501894534,2.632104874,8.734400749,0.063680828,-0.008628218,0.023364907
8.380050468,0.604785919,2.620140791,8.912068367,-0.017103724,0.053220067,0.057266932
8.40015953,0.717248559,2.635694027,9.394221306,-0.052838288,0.097659208,0.073301673
8.420268593,0.686141908,2.656033039,9.580264091,-0.006261184,0.127590716,0.078493871
8.440377655,0.519242525,2.849851847,9.358927727,0.041079476,0.136142582,0.10185878
8.460486718,0.497707099,3.157927752,9.053842545,0.05650337,0.148512244,0.134080976
8.48059578,0.581455886,3.388236761,8.855237961,0.022143213,0.120413266,0.129652336
8.500704895,0.613160789,3.519243956,9.035298347,-0.04214846,0.07124006,0.096819289
8.520813958,0.598205686,3.452843189,9.550951958,-0.076203197,0.027869906,0.062611841
8.54092302,0.540777922,3.196212769,9.978668213,-0.083838783,-0.003741439,0.041995749
8.561032083,0.349950314,3.062214851,10.35673428,-0.091779798,0.015958386,0.05803049
8.581141145,-0.001196411,3.151945591,10.65464115,-0.057725064,0.054594472,0.116213694
8.601250208,-0.438484758,3.448655605,10.31426239,-0.051616594,0.039017867,0.193485871
8.62135927,-0.004785645,3.293720484,10.31127071,-0.208451629,-0.111555979,0.251516372
8.641468333,0.637089014,3.01376009,11.33001518,-0.418583095,-0.1906607,0.232732803
8.661577395,0.940977514,2.485544443,12.75853062,-0.486081719,-0.232198313,0.171648085
8.68168651,1.071386337,1.387837172,13.90469265,-0.275339395,-0.206237301,0.147366896
8.701795572,0.716052175,0.558125854,13.52542973,0.188675448,0.021761434,0.230442122
8.721904635,-0.035294134,0.748355269,11.23011494,0.644520223,0.300613195,0.394149184
8.742013697,-0.674775958,1.606182218,8.490332603,0.812350512,0.363530487,0.534949482
8.76212276,-0.540777922,2.253440619,6.603592396,0.620849907,0.1906607,0.598477602
8.782231822,0.294317186,2.426920414,6.754938126,0.221355781,-0.091092594,0.522121668
8.802340885,0.946361363,2.188236237,8.729615211,0.004428643,-0.25968644,0.354138702
8.822449999,0.890728235,1.72223413,10.16650486,0.066047862,-0.317564219,0.196998239
8.842559062,0.547956407,1.346560955,10.14078236,0.188828155,-0.254952371,0.143243685
8.862668124,0.250049979,1.316650629,9.376275063,0.168822914,-0.064215317,0.185850278
8.882777187,0.062213387,1.549352646,8.977870941,0.049325917,0.153093591,0.269383639
8.902886249,0.28414768,1.871187329,8.73200798,-0.018936265,0.306263536,0.341158181
8.922995312,0.594018221,2.325225353,8.414958954,-0.036498122,0.343830645,0.335355133
8.943104426,0.820738196,2.656033039,8.230711937,-0.049173206,0.250065595,0.265260428
8.963213489,0.960120082,2.686541557,8.199604988,-0.07009472,0.109418012,0.160500124
8.983322551,0.90329057,2.647060156,8.506484032,-0.089947261,0.006490252,0.068873025
9.003431614,0.600598455,2.677568436,8.74935627,-0.075286925,-0.004963134,0.028251685
9.023540676,0.382253408,2.727219582,8.754739761,-0.042301174,0.001603474,0.03451287
9.043649739,0.484546572,2.818745136,8.664410591,-0.022906773,-0.000229068,0.053601846
9.063758853,0.672981381,3.043670416,8.532805443,-0.023975754,-0.004963134,0.038941514
9.083867916,0.741775036,3.257827997,8.425128937,-0.056197949,-0.045126341,-0.018783553
9.103976978,0.767497838,3.256033421,8.52622509,-0.106898271,-0.106669202,-0.087351158
9.124086041,0.778863788,3.133999348,8.980861664,-0.132859275,-0.178138331,-0.148741305
9.144195155,0.713061154,2.965305567,9.448060036,-0.102469631,-0.25342527,-0.189668074
9.164304218,0.634097993,2.825923443,9.53898716,-0.076661333,-0.291297793,-0.202190444
9.18441328,0.63589263,2.775674343,9.655039787,-0.110868774,-0.295573711,-0.196387395
9.204522343,0.652642369,2.796611547,10.05105114,-0.148435891,-0.273583204,-0.193027735
9.224631405,0.41096729,2.970091105,10.01874828,-0.175160453,-0.216469005,-0.197761804
9.244740468,0.40797627,3.135794163,9.949954987,-0.373838514,-0.277248293,-0.205091968
9.264849583,1.173679471,2.881556749,11.39282703,-0.672237396,-0.351160824,-0.237008736
9.284958645,1.497308731,2.691925526,13.37528038,-0.844190896,-0.224410012,-0.330162942
9.305067708,1.621137381,2.081157446,14.79422379,-0.792116165,-0.131866649,-0.413390875
9.325176822,1.829911113,0.871585667,15.1657095,-0.503948987,-0.046042614,-0.439657301
9.345285885,1.535593987,0.14057833,14.21216965,-0.052990999,0.207306296,-0.383764803
9.365394947,0.672383189,0.273379982,12.08734322,0.429043829,0.495778918,-0.245407879
9.38550401,0.10049855,0.699302435,9.333204269,0.808990836,0.636731923,-0.066887774
9.405613124,-0.102293171,1.316650629,6.442675114,0.897258282,0.647421718,0.049631339
9.425722187,-0.173479646,2.158325911,4.976472855,0.613672435,0.409038603,0.101095222
9.445831249,0.606580555,2.79421854,5.560919762,0.212498486,-0.000687203,0.080173701
9.465940312,1.755135417,2.767299414,7.394420147,-0.074523367,-0.40766418,-0.115908265
9.486049426,2.36650157,2.306680918,9.07477951,-0.204328403,-0.539301753,-0.391400367
9.506158489,2.035095692,1.486541033,10.05045319,-0.304049224,-0.413009107,-0.628714562
9.526267551,0.81894356,0.842871785,11.12782192,-0.363912255,-0.069102094,-0.638488114
9.546376614,-0.285942316,0.730409086,11.78225899,-0.166914016,0.335584223,-0.361163437
9.566485728,-0.512662232,1.144367456,10.49491978,0.170502737,0.542814136,-0.018478129
9.586594791,0.131007046,2.008176327,8.675178528,0.315884382,0.485394508,0.209215179
9.606703853,1.040877819,2.858824968,7.51645422,0.29358846,0.304736435,0.24357535
9.626812968,1.517647743,3.402593851,7.106683254,0.171724439,0.119802415,0.074370652
9.64692203,1.352542996,3.498306751,7.418348312,0.029778805,-0.025579229,-0.12659809
9.667031093,0.86680001,3.153740168,8.111668587,-0.049325917,-0.092772424,-0.231511116
9.687140155,0.500099957,2.797807932,8.673981667,-0.060321167,-0.084831417,-0.207993493
9.70724927,0.57128638,2.695514679,8.953344345,-0.054518119,-0.023288552,-0.13362284
9.727358333,0.758524776,2.790629387,9.151947975,-0.056197949,0.051845662,-0.097582847
9.747467395,0.813559711,2.854039192,9.285347939,-0.053754561,0.120718688,-0.095292173
9.76757651,0.70348984,2.871387243,9.31944561,-0.027640838,0.152177319,-0.096055731
9.787685572,0.585045159,2.928814888,9.206983566,-0.003817795,0.143472746,-0.090252683
9.807794635,0.481555551,3.000599623,9.190832138,0.003206948,0.127896145,-0.090405397
9.827903749,0.300897449,2.94317174,9.249456406,-0.006872032,0.108501747,-0.093306921
9.848012812,0.187238365,2.836092949,9.513264656,-0.050547611,0.065284304,-0.090558104
9.868121874,0.174077854,2.604587555,10.17069244,-0.11163234,0.007406523,-0.059099473
9.888230989,0.095712908,2.39222455,11.18345451,-0.128736064,-0.014736691,0.009468133
9.908340051,-0.213559419,2.755933523,11.87916756,-0.006566608,0.079028361,0.10353861
9.928449114,-0.815354288,3.512663603,10.67916775,0.069254808,0.126369029,0.169357404
9.948558228,-0.609571576,3.589832067,9.803394318,-0.243880764,-0.05428905,0.209673315
9.968667291,0.820738196,2.740978241,11.40000534,-0.648108959,-0.300002366,0.169662833
9.988776353,1.718644857,1.560718536,14.331213,-0.719578087,-0.420186549,0.031916771
10.00888547,1.28315115,0.899103105,16.65823364,-0.14507623,-0.349022865,-0.039246935
10.02899453,0.209371984,0.506081998,14.88156223,0.828537941,-0.180581719,0.068414897
10.04910364,-0.543768942,0.751944542,10.36211872,1.370512128,-0.035352785,0.254570603
10.06921271,-0.792622507,1.759921074,6.635297298,1.260254264,0.128965125,0.447292894
10.08932177,-0.40797627,2.703889608,4.824528694,0.701939881,0.266253054,0.489899516
10.10943088,0.129212424,3.144168854,5.659025669,0.035581853,0.223951876,0.374449372
10.12953995,0.617348254,2.76311183,8.392825127,-0.273048729,0.06681142,0.215781793
10.14964901,0.574277461,2.021935225,10.35015392,-0.13438639,-0.152635455,0.06734591
10.16975812,-0.007776673,1.53080833,10.28255749,0.149275795,-0.320923865,0.020616096
10.18986719,-0.349950314,1.403988719,9.34457016,0.218759671,-0.342456251,0.118504368
10.2099763,-0.171086818,1.576271892,8.984451294,0.102545984,-0.150955632,0.267551094
10.23008536,0.117248312,1.948355794,8.906683922,0.021379653,0.184094086,0.356582075
10.25019448,0.095114701,2.375474691,8.440681458,0.002596101,0.373304039,0.379183441
10.27030354,0.212363005,2.547757864,7.953144073,-0.005955761,0.298933387,0.369104445
10.2904126,0.387039065,2.694318295,7.931010723,-0.042912021,0.077501245,0.306798041
10.31052172,0.41934216,2.781656265,8.553742409,-0.033291176,-0.145457998,0.238077715
10.33063078,0.518046081,2.719442844,8.980861664,0.048867781,-0.304889143,0.171495363
10.3507399,0.518046081,2.783450842,8.990432739,0.08819107,-0.306874394,0.124918267
10.37084896,0.521635354,2.871985435,8.782855988,0.030847786,-0.188828155,0.110410646
10.39095802,0.573081017,3.000001431,8.992825508,-0.06902574,-0.06513159,0.08597675
10.41106714,0.661615431,3.151347399,9.366106033,-0.110257931,-0.002672457,0.046577103
10.4311762,0.681954444,3.180659533,9.676574707,-0.094681323,-0.006184828,-0.008093726
10.45128531,0.658624411,3.078964472,9.92183876,-0.014507622,-0.045737188,-0.036956258
10.47139437,0.537786901,3.078964472,9.735198975,0.087427512,-0.106669202,-0.049478628
10.49150349,0.567098975,3.229114056,9.539586067,0.1260636,-0.178749174,-0.047798797
10.51161255,0.853041291,3.216551781,9.607182503,0.112014115,-0.223341033,-0.07345438
10.53172167,0.941575706,3.099901676,9.76211834,0.098728187,-0.214025602,-0.127056226
10.55183073,0.526421011,3.220141172,9.70827961,0.064978875,-0.181345284,-0.153322667
10.57193984,-0.232702002,4.045664787,9.345169067,-0.062000997,-0.225326285,-0.125987247
10.5920489,1.058824062,3.530011654,10.09053326,-0.340547353,-0.522350788,-0.133775547
10.61215797,2.561516523,2.436491728,11.83011532,-0.597561359,-0.439733684,-0.283738554
10.63226708,1.890329838,2.524427891,13.32981682,-0.614970505,0.027564483,-0.414307147
10.65237614,0.983450115,2.174477577,13.45723438,-0.374602079,0.190202564,-0.388193429
10.67248526,1.299900889,1.258624673,12.26859951,-0.048104223,0.196463749,-0.277935505
10.69259432,1.422533035,1.176670551,10.88315582,0.263504237,0.298169822,-0.196845532
10.71270344,0.987039328,1.688136339,9.223134995,0.580381274,0.414536208,-0.164623335
10.7328125,0.498305321,2.151147604,7.09172821,0.747447968,0.364599466,-0.136677072
10.75292161,0.165104762,2.811566591,5.675775528,0.588627696,0.111403272,-0.107356407
10.77303068,0.470189661,3.421736479,6.070590973,0.241361022,-0.21982865,-0.130568609
10.79313979,1.348355532,3.298506021,7.922037601,-0.0219905,-0.484172821,-0.246782288
10.81324885,2.263610125,2.46819663,9.482755661,-0.143090963,-0.627111077,-0.447598338
10.83335797,2.29651165,1.682154298,10.74616623,-0.27091077,-0.584504485,-0.628714562
10.85346703,1.299302697,1.345962763,11.87019539,-0.252890766,-0.13858597,-0.623980463
10.87357615,0.10767702,1.379462242,11.34257793,-0.003970507,0.377579957,-0.448209167
10.89368521,-0.521037102,1.769492388,9.090332985,0.153246313,0.647421718,-0.197150946
10.91379432,-0.255433828,2.408974171,7.607979774,0.098270051,0.591071069,0.021379653
10.93390344,0.533599436,3.096312523,7.273582458,0.004886778,0.385979116,0.062153708
10.9540125,0.978664458,3.497708559,7.663014412,-0.060779303,0.119649708,-0.060779303
10.97412161,0.960120082,3.413959742,8.347960472,-0.063375406,-0.076432265,-0.188751802
10.99423068,0.614357233,3.141776085,8.851051331,-0.033596598,-0.186537474,-0.23991026
11.01433979,0.413360119,2.909074068,8.991629601,-0.044133715,-0.168212071,-0.208909765
11.03444885,0.553340256,2.740380049,9.079565048,-0.127056226,-0.054441761,-0.153169945
11.05455797,0.660419047,2.680559635,9.417551994,-0.207382649,0.107585475,-0.113617592
11.07466708,0.490528643,2.806781054,9.808777809,-0.183865026,0.22013408,-0.062611841
11.09477614,0.393021107,2.9491539,9.5754776,-0.076508619,0.231740177,-0.002748813
11.11488526,0.452243477,3.157927752,8.999405861,-0.003665084,0.189133585,0.037872531
11.13499432,0.577268481,3.300300598,8.586046219,-0.000458135,0.142709196,0.045202699
11.15510344,0.526421011,3.407977581,8.603393555,-0.035123717,0.099033609,0.014354911
11.1752125,0.383449823,3.378067255,8.885746956,-0.051311169,0.061161082,-0.001527118
11.19532161,0.230907381,3.260220766,9.25783062,-0.055739813,0.039323293,0.012064233
11.21543068,0.19561325,3.138186932,9.631111145,-0.036345411,0.031687703,0.067956761
11.23553979,0.375673145,3.164507866,9.861420631,-0.012369657,0.033367533,0.118504368
11.25564891,0.412163705,3.33439827,9.836894035,-0.020157959,0.077959381,0.123696573
11.27575797,-0.311066955,3.945166349,9.306285858,-0.155155197,0.158285797,0.112090468
11.29586708,-0.471386075,3.859024763,9.946365356,-0.44072631,-0.008475506,0.145381644
11.31597614,0.317048997,3.136990547,11.4323082,-0.612374365,-0.145457998,0.163248926
11.33608526,0.736989379,2.830709219,12.73579884,-0.703543305,-0.15003936,0.097888276
11.35619437,1.086939692,1.80658114,14.31147194,-0.582748294,-0.113388524,0.05650337
11.37630344,0.836291492,0.909870803,14.51366615,-0.105523862,0.051998373,0.09575031
11.39641255,0.090927258,0.897906721,12.34397411,0.444162309,0.280760676,0.246018738
11.41652167,-0.388833672,1.355534077,9.622735977,0.747142553,0.355436742,0.421179175
11.43663073,-0.463011175,1.9585253,7.245467186,0.77493608,0.378954381,0.549915254
11.45673984,-0.415154725,2.604587555,5.800800323,0.465694666,0.294504732,0.560910523
11.4768489,-0.126221389,2.994617462,6.84945488,0.037872531,0.026342789,0.509141207
11.49695802,0.67537421,2.548356056,9.245268822,-0.06291727,-0.308706939,0.406671554
11.51706714,1.174277663,1.94177556,10.46560764,0.101629712,-0.479438752,0.254876018
11.5371762,0.816550732,1.667797327,10.10967541,0.214483738,-0.4065952,0.146297917
11.55728531,0.350548506,1.539781332,9.515657425,0.115984626,-0.22715883,0.141411141
11.57739443,-0.030508488,1.610967875,9.479166985,-0.007177455,0.060397524,0.221737549
11.59750349,-0.153738856,1.955534339,9.231510162,-0.018783553,0.291297793,0.320542097
11.6176126,0.090927258,2.357528448,8.556734085,-0.01099525,0.330697447,0.365133941
11.63772172,0.46719861,2.645863533,8.169694901,-0.042453885,0.211734936,0.319014967
11.65783078,0.604187727,2.715255499,8.376075745,-0.075286925,0.021914145,0.198678076
11.6779399,0.430109859,2.641077995,8.915657043,-0.048562355,-0.129270554,0.105371155
11.69804901,0.101694964,2.566900492,9.025128365,0.01175881,-0.161187321,0.078035735
11.71815807,-0.022133609,2.547757864,8.896514893,-0.003512372,-0.129117847,0.097277425
11.73826719,0.192024022,2.603390932,9.141778946,-0.067804046,-0.059786674,0.124918267
11.7583763,0.493519664,2.641077995,9.454640388,-0.08154811,-0.000687203,0.104149461
11.77848536,0.506081998,2.688336134,9.416355133,-0.050547611,0.033672955,0.061542861
11.79859448,0.302093864,2.772084951,9.127422333,-0.022295926,0.031534988,0.050547611
11.81870359,0.303290278,2.895913601,8.752346992,-0.018630842,-0.012751437,0.047340661
11.83881271,0.404985219,3.007778168,8.630910873,-0.053754561,-0.0678804,0.02107423
11.85892177,0.533001244,2.992822886,8.831310272,-0.08322794,-0.126674444,-0.020310672
11.87903088,0.484546572,2.998805046,9.046664238,-0.094681323,-0.171724439,-0.06627693
11.89914,0.393021107,2.930011272,9.367900848,-0.120642334,-0.217385262,-0.085213192
11.91924906,0.537188709,2.792423964,10.00917721,-0.139425889,-0.235710681,-0.089183703
11.93935818,0.620937467,2.708675146,10.5978117,-0.08933641,-0.181956127,-0.093765058
11.95946729,0.527617395,2.781058073,10.66839981,-0.015729317,-0.145763427,-0.091168955
11.97957635,0.05383851,3.527618885,9.990034103,-0.051616594,-0.117664456,-0.080173701
11.99968547,0.561116934,3.648456335,10.52363396,-0.351848006,-0.332071841,-0.112701319
12.01979458,1.636092424,2.930011272,12.14058399,-0.595881522,-0.281218797,-0.195318416
12.0399037,1.580459356,2.508276224,13.40638733,-0.640931487,-0.006948388,-0.306645334
12.06001276,1.532602906,1.432702541,13.28495121,-0.410947502,0.186842904,-0.313517362
12.08012187,1.6181463,0.631106973,11.96231842,-0.147825033,0.35192439,-0.265413135
12.10023099,1.200000525,0.781256616,10.7042923,0.099491745,0.535942137,-0.17531316
12.1203401,0.558724105,1.209571838,9.369695663,0.402471989,0.59626329,-0.108119965
12.14044917,-0.253040999,1.714457393,7.7838521,0.644367516,0.464625686,-0.027640838
12.16055828,-0.560518682,2.368296146,6.504290104,0.637648165,0.095979378,0.095444888
12.1806674,0.354735971,2.894119024,6.598208427,0.387506217,-0.400792152,0.152864531
12.20077651,1.994417667,2.846860647,8.004590034,0.110792421,-0.72545749,0.014202199
12.22088562,2.991028309,2.099701881,9.5754776,-0.154238939,-0.780739129,-0.288014472
12.24099469,2.48195529,1.34237349,11.27737331,-0.320542097,-0.444315016,-0.511126459
12.2611038,0.717248559,1.007976532,12.0155592,-0.20005247,0.154773429,-0.47875154
12.28121292,-0.530608416,1.10010016,10.54098225,0.060779303,0.514409721,-0.235176191
12.30132203,-0.577268481,1.585843205,8.614759445,0.099949881,0.54831177,0.050547611
12.32143109,0.333798766,2.267797709,7.889734268,0.021685077,0.40033403,0.206771791
12.34154021,1.153340459,2.785245657,8.029116631,-0.030236939,0.200128838,0.12552911
12.36164932,1.324427366,2.92941308,8.404789925,-0.030084228,0.034283802,-0.042453885
12.38175844,0.86380899,2.831307411,8.614161491,-0.016034741,-0.026342789,-0.161721811
12.40186755,0.31226337,2.618944407,8.606983185,-0.040010497,-0.037185326,-0.160500124
12.42197661,0.413360119,2.416750908,8.874979019,-0.109188944,-0.017790927,-0.085671328
12.44208573,0.801595569,2.391027927,9.280562401,-0.160041988,0.062535487,-0.053754561
12.46219484,0.848255634,2.467598438,9.713065147,-0.165539607,0.14637427,-0.076814041
12.48230396,0.582054079,2.4173491,9.82732296,-0.095597595,0.194783926,-0.075745061
12.50241307,0.32362926,2.398804665,9.555737495,-0.000152712,0.177832902,-0.030389652
12.52252214,0.308674127,2.502294302,9.03051281,0.054976255,0.144083604,0.028709821
12.54263125,0.498903513,2.600399971,8.773283958,0.018019995,0.093841411,0.038330667
12.56274036,0.467796832,2.625524759,9.159127235,-0.037108973,0.074752435,0.025044737
12.58284948,0.351146728,2.535195589,9.839884758,-0.030084228,0.041766681,0.034207448
12.60295859,0.384048045,2.39222455,10.3848505,0.036803547,0.022524992,0.081089973
12.62306771,0.546759963,2.318645239,10.66301632,0.124689199,0.03840702,0.138662323
12.64317677,0.387637258,2.581257343,10.54995537,0.199823409,0.12438377,0.181574345
12.66328588,-0.440279365,3.48933363,9.450452805,0.161187321,0.207306296,0.209520608
12.683395,-0.485144794,3.60478735,8.895915985,-0.14171657,-0.038101599,0.237925008
12.70350411,0.819541752,2.779861689,10.52243805,-0.587482333,-0.378343523,0.146603346
12.72361323,1.549950838,1.617548108,13.57567883,-0.773179889,-0.431029111,0.034054734
12.74372234,1.244267821,0.783649445,15.83629799,-0.352611572,-0.174931377,-0.013133216
12.76383146,-0.16749759,0.550947428,13.85384464,0.431945354,0.232198313,0.114228435
12.78394052,-0.867398202,0.930209816,9.623334885,0.808227301,0.331002861,0.348793775
12.80404964,-0.259023041,1.654038668,6.761518478,0.569996834,0.319549471,0.495244414
12.82415875,0.244666114,2.389233351,6.747759819,0.186537474,0.43316707,0.485470861
12.84426786,0.236889437,2.450848579,8.185248375,0.013591352,0.340471,0.313822776
12.86437698,-0.449252456,2.218744755,9.413962364,0.131255806,-0.012751437,0.223875523
12.88448609,-0.198604286,1.667797327,9.905089378,0.310692191,-0.466152817,0.228609592
12.90459521,0.530608416,1.309472203,10.0337038,0.31389913,-0.726221025,0.212727562
12.92470432,1.19581306,0.901495934,10.92921734,0.116748184,-0.653072059,0.140342161
12.94481339,0.774078131,0.668195725,11.96291637,0.043981001,-0.15813309,0.097124711
12.9649225,-0.165104762,0.724427044,11.12243748,0.104225814,0.353146076,0.156987742
12.98503161,-0.28713873,1.164108157,9.07477951,0.055434387,0.655057311,0.275950253
13.00514073,0.217746854,1.79521513,8.121239662,-0.081242688,0.752029359,0.337034971
13.02524984,0.680159807,2.172683001,7.878966808,-0.150879279,0.610923588,0.259304673
13.04535896,0.71485579,2.373680115,8.260024071,-0.152406395,0.316953361,0.114228435
13.06546807,0.538983285,2.364108801,8.927022934,-0.064749807,0.005115846,0.021226943
13.08557719,0.415752947,2.188236237,9.37687397,0.070781924,-0.27113983,-0.029473381
13.1056863,0.552143812,2.067996979,9.466006279,0.132630214,-0.359559953,-0.051463883
13.12579542,0.707079113,2.104487419,9.468997002,0.086053111,-0.262587965,-0.087503873
13.14590453,0.803988397,2.063809633,9.576076508,-0.026113721,-0.103462257,-0.145687074
13.16601359,0.634696186,2.058425665,10.02473068,-0.115755558,0.023135839,-0.185850278
13.18612271,0.28713873,2.409572363,10.2406826,-0.110563353,0.024968382,-0.209062472
13.20623182,0.561116934,2.083550215,10.37228775,-0.117893525,-0.118580721,-0.243117213
13.22634094,0.710070133,1.633101463,10.71625614,-0.060321167,-0.048638713,-0.253959745
13.24645005,-0.142372951,2.007578135,10.1084795,0.06681142,0.132477492,-0.25319618
13.26655917,-0.478564531,2.386840582,9.30807972,0.107585475,0.081777178,-0.207535356
13.28666828,0.19262223,2.376671076,9.549755096,0.081929892,-0.140113086,-0.189973503
13.3067774,0.781854808,2.283949137,10.26341438,0.107585475,-0.273277789,-0.248614833
13.32688651,0.600598455,2.295315027,10.26640511,0.172029853,-0.239986613,-0.301605821
13.34699562,0.241076887,2.285145521,9.565906525,0.153551728,-0.167906642,-0.280226171
13.36710474,0.421136797,2.172683001,9.18245697,0.0361927,-0.058717694,-0.232885525
13.38721385,0.55154562,2.16131711,9.145368576,-0.059252184,0.115984626,-0.230136707
