Time (s),Acceleration x (m/s^2),Acceleration y (m/s^2),Acceleration z (m/s^2),Gyroscope x (rad/s),Gyroscope y (rad/s),Gyroscope z (rad/s)
11.01383161,0.777667344,4.49970293,8.924032211,0.064902522,-0.215705439,-0.231969252
11.03394135,0.474975288,4.353142738,8.437092781,0.076814041,-0.284578472,-0.304354638
11.05405114,0.016151553,4.503890514,8.624929428,-0.057572354,-0.117817164,-0.317335159
11.07416093,-0.250049979,4.399802685,9.068199158,-0.05635066,0.009239065,-0.23884128
11.09427073,-0.152542442,4.322035789,8.519046783,0.008399149,-0.078264803,-0.15500249
11.11438052,0.144765765,4.456632137,8.446663857,-0.063375406,-0.0432938,-0.117282674
11.13449026,0.125623182,4.603192329,9.047262192,-0.12216945,0.004199575,-0.153017238
11.15460005,-0.181256309,4.551746845,9.377471924,-0.042606596,-0.012293302,-0.184017733
11.17470984,-0.48394838,4.4518466,9.080163956,0.072232686,-0.046195325,-0.157140464
11.19481963,-0.443868607,4.465605259,8.755337715,0.101095222,-0.030466007,-0.069178455
11.21492942,-0.165702969,4.607379913,8.618349075,0.067956761,0.038712446,-0.000458135
11.23503916,-0.004785645,4.705485821,8.603992462,0.031764057,0.139654949,0.004581355
11.25514896,-0.032901313,4.747360229,8.52981472,0.040315919,0.177985624,-0.013285927
11.27525875,-0.156729877,4.785047054,8.436494827,0.042912021,0.128354281,-0.020005248
11.29536854,-0.221336097,4.818546772,8.488538742,0.037872531,0.117359027,-0.012827792
11.31547828,-0.259023041,4.825725079,8.385048866,0.049478628,0.139349535,-0.005192202
11.33558807,-0.326620281,4.957330227,8.232506752,0.026419144,0.168364778,0.017561859
11.35569786,-0.281754881,5.178068161,8.190631866,-0.036345411,0.173251554,0.047340661
11.37580765,-0.151346028,5.311468124,8.420342445,-0.131637588,0.140418515,0.038025241
11.39591744,-0.034097724,5.246263504,8.886942863,-0.228609592,0.096742935,0.019241689
11.41602718,0.120837547,5.020142078,9.421140671,-0.310004979,0.037948888,0.006413896
11.43613698,0.213559419,4.789234638,9.881759644,-0.367424637,0.089412771,0.00503949
11.45624677,0.043070808,4.689932346,10.0965147,-0.358872771,0.257701188,0.031916771
11.47635656,-0.244666114,4.690530777,9.825528145,-0.27610296,0.389491469,0.081089973
11.4964663,-0.358923405,4.672584534,9.293723106,-0.179436386,0.380328775,0.156224191
11.51657609,-0.247058943,4.682155609,8.970093727,-0.110257931,0.272666931,0.235176191
11.53668588,-0.078364939,4.755734921,8.836693764,-0.046729814,0.193562225,0.285265684
11.55679567,-0.076570325,4.84905529,8.724829674,0.007941014,0.180276305,0.305423617
11.57690547,-0.116650105,4.906482697,8.769695282,0.055587102,0.175542235,0.32405448
11.5970152,-0.143569365,5.052444935,8.900702477,0.111479625,0.079791926,0.335202426
11.617125,-0.430109859,5.362913609,8.78584671,0.120642334,-0.010155336,0.292901248
11.63723479,-0.093918286,4.560719967,9.696315765,-0.065207943,-0.23601611,0.233954504
11.65734458,0.545563579,3.417548895,12.21236897,-0.244033486,-0.401097596,0.217461631
11.67745432,0.687936485,2.954537868,13.9052906,-0.07711947,-0.248080343,0.191806033
11.69756411,0.226121739,2.684148788,13.00558949,0.300536841,0.000687203,0.135302663
11.7176739,-0.26739794,2.599801779,11.26660538,0.459968001,-0.07124006,0.091168955
11.73778369,0.099900343,2.230110645,10.87537861,0.32405448,-0.256021351,0.088725567
11.75789349,0.526421011,1.741376638,11.69851017,0.189362645,-0.233725429,0.056045234
11.77800323,0.124426775,1.65164578,11.70509052,0.353680551,0.040850412,0.036498122
11.79811302,-0.607178748,1.974676847,10.052248,0.678040445,0.234030858,0.103691325
11.81822281,-0.906879783,2.62253356,7.940581799,0.850757539,0.146679699,0.21959959
11.8383326,-0.671186745,3.192623615,6.418746948,0.739583314,-0.120871402,0.288014472
11.85844239,0.11545369,3.409173965,6.195616245,0.402395636,-0.336195052,0.268161953
11.87855213,0.723828852,3.208176851,7.052844524,0.050089475,-0.248080343,0.145381644
11.89866192,0.370887518,3.102892876,7.871788502,-0.123391144,0.033062108,-0.022601349
11.91877172,-0.625124931,3.120240688,7.98903656,-0.098804541,0.258464754,-0.069789298
11.93888151,-1.101296663,3.251247883,7.572087288,0.016798299,0.222424761,0.048867781
11.95899125,-0.716650367,3.59641242,7.101299286,0.085365906,0.044515494,0.175924003
11.97910104,-0.279362053,3.96789813,6.854838848,0.091932513,-0.081319042,0.184628591
11.99921083,-0.111864455,4.042674065,6.934998035,0.029167956,-0.11720632,0.139884025
12.01932062,-0.080757767,4.137190342,7.292725086,-0.027335415,-0.073530741,0.123696573
12.03943041,-0.002991028,4.421338081,7.555337429,-0.024281178,-0.043446511,0.124307416
12.05954015,0.061615184,4.601995945,7.445865631,-0.008093726,-0.020234315,0.105829291
12.07964994,0.05383851,4.762913704,7.43749094,-0.044744562,-0.034131091,0.081395395
12.09975974,0.071784683,4.861617565,7.763513088,-0.093765058,-0.092619717,0.04718795
12.11986953,0.001196411,4.85982275,8.117053032,-0.123238437,-0.129117847,0.007024744
12.13997927,-0.275174618,4.936393261,8.47597599,-0.157751307,-0.099797174,-0.002596101
12.16008906,-0.364307255,5.021936417,8.996415138,-0.17867282,-0.104378529,0.037261683
12.18019885,-0.193220422,5.079962254,9.599406242,-0.156987742,-0.177985624,0.083533362
12.20030864,-0.162711933,5.28514719,10.12881851,-0.095139459,-0.250218302,0.10796725
12.22041843,-0.081954174,5.364708424,10.20120144,-0.027182704,-0.318022341,0.118351653
12.24052817,0.261415869,5.248656273,10.05882835,-0.040315919,-0.329933882,0.13805148
12.26063796,0.75134629,4.978865623,10.19880867,-0.130568609,-0.300002366,0.144923508
12.28074776,1.17068851,4.452444553,10.73480034,-0.196998239,-0.26335153,0.132248431
12.30085755,0.867996395,4.73001194,10.65882874,-0.134080976,-0.128965125,0.11163234
12.32096729,0.952343404,4.449453831,10.32981491,-0.106898271,-0.200739682,0.088878274
12.34107708,2.33300209,2.838485956,11.20439243,-0.119573347,-0.314051837,0.084755056
12.36118687,1.980658889,3.336193085,11.14397335,0.12659809,0.102851406,-0.008399149
12.38129666,0.387637258,4.47397995,9.157930374,0.433854252,0.357574701,-0.098040983
12.40140646,0.615553618,4.280759811,7.629515171,0.348182946,-0.042835664,-0.11163234
12.42151619,2.127219439,3.512663603,8.683553696,-0.114686571,-0.654141069,-0.22402823
12.44162599,3.382254839,2.535195589,12.37328625,-0.60275352,-0.749585927,-0.419804782
12.46173578,2.70149684,1.986042738,14.99342632,-0.51784575,-0.299544215,-0.626118422
12.48184557,0.977468073,1.853839397,13.60558987,0.04382829,0.243498996,-0.646581829
12.50195531,0.036490545,2.201995134,10.18923664,0.39384377,0.397890627,-0.4886778
12.5220651,0.186041966,2.583052158,8.227720261,0.284196675,0.255257785,-0.286640078
12.54217489,0.823130965,2.889333248,8.401798248,0.082922518,0.165310547,-0.169662833
12.56228468,0.894317448,3.199203968,8.209176064,0.156071469,0.264267802,-0.183865026
12.58239448,0.568893611,3.372085333,6.762116909,0.291984975,0.348106593,-0.234107211
12.60250422,0.205782741,3.443870068,5.391627789,0.2443389,0.367653698,-0.253348887
12.62261401,0.006580262,3.514458179,5.114658356,0.042301174,0.285952866,-0.249072969
12.6427238,-0.069990061,3.524029493,5.909673691,-0.142021984,0.193714932,-0.247851282
12.66283359,-0.372083932,3.459423304,6.82133913,-0.179589093,0.175694943,-0.242659077
12.68294338,-0.733400166,3.553939819,7.284948349,-0.093765058,0.17401512,-0.177145705
12.70305312,-0.755533755,3.806980848,7.414160728,0.006108473,0.094146833,-0.076203197
12.72316291,-0.321236432,4.018745422,7.597211838,0.028862532,-0.031076854,0.011147963
12.7432727,0.091525465,4.165306091,8.090133667,-0.043522868,-0.105142087,0.032222193
12.7633825,0.415154725,4.237090588,9.114261627,-0.116519116,-0.034589227,0.039705072
12.78349224,0.413360119,4.405784607,9.754940033,-0.034665581,0.130797669,0.02107423
12.80360203,0.018544376,4.759922504,9.302696228,0.135455385,0.243193567,-0.003970507
12.82371182,-0.34337005,4.977669239,8.331210136,0.207688063,0.212345779,-0.002290677
12.84382161,-0.563509762,5.201398373,8.062017441,0.098040983,0.154468,0.025502874
12.8639314,-0.527617395,5.312066078,8.727222443,-0.056045234,0.098422766,0.062000997
12.88404114,-0.318843603,5.215157032,9.556335449,-0.139578596,0.0898709,0.08322794
12.90415093,-0.22791636,5.161318302,10.15334511,-0.174549609,0.165615961,0.100026235
12.92426073,-0.163908348,4.990231514,10.50867844,-0.198830783,0.261518985,0.114228435
12.94437052,-0.805184841,5.300700188,10.38724327,-0.220821291,0.416674197,0.114686571
12.96448026,-1.094118118,5.11884594,10.77308559,-0.327108711,0.298933387,0.164012492
12.98459005,-0.049052864,3.87218523,12.37508011,-0.389720559,-0.003588728,0.265413135
13.00469984,0.5910272,3.37986207,13.3220396,-0.18233791,0.090176329,0.312906504
13.02480963,-0.121435747,3.436691523,12.06341553,0.212422133,0.260450006,0.26831466
13.04491942,-0.699900627,3.287738323,9.876974106,0.388040721,0.034283802,0.245255172
13.06502916,-0.577268481,2.833101988,9.457631111,0.121558607,-0.362919629,0.23105298
13.08513896,0.162113741,2.071586132,11.495718,-0.271674305,-0.451492488,0.244033486
13.10524875,0.31525439,1.651047587,13.41655636,-0.301147699,-0.184399515,0.225402638
13.12535854,-0.12023934,1.594816327,12.74477196,0.051158458,0.141029358,0.260679066
13.14546828,-0.418145746,1.923231244,10.18804073,0.368188173,0.308401495,0.350779027
13.16557807,-0.263210505,2.256431818,7.761120319,0.449889004,0.298933387,0.427287668
13.18568786,-0.151944235,2.519043922,6.256034851,0.330926508,0.164699689,0.413085461
13.20579765,-0.166301176,2.691327333,5.965306759,0.107814543,0.022983128,0.366508365
13.22590744,-0.183050931,2.602194548,6.42472887,-0.062306419,-0.012293302,0.328941256
13.24601718,-0.180658117,2.593819857,6.902695179,-0.102316916,0.063757181,0.335965991
13.26612698,-0.133399859,2.848655462,6.993024349,-0.040010497,0.120718688,0.357192934
13.28623677,-0.035294134,3.108276606,6.792026997,0.048867781,0.043446511,0.364828527
13.30634656,0.180658117,3.298506021,6.541378975,0.085671328,-0.129423261,0.334286153
13.3264563,0.40797627,3.457030535,6.631109715,0.017561859,-0.207000867,0.262817025
13.34656609,0.442672193,3.580260992,7.082156658,-0.098804541,-0.128201574,0.174396887
13.36667588,0.218943268,3.805784464,7.725826263,-0.19119519,-0.011529742,0.114533864
13.38678567,0.029312078,3.982853174,8.195417404,-0.205397397,0.0264955,0.091932513
13.40689547,-0.007776673,4.105485439,8.440083504,-0.183406889,-0.01305686,0.080631837
13.4270052,0.180658117,4.116253376,8.660821915,-0.185850278,-0.065284304,0.073607095
13.447115,0.364905447,4.240081787,9.116654396,-0.204786539,-0.030466007,0.064138964
13.46722479,0.239880472,4.621138573,9.652647018,-0.170731813,0.043446511,0.049325917
13.48733458,-0.116051897,4.973481655,9.787840843,-0.069789298,-0.024357535,0.04214846
13.50744432,-0.166899383,5.274379253,9.664012909,-0.014965758,-0.187148333,0.071621843
13.52755411,0.293120772,5.325226784,9.795618057,-0.076661333,-0.301834911,0.094070479
13.5476639,0.99900347,5.012963295,10.31904793,-0.214254677,-0.317258805,0.065055236
13.56777369,1.158126116,5.011766911,11.09910774,-0.353527844,-0.220897645,-0.016492875
13.58788343,0.632303357,5.403591633,11.61057377,-0.432479858,-0.098422766,-0.086129464
13.60799323,1.970489502,4.298706055,12.06939697,-0.549762547,-0.197227314,-0.064444385
13.62810302,3.397808075,3.247060299,13.30469227,-0.629172683,-0.097353779,-0.197150946
13.64821281,2.477767944,2.875574589,13.73480225,-0.364828527,0.226089835,-0.49906221
13.6683226,0.832104087,2.067398787,12.19741344,0.084449634,0.243346274,-0.674833536
13.68843234,-0.010169496,1.47457695,10.76590729,0.318862259,0.046653461,-0.608098447
13.70854213,-0.31226337,1.69950223,10.61456108,0.382084966,-0.07933379,-0.421484619
13.72865192,0.232103795,2.107478619,10.33220863,0.487456113,-0.173862398,-0.225402638
13.74876172,1.362712502,2.383849621,9.468997002,0.475850016,-0.240902886,-0.159736559
13.76887146,2.047059774,2.479562521,9.023334503,0.250294656,-0.158438504,-0.280226171
13.78898125,1.466202021,2.435295343,9.358329773,0.003512372,0.062840909,-0.483027458
13.80909104,0.176470667,2.209771633,9.56770134,-0.040315919,0.17920731,-0.574959993
13.82920083,-0.679561615,2.111665964,9.028120041,0.06734591,0.120107845,-0.489594072
13.84931062,-0.949352384,2.329412937,8.09671402,0.151184693,0.057190575,-0.295650065
13.86942036,-0.463011175,2.673979282,7.326224804,0.12995775,0.062382776,-0.111785047
13.88953015,0.131007046,2.912065268,6.963113785,0.057419643,0.152177319,-0.0361927
13.90963994,0.364905447,3.103491068,6.674778938,0.002137966,0.209291548,-0.060779303
13.92974974,0.123828575,3.251846075,6.537191391,-0.040315919,0.191424266,-0.11606098
13.94985948,-0.268594354,3.250649452,6.585047722,-0.052990999,0.110334285,-0.128277928
13.96996927,-0.51206404,3.238087177,6.55394125,-0.045813546,0.04497363,-0.08765658
13.99007906,-0.457627326,3.374478102,6.5760746,-0.085518613,0.076432265,-0.006566608
14.01018885,-0.085543409,3.610769272,6.841079712,-0.165234178,0.141792923,0.0645971
14.03029859,0.306879491,3.758526087,7.474579811,-0.244797036,0.17920731,0.076203197
14.05040838,0.255433828,3.882952929,8.365905762,-0.257624835,0.18730104,0.051463883
14.07051817,-0.019740786,4.152145386,9.011968613,-0.145687074,0.139196813,0.053754561
14.09062797,-0.207577363,4.497310162,8.932407379,0.007330167,0.096284799,0.08597675
14.1107377,0.008374879,4.721039295,8.704490662,0.054059982,0.060855657,0.135913521
14.1308475,0.258424848,4.83409977,9.140582085,-0.006261184,0.008628218,0.147825033
14.15095729,0.46719861,4.902295589,9.999007225,-0.053296424,-0.021761434,0.143243685
14.17106708,0.433699101,5.084149837,10.61216831,-0.042912021,0.050165832,0.115450129
14.19117687,0.18005991,5.268995285,10.75334454,-0.033138465,0.156605959,0.079715565
14.21128661,-0.442073971,5.504688263,10.7054882,-0.115144707,0.16149275,0.027640838
14.2313964,-0.786640465,5.336592674,11.47418308,-0.353833288,-0.046958882,0.014660334
14.25150619,-0.06759724,4.134797573,13.86341572,-0.666128933,-0.371013343,0.029473381
14.27161599,1.430309772,1.878365755,17.0554409,-0.686897755,-0.510591924,0.070400149
14.29172573,1.430907965,0.784845829,17.25165367,-0.084144212,-0.059633963,0.096361153
14.31183552,0.055633128,1.459023595,13.1581316,0.720952451,0.617642939,0.179894522
14.33194531,-0.986441135,2.243271112,8.383254051,0.987129152,0.668495953,0.273354143
14.3520551,-1.182652593,2.605783939,6.224927902,0.61420691,0.22456272,0.368799031
14.37216484,-0.645463884,2.794816732,7.484150887,0.06566608,-0.160271049,0.429425627
14.39227463,0.015553347,2.775674343,9.546764374,-0.134997249,-0.158743933,0.426982224
14.41238442,-0.066999033,2.818745136,9.687342644,0.008399149,-0.022524992,0.338867515
14.43249422,-0.443270385,2.791227579,8.508278847,0.098651834,0.011529742,0.282669574
14.45260396,-0.496510685,2.589632273,8.234899521,-0.013133216,-0.076737687,0.273354143
14.47271375,-0.366101861,2.385046005,8.698508263,-0.091474377,-0.102545984,0.264802277
14.49282354,-0.481555551,2.332403898,8.81456089,-0.042912021,-0.003283304,0.261289924
14.51293333,-0.519840717,2.347358942,8.434102058,0.078341164,0.092925139,0.301911265
14.53304307,-0.415154725,2.539981127,7.829914093,0.191347897,0.086663954,0.347419381
14.55315286,-0.124426775,2.877369165,7.223333359,0.258541107,0.057648711,0.366050214
14.57326265,0.169890404,3.070589542,6.728019238,0.272132456,0.010766183,0.326039732
14.59337244,0.266799718,3.201596737,6.291927338,0.204328403,-0.054441761,0.24800399
14.61348224,0.277567416,3.451646566,6.722635269,0.041384902,-0.060702946,0.194402143
14.63359198,0.263808698,3.836292982,7.619345665,-0.036039989,0.011987877,0.160652831
14.65370177,0.17587246,4.13120842,7.904689789,0.020005248,0.0290916,0.112090468
14.67381156,0.205184549,4.146163464,7.697710514,0.059863031,-0.01641652,0.075286925
14.69392135,0.466002196,4.15633297,7.935796261,0.008704574,-0.082846157,0.060932014
14.71403109,0.716650367,4.323830605,8.679964066,-0.035581853,-0.095826663,0.041232191
14.73414088,0.595812857,4.622933388,9.257232666,0.042606596,-0.04940227,0.020157959
14.75425067,0.313459754,4.952544689,8.924630165,0.172717065,-0.08101362,0.002596101
14.77436046,0.326620281,5.053641319,8.408378601,0.15500249,-0.258617461,0.000916271
14.79447021,0.672383189,5.066802025,8.915657043,-0.03115321,-0.397432506,-0.001374406
14.81458,1.099501967,4.876572609,10.11266708,-0.204939261,-0.435915887,-0.043675579
14.83468979,1.38185513,4.263411522,11.48794174,-0.244949758,-0.372387767,-0.083380654
14.85479958,0.524028182,4.702494621,11.95813084,-0.072843537,-0.145152584,-0.067651331
14.87490932,-0.077168532,5.207380295,10.75633621,0.118962504,-0.092925139,0.060932014
14.89501911,2.407179594,3.803391695,10.16052341,-0.084602349,-0.533956885,0.178214684
14.9151289,4.220340729,2.953341246,11.92822075,-0.450041711,-0.435915887,0.004123219
14.93523869,3.66101861,2.746362209,13.39621735,-0.448820025,0.065284304,-0.382237673
14.95534843,1.648056626,2.06560421,12.77288723,-0.167372152,0.096590221,-0.693006218
14.97545823,0.525822759,1.551745534,12.0035944,0.034207448,-0.24044475,-0.651315868
14.99556802,0.729810894,1.43808639,11.58305645,0.136218935,-0.440191805,-0.490663052
15.01567781,1.057029366,1.747956991,11.18943691,0.180810794,-0.277859151,-0.392316639
15.03578755,0.955932617,2.431705952,9.703494072,0.251210928,0.040086851,-0.393538356
15.05589734,0.502492726,2.963510752,8.100302696,0.184323162,0.194020361,-0.465465605
15.07600713,0.238684058,2.87318182,7.503293514,-0.004275931,0.208833411,-0.512806296
15.09611692,-0.170488611,2.716451883,7.771289825,-0.124001995,0.158438504,-0.529909968
15.11622666,-0.425324231,2.593819857,7.91007328,-0.096513867,0.124231063,-0.476613581
15.13633646,-0.471386075,2.568096876,7.532605648,-0.01099525,0.156605959,-0.376434624
15.15644625,-0.35174492,2.73260355,6.976872444,0.023059484,0.235863403,-0.262817025
15.17655604,-0.273379982,3.065205812,6.495915413,0.018172706,0.308554232,-0.187988237
15.19666578,-0.263808698,3.282952785,6.157928944,-0.004886778,0.264267802,-0.157904014
15.21677557,-0.221336097,3.246462107,6.409773827,-0.06566608,0.130797669,-0.14171657
15.23688536,-0.114855483,3.077768087,7.161119938,-0.104149461,0.048180576,-0.110105217
15.25699515,-0.065802626,3.108276606,7.858029366,-0.078341164,0.07933379,-0.069636591
15.27710494,-0.247058943,3.260220766,7.8370924,0.024892027,0.20761171,-0.011453386
15.29721468,-0.448654234,3.578466177,7.179664135,0.076814041,0.279844403,0.068414897
15.31732448,-0.372083932,3.965505362,6.934400082,-0.009315421,0.224715442,0.154391646
15.33743427,-0.108873427,4.168296814,7.490133286,-0.129805043,0.135684446,0.199136213
15.35754401,-0.012562319,4.330410957,8.122436523,-0.195318416,0.066505998,0.200968742
15.3776538,0.011365907,4.630710125,8.417351723,-0.272437871,0.072003618,0.189362645
15.39776359,0.018544376,4.682155609,8.921041489,-0.437366635,0.123925641,0.171800792
15.41787338,0.104685992,4.386641979,10.31426239,-0.662311137,0.14897038,0.1797418
15.43798312,0.266201526,4.290929317,12.1980114,-0.753938258,0.189133585,0.224180937
15.45809291,-0.026919255,4.767699242,12.91526031,-0.631463349,0.341539979,0.245102465
15.47820271,-0.174676046,4.6432724,12.79741383,-0.515707791,0.295726419,0.259610087
15.4983125,0.212363005,4.228117466,13.17428303,-0.464549333,0.094604969,0.278546363
15.51842229,0.183649138,4.326223373,13.76471233,-0.389415115,-0.076737687,0.209215179
15.53853203,0.820738196,2.765504837,14.34317684,-0.301605821,-0.319702178,0.11606098
15.55864182,1.095912814,1.247258782,14.99103355,-0.130415887,-0.267627448,0.056808796
15.57875161,-0.134596273,1.172483087,14.16072464,0.287709057,0.198907137,0.068262182
15.5988614,-1.298704505,1.496710539,11.4885397,0.703237891,0.452256054,0.189362645
15.61897114,-1.634297848,1.828714728,9.115457535,0.780510068,0.267780155,0.375671059
15.63908093,-0.906281591,2.179861546,8.510073662,0.574959993,-0.121176824,0.52563405
15.65919073,0.239880472,2.164308071,8.897112846,0.372616828,-0.39147675,0.479209662
15.67930052,0.620339274,1.995614052,8.663214684,0.261289924,-0.315578967,0.317945987
15.69941026,0.147158593,1.959123492,7.860422611,0.102775052,-0.101018868,0.147519618
15.71952005,-0.626321316,1.905883193,7.588238716,-0.101095222,0.052151084,0.079104722
15.73962984,-0.816550732,1.783251047,7.850851059,-0.201121464,0.082388021,0.119573347
15.75973963,-0.705882669,1.80119729,7.896314621,-0.132248431,0.04940227,0.194249421
15.77984937,-0.477368116,2.041675806,7.545167923,0.009773556,-0.00465771,0.264496863
15.79995916,-0.230309174,2.409572363,7.037291527,0.128430635,-0.03229855,0.304812789
15.82006896,-0.088534437,2.772683144,6.429514408,0.191347897,-0.045279052,0.283891261
15.84017875,-0.076570325,3.043072224,6.190830231,0.140800297,-0.076279551,0.220668569
15.86028849,-0.122632161,3.15433836,6.741777897,0.016645588,-0.11888615,0.147672325
15.88039828,-0.239880472,3.16869545,7.68215704,-0.061848287,-0.145305291,0.094223186
15.90050807,-0.451047063,3.341576815,8.180462837,-0.052685577,-0.086511239,0.073301673
15.92061781,-0.623330295,3.573082447,8.197810173,-0.009009997,0.005115846,0.089183703
15.9407276,-0.595812857,3.73160696,8.139784813,-0.004275931,-0.003436016,0.114075728
15.96083739,-0.314656168,3.836891174,8.525627136,-0.032222193,-0.085289545,0.136982501
15.98094718,-0.055633128,3.920639992,9.051449776,-0.040468629,-0.165768668,0.117129959
16.00105692,-0.164506555,3.988835335,9.43489933,-0.017103724,-0.189744428,0.091321662
16.02116672,-0.365503669,4.198207378,9.683753014,-0.001527118,-0.238764927,0.107356407
16.04127651,-0.113060869,4.259224415,9.934999466,-0.046729814,-0.312372029,0.164470628
16.0613863,0.622732103,4.176073551,10.63370419,-0.182032481,-0.368722677,0.206619084
16.08149604,1.287936807,3.987040758,12.02333546,-0.279615343,-0.311455756,0.203259423
16.10160583,1.350150228,4.379463673,12.50369453,-0.155460626,-0.105600223,0.156071469
16.12171562,0.995414197,4.604987144,11.34317589,-0.027488127,-0.047875155,0.082006246
16.14182541,1.576870084,4.249652863,10.83888817,-0.172106221,-0.161034614,0.051463883
16.16193515,2.182852507,3.868596077,11.58544922,-0.428051204,-0.164699689,-0.088114716
16.18204494,3.077768087,1.881356835,13.5152607,-0.581679285,-0.105294794,-0.275492102
16.20215474,1.712662816,1.363908887,14.67817211,-0.307103455,0.344288796,-0.441489846
16.22226453,-0.138783708,1.746162295,13.37348557,0.294581085,0.531208038,-0.390025973
16.24237427,-0.549750984,1.888535261,10.93161011,0.732711315,0.157216817,-0.161263675
16.26248406,0.745962441,2.27677083,9.122636795,0.736070931,-0.325963378,0.032374904
16.28259385,2.008176327,2.480160713,9.086744308,0.418735802,-0.361087084,-0.019547112
16.30270364,2.048854351,2.345564365,9.611370087,0.129652336,-0.056579728,-0.231511116
16.32281338,1.133001566,2.082952023,9.725627899,0.009773556,0.275263041,-0.393232912
16.34292317,0.141774744,1.889133453,9.53898716,0.041384902,0.362766922,-0.404533595
16.36303297,-0.337387979,1.92741859,8.984451294,0.198830783,0.290534228,-0.280684322
16.38314276,-0.297906429,2.294118643,7.718049526,0.384528339,0.195852906,-0.13026318
16.4032525,0.052043892,2.724228621,6.390631199,0.410642058,0.109723441,-0.037414394
16.42336229,0.471984267,3.034099102,5.775675774,0.245713309,0.120413266,-0.023364907
16.44347208,0.592821837,3.194418192,5.991627693,0.048562355,0.212651208,-0.072843537
16.46358182,0.27577281,3.175275564,6.494120598,-0.04718795,0.239681199,-0.136218935
16.48369161,0.087338023,2.982653379,6.92542696,-0.04703524,0.152788177,-0.134233683
16.5038014,0.022731815,2.995215654,7.331608772,-0.005803049,0.080250062,-0.090405397
16.52391119,0.010169496,3.216551781,7.497311592,0.068109468,0.088343784,-0.035276428
16.54402099,-0.002991028,3.552145243,7.149155617,0.135913521,0.145763427,0.014202199
16.56413073,0.131007046,3.845864296,6.87457943,0.102775052,0.108654454,0.040926766
16.58424052,0.42771706,3.938585997,7.180860519,0.001221695,0.051082101,0.033138465
16.60435031,0.460618347,4.069592953,7.765905857,-0.076050483,0.070629217,-0.01343864
16.6244601,0.142372951,4.307080746,8.20857811,-0.103233188,0.152940884,-0.041079476
16.64456984,-0.162711933,4.579264164,8.423334122,-0.106592849,0.200128838,-0.030847786
16.66467963,-0.200997099,4.724628448,8.525029182,-0.133011997,0.171571717,-0.009162709
16.68478942,-0.023330022,4.709673405,9.0921278,-0.220973998,0.104378529,0.003206948
16.70489916,0.170488611,4.518845558,10.18205833,-0.303285658,0.038101599,0.000916271
16.72500896,0.303290278,4.265804768,11.46042442,-0.313059211,0.064215317,0.005344913
16.74511875,-0.643669307,4.969892502,11.67517948,-0.213949248,0.311913878,-0.014507622
16.76522854,-1.268794179,4.735994339,11.72961617,-0.269536346,0.241819158,0.020463383
16.78533828,-0.622133911,4.002593994,13.45364571,-0.420262903,0.004810422,0.142174706
16.80544807,0.208773777,3.442075491,15.17169189,-0.386208177,-0.088343784,0.174396887
16.82555786,0.719043195,2.148754835,16.17906952,-0.141563848,-0.120718688,0.144007236
16.84566765,-0.150149614,2.094317913,14.91865063,0.334286153,0.071850911,0.119267926
16.86577739,-1.3310076,2.356930256,12.20877934,0.629936218,0.094910391,0.13805148
16.88588718,-1.509272933,2.063211441,10.73838997,0.543806791,-0.113541231,0.272743315
16.90599698,-0.521635354,1.939980984,10.99083233,0.334744304,-0.300002366,0.43706122
16.92610672,0.708873689,1.944766641,11.03809071,0.285112947,-0.130339533,0.474628329
16.94621651,0.887737215,1.984846354,9.766903877,0.365439385,0.209902391,0.373380393
16.9663263,0.445663214,2.05722928,7.94955492,0.435228676,0.366279274,0.281906009
16.98643609,0.000598206,2.194816589,6.491727829,0.446529359,0.31649524,0.239146695
17.00654588,-0.251844585,2.32701993,5.388038158,0.416292399,0.152330041,0.221737549
17.02665562,-0.518644333,2.504687071,4.853840828,0.320236683,-0.008780929,0.213032976
17.04676541,-0.620937467,2.691327333,4.873581409,0.196845532,-0.120260552,0.253043473
17.06687521,-0.299701035,2.945564747,5.382654667,0.086740308,-0.160423756,0.323138207
17.086985,0.278165638,3.317648649,5.702694416,0.019241689,-0.124231063,0.338714808
17.10709474,0.629910588,3.524627686,6.005386829,-0.088725567,-0.158285797,0.244949758
17.12720453,0.639481843,3.510270834,6.86022234,-0.238688573,-0.184246808,0.116824538
17.14731432,0.400199592,3.479164124,7.994420528,-0.31412819,-0.169128329,0.018630842
17.16742406,0.038883369,3.533600807,8.821140289,-0.275797546,-0.111555979,-0.018325418
17.18753385,-0.16331014,3.690330744,9.217751503,-0.153322667,-0.047264308,0.019088976
17.20764364,-0.036490545,3.850649834,8.913862228,0.009315421,-0.046348035,0.069178455
17.22775343,0.183649138,4.104887009,8.26241684,0.074981503,-0.089718193,0.073912516
17.24786317,0.257826626,4.543970108,8.09312439,0.007177455,-0.094146833,0.041537613
17.26797297,0.150149614,4.879563808,8.341380119,-0.097735561,-0.113388524,-0.020616096
17.28808276,0.187238365,4.850849628,9.000602722,-0.209673315,-0.223035604,-0.067651331
17.30819255,0.5910272,4.55354166,9.984052658,-0.308783293,-0.340623707,-0.088572852
17.32830229,0.581455886,4.811367989,11.00040436,-0.385291904,-0.318938613,-0.110868774
17.34841208,0.533599436,5.186442852,11.61476135,-0.448820025,-0.204710186,-0.112701319
17.36852187,1.680957913,4.097110748,12.18126202,-0.58137387,-0.240597457,-0.104913019
17.38863161,1.962114573,4.467998028,12.2165556,-0.680178404,0.044362783,-0.196387395
17.4087414,1.841277003,3.719044685,11.8773737,-0.836249888,0.249454752,-0.383764803
17.42885119,2.322234392,1.158724308,12.80638695,-1.031110168,0.222730175,-0.536782026
17.44896099,1.241276741,0.281754881,14.81037617,-0.901305139,0.455462992,-0.617872
17.46907078,-0.980459094,0.621535659,14.68535042,-0.164317906,0.695831358,-0.515096963
17.48918052,-2.304288149,1.316650629,12.15853024,0.665212691,0.416216046,-0.155613333
17.50929031,-1.141974568,1.908276081,9.408578873,1.050962687,-0.274652213,0.305729061
17.5294001,1.787438512,2.368894339,8.29890728,0.860836506,-0.806547463,0.510362864
17.54950984,4.207778454,2.620738983,8.949754715,0.424844265,-0.800133526,0.299926013
17.56961963,4.388436794,2.715255499,9.772287369,0.127667084,-0.29878068,-0.214560106
17.58972942,1.986641049,2.471187592,9.284152031,0.074523367,0.253883392,-0.681858242
17.60983922,-0.207577363,2.04586339,8.219944,0.069789298,0.406747907,-0.77883023
17.62994896,-1.275374413,2.035095692,7.641479015,0.086129464,0.339860141,-0.568698824
17.65005875,-1.241874933,2.47358036,7.179664135,0.153780803,0.132172078,-0.291984975
17.67016854,-0.433699101,2.890529871,6.610172749,0.212422133,0.002214321,-0.105829291
17.69027833,0.190827608,3.270988464,6.008377552,0.200663328,-0.020539738,-0.080479123
17.71038807,0.577268481,3.482155085,5.644070625,0.081700824,-0.061161082,-0.156071469
17.73049786,0.626321316,3.538984776,6.028716564,-0.145992488,-0.058259558,-0.276255667
17.75060765,0.145363972,3.422932863,7.165307522,-0.317945987,0.048944138,-0.365286648
17.77071744,-0.462412983,3.311068296,7.944769382,-0.295191944,0.140113086,-0.348641068
17.79082718,-0.682552636,3.476173162,7.960920811,-0.169357404,0.155842409,-0.23624517
17.81093698,-0.2955136,3.671188116,7.755138397,-0.099873528,0.098117344,-0.116366401
17.83104677,0.185443759,3.781856298,7.826324463,-0.118657082,0.068643957,-0.066124216
17.85115656,0.413958311,3.912265062,8.352147102,-0.173022479,0.070781924,-0.069789298
17.8712663,0.331405938,4.073780537,8.989834785,-0.175465882,0.130034104,-0.090863533
17.89137609,-0.198604286,4.277170658,9.263813019,-0.11163234,0.19951798,-0.092543356
17.91148588,-0.577866674,4.378267288,9.150752068,-0.065360658,0.15782766,-0.039552361
17.93159567,-0.493519664,4.229912281,9.765109062,-0.13102673,0.026037365,0.045966256
17.95170541,-0.130408838,3.96789813,11.00100231,-0.182490617,-0.033825666,0.136218935
17.97181521,0.028713871,3.874577999,11.94855976,-0.113006741,0.011224318,0.206313655
17.991925,-0.463011175,4.290929317,11.50349522,0.017867282,0.182719693,0.255486876
18.01203479,-1.040877819,4.786841869,10.46441174,-0.061848287,0.244567975,0.308019728
18.03214453,-0.117846519,4.020540237,11.44128132,-0.481958479,-0.052914646,0.348946482
18.05225432,0.961914718,2.88454771,14.75833225,-0.770125687,-0.211276799,0.338562101
18.07236411,1.036092162,2.419143677,17.44666862,-0.459204435,-0.112930387,0.273659587
18.0924739,0.326620281,1.819741607,16.19223022,0.371547848,0.028633466,0.256250411
18.11258364,-0.320040017,1.945963025,12.14477158,0.995833755,0.045126341,0.349099219
18.13269343,-0.303290278,2.460419893,8.95513916,0.979188144,-0.061771929,0.430189192
18.15280323,0.13519448,2.626721144,8.586644173,0.513569832,-0.165463254,0.42667681
18.17291302,0.822532773,2.486142635,10.16530895,0.166761309,-0.122551233,0.370020717
18.19302276,0.80757767,2.321038008,10.63011456,0.189057231,-0.031229567,0.21959959
18.21313255,0.31226337,2.061416626,9.720243454,0.311226666,-0.014278554,0.119115219
18.23324234,0.095114701,1.916052699,8.816953659,0.359941751,-0.031382278,0.114228435
18.25335213,-0.022133609,2.002792597,7.976474285,0.392011225,-0.004504999,0.13469182
18.27346187,-0.001196411,2.161915302,7.09112978,0.398272425,-0.005268557,0.148130462
18.29357166,0.139381915,2.318645239,6.44985342,0.341463625,-0.03840702,0.149199441
18.31368146,0.428913444,2.593819857,6.243472576,0.257013977,-0.081166327,0.127361655
18.33379125,0.853041291,2.740380049,6.241079807,0.2081462,-0.092925139,0.052685577
18.35390099,0.821934581,2.894119024,6.187241077,0.19226417,-0.092314295,-0.0787993
18.37401078,0.328414917,3.043072224,6.029314995,0.186308414,-0.124689199,-0.186308414
18.39412057,-0.134596273,3.189632654,5.693721294,0.150421143,-0.197990865,-0.208909765
18.41423036,-0.462412983,3.543770313,5.712265968,0.025044737,-0.259839147,-0.169357404
18.4343401,-0.279362053,3.83270359,6.343372822,-0.131943002,-0.260144562,-0.091779798
18.45444989,0.187238365,4.061218262,7.267002583,-0.273354143,-0.233420014,-0.058641337
18.47455968,0.52043891,4.216153622,8.483752251,-0.366050214,-0.209444255,-0.064749807
18.49466948,0.747757077,4.37288332,9.605986595,-0.33184278,-0.165768668,-0.088267431
18.51477922,0.420538575,4.600201607,9.990633011,-0.152100965,-0.112624966,-0.127056226
18.53488901,-0.075972117,4.822135925,9.256634712,0.035123717,-0.154162571,-0.114839286
18.5549988,-0.07537391,5.001597404,8.582456589,0.033443887,-0.337416768,-0.052838288
18.57510859,0.707677305,4.887340069,9.129216194,-0.153169945,-0.478980601,0.010231691
18.59521838,1.418943882,4.595416069,10.3154583,-0.307714313,-0.423393518,-0.002443389
18.61532812,1.607378602,4.245465755,11.52323532,-0.309088707,-0.271903396,-0.052685577
18.63543791,0.882353365,4.566103935,11.61655617,-0.105371155,-0.090176329,-0.073148958
18.6555477,-0.054436713,5.272584915,10.38365364,0.072538115,-0.139960378,-0.021379653
18.6756575,1.506281853,4.416552544,9.911071777,-0.096055731,-0.518685699,0.1007898
18.69576724,3.459423304,3.35413909,11.5579319,-0.416139692,-0.57595259,0.039705072
18.71587703,3.19382,3.166900873,12.71067429,-0.40789327,-0.058717694,-0.238993987
18.73598682,1.264606714,2.73798728,11.99641609,-0.171800792,0.183025107,-0.52929914
18.75609661,0.233300209,2.008176327,11.72363472,-0.078952007,-0.072003618,-0.525175929
18.77620635,0.926022351,1.756929994,12.90030479,-0.063069977,-0.424004346,-0.373838514
18.79631614,1.853241086,1.771286964,13.6031971,0.087503873,-0.494099081,-0.307561606
18.81642593,2.479562521,1.900499344,12.72084332,0.267398387,-0.254952371,-0.331995487
18.83653573,2.201396942,2.358724833,10.69711399,0.316113442,0.238612205,-0.420721054
18.85664546,1.232901812,2.767897606,8.763114929,0.220821291,0.603440762,-0.519678295
18.87675526,0.567697167,2.705085993,7.506284714,0.117129959,0.703619659,-0.554496586
18.89686505,-0.158524498,2.735594511,6.684350014,0.068720318,0.577785134,-0.563964725
18.91697484,-0.667597532,2.76909399,6.242276192,0.032527618,0.332835406,-0.52044189
18.93708458,-0.754935563,2.723032236,6.259624004,-0.01343864,0.1260636,-0.430800021
18.95719437,-0.601196706,2.770888567,6.415157318,-0.030389652,0.086816669,-0.34176904
18.97730416,-0.404387027,2.886342287,6.583851337,-0.057266932,0.139960378,-0.261595339
18.99741396,-0.221336097,2.996412039,7.034300327,-0.083380654,0.183788672,-0.184628591
19.01752375,-0.103489578,3.126222849,7.177869797,-0.027029991,0.18180342,-0.12995775
19.03763349,-0.183649138,3.245265722,7.037889481,0.029473381,0.116290048,-0.098957255
19.05774328,-0.247058943,3.288934708,6.949355125,0.035123717,0.045737188,-0.056808796
19.07785307,-0.289531529,3.336193085,7.068996429,-0.000152712,0.016263809,-0.010384403
19.09796286,-0.184247345,3.400799274,7.109076023,-0.035581853,0.069865659,0.049325917
19.11807265,-0.091525465,3.630510092,7.112067223,-0.090405397,0.133851901,0.089794546
19.13818239,-0.037088752,3.781856298,7.277770042,-0.144159958,0.132782921,0.107203692
19.15829218,-0.070588268,3.982254982,7.730611801,-0.199747056,0.063146338,0.11331217
19.17840198,-0.092123672,4.217350006,8.341380119,-0.223570094,0.011682454,0.132859275
19.19851177,0.069990061,4.272983074,8.868997574,-0.227082461,-0.049554985,0.147825033
19.21862151,0.600598455,4.31126833,9.537791252,-0.269230932,-0.104683951,0.152559102
19.2387313,1.523629785,4.313661098,10.95135117,-0.373685807,-0.121176824,0.088267431
19.25884109,1.365105271,4.889134884,12.54616737,-0.428356648,0.064062603,-0.092543356
19.27895088,0.185443759,5.291129112,13.04267788,-0.434312403,0.190966129,-0.265107721
19.29906062,-0.209371984,4.409972191,13.76770306,-0.577097952,-0.043751936,-0.289541602
19.31917041,0.597607434,2.853441,16.03131294,-0.668266892,-0.29251948,-0.150879279
19.3392802,1.12283206,2.272583246,17.59322929,-0.316877008,-0.206695437,-0.046729814
19.35939,0.077766739,2.506481647,15.12084484,0.354902268,0.112472251,-0.05971032
19.37949979,-1.104885817,2.565704107,11.52084255,0.588093221,0.185315788,-0.027335415
19.39960953,-1.408774376,2.327618122,10.37587738,0.311073959,0.089260057,0.119573347
19.41971932,-0.885942578,2.034497499,11.69970608,0.01343864,-0.025884653,0.27610296
19.43982911,-0.378065974,1.700100541,12.55035496,0.100637086,0.046500746,0.353527844
19.4599389,-0.525822759,1.573879123,11.38564873,0.392163932,0.121329539,0.383612067
19.48004869,-0.535992265,1.591227055,9.711270332,0.572211146,0.070018366,0.462869525
19.50015843,-0.145363972,1.667797327,8.412566185,0.639862478,0.006948388,0.531589806
19.52026823,0.117846519,1.830509305,7.248457909,0.655439138,0.042682953,0.534796774
19.54037802,0.147158593,2.024926186,6.090332031,0.621689796,0.148359522,0.492953748
19.56048781,0.008374879,2.213361025,5.251049519,0.488830507,0.194936633,0.435839534
19.5805976,-0.108873427,2.414358139,5.301896572,0.306645334,0.171877146,0.408198685
19.60070734,-0.158524498,2.536391973,5.816353798,0.225249931,0.06345176,0.388498843
19.62081713,-0.083748795,2.606980324,6.01316309,0.243422627,-0.082235314,0.375365645
19.64092692,0.070588268,2.851646423,5.88754034,0.239146695,-0.133241057,0.366508365
19.66103672,0.276371002,3.096910715,5.833701611,0.153628081,-0.127285302,0.33550787
19.68114651,0.425324231,3.195614576,5.964708805,0.005497625,-0.104378529,0.276866525
19.70125625,0.428315252,3.376272678,6.584449768,-0.151490122,-0.048180576,0.226471618
19.72136604,0.323031068,3.661616802,7.305287361,-0.223417386,-0.020234315,0.180810794
19.74147583,0.292522579,3.88594389,7.791628838,-0.227235183,-0.059481252,0.1575986
19.76158562,0.458823741,4.152743816,8.274380684,-0.246324152,-0.105142087,0.150268421
19.78169541,0.631705165,4.377668858,8.956335068,-0.259304673,-0.174473241,0.129346907
19.80180515,0.642472863,4.673182487,9.418747902,-0.237925008,-0.244567975,0.094375901
19.82191494,0.626919508,4.886742115,9.477970123,-0.238230437,-0.295268297,0.076814041
19.84202474,0.933200836,4.889732838,9.69452095,-0.333980739,-0.350702673,0.083380654
19.86213453,1.698904037,4.671388149,10.40877819,-0.487303406,-0.318022341,0.077424891
19.88224432,2.298904419,4.216153622,11.64168072,-0.573432863,-0.190966129,0.008399149
19.90235406,1.71924305,4.378267288,12.27039433,-0.427440375,-0.001908898,-0.05971032
19.92246385,1.044467092,4.730610371,11.53400326,-0.1653869,-0.096590221,-0.041995749
19.94257364,1.450648785,4.685146809,10.53380394,-0.08490777,-0.409649432,-0.00671932
19.96268343,2.164308071,4.339384079,9.997213364,-0.293206692,-0.422019094,-0.060015742
19.98279323,3.75134778,2.817548752,11.26660538,-0.649788797,-0.216163576,-0.199136213
20.00290302,3.589832067,1.997408748,12.80519009,-0.686286867,-0.019470757,-0.540294409
20.02301276,1.380658627,1.694118381,13.64267826,-0.412780047,-0.07124006,-0.794712305
20.04312255,-0.136390895,1.163509965,13.58166122,-0.015118469,-0.261671692,-0.70904094
20.06323234,-0.390628308,1.16769743,12.86082363,0.35581854,-0.384757429,-0.40270105
20.08334213,0.713659346,1.47756803,11.40120125,0.597714067,-0.320771158,-0.108883523
20.10345192,1.532602906,2.00099802,9.606584549,0.601837277,-0.142556474,-0.060015742
20.12356166,1.690529227,2.243869543,8.569893837,0.350779027,0.070934638,-0.155918762
20.14367146,1.351346612,2.154736757,8.499904633,0.086282179,0.293435752,-0.278088212
20.16378125,0.532403052,2.060220242,8.469993591,0.00335966,0.415605217,-0.333828032
20.18389104,-0.07537391,2.057827473,7.868797302,0.079104722,0.433777899,-0.276866525
20.20400083,-0.329013109,2.215753794,6.837490559,0.160652831,0.346579462,-0.160652831
20.22411062,-0.198604286,2.544168711,6.022734642,0.131484866,0.261518985,-0.032527618
20.24422036,0.403788835,2.859423161,5.793622017,-0.011300675,0.233572722,0.036956258
20.26433015,0.740578592,3.091526747,6.162714481,-0.180810794,0.284578472,0.000763559
20.28443994,0.593420029,3.10408926,6.812366009,-0.286792785,0.314662695,-0.062611841
20.30454974,0.207577363,3.041277647,7.575078487,-0.293664813,0.262893379,-0.069331162
20.32465953,0.132203445,3.048455954,8.136793137,-0.194554851,0.159354776,0.000610847
20.34476932,0.378664196,3.215355396,8.426922798,-0.057572354,0.092008866,0.085671328
20.36487906,0.693918586,3.49531579,8.398807526,0.067651331,0.101018868,0.138662323
20.38498885,0.903888762,3.766901016,8.065009117,0.141258434,0.127590716,0.144618094
20.40509864,1.018146038,4.043870449,7.853842258,0.11606098,0.149275795,0.106898271
20.42520843,0.812961519,4.399802685,7.987242222,0.035734564,0.181192562,0.038636088
20.44531823,0.4444668,4.547559261,8.34915638,-0.054059982,0.165005118,-0.026724568
20.46542802,0.172881439,4.389034748,9.102895737,-0.15500249,0.074141584,-0.049325917
20.48553776,0.093918286,4.150949001,10.21017456,-0.226166204,-0.019165333,-0.004886778
20.50564755,0.384048045,3.964907169,11.40718365,-0.224486366,-0.019470757,0.077883027
20.52575734,0.538983285,3.965505362,12.08913803,-0.14248012,0.137975127,0.150726557
20.54586713,-0.361914426,4.882554531,11.47597694,-0.051158458,0.41911757,0.180505365
20.56597692,-1.252642632,5.585446358,10.60080242,-0.173022479,0.361392498,0.234565347
20.58608672,0.296710014,4.425525665,12.46780205,-0.616650283,-0.255105078,0.30786702
20.60619646,2.108076811,2.647060156,16.48236084,-0.787076712,-0.573967338,0.284349412
20.62630625,1.513460279,2.133799553,18.04427528,-0.184017733,-0.224868149,0.149352148
20.64641604,-0.470189661,1.908276081,14.04108334,0.731642306,0.232198313,0.114075728
20.66652583,-1.39022994,1.771885157,9.511469841,0.966054916,0.185315788,0.287250936
20.68663562,-0.780658364,1.667797327,8.370692253,0.552053213,-0.131408513,0.510668337
20.70674541,0.55154562,1.670190215,10.31426239,0.178825542,-0.2758739,0.606724024
20.72685515,1.15094769,1.697707653,11.12542915,0.293664813,-0.121940382,0.523496091
20.74696494,0.63888365,1.695913076,9.267401695,0.570073187,0.109418012,0.401937485
20.76707474,0.210568398,1.860419631,7.180860519,0.594812512,0.219523236,0.383917511
20.78718453,0.230907381,2.04586339,6.046064377,0.456302911,0.252356261,0.388956994
20.80729432,0.27577281,2.29052949,5.513063431,0.300842285,0.198296294,0.354291409
20.82740411,0.31226337,2.508874655,5.324628353,0.152559102,0.073988877,0.281295151
20.84751385,0.195015043,2.551347256,5.715256691,0.008093726,-0.046958882,0.204633832
20.86762364,0.205184549,2.624328136,6.28355217,-0.064291671,-0.079486497,0.180658072
20.88773343,0.388833672,2.864208698,6.61555624,-0.099568106,-0.06024481,0.171800792
20.90784323,0.788435042,3.090330362,6.952944279,-0.155613333,-0.047722444,0.143243685
20.92795302,1.025922656,3.254837036,7.375277519,-0.21517095,-0.030160584,0.052838288
20.94806281,0.90329057,3.358924866,7.935796261,-0.248156697,-0.014736691,-0.056656085
20.9681726,0.430109859,3.480360508,8.451449394,-0.22402823,-0.035658211,-0.129041478
20.98828234,0.074775711,3.629313707,8.842078209,-0.152864531,-0.073988877,-0.10628742
21.00839213,0.098703936,3.930809498,9.086145401,-0.063375406,-0.081319042,-0.041232191
21.02850192,0.307477713,4.204189301,8.995218277,0.010384403,-0.054441761,0.003206948
21.04861172,0.417547554,4.410570145,9.176474571,0.01343864,-0.081166327,0.020005248
21.06872151,0.642472863,4.584648132,9.699904442,0.023823043,-0.181039855,0.05635066
21.0888313,1.030110121,4.575077057,9.745368004,0.054670829,-0.247316778,0.056656085
21.10894109,1.639681697,4.223930359,9.488140106,-0.045660831,-0.340623707,0.026266431
21.12905088,2.127817631,4.076173306,10.5978117,-0.378572583,-0.312524736,-0.045202699
21.14916062,2.158924341,3.942773581,12.89970684,-0.569767773,-0.063146338,-0.155766055
21.16927041,0.46420759,4.735994339,13.46142197,-0.298857033,0.196005613,-0.259304673
21.18938021,-0.774078131,5.998806477,10.68993473,0.095444888,0.149123088,-0.117588095
21.20949,2.300698996,4.66540575,9.147761345,-0.209978744,-0.730038822,-0.050089475
21.22959979,5.352744102,2.308475733,12.66760349,-0.950936496,-1.077152729,-0.310768545
21.24970958,4.23230505,1.42971158,16.63669777,-0.918714285,-0.085136838,-0.75592351
21.26981937,0.466002196,1.192223907,14.60040569,-0.012064233,0.962618947,-0.99659729
21.28992911,-2.202593327,1.317248821,10.57388306,0.555260181,0.928411484,-0.753938258
21.3100389,-1.520638824,1.40697968,9.126225471,0.5392254,0.114610218,-0.188751802
21.33014869,1.291526079,1.796411633,10.41535854,0.405144453,-0.560834169,0.145687074
21.35025849,3.343371391,2.248655081,10.62652493,0.496313393,-0.532124341,0.042453885
21.37036828,3.120838881,2.410768747,8.821140289,0.494786292,-0.055205323,-0.368646324
21.39047807,1.142572761,2.173281193,7.346563816,0.195471123,0.466763675,-0.665212691
21.41058786,-0.302093864,1.95015049,7.422535896,-0.087351158,0.740423262,-0.661853015
21.43069765,-1.241874933,1.995614052,7.712665558,-0.10185878,0.648490727,-0.502421856
21.45080739,-1.301097274,2.205584288,7.649255753,0.0503949,0.315578967,-0.237161443
21.47091718,-0.437288344,2.459821701,7.367500782,0.187224686,0.080860905,-0.003512372
21.49102698,0.470787853,2.758924484,7.145566463,0.231969252,0.088649206,0.084755056
21.51113677,0.780658364,2.93778801,6.881159782,0.213338405,0.224868149,0.049478628
21.53124656,0.474975288,3.074178934,6.872784615,0.162638083,0.313746423,-0.005192202
21.55135635,0.106480606,3.192623615,7.225128174,0.148741305,0.282745928,0.007941014
21.57146614,0.057427742,3.394218922,7.663612843,0.218683317,0.181497991,0.083075225
21.59157588,0.150149614,3.617947817,7.730611801,0.341158181,0.074905142,0.157904014
21.61168567,0.474377096,3.926023722,7.34716177,0.387277156,0.030007871,0.20371756
21.63179546,0.680159807,4.420739651,7.156932354,0.283433139,0.074752435,0.164928764
21.65190526,0.623330295,4.510470867,7.486543655,0.0865876,0.113999367,0.075897776
21.67201505,0.234496623,4.380061626,8.584849358,-0.076814041,0.136753425,0.03130592
21.69212484,-0.296111792,4.445864677,9.613164902,-0.054365408,0.090329036,0.070400149
21.71223463,-0.324227482,4.503890514,9.779465675,0.102164201,-0.042072106,0.188140959
21.73234442,0.04127619,4.625924587,9.7698946,0.189820781,-0.204404771,0.289999723
21.75245416,0.168095797,4.999204636,10.03609657,0.187530115,-0.292672187,0.329552084
21.77256396,0.043070808,5.498706341,10.164711,0.112395898,-0.37849623,0.306187183
21.79267375,0.548554599,5.087738991,11.17208862,-0.169510111,-0.655362725,0.28602922
21.81278354,2.02612257,4.128815651,14.20140266,-0.451721549,-0.832966566,0.281142443
21.83289333,2.578266382,3.454637766,16.2257309,-0.242353648,-0.538843632,0.155460626
21.85300312,1.740778446,2.885744095,14.22413445,0.29381752,-0.12865971,-0.004123219
21.87311291,0.839282513,2.860021353,10.59063339,0.553580344,-0.000229068,-0.07513421
21.89322271,0.430109859,2.740380049,8.495717049,0.240368396,-0.145916134,-0.118046232
21.9133325,0.58803618,2.369492531,10.3531456,-0.371395141,-0.232809156,-0.13102673
21.93344229,0.570089996,2.148156643,13.05464172,-0.487761527,0.042377528,-0.143854529
21.95355208,-0.25603202,2.155334949,12.73161125,-0.040468629,0.316800654,-0.146450624
21.97366182,-0.612562597,2.275574446,10.0965147,0.394454628,0.440802664,-0.022143213
21.99377161,-0.492921472,2.462812662,7.830512047,0.538309157,0.344136089,0.083533362
22.0138814,-0.327816695,2.626721144,6.488138676,0.483027458,0.199059844,0.105065726
22.03399119,-0.38823548,2.739183664,5.939583778,0.336882263,0.110945135,0.080173701
22.05410099,-0.321236432,2.725425005,5.949155331,0.160194695,0.116900891,0.077883027
22.07421078,-0.254237413,2.71286273,6.357729912,0.020310672,0.225173578,0.088572852
22.09432057,-0.387039065,2.76371026,6.70588541,-0.025808297,0.30397287,0.118657082
22.11443036,-0.43908295,2.874976397,6.7202425,0.014354911,0.248080343,0.183254182
22.13454015,-0.215952247,2.988037348,6.566503525,0.053754561,0.070171081,0.240368396
22.15464994,0.193220422,3.079562664,6.536593437,0.02687728,-0.046500746,0.262664318
22.17475968,0.375074953,3.256631613,6.890730858,-0.058641337,-0.042072106,0.247393146
22.19486948,0.490528643,3.420539856,7.196413994,-0.103080474,0.043446511,0.235176191
22.21497927,0.478564531,3.674179077,7.109076023,-0.112854034,0.119344287,0.208909765
22.23508906,0.332602352,3.966701746,7.092924595,-0.156071469,0.16332528,0.183559597
22.25519885,0.206979156,4.214957237,7.636693478,-0.202190444,0.109265305,0.182948753
22.27530864,0.393021107,4.328018188,8.260024071,-0.158667579,-0.036879905,0.196081966
22.29541843,0.556331277,4.569693089,8.513663292,-0.094528615,-0.194783926,0.183712319
22.31552823,0.641874671,4.869992256,8.665607452,-0.106134713,-0.2836622,0.143396393
22.33563802,0.780658364,4.826323509,9.105288506,-0.222348407,-0.359407246,0.096819289
22.35574781,1.236491084,4.436891556,10.13240719,-0.379641563,-0.441718936,0.079257429
22.3758576,1.956730723,4.0157547,11.56810093,-0.483485609,-0.429501981,0.057877779
22.39596734,2.103889227,3.804588079,12.58146191,-0.434159696,-0.20318307,-0.007941014
22.41607713,0.808774054,4.520640373,12.10050392,-0.223722816,0.063909896,-0.071316421
22.43618692,0.28713873,4.785645485,11.19781208,-0.134233683,-0.163630709,-0.001068983
22.45629672,1.953739643,4.395615101,11.43888855,-0.271368891,-0.703466952,0.087809294
22.47640651,4.149154663,3.439682484,12.79322624,-0.508377612,-0.8890118,-0.008093726
22.4965163,4.959125042,2.279761791,13.95853043,-0.565339148,-0.366126567,-0.306187183
22.51662609,2.713460922,2.027318954,12.77049446,-0.302522093,0.556252778,-0.634670317
22.53673588,0.187836573,2.060220242,10.74616623,-0.064749807,0.912529469,-0.665976226
22.55684567,-1.049850941,2.185843468,9.630513191,0.080326416,0.540370762,-0.417666823
22.57695546,-0.372083932,2.492124796,9.481559753,0.179436386,-0.127590716,-0.111785047
22.59706526,1.253240824,2.537588358,9.42353344,0.242964491,-0.397432506,-0.012369657
22.61717505,1.974676847,2.629712105,8.964710236,0.164470628,-0.217385262,-0.131790295
22.63728479,1.865205288,2.634497643,8.87617588,-0.052380152,0.173556984,-0.314891756
22.65739458,0.869791031,2.467000246,9.226723671,-0.202190444,0.449354529,-0.451110691
22.67750437,0.16749759,2.263011932,9.369695663,-0.160500124,0.474399239,-0.425455123
22.69761416,-0.022731815,2.267199516,9.01675415,0.00671932,0.371776909,-0.302216679
22.71772396,0.290129751,2.514856577,8.129016876,0.169204697,0.247164071,-0.172717065
22.73783375,0.684945464,2.793022156,7.204789162,0.202037737,0.205321029,-0.130110472
22.75794354,0.794417143,2.963510752,6.832107067,0.123085722,0.243498996,-0.152406395
22.77805333,0.665802896,3.050848961,6.710670948,0.036345411,0.279080838,-0.199594349
22.79816312,0.318245411,3.030509949,6.942774773,-0.047798797,0.232503742,-0.229067728
22.81827291,0.216550455,2.821137905,7.738986492,-0.114992,0.136142582,-0.193180442
22.8383827,0.221934304,2.903690338,8.639883995,-0.082769804,0.117817164,-0.118198946
22.8584925,0.166899383,3.262015581,8.773882866,0.056197949,0.134615466,-0.049173206
22.87860229,0.145962179,3.613760471,8.167302132,0.148283169,0.154926136,-0.001374406
22.89871203,0.185443759,3.896711588,7.762316704,0.082769804,0.127743438,0.022601349
22.91882182,0.266799718,3.973880291,8.379066467,-0.090558104,0.06024481,0.029320668
22.93893161,0.321834654,4.074378967,9.572486877,-0.180047229,0.043141089,0.044591852
22.9590414,0.314057976,4.186243057,10.41296577,-0.128430635,0.03840702,0.05803049
22.97915119,0.322432846,4.231108665,10.33998489,-0.011300675,0.093383275,0.081242688
22.99926099,0.245264322,4.214957237,9.816555023,0.014965758,0.131103098,0.094986752
23.01937078,0.440279365,4.059423447,9.963115692,-0.084296919,0.119191572,0.122322165
23.03948057,0.476171702,4.046263218,10.69292641,-0.135608092,0.17737478,0.13912046
23.05959036,-0.117248312,4.663012981,10.18744278,-0.033138465,0.362003356,0.137287915
23.07970015,-1.003190875,5.078167915,9.127422333,-0.077272177,0.307179809,0.118504368
23.09980994,-0.322432846,4.244867325,10.18505001,-0.390025973,0.0096972,0.201885015
23.11991974,0.138783708,3.960719585,12.38225937,-0.569615066,-0.002672457,0.199136213
23.14002953,0.350548506,2.789433002,14.27797318,-0.494938999,-0.061771929,0.159125716
23.16013927,0.271585375,1.745564103,15.16810226,-0.077424891,-0.085900396,0.219446883
23.18024906,-0.507278383,2.132004976,13.00798225,0.583817244,-0.0432938,0.309546858
23.20035885,-0.85842514,2.380260229,9.707681656,0.88252157,-0.223188311,0.379947007
23.22046864,-0.332602352,2.152942181,8.126624107,0.643680275,-0.50662142,0.445307642
23.24057843,0.84406817,1.771885157,9.190233231,0.20264858,-0.529070079,0.448056459
23.26068823,1.365703583,1.438684583,10.49312592,0.041995749,-0.172029853,0.341005474
23.28079802,0.58265233,1.437488198,9.854840279,0.227540597,0.248691186,0.228609592
23.30090781,-0.357128769,1.851446509,7.780860901,0.474170178,0.356353015,0.227846026
23.3210176,-0.717846811,2.333600283,5.784050465,0.542126954,0.144847155,0.278393626
23.34112739,-0.471984267,2.686541557,4.593621254,0.33184278,-0.206237301,0.306950748
23.36123718,0.451047063,2.913859844,5.246861935,-0.106898271,-0.419728428,0.282822281
23.38134698,1.270588875,2.991028309,7.028916359,-0.46470204,-0.374525726,0.153628081
23.40145677,1.309472203,2.995813847,8.669196129,-0.61313796,-0.205321029,-0.035429142
23.42156656,0.884746194,2.863012314,9.74835968,-0.560452342,-0.044515494,-0.1435491
23.4416763,0.298504621,2.91266346,10.01815033,-0.366813779,0.014583978,-0.147672325
23.46178609,0.170488611,3.100499868,9.29432106,-0.132248431,0.042835664,-0.070858285
23.48189588,0.201595306,3.399004459,7.956135273,0.005344913,0.085594974,-0.027182704
23.50200567,0.110668048,3.681357622,7.239484787,-0.027335415,0.086663954,-0.01175881
23.52211547,0.218345061,3.90030098,7.275377274,-0.102622338,0.053220067,0.002748813
23.54222526,0.31525439,4.122833252,7.685746193,-0.142632842,0.006032117,-0.000152712
23.56233505,0.452243477,4.332205296,8.155337334,-0.133011997,-0.010308048,0.003970507
23.58244484,0.675972402,4.427918434,8.569295883,-0.10964708,-0.0290916,0.004428643
23.60255463,0.768694282,4.35852623,9.337990761,-0.08765658,-0.133851901,0.000916271
23.62266442,0.80757767,4.280161381,10.09113121,0.004886778,-0.283204049,0.004123219
23.64277422,0.708873689,4.250849247,10.31246758,0.109341659,-0.381855905,0.007024744
23.66288401,0.893121064,3.999004841,10.26640511,0.175160453,-0.364904881,0.052227441
23.6829938,1.202393413,3.957130432,9.924231529,0.192722306,-0.325505227,0.089030989
23.70310359,1.35074842,4.366302967,9.8638134,0.114533864,-0.330086589,0.074676074
23.72321338,0.680159807,5.187041283,9.958928108,-0.009162709,-0.376205564,-0.009773556
23.74332312,2.065006018,3.839283943,10.63250732,-0.2948865,-0.681781888,-0.041384902
23.76343291,3.595814228,2.581855536,13.13779259,-0.673000991,-0.636579216,-0.148130462
23.78354271,3.391826153,2.073979139,15.64666748,-0.68506521,-0.097506493,-0.366813779
23.8036525,1.880160451,1.201196909,14.95932865,-0.160652831,0.524794161,-0.53815645
23.82376229,0.028713871,1.322034478,11.99581814,0.399494112,0.682240009,-0.511737287
23.84387208,-0.497707099,1.697707653,9.535996437,0.616955757,0.285342038,-0.298246175
23.86398187,0.363709033,2.131406784,8.517850876,0.530673564,-0.256479502,-0.120795049
23.88409166,1.792224169,2.367099762,8.657232285,0.282669574,-0.395447254,-0.11942064
23.90420146,2.277967215,2.448455811,8.797212601,0.023823043,-0.109876148,-0.319473118
23.92431125,1.543370605,2.472982168,8.967700958,-0.213338405,0.275568456,-0.517693043
23.94442104,0.906281591,2.278565407,9.220742226,-0.317640573,0.422324538,-0.565339148
23.96453083,0.638285458,2.154736757,9.13220787,-0.249378398,0.414841652,-0.529909968
23.98464062,0.402592421,2.25104785,8.520243645,-0.101553358,0.365363032,-0.465618312
24.00475041,0.170488611,2.466402054,7.55294466,0.023670331,0.325810671,-0.392163932
24.02486021,0.059820566,2.772084951,6.690331936,0.050547611,0.292214066,-0.3229855
24.04496994,-0.038883369,2.969492912,6.349953175,-0.005955761,0.2474695,-0.267092973
24.06507974,0.070588268,3.089133978,6.516852379,-0.067956761,0.158438504,-0.215476364
24.08518953,0.202193514,3.270988464,6.999006271,-0.090863533,0.085900396,-0.183559597
24.10529932,0.313459754,3.398406267,7.447660446,-0.069789298,0.018554486,-0.167677566
24.12540911,0.494117886,3.405584812,7.866404533,-0.056197949,-0.041003123,-0.160041988
24.1455189,0.557527661,3.490530014,8.472985268,-0.069789298,-0.011224318,-0.142327413
24.16562869,0.63888365,3.716651678,9.126225471,-0.022448637,0.050776679,-0.10964708
24.18573849,0.624526739,3.966103554,9.125627518,0.112548605,0.116137333,-0.091321662
24.20584828,0.458225548,4.219742775,8.485547066,0.207688063,0.087580226,-0.085518613
24.22595807,0.364307255,4.424329281,8.009973526,0.162638083,0.011987877,-0.088725567
24.24606786,0.296111792,4.460819721,8.176873207,0.005803049,-0.034436513,-0.109799795
24.26617765,0.125623182,4.280161381,9.156734467,-0.164012492,-0.005115846,-0.116213694
24.28628744,-0.034097724,3.966701746,10.31844902,-0.226929754,0.015347538,-0.075286925
24.30639724,-0.080757767,3.807579041,11.18345451,-0.147825033,0.05413634,0.030389652
24.32650703,-0.187836573,4.054039955,11.16670513,0.015576605,0.129575968,0.149657577
24.34661677,-0.554536641,4.73360157,10.14317513,0.089183703,0.177680194,0.218225181
24.36672661,-0.19262223,4.058227062,10.45603657,-0.108272679,-0.100102596,0.253654331
24.38683635,0.061016977,3.617349625,12.28774261,-0.274270415,-0.123009369,0.27091077
24.40694614,-0.521037102,3.421138287,13.58584881,-0.22295925,-0.112472251,0.211811289
24.42705593,-0.265603304,1.831705689,14.66321754,-0.025808297,-0.387200803,0.267551094
24.44716573,0.118444718,1.397408366,14.57827187,0.345586836,-0.493182808,0.368188173
24.46727552,0.304486692,1.658824325,12.87697506,0.602906227,-0.389186055,0.360552609
24.48738531,0.314656168,1.604985833,11.88993549,0.494938999,-0.329628438,0.297635317
24.5074951,0.484546572,1.490728498,12.05623722,0.314739049,-0.242430002,0.269383639
24.52760489,0.476769924,1.44646132,11.690135,0.276255667,-0.048791423,0.249225676
24.54771468,0.446261436,1.526022673,10.45543861,0.30267483,0.215552732,0.267551094
24.56782448,0.275174618,1.772483349,8.817551613,0.356276661,0.417285025,0.278546363
24.58793427,0.050847482,2.048854351,7.086344242,0.398425132,0.475468248,0.284043968
24.60804406,-0.096311115,2.341975212,5.58843708,0.373380393,0.372845888,0.275186688
24.62815385,-0.126221389,2.48195529,4.622334957,0.22738789,0.18180342,0.253807038
24.64826364,-0.104685992,2.730808735,4.869394302,-0.025961008,0.0432938,0.23181653
24.66837338,-0.038285162,2.916850805,6.037091732,-0.180505365,0.035963632,0.213338405
24.68848317,-0.0526421,3.138785124,6.667600155,-0.165692315,0.043599222,0.197456375
24.70859296,0.129810631,3.35413909,6.917052269,-0.136524364,-0.038254309,0.205244675
24.72870276,0.502492726,3.451048374,7.313064098,-0.158056721,-0.161950886,0.188293666
24.74881255,0.817148924,3.531806231,8.248059273,-0.190126211,-0.226547971,0.127972499
24.76892234,0.950548768,3.456432343,8.915657043,-0.122933008,-0.163172573,0.033291176
24.78903213,0.549750984,3.499503136,8.657830238,-0.033443887,-0.028480753,-0.058183201
24.80914192,-0.016749758,3.636492252,8.185846329,-0.036650836,0.081929892,-0.065360658
24.82925172,-0.121435747,3.70050025,8.178069115,-0.076966755,0.059023116,-0.014813046
24.84936151,0.029312078,3.881756544,8.466404915,-0.076508619,0.000534491,0.037414394
24.8694713,0.259621263,4.156930923,8.533403397,-0.023823043,-0.055968881,0.058335911
24.88958109,0.268594354,4.455435753,8.328817368,-0.00167983,-0.129270554,0.029320668
24.90969088,0.072981089,4.696512699,8.346165657,-0.078493871,-0.224410012,-0.007941014
24.92980067,0.224327117,4.501497746,9.029315948,-0.236550599,-0.340318292,-0.014507622
24.94991047,0.805184841,4.036093712,10.20419216,-0.38865158,-0.396668941,0.000763559
24.97002026,1.20179522,3.76510644,11.68834019,-0.457830012,-0.359407246,0.007635591
24.99013,0.766301453,4.671986103,12.09272766,-0.358261913,-0.104683951,-0.001374406
25.01023979,0.693918586,4.5930233,11.27916813,-0.354138702,-0.195700184,-0.031764057
25.03034958,2.227717876,3.184248686,12.39362526,-0.621995211,-0.38109234,0.005192202
25.05045937,2.7577281,3.09272337,13.90349579,-0.711789787,-0.045126341,-0.10185878
25.07056916,2.205584288,1.987239242,14.05902958,-0.530062735,0.369028091,-0.285418391
25.09067896,1.098305583,1.040877819,13.00319672,-0.180658072,0.599775672,-0.321611077
25.11078875,-0.092123672,1.411765337,11.94556904,0.187071979,0.53578943,-0.237008736
25.13089854,-0.55154562,1.644467354,10.71864891,0.519220173,0.226242557,-0.070400149
25.15100833,0.219541475,1.932204247,9.452845573,0.666892469,-0.222882897,0.105371155
25.17111812,1.837687731,2.19242382,8.98803997,0.503032744,-0.448896378,0.115602844
25.19122791,2.654238462,2.169093609,9.535996437,0.167524859,-0.309623212,-0.080326416
25.21133771,2.309672117,1.913061738,10.33938694,-0.077424891,0.057801422,-0.32038939
25.2314475,1.197607756,1.685145378,10.4793663,-0.100331664,0.350702673,-0.45324868
25.25155729,0.281156659,1.633699656,9.79860878,0.044286426,0.409344018,-0.430494607
25.27166708,-0.092123672,1.865205288,8.58365345,0.231205687,0.352229804,-0.317029715
25.29177687,-0.14057833,2.300698996,7.278966427,0.342685312,0.252508998,-0.205702812
25.31188661,0.058025949,2.668595552,6.090929985,0.322374642,0.154773429,-0.147672325
25.3319964,0.293718994,2.894717216,5.685346603,0.142174706,0.103309542,-0.141869277
25.35210619,0.573081017,2.931805849,6.10349226,-0.060168456,0.089718193,-0.17790927
25.37221599,0.491725057,2.926422119,6.896713257,-0.199594349,0.075363278,-0.247545853
25.39232578,0.174077854,2.875574589,7.719245911,-0.257472128,0.105142087,-0.266940266
25.41243557,-0.048454657,2.799004316,8.318648338,-0.221737549,0.125147328,-0.21959959
25.43254536,-0.035892341,2.859423161,8.586046219,-0.127514362,0.076584972,-0.129805043
25.45265515,0.281754881,3.082553864,8.702695847,-0.030084228,0.034589227,-0.035276428
25.47276494,0.629910588,3.288934708,8.629117012,0.020616096,0.022677705,-0.005955761
25.49287474,0.630508781,3.498306751,8.505288124,0.036345411,0.096590221,-0.018478129
25.51298453,0.422931403,3.729812384,8.337790489,0.028404398,0.135989875,-0.032069482
25.53309432,0.145363972,3.991826296,8.344968796,-0.008551862,0.119496994,-0.032222193
25.55320411,-0.030508488,4.058825493,8.737391472,-0.065513365,0.035658211,-0.018478129
25.5733139,0.040677983,3.90030098,9.543772697,-0.136371657,-0.048944138,0.007482879
25.59342364,0.078364939,3.827918053,10.53440189,-0.167677566,-0.066200569,0.044439137
25.61353343,0.151944235,3.699303865,11.42393398,-0.14248012,-0.062840909,0.10353861
25.63364323,0.279362053,3.670589924,12.20698452,-0.06291727,-0.026190076,0.18569757
25.65375302,0.284745902,3.945166349,12.12203979,0.120336913,0.177985624,0.272132456
25.67386281,-0.489930451,4.883750916,10.62293625,0.296108216,0.432403505,0.330773801
25.6939726,-1.153340459,5.770291805,9.08853817,0.2443389,0.372845888,0.414459854
25.71408239,0.055034921,5.106881618,9.416953087,-0.141258434,-0.163783416,0.439504594
25.73419218,1.899302959,3.258426189,12.45763302,-0.583664537,-0.596721411,0.353985995
25.75430198,2.435893536,1.857428551,16.67438507,-0.569156945,-0.523572445,0.2159345
25.77441177,0.780658364,1.500898004,16.28614998,0.339783788,0.160729185,0.154697076
25.79452156,-1.159322619,1.990230203,11.1690979,1.261781335,0.477148056,0.238230437
25.81463135,-1.920240164,2.447857618,6.95055151,1.37142849,0.01885991,0.43293801
25.83474114,-0.725025237,2.529213428,6.135795593,0.849230409,-0.62543124,0.612374365
25.85485088,1.407577872,2.458027124,8.538787842,0.253501624,-0.742561221,0.597408593
25.87496067,2.269592285,2.253440619,10.48415279,0.056045234,-0.297864407,0.303285658
25.89507046,1.107876897,1.980060697,10.43988514,0.17088452,0.233420014,0.000610847
25.91518026,-0.278763831,1.920838356,8.797212601,0.316418886,0.413772672,-0.089489125
25.93529005,-0.953539848,2.123630047,7.715656757,0.319931239,0.266863883,-0.030847786
25.95539984,-1.096511006,2.431107759,6.898507595,0.246476874,0.051845662,0.046424393
25.97550963,-0.563509762,2.669193745,6.723233223,0.076966755,-0.068185829,0.126750812
25.99561942,0.183050931,2.868994236,7.022336483,-0.086893022,-0.015958386,0.130874023
26.01572922,0.455234498,3.099901676,7.124629498,-0.167830288,0.103309542,0.05314371
26.03583901,0.573081017,3.21954298,6.993024349,-0.233190939,0.155536979,-0.042301174
26.0559488,0.463609397,3.243471146,7.289734364,-0.312142938,0.117511742,-0.128430635
26.07605859,0.216550455,3.272783279,7.841279984,-0.315960735,0.05856498,-0.170579091
26.09616833,-0.113060869,3.364308596,8.027321815,-0.230289415,0.027717194,-0.158667579
26.11627812,-0.306879491,3.560520172,7.936992645,-0.136066228,-0.005726693,-0.091474377
26.13638791,-0.113659076,3.822534084,7.840681553,-0.070858285,-0.061771929,-0.008399149
26.15649771,0.256630242,4.070789337,7.842476368,-0.041232191,-0.13049224,0.034207448
26.1766075,0.494716078,4.202992916,8.07936573,-0.073301673,-0.203488499,0.02519745
26.19671729,0.515653253,4.349553585,8.69551754,-0.127972499,-0.249912888,-0.001985254
26.21682708,0.507876635,4.324428558,9.355338097,-0.142174706,-0.255563229,-0.015729317
26.23693687,0.470787853,4.237689018,9.829116821,-0.126139954,-0.27220881,0.000305424
26.25704666,0.452841699,4.301696777,10.0965147,-0.094070479,-0.262129843,0.053296424
26.27715646,0.741775036,4.328616142,10.06241703,-0.064291671,-0.249760166,0.106592849
26.29726625,1.161117196,4.206582069,10.28435135,-0.085060477,-0.301834911,0.112243183
26.31737604,1.539781332,3.807579041,11.08654594,-0.085824043,-0.392087579,0.098804541
26.33748578,1.316650629,3.916452408,11.54178047,0.073912516,-0.335584223,0.090558104
26.35759557,0.206380948,5.009972572,10.4596262,0.286640078,-0.317411512,0.096666582
26.37770536,1.545165181,4.378865242,9.84885788,0.192111462,-0.641160548,0.223111957
26.39781515,3.455235958,4.049253941,10.74736309,-0.039857782,-0.614894152,0.19562383
26.41792494,4.310071945,3.955934048,11.46580791,-0.148283169,-0.203946635,-0.07177455
26.43803474,3.765704632,2.992224693,11.19900799,-0.098651834,0.198907137,-0.474322885
26.45814453,1.918445587,2.325823545,11.13918781,-0.027029991,0.155842409,-0.74340111
26.47825432,0.950548768,1.957328916,12.03470135,0.087809294,-0.158438504,-0.724617541
26.49836411,1.111466169,1.957328916,12.32483101,0.319473118,-0.416368753,-0.561215937
26.5184739,2.200200319,2.279163599,11.44965649,0.425913245,-0.420950115,-0.456913739
26.53858369,2.858226538,2.696711063,10.49372387,0.249683812,-0.092925139,-0.530215442
26.55869343,2.280359983,2.893520832,10.01336479,-0.000152712,0.404762656,-0.698961973
26.57880323,1.049252748,2.833101988,9.273982048,-0.060473878,0.693693399,-0.789978206
26.59891302,0.305683106,2.804986238,8.224729538,0.026419144,0.67750597,-0.751036704
26.61902281,-0.205782741,2.870789051,6.928418159,0.103233188,0.513188064,-0.661242187
26.6391326,-0.367896467,2.947957516,6.230910301,0.044591852,0.326574206,-0.521816254
26.65924239,-0.122033954,3.00538516,6.324828625,-0.049478628,0.262587965,-0.380405128
26.67935218,0.142372951,3.131008387,6.610770702,-0.074981503,0.302293032,-0.282211423
26.69946198,0.222532511,3.321237803,6.576673031,-0.017561859,0.335584223,-0.220057726
26.71957177,0.160917327,3.550350666,6.39900589,0.029015245,0.242582724,-0.18676655
26.73968156,0.155533478,3.70588398,6.757331371,0.018783553,0.100560732,-0.159583852
26.7597913,0.218943268,3.742374659,7.560721397,0.012980504,0.019012621,-0.131790295
26.77990109,0.235693038,3.802195072,8.073383331,0.065818794,0.024510246,-0.099568106
26.80001088,0.086141616,4.054637909,8.228917122,0.11331217,0.048027866,-0.068567604
26.82012067,0.175274253,4.152743816,8.330612183,0.114228435,0.072614469,-0.03115321
26.84023046,0.37986058,4.09172678,8.444869041,0.071469128,0.094452254,-0.024739314
26.86034026,0.394815743,4.095914364,8.689535141,0.002443389,0.155231565,-0.039857782
26.88045005,0.114257284,4.14197588,8.977272034,-0.043522868,0.254188806,-0.060321167
26.90055984,-0.178265289,4.015156269,9.096315384,-0.068567604,0.267932892,-0.05803049
26.92066963,-0.291924357,3.966103554,9.312865257,-0.128430635,0.214331031,-0.020310672
26.94077942,-0.261415869,4.092923164,9.944570541,-0.214407384,0.151719183,0.025350161
26.96088916,-0.095114701,4.092324734,10.73480034,-0.253043473,0.121024117,0.076966755
26.98099896,-0.227318153,4.701896667,10.95194912,-0.232580096,0.199670702,0.124154702
27.00110875,-0.589830756,5.499304771,10.37647533,-0.290457875,0.22456272,0.112701319
27.02121854,0.105882399,4.469194412,11.22592735,-0.584886253,-0.037948888,0.106745556
27.04132833,0.337986201,4.057030678,13.32622719,-0.745997191,0.004046863,0.102316916
27.06143812,-0.325423867,4.015156269,14.24626827,-0.52151084,0.179818168,0.082922518
27.08154791,-0.294915378,2.651247501,13.13839054,-0.129652336,0.077501245,0.161263675
27.1016577,0.087338023,1.889133453,11.42871952,0.21074231,0.051082101,0.312448382
27.12176744,-0.420538575,2.289333105,9.519247055,0.467450857,0.218148828,0.360858023
27.14187724,-1.317248821,2.592025042,7.511668682,0.575723529,0.273125082,0.374449372
27.16198703,-2.096112728,2.772683144,6.394818306,0.427287668,0.018401774,0.43553409
27.18209682,-2.001596212,3.029313564,7.481758118,0.102316916,-0.386589944,0.567477107
27.20220661,-0.527019203,2.600399971,9.562317848,-0.098651834,-0.600691915,0.649941504
27.2223164,0.745962441,2.084746838,10.87178993,-0.099873528,-0.523419738,0.547319174
27.24242619,0.988833964,1.811366796,11.08235836,-0.034360159,-0.20318307,0.357498348
27.26253599,-0.214755833,1.984846354,10.1282196,0.047798797,0.197532728,0.200205192
27.28264578,-1.208973646,2.240280151,8.9479599,0.066887774,0.341081828,0.195318416
27.30275552,-1.281954765,2.324028969,8.351549149,0.045049984,0.266253054,0.293206692
27.32286531,-0.778265536,2.559123755,8.367102623,0.005803049,0.082846157,0.37246412
27.3429751,0.093918286,2.818146944,8.886942863,-0.000458135,0.024662958,0.387124449
27.36308489,0.597607434,3.060420275,8.826524734,0.068414897,0.036421768,0.289083451
27.38319468,0.588634372,3.297309637,8.442476273,0.070247434,0.045889899,0.161110967
27.40330448,0.562313318,3.322434187,8.408976555,-0.001985254,0.018554486,0.05971032
27.42341427,0.485144794,3.237488985,8.694320679,-0.073912516,-0.00129805,-0.026571855
27.44352406,0.17587246,3.183650494,8.990432739,-0.083533362,0.027259059,-0.08154811
27.4636338,-0.070588268,3.177668571,8.821140289,-0.018325418,0.052456509,-0.077424891
27.48374359,-0.083748795,3.336791277,8.22353363,0.052685577,0.048027866,-0.040315919
27.50385338,-0.011365907,3.503690481,7.673183918,0.072690822,-0.006948388,-0.025350161
27.52396317,0.014356935,3.649054527,7.450053215,0.054976255,-0.079486497,-0.02519745
27.54407296,0.12023934,3.792623997,7.546364307,0.008399149,-0.175084099,-0.03130592
27.56418276,0.477368116,3.709473372,8.117053032,-0.063222691,-0.229602218,-0.044133715
27.58429255,0.424127817,3.842274904,8.787042618,-0.074676074,-0.170044601,-0.075745061
27.60440234,-0.005383851,4.122235298,9.007183075,0.006261184,-0.138280556,-0.088878274
27.62451208,-0.051445685,4.204787731,8.892925262,0.094375901,-0.27220881,-0.062611841
27.64462187,0.153738856,4.253840446,8.871390343,0.105371155,-0.405678928,-0.057114217
27.66473166,0.312861562,4.17069006,9.366106033,0.007177455,-0.479133308,-0.080173701
27.68484146,-0.014356935,4.49970293,10.15334511,-0.126903519,-0.44462046,-0.108883523
27.70495125,-0.035294134,4.461417675,11.05005455,-0.270758033,-0.459128082,-0.089030989
27.72506104,0.659222662,4.155734539,11.79900837,-0.44179529,-0.484478235,-0.048409645
27.74517083,1.823330879,3.695714474,13.04925823,-0.745539069,-0.469817907,-0.093765058
27.76528062,2.995215654,2.184647083,15.10768414,-0.957044959,-0.274957627,-0.238230437
27.78539036,2.556132793,0.819541752,16.12463379,-0.732558549,0.152788177,-0.40636614
27.80550015,1.137787223,0.400797784,14.54477215,-0.09575031,0.731107831,-0.366813779
27.82560994,0.187238365,0.737587571,11.41077328,0.612068951,0.943988085,-0.179436386
27.84571974,-0.213559419,1.489532113,8.197810173,1.10548079,0.679643929,0.020463383
27.86582953,-0.280558467,2.486740828,5.640480995,1.226886749,0.10575293,0.160347402
27.88593932,0.443868607,3.364308596,4.629513741,0.917034447,-0.52693212,0.238535851
27.90604911,2.28215456,3.293720484,5.592026711,0.35062632,-0.883666933,0.184781298
27.92615885,4.034298897,2.645265341,7.306483746,-0.225249931,-0.744851887,-0.092390649
27.94626864,3.678964853,2.05722928,9.537791252,-0.663074672,-0.112777673,-0.513875246
27.96637843,1.357328653,1.615753531,11.06381416,-0.698351145,0.544493973,-0.774859726
27.98648823,-1.072582722,1.612762451,11.06620693,-0.375671059,0.650628686,-0.703390598
28.00659802,-1.693520188,1.698305845,10.02951622,0.011147963,0.354367763,-0.32145837
28.02670781,-0.705882669,2.231905222,8.763114929,0.250447363,0.038559735,0.032374904
28.0468176,0.250049979,2.907279491,7.815557003,0.272743315,-0.048027866,0.136371657
28.06692734,0.819541752,3.142374277,7.346563816,0.105523862,0.011682454,0.064749807
28.08703713,0.941575706,3.198007345,7.87358284,-0.1653869,0.092925139,-0.075897776
28.10714692,0.477966309,3.035295486,9.343374252,-0.336729556,0.162103593,-0.190737054
28.12725672,-0.144765765,2.751147747,10.3663063,-0.247393146,0.176458508,-0.191806033
28.14736651,-0.385244459,2.565704107,10.39980507,-0.041232191,0.129270554,-0.085671328
28.1674763,-0.12023934,2.541775942,9.925428391,0.099873528,0.122093096,0.047493376
28.18758604,0.197407872,2.796611547,9.55753231,0.093765058,0.190507993,0.120947756
28.20769583,0.396012157,3.059821844,9.7698946,-0.012980504,0.242277294,0.134233683
28.22780562,0.816550732,2.570489645,10.75095177,-0.104454882,0.154620707,0.12110047
28.24791541,0.759122968,2.480758905,11.39462185,-0.015271181,0.236779675,0.105065726
28.2680252,-0.171685025,2.931207657,10.47099209,0.233038232,0.435305029,0.103385896
28.288135,-0.805783033,3.160918713,8.681160927,0.366355658,0.329017609,0.164623335
28.30824474,-0.268594354,3.247060299,7.865208149,0.24693501,0.044820916,0.262358904
28.32835453,0.317048997,3.355933666,8.742177963,-0.016798299,-0.08101362,0.224791795
28.34846432,0.156729877,3.201596737,10.11984539,-0.115297422,0.021150587,0.123696573
28.36857411,-0.56829536,3.048455954,10.21675491,0.024281178,0.095673949,0.07177455
28.3886839,-0.857228696,2.975475073,9.385847092,0.172564358,0.035352785,0.12995775
28.40879369,-0.611964405,3.001796007,8.714659691,0.187835529,-0.085900396,0.184017733
28.42890343,-0.385842651,3.138785124,8.708678246,0.104302168,-0.140265808,0.17531316
28.44901323,-0.316450805,3.141776085,9.113064766,0.017561859,-0.164394274,0.120642334
28.46912302,-0.24047868,2.933002472,9.516255379,-0.035276428,-0.173098847,0.069483876
28.48923281,-0.326022089,2.791227579,9.770493507,-0.057419643,-0.140571222,0.030389652
28.5093426,-0.504287362,2.696112871,9.855438232,-0.049173206,-0.057801422,0.027946262
28.52945239,-0.649651349,2.711666346,9.608977318,-0.002748813,0.003741439,0.05650337
28.54956213,-0.653240562,2.894119024,9.002995491,0.02183779,0.019623468,0.08933641
28.56967192,-0.562313318,3.025724173,8.700901031,-0.04703524,-0.001603474,0.096208446
28.58978172,-0.41635114,2.971287489,9.125029564,-0.154086217,0.003588728,0.084449634
28.60989151,-0.53479588,2.971287489,9.661021233,-0.170731813,0.062993623,0.068567604
28.6300013,-0.708873689,3.038286448,9.593423843,-0.107356407,0.096742935,0.082922518
28.65011109,-0.659820855,3.120240688,9.345169067,-0.074065231,0.081319042,0.124154702
28.67022083,-0.37148571,3.21954298,9.341579437,-0.077883027,0.055358034,0.150115714
28.69033062,-0.078364939,3.279363394,9.597013474,-0.081242688,0.053983625,0.135913521
28.71044041,-0.093320087,3.282354355,9.689137459,-0.039094225,0.065895148,0.091321662
28.7305502,-0.384048045,3.342175007,9.561718941,0.02687728,0.057037864,0.065818794
28.75066,-0.420538575,3.378067255,9.367302895,0.076966755,0.005879405,0.081089973
28.77076974,-0.092721879,3.470789194,9.213563919,0.092390649,-0.019470757,0.086282179
28.79087953,0.156729877,3.55154705,9.127422333,0.062459134,-0.024204822,0.041690327
28.81098932,0.20817557,3.615555048,9.229117393,0.002290677,-0.020997874,-0.026266431
28.83109911,0.179461703,3.550948858,9.471988678,-0.061542861,-0.031687703,-0.091627091
28.8512089,0.356530577,3.292523861,9.79083252,-0.112701319,-0.013820419,-0.129499614
28.87131869,0.393619329,3.102892876,10.04506969,-0.128277928,0.058717694,-0.165081471
28.89142843,0.122033954,3.081357241,10.01874828,-0.081395395,0.126521736,-0.180199936
28.91153823,-0.093918286,3.122035265,9.477970123,0.009926268,0.11720632,-0.158820286
28.93164802,-0.097507522,3.25005126,8.743971825,0.060473878,0.075210571,-0.112243183
28.95175781,0.21535404,3.472583771,8.398209572,0.015423893,0.000534491,-0.075286925
28.9718676,0.746560693,3.688536167,8.825327873,-0.086129464,-0.04497363,-0.089794546
28.99197734,0.814756095,3.721437454,9.384052277,-0.116519116,-0.027564483,-0.181879774