Time (s),Acceleration x (m/s^2),Acceleration y (m/s^2),Acceleration z (m/s^2),Gyroscope x (rad/s),Gyroscope y (rad/s),Gyroscope z (rad/s)
4.80281094,0.589830756,4.904688358,8.452646255,-0.179436386,0.154009864,0.018019995
4.82292068,0.260219455,4.875974178,9.506086349,-0.251821786,0.142098337,-0.000152712
4.843030419,0.253040999,4.844269276,10.85384369,-0.209062472,0.132630214,0.045660831
4.863140159,0.226719946,5.123033047,11.33659554,0.005344913,0.175236806,0.098193698
4.883249898,0.103489578,5.69611454,10.40578747,0.276561111,0.193104088,0.11942064
4.903359638,0.069391854,6.16869688,8.908478737,0.361468852,0.100255303,0.098499119
4.923469377,0.36011982,6.098706722,8.542376518,0.176992998,-0.052456509,0.053601846
4.943579117,0.77108711,5.395216942,9.811769485,-0.051158458,-0.071850911,-0.014813046
4.963688857,0.54317075,4.838885784,11.05125141,-0.070400149,0.115068354,-0.063833542
4.983798596,-0.174077854,4.639084816,11.21755219,0.089030989,0.298475236,-0.040774055
5.003908336,-1.356730461,5.338985443,10.56490993,0.241131961,0.385368258,0.035581853
5.024018075,-1.796411633,5.626124382,10.31605625,0.182032481,0.021761434,0.132859275
5.044127815,-0.598803878,4.149752617,11.8223381,-0.092543356,-0.492877394,0.206466377
5.064237555,1.458425403,2.036890268,14.94377518,-0.275797546,-0.74836427,0.204633832
5.084347294,2.011765718,1.120439172,16.3017025,-0.089947261,-0.278317273,0.009162709
5.104457034,0.184247345,1.060020447,14.47059536,0.262969732,0.346579462,-0.210284174
5.124566721,-1.790429592,1.07497561,11.46820068,0.40529716,0.641771376,-0.216698065
5.144676513,-2.657229662,0.857826889,9.903892517,0.220515862,0.460960627,0.017409148
5.1647862,-1.923829436,1.174875975,10.2783699,0.035734564,0.08101362,0.333369881
5.18489594,-0.836889744,1.92203474,10.10429192,0.173480615,-0.137058854,0.470199674
5.20500568,-0.129810631,2.264806747,8.452047348,0.368646324,-0.238459498,0.427898496
5.225115419,0.319441825,2.199003935,6.790830612,0.346808523,-0.267322034,0.305118203
5.245225159,0.384646237,1.954936147,5.839683533,0.150421143,-0.127743438,0.153017238
5.265334898,0.016151553,1.602592945,5.964110374,-0.123238437,0.131713942,0.043370154
5.285444638,-0.518046081,1.432702541,7.092326164,-0.24800399,0.364294022,0.041232191
5.305554377,-0.892522872,1.578066587,7.657630444,-0.053754561,0.408427745,0.121405892
5.325664117,-1.016351461,1.945963025,7.047461033,0.276408374,0.234794408,0.237161443
5.345773857,-0.620937467,2.499303341,6.063412666,0.468214423,-0.045126341,0.338714808
5.365883596,-0.003589234,3.080160856,5.671587944,0.436755776,-0.23158747,0.335965991
5.385993336,0.372682124,3.303889751,6.20817852,0.260220945,-0.274652213,0.245713309
5.406103075,0.367896467,3.580260992,7.351947784,0.094986752,-0.171724439,0.164623335
5.426212815,0.060418773,4.180859566,8.353941917,0.073148958,-0.013973131,0.120031484
5.446322555,0.081954174,4.762315273,8.199007034,0.180810794,0.024662958,0.095903017
5.466432294,0.288335115,5.049454212,7.61755085,0.164317906,-0.136753425,0.029778805
5.486542034,0.621535659,5.152345181,8.09671402,-0.037108973,-0.311913878,-0.051922016
5.506651773,0.728016317,5.244469166,9.333803177,-0.256403148,-0.293741167,-0.156376898
5.526761513,0.555134833,4.999204636,10.55234814,-0.339478374,-0.095063105,-0.238993987
5.546871252,0.33499518,4.415356159,11.36650562,-0.266482115,0.003130592,-0.250294656
5.566980992,0.733998358,3.762115479,11.65424252,-0.054518119,-0.091398023,-0.172411636
5.587090732,1.777269006,2.881556749,11.54178047,0.208451629,-0.205626458,-0.106898271
5.607200471,1.897508383,2.557329178,11.45384407,0.48501271,-0.100560732,-0.126139954
5.627310211,0.802193821,3.623331785,10.39980507,0.721868753,0.114915639,-0.166303173
5.64741995,-0.016749758,3.848257065,10.0205431,0.498756796,0.089260057,-0.213338405
5.66752969,0.488734037,2.559721947,12.03171062,0.072996244,-0.248538479,-0.239604831
5.68763943,1.180259824,1.115653515,14.48854065,-0.201121464,-0.56495738,-0.369409889
5.707749169,1.744367719,-0.651445985,16.552948,-0.272896022,-0.653835654,-0.508530319
5.727858909,1.058824062,-0.92303133,17.19063568,-0.044133715,-0.530444503,-0.578472376
5.747968648,-0.273978204,0.514456868,13.61516094,0.414765298,-0.040544987,-0.501047492
5.768078388,-1.043868899,2.053041935,9.061020851,0.376587331,0.274652213,-0.346503109
5.788188127,-0.212363005,2.635095835,7.228717327,-0.150115714,0.238764927,-0.154238939
5.808297867,1.301695466,2.910270452,8.029714584,-0.640015245,0.202877641,-0.128736064
5.828407607,1.7670995,3.050848961,9.367302895,-0.734085679,0.369028091,-0.304354638
5.848517346,0.95952189,2.928216696,8.901898384,-0.420873761,0.550755143,-0.492495596
5.868627086,0.034097724,2.877369165,7.442276478,-0.05207473,0.456379265,-0.539988995
5.888736825,-0.469591439,2.793022156,5.691926956,0.200510606,0.242735431,-0.472795785
5.908846565,-0.565902531,2.843271494,4.740181446,0.174855024,0.003283304,-0.35841462
5.928956305,-0.294915378,3.065804005,5.402395248,0.055892523,0.013820419,-0.257624835
5.949066044,-0.176470667,3.211168051,5.850451469,0.10460759,0.120871402,-0.244644329
5.969175836,-0.424127817,3.278167009,5.767899036,0.17790927,0.151413769,-0.259762794
5.989285523,-0.678365231,3.407379389,6.109474182,0.204328403,0.073683448,-0.232580096
6.009395263,-0.722034216,3.683750391,6.637690067,0.198525354,-0.101477005,-0.192722306
6.029505002,-0.782453001,3.98165679,7.762316704,0.120031484,-0.225478992,-0.153780803
6.049614794,-0.712462962,4.40937376,9.446265221,0.092390649,-0.196463749,-0.087503873
6.069724482,-0.693918586,5.058426857,9.98943615,0.2506001,-0.042377528,-0.04871507
6.089834273,-0.695713162,5.59142828,9.06700325,0.358109206,0.080402769,-0.042301174
6.109943961,-0.62751776,5.867201328,8.355138779,0.209520608,0.043904647,-0.071621843
6.130053752,-0.542572558,5.829514027,9.453444481,-0.10521844,-0.094146833,-0.113159455
6.150163492,-0.428315252,5.246861935,11.28395367,-0.295344651,-0.164546982,-0.123085722
6.170273232,-0.316450805,4.773681164,12.95175076,-0.269994497,-0.099949881,-0.064138964
6.190382971,-0.680159807,5.139184952,12.62034512,-0.07345438,0.131255806,0.012522369
6.210492711,-1.220339537,5.272584915,11.3635149,-0.116213694,0.140418515,0.037108973
6.23060245,-0.346361071,3.585644722,13.49910927,-0.459357142,-0.221813917,0.119267926
6.25071219,0.669392109,2.350948334,16.1754818,-0.375518352,-0.300918639,0.197456375
6.27082193,0.277567416,2.36111784,14.90190125,0.154544354,0.024815669,0.175160453
6.290931669,-0.297308207,2.027917147,11.68774223,0.410794795,0.102240562,0.128583342
6.311041409,-0.497707099,1.467398524,10.28315544,0.262206197,0.007864659,0.123543859
6.331151148,-1.286740422,1.414158225,10.37946606,0.111021489,-0.031229567,0.144007236
6.351260888,-1.823330879,1.651047587,10.21854877,0.168288425,-0.085747682,0.274270415
6.371370627,-1.627119422,2.007578135,8.924630165,0.29641363,-0.241208315,0.431258172
6.391480367,-0.602991283,2.062014818,7.736593723,0.224180937,-0.369028091,0.512195408
6.411590107,0.404387027,1.908276081,7.837690353,0.002596101,-0.238764927,0.456455618
6.431699846,0.505483806,1.803590059,8.169694901,-0.077730313,0.092467003,0.310157687
6.451809586,-0.213559419,1.845464468,7.524828911,0.051769305,0.351008117,0.194554851
6.471919325,-0.79621172,1.932204247,6.386443615,0.24326992,0.386895388,0.186613843
6.492029065,-1.171286702,2.228316069,5.110470772,0.395523608,0.231892884,0.238688573
6.512138805,-1.268195987,2.626122952,4.283750534,0.380863279,-0.06345176,0.324512601
6.532248544,-0.731007338,2.963510752,4.847260475,0.218377888,-0.266863883,0.407282412
6.552358284,-0.178863496,3.26440835,5.867799282,0.104760304,-0.271292538,0.407435119
6.572468023,0.07537391,3.605385542,6.760322094,0.0361927,-0.136600718,0.337187678
6.592577763,-0.037088752,3.846462488,7.721040249,-0.038177952,-0.030771431,0.239604831
6.612687502,-0.203988135,4.046263218,8.821739197,-0.069636591,0.013973131,0.198525354
6.632797242,-0.085543409,4.214358807,9.501898766,-0.015882028,-0.025121093,0.191806033
6.652907034,0.238085851,4.451248169,9.724431038,0.037872531,-0.026037365,0.183712319
6.673016773,0.398404956,4.958526611,9.468997002,0.087351158,0.09796463,0.151031986
6.693126513,-0.057427742,5.508277893,8.538188934,0.083838783,0.08819107,0.058946762
6.713236252,-0.367298275,5.589633465,8.507680893,-0.099568106,-0.127285302,0.008093726
6.733345992,0.022133609,5.013561726,10.01336479,-0.310921252,-0.355131328,0.029626092
6.753455732,1.085743308,4.097708702,11.63450146,-0.365439385,-0.446300268,0.106745556
6.773565471,2.185245275,3.848257065,12.55872917,-0.203412131,-0.145152584,0.159125716
6.793675211,1.202991605,5.143372059,10.82692432,0.058183201,0.405373514,0.027029991
6.81378495,0.612562597,4.28315258,9.449854851,-0.116824538,0.349480987,-0.074523367
6.83389469,1.819143414,1.956730723,11.76012516,-0.573738277,-0.033214819,-0.0645971
6.85400443,1.871187329,1.652842283,14.95334721,-0.668266892,0.039476004,-0.113770299
6.874114169,1.085145116,1.640878081,15.94816303,-0.255486876,0.152024612,-0.12583454
6.894223909,1.081555843,1.673181176,14.02552986,0.316113442,-0.169281051,-0.019699825
6.914333648,1.940579176,2.253440619,11.15773201,0.481042206,-0.520823658,0.012980504
6.934443388,2.444268227,2.477767944,10.13599682,0.119115219,-0.388575226,-0.113464877
6.954553127,2.118246317,2.530410051,10.28315544,-0.208451629,0.088496499,-0.257013977
6.974662867,1.304686546,2.863012314,9.602396965,-0.229067728,0.397585213,-0.359178186
6.994772659,0.97088778,2.799004316,8.19481945,-0.118809789,0.442635208,-0.398577839
7.014882346,0.825523794,2.716451883,6.848856449,-0.01343864,0.299238801,-0.456150204
7.034992138,0.606580555,2.553141832,5.858228207,0.033902023,0.096437514,-0.538003743
7.055101877,0.161515534,2.398804665,5.623133183,0.008551862,0.039170582,-0.586718798
7.075211617,-0.393619329,2.481357098,5.61715126,0.054976255,0.134615466,-0.561826766
7.095321357,-0.745364249,2.659622431,5.263013363,0.155460626,0.210818663,-0.476002723
7.115431096,-0.757926583,2.938984394,4.865206718,0.228151456,0.208833411,-0.361621589
7.135540836,-0.588634372,3.171088219,4.731208801,0.224944502,0.055663455,-0.284349412
7.155650575,-0.248853549,3.207578659,5.395216942,0.127514362,-0.099797174,-0.24876754
7.175760315,-0.007776673,3.21356082,6.377470493,0.027335415,-0.117969878,-0.234565347
7.195870055,0.142971158,3.26979208,7.412964344,-0.076814041,-0.056732439,-0.214560106
7.215979794,0.223130718,3.598206997,8.58006382,-0.145839781,0.097506493,-0.18126893
7.236089534,-0.294915378,4.393820763,8.965308189,-0.095444888,0.259839147,-0.156376898
7.256199273,-0.736989379,4.914857864,8.292924881,-0.055128966,0.248080343,-0.105829291
7.276309013,-0.628714144,5.086542606,7.966304779,-0.180505365,0.042377528,-0.035581853
7.296418752,-0.272781789,5.393422127,8.907281876,-0.416597843,-0.159202069,0.017409148
7.316528492,0.020937199,5.596213818,10.08156013,-0.590536594,-0.208833411,0.014049487
7.336638284,0.05383851,5.326423168,11.36710358,-0.739736021,-0.127896145,-0.024128467
7.356748023,-0.270388961,4.750949383,13.4159584,-0.806012929,-0.014125843,-0.022448637
7.376857763,-0.702293456,4.433900356,14.52503204,-0.582137466,0.1622563,0.076203197
7.396967502,-1.588235974,4.98903513,13.17009544,-0.249531105,0.33573693,0.187071979
7.417077242,-1.441675663,4.609772682,12.27637672,-0.2583884,0.229754925,0.332759053
7.437186982,-0.071784683,3.392424345,13.50209999,-0.384375632,0.103614964,0.410794795
7.457296721,-0.670588553,3.75673151,14.14756393,-0.244033486,0.205015615,0.288014472
7.477406461,-1.749153376,3.248854876,14.0620203,-0.045202699,0.009849912,0.16279079
7.4975162,-1.256231904,1.358525038,15.08016682,0.074370652,-0.633983076,0.217767045
7.51762594,0.23629123,0.381056994,16.16112328,0.254570603,-0.897105575,0.354291409
7.53773568,0.567697167,0.620339274,14.08176136,0.702168942,-0.261671692,0.39643988
7.557845419,-0.010767702,1.397408366,9.638887405,0.961320877,0.2836622,0.368799031
7.577955159,-0.103489578,1.724028707,6.398407936,0.820978701,0.450270772,0.375823766
7.59806495,-0.032901313,1.747956991,4.79521656,0.526397646,0.338333011,0.333828032
7.61817469,-0.10767702,1.835893154,4.625326157,0.226166204,0.177527487,0.276255667
7.63828443,-0.114855483,1.865205288,5.367101192,0.084296919,0.09155073,0.234107211
7.658394169,-0.047258247,1.675574064,5.95214653,0.139884025,-0.049860407,0.208757058
7.678503909,0.350548506,1.52542448,6.463014126,0.180963501,-0.216774419,0.241284668
7.698613648,0.798006356,1.767697692,7.419544697,0.214712814,-0.206390023,0.280837029
7.718723388,0.91166544,2.294118643,7.237690449,0.422859013,0.009391776,0.206160948
7.738833127,0.137587309,2.769692183,5.431109428,0.623522341,0.189897135,0.076355904
7.758942867,-0.456430912,3.03888464,3.828516245,0.57877779,0.067574978,0.055434387
7.779052607,-0.496510685,3.397209883,3.474378586,0.290457875,-0.23235102,0.084296919
7.799162346,-0.19262223,3.830909014,4.896911621,-0.075439639,-0.36704284,0.107050985
7.819272086,-0.153140649,4.360321045,6.479165554,-0.290305167,-0.350244552,0.095292173
7.839381825,-0.178863496,4.959125042,7.807780266,-0.431410879,-0.308554232,0.09743014
7.859491617,-0.003589234,5.389832973,8.829515457,-0.517234922,-0.208986118,0.088267431
7.879601305,0.163908348,5.289334297,9.31525898,-0.594507098,-0.141334787,0.041690327
7.899711096,0.529412031,4.691128731,10.3728857,-0.755312622,-0.160729185,0.007788302
7.919820836,0.748953462,3.961916208,12.80219936,-0.8762604,-0.291603208,0.030542362
7.939930575,0.695713162,4.040280819,14.97129345,-0.600920975,-0.205015615,0.160805538
7.960040315,0.981655479,5.288736343,13.24128246,-0.05971032,-0.011071607,0.239452124
7.980150055,4.719842434,3.389433384,12.87996578,-0.146756053,-0.211429507,0.075286925
8.000259794,5.71824789,1.588834286,16.25863075,-0.493564576,-0.082082599,-0.456913739
8.020369534,1.94177556,1.758126378,19.46321869,-0.375518352,0.242124587,-0.860683799
8.040479273,-0.542572558,1.487737536,20.17329025,0.345281422,-0.168212071,-0.653606594
8.060589013,0.430109859,1.21854496,16.61815262,1.223068953,-0.915430963,-0.173175201
8.080698805,2.150549412,1.701296926,11.32881927,1.429153562,-1.093034863,-0.016951011
8.100808544,1.648056626,2.077568293,8.050053596,0.853964448,-0.617948353,-0.165234178
8.120918284,0.319441825,2.194218397,7.384849072,0.198372647,-0.03397838,-0.213796541
8.141028023,0.071186475,2.033899307,7.469195843,-0.105829291,0.260908127,-0.166914016
8.161137763,0.377467781,1.693520188,7.400402069,-0.081700824,0.318480492,-0.162943512
8.181247502,0.765105069,1.599601984,6.753741741,0.113617592,0.254188806,-0.229373142
8.201357242,0.670588553,1.836491346,5.680561066,0.267398387,0.207917139,-0.37872529
8.221466982,0.048454657,1.993819475,4.87417984,0.278546363,0.288090825,-0.505934238
8.241576721,-0.669990361,2.09072876,4.302893162,0.224180937,0.455768406,-0.527161181
8.261686461,-1.242473125,2.408974171,3.854837179,0.153475374,0.582366526,-0.438588321
8.2817962,-1.524826288,2.803191662,3.882952929,0.023975754,0.497458726,-0.281753302
8.301905992,-1.341775298,3.098705292,4.725824833,-0.106745556,0.302598447,-0.074217945
8.322015732,-0.547956407,3.279961586,5.776273727,-0.160652831,0.142556474,0.118657082
8.342125471,0.470787853,3.563511133,6.82133913,-0.176534861,0.0432938,0.195318416
8.362235211,1.097109199,3.975674868,7.705487251,-0.132248431,0.015347538,0.140342161
8.38234495,0.913460016,4.442275047,8.088936806,-0.050089475,0.022066858,0.012216945
8.40245469,0.205782741,4.864010334,7.917850018,-0.01007898,0.073988877,-0.067193195
8.42256443,-0.145363972,5.173282623,7.765307903,-0.119878776,0.124841906,-0.051769305
8.442674169,-0.201595306,5.443671703,8.758927345,-0.35062632,0.148664951,0.001985254
8.462783909,0.061016977,5.523232937,10.52423191,-0.473406613,0.101782426,0.052227441
8.482893648,0.723828852,5.352744102,12.2099762,-0.42041564,0.009849912,0.083533362
8.50300344,1.098903775,5.123033047,13.19103336,-0.255944997,0.072461754,0.054365408
8.52311318,-0.61615181,5.99940443,12.44925785,-0.095903017,0.323061854,-0.048409645
8.543222919,-1.962114573,6.166902065,11.62612724,-0.292901248,0.174931377,-0.017867282
8.563332659,0.792622507,2.591426849,15.46421432,-0.839456856,-0.633983076,0.217156202
8.583442398,3.371487141,0.829113066,19.57628059,-0.756687045,-0.871755421,0.331995487
8.603552138,2.887538671,2.119442701,17.42333794,0.153169945,-0.077959381,0.136066228
8.623661877,0.690927565,2.724228621,11.57228851,0.572974742,0.219217807,-0.249378398
8.643771617,-0.023330022,1.661815286,9.987641335,0.049325917,-0.104683951,-0.336271405
8.663881357,0.333798766,1.003190875,12.18664551,-0.441184431,-0.348412007,-0.295955509
8.683991148,-0.038883369,0.949352384,12.99123192,-0.286181927,-0.241055593,-0.290457875
8.704100888,-0.6867401,0.943968535,10.88495064,0.16279079,-0.010002624,-0.207993493
8.724210627,-1.108475089,1.202991605,8.346165657,0.434006989,0.061008371,-0.082617089
8.744320367,-1.063609719,1.332802176,6.288936138,0.514638841,0.113235809,0.028862532
8.764430107,-1.022931695,1.483550072,4.956732273,0.424233407,0.125758186,0.093917765
8.784539846,-1.289133191,1.858026743,4.661218643,0.255486876,0.093383275,0.136677072
8.804649586,-1.47756803,2.249253273,5.01475811,0.148894012,0.002214321,0.190737054
8.824759325,-1.37587297,2.486740828,5.575874805,0.15057385,-0.082235314,0.268772781
8.844869065,-1.000199914,2.679363251,5.914459229,0.240673825,-0.104836658,0.338562101
8.864978857,-0.589830756,2.955734253,5.784050465,0.318098724,-0.094910391,0.340089202
8.885088596,-0.657428026,3.375674486,5.534000397,0.286181927,0.003588728,0.285112947
8.905198336,-1.150349498,3.81595397,5.848656654,0.149352148,0.041919392,0.237008736
8.925308075,-1.415354609,3.991228104,6.926623344,0.017256435,-0.033214819,0.2583884
8.945417815,-1.481157184,4.348356724,8.312665939,0.001221695,-0.120107845,0.345128715
8.965527555,-1.21555388,4.725226402,8.962915421,0.095292173,-0.136295289,0.461647809
8.985637294,-0.373878539,4.870590687,9.192625999,0.094986752,-0.019318044,0.563812017
9.005747034,0.566500783,4.998606682,9.699904442,-0.008399149,0.172487989,0.555412889
9.025856773,0.673579574,5.271986485,10.44646549,-0.081700824,0.324588954,0.421942741
9.045966513,0.172881439,5.395814896,10.64148045,-0.05803049,0.341234565,0.293970257
9.066076305,-0.184845552,5.167898655,10.59003448,-0.032069482,0.150650203,0.269689053
9.086186044,0.308075905,4.235296249,10.98126125,-0.074370652,-0.182566971,0.341310918
9.106295784,1.707278967,3.120838881,12.49950695,-0.160347402,-0.345052332,0.424844265
9.126405523,1.725225091,3.661616802,13.85683632,-0.028098974,-0.0898709,0.402242929
9.146515263,1.313659668,4.189832687,12.48275757,0.274728566,0.221355781,0.382848531
9.166625002,2.067996979,3.519243956,10.43270683,0.22295925,0.365515739,0.309394151
9.186734742,2.282752752,3.007179976,10.05344391,-0.154086217,0.431792647,0.09101624
9.206844482,1.74735868,2.297109842,11.30369377,-0.482722044,0.397890627,-0.186461121
9.226954221,0.639481843,1.384247899,12.64008522,-0.47355935,0.135684446,-0.366355658
9.247064013,-0.064606212,0.888335407,12.91884899,-0.199899763,-0.269459993,-0.305423617
9.267173752,0.020937199,1.200598717,11.84148121,0.10521844,-0.518838406,-0.118198946
9.287283492,0.64725852,1.790429592,10.19940662,0.191347897,-0.414078087,0.035276428
9.307393232,1.564906001,2.14995122,8.903693199,0.08765658,-0.021303298,0.042606596
9.327502971,1.866401672,2.329412937,7.864609718,0.003817795,0.412550956,-0.100484371
9.347612711,1.630110383,2.324028969,6.79561615,0.037414394,0.552282274,-0.287709057
9.36772245,1.217348576,1.948355794,6.183651924,0.023059484,0.250371009,-0.447140187
9.38783219,0.644267499,1.946561217,6.611967087,0.005803049,0.013209572,-0.485776275
9.40794193,0.091525465,2.39760828,6.265605927,0.161416382,0.113541231,-0.441031724
9.428051721,-0.401994199,2.860619545,4.795814991,0.275950253,0.369028091,-0.359636337
9.448161461,-0.472582459,3.21954298,3.400799274,0.147061482,0.509828389,-0.245713309
9.4682712,-0.28414768,3.665804386,3.278167009,-0.217767045,0.362461478,-0.168899268
9.48838094,0.285344094,3.680161238,5.522634506,-0.628256381,-0.000992627,-0.137440637
9.50849068,0.861416161,3.59043026,8.559724808,-0.697282136,-0.211124077,-0.156224191
9.528600419,0.836291492,3.874577999,10.15513897,-0.360399872,-0.133546487,-0.236856028
9.548710159,-0.311665148,4.292723656,9.228518486,0.073148958,0.155689701,-0.304507345
9.56881995,-1.610967875,4.674977303,7.701898098,0.178978249,0.159202069,-0.214407384
9.58892969,-1.524227977,5.222933769,8.157132149,-0.025350161,-0.137822419,0.041384902
9.60903943,-0.491126835,5.849255085,9.562915802,-0.17790927,-0.344746918,0.23624517
9.629149169,0.922433138,6.171089649,10.69591713,-0.257319421,-0.403388262,0.237772301
9.649258909,1.939382792,5.75772953,11.80678558,-0.368188173,-0.24823305,-0.006872032
9.669368648,1.236491084,4.732405186,13.2837553,-0.481805772,0.01565296,-0.335813284
9.689478388,-0.269192547,3.753740549,15.10708618,-0.442253411,0.17844376,-0.397203416
9.709588127,-1.645663738,4.168296814,14.83131313,-0.060932014,0.388269782,-0.156071469
9.729697867,-1.371087432,4.256233215,13.06241894,0.18310146,0.285342038,0.105676577
9.749807607,0.044267219,2.985046148,13.2520504,0.100637086,0.007406523,0.193638578
9.769917398,0.008374879,2.613560438,13.68455315,0.194096714,-0.020234315,0.087045737
9.790027138,-1.441675663,2.671586514,12.04307652,0.35841462,-0.020997874,-0.118198946
9.810136877,-2.340778828,1.654038668,11.42931747,0.108272679,-0.163783416,-0.182796046
9.830246617,-2.06261301,0.555134833,13.17069435,-0.262817025,-0.287021846,-0.008246438
9.850356357,-0.97926265,0.32362926,14.63091373,-0.272285163,-0.135073602,0.26571855
9.870466096,-0.045463629,0.78783685,13.54397392,0.126445383,0.232656449,0.448361874
9.890575836,0.285344094,1.344766378,10.40758228,0.513569832,0.462945879,0.417972237
9.910685575,0.028115666,1.564906001,7.662416458,0.654675543,0.497611463,0.284502119
9.930795367,-0.392422915,1.564906001,5.767300606,0.671779275,0.421866387,0.157445878
9.950905107,-1.05224371,1.467398524,4.3986063,0.636044681,0.303820163,0.078341164
9.971014846,-1.676172256,1.365703583,3.685544968,0.52410692,0.16332528,0.103385896
9.991124586,-1.959123492,1.347159147,3.818944931,0.379641563,0.044210069,0.235176191
10.01123432,-1.706082582,1.625923038,4.59242487,0.305729061,-0.024815669,0.417972237
10.03134406,-1.071984529,2.229512453,5.136193752,0.322680056,-0.079028361,0.537851036
10.05145381,-0.507278383,2.91266346,5.379065514,0.327872276,-0.120413266,0.548846245
10.07156354,-0.288933337,3.492324591,5.843871117,0.227998734,-0.164852411,0.478446126
10.09167334,-0.233300209,4.009772778,6.903293133,0.094681323,-0.138738677,0.398883253
10.11178308,-0.173479646,4.621138573,8.059026718,0.036345411,-0.061771929,0.330162942
10.13189282,-0.054436713,5.121238708,8.713463783,0.06123744,0.061008371,0.255639583
10.15200256,-0.117248312,5.422734261,8.631509781,0.067193195,0.191271544,0.185086712
10.17211229,-0.53479588,5.902495384,8.407780647,-0.032222193,0.235099837,0.124918267
10.19222203,-0.996610642,6.111268997,8.9479599,-0.190737054,0.06681142,0.102316916
10.21233177,-0.626321316,5.603990555,10.02532864,-0.283585846,-0.214331031,0.147672325
10.23244151,0.291326165,4.968696117,10.97408295,-0.309394151,-0.418354005,0.180963501
10.25255125,1.251446247,4.191029072,11.95573807,-0.324207187,-0.367348284,0.156987742
10.27266104,1.296909928,3.693321705,12.78604794,-0.239604831,-0.017943637,0.089794546
10.29277078,0.270987153,4.18205595,11.69731331,0.033902023,0.361239791,0.08490777
10.31288052,0.292522579,3.763910055,9.776474953,0.050547611,0.391629458,0.121711314
10.33299026,1.521237016,1.986641049,10.00917721,-0.345281422,0.193409517,0.109799795
10.3531,2.813361168,0.687338293,12.1352005,-0.742179394,0.230671197,0.014354911
10.37320974,2.677568436,0.205184549,13.89392471,-0.785549581,0.379107088,-0.186308414
10.39331948,1.929811478,-0.154337063,13.96690559,-0.523343384,0.179054603,-0.356429368
10.41342922,0.890130043,0.173479646,13.02832127,-0.275033981,-0.184246808,-0.428662062
10.43353896,0.172881439,0.941575706,12.05504036,-0.17790927,-0.425836891,-0.3875826
10.45364875,0.211764798,1.351346612,11.23131084,-0.204022989,-0.567095339,-0.310615838
10.47375849,1.185045362,1.31425786,11.27378368,-0.286334664,-0.642993093,-0.268925518
10.49386823,1.93340075,1.354337573,11.0943222,-0.222501114,-0.478980601,-0.347724795
10.51397797,1.401595831,1.780858278,9.895518303,-0.004123219,-0.110028863,-0.504559815
10.53408771,0.525224567,2.23130703,8.235497475,0.268467367,0.100866154,-0.590994716
10.55419745,-0.138185501,2.408974171,6.106483459,0.541974247,0.140723944,-0.592216432
10.57430719,-0.497108907,2.603989124,3.960719585,0.608098447,-0.004046863,-0.548846245
10.59441693,-0.509671211,2.87856555,2.858226538,0.388040721,-0.109723441,-0.492953748
10.61452672,-0.44745782,3.119642496,3.007179976,0.040621344,-0.1040731,-0.468519837
10.63463646,-0.459421933,3.399004459,4.393820763,-0.231358394,0.017638214,-0.461189687
10.6547462,-0.624526739,3.675375462,5.366502762,-0.265871257,0.144083604,-0.46210596
10.67485594,-0.86380899,3.992424488,6.031109333,-0.256097704,0.109265305,-0.45065257
10.69496568,-0.917647481,4.135395527,6.791429043,-0.277324647,-0.055968881,-0.417055965
10.71507542,-0.981655479,4.301098824,8.416155815,-0.367119193,-0.282287777,-0.361774296
10.73518516,-0.696909607,4.430311203,10.18265629,-0.322680056,-0.285800159,-0.280837029
10.7552949,-0.601794899,4.494917393,10.86461163,-0.146450624,-0.104225814,-0.241590098
10.77540464,-0.9314062,4.657031059,10.73420238,-0.003054236,0.146068856,-0.204175696
10.79551443,-1.4267205,4.922036171,10.25264645,0.02107423,0.350397259,-0.139884025
10.81562417,-1.794616938,5.120640278,10.37228775,-0.065818794,0.363072336,-0.044591852
10.83573391,-1.722832322,5.038686275,11.21994495,-0.172258928,0.218912393,0.062000997
10.85584365,-1.428515077,4.796412945,12.53181076,-0.24693501,0.093383275,0.176229432
10.87595339,-1.062413216,4.517649174,13.99980736,-0.172258928,0.139502242,0.291679561
10.89606313,-1.558325768,5.135595798,13.57807255,0.112548605,0.431487232,0.383764803
10.91617287,-2.223530531,5.460421085,12.12203979,0.196998239,0.510591924,0.458593577
10.93628261,-1.034297585,4.145565033,13.26162148,-0.021379653,0.221966624,0.597561359
10.9563924,-0.306281298,3.256631613,15.25125313,0.048409645,0.170044601,0.652384877
10.97650214,-0.685543716,3.134597778,14.78166199,0.490815759,0.170808166,0.636502862
10.99661188,-0.976869822,2.623729944,12.85902882,0.810288906,-0.167295799,0.65589726
11.01672162,0.016151553,1.894517303,12.6053896,0.746302664,-0.649712443,0.73713994
11.03683136,1.135992527,1.604387641,13.10309696,0.673306406,-0.682850897,0.766155183
11.0569411,1.500299811,1.877169371,11.48375416,0.813648522,-0.240902886,0.716981947
11.07705084,1.457229018,2.332403898,8.648857117,0.858087659,0.135073602,0.589162171
11.09716058,1.485942841,2.208575249,6.453442574,0.71682924,0.302903891,0.418888509
11.11727032,1.292124271,1.948953986,5.201996326,0.543043196,0.343677938,0.221432135
11.13738006,0.754935563,1.773679733,4.427320004,0.412932754,0.302751184,0.033443887
11.15748985,-0.060418773,1.643869162,4.198207378,0.284196675,0.159660205,-0.079104722
11.17759959,-0.662811875,1.600200176,4.457828522,0.21517095,-0.006032117,-0.056961507
11.19770932,-0.736989379,1.651047587,4.91067028,0.200663328,-0.193409517,0.052990999
11.21781906,-0.273978204,1.972284079,5.555535793,0.208604336,-0.284425765,0.186613843
11.23792881,0.252442777,2.528615236,5.920441628,0.288472623,-0.238764927,0.25579229
11.25803854,0.503090978,3.192025423,5.414957523,0.405449867,-0.140876651,0.214407384
11.27814828,0.286540508,3.742972851,4.456034184,0.3875826,-0.143625468,0.097582847
11.29825808,-0.121435747,4.421338081,4.535595417,0.158972994,-0.260144562,0.020463383
11.31836782,-0.302093864,5.096712112,5.64227581,-0.085518613,-0.359101832,-0.015423893
11.33847756,-0.487537623,5.556134224,6.704689026,-0.22402823,-0.358490974,-0.055587102
11.35858729,-0.661017239,5.827121258,7.215556622,-0.286640078,-0.268391013,-0.063986249
11.37869703,-0.458225548,5.870790482,7.141379356,-0.377809018,-0.196921885,-0.050853033
11.39880677,-0.089730851,5.788238049,7.277770042,-0.587024212,-0.214483738,-0.069942012
11.41891651,-0.023330022,5.40060091,8.455039024,-0.910315156,-0.346274048,-0.096666582
11.43902625,0.148953214,4.733003139,10.77607632,-1.148392797,-0.414688945,-0.024892027
11.45913599,0.290727943,4.743771076,12.86022568,-1.096165419,-0.324130833,0.15500249
11.47924578,2.038086653,3.964907169,12.97986603,-0.903443098,-0.19951798,0.306798041
11.49935552,4.173680782,2.445464849,12.83091354,-1.008661509,0.026342789,0.109952509
11.51946526,3.487539053,1.715653777,14.81875038,-1.345238328,0.390102327,-0.38239038
11.539575,0.157328084,1.989033818,17.99941063,-1.335922956,0.489212304,-0.696365893
11.55968474,-1.256830096,1.000798106,20.02792549,-0.796850264,-0.192493245,-0.445613086
11.57979448,0.704686284,0.008374879,18.82971954,0.072690822,-0.921386719,0.083533362
11.59990422,2.613560438,0.440877587,14.62911987,0.639251649,-0.82960695,0.345281422
11.62001396,3.053839922,1.544566989,10.82273674,0.560452342,-0.1906607,0.241742805
11.6401237,2.395813704,2.002194405,8.590831757,0.143396393,0.413619936,-0.01099525
11.66023349,1.646860242,1.986042738,8.087740898,-0.296108216,0.706979334,-0.21150586
11.68034323,1.174277663,1.782652855,8.765507698,-0.458593577,0.744088292,-0.334897012
11.70045297,0.557527661,1.66600275,9.000003815,-0.192722306,0.61810106,-0.39750886
11.72056271,0.038883369,1.621735573,8.062616348,0.275186688,0.348412007,-0.357040227
11.74067245,0.016151553,1.751546144,6.172286034,0.64337486,0.197074592,-0.244186193
11.76078219,0.232702002,2.033301115,4.285545349,0.709651828,0.207917139,-0.177145705
11.78089193,0.494716078,2.266601324,3.245863914,0.46729815,0.365668446,-0.181574345
11.80100167,0.479162723,2.581257343,3.600599766,0.096819289,0.548464477,-0.231969252
11.82111141,-0.104685992,2.934797049,5.20618391,-0.132401139,0.575799882,-0.282211423
11.8412212,-0.583250523,3.073580742,6.856633186,-0.060779303,0.377885371,-0.236092463
11.86133094,-0.821934581,3.468994617,7.760521889,0.227082461,0.044515494,-0.121711314
11.88144068,-0.781854808,4.059423447,7.526025295,0.507461369,-0.229754925,-0.004275931
11.90155042,-0.394217521,4.548157692,7.178467751,0.535254896,-0.366126567,0.07513421
11.92166016,0.02632105,4.898705959,7.590033531,0.349862754,-0.301529467,0.096513867
11.9417699,0.217746854,5.247459888,8.771489143,0.105829291,-0.103156827,0.071316421
11.96187964,0.020338992,5.492125988,9.882955551,-0.029167956,0.161034614,0.022295926
11.98198938,-0.401994199,5.363512039,10.46560764,-0.069331162,0.282745928,-0.002748813
12.00209917,-0.421136797,4.867599487,11.19900799,-0.101247937,0.256479502,0.0503949
12.02220891,-0.277567416,4.444668293,12.20219898,-0.049325917,0.244262546,0.146450624
12.04231865,-0.83868432,5.276772022,11.69192982,0.090252683,0.367195547,0.203106716
12.06242839,-0.873978496,5.00040102,11.45743275,-0.046577103,0.343677938,0.203564853
12.08253813,-0.457029134,3.323630571,13.73599815,-0.230136707,0.162103593,0.204481125
12.10264787,-1.336989641,3.670589924,14.48315716,0.039094225,0.192035109,0.234718055
12.12275761,-2.184647083,4.122235298,12.87817192,0.317029715,-0.035200074,0.246782288
12.14286735,-1.289133191,2.76909399,12.9320097,0.114992,-0.722403228,0.30786702
12.16297709,0.573081017,1.298106313,15.10529137,-0.251210928,-1.049206495,0.336271405
12.18308682,1.063609719,0.818345368,16.58106422,-0.228915006,-0.564499199,0.240979239
12.20319656,-0.077168532,1.110867858,14.77986717,0.185239434,0.32794863,0.192569599
12.22330636,-0.932602644,1.459621787,11.32044411,0.530215442,0.823193014,0.332148194
12.2434161,-0.417547554,1.432104349,8.688339233,0.68246913,0.725915611,0.52044189
12.26352584,0.479162723,1.422533035,7.085746288,0.724922955,0.296337277,0.574501872
12.28363558,0.984646499,1.60977149,6.135197163,0.725839257,0.001908898,0.47722441
12.30374532,0.860817969,1.751546144,5.230112076,0.745080948,0.066047862,0.302063972
12.32385506,0.266201526,1.843669891,4.109074593,0.724617541,0.287938118,0.149199441
12.34396479,-0.352343142,2.057827473,3.059223652,0.596797764,0.450270772,0.084755056
12.36407453,-0.965503931,2.514258385,2.781656265,0.34436515,0.400486738,0.110716067
12.38418433,-1.074377418,3.075973511,3.582653761,0.111021489,0.102545984,0.217614338
12.40429406,-0.450448871,3.506083488,4.645665169,0.024128467,-0.24304086,0.307561606
12.4244038,0.189032987,3.769891977,5.220541,-0.002901525,-0.407053351,0.283127695
12.44451354,0.598803878,4.007379532,5.894718647,-0.102775052,-0.426447749,0.178214684
12.46462328,0.557527661,4.277170658,6.787839413,-0.239757553,-0.314815402,0.044286426
12.48473302,0.042472601,4.605585575,7.841279984,-0.349099219,-0.163936138,-0.038177952
12.50484276,-0.506680191,4.82034111,8.684151649,-0.369104445,-0.082846157,-0.038330667
12.5249525,-0.876969516,4.963312149,9.235696793,-0.327414125,-0.115679197,0.028404398
12.54506224,-0.84705919,5.170889854,9.655039787,-0.272590578,-0.216163576,0.130721316
12.56517198,-0.702293456,5.442475319,10.15035343,-0.239452124,-0.351466239,0.224791795
12.58528177,0.000598206,5.308476925,10.59900761,-0.21150586,-0.498069584,0.319167703
12.60539151,1.169492126,4.613361835,11.08235836,-0.237161443,-0.553351283,0.339783788
12.62550125,1.377667665,4.54995203,11.50349522,-0.306645334,-0.370555222,0.255028725
12.64561099,0.122033954,5.370092392,11.26899815,-0.351695299,-0.128201574,0.175465882
12.66572073,0.818345368,4.255635262,11.42812061,-0.532200694,-0.300307781,0.232732803
12.68583047,2.805584431,2.778665304,12.83809185,-0.755312622,-0.454394013,0.254723311
12.70594021,3.44985199,2.533999205,14.0620203,-0.797002971,-0.216774419,0.072843537
12.72604995,2.79421854,2.424527645,14.10987663,-0.594812512,0.039017867,-0.156224191
12.74615969,2.703889608,1.886142492,12.93320656,-0.352611572,-0.034131091,-0.261748046
12.76626943,2.720041037,1.924427629,11.66740322,-0.254570603,-0.190813407,-0.355513096
12.78637922,2.467598438,2.499303341,11.07338524,-0.319167703,-0.188217312,-0.472643077
12.80648896,2.177468538,2.490928411,10.79521942,-0.368646324,0.01046076,-0.620926261
12.8265987,1.871187329,1.974078655,10.25862885,-0.311684817,0.191576973,-0.747829735
12.84670844,1.508076429,1.627717614,9.622138023,-0.212727562,0.254036099,-0.834875464
12.86681818,0.984646499,1.551147223,9.362516403,-0.088267431,0.273277789,-0.860683799
12.88692792,0.381655216,1.618744493,8.787042618,0.159736559,0.320465744,-0.812732279
12.90703766,-0.004785645,1.800000787,7.569694519,0.454012215,0.332682699,-0.685370624
12.9271474,-0.053240303,2.091925144,6.077769279,0.650094211,0.289159834,-0.530826271
12.94725714,0.205184549,2.364706993,4.943571568,0.682163656,0.251745433,-0.401937485
12.96736688,0.487537623,2.684148788,4.223331928,0.612221658,0.246095091,-0.350015491
12.98747662,0.51505506,3.089133978,3.760320902,0.455692053,0.212956622,-0.372769535
13.00758641,0.33200413,3.519842148,4.114458561,0.190126211,0.148512244,-0.4240807
13.02769615,-0.151346028,3.805784464,5.593821049,-0.037414394,0.080860905,-0.458135456
13.04780589,-0.720239639,3.912265062,6.893123627,-0.085060477,-0.008628218,-0.417055965
13.06791563,-0.866201818,4.06660223,7.92742157,-0.065513365,-0.148359522,-0.279462636
13.08802537,-0.598205686,4.415954113,8.693124771,-0.017714571,-0.218606964,-0.134539112
13.10813511,-0.431306273,5.007579803,9.033503532,0.014813046,-0.187759176,-0.063069977
13.12824485,-0.367896467,5.47597456,9.175876617,-0.034818295,-0.06956023,-0.057266932
13.14835459,-0.469591439,5.539982796,9.451649666,-0.154238939,0.027869906,-0.084602349
13.16846432,-0.625723124,5.277968407,10.13719273,-0.30267483,0.052761931,-0.08490777
13.18857407,-0.764506817,4.811367989,11.22353458,-0.384833783,0.082540736,-0.047798797
13.20868381,-0.897906721,4.227519512,12.3984108,-0.345128715,0.167601213,0.044133715
13.2287936,-1.94715941,5.014159679,12.30927753,-0.15057385,0.446605712,0.179894522
13.24890334,-2.790031195,5.535196781,11.40897846,-0.066582352,0.382466734,0.336271405
13.26901308,-1.37048912,4.055834293,12.63888931,-0.212727562,-0.0678804,0.536018491
13.28912282,-0.470189661,3.462414265,14.30489159,-0.143396393,-0.165615961,0.613596082
13.30923256,-0.501296341,3.343371391,13.9800663,0.128125206,-0.155842409,0.563506603
13.32934229,-0.169890404,2.321038008,13.28554916,0.188140959,-0.392698437,0.496313393
13.34945203,0.570688188,1.658824325,13.89512062,0.044591852,-0.499596715,0.461495102
13.36956177,0.421734989,1.649253011,14.10808277,0.038788799,-0.232503742,0.391858518
13.38967151,0.18843478,1.785643935,13.00618744,0.160652831,0.112624966,0.430494607
13.40978125,0.622133911,2.055434704,11.32283688,0.28496024,0.310997605,0.512348115
13.42989099,0.899103105,2.288136721,9.482157707,0.393538356,0.354978621,0.476460874
13.45000078,0.741775036,2.336591244,8.007580757,0.457524598,0.345052332,0.365286648
13.47011052,0.433699101,2.1302104,6.79920578,0.52563405,0.310997605,0.26571855
13.49022026,0.040677983,1.981855392,5.779862881,0.561215937,0.177985624,0.207229927
13.51033,-0.253040999,2.07098794,5.298905849,0.542432368,0.040392276,0.204328403
13.53043974,-0.41096729,2.407777786,5.182255745,0.519372881,-0.008170082,0.231511116
13.55054948,-0.159122706,2.632104874,5.21994257,0.525481343,-0.007864659,0.280531615
13.57065922,0.333798766,2.656631231,5.081159115,0.549151659,-0.040086851,0.300231427
13.59076896,0.851246655,2.877967358,5.102694511,0.541363359,-0.082235314,0.270147204
13.6108787,1.012762189,3.36012125,5.023731232,0.532811523,-0.062840909,0.150421143
13.63098844,0.458225548,4.035495281,4.92442894,0.461953253,-0.023899399,-0.008857286
13.65109818,-0.394815743,4.685146809,4.785047054,0.337187678,-0.034436513,-0.088725567
13.67120792,-0.591625392,5.030909538,5.135595798,0.113770299,-0.151719183,-0.075897776
13.69131771,-0.369092882,5.289334297,6.34875679,-0.142785549,-0.270528972,-0.027029991
13.71142745,-0.089132644,5.767300606,7.604390144,-0.300231427,-0.297864407,0.016340164
13.73153719,0.19561325,6.177670002,8.297112465,-0.381626815,-0.289770663,0.005650337
13.75164693,0.039481573,6.360122681,8.420342445,-0.500436604,-0.269765407,-0.050089475
13.77175667,0.16331014,5.738586903,9.202795982,-0.788756549,-0.42537877,-0.051005747
13.79186641,1.200598717,4.433301926,11.96471119,-1.164122105,-0.610618174,0.029167956
13.81197615,1.792822361,4.109673023,15.61615849,-1.167176366,-0.527390242,0.123085722
13.83208589,1.842473388,4.406383038,15.50788403,-0.626271129,-0.25082916,0.187835529
13.85219563,2.301297188,3.729214191,12.68315601,-0.357192934,-0.209749684,0.124460131
13.87230537,2.781058073,2.544168711,11.97667599,-0.697740257,-0.102240562,-0.032069482
13.89241511,2.093121529,1.835294962,14.37069416,-1.010035992,0.19432579,-0.215781793
13.91252485,0.721436024,1.853241086,15.92004681,-0.742026687,0.284883887,-0.25686127
13.93263459,0.701097012,1.677368641,15.7501564,-0.197609082,-0.071545482,-0.101400644
13.95274438,1.916052699,1.696511269,14.08594894,0.307256162,-0.496389747,0.029931515
13.97285412,2.924627542,2.106282234,11.82652569,0.454623073,-0.537469208,-0.043217443
13.99296386,3.096312523,2.29651165,10.31964588,0.294428378,-0.106516488,-0.269230932
14.0130736,2.175673962,2.426322222,9.069396019,0.179283664,0.409038603,-0.513111711
14.03318334,1.213759303,2.312663078,7.570292473,0.194554851,0.681934595,-0.643069446
14.05329308,0.413958311,2.113460541,6.13220644,0.272132456,0.71293509,-0.691173673
14.07340282,-0.354735971,2.108675003,4.779065132,0.358720064,0.59519428,-0.664449096
14.09351256,-0.834496915,2.150549412,3.575475216,0.352458865,0.376663685,-0.574043691
14.11362229,-0.976869822,2.216950178,2.938386202,0.205855534,0.233725429,-0.444085956
14.13373203,-0.833898664,2.394617319,3.252444267,-0.001527118,0.238917634,-0.289236188
14.15384177,-0.592223585,2.644068956,4.083351612,-0.126750812,0.288396269,-0.152864531
14.17395151,-0.389431894,2.969492912,4.720440865,-0.11606098,0.317106098,-0.050089475
14.19406125,-0.208773777,3.380460262,5.131408215,-0.066887774,0.186842904,0.007177455
14.21417104,-0.035294134,3.911068678,5.860022545,-0.04550812,-0.001450762,0.036498122
14.23428078,-0.076570325,4.456632137,6.625127792,-0.04871507,-0.195394769,0.023212196
14.25439052,-0.233898416,4.911268711,7.557132244,-0.08154811,-0.269459993,0.028709821
14.27450026,-0.324227482,5.239085197,7.957331657,-0.100484371,-0.261213571,0.052532863
14.29461,-0.434895515,5.668596745,8.368298531,-0.244797036,-0.238612205,0.092085227
14.31471974,-0.255433828,5.895915031,9.377471924,-0.452943236,-0.166074097,0.130110472
14.33482948,0.312861562,5.691328526,10.74138069,-0.649025202,-0.15782766,0.116366401
14.35493922,0.85543412,5.112265587,12.73639679,-0.815481067,-0.064826168,0.055739813
14.37504896,0.769292474,4.307080746,14.87737465,-0.753174663,0.245331526,-0.007330167
14.3951587,-0.437886536,3.943371773,14.90489197,-0.337187678,0.673535466,0.03130592
14.41526844,-1.851446509,4.492524624,12.97029495,0.085213192,0.812808633,0.197303668
14.43537818,-1.602592945,3.97627306,12.57727432,0.084602349,0.240750179,0.426982224
14.45548792,-0.537786901,3.290131092,14.62553024,0.003054236,-0.243651703,0.57877779
14.47559766,-0.124426775,3.028116941,16.24068642,0.180199936,-0.534567714,0.560910523
14.4957074,0.952941597,1.60378933,16.76232147,0.350931764,-0.930244029,0.50013119
14.51581714,1.840080619,0.662213683,16.54517174,0.483485609,-0.944293499,0.415681571
14.53592693,1.331605792,0.924825966,14.3443737,0.617261171,-0.47226128,0.271827042
14.55603667,0.595812857,1.599003673,12.02213955,0.474628329,-0.014736691,0.204022989
14.57614641,0.539581478,1.584646821,10.80538845,0.292443126,0.254799664,0.192569599
14.59625615,0.830907643,1.295713425,9.655039787,0.300689578,0.362614214,0.175771296
14.61636589,1.014556766,1.202393413,8.160123825,0.46729815,0.405373514,0.127361655
14.63647563,0.836889744,1.164706469,6.393023968,0.667961478,0.347343028,0.0503949
14.65658537,0.58803618,1.164108157,4.856233597,0.746149898,0.155995116,0.014202199
14.67669511,0.491725057,1.593619823,3.923032761,0.668572307,-0.008170082,0.007177455
14.69680485,0.43609193,2.288734913,3.611367464,0.517998457,0.066353284,-0.049478628
14.71691459,-0.023928227,2.665006161,3.522234917,0.424538851,0.298017114,-0.152253673
14.73702432,-0.597607434,2.766103029,3.417548895,0.416292399,0.320465744,-0.18310146
14.75713406,-0.981655479,3.00538516,3.37986207,0.424844265,-0.046500746,-0.102164201
14.77724381,-0.888933599,3.527618885,3.888336897,0.332148194,-0.557474494,0.040468629
14.79735354,-0.129212424,4.515854359,5.173282623,0.100637086,-0.86870116,0.139425889
14.81746328,0.68374908,5.620740414,7.227520943,-0.067651331,-0.693540692,0.096666582
14.83757308,0.789631486,6.104688644,7.975875854,-0.020921519,-0.233878151,-0.118351653
14.85768276,-0.18005991,5.94078064,7.007979393,-0.022295926,0.170044601,-0.314739049
14.8777925,-0.856630504,5.724828243,6.893123627,-0.306798041,0.200892389,-0.318404138
14.89790229,-1.213161111,5.800800323,8.800801277,-0.610236406,0.00297788,-0.203106716
14.91801203,-1.208973646,5.570491314,10.88794136,-0.595576048,-0.254952371,-0.019852536
14.93812177,0.068195447,4.616353035,12.21356487,-0.346044958,-0.57121855,0.206160948
14.95823151,2.385644197,3.221935749,12.99063396,-0.103996746,-0.661776662,0.332759053
14.97834125,2.464009047,3.467200041,13.43091393,0.096819289,-0.21097137,0.247087717
14.99845099,1.533799291,3.294318676,12.46780205,0.289236188,0.261824399,0.218988746
15.01856073,2.335993052,1.791625977,12.33081341,0.232427388,0.201655954,0.30007872
15.03867047,2.578864574,2.112862349,12.19561863,0.209520608,0.072309047,0.317182452
15.05878021,2.950350285,2.896511793,11.14696407,0.132095724,-0.140418515,0.180505365
15.07888995,4.110270977,1.805384636,11.13918781,-0.273354143,-0.664678156,-0.115602844
15.09899969,5.331807137,0.66400826,13.92503166,-0.914743781,-1.082497716,-0.406824261
15.11910943,4.349553585,1.185643673,16.28315735,-1.12838757,-0.511050105,-0.716981947
15.13921917,1.60378933,2.050050735,14.97667694,-0.839151442,0.421102822,-0.892295122
15.15932891,0.119042926,2.29651165,11.83071327,-0.580610335,0.830523193,-0.757450581
15.17943865,0.492921472,2.33300209,9.729216576,-0.466076464,0.713698685,-0.530368149
15.19954839,0.874576688,2.684746981,8.302495956,-0.285723805,0.427364022,-0.485165447
15.21965813,0.570089996,3.032304525,6.699305058,-0.015576605,0.160423756,-0.58137387
15.23976787,0.001196411,2.94377017,4.600799561,0.165997744,-0.001450762,-0.678193152
15.25987761,-0.744167864,2.812762976,2.869592667,0.034818295,0.001145339,-0.704765022
15.27998735,-1.485344648,2.806781054,2.795415163,-0.366202921,0.194173068,-0.617566586
15.30009709,-1.791625977,2.811566591,4.60379076,-0.674986243,0.394225538,-0.433854252
15.32020683,-1.350150228,2.74935317,6.598806858,-0.640473366,0.350702673,-0.230747551
15.34031656,-0.588634372,2.732005358,8.169694901,-0.343906999,0.170502737,-0.063680828
15.36042636,-0.002392823,2.916252613,8.967700958,0.072843537,0.028480753,0.031458635
15.3805361,0.110069841,3.203391314,8.824729919,0.48134765,0.051540237,0.062764555
15.40064584,-0.273978204,3.714857101,7.712665558,0.772416353,0.168364778,0.077730313
15.42075558,-0.918843865,4.424329281,6.603592396,0.822200418,0.136906147,0.125681818
15.44086532,-1.061216831,5.05124855,6.509674072,0.677276909,0.0264955,0.223570094
15.46097506,-0.937986493,5.589633465,7.133602619,0.491426617,-0.096742935,0.271674305
15.48108479,-0.642472863,5.525027275,8.036892891,0.321611077,-0.249760166,0.257319421
15.50119453,-0.028713871,4.998606682,9.279366493,0.115755558,-0.44828552,0.218072474
15.52130427,0.329611331,4.670191765,11.1690979,-0.077272177,-0.456837386,0.187835529
15.54141401,0.262612283,4.535595417,12.74836063,-0.12552911,-0.200892389,0.20005247
15.56152375,-0.71485579,5.573482037,12.1734848,-0.082311668,0.337569475,0.268467367
15.58163349,-0.993619621,5.864808083,11.53041458,-0.365286648,0.560070574,0.328788549
15.60174323,0.401396006,3.964907169,14.7643137,-0.867708504,0.307332516,0.347113967
15.62185297,0.830907643,2.696112871,18.80399704,-0.804485858,0.193409517,0.315960735
15.64196271,-0.259023041,2.455035925,19.47637939,0.015271181,0.163630709,0.323290914
15.66207245,-1.120439172,2.298306227,15.56590939,0.873206139,-0.026648212,0.418888509
15.68218219,-0.775274515,2.171486616,12.38166046,0.916118205,-0.366279274,0.600768268
15.70229193,0.22791636,1.945364833,12.35593796,0.476308137,-0.385368258,0.731795013
15.72240167,0.918245673,1.996810555,12.98345566,0.262664318,0.031229567,0.775317907
15.74251141,1.057029366,2.097907305,11.55434227,0.396745294,0.417743176,0.742179394
15.76262115,1.258026481,1.948953986,9.309874535,0.571753025,0.556252778,0.695296884
15.78273089,1.269990563,1.89391911,7.13061142,0.714843988,0.589849412,0.617872
15.80284063,1.090528965,1.91365993,5.137390137,0.813801289,0.476995349,0.514333367
15.82295037,0.938584685,1.828116536,3.614358664,0.783258915,0.215858147,0.420110196
15.84306011,0.885344386,1.893320918,3.080759048,0.61939913,-0.011224318,0.355665803
15.86316985,0.896710277,2.225325108,3.362514019,0.429425627,-0.090787172,0.284043968
15.88327959,0.79082787,2.568695068,4.072584152,0.272743315,0.039476004,0.195929259
15.90338933,0.28713873,2.985046148,4.771886349,0.19928892,0.173251554,0.120031484
15.92349907,-0.147158593,3.565903902,5.426323414,0.171648085,0.101018868,0.094223186
15.9436088,-0.448654234,3.991228104,6.404389858,0.164317906,-0.093077853,0.110105217
15.96371854,-0.646660328,4.440480709,6.967899323,0.237008736,-0.249454752,0.135302663
15.98382828,-0.41635114,4.849653244,7.229315281,0.273965001,-0.321992874,0.178825542
16.00393802,0.270388961,5.044668198,7.131807804,0.22402823,-0.270834416,0.163707063
16.02404776,0.631106973,5.174479008,7.269395351,0.019699825,-0.103156827,0.067193195
16.0441575,0.346959293,5.237888813,8.001599312,-0.219905019,0.173098847,-0.045202699
16.06426724,-0.486341208,5.261219025,8.754739761,-0.333522618,0.313746423,-0.070552856
16.08437698,-0.972084224,5.426323414,9.446265221,-0.333217174,0.202724934,0.044439137
16.10448672,-0.578464866,5.408975601,10.04028416,-0.231358394,-0.062230065,0.210436881
16.12459646,0.497707099,5.035097122,10.46919727,-0.151337415,-0.332071841,0.331537336
16.1447062,0.485144794,6.464808464,9.827920914,-0.138967753,-0.301987618,0.363148689
16.16481594,1.674975872,6.073582172,8.913264275,-0.535713017,-0.273583204,0.264496863
16.18492568,3.627519131,3.208775282,11.91087246,-1.400978208,-0.235252544,0.020463383
16.20503542,4.356133461,0.751944542,16.81556129,-1.894924521,0.268085599,-0.221432135
16.22514516,2.642872572,-0.335593373,19.73839378,-1.470538378,0.909017086,-0.407740533
16.2452549,-0.209970191,-0.094516493,18.08196259,-0.349404633,1.125562429,-0.299315155
16.26536464,-1.127019525,0.459421933,14.41675663,0.619246423,0.518074811,0.163248926
16.28547438,0.491126835,1.00737834,11.10509014,1.0257653,-0.448590964,0.620315373
16.30558412,2.356332064,2.11046958,9.43489933,0.895043969,-0.879696429,0.723395884
16.32569391,3.751945972,2.647658348,8.863613129,0.544264913,-0.603135288,0.507461369
16.3458036,3.675375462,2.813361168,8.432307243,0.226318911,0.017790927,0.079104722
16.36591334,2.444268227,2.745764017,8.094919205,0.018478129,0.501734674,-0.293512106
16.38602308,1.171286702,2.485544443,7.933403492,-0.018783553,0.56862247,-0.486081719
16.40613282,0.254237413,2.387438774,7.862216949,0.06902574,0.33940202,-0.508072197
16.42624256,-0.081355967,2.644667149,7.688138962,0.247393146,0.192493245,-0.414918006
16.44635229,-0.053240303,3.026920557,6.779464722,0.478140682,0.21020782,-0.321611077
16.46646203,0.021535404,3.304488182,5.682953835,0.579388619,0.205168322,-0.277935505
16.48657177,0.181854516,3.686143398,5.056034088,0.52563405,0.14561072,-0.263275176
16.50668151,0.382253408,4.016951084,5.133202553,0.373685807,0.072461754,-0.296260923
16.52679125,0.366700083,4.140181541,5.989234924,0.232274666,0.02817533,-0.359789044
16.54690099,0.23509483,4.189832687,6.930810928,0.230594844,0.018249061,-0.392774791
16.56701073,0.160917327,4.355535507,6.905686378,0.324970752,0.012293302,-0.377656311
16.58712047,0.239282265,4.531407833,6.777071953,0.307103455,0.03397838,-0.330010235
16.60723021,0.41934216,4.716253281,6.910471916,0.212269425,0.108959884,-0.280989736
16.62733995,0.515653253,4.890331268,7.227520943,0.098499119,0.168059349,-0.263122469
16.64744969,0.376869559,5.087141037,7.951947689,0.004428643,0.214331031,-0.259151936
16.66755943,-0.010169496,5.25942421,8.534002304,0.024281178,0.243498996,-0.254265159
16.68766917,-0.415752947,5.145765305,8.571688652,0.107814543,0.15339902,-0.230900258
16.70777891,-0.55154562,4.891527653,8.80738163,0.109036237,-0.031993125,-0.166303173
16.72788865,-0.357726991,4.685744762,9.72323513,0.062611841,-0.157522231,-0.076661333
16.74799839,-0.035294134,4.483551502,10.47817039,0.114075728,-0.057037864,0.013285927
16.76810813,-0.611366212,5.350351334,9.63290596,0.244033486,0.285494745,0.057572354
16.78821787,-2.371885538,6.945765972,8.08953476,0.102164201,0.488601446,0.005955761
16.80832761,-2.682354212,6.290132523,10.01755238,-0.439504594,0.077043109,0.034360159
16.82843735,-1.619342685,4.392025948,14.26182079,-0.751189411,-0.522045314,0.15500249
16.84854709,0.494117886,2.533999205,18.26381683,-0.596339643,-0.91924876,0.266482115
16.86865683,0.989432156,1.575075507,17.8953228,0.150115714,-0.42537877,0.237466872
16.88876656,-0.860219717,2.415554523,12.63290691,0.761421084,0.365210295,0.1653869
16.9088763,-2.11585331,2.983251572,8.362915039,0.513722539,0.573967338,0.21410197
16.92898604,-2.062014818,2.662613392,8.264211655,-0.240673825,0.330239296,0.358720064
16.94909578,-0.588634372,2.022533417,11.73978615,-0.781120956,0.013973131,0.525023222
16.96920552,0.736989379,1.470987678,14.05843163,-0.606113195,0.042224817,0.55220592
16.98931526,1.031904817,1.354935765,12.65085316,0.041995749,0.310844898,0.468519837
17.009425,0.290727943,1.807777524,8.891130447,0.546708286,0.53166616,0.375671059
17.02953474,-0.200997099,2.1302104,5.827719688,0.602600813,0.440649927,0.337034971
17.04964448,-0.463011175,2.176870346,4.590032101,0.254723311,0.158743933,0.300994992
17.06975422,-0.308075905,2.264806747,6.320641041,-0.230289415,-0.028328042,0.304201931
17.08986396,-0.145962179,2.376671076,8.42213726,-0.301300407,0.095979378,0.294428378
17.1099737,-0.351146728,2.575275421,8.638090134,-0.022906773,0.199365273,0.270452619
17.13008344,-0.381655216,2.736192703,7.670791149,0.210589588,0.017027367,0.280378878
17.15019318,-0.107078813,2.883949518,7.7838521,0.178367406,-0.372082323,0.263733298
17.17030292,0.246460736,3.023929596,8.796614647,0.072232686,-0.515326023,0.230594844
17.19041266,0.529412031,3.177070379,9.366106033,0.016492875,-0.360476226,0.152711809
17.2105224,0.63888365,3.096312523,9.391828537,-0.054365408,-0.166074097,0.035276428
17.23063214,0.580259502,2.870789051,9.790233612,-0.184017733,-0.100408018,-0.057114217
17.25074188,0.7399804,2.689532757,10.79342461,-0.234870777,-0.154773429,-0.091627091
17.27085162,0.801595569,2.781656265,11.51246834,-0.064138964,-0.191118836,-0.118351653
17.29096136,0.602991283,3.197409153,10.69292641,0.26724568,-0.140265808,-0.156376898
