"Time (s)","Gyroscope x (rad/s)","Gyroscope y (rad/s)","Gyroscope z (rad/s)"
3.124771200E-2,-2.898470163E-1,8.444963396E-2,2.130329795E-2
5.135713900E-2,-2.628170252E-1,2.214321308E-2,8.933641016E-3
7.146661900E-2,3.436015919E-2,-3.206948191E-2,-8.475505747E-3
9.157604600E-2,3.662029207E-1,-1.481304597E-2,1.122431830E-2
1.116855250E-1,4.552339315E-1,2.962609194E-2,4.802786559E-2
1.317949520E-1,3.640649617E-1,6.261184067E-2,4.497363046E-2
1.519043790E-1,3.043546379E-1,1.255291104E-1,1.672194339E-2
1.720138580E-1,2.832804024E-1,1.304158866E-1,-9.697199799E-3
1.921232850E-1,2.359397560E-1,8.078455180E-2,-1.091889478E-2
2.122327640E-1,1.572931707E-1,4.214845970E-2,-1.488940232E-2
2.323421920E-1,7.421794534E-2,1.954711229E-2,-2.878617682E-2
2.524516710E-1,-6.719320081E-3,4.275931045E-3,-2.344126441E-2
2.725610980E-1,-8.628217876E-2,-3.054236295E-4,-7.864658721E-3
2.926705770E-1,-1.624853760E-1,2.596100792E-3,8.628217503E-3
3.127800040E-1,-2.000524700E-1,-3.512371797E-3,3.489464894E-2
3.328894310E-1,-1.653869003E-1,9.009997360E-3,7.444700599E-2
3.529989100E-1,-9.422318637E-2,1.786728203E-2,1.069746241E-1
3.731083370E-1,-8.735115826E-2,2.367033064E-2,1.744732410E-1
3.932178170E-1,-1.391204596E-1,2.031067200E-2,1.931040883E-1
4.133272440E-1,-6.780404598E-2,9.009997360E-3,5.795413256E-2
4.334367230E-1,1.731752008E-1,5.879404768E-2,-5.428905040E-2
4.535461500E-1,2.753393948E-1,-4.825693369E-2,-5.703786388E-2
4.736556290E-1,2.350234836E-1,-3.145863488E-2,-3.290939704E-2
4.937650560E-1,8.506047726E-2,-1.725643501E-2,-1.145338640E-3
5.138745350E-1,-7.849387079E-2,-3.023693897E-2,3.290939704E-2
5.339839620E-1,-1.768402755E-1,2.596100792E-3,4.375193641E-2
5.540934420E-1,-1.992889196E-1,1.007897966E-2,7.253811229E-3
5.742028690E-1,-1.827960461E-1,2.748812549E-3,-3.932329267E-2
5.943123480E-1,-1.438545287E-1,-4.275931045E-3,-6.284090877E-2
6.144217750E-1,-1.026223376E-1,-9.162708884E-4,-6.788039953E-2
6.345312540E-1,-6.627693027E-2,-9.162708884E-4,-4.772244394E-2
6.546406810E-1,-3.680354729E-2,-8.551862091E-3,-2.619007602E-2
6.747501600E-1,-3.145863488E-2,-3.573456407E-2,-1.611109637E-2
6.948595870E-1,-5.039490014E-2,-4.077405483E-2,-9.544488043E-3
7.149690670E-1,-7.910472155E-2,-1.771457121E-2,-1.962346770E-2
7.350784940E-1,-9.376505762E-2,-1.160609815E-2,-3.306210786E-2
7.551879730E-1,-7.253811508E-2,-5.650337320E-3,-2.466295846E-2
7.752974000E-1,-3.985778242E-2,-1.053711493E-2,-9.544488043E-3
7.954068790E-1,-2.199050039E-2,-2.321219631E-2,-7.711946499E-3
8.155163060E-1,-1.618745178E-2,-1.511846948E-2,-1.870719716E-2
8.356257850E-1,-1.450762246E-2,-5.192201585E-3,-2.145601064E-2
8.557352120E-1,-2.061609551E-2,-1.572931744E-2,-1.000262424E-2
8.758446920E-1,-4.077405483E-2,-2.932066843E-2,8.399150101E-4
8.959541190E-1,-6.429167092E-2,-2.687728032E-2,3.817795368E-4
9.160635980E-1,-7.956285775E-2,-2.137965523E-3,-4.199574701E-3
9.361730250E-1,-8.506047726E-2,1.786728203E-2,-5.268557463E-3
9.562825040E-1,-9.513945878E-2,2.473931387E-2,-2.519744914E-3
9.763919830E-1,-9.819369763E-2,3.054236295E-3,1.015533600E-2
9.965014100E-1,-7.727217674E-2,-2.550287358E-2,2.344126441E-2
1.016610889E0,-2.367033064E-2,-2.412846684E-2,3.581092134E-2
1.036720317E0,3.695625812E-2,9.009997360E-3,3.901786730E-2
1.056829796E0,5.635065958E-2,1.985253580E-2,3.122956678E-2
1.076939223E0,2.199050039E-2,7.024743594E-3,1.351499557E-2
1.097048702E0,-2.153236605E-2,-2.137965523E-3,-5.726693198E-3
1.117158129E0,-4.077405483E-2,-1.068982668E-2,-1.672194339E-2
1.137267608E0,-3.100049868E-2,-2.428117767E-2,-2.367033157E-3
1.157377087E0,7.788302377E-3,6.108472589E-4,2.130329795E-2
1.177486514E0,5.757235363E-2,5.115845799E-2,2.451024577E-2
1.197595994E0,7.024743408E-2,1.267508045E-2,-2.214321401E-3
1.217705421E0,2.199050039E-2,-6.795676053E-2,-3.153498843E-2
1.237814900E0,-3.603998944E-2,-9.025268257E-2,-3.107685409E-2
1.257924379E0,-4.550812021E-2,-2.687728032E-2,5.344913807E-4
1.278033806E0,-1.511846948E-2,1.298050396E-2,3.000787087E-2
1.298143285E0,6.108472589E-3,-2.137965523E-3,3.596363217E-2
1.318252712E0,2.000524849E-2,-4.550812021E-2,2.405211143E-2
1.338362192E0,3.802524135E-2,-4.321744293E-2,-2.977880416E-3
1.358471671E0,4.260659590E-2,-3.390202299E-2,-8.322793990E-3
1.378581098E0,2.046338283E-2,-3.802524135E-2,9.697199799E-3
1.398690577E0,-8.246437646E-3,-3.741439432E-2,1.351499557E-2
1.418800004E0,-1.756185852E-2,-2.657185495E-2,-1.046075951E-2
1.438909483E0,-1.328592747E-2,-1.466033421E-2,-3.474193811E-2
1.459018962E0,-1.771457121E-2,-1.160609815E-2,-5.169294775E-2
1.479128389E0,-4.092676565E-2,-1.374406274E-3,-6.268820167E-2
1.499237869E0,-6.276455522E-2,2.443389036E-3,-6.131379306E-2
1.519347296E0,-5.833591148E-2,7.941014133E-3,-4.756972939E-2
1.539456775E0,-4.138490185E-2,1.267508045E-2,-4.115583375E-2
1.559566254E0,-2.183778957E-2,2.168507688E-2,-4.207210615E-2
1.579675681E0,-1.404948719E-2,2.260134928E-2,-4.161396995E-2
1.599785160E0,-1.252236869E-2,1.863084175E-2,-2.496838197E-2
1.619894639E0,3.206948051E-3,2.137965336E-2,-4.046862945E-3
1.640004067E0,1.542389300E-2,1.236965694E-2,8.399150101E-4
1.660113546E0,5.192201585E-3,5.955760833E-3,-7.101099472E-3
1.680222973E0,-2.107422985E-2,1.832541777E-3,-2.176143415E-2
1.700332452E0,-5.207473040E-2,-1.068982761E-3,-2.909160033E-2
1.720441931E0,-7.391251624E-2,-3.512371797E-3,-2.206685767E-2
1.740551358E0,-6.719319522E-2,5.650337320E-3,-1.809635013E-2
1.760660837E0,-3.894151375E-2,1.511846948E-2,-1.595838554E-2
1.780770317E0,-9.162708884E-4,1.313321572E-2,-1.458397787E-2
1.800879744E0,3.145863488E-2,5.344913341E-3,-1.336228382E-2
1.820989223E0,4.902049154E-2,1.634016447E-2,-1.908897655E-3
1.841098702E0,2.993151546E-2,1.527118147E-3,-1.198787708E-2
1.861208129E0,-2.947338112E-2,-2.092151903E-2,-4.130854458E-2
1.881317608E0,-7.818844914E-2,-1.068982761E-3,-5.276193097E-2
1.901427035E0,-7.269082218E-2,1.160609815E-2,-4.283566400E-2
1.921536514E0,-4.459185153E-2,-6.413896102E-3,-3.214583546E-2
1.941645994E0,-1.878355257E-2,-7.482878864E-3,-3.199312463E-2
1.961755473E0,-1.466033421E-2,-1.374406274E-3,-4.909684882E-2
1.981864900E0,-2.611372061E-2,3.512371797E-3,-6.116108224E-2
2.001974379E0,-5.314370990E-2,9.926267900E-3,-8.162446320E-2
2.022083806E0,-9.116895497E-2,4.291202128E-2,-1.054475084E-1
2.042193285E0,-1.140757278E-1,7.818844914E-2,-1.059056446E-1
2.062302764E0,-1.194206402E-1,9.865183383E-2,-8.834378421E-2
2.082412192E0,-6.077930331E-2,1.324011385E-1,-5.184566230E-2
2.102521671E0,3.359659761E-2,2.373141646E-1,-2.985516004E-2
2.122631150E0,4.153761268E-2,3.310792148E-1,-2.909160033E-2
2.142740577E0,-4.825693369E-2,3.668137789E-1,-1.046075951E-2
2.162850056E0,-1.507265568E-1,2.812951505E-1,1.290414855E-2
2.182959535E0,-1.705790907E-1,1.395785958E-1,3.046600707E-2
2.203068962E0,-8.017370105E-2,3.390202299E-2,3.458922729E-2
2.223178442E0,6.108472496E-2,6.872031838E-3,1.351499557E-2
2.243287921E0,1.554606259E-1,3.481829539E-2,-6.337540224E-3
2.263397348E0,1.327065676E-1,3.542914242E-2,4.352286924E-3
2.283506827E0,2.367033064E-2,4.734066315E-3,3.397838026E-2
2.303616306E0,-9.513945878E-2,-4.734066315E-3,3.428380191E-2
2.323725733E0,-1.531699449E-1,1.634016447E-2,2.725905925E-2
2.343835212E0,-1.291942000E-1,2.367033064E-2,3.993413970E-2
2.363944692E0,-4.459185153E-2,2.046338283E-2,6.131379306E-2
2.384054119E0,4.459185153E-2,-5.039489828E-3,6.268820167E-2
2.404163598E0,9.116895497E-2,-3.054236248E-2,4.848600179E-2
2.424273077E0,7.238540053E-2,-1.878355257E-2,3.061871976E-2
2.444382556E0,-2.901524538E-3,3.329117596E-2,3.321481869E-2
2.464491983E0,-6.902574003E-2,9.620844573E-2,6.910209358E-2
2.484601462E0,-1.009425074E-1,8.170082420E-2,7.627955079E-2
2.504710942E0,-1.123958975E-1,5.650337320E-3,4.756972939E-2
2.524820369E0,-1.113269106E-1,-2.687728032E-2,2.420482226E-2
2.544929848E0,-1.041494608E-1,-2.825168520E-2,2.878617682E-2
2.565039327E0,-8.658760041E-2,2.443389036E-3,4.497363046E-2
2.585148806E0,-7.116370648E-2,2.687728032E-2,5.749600008E-2
2.605258233E0,-4.978405312E-2,5.283828825E-2,8.758022636E-2
2.625367712E0,-4.001049697E-2,2.794626169E-2,9.307785332E-2
2.645477192E0,-4.642439261E-2,-1.282779220E-2,7.627955079E-2
2.665586619E0,-6.902574003E-2,-3.466558084E-2,3.611634299E-2
2.685696098E0,-9.758284688E-2,-4.398100078E-2,1.855448633E-2
2.705805577E0,-9.910997003E-2,-3.176405653E-2,3.275668249E-2
2.725915004E0,-7.818844914E-2,-3.206948191E-2,4.161396995E-2
2.746024483E0,-5.757235363E-2,-3.878879920E-2,5.169294775E-2
2.766133962E0,-4.214845970E-2,-2.611372061E-2,4.955498502E-2
2.786243389E0,-4.230117425E-2,-1.420219894E-2,1.931804419E-2
2.806352869E0,-6.047387794E-2,-1.878355257E-2,2.290677221E-4
2.826462348E0,-7.681404054E-2,-3.252761811E-2,-5.344913807E-4
2.846571827E0,-8.857285231E-2,-4.092676565E-2,-5.879404955E-3
2.866681254E0,-8.551861346E-2,-2.412846684E-2,-3.817795368E-4
2.886790733E0,-6.627693027E-2,-2.702999115E-2,5.726693198E-3
2.906900212E0,-3.558185324E-2,-3.558185324E-2,2.672456671E-3
2.927009692E0,-3.970507067E-3,-4.474456236E-2,-1.122431830E-2
2.947119119E0,1.572931744E-2,-5.879404768E-2,-2.038702741E-2
2.967228598E0,5.192201585E-3,-5.696150661E-2,-3.016058356E-2
2.987338077E0,-2.794626169E-2,-4.978405312E-2,-3.886515647E-2
3.007447556E0,-5.925218388E-2,-4.443913698E-2,-4.512634128E-2
3.027556983E0,-6.642963737E-2,-5.085303262E-2,-4.237752780E-2
3.047666462E0,-4.871506989E-2,-5.390727147E-2,-4.344651103E-2
3.067775942E0,-2.244863659E-2,-4.550812021E-2,-4.863871261E-2
3.087885421E0,3.054236295E-4,-4.046862945E-2,-4.818057641E-2
3.107994848E0,-4.428642802E-3,-3.359659761E-2,-6.238277629E-2
3.128104327E0,-4.718795046E-2,-3.069507517E-2,-8.635853231E-2
3.148213806E0,-9.345962852E-2,-4.825693369E-2,-8.880192041E-2
3.168323233E0,-8.933641016E-2,-2.336490713E-2,-6.879667193E-2
3.188432712E0,-3.542914242E-2,1.542389300E-2,-6.421531737E-2
3.208542192E0,1.496575773E-2,-1.985253533E-3,-8.070819080E-2
3.228651671E0,4.092676565E-2,4.627167806E-2,-8.498412371E-2
3.248761150E0,1.832541823E-2,8.444963396E-2,-8.971819282E-2
3.268870577E0,-5.344913527E-2,2.122694254E-2,-8.910734206E-2
3.288980056E0,-1.461452097E-1,-2.687728032E-2,-7.719582319E-2
3.309089535E0,-1.831014603E-1,1.511846948E-2,-6.971294433E-2
3.329198962E0,-1.469087601E-1,2.855710872E-2,-8.666395396E-2
3.349308442E0,-6.963659078E-2,-1.038440317E-2,-8.635853231E-2
3.369417921E0,2.825168520E-2,2.901524538E-3,-8.467870206E-2
3.389527400E0,8.338065445E-2,5.299099907E-2,-8.819106966E-2
3.409636879E0,6.841489673E-2,7.375980914E-2,-7.444700599E-2
3.429746306E0,2.076880634E-2,3.787253052E-2,-5.489989743E-2
3.449855785E0,-2.565558441E-2,-9.926267900E-3,-5.260922015E-2
3.469965264E0,-5.787777901E-2,-2.367033064E-2,-5.306735635E-2
3.490074744E0,-5.054761097E-2,1.527118124E-2,-2.924431302E-2
3.510184223E0,-2.779355086E-2,3.359660041E-3,-2.924431302E-2
3.530293650E0,-3.359659761E-2,-8.704573661E-2,-4.527905211E-2
3.550403129E0,-6.490252167E-2,-1.714953631E-1,-4.344651103E-2
3.570512608E0,-9.407047927E-2,-1.577513069E-1,-3.031329438E-2
3.590622087E0,-1.029277667E-1,-8.231166750E-2,-2.221956849E-2
3.610731567E0,-9.300149232E-2,-2.779355086E-2,-1.550024934E-2
3.630840994E0,-5.925218388E-2,-3.054236295E-4,-8.017370477E-3
3.650950473E0,-1.206423342E-2,2.351761982E-2,-2.519744914E-3
3.671059952E0,3.603998944E-2,5.222744122E-2,2.115058713E-2
3.691169431E0,6.795676053E-2,3.283303976E-2,4.650074616E-2
3.711278910E0,6.673506647E-2,5.497625098E-3,5.260922015E-2
3.731388337E0,5.925218388E-2,1.099525020E-2,3.199312463E-2
3.751497817E0,6.566607952E-2,3.542914242E-2,-5.344913807E-4
3.771607296E0,8.612946421E-2,5.925218388E-2,-3.436015919E-3
3.791716775E0,1.033858955E-1,6.505523622E-2,4.657710437E-3
3.811826254E0,8.796200156E-2,3.970507160E-2,8.399150101E-4
3.831935681E0,4.123219103E-2,1.343864016E-2,-7.559234742E-3
3.852045160E0,-1.221694518E-3,1.588202827E-2,-2.267770469E-2
3.872154639E0,-2.870982140E-2,1.847812906E-2,-3.733803704E-2
3.892264119E0,-3.726168349E-2,2.657185495E-2,-3.336753324E-2
3.912373598E0,-2.351761982E-2,5.467082933E-2,-2.053973824E-2
3.932483077E0,-2.489202656E-2,6.688777357E-2,-1.794363745E-2
3.952592504E0,-4.520269856E-2,6.001574174E-2,-1.550024934E-2
3.972701983E0,-6.826218218E-2,4.840964451E-2,-1.733279042E-2
3.992811462E0,-8.078455180E-2,6.780404598E-2,-1.748550311E-2
4.012920942E0,-9.315420687E-2,7.146912813E-2,-5.573981442E-3
4.033030421E0,-1.090362370E-1,4.886778072E-2,1.450762269E-3
4.053139900E0,-1.174353883E-1,3.955236077E-2,-9.544488043E-3
4.073249379E0,-9.834641218E-2,6.902574003E-2,-2.298312820E-2
4.093358858E0,-2.855710872E-2,1.105633527E-1,-1.641651988E-2
4.113468285E0,7.009471953E-2,1.556133330E-1,1.565296017E-2
4.133577764E0,1.679829955E-1,1.826433241E-1,6.238277629E-2
4.153687244E0,2.667875290E-1,1.166718230E-1,1.307976693E-1
4.173796723E0,3.584146202E-1,1.924168877E-2,2.040993422E-1
4.193906202E0,4.308000207E-1,6.612421572E-2,2.864110172E-1
4.214015681E0,4.027010500E-1,1.905843467E-1,3.357369304E-1
4.234125160E0,1.690519750E-1,1.217113137E-1,3.923930228E-1
4.254234639E0,-2.069245130E-1,-2.041756958E-1,4.572955370E-1
4.274344119E0,-3.987305462E-1,-4.844018817E-1,4.814240038E-1
4.294453598E0,-1.719534993E-1,-3.179459870E-1,3.872008026E-1
4.314563077E0,3.686463237E-1,8.460234851E-2,3.209238648E-1
4.334672504E0,8.070819378E-1,1.343863904E-1,3.710133433E-1
4.354781983E0,8.162446618E-1,-2.620534599E-1,4.411080778E-1
4.374891462E0,4.953971207E-1,-6.470399499E-1,3.881170750E-1
4.395000942E0,1.559187621E-1,-6.737645268E-1,2.105132341E-1
4.415110421E0,1.710372418E-2,-3.420744538E-1,5.612159148E-2
4.435219900E0,8.612946421E-2,1.994416267E-1,-2.130329795E-2
4.455329379E0,1.960819662E-1,5.115845799E-1,2.649549954E-2
4.475438858E0,1.942494214E-1,3.695625961E-1,1.110978425E-1
4.495548337E0,1.252236813E-1,1.262926757E-1,1.007134393E-1
4.515657817E0,7.055285573E-2,3.955236077E-2,-1.977618039E-2
4.535767296E0,-2.596100792E-3,8.735115826E-2,-1.301868260E-1
4.555876775E0,-1.168245375E-1,1.815743446E-1,-1.404185146E-1
4.575986254E0,-2.322746664E-1,1.866138428E-1,-1.017824262E-1
4.596095733E0,-2.452551723E-1,1.104106456E-1,-6.642963737E-3
4.616205212E0,-1.055238619E-1,6.123743951E-2,7.841751724E-2
4.636314692E0,1.110214889E-1,8.857285231E-2,3.153498843E-2
4.656424171E0,2.560977042E-1,1.085781008E-1,-1.324774921E-1
4.676533650E0,2.296785712E-1,1.068982668E-2,-3.067216873E-1
4.696643129E0,5.864133686E-2,-1.444653720E-1,-3.985014856E-1
4.716752608E0,-1.044548824E-1,-1.884463727E-1,-3.604762256E-1
4.736862087E0,-1.450762302E-1,-1.589729935E-1,-2.815242410E-1
4.756971567E0,-7.773031294E-2,-1.634016484E-1,-2.288386524E-1
4.777081046E0,3.802524135E-2,-1.934858710E-1,-1.989071369E-1
4.797190525E0,1.310267299E-1,-2.052446753E-1,-1.873010397E-1
4.817300004E0,1.226275861E-1,-2.339545041E-1,-1.761530787E-1
4.837409483E0,5.619794875E-2,-2.507528067E-1,-1.085017473E-1
4.857519014E0,3.970507067E-3,-2.240282297E-1,-6.872031372E-4
4.877628494E0,1.511846948E-2,-1.811162084E-1,7.979192585E-2
4.897737973E0,7.330167294E-2,-2.101314515E-1,9.888090193E-2
4.917847452E0,1.319430023E-1,-2.144073844E-1,1.330883503E-1
4.937956931E0,1.091889441E-1,-2.220429778E-1,1.515664756E-1
4.958066410E0,-8.933641016E-2,-3.410054743E-1,5.887040496E-2
4.978175889E0,-4.382829070E-1,-2.654131353E-1,1.137703005E-2
4.998285369E0,-8.525137305E-1,-1.273616552E-1,-1.275143679E-2
5.018394848E0,-1.182982087E0,-1.163664013E-1,-1.799708754E-1
5.038504379E0,-1.137473941E0,-1.197260618E-1,-3.129828572E-1
5.058613858E0,-5.795413256E-1,-2.809897438E-2,-2.977116704E-1
5.078723337E0,1.594311297E-1,3.054236248E-2,-1.926459521E-1
5.098832817E0,6.988092661E-1,-1.180462316E-1,-1.718007959E-2
5.118942296E0,8.507575393E-1,-1.769929975E-1,1.364480108E-1
5.139051775E0,5.378510356E-1,-1.885990947E-1,5.673243850E-2
5.159161306E0,-4.581354442E-4,-7.650861889E-2,-1.306449622E-1
5.179270785E0,-4.611896873E-1,5.176930502E-2,-3.453577757E-1
5.199380264E0,-6.412369013E-1,2.588465214E-1,-4.482855201E-1
5.219489744E0,-5.938962698E-1,4.460712075E-1,-4.437041879E-1
5.239599223E0,-4.048390090E-1,5.109737515E-1,-2.981698215E-1
5.259708702E0,-1.310267299E-1,5.005893111E-1,-9.506310523E-2
5.279818233E0,1.356080920E-1,4.416425824E-1,2.832804248E-2
5.299927712E0,2.790044844E-1,3.306210935E-1,5.367820337E-2
5.320037192E0,2.234173864E-1,2.052446753E-1,4.146125913E-2
5.340146671E0,1.374406368E-2,7.207997888E-2,1.595838554E-2
5.360256202E0,-1.769929975E-1,4.230117425E-2,1.290414855E-2
5.380365681E0,-2.203631550E-1,1.006370857E-1,1.824906096E-2
5.400475160E0,-1.423274130E-1,1.388150454E-1,3.474193811E-2
5.420584639E0,-7.177455351E-3,1.305686086E-1,9.872818738E-2
5.440694171E0,8.567132801E-2,1.517955512E-1,1.052947938E-1
5.460803650E0,8.857285231E-2,1.653869003E-1,9.544488043E-3
5.480913129E0,7.727217674E-2,2.287622988E-1,-8.391514421E-2
5.501022660E0,1.032331884E-1,2.864873707E-1,-9.765920788E-2
5.521132139E0,1.319430023E-1,2.241809368E-1,-5.887040496E-2
5.541241619E0,1.340809762E-1,6.322269142E-2,-2.359397523E-2
5.561351098E0,1.232384369E-1,-3.497100621E-2,-2.221956849E-2
5.581460629E0,9.223793447E-2,-2.611372061E-2,-1.091125906E-1
5.601570108E0,2.580829710E-2,-1.221694518E-3,-2.518981397E-1
5.621679639E0,-3.878879920E-2,-1.939439960E-2,-3.337516785E-1
5.641789119E0,-7.803573459E-2,-4.443913698E-2,-2.919086218E-1
5.661898598E0,-7.879929990E-2,-5.344913341E-3,-1.265217364E-1
5.682008129E0,-5.833591148E-2,3.527642787E-2,6.421531737E-2
5.702117608E0,-5.512896553E-2,-4.321744293E-2,1.251473278E-1
5.722227087E0,-4.092676565E-2,-1.017060652E-1,1.230093688E-1
5.742336619E0,-4.337015375E-2,-1.542389393E-1,1.376696974E-1
5.762446098E0,-1.722589284E-1,-3.579564989E-1,1.419456303E-1
5.782555577E0,-3.196258247E-1,-4.679090083E-1,8.544225991E-2
5.802665108E0,-2.284568697E-1,-2.160872221E-1,2.176143415E-2
5.822774587E0,7.406523079E-2,7.910472155E-2,-1.046075951E-2
5.842884119E0,3.413109183E-1,1.128540337E-1,7.811209559E-2
5.862993598E0,4.694361091E-1,-5.146388337E-2,2.173852623E-1
5.883103129E0,4.318690002E-1,-2.481566966E-1,2.476222068E-1
5.903212608E0,2.754921019E-1,-2.770192325E-1,2.102078199E-1
5.923322139E0,1.168245375E-1,-6.398624927E-2,1.518719047E-1
5.943431619E0,2.443389036E-2,1.863084137E-1,1.146102175E-1
5.963541098E0,5.497625098E-3,2.872509360E-1,1.610346138E-1
5.983650629E0,3.512371704E-2,2.669402659E-1,2.213557810E-1
6.003760108E0,7.345438004E-2,1.966928244E-1,2.294494957E-1
6.023869639E0,9.040539712E-2,1.036913246E-1,2.334200144E-1
6.043979119E0,8.414421231E-2,5.650337040E-2,2.399866134E-1
6.064088650E0,4.627167806E-2,4.764608666E-2,2.386122048E-1
6.084198129E0,-1.374406368E-2,1.863084175E-2,2.631988227E-1
6.104307660E0,-6.368082762E-2,-4.566083103E-2,2.856474519E-1
6.124417139E0,-1.014006436E-1,-1.333174109E-1,2.505237460E-1
6.144526671E0,-9.452861547E-2,-1.369825006E-1,2.037939131E-1
6.164636202E0,-3.558185324E-2,-4.077405483E-2,1.650051177E-1
6.184745681E0,2.107422985E-2,7.589777559E-2,1.327829212E-1
6.204855212E0,8.551862091E-3,8.124268800E-2,1.065164879E-1
6.224964692E0,-5.818320066E-2,-3.054236295E-4,8.177717775E-2
6.245074223E0,-1.181989461E-1,-5.329642445E-2,4.405735806E-2
6.265183754E0,-1.151447073E-1,-7.711946964E-2,5.344913807E-4
6.285293233E0,-4.611896724E-2,-1.032331884E-1,-4.100312293E-2
6.305402764E0,5.405998230E-2,-1.229330078E-1,-5.291464552E-2
6.325512244E0,1.357607991E-1,-2.081461996E-1,-4.268295318E-2
6.345621775E0,2.023431510E-1,-3.254288733E-1,-3.046600707E-2
6.365731306E0,2.898470163E-1,-3.562766612E-1,-4.818057641E-2
6.385840785E0,3.350497186E-1,-3.399364948E-1,-1.124722511E-1
6.405950317E0,2.757975459E-1,-3.016058207E-1,-1.550788432E-1
6.426059848E0,1.490467340E-1,-2.799207568E-1,-1.669903696E-1
6.446169327E0,-9.162708884E-4,-3.159607351E-1,-1.549261361E-1
6.466278858E0,-1.870719790E-1,-4.341596961E-1,-1.237729266E-1
6.486388389E0,-4.500417113E-1,-4.001049399E-1,-1.866901964E-1
6.506497869E0,-7.764632106E-1,-1.298050396E-2,-2.766374648E-1
6.526607400E0,-1.053787827E0,3.535278440E-1,-3.058054149E-1
6.546716931E0,-1.144040585E0,4.039227366E-1,-3.293230236E-1
6.566826410E0,-9.514709711E-1,2.588465214E-1,-3.323772550E-1
6.586935942E0,-4.275930822E-1,9.147437662E-2,-2.700708508E-1
6.607045473E0,3.272614181E-1,2.870982140E-2,-1.666849405E-1
6.627155004E0,1.004538298E0,-1.236965694E-2,-7.521057129E-2
6.647264483E0,1.261246920E0,-1.082726792E-1,-5.215108395E-2
6.667374014E0,1.003163934E0,-2.292204350E-1,-1.445417255E-1
6.687483546E0,4.042281806E-1,-2.663294077E-1,-3.041255772E-1
6.707593077E0,-1.846285909E-1,-7.711946964E-2,-3.965162337E-1
6.727702608E0,-4.724903405E-1,2.406738251E-1,-3.583382666E-1
6.747812087E0,-4.527905285E-1,5.002838969E-1,-2.473167777E-1
6.767921619E0,-2.617480457E-1,6.276455522E-1,-1.036149636E-1
6.788031150E0,-3.848337755E-2,5.318952799E-1,1.458397787E-2
6.808140681E0,1.427855492E-1,2.127275616E-1,7.719582319E-2
6.828250212E0,2.484621257E-1,-9.468132257E-2,7.429429889E-2
6.848359692E0,2.822114229E-1,-1.519482583E-1,5.344913807E-4
6.868469223E0,2.240282297E-1,1.985253580E-2,-5.062396824E-2
6.888578754E0,8.261708915E-2,1.850867122E-1,-4.008685052E-2
6.908688285E0,-1.014006436E-1,1.618745178E-1,-9.239064530E-3
6.928797817E0,-1.889045089E-1,8.750387281E-2,5.489989743E-2
6.948907348E0,-7.910472155E-2,1.156028435E-1,1.104869992E-1
6.969016879E0,1.223221645E-1,1.968455315E-1,1.187334359E-1
6.989126358E0,2.625116110E-1,2.044811249E-1,1.459161341E-1
7.009235889E0,2.800734639E-1,1.627907902E-1,1.818034202E-1
7.029345421E0,1.895153672E-1,1.223221645E-1,1.643942744E-1
7.049454952E0,6.337540597E-2,1.412584335E-1,1.072800532E-1
7.069564483E0,-3.512371797E-3,2.183778882E-1,5.764871091E-2
7.089674014E0,-1.511846948E-2,2.785463631E-1,3.092414327E-2
7.109783546E0,-4.046862945E-2,2.927485406E-1,2.221956849E-2
7.129893077E0,-9.300149232E-2,2.069245130E-1,1.763821393E-2
7.150002608E0,-1.201841980E-1,5.894676223E-2,3.352024406E-2
7.170112139E0,-6.322269142E-2,-4.321744293E-2,7.062921673E-2
7.190221671E0,1.191152167E-2,2.458660305E-2,1.007134393E-1
7.210331202E0,-5.131116882E-2,1.078145429E-1,1.321720779E-1
7.230440733E0,-3.046600819E-1,2.977880463E-2,9.857547283E-2
7.250550264E0,-5.095993280E-1,1.324011385E-1,9.613208473E-2
7.270659796E0,-4.990622103E-1,3.596363366E-1,1.098761484E-1
7.290769327E0,-3.497100472E-1,3.434488773E-1,1.170536056E-1
7.310878858E0,-2.316638231E-1,1.334701329E-1,1.127776727E-1
7.330988389E0,-1.291942000E-1,-2.046338283E-2,1.193442866E-1
7.351097921E0,9.819369763E-2,4.734066129E-2,1.766112149E-1
7.371207452E0,5.070032477E-1,2.948864996E-1,3.116084635E-1
7.391316983E0,8.727480173E-1,4.039227366E-1,4.641675651E-1
7.411426514E0,9.449806809E-1,2.365505993E-1,5.412870049E-1
7.431536046E0,6.870504618E-1,-1.635543555E-1,5.269321203E-1
7.451645577E0,2.481566966E-1,-4.372139275E-1,4.065952003E-1
7.471755108E0,-7.284353673E-2,-3.026748300E-1,2.971008420E-1
7.491864692E0,-1.566823274E-1,-1.374406368E-2,2.390703410E-1
7.511974223E0,-7.498150319E-2,1.543916464E-1,2.795389891E-1
7.532083754E0,5.528167635E-2,1.392731816E-1,3.798706532E-1
7.552193285E0,1.908897758E-1,1.481304597E-2,4.560738206E-1
7.572302817E0,3.026748300E-1,-1.093416587E-1,4.618768692E-1
7.592412348E0,3.148917556E-1,-1.194206402E-1,3.702498078E-1
7.612521879E0,1.762294322E-1,-5.986303091E-2,2.271588296E-1
7.632631462E0,-7.360709459E-2,9.468132630E-3,1.336991936E-1
7.652740994E0,-3.074088693E-1,-4.291202128E-2,1.158319116E-1
7.672850525E0,-3.859027624E-1,-1.000262350E-1,1.442363113E-1
7.692960056E0,-3.101576865E-1,-6.933116168E-2,1.511083394E-1
7.713069587E0,-1.808107942E-1,-4.581354558E-2,1.176644564E-1
7.733179171E0,-6.459710002E-2,-5.833591148E-2,4.756972939E-2
7.753288702E0,1.649287529E-2,-8.124268800E-2,-8.399150101E-4
7.773398233E0,9.223793447E-2,-7.375980914E-2,2.695363574E-2
7.793507764E0,1.713426560E-1,-1.029277667E-1,7.918107510E-2
7.813617296E0,2.283041626E-1,-1.499630064E-1,1.017824262E-1
7.833726879E0,1.682884246E-1,-2.166980654E-1,7.139277458E-2
7.853836410E0,-2.779355086E-2,-4.541649222E-1,-8.017370477E-3
7.873945942E0,-2.118112892E-1,-6.723901033E-1,-9.964445978E-2
7.894055525E0,-2.283041626E-1,-6.261184216E-1,-1.395022422E-1
7.914165056E0,-1.354553849E-1,-3.416163325E-1,-9.643751383E-2
7.934274587E0,-1.020114943E-1,-1.753131598E-1,1.320957206E-2
7.954384119E0,-2.875563502E-1,-2.165453583E-1,8.620581776E-2
7.974493702E0,-6.453601122E-1,-1.125486046E-1,-1.190388575E-1
7.994603233E0,-9.128348827E-1,3.194731176E-1,-4.478273988E-1
8.014712764E0,-9.387958646E-1,6.522321701E-1,-6.206972003E-1
8.034822348E0,-7.669950724E-1,5.421269536E-1,-6.491015553E-1
8.054931879E0,-4.462239146E-1,2.634278834E-1,-5.535039902E-1
8.075041410E0,3.573456407E-2,3.023693897E-2,-3.363477588E-1
8.095150994E0,5.500679612E-1,-1.105633527E-1,-1.714190096E-1
8.115260525E0,8.183826208E-1,-2.600682080E-1,-1.537044346E-1
8.135370108E0,6.670452356E-1,-3.332171738E-1,-2.665584683E-1
8.155479639E0,2.538070381E-1,-1.279724985E-1,-4.258368909E-1
8.175589171E0,-1.589729935E-1,1.606528312E-1,-5.318188667E-1
8.195698754E0,-3.414636254E-1,3.440597057E-1,-4.681380689E-1
8.215808285E0,-2.690782249E-1,3.889569938E-1,-2.720561028E-1
8.235917869E0,-1.801999472E-2,4.187358022E-1,-5.092938989E-2
8.256027400E0,2.554868758E-1,3.771981895E-1,9.781191498E-2
8.276136983E0,4.228590131E-1,2.238755226E-1,1.480541080E-1
8.296246514E0,4.485146105E-1,1.878355257E-2,1.332410574E-1
8.316356098E0,4.017847776E-1,-4.306473210E-2,1.173590273E-1
8.336465629E0,3.237490356E-1,1.298050396E-2,1.211768240E-1
8.356575160E0,2.272351831E-1,9.529217333E-2,1.524827480E-1
8.376684744E0,1.348445266E-1,9.483403713E-2,1.682120711E-1
8.396794327E0,7.207997888E-2,7.177455351E-3,1.511083394E-1
8.416903858E0,4.443913698E-2,-3.771981969E-2,1.393495351E-1
8.437013442E0,3.329117596E-2,1.878355257E-2,1.361425817E-1
8.457122973E0,-1.557660475E-2,1.406475753E-1,1.321720779E-1
8.477232556E0,-1.404948682E-1,1.711899489E-1,1.196497083E-1
8.497342087E0,-2.623589039E-1,1.214058921E-1,9.750649333E-2
8.517451671E0,-3.352024257E-1,7.421794534E-2,7.047650218E-2
8.537561202E0,-3.159607351E-1,1.241547018E-1,7.902836055E-2
8.557670785E0,-1.951656938E-1,1.548497826E-1,1.190388575E-1
8.577780317E0,-2.321219631E-2,9.849911928E-2,1.755422354E-1
8.597889900E0,1.223221645E-1,4.443913698E-2,1.880646050E-1
8.617999483E0,1.792836636E-1,2.794626169E-2,1.367534250E-1
8.638109014E0,1.334701329E-1,5.665608495E-2,6.818582863E-2
8.658218598E0,5.482354015E-2,1.589729935E-1,3.077143058E-2
8.678328181E0,-6.994201243E-2,1.259872466E-1,2.512109280E-2
8.698437712E0,-2.628170252E-1,-8.093725890E-3,4.695888236E-2
8.718547296E0,-4.188885093E-1,1.206423342E-2,2.389939874E-2
8.738656827E0,-4.796678126E-1,4.947862774E-2,-7.169819623E-2
8.758766410E0,-4.463766217E-1,4.825693369E-2,-1.527881771E-1
8.778875994E0,-2.304421216E-1,2.367033064E-1,-1.147629321E-1
8.798985577E0,1.980672181E-1,5.320479870E-1,9.155073017E-2
8.819095108E0,6.039752364E-1,5.569399595E-1,3.772745430E-1
8.839204692E0,7.527165413E-1,1.122431830E-1,6.011500359E-1
8.859314275E0,6.030589342E-1,-4.592044353E-1,5.948888659E-1
8.879423806E0,3.333698809E-1,-6.363501549E-1,3.861318231E-1
8.899533389E0,1.889045089E-1,-2.817533016E-1,2.112767994E-1
8.919642973E0,2.345653474E-1,2.399102598E-1,1.077381819E-1
8.939752556E0,3.064926267E-1,4.213318825E-1,1.378224194E-1
8.959862087E0,3.011476994E-1,2.531961799E-1,2.401393354E-1
8.979971671E0,2.573194206E-1,-3.130592033E-2,2.909923494E-1
9.000081254E0,2.362451702E-1,-1.614163816E-1,2.398339063E-1
9.020190837E0,2.510582209E-1,-6.948387623E-2,1.343100369E-1
9.040300421E0,2.199050188E-1,4.337015375E-2,3.733803704E-2
9.060409952E0,1.065928489E-1,9.376505762E-2,1.656923257E-2
9.080519535E0,-4.672981426E-2,5.986303091E-2,2.328855172E-2
9.100629119E0,-1.478250325E-1,7.482878864E-3,-2.267770469E-2
9.120738702E0,-1.423274130E-1,-1.481304597E-2,-7.734853774E-2
9.140848285E0,-7.757759839E-2,1.481304597E-2,-1.001025960E-1
9.160957817E0,8.093725890E-3,5.925218388E-2,-6.726955622E-2
9.181067400E0,7.330167294E-2,8.399149403E-3,-8.322793990E-3
9.201176983E0,7.727217674E-2,-5.161659420E-2,1.550024934E-2
9.221286567E0,4.214845970E-2,-7.879929990E-2,-1.565296017E-2
9.241396150E0,-1.847812906E-2,-1.152974218E-1,-8.254073560E-2
9.261505733E0,-7.253811508E-2,-1.769929975E-1,-1.283542812E-1
9.281615317E0,-7.711946964E-2,-2.571666837E-1,-1.387386769E-1
9.301724900E0,-4.474456236E-2,-3.771981895E-1,-1.190388575E-1
9.321834483E0,6.108472589E-3,-4.717268050E-1,-8.712209016E-2
9.341944067E0,6.139015034E-2,-4.622586668E-1,-7.643226534E-2
9.362053650E0,6.337540597E-2,-3.742966652E-1,-1.072800532E-1
9.382163233E0,-2.550287358E-2,-2.223484069E-1,-1.366007179E-1
9.402272817E0,-1.954711229E-1,-1.742441803E-1,-1.043785289E-1
9.422382400E0,-3.768927455E-1,-3.263451457E-1,-1.304922402E-1
9.442491983E0,-3.938437700E-1,-3.532224298E-1,-1.711135954E-1
9.462601567E0,-2.283041626E-1,-2.341072112E-1,-1.475959718E-1
9.482711150E0,-7.849387079E-2,-2.119639963E-1,-2.267006934E-1
9.502820733E0,-2.626643144E-2,-6.200099736E-2,-3.438306451E-1
9.522930317E0,9.376505762E-2,2.531961799E-1,-3.478011489E-1
9.543039900E0,3.109212518E-1,3.101576865E-1,-2.309766263E-1
9.563149483E0,5.021164417E-1,6.566607952E-2,-7.490514219E-2
9.583259067E0,5.462501645E-1,-2.168507725E-1,-1.901262067E-2
9.603368650E0,3.949127495E-1,-2.009687424E-1,-1.384332627E-1
9.623478233E0,1.146865711E-1,8.460234851E-2,-3.354314864E-1
9.643587817E0,-1.540862173E-1,3.584146202E-1,-4.282802939E-1
9.663697400E0,-3.089359999E-1,4.491254389E-1,-3.629196286E-1
9.683806983E0,-3.416163325E-1,3.846810758E-1,-2.325037420E-1
9.703916567E0,-2.382304370E-1,2.718270421E-1,-9.261971712E-2
9.724026150E0,-4.245388508E-2,1.863084137E-1,-1.748550311E-2
9.744135785E0,1.369825006E-1,1.259872466E-1,-5.879404955E-3
9.764245369E0,2.011214644E-1,9.727742523E-2,-1.427855436E-2
9.784354952E0,1.221694499E-1,1.114796251E-1,-1.351499557E-2
9.804464535E0,-3.451287001E-2,1.265980899E-1,1.504211407E-2
9.824574119E0,-1.649287641E-1,1.191152185E-1,3.321481869E-2
9.844683702E0,-2.024958730E-1,8.551861346E-2,4.512634128E-2
9.864793285E0,-1.261399537E-1,8.246438205E-2,7.734853774E-2
9.884902921E0,-4.428642802E-3,1.125486046E-1,1.017824262E-1
9.905012504E0,4.734066129E-2,9.544488788E-2,9.323056042E-2
9.925122087E0,-5.955760833E-3,5.528167635E-2,6.757497787E-2
9.945231671E0,-9.651386738E-2,6.047387794E-2,3.321481869E-2
9.965341306E0,-1.377460510E-1,8.017370105E-2,3.443651274E-2
9.985450889E0,-1.058292910E-1,1.044548824E-1,8.223531395E-2
1.000556047E1,-7.040014863E-2,9.849911928E-2,1.178171635E-1
1.002567011E1,-1.014006436E-1,1.374406368E-2,1.130831018E-1
1.004577969E1,-1.577513069E-1,-7.681404054E-2,9.643751383E-2
1.006588928E1,-1.362189353E-1,-1.377460510E-1,1.057529300E-1
1.008599886E1,-4.230117425E-2,-1.519482583E-1,1.492757946E-1
1.010610849E1,6.734590977E-2,-4.535540938E-2,2.221193314E-1
1.012621808E1,9.727742523E-2,7.635590434E-2,3.525352180E-1
1.014632766E1,-9.468132257E-2,-1.754658818E-1,3.328354061E-1
1.016643730E1,-3.752129376E-1,-2.043284029E-1,1.689756215E-1
1.018654688E1,-5.260922313E-1,-1.924168877E-2,1.080436110E-1
1.020665651E1,-5.169295073E-1,-7.727217674E-2,6.986565888E-2
1.022676610E1,-3.852919042E-1,-1.498102844E-1,5.520532280E-2
1.024687568E1,-1.519482583E-1,-9.422318637E-2,6.406260282E-2
1.026698532E1,1.714953631E-1,1.805053651E-1,1.611873209E-1
1.028709490E1,4.645493329E-1,2.954973578E-1,3.473430276E-1
1.030720454E1,5.784723759E-1,1.259872466E-1,4.896704257E-1
1.032731412E1,4.657710493E-1,-2.032594234E-1,4.742465317E-1
1.034742370E1,2.334963679E-1,-3.968980014E-1,3.355842233E-1
1.036753334E1,4.520269856E-2,-2.899997234E-1,2.071535736E-1
1.038764292E1,-6.413896102E-3,-4.016320780E-2,1.671430767E-1
1.040775256E1,3.237490356E-2,1.548497826E-1,1.819561273E-1
1.042786214E1,6.551336497E-2,1.997470558E-1,1.827196926E-1
1.044797178E1,7.375980914E-2,1.569877416E-1,1.506502032E-1
1.046808136E1,8.658760041E-2,1.296523362E-1,1.107924208E-1
1.048819099E1,7.971556485E-2,5.558710173E-2,8.987089992E-2
1.050830058E1,2.977880463E-2,-1.420219894E-2,1.002553031E-1
1.052841021E1,-2.733541466E-2,-3.878879920E-2,1.254527569E-1
1.054851980E1,-6.581879407E-2,-1.496575773E-2,1.144575030E-1
1.056862943E1,-8.460234851E-2,1.221694518E-2,6.161921844E-2
1.058873907E1,-8.215895295E-2,3.985778242E-2,8.628217503E-3
1.060884865E1,-5.528167635E-2,9.177979827E-2,-4.963133950E-3
1.062895829E1,1.068982761E-3,1.171299592E-1,1.565296017E-2
1.064906787E1,7.681404054E-2,1.308740228E-1,5.215108395E-2
1.066917750E1,1.458397806E-1,9.972081333E-2,9.521581978E-2
1.068928714E1,1.702736765E-1,-2.275406010E-2,8.483141661E-2
1.070939672E1,1.096470803E-1,-1.649287641E-1,2.977880416E-3
1.072950636E1,-1.557660475E-2,-2.547233105E-1,-9.216158092E-2
1.074961599E1,-1.279724985E-1,-2.516690791E-1,-1.402658075E-1
1.076972558E1,-1.820324808E-1,-1.777565479E-1,-1.288124174E-1
1.078983521E1,-2.327328026E-1,-1.211004704E-1,-1.182752997E-1
1.080994485E1,-2.805316150E-1,-8.338065445E-2,-1.202605516E-1
1.083005443E1,-2.666348219E-1,-8.994726092E-2,-1.291178465E-1
1.085016407E1,-1.921114624E-1,-2.521272004E-1,-1.216349602E-1
1.087027370E1,-1.148392856E-1,-4.127800465E-1,-1.173590273E-1
1.089038334E1,-4.810422286E-2,-2.614426315E-1,-1.184280142E-1
1.091049292E1,-1.618745178E-2,-5.085303262E-2,-1.483595222E-1
1.093060256E1,-7.146912813E-2,-2.947338112E-2,-2.509818673E-1
1.095071219E1,-1.713426560E-1,-9.773556143E-3,-3.945309818E-1
1.097082183E1,-9.468132257E-2,2.457133085E-1,-4.887541533E-1
1.099093146E1,2.496838123E-1,5.555655956E-1,-4.446204603E-1
1.101104105E1,6.623111367E-1,5.294518471E-1,-2.433462739E-1
1.103115068E1,9.051229358E-1,5.971032009E-2,-5.810684711E-2
1.105126032E1,8.397622705E-1,-4.248442650E-1,-7.383616269E-2
1.107136995E1,5.013529062E-1,-5.109737515E-1,-2.853420377E-1
1.109147959E1,4.016320780E-2,-2.449497581E-1,-5.053997636E-1
1.111158922E1,-3.600944579E-1,9.239064902E-2,-6.072585583E-1
1.113169881E1,-5.422796607E-1,3.109212518E-1,-5.280010700E-1
1.115180844E1,-4.624113739E-1,3.970507085E-1,-3.447469175E-1
1.117191808E1,-1.798945218E-1,3.426853120E-1,-1.385859698E-1
1.119202771E1,1.673721522E-1,2.136438340E-1,-1.756185899E-3
1.121213735E1,3.994941115E-1,3.191677108E-2,2.527380548E-2
1.123224698E1,4.132381678E-1,-9.712471068E-2,-5.268557463E-3
1.125235662E1,2.461714447E-1,-1.111742035E-1,-1.870719716E-2
1.127246625E1,7.024743594E-3,-7.162184268E-2,5.344913807E-4
1.129257589E1,-1.872246861E-1,-2.550287358E-2,3.749075159E-2
1.131268553E1,-2.548760176E-1,1.343864016E-2,5.108210072E-2
1.133279516E1,-2.194468826E-1,3.909422457E-2,1.947075687E-2
1.135290480E1,-1.420219839E-1,5.757235363E-2,5.268557463E-3
1.137301443E1,-8.292251825E-2,3.817795217E-2,4.986040667E-2
1.139312407E1,-3.374931216E-2,3.558185324E-2,1.390441060E-1
1.141323370E1,1.435491070E-2,5.558710173E-2,1.692810506E-1
1.143334334E1,1.466033421E-2,4.978405312E-2,1.138466597E-1
1.145345297E1,-2.214321308E-2,5.024218559E-2,5.016583204E-2
1.147356261E1,-4.214845970E-2,5.146388337E-2,2.313583903E-2
1.149367224E1,-2.305948362E-2,1.908897609E-2,3.978142887E-2
1.151378188E1,3.894151375E-2,-1.252236869E-2,8.330429345E-2
1.153389151E1,1.337755471E-1,3.145863488E-2,1.253000498E-1
1.155400115E1,2.247917950E-1,1.899735034E-1,1.792073101E-1
1.157411084E1,2.374668717E-1,2.545706034E-1,2.254789919E-1
1.159422047E1,6.551336497E-2,1.207950488E-1,2.280751020E-1
1.161433011E1,-2.461714447E-1,-4.474456236E-2,1.836359501E-1
1.163443974E1,-6.094728708E-1,-3.344388604E-1,3.932329267E-2
1.165454938E1,-8.242620230E-1,-4.089622498E-1,-5.154023692E-2
1.167465901E1,-6.549809575E-1,1.863084175E-2,-2.825168660E-3
1.169476870E1,-1.476723254E-1,5.958815217E-1,2.037939131E-1
1.171487834E1,2.971771955E-1,5.848862529E-1,4.117874205E-1
1.173498797E1,4.080459774E-1,6.917845458E-2,5.446466804E-1
1.175509761E1,2.962609231E-1,-3.355078697E-1,6.095492244E-1
1.177520730E1,2.486148328E-1,-3.216110766E-1,5.680115819E-1
1.179531693E1,3.148917556E-1,-2.061609551E-2,4.798968732E-1
1.181542657E1,3.596363366E-1,1.652341783E-1,4.369848669E-1
1.183553620E1,3.003841341E-1,7.605048269E-2,3.859791160E-1
1.185564589E1,1.882936656E-1,-6.734590977E-2,2.828986347E-1
1.187575552E1,1.081199646E-1,-8.399149776E-2,1.946312040E-1
1.189586516E1,1.058292910E-1,2.519745007E-2,1.734042615E-1
1.191597485E1,1.641651988E-1,1.331647038E-1,1.853157878E-1
1.193608448E1,1.933331639E-1,1.374406368E-1,1.671430767E-1
1.195619412E1,1.374406368E-1,5.650337040E-2,1.034622565E-1
1.197630381E1,3.054236295E-4,-5.848862603E-2,2.542651631E-2
1.199641344E1,-1.314848661E-1,-7.864658535E-2,-1.931804419E-2
1.201652308E1,-1.572931707E-1,2.764083818E-2,-3.855973482E-2
1.203663276E1,-1.076618284E-1,9.697200358E-2,-6.742226332E-2
1.205674240E1,-7.513421029E-2,8.093725890E-2,-7.124006003E-2
1.207685209E1,-4.046862945E-2,4.169032723E-2,-3.917058185E-2
1.209696172E1,1.954711229E-2,1.985253533E-3,-3.550549597E-2
1.211707136E1,8.322793990E-2,-3.909422457E-2,-4.802786559E-2
1.213718105E1,1.262926757E-1,-8.780929446E-2,-5.551074445E-2
1.215729068E1,9.223793447E-2,-1.348445266E-1,-7.169819623E-2
1.217740037E1,-4.779879749E-2,-1.885990947E-1,-9.460496902E-2
1.219751000E1,-2.299840003E-1,-2.302894145E-1,-1.143047959E-1
1.221761969E1,-3.755183518E-1,-1.973036677E-1,-1.176644564E-1
1.223772933E1,-4.613423944E-1,-1.163664013E-1,-1.289651245E-1
1.225783901E1,-4.848600030E-1,-6.536065787E-2,-1.459161341E-1
1.227794865E1,-4.923428893E-1,-1.294996142E-1,-1.869956106E-1
1.229805834E1,-4.995203316E-1,-1.621799469E-1,-1.837886721E-1
1.231816797E1,-3.749074936E-1,-1.328592747E-2,-1.115559787E-1
1.233827766E1,-1.241547018E-1,1.351499557E-1,-8.880192041E-2
1.235838735E1,-1.007897966E-2,-9.636115283E-2,-1.249946207E-1
1.237849698E1,-1.435490996E-1,-4.086568058E-1,-1.448471546E-1
1.239860667E1,-2.418955117E-1,-1.908897758E-1,-1.920351088E-1
1.241871636E1,-1.073564067E-1,2.279987335E-1,-2.464005202E-1
1.243882599E1,1.183516532E-1,3.200839758E-1,-2.384594977E-1
1.245893568E1,2.725905776E-1,8.857285231E-2,-1.978381574E-1
1.247904532E1,3.098522723E-1,-1.998997629E-1,-2.205922157E-1
1.249915500E1,2.026485801E-1,-3.356605768E-1,-2.668638825E-1
1.251926469E1,1.053711493E-2,-2.307475507E-1,-2.741940618E-1
1.253937438E1,-1.853921413E-1,-2.214321308E-2,-3.080960810E-1
1.255948401E1,-3.151971996E-1,1.609582454E-1,-3.392492831E-1
1.257959370E1,-3.080197275E-1,2.890834510E-1,-2.980171144E-1
1.259970339E1,-1.491994411E-1,2.589992285E-1,-1.981435865E-1
1.261981303E1,8.078455180E-2,9.361234307E-2,-9.139802307E-2
1.263992271E1,2.542651594E-1,-2.962609194E-2,-1.580567285E-2
1.266003240E1,3.009949923E-1,-2.397575416E-2,9.926267667E-4
1.268014209E1,2.070772201E-1,2.321219631E-2,-4.634803534E-2
1.270025178E1,1.450762246E-2,5.360184610E-2,-7.979192585E-2
1.272036141E1,-1.803526580E-1,7.589777559E-2,-8.437328041E-2
1.274047110E1,-2.929012477E-1,9.681928903E-2,-9.567394853E-2
1.276058078E1,-2.857238054E-1,9.071081877E-2,-9.353598952E-2
1.278069047E1,-1.806580722E-1,9.009996802E-2,-5.612159148E-2
1.280080016E1,-5.238015205E-2,8.506047726E-2,-1.336228382E-2
1.282090980E1,2.168507688E-2,1.136175916E-1,1.397313084E-2
1.284101948E1,1.420219894E-2,1.258345395E-1,3.184041381E-2
1.286112917E1,-3.298575059E-2,1.172826737E-1,4.039227590E-2
1.288123886E1,-6.322269142E-2,1.204896197E-1,4.344651103E-2
1.290134855E1,-4.046862945E-2,1.291942000E-1,5.581616983E-2
1.292145823E1,-3.817795310E-3,9.575030953E-2,5.642701685E-2
1.294156792E1,-1.023169141E-2,3.603998944E-2,4.787515476E-2
1.296167761E1,-2.428117767E-2,1.328592747E-2,6.223006546E-2
1.298178730E1,1.466033421E-2,3.909422457E-2,9.582666308E-2
1.300189698E1,9.681928903E-2,8.658760041E-2,1.369061470E-1
1.302200662E1,1.612636745E-1,2.675510943E-1,2.089861184E-1
1.304211636E1,1.035386100E-1,2.912214398E-1,2.952682972E-1
1.306222605E1,-2.211267054E-1,-1.472141892E-1,2.520508468E-1
1.308233573E1,-6.546755433E-1,-3.773508966E-1,1.350736022E-1
1.310244537E1,-8.670213223E-1,-3.058817685E-1,1.504211407E-2
1.312255511E1,-6.148177385E-1,1.740914769E-2,-2.359397523E-2
1.314266480E1,7.620319724E-2,5.467082858E-1,1.816506982E-1
1.316277448E1,7.351546884E-1,6.818582416E-1,4.421770573E-1
1.318288417E1,9.701781869E-1,2.641914487E-1,5.735092163E-1
1.320299386E1,6.699467301E-1,-3.518480062E-1,4.769953489E-1
1.322310355E1,1.446180940E-1,-6.018372774E-1,3.102340400E-1
1.324321323E1,-2.325800955E-1,-4.030064642E-1,1.958529055E-1
1.326332292E1,-3.231382072E-1,-6.872031838E-3,1.422510594E-1
1.328343261E1,-1.634016484E-1,3.397837877E-1,1.532463133E-1
1.330354230E1,8.979454637E-2,3.127537966E-1,1.776801944E-1
1.332365198E1,2.475458533E-1,-3.573456407E-2,1.737096906E-1
1.334376172E1,2.516690791E-1,-2.557922900E-1,1.439308822E-1
1.336387141E1,1.284306347E-1,-1.536280811E-1,8.849649876E-2
1.338398110E1,-6.612421572E-2,2.809897438E-2,5.551074445E-2
1.340409079E1,-2.238755226E-1,4.749337584E-2,3.703261539E-2
1.342420047E1,-2.437280566E-1,-1.023169141E-2,-7.559234742E-3
1.344431016E1,-1.082726792E-1,1.328592747E-2,-3.672719002E-2
1.346441990E1,8.139539510E-2,5.283828825E-2,-3.122956678E-2
1.348452959E1,1.945548505E-1,3.878879920E-2,-8.780929260E-3
1.350463928E1,2.063136548E-1,-2.565558441E-2,1.015533600E-2
1.352474896E1,1.577513069E-1,-1.325538605E-1,3.817795368E-4
1.354485870E1,7.910472155E-2,-1.875301152E-1,-2.191414498E-2
1.356496839E1,1.374406274E-3,-2.102841735E-1,-6.284090877E-2
1.358507808E1,-8.506047726E-2,-1.472141892E-1,-1.413347870E-1
1.360518776E1,-1.649287641E-1,-2.641914412E-2,-1.683647782E-1
1.362529750E1,-2.183778882E-1,-8.948912472E-2,-1.385859698E-1
1.364540719E1,-2.348707765E-1,-2.611372173E-1,-8.284615725E-2
1.366551688E1,-2.108950168E-1,-3.990359604E-1,-6.497887522E-2
1.368562662E1,-1.687465608E-1,-3.223746419E-1,-8.956547827E-2
1.370573631E1,-9.926267713E-2,-5.971032009E-2,-2.985516004E-2
1.372584599E1,-1.780619770E-1,-8.506047726E-2,-4.146125913E-2
1.374595573E1,-5.444176197E-1,-2.299840003E-1,-2.173852623E-1
1.376606542E1,-8.196806908E-1,1.238492802E-1,-3.197021782E-1
1.378617511E1,-7.595121861E-1,4.963133931E-1,-3.377221823E-1
1.380628485E1,-4.141544402E-1,4.063661397E-1,-2.500655949E-1
1.382639454E1,6.688777357E-2,9.590301663E-2,-7.078192383E-2
1.384650428E1,5.725166202E-1,-1.588202827E-2,1.122431830E-2
1.386661396E1,9.101623893E-1,-1.954711229E-2,-6.314633787E-2
1.388672365E1,9.290986657E-1,-1.110214889E-1,-1.407239437E-1
1.390683339E1,6.560499668E-1,-1.728697717E-1,-2.199813724E-1
1.392694308E1,2.124221325E-1,-9.269607067E-2,-3.768163919E-1
1.394705282E1,-1.805053651E-1,1.145338640E-1,-4.843255281E-1
1.396716250E1,-3.440597057E-1,2.208212912E-1,-4.377484024E-1
1.398727224E1,-2.383831441E-1,1.936385781E-1,-3.044309914E-1
1.400738193E1,2.733541466E-2,1.188097894E-1,-1.730988473E-1
1.402749167E1,3.113794029E-1,9.330692142E-2,-7.001836598E-2
1.404760136E1,4.590517282E-1,1.175880954E-1,-3.962871432E-2
1.406771110E1,3.956763148E-1,1.140757278E-1,-7.169819623E-2
1.408782079E1,1.779092699E-1,8.276980370E-2,-9.994988143E-2
1.410793052E1,-5.833591148E-2,5.803048983E-2,-1.002553031E-1
1.412804021E1,-2.043284029E-1,2.107422985E-2,-6.543701142E-2
1.414814995E1,-1.953184158E-1,1.450762246E-2,7.101099472E-3
1.416825969E1,-6.123743951E-2,5.161659420E-2,8.131904155E-2
1.418836938E1,7.177454978E-2,4.184303805E-2,1.002553031E-1
1.420847912E1,1.029277667E-1,-3.130592033E-2,8.162446320E-2
1.422858881E1,4.764608666E-2,-2.580829710E-2,7.811209559E-2
1.424869855E1,8.857285604E-3,1.046075895E-1,1.202605516E-1
1.426880828E1,-1.618745178E-2,1.774511337E-1,1.587439328E-1
1.428891797E1,-4.718795046E-2,5.283828825E-2,1.796654463E-1
1.430902771E1,-1.004843712E-1,-2.211267054E-1,1.194969937E-1
1.432913745E1,-6.994201243E-2,-1.014006436E-1,9.200886637E-2
1.434924714E1,7.009471953E-2,1.386623234E-1,1.202605516E-1
1.436935688E1,1.901262105E-1,2.115058601E-1,1.402658075E-1
1.438946662E1,1.447708011E-1,2.298312783E-1,1.288124174E-1
1.440957631E1,2.901524538E-3,4.173613787E-1,1.246891990E-1
1.442968605E1,-1.609582454E-1,4.330907166E-1,1.640888453E-1
1.444979579E1,-4.338542521E-1,-9.177979827E-2,1.822615564E-1
1.446990547E1,-7.795174718E-1,-7.424848676E-1,8.773294091E-2
1.449001521E1,-9.117658734E-1,-8.677848577E-1,1.855448633E-2
1.451012495E1,-5.633538961E-1,-2.554868758E-1,2.435753495E-2
1.453023464E1,1.930277348E-1,6.624638438E-1,1.052947938E-1
1.455034438E1,8.052493930E-1,8.002098799E-1,2.470113635E-1
1.457045412E1,1.015533566E0,3.944546282E-1,4.522560537E-1
1.459056386E1,7.307260633E-1,-3.043546379E-1,4.073587656E-1
1.461067355E1,2.602209449E-1,-6.730009913E-1,2.389176339E-1
1.463078329E1,-8.948912472E-2,-5.323534012E-1,1.309503764E-1
1.465089302E1,-1.908897758E-1,-1.698155403E-1,5.764871091E-2
1.467100276E1,-1.392731816E-1,5.741964281E-2,-3.741439432E-3
1.469111250E1,-3.558185324E-2,1.075091213E-1,-5.726693198E-3
1.471122224E1,4.856235534E-2,-1.679829881E-2,6.032116711E-3
1.473133193E1,6.230641901E-2,-1.783674061E-1,1.443126611E-2
1.475144167E1,1.985253580E-2,-1.798945218E-1,3.229855001E-2
1.477155141E1,-4.764608666E-2,-1.050657257E-1,6.490251981E-3
1.479166115E1,-1.108687744E-1,-6.536065787E-2,-5.092938989E-2
1.481177089E1,-1.287360638E-1,-6.276455522E-2,-9.460496902E-2
1.483188063E1,-7.131642103E-2,-3.344388679E-2,-1.010188684E-1
1.485199032E1,2.244863659E-2,-4.734066315E-3,-8.773294091E-2
1.487210006E1,8.933641016E-2,-8.246437646E-3,-7.047650218E-2
1.489220980E1,1.036913246E-1,-2.275406010E-2,-6.528430432E-2
1.491231954E1,5.909947306E-2,-5.879404768E-2,-1.011715755E-1
1.493242928E1,9.162708884E-4,-9.437590092E-2,-1.256054640E-1
1.495253901E1,-3.710897267E-2,-1.346918195E-1,-1.314085126E-1
1.497264875E1,-4.046862945E-2,-1.049130186E-1,-1.307976693E-1
1.499275849E1,1.084253844E-2,-6.047387794E-2,-1.306449622E-1
1.501286823E1,7.635590434E-2,-1.479777545E-1,-1.404185146E-1
1.503297797E1,1.036913246E-1,-3.090887070E-1,-1.449998617E-1
1.505308771E1,1.264453828E-1,-3.912476599E-1,-1.433200389E-1
1.507319745E1,1.548497826E-1,-3.640649617E-1,-1.621035933E-1
1.509330719E1,1.696628332E-1,-2.962609231E-1,-1.605764776E-1
1.511341693E1,1.747023165E-1,-1.991362125E-1,-1.353790164E-1
1.513352667E1,1.096470803E-1,-2.076880634E-1,-1.318666488E-1
1.515363641E1,-1.534753740E-1,-4.874561131E-1,-2.118876427E-1
1.517374615E1,-4.753918648E-1,-2.469350100E-1,-2.665584683E-1
1.519385589E1,-6.928535104E-1,8.276980370E-2,-3.073325157E-1
1.521396563E1,-7.975374460E-1,-7.879929990E-2,-3.926984370E-1
1.523407537E1,-6.681141853E-1,-9.620844573E-2,-3.728458881E-1
1.525418511E1,-2.713688910E-1,3.112266660E-1,-3.122192919E-1
1.527429485E1,2.480039895E-1,6.287145615E-1,-2.219666243E-1
1.529440459E1,6.542174220E-1,3.684936166E-1,-5.367820337E-2
1.531451433E1,8.305995464E-1,-1.261399537E-1,8.483141661E-2
1.533462407E1,7.582141757E-1,-3.747547865E-1,7.627955079E-2
1.535473381E1,4.966188073E-1,-2.987042964E-1,-2.061609412E-3
1.537484355E1,1.412584335E-1,-3.573456407E-2,-1.120141149E-1
1.539495329E1,-1.800472289E-1,2.368560284E-1,-2.540360987E-1
1.541506308E1,-3.904841244E-1,3.549022675E-1,-3.326826990E-1
1.543517282E1,-4.227063060E-1,3.662029207E-1,-2.633515298E-1
1.545528256E1,-2.357870489E-1,2.906105816E-1,-9.445225447E-2
1.547539230E1,9.376505762E-2,1.852394342E-1,6.452073902E-2
1.549550204E1,3.820849657E-1,1.145338640E-1,1.318666488E-1
1.551561178E1,4.390464723E-1,5.711421743E-2,7.811209559E-2
1.553572151E1,2.577775419E-1,-9.620844387E-3,-3.275668249E-2
1.555583125E1,-5.253286287E-2,-5.604523420E-2,-1.324774921E-1
1.557594105E1,-3.159607351E-1,-6.230641901E-2,-1.671430767E-1
1.559605079E1,-3.762819171E-1,4.214845970E-2,-1.285069883E-1
1.561616053E1,-2.402156889E-1,1.641651988E-1,-7.291989028E-2
1.563627026E1,-3.665083647E-2,1.595838517E-1,-4.039227590E-2
1.565638000E1,9.101624042E-2,4.489727318E-2,-5.199837312E-2
1.567648980E1,8.429691941E-2,-2.076880634E-2,-9.765920788E-2
1.569659954E1,-2.107422985E-2,3.206948191E-2,-1.329356283E-1
1.571670928E1,-1.174353883E-1,1.487413049E-1,-1.139993668E-1
1.573681901E1,-1.351499557E-1,2.046338320E-1,-7.566870749E-2
1.575692875E1,-8.918370306E-2,1.670667231E-1,-4.726430774E-2
1.577703855E1,-2.993151546E-2,5.864133686E-2,-4.512634128E-2
1.579714828E1,5.344913341E-3,-7.040014863E-2,-6.711684167E-2
1.581725803E1,-2.443389036E-3,-1.185043678E-1,-8.391514421E-2
1.583736776E1,-4.367557913E-2,-4.382828996E-2,-6.681142002E-2
1.585747756E1,-1.082726792E-1,4.092676565E-2,-1.824906096E-2
1.587758730E1,-2.353289127E-1,-1.154501289E-1,7.414158434E-2
1.589769704E1,-4.621059597E-1,-4.175141156E-1,8.956547827E-2
1.591780683E1,-6.667397618E-1,-3.962871730E-1,1.076618303E-2
1.593791657E1,-6.774296165E-1,-1.148392856E-1,-4.863871261E-2
1.595802631E1,-4.054498672E-1,2.889307439E-1,-6.620056927E-2
1.597813610E1,-6.765133142E-2,4.517215490E-1,-5.459447205E-2
1.599824584E1,1.389677525E-1,4.178195298E-1,2.214321401E-3
1.601835558E1,2.916795611E-1,4.159869850E-1,6.772769243E-2
1.603846537E1,3.930802047E-1,3.016058207E-1,9.536852688E-2
1.605857511E1,3.443651497E-1,-6.139015034E-2,1.715717167E-1
1.607868485E1,1.733279079E-1,-5.847335458E-1,2.575484812E-1
1.609879464E1,1.664558798E-2,-8.346464038E-1,2.772482932E-1
1.611890438E1,-1.426328421E-1,-7.685222030E-1,2.506764531E-1
1.613901412E1,-3.353551328E-1,-4.274403751E-1,1.469851285E-1
1.615912391E1,-3.414636254E-1,2.666348219E-1,7.459972054E-2
1.617923365E1,-1.533226669E-1,6.653653979E-1,1.373642832E-1
1.619934344E1,3.344388679E-2,4.967715442E-1,3.068743944E-1
1.621945318E1,1.441599578E-1,1.075091213E-1,4.643202722E-1
1.623956292E1,1.183516532E-1,-1.330119967E-1,4.380538464E-1
1.625967271E1,-1.038440317E-2,-1.282779276E-1,3.033620119E-1
1.627978245E1,-1.652341783E-1,-7.818844914E-2,1.891335845E-1
1.629989224E1,-2.521272004E-1,-2.458660305E-2,1.566059589E-1
1.632000198E1,-1.933331639E-1,1.710372418E-2,1.857739240E-1
1.634011172E1,-2.275406010E-2,1.634016447E-2,2.005869746E-1
1.636022151E1,1.377460510E-1,-4.535540938E-2,1.683647782E-1
1.638033125E1,2.052446753E-1,-1.041494608E-1,1.063637808E-1
1.640044105E1,1.711899489E-1,-7.696675509E-2,3.581092134E-2
1.642055078E1,1.120904684E-1,-8.246437646E-3,2.053973824E-2
1.644066058E1,8.429691941E-2,-1.679830020E-3,1.305686031E-2
1.646077032E1,7.284353673E-2,-7.727217674E-2,-4.039227590E-2
1.648088011E1,8.780929446E-2,-1.653869003E-1,-1.005607322E-1
1.650098985E1,1.397313178E-1,-2.347180545E-1,-1.393495351E-1
1.652109964E1,1.913478971E-1,-3.368822634E-1,-1.509556323E-1
1.654120938E1,2.131856978E-1,-4.237752855E-1,-1.191915721E-1
1.656131917E1,1.641651988E-1,-4.294256270E-1,-8.376242965E-2
1.658142891E1,-4.963133857E-2,-3.628432751E-1,-9.689565003E-2
1.660153870E1,-4.622586668E-1,-2.490729690E-1,-1.883700192E-1
1.662164844E1,-9.794172049E-1,-3.924693540E-2,-3.339043856E-1
1.664175823E1,-1.309732914E0,2.880144715E-1,-3.858264089E-1
1.666186797E1,-1.213829875E0,2.831276953E-1,-2.948101461E-1
1.668197776E1,-6.671979427E-1,-4.886778072E-2,-1.057529300E-1
1.670208750E1,6.581879407E-2,-2.577775419E-1,7.780666649E-2
1.672219730E1,6.120689511E-1,-3.558185324E-2,1.454579979E-1
1.674230704E1,9.338327646E-1,3.863608837E-1,1.433200389E-1
1.676241683E1,1.076312900E0,4.698942602E-1,1.097234413E-1
1.678252662E1,1.028819442E0,2.819060087E-1,7.719582319E-2
1.680263636E1,7.773031592E-1,-7.131642103E-2,-4.558447748E-2
1.682274615E1,3.574983478E-1,-2.929012477E-1,-2.518981397E-1
1.684285589E1,-4.703523964E-2,-1.605001241E-1,-3.404709995E-1
1.686296568E1,-2.573194206E-1,1.082726792E-1,-3.021403253E-1
1.688307542E1,-2.913741469E-1,2.334963679E-1,-2.202867866E-1
1.690318521E1,-2.053973973E-1,2.249445021E-1,-1.045312360E-1
1.692329500E1,-3.985778242E-2,1.809635013E-1,-3.168770298E-2
1.694340474E1,1.273616552E-1,1.055238619E-1,-3.687990457E-2
1.696351454E1,2.278460264E-1,9.513945878E-2,-6.406260282E-2
1.698362428E1,2.580829561E-1,1.765348613E-1,-5.795413256E-2
1.700373407E1,2.043284029E-1,2.173089087E-1,-2.008160390E-2
1.702384386E1,1.065928489E-1,1.843231618E-1,2.008160390E-2
1.704395360E1,6.872031838E-3,1.000262350E-1,1.305686031E-2
1.706406339E1,-6.016845629E-2,3.665083647E-2,-2.481566928E-2
1.708417318E1,-5.528167635E-2,5.635065958E-2,-6.467345357E-2
1.710428292E1,3.710897267E-2,1.026223376E-1,-7.108735293E-2
1.712439271E1,1.270562261E-1,1.064401343E-1,-3.352024406E-2
1.714450250E1,1.563768983E-1,4.840964451E-2,1.824906096E-2
1.716461224E1,1.339282542E-1,-1.404948719E-2,2.481566928E-2
1.718472204E1,1.058292910E-1,4.062134400E-2,2.130329795E-2
1.720483183E1,7.345438004E-2,1.551551968E-1,4.810422193E-3
1.722494157E1,2.855710872E-2,2.195995897E-1,-1.718007959E-2
1.724505136E1,1.572931744E-2,1.484358907E-1,3.611634299E-2
1.726516115E1,7.589777559E-2,6.139015034E-2,1.396549493E-1
1.728527089E1,2.310529798E-1,3.726168349E-2,2.088334113E-1
1.730538068E1,3.849864900E-1,8.765657991E-2,2.123457789E-1
1.732549047E1,4.086568058E-1,1.747023165E-1,2.286859453E-1
1.734560026E1,3.144336343E-1,4.152234197E-1,3.131355643E-1
1.736571000E1,7.467607409E-2,2.226538211E-1,4.120928347E-1
1.738581980E1,-2.832804024E-1,-1.136175916E-1,3.910185993E-1
1.740592959E1,-5.331169367E-1,-1.333174109E-1,3.476484418E-1
1.742603933E1,-6.100836992E-1,-2.593046725E-1,2.586174607E-1
1.744614912E1,-5.034908652E-1,-2.220429778E-1,1.746259630E-1
1.746625891E1,-1.278197914E-1,3.292466700E-1,2.514399886E-1
1.748636870E1,3.133646548E-1,6.589514613E-1,4.618768692E-1
1.750647844E1,4.805840850E-1,2.472404242E-1,5.988593698E-1
1.752658823E1,3.445178568E-1,-3.694098890E-1,6.556681991E-1
1.754669802E1,1.117850468E-1,-5.859552622E-1,5.909183621E-1
1.756680782E1,2.519745007E-2,-2.823641598E-1,4.886014462E-1
1.758691756E1,9.697200358E-2,8.842013776E-2,3.946836889E-1
1.760702735E1,2.098260373E-1,1.786728203E-1,3.572692871E-1
1.762713714E1,2.334963679E-1,4.611896724E-2,3.334462345E-1
1.764724693E1,1.609582454E-1,-1.035386100E-1,2.957264185E-1
1.766735672E1,2.947338112E-2,-1.924168915E-1,2.621298432E-1
1.768746646E1,-8.643488586E-2,-1.127013192E-1,2.482330501E-1
1.770757625E1,-1.247655526E-1,8.170082420E-2,2.068481594E-1
1.772768605E1,-1.131594554E-1,1.788255423E-1,1.379751265E-1
1.774779584E1,-1.053711548E-1,1.044548824E-1,7.948649675E-2
1.776790563E1,-1.122431830E-1,-1.038440317E-2,2.695363574E-2
1.778801537E1,-1.256818175E-1,-7.635590620E-3,-6.795675959E-3
1.780812516E1,-1.609582454E-1,1.140757278E-1,-2.573194169E-2
1.782823495E1,-2.345653474E-1,1.721062213E-1,-3.718532622E-2
1.784834474E1,-3.200839758E-1,8.674030751E-2,-4.130854458E-2
1.786845454E1,-3.310792148E-1,2.993151546E-2,-3.092414327E-2
1.788856428E1,-2.371614426E-1,3.634541109E-2,-1.351499557E-2
1.790867407E1,-1.097997949E-1,2.275406010E-2,9.391776286E-3
1.792878386E1,-4.337015375E-2,-5.467082933E-2,2.252499200E-2
1.794889365E1,-3.069507517E-2,-1.485885978E-1,3.642176837E-2
1.796900344E1,-2.183778957E-2,-2.226538211E-1,5.047125369E-2
1.798911323E1,7.635590620E-3,-2.431172132E-1,6.986565888E-2
1.800922302E1,4.657710344E-2,-2.360924631E-1,1.034622565E-1
1.802933276E1,-3.374931216E-2,-4.248442650E-1,1.175117418E-1
1.804944256E1,-4.170559645E-1,-7.963157296E-1,-3.138227761E-2
1.806955235E1,-8.506811857E-1,-5.625903010E-1,-1.518719047E-1
1.808966214E1,-1.080054283E0,-9.727742523E-2,-1.987544298E-1
1.810977193E1,-1.033171773E0,1.664558798E-1,-1.979908645E-1
1.812988172E1,-6.514685750E-1,2.489202619E-1,-1.001025960E-1
1.814999151E1,-2.901524538E-3,3.368822634E-1,-3.153498843E-2
1.817010131E1,6.661289334E-1,2.696890533E-1,2.061609412E-3
1.819021105E1,1.159388065E0,2.458660305E-2,6.956022978E-2
1.821032084E1,1.377613306E0,-1.559187621E-1,8.269345015E-2
1.823043063E1,1.243074179E0,-2.472404242E-1,-1.840177365E-2
1.825054042E1,8.179244995E-1,-2.347180545E-1,-1.537044346E-1
1.827065021E1,2.483094037E-1,-9.926267713E-2,-2.787754238E-1
1.829076000E1,-2.970244884E-1,2.825168520E-2,-3.798706532E-1
1.831086980E1,-6.925480962E-1,1.056765765E-1,-4.122455418E-1
1.833097959E1,-8.929823637E-1,1.371352077E-1,-4.049153626E-1
1.835108938E1,-7.967739105E-1,2.472404242E-1,-3.485647142E-1
1.837119917E1,-3.614688516E-1,4.909684956E-1,-2.150945961E-1
1.839130896E1,1.800472289E-1,6.171084642E-1,-5.062396824E-2
1.841141870E1,4.828747511E-1,4.126273096E-1,3.657447919E-2
1.843152849E1,4.178195298E-1,7.864658535E-2,-9.926267667E-4
1.845163828E1,1.380514801E-1,-1.111742035E-1,-1.202605516E-1
1.847174808E1,-1.632489264E-1,-5.803048983E-2,-2.270061076E-1
1.849185787E1,-3.939964771E-1,8.582404256E-2,-2.286859453E-1
1.851196766E1,-4.703523815E-1,1.638597846E-1,-1.425564736E-1
1.853207745E1,-3.594835997E-1,1.998997629E-1,-6.558972597E-2
1.855218724E1,-1.336228400E-1,1.847812980E-1,-1.412584260E-2
1.857229704E1,7.330167294E-2,8.872556686E-2,-6.490251981E-3
1.859240683E1,1.472141892E-1,2.748812549E-3,-3.290939704E-2
1.861251662E1,1.148392856E-1,3.115320951E-2,-1.916533336E-2
1.863262641E1,6.322269142E-2,9.727742523E-2,3.000787087E-2
1.865273620E1,4.138490185E-2,1.191152185E-1,6.894938648E-2
1.867284599E1,3.069507517E-2,6.383354217E-2,8.131904155E-2
1.869295579E1,2.031067200E-2,7.024743594E-3,6.513158977E-2
1.871306558E1,1.511846948E-2,-2.641914412E-2,2.344126441E-2
1.873317537E1,8.704573847E-3,-6.459710002E-2,-2.519744914E-3
1.875328516E1,-1.878355257E-2,-3.726168349E-2,2.214321401E-3
1.877339495E1,-7.742489129E-2,-5.085303262E-2,3.336753324E-2
1.879350474E1,-2.229592502E-1,-3.965925872E-1,5.596888065E-2
1.881361454E1,-4.132381678E-1,-5.176930428E-1,9.170344472E-2
1.883372433E1,-6.192464232E-1,-5.007420182E-1,8.758022636E-2
1.885383412E1,-7.325585485E-1,-4.453076422E-1,-4.130854458E-2
1.887394391E1,-5.676298141E-1,-1.517955512E-1,-1.700446010E-1
1.889405370E1,-1.368297935E-1,3.717005551E-1,-1.462215632E-1
1.891416349E1,2.990097404E-1,6.607840061E-1,8.628217503E-3
1.893427328E1,5.570927262E-1,5.497625470E-1,1.940203607E-1
1.895438308E1,5.163186193E-1,4.871506989E-2,2.777064443E-1
1.897449287E1,2.276933193E-1,-4.792096615E-1,2.448733896E-1
1.899460266E1,4.199574888E-2,-4.851654470E-1,1.949366331E-1
1.901471245E1,4.657710344E-2,-1.911951900E-1,1.185807213E-1
1.903482224E1,6.841489673E-2,6.245913357E-2,7.414158434E-2
1.905493204E1,2.473931387E-2,1.624853760E-1,1.049893722E-1
1.907504183E1,-3.145863488E-2,1.229330078E-1,1.443890184E-1
1.909515162E1,-4.596625641E-2,4.107947648E-2,1.963110417E-1
1.911526141E1,3.771981969E-2,3.008422814E-2,2.836622000E-1
1.913537120E1,1.548497826E-1,4.291202128E-2,3.229091465E-1
1.915548099E1,1.695101112E-1,-4.840964451E-2,2.998496592E-1
1.917559078E1,6.902574003E-2,-1.649287641E-1,2.535779774E-1
1.919570058E1,-2.473931387E-2,-1.275143623E-1,1.972273141E-1
1.921581037E1,-7.574506104E-2,1.130067464E-2,1.524827480E-1
1.923592016E1,-7.360709459E-2,1.093416587E-1,1.706554592E-1
1.925602995E1,-2.596100792E-2,8.536590636E-2,1.840940863E-1
1.927613974E1,4.016320780E-2,6.872031838E-3,1.520246118E-1
1.929624954E1,9.177979827E-2,-3.466558084E-2,9.918632358E-2
1.931635938E1,1.307213157E-1,-1.985253533E-3,6.650599837E-2
1.933646917E1,1.397313178E-1,1.007897966E-2,5.001311749E-2
1.935657896E1,1.105633527E-1,-5.421269313E-2,3.901786730E-2
1.937668875E1,6.642963737E-2,-1.747023165E-1,9.544488043E-3
1.939679855E1,4.092676565E-2,-3.115321100E-1,-4.268295318E-2
1.941690834E1,6.856760383E-2,-3.968980014E-1,-9.261971712E-2
1.943701813E1,1.398840249E-1,-3.436015844E-1,-1.384332627E-1
1.945712792E1,2.176143378E-1,-1.688992679E-1,-1.436254680E-1
1.947723771E1,2.530434728E-1,6.047387794E-2,-6.711684167E-2
1.949734750E1,1.539335102E-1,-3.771981969E-2,5.902311578E-2
1.951745730E1,-2.327328026E-1,-6.076403260E-1,2.802261710E-2
1.953756709E1,-8.109760880E-1,-7.700493336E-1,-2.276169658E-1
1.955767688E1,-1.179469705E0,-2.107423097E-1,-5.005129576E-1
1.957778672E1,-1.072571397E0,5.575508475E-1,-6.935406923E-1
1.959789651E1,-5.386145711E-1,1.011563063E0,-5.901548266E-1
1.961800631E1,1.070509851E-1,8.060129285E-1,-2.551050782E-1
1.963811610E1,6.817055345E-1,2.411319613E-1,4.543176666E-2
1.965822589E1,1.099983215E0,-3.750602305E-1,2.195232362E-1
1.967833568E1,1.167176366E0,-6.693359017E-1,1.115559787E-1
1.969844547E1,7.678350210E-1,-6.455128193E-1,-1.834832430E-1
1.971855526E1,7.788302749E-2,-2.741177082E-1,-4.285857081E-1
1.973866506E1,-4.996730685E-1,2.832804024E-1,-5.250995755E-1
1.975877485E1,-6.479562521E-1,5.722111464E-1,-4.368321598E-1
1.977888469E1,-4.081986845E-1,5.051707029E-1,-2.547996640E-1
1.979899448E1,-2.137965523E-3,2.457133085E-1,-8.773294091E-2
1.981910428E1,3.469612300E-1,1.588202827E-2,-2.588465251E-2
1.983921407E1,4.824166298E-1,-5.848862603E-2,-8.025006205E-2
1.985932386E1,3.578037918E-1,-3.359660041E-3,-1.479013860E-1
1.987943365E1,2.916795574E-2,6.505523622E-2,-1.843995154E-1
1.989954344E1,-3.173351586E-1,9.880454093E-2,-1.851630807E-1
1.991965323E1,-4.695888162E-1,1.178935245E-1,-1.474432498E-1
1.993976302E1,-3.549022675E-1,1.433963925E-1,-7.918107510E-2
1.995987287E1,-8.246438205E-2,1.557660550E-1,-1.214058883E-2
1.997998266E1,1.704263836E-1,1.070509851E-1,4.268295318E-2
2.000009245E1,2.594573796E-1,3.038965166E-2,5.077667907E-2
2.002020224E1,1.646233350E-1,7.941014133E-3,3.718532622E-2
2.004031204E1,2.611372061E-2,7.406523079E-2,5.123481527E-2
2.006042183E1,-4.413371533E-2,1.782146841E-1,6.085565686E-2
2.008053162E1,-4.718795046E-2,2.044811249E-1,7.582141459E-2
2.010064141E1,4.581354558E-3,1.533226669E-1,1.295759678E-1
2.012075125E1,8.353336155E-2,6.719319522E-2,1.738623977E-1
2.014086105E1,1.302631795E-1,5.421269313E-2,1.730988473E-1
2.016097084E1,1.330119967E-1,1.053711548E-1,1.819561273E-1
2.018108063E1,1.305686086E-1,5.803048983E-2,2.080698460E-1
2.020119042E1,1.194206402E-1,-3.176405653E-2,2.271588296E-1
2.022130021E1,1.269035190E-1,1.450762246E-2,2.890070975E-1
2.024141000E1,7.528692484E-2,3.283303976E-2,3.116084635E-1
2.026151985E1,-1.493521482E-1,-1.398840249E-1,2.147891670E-1
2.028162964E1,-5.196782947E-1,-2.531961799E-1,1.672194339E-2
2.030173943E1,-7.209524512E-1,-1.863084175E-2,-1.249946207E-1
2.032184922E1,-5.650337338E-1,3.419217467E-1,-1.274380088E-1
2.034195901E1,-1.247655526E-1,4.981459379E-1,9.093988687E-2
2.036206881E1,3.003841341E-1,2.475458533E-1,3.406237066E-1
2.038217865E1,4.688252807E-1,-1.340809762E-1,4.287384152E-1
2.040228844E1,4.010212123E-1,-2.673983872E-1,3.587964177E-1
2.042239823E1,2.557922900E-1,-7.879929990E-2,2.592283189E-1
2.044250803E1,1.305686086E-1,1.910424829E-1,2.531198263E-1
2.046261782E1,7.269082218E-2,3.213056624E-1,3.368059099E-1
2.048272761E1,7.635590434E-2,2.612899244E-1,3.830775917E-1
2.050283745E1,1.156028435E-1,1.278197914E-1,3.783435225E-1
2.052294724E1,1.540862173E-1,-1.985253533E-3,3.308501542E-1
2.054305704E1,1.209477559E-1,-1.180462316E-1,2.589228749E-1
2.056316683E1,4.443913698E-2,-1.294996142E-1,2.321983129E-1
2.058327662E1,-1.374406274E-3,-2.076880634E-2,2.378486544E-1
2.060338641E1,1.267508045E-2,1.017060652E-1,2.305184901E-1
2.062349625E1,6.077930331E-2,1.007898003E-1,1.992125660E-1
2.064360605E1,1.217113137E-1,2.794626169E-2,1.544679999E-1
2.066371584E1,1.586675793E-1,-8.551862091E-3,1.051420867E-1
2.068382563E1,1.527118087E-1,-3.939964995E-2,7.612683624E-2
2.070393542E1,1.131594554E-1,-6.368082762E-2,4.695888236E-2
2.072404521E1,4.688252881E-2,-1.073564067E-1,4.352286924E-3
2.074415506E1,-1.878355257E-2,-1.406475753E-1,-4.497363046E-2
2.076426485E1,-2.672456764E-2,-1.507265568E-1,-9.750649333E-2
2.078437464E1,4.443913698E-2,-1.354553849E-1,-1.326302141E-1
2.080448443E1,1.453816444E-1,-1.718007922E-1,-1.317139417E-1
2.082459422E1,2.225011140E-1,-2.312056869E-1,-1.169008911E-1
2.084470407E1,2.365505993E-1,-2.881672084E-1,-1.338519007E-1
2.086481386E1,1.864611208E-1,-3.289412558E-1,-1.674485058E-1
2.088492365E1,9.452861547E-2,-2.481566966E-1,-1.857739240E-1
2.090503344E1,-2.107422985E-2,-1.600419879E-1,-1.430146098E-1
2.092514323E1,-2.793098986E-1,-3.807105422E-1,-1.277434379E-1
2.094525308E1,-6.647545099E-1,-4.840964675E-1,-1.378224194E-1
2.096536287E1,-9.504019618E-1,-2.550287247E-1,-2.001288384E-1
2.098547266E1,-9.664367437E-1,6.612421572E-2,-3.390965760E-1
2.100558245E1,-6.682668924E-1,3.571929336E-1,-4.304182529E-1
2.102569224E1,-1.482831687E-1,3.698680103E-1,-3.589491248E-1
2.104580209E1,4.492781460E-1,1.994416267E-1,-1.581330895E-1
2.106591188E1,9.260444641E-1,-1.215586066E-1,2.893888950E-2
2.108602167E1,1.073564053E0,-4.161396921E-1,7.948649675E-2
2.110613146E1,8.192988634E-1,-5.005893111E-1,-5.596888065E-2
2.112624125E1,2.948864996E-1,-2.541124523E-1,-3.000023663E-1
2.114635110E1,-2.137965411E-1,1.924168915E-1,-5.015819669E-1
2.116646089E1,-5.041016936E-1,4.634803534E-1,-5.579326153E-1
2.118657068E1,-5.595360994E-1,4.434750974E-1,-4.617241621E-1
2.120668047E1,-4.297310412E-1,2.913741469E-1,-2.563267946E-1
2.122679026E1,-1.829487532E-1,8.903098851E-2,-1.809635013E-2
2.124690011E1,1.149920002E-1,-8.215895295E-2,1.329356283E-1
2.126700990E1,3.558185399E-1,-7.742489129E-2,1.123195365E-1
2.128711969E1,4.088095427E-1,6.032116711E-2,3.077143058E-2
2.130722948E1,2.121167034E-1,1.198787764E-1,-3.168770298E-2
2.132733928E1,-9.620844573E-2,1.203369126E-1,-6.711684167E-2
2.134744912E1,-3.075616062E-1,8.780929446E-2,-7.612683624E-2
2.136755891E1,-3.249707520E-1,7.146912813E-2,-3.428380191E-2
2.138766870E1,-1.963873953E-1,7.391251624E-2,3.397838026E-2
2.140777849E1,-2.473931387E-2,2.794626169E-2,8.559497446E-2
2.142788834E1,9.177979827E-2,-4.856235534E-2,1.074327603E-1
2.144799813E1,9.300149232E-2,-6.978929788E-2,1.123195365E-1
2.146810792E1,3.100049868E-2,2.031067200E-2,1.149156392E-1
2.148821771E1,-1.527118147E-4,1.272089481E-1,1.045312360E-1
2.150832750E1,-1.817270555E-2,1.450762302E-1,8.941277117E-2
2.152843735E1,-3.466558084E-2,1.275143623E-1,1.028514057E-1
2.154854714E1,-4.275930673E-2,6.856760383E-2,1.081963181E-1
2.156865693E1,-3.894151375E-2,-5.680879578E-2,1.149156392E-1
2.158876672E1,-3.206948191E-2,-1.012479365E-1,1.329356283E-1
2.160887651E1,-3.405473381E-2,3.863608837E-2,1.286597103E-1
2.162898636E1,-1.496575773E-2,3.060344756E-1,1.271325797E-1
2.164909615E1,9.972081333E-2,3.205420971E-1,2.202867866E-1
2.166920594E1,1.221694518E-3,-2.104368806E-1,2.120403498E-1
2.168931573E1,-1.673721522E-1,-2.069245130E-1,2.152473032E-1
2.170942558E1,-3.536805511E-1,2.901524492E-2,2.444152534E-1
2.172953537E1,-4.760027230E-1,-4.672981426E-2,2.259371281E-1
2.174964516E1,-3.016058207E-1,-7.009471953E-2,2.115822136E-1
2.176975495E1,9.284878522E-2,2.641914412E-2,2.056264579E-1
2.178986474E1,5.360184908E-1,8.124268800E-2,2.911450863E-1
2.180997459E1,8.632798791E-1,1.734806150E-1,4.224772453E-1
2.183008438E1,8.518264890E-1,8.338065445E-2,4.236989319E-1
2.185019417E1,4.847072959E-1,-2.055501044E-1,2.748049200E-1
2.187030396E1,8.811471611E-2,-5.268557668E-1,1.411820799E-1
2.189041381E1,-2.382304333E-2,-4.048390090E-1,1.283542812E-1
2.191052360E1,-2.458660305E-2,-1.142284349E-1,1.182752997E-1
2.193063339E1,-7.788302749E-2,1.864611208E-1,1.436254680E-1
2.195074318E1,-1.294996142E-1,3.461976945E-1,1.300341040E-1
2.197085297E1,-1.343863904E-1,2.631224692E-1,1.030041203E-1
2.199096282E1,-9.269607067E-2,8.903098851E-2,1.065164879E-1
2.201107261E1,-4.840964451E-2,-4.077405483E-2,7.185091078E-2
2.203118240E1,-8.170082420E-2,-8.276980370E-2,5.871769413E-2
2.205129219E1,-1.546970755E-1,-4.046862945E-2,7.566870749E-2
2.207140204E1,-1.437018216E-1,-1.175880991E-2,8.758022636E-2
2.209151183E1,-1.753131598E-1,-5.772506446E-2,3.520007432E-2
2.211162162E1,2.031067200E-2,-1.985253533E-3,-2.237228118E-2
2.213173141E1,1.896680743E-1,-4.123219103E-2,-9.842276573E-2
2.215184125E1,2.870982140E-2,-1.392731816E-1,-9.338327497E-2
2.217195105E1,-1.736333370E-1,-3.619270027E-2,-3.741439432E-3
2.219206084E1,-2.264716178E-1,1.343863904E-1,-5.879404955E-3
2.221217063E1,-9.575030953E-2,1.252236813E-1,-1.336228382E-2
2.223228042E1,1.976090819E-1,3.054236295E-4,-8.628217503E-3
2.225239026E1,3.901786804E-1,-1.296523362E-1,-3.871244565E-2
2.227250006E1,2.444916219E-1,-2.585411072E-1,-1.034622565E-1
2.229260985E1,-2.901524538E-3,-2.557922900E-1,-1.770693511E-1
2.231271964E1,-7.055285573E-2,-1.094943732E-1,-1.341573298E-1
2.233282948E1,-4.214845970E-2,2.687728032E-2,-1.688229144E-1
2.235293928E1,-4.871506989E-2,-5.344913527E-2,-1.885227412E-1
2.237304907E1,-5.543438718E-2,-1.574458778E-1,-1.269798726E-1
2.239315886E1,-5.558710173E-2,-3.002314270E-1,-6.803311408E-2
2.241326870E1,-2.536543310E-1,-5.347967744E-1,-1.479013860E-1
2.243337849E1,-5.363239050E-1,-2.675510943E-1,-2.149418741E-1
2.245348829E1,-6.365028620E-1,1.702736765E-1,-2.946574390E-1
2.247359808E1,-4.636330605E-1,3.362714052E-1,-3.641413152E-1
2.249370792E1,-1.278197914E-1,3.003841341E-1,-3.174115121E-1
2.251381771E1,2.990097404E-1,2.513636351E-1,-2.074590027E-1
2.253392750E1,7.046123147E-1,9.468132257E-2,-1.127776727E-1
2.255403730E1,9.257390499E-1,-2.020377368E-1,-3.474193811E-2
2.257414714E1,8.331956863E-1,-3.617742956E-1,-3.687990457E-2
2.259425693E1,4.344651103E-1,-2.105895877E-1,-1.712663025E-1
2.261436672E1,-9.712471068E-2,7.803573459E-2,-3.812450469E-1
2.263447651E1,-4.729484916E-1,2.266243398E-1,-5.104392171E-1
2.265458636E1,-5.329642296E-1,2.012741715E-1,-4.977641702E-1
2.267469615E1,-3.344388604E-1,1.716480851E-1,-3.983487785E-1
2.269480594E1,-2.565558441E-2,1.162136942E-1,-2.537306845E-1
2.271491573E1,2.530434728E-1,5.848862603E-2,-1.338519007E-1
2.273502558E1,3.758237660E-1,2.443389036E-2,-1.110978425E-1
2.275513537E1,2.939702570E-1,5.894676223E-2,-1.523300409E-1
2.277524516E1,7.605048269E-2,1.418692768E-1,-1.982962936E-1
2.279535495E1,-1.655396074E-1,1.620272398E-1,-2.580066025E-1
2.281546480E1,-3.067980409E-1,8.506047726E-2,-2.696126997E-1
2.283557459E1,-2.472404242E-1,3.802524135E-2,-1.882173121E-1
2.285568438E1,-3.512371704E-2,8.322793990E-2,-7.062921673E-2
2.287579417E1,1.801999360E-1,6.306997687E-2,1.504211407E-2
2.289590401E1,2.790044844E-1,-3.756710514E-2,4.039227590E-2
2.291601381E1,2.496838123E-1,-5.787777901E-2,1.519482583E-2
2.293612360E1,1.111742035E-1,2.611372061E-2,-3.229855001E-2
2.295623339E1,-7.330167294E-2,7.207997888E-2,-5.489989743E-2
2.297634323E1,-1.653869003E-1,1.047603041E-1,-4.314108938E-2
2.299645302E1,-8.964183182E-2,1.980672181E-1,-1.550024934E-2
2.301656282E1,5.818320066E-2,2.163926363E-1,2.206685767E-2
2.303667261E1,1.507265568E-1,1.143811494E-1,7.353074104E-2
2.305678245E1,1.409530044E-1,4.245388508E-2,1.114032716E-1
2.307689224E1,7.192726433E-2,1.177408099E-1,1.367534250E-1
2.309700204E1,-9.315420873E-3,1.849340051E-1,1.703500301E-1
2.311711183E1,-7.574506104E-2,1.084253844E-2,1.877591759E-1
2.313722167E1,-1.278197914E-1,-7.971556485E-2,2.089861184E-1
2.315733146E1,-2.070772201E-1,-2.082989216E-1,2.506764531E-1
2.317744125E1,-4.663818777E-1,-6.545228362E-1,1.321720779E-1
2.319755105E1,-6.795675755E-1,-5.558710098E-1,1.336228382E-2
2.321766089E1,-5.734328628E-1,2.151709497E-1,-7.475243509E-2
2.323777068E1,-1.197260618E-1,9.359707236E-1,1.656923257E-2
2.325788047E1,3.141281903E-1,8.771766424E-1,1.712663025E-1
2.327799026E1,5.186093450E-1,2.579302490E-1,3.102340400E-1
2.329810011E1,4.198047817E-1,-4.489727318E-1,2.529671192E-1
2.331820990E1,1.669140160E-1,-7.314895988E-1,1.828723997E-1
2.333831969E1,9.315420873E-3,-4.167505503E-1,2.245627195E-1
2.335842948E1,-6.826218218E-2,8.399149403E-3,1.986017078E-1
2.337853933E1,-1.414111406E-1,1.437018216E-1,1.723352820E-1
2.339864912E1,-1.777565479E-1,1.015533581E-1,1.767639220E-1
2.341875891E1,-8.047912270E-2,6.719319522E-2,2.164690048E-1
2.343886870E1,1.168245375E-1,1.096470803E-1,2.806079686E-1
2.345897855E1,2.583884001E-1,1.313321590E-1,3.251998127E-1
2.347908834E1,2.515163720E-1,5.375456065E-2,3.158843815E-1
2.349919813E1,1.067455560E-1,-8.108997345E-2,2.573957741E-1
2.351930792E1,-5.741964281E-2,-1.302631795E-1,2.037939131E-1
2.353941776E1,-1.224748790E-1,-6.062658876E-2,1.743205339E-1
2.355952756E1,-7.391251624E-2,2.183778957E-2,1.717244387E-1
2.357963735E1,-9.620844387E-3,2.321219631E-2,1.709608734E-1
2.359974714E1,2.137965523E-3,-1.954711229E-2,1.282015741E-1
2.361985698E1,-5.894676223E-2,-5.772506446E-2,4.986040667E-2
2.363996678E1,-1.476723254E-1,-4.611896724E-2,5.421269219E-3
2.366007657E1,-1.989834905E-1,-1.924168877E-2,-4.199574701E-3
2.368018641E1,-1.725643575E-1,-1.053711493E-2,5.115845706E-3
2.370029620E1,-8.689302206E-2,-5.833591148E-2,1.595838554E-2
2.372040599E1,1.527118124E-2,-1.882936656E-1,2.939702384E-2
2.374051579E1,6.734590977E-2,-3.049654961E-1,2.053973824E-2
2.376062563E1,5.238015205E-2,-2.982461751E-1,-6.032116711E-3
2.378073542E1,7.024743594E-3,-2.279987335E-1,-6.055023521E-2
2.380084521E1,-4.886778072E-3,-1.740914769E-2,-1.130831018E-1
2.382095500E1,4.291202128E-2,9.407047927E-2,-1.063637808E-1
2.384106485E1,-2.046338283E-2,-1.317902952E-1,-1.026986986E-1
2.386117464E1,-2.107423097E-1,-2.976353168E-1,-1.352263093E-1
2.388128443E1,-4.602734149E-1,-6.143596172E-1,-3.206184506E-1
2.390139422E1,-7.139277458E-1,-5.002838969E-1,-6.025244594E-1
2.392150407E1,-9.177216291E-1,3.871244490E-1,-7.014816999E-1
2.394161386E1,-9.117658734E-1,1.303853512E0,-5.134934783E-1
2.396172365E1,-6.478035450E-1,1.550024867E0,-1.375169903E-1
2.398183344E1,-2.011214644E-1,9.271134138E-1,2.227301747E-1
2.400194329E1,3.199312389E-1,-8.612946421E-2,3.639886081E-1
2.402205308E1,6.722373962E-1,-8.198333979E-1,1.537044346E-1
2.404216287E1,6.119162440E-1,-9.363524914E-1,-1.782910377E-1
2.406227266E1,1.447708011E-1,-5.836645365E-1,-3.465794623E-1
2.408238250E1,-3.576510847E-1,1.168245375E-1,-3.623087704E-1
2.410249230E1,-5.263976455E-1,6.759024858E-1,-2.100550979E-1
2.412260209E1,-2.661767006E-1,7.172874212E-1,5.505260825E-2
2.414271188E1,2.263189107E-1,3.726168275E-1,2.378486544E-1
2.416282172E1,6.951441765E-1,5.558710173E-2,2.796916962E-1
2.418293151E1,8.684720993E-1,-7.650861889E-2,1.911188364E-1
2.420304131E1,6.772769094E-1,-1.102579311E-1,1.005607322E-1
2.422315110E1,2.506000996E-1,-7.864658535E-2,5.367820337E-2
2.424326094E1,-1.559187621E-1,1.267508045E-2,1.504211407E-2
2.426337073E1,-3.422271907E-1,1.754658818E-1,-6.642963737E-3
2.428348052E1,-3.020639718E-1,2.713688910E-1,2.924431302E-2
2.430359032E1,-1.133121699E-1,2.545706034E-1,1.097234413E-1
2.432370016E1,1.010952219E-1,1.979145110E-1,1.674485058E-1
2.434380995E1,2.420482337E-1,1.852394342E-1,2.124984860E-1
2.436391974E1,2.185306102E-1,1.658450365E-1,1.920351088E-1
2.438402954E1,3.588727489E-2,1.122431830E-1,1.544679999E-1
2.440413938E1,-1.418692768E-1,1.015533581E-1,1.761530787E-1
2.442424917E1,-1.925695986E-1,1.299577504E-1,1.996707022E-1
2.444435896E1,-1.345391124E-1,1.415638477E-1,2.152473032E-1
2.446446875E1,-1.908897609E-2,1.349972486E-1,2.457896620E-1
2.448457860E1,7.666133344E-2,9.666658193E-2,2.416664511E-1
2.450468839E1,1.232384369E-1,1.279724985E-1,1.915769726E-1
2.452479818E1,8.383878320E-2,1.559187621E-1,1.431673318E-1
2.454490797E1,-3.405473381E-2,1.559187621E-1,1.376696974E-1
2.456501782E1,-2.075353563E-1,-4.413371533E-2,1.492757946E-1
2.458512761E1,-4.040754735E-1,-2.599155009E-1,1.674485058E-1
2.460523740E1,-6.329904795E-1,-5.230379701E-1,1.445417255E-1
2.462534724E1,-7.084301114E-1,-5.812211633E-1,9.093988687E-2
2.464545704E1,-3.955236077E-1,-5.558710173E-2,9.399411827E-2
2.466556683E1,1.685938388E-1,4.419479966E-1,1.530935913E-1
2.468567662E1,6.516213417E-1,5.155550838E-1,2.438044101E-1
2.470578641E1,9.092461467E-1,3.655920923E-1,3.131355643E-1
2.472589625E1,8.683193922E-1,1.575985998E-1,3.119138777E-1
2.474600605E1,5.112791657E-1,-2.664821148E-1,2.842730284E-1
2.476611584E1,-1.374406274E-3,-7.090409398E-1,2.874799967E-1
2.478622563E1,-4.150707126E-1,-7.230904698E-1,2.679328918E-1
2.480633547E1,-7.295043468E-1,-4.558447599E-1,1.007134393E-1
2.482644526E1,-8.392277956E-1,1.382041872E-1,-5.169294775E-2
2.484655506E1,-5.299099684E-1,7.287407517E-1,3.092414327E-2
2.486666490E1,-2.458660305E-2,7.725690603E-1,2.494547516E-1
2.488677469E1,3.802524209E-1,4.100312293E-1,4.860053360E-1
2.490688448E1,5.871769190E-1,2.596100792E-2,6.162685156E-1
2.492699428E1,5.207473040E-1,-1.159082651E-1,5.015819669E-1
2.494710407E1,2.522799075E-1,-1.293469071E-1,3.458158970E-1
2.496721391E1,-4.107947648E-2,-7.360709459E-2,2.598391473E-1
2.498732370E1,-2.012741715E-1,-2.489202656E-2,2.347944081E-1
2.500743349E1,-1.763821393E-1,-7.024743594E-3,2.447206825E-1
2.502754328E1,-2.580829710E-2,-2.626643144E-2,2.468586415E-1
2.504765313E1,1.337755471E-1,-5.176930502E-2,2.175379843E-1
2.506776292E1,1.722589284E-1,-9.132166207E-2,1.465269923E-1
2.508787271E1,5.757235363E-2,-8.689302206E-2,7.154548168E-2
2.510798250E1,-9.483403713E-2,-3.451287001E-2,3.092414327E-2
2.512809235E1,-1.737860441E-1,2.137965336E-2,1.320957206E-2
2.514820214E1,-1.212531775E-1,2.916795574E-2,8.322793990E-3
2.516831193E1,1.725643501E-2,-3.054236248E-2,-7.406522986E-3
2.518842172E1,1.223221645E-1,-1.611109674E-1,-4.451549426E-2
2.520853157E1,1.262926757E-1,-2.783936262E-1,-9.903360903E-2
2.522864136E1,4.046862945E-2,-2.796153426E-1,-1.598129123E-1
2.524875115E1,-7.803573459E-2,-2.492256761E-1,-2.102078199E-1
2.526886094E1,-1.440072358E-1,-2.903051674E-1,-2.037939131E-1
2.528897078E1,-1.169772521E-1,-3.452814221E-1,-1.156791970E-1
2.530908058E1,-2.015795931E-2,-3.515425920E-1,3.749075159E-2
2.532919037E1,-3.603998944E-2,-7.458444834E-1,-1.504211407E-2
2.534930016E1,-1.945548505E-1,-8.328138590E-1,-2.395284772E-1
2.536940995E1,-2.819060087E-1,-4.396573007E-1,-3.687226772E-1
2.538951980E1,-1.895153672E-1,9.620844387E-3,-4.556156993E-1
2.540962959E1,1.331647038E-1,3.495573401E-1,-4.244624972E-1
2.542973938E1,5.854970813E-1,4.399627447E-1,-2.977116704E-1
2.544984917E1,9.779664874E-1,2.336490750E-1,-1.843995154E-1
2.546995901E1,1.183211088E0,-1.693574041E-1,-5.199837312E-2
2.549006881E1,1.183669329E0,-4.705050886E-1,6.436803192E-2
2.551017860E1,1.000262380E0,-5.716003180E-1,7.566870749E-2
2.553028839E1,5.832064152E-1,-5.166240931E-1,-9.552124143E-2
2.555039823E1,-7.314895838E-2,-2.774773538E-1,-4.339306355E-1
2.557050803E1,-7.705074549E-1,3.955236077E-2,-7.642462850E-1
2.559061782E1,-1.142971635E0,4.269822240E-1,-8.170845509E-1
2.561072761E1,-1.039280295E0,7.238540053E-1,-5.680115819E-1
2.563083740E1,-5.662553906E-1,7.229377031E-1,-1.802763045E-1
2.565094724E1,2.748812549E-3,4.770717025E-1,1.169008911E-1
2.567105704E1,4.043808877E-1,2.188360244E-1,1.874537468E-1
2.569116683E1,4.839437306E-1,1.679829881E-2,4.756972939E-2
2.571127662E1,2.449497581E-1,-5.222744122E-2,-1.292705536E-1
2.573138646E1,-1.808107942E-1,1.679830020E-3,-1.917296797E-1
2.575149625E1,-4.908157587E-1,1.667613089E-1,-7.551599294E-2
2.577160605E1,-5.222744346E-1,2.979407609E-1,7.383616269E-2
2.579171584E1,-3.206948042E-1,3.633013964E-1,1.753895134E-1
2.581182563E1,-3.145863488E-2,3.174878657E-1,2.210503519E-1
2.583193547E1,1.742441803E-1,2.191414535E-1,2.066954374E-1
2.585204526E1,2.226538211E-1,1.663031727E-1,2.070008665E-1
2.587215506E1,1.284306347E-1,1.652341783E-1,2.292967886E-1
2.589226485E1,-5.176930502E-2,1.507265568E-1,2.343362868E-1
2.591237469E1,-1.905843467E-1,1.563768983E-1,2.430408597E-1
2.593248448E1,-1.817270666E-1,1.783674061E-1,2.494547516E-1
2.595259428E1,-9.300149232E-2,1.417165697E-1,2.076117098E-1
2.597270407E1,-2.733541466E-2,1.102579311E-1,1.440836042E-1
2.599281386E1,-9.926267900E-3,1.250709742E-1,1.028514057E-1
2.601292370E1,-3.069507517E-2,1.522536725E-1,9.994988143E-2
2.603303349E1,-4.886778072E-2,2.069245130E-1,1.434727460E-1
2.605314328E1,-3.206948191E-2,3.020639718E-1,2.280751020E-1
2.607325308E1,-6.536065787E-2,2.270824611E-1,2.891598344E-1
2.609336287E1,-2.310529798E-1,-7.223268598E-2,2.674747407E-1
2.611347271E1,-5.057815313E-1,-2.556395829E-1,1.995179802E-1
2.613358250E1,-7.996754050E-1,-3.805578351E-1,9.704835713E-2
2.615369230E1,-8.193752170E-1,-2.151709497E-1,3.489464894E-2
2.617380209E1,-4.158342779E-1,2.360924631E-1,7.154548168E-2
2.619391188E1,1.362189353E-1,5.245651007E-1,2.050156146E-1
2.621402172E1,5.908420086E-1,6.226060390E-1,3.942255378E-1
2.623413151E1,9.486457705E-1,7.137750387E-1,5.428141356E-1
2.625424131E1,1.085475564E0,6.545228362E-1,5.805339813E-1
2.627435110E1,8.310576677E-1,1.336228400E-1,5.855734348E-1
2.629446089E1,3.494046330E-1,-8.028823733E-1,6.353574991E-1
2.631457073E1,-8.460234851E-2,-1.520627856E0,5.498389006E-1
2.633468053E1,-4.811949134E-1,-1.490085483E0,3.497864008E-1
2.635479032E1,-6.126797795E-1,-4.504998624E-1,1.440836042E-1
2.637490011E1,-2.383831441E-1,7.844805717E-1,9.109259397E-2
2.639500990E1,2.203631550E-1,9.562813640E-1,1.821088344E-1
2.641511974E1,4.598152637E-1,2.906105816E-1,4.316399395E-1
2.643522954E1,5.299099684E-1,-2.643441558E-1,5.686224699E-1
2.645533933E1,4.868452549E-1,-2.803788781E-1,4.102602899E-1
2.647544912E1,2.948864996E-1,-1.517955512E-1,1.886754483E-1
2.649555891E1,2.061609551E-2,-4.520269856E-2,6.528430432E-2
2.651566875E1,-1.895153672E-1,-3.619270027E-2,-5.573981442E-3
2.653577855E1,-2.199050188E-1,-6.872031838E-2,-5.993938819E-2
2.655588834E1,-5.757235363E-2,-1.123958975E-1,-8.666395396E-2
2.657599813E1,1.866138428E-1,-1.554606259E-1,-1.059056446E-1
2.659610792E1,3.587200642E-1,-9.804098308E-2,-1.352263093E-1
2.661621771E1,3.129065037E-1,-1.801999360E-1,-1.969218850E-1
2.663632756E1,-2.137965523E-3,-4.512633979E-1,-3.308501542E-1
2.665643735E1,-2.808370292E-1,-1.310267299E-1,-4.076641798E-1
2.667654714E1,-3.426853120E-1,3.483356535E-1,-3.925457299E-1
2.669665693E1,-2.547233105E-1,2.591519356E-1,-3.264214993E-1
2.671676672E1,-9.910997003E-2,-8.093725890E-3,-2.121930718E-1
2.673687657E1,8.353336155E-2,2.641914412E-2,-1.862320602E-1
2.675698636E1,2.206685692E-1,7.040014863E-2,-2.251735777E-1
2.677709615E1,2.351761907E-1,-1.252236869E-2,-1.802763045E-1
2.679720594E1,1.324011385E-1,-4.795150831E-2,-1.385859698E-1
2.681731573E1,-1.053711493E-2,-9.162709117E-3,-1.834832430E-1
2.683742552E1,-1.472141892E-1,-8.368607610E-2,-2.427354306E-1
2.685753537E1,-2.134911120E-1,-1.795890927E-1,-2.561740577E-1
2.687764516E1,-1.664558798E-1,-1.099525094E-1,-2.346417010E-1
2.689775495E1,-5.192201585E-2,5.039489828E-3,-1.865374744E-1
2.691786474E1,2.626643144E-2,3.268032894E-2,-1.523300409E-1
2.693797454E1,-1.832541777E-3,-2.183778957E-2,-1.793600321E-1
2.695808433E1,-9.849911928E-2,-6.765133142E-2,-2.213557810E-1
2.697819417E1,-1.791309565E-1,-4.107947648E-2,-2.218139172E-1
2.699830396E1,-1.583621502E-1,2.137965336E-2,-1.593547761E-1
2.701841375E1,-2.305948362E-2,2.947338112E-2,-8.788564801E-2
2.703852355E1,6.230641901E-2,-1.527118147E-3,-7.857023180E-2
2.705863334E1,3.359660041E-3,-4.581354558E-3,-8.880192041E-2
2.707874313E1,-1.244601309E-1,3.023693897E-2,-1.028514057E-1
2.709885297E1,-1.913478971E-1,3.848337755E-2,-9.903360903E-2
2.711896276E1,-1.679829955E-1,5.971032009E-2,-8.101361990E-2
2.713907256E1,-1.030804738E-1,7.941014320E-2,-7.017108053E-2
2.715918235E1,-4.413371533E-2,3.176405653E-2,-6.528430432E-2
2.717929214E1,-1.236965694E-2,-5.741964281E-2,-5.108210072E-2
2.719940193E1,-1.817270555E-2,-9.636115283E-2,-8.223531395E-2
2.721951172E1,-5.375456065E-2,-4.810422286E-2,-1.052947938E-1
2.723962157E1,-7.864658535E-2,1.496575773E-2,-8.895463496E-2
2.725973136E1,-4.718795046E-2,5.436540768E-2,-6.161921844E-2
2.727984115E1,3.542914242E-2,4.902049154E-2,-4.405735806E-2
2.729995094E1,1.055238619E-1,-3.970507067E-3,-4.863871261E-2
2.732006073E1,1.291942000E-1,-6.963659078E-2,-6.055023521E-2
2.734017052E1,9.727742523E-2,-9.804098308E-2,-6.314633787E-2
2.736028032E1,1.908897609E-2,-6.459710002E-2,-4.756972939E-2
2.738039011E1,-5.909947306E-2,-1.756185852E-2,-3.184041381E-2
2.740049995E1,-8.154810965E-2,3.924693540E-2,-1.137703005E-2
2.742060974E1,-7.192726433E-2,5.161659420E-2,-8.475505747E-3
2.744071954E1,-3.771981969E-2,2.733541466E-2,-1.366770733E-2
2.746082933E1,2.046338283E-2,-2.290677279E-3,-1.244601328E-2
2.748093912E1,5.161659420E-2,-2.031067200E-2,-8.933641016E-3
2.750104891E1,2.489202656E-2,1.145338640E-2,-2.008160390E-2
2.752115870E1,-5.757235363E-2,9.575030953E-2,-3.642176837E-2
2.754126849E1,-1.046075895E-1,9.651386738E-2,-3.611634299E-2
2.756137834E1,-1.010952219E-1,8.170082420E-2,-3.260397166E-2
2.758148813E1,-5.619794875E-2,5.757235363E-2,-1.672194339E-2
2.760159792E1,2.290677279E-3,3.573456407E-2,-1.061347127E-2
2.762170771E1,3.359659761E-2,3.970507067E-3,-1.908897655E-3
2.764181750E1,3.252761811E-2,-3.054236295E-3,-2.519744914E-3
2.766192730E1,1.084253844E-2,-9.162708884E-4,-3.283303929E-3
2.768203709E1,-1.038440317E-2,2.748812735E-2,1.320957206E-2
2.770214688E1,-2.596100792E-3,4.413371533E-2,3.474193811E-2
2.772225667E1,3.542914242E-2,4.337015375E-2,4.054498672E-2
2.774236651E1,5.131116882E-2,1.527118147E-4,2.389939874E-2
2.776247631E1,4.153761268E-2,-9.468132630E-3,1.672194339E-2
2.778258610E1,2.397575416E-2,1.068982668E-2,1.550024934E-2
2.780269589E1,-4.581354558E-3,2.336490713E-2,1.259872504E-2
2.782280568E1,-3.359659761E-2,7.941014133E-3,-4.504998680E-3
2.784291547E1,-4.963133857E-2,-6.261184346E-3,-2.160872146E-2
2.786302526E1,-4.413371533E-2,6.566607859E-3,-1.779092662E-2
2.788313506E1,-2.718270384E-2,1.374406368E-2,-1.580567285E-2
2.790324485E1,-6.108472589E-3,1.221694518E-3,-1.992889121E-2
2.792335464E1,1.084253844E-2,-1.618745178E-2,-2.695363574E-2
2.794346448E1,1.954711229E-2,-1.695101149E-2,-2.481566928E-2
2.796357428E1,1.221694518E-2,1.206423342E-2,-1.458397787E-2
2.798368407E1,-4.734066315E-3,2.443389036E-2,-1.298050396E-3
2.800379386E1,-5.344913341E-3,-1.527118147E-4,-2.290677221E-4
2.802390365E1,1.007897966E-2,-1.832541823E-2,-1.366770733E-2
2.804401344E1,1.175880991E-2,-3.130592033E-2,-2.634278871E-2
2.806412323E1,-7.330167107E-3,-2.672456764E-2,-2.603736520E-2
2.808423303E1,-1.420219894E-2,-8.246437646E-3,-1.611109637E-2
2.810434282E1,-1.542389300E-2,6.566607859E-3,-2.481566928E-2
2.812445261E1,-2.260134928E-2,2.641914412E-2,-2.466295846E-2
2.814456240E1,-2.702999115E-2,5.192201585E-3,-2.634278871E-2
2.816467219E1,4.123218823E-3,-2.443389036E-2,-3.367295489E-2
2.818478198E1,3.787253052E-2,-3.176405653E-2,-3.978142887E-2
2.820489178E1,1.908897609E-2,-8.246437646E-3,-3.092414327E-2
2.822500157E1,-4.306473210E-2,6.108472589E-4,-1.382041909E-2
2.824511141E1,-7.070557028E-2,-7.941014133E-3,1.626380906E-2
2.826522120E1,-2.443389036E-2,1.847812906E-2,3.321481869E-2
2.828533099E1,3.466558084E-2,3.420744836E-2,3.046600707E-2
2.830544079E1,5.726693198E-2,-1.023169141E-2,3.199312463E-2
2.832555058E1,5.192201585E-2,-2.519745007E-2,2.496838197E-2
2.834566037E1,4.306473210E-2,9.315420873E-3,2.466295846E-2
2.836577016E1,3.878879920E-2,2.290677279E-2,2.817532979E-2
2.838587995E1,2.260134928E-2,6.108472589E-3,1.901262067E-2
2.840598974E1,-4.886778072E-3,-9.926267900E-3,2.252499200E-2
2.842609954E1,-2.412846684E-2,-4.428642802E-3,3.642176837E-2
2.844620933E1,-3.634541109E-2,3.436015919E-2,4.023956135E-2
2.846631912E1,-4.001049697E-2,3.542914242E-2,4.298837483E-2
2.848642891E1,-3.100049868E-2,5.955760833E-3,3.382566571E-2
2.850653870E1,-1.817270555E-2,-9.162709117E-3,1.840177365E-2
2.852664849E1,-2.000524849E-2,6.719320081E-3,1.641651988E-2
2.854675829E1,-1.801999472E-2,8.093725890E-3,2.160872146E-2
2.856686808E1,1.114796288E-2,1.924168877E-2,1.824906096E-2
2.858697787E1,3.878879920E-2,3.512371704E-2,8.475505747E-3
2.860708766E1,4.123219103E-2,3.466558084E-2,6.642963737E-3
2.862719745E1,2.733541466E-2,1.969982497E-2,-1.298050396E-3
2.864730724E1,1.542389300E-2,1.664558798E-2,-9.239064530E-3
2.866741704E1,1.236965694E-2,1.252236869E-2,-6.337540224E-3
2.868752683E1,1.175880991E-2,-2.901524538E-3,-4.046862945E-3
2.870763662E1,1.542389300E-2,2.061609551E-2,2.672456671E-3
2.872774641E1,1.435491070E-2,4.184303805E-2,1.091889478E-2
2.874785620E1,8.246437646E-3,2.657185495E-2,1.091889478E-2
2.876796599E1,4.123218823E-3,1.068982761E-3,-5.726693198E-3
2.878807578E1,3.817795310E-3,-0.000000000E0,-1.473669056E-2
2.880818558E1,7.024743594E-3,2.168507688E-2,-1.046075951E-2
2.882829537E1,7.330167107E-3,-1.236965694E-2,-1.397313084E-2
2.884840516E1,1.450762246E-2,-4.520269856E-2,-2.252499200E-2
2.886851495E1,2.168507688E-2,-2.809897438E-2,-2.557922900E-2
2.888862474E1,-3.054236295E-3,1.771457121E-2,-1.763821393E-2
2.890873454E1,-3.405473381E-2,3.420744836E-2,-7.406522986E-3
2.892884433E1,-3.741439432E-2,1.084253844E-2,-1.137703005E-2
2.894895412E1,-2.748812549E-3,4.428642802E-3,-4.352286924E-3
2.896906391E1,2.137965336E-2,-1.145338640E-2,-8.017370477E-3
2.898917370E1,2.137965523E-3,-2.183778957E-2,-1.107160654E-2
2.900928349E1,-2.061609551E-2,1.206423342E-2,-1.091889478E-2
2.902939328E1,-7.024743594E-3,5.299099907E-2,-5.726693198E-3
2.904950308E1,2.305948362E-2,3.741439432E-2,-9.926267667E-4
2.906961287E1,4.016320780E-2,-7.635590737E-4,-5.115845706E-3
2.908972266E1,3.955236077E-2,-7.024743594E-3,-1.595838554E-2
2.910983245E1,1.023169141E-2,-7.635590620E-3,-2.405211143E-2
2.912994224E1,-2.672456764E-2,-1.985253533E-3,-2.435753495E-2
2.915005204E1,-4.046862945E-2,2.382304333E-2,-3.107685409E-2
2.917016183E1,-2.962609194E-2,3.390202299E-2,-3.443651274E-2
2.919027162E1,-2.244863659E-2,1.374406368E-2,-2.741177008E-2
2.921038141E1,-5.803049076E-3,1.679830020E-3,-2.145601064E-2
2.923049120E1,1.695101149E-2,1.527118147E-4,-2.649549954E-2
2.925060099E1,2.351761982E-2,-2.443389036E-3,-2.557922900E-2
2.927071079E1,7.482878864E-3,-6.261184346E-3,-2.252499200E-2
2.929082058E1,-4.428642802E-3,1.221694518E-2,-2.298312820E-2
2.931093037E1,2.443389036E-3,2.076880634E-2,-2.191414498E-2
2.933104016E1,9.773556143E-3,8.246437646E-3,-1.977618039E-2
2.935114995E1,5.803049076E-3,-1.038440317E-2,-1.641651988E-2
2.937125974E1,-6.413896102E-3,1.068982761E-3,-1.550024934E-2
2.939136954E1,-2.351761982E-2,1.099525020E-2,-1.748550311E-2
2.941147928E1,-2.137965336E-2,4.581354558E-3,-1.290414855E-2
2.943158907E1,3.054236295E-4,4.275931045E-3,-3.122956678E-2
2.945169886E1,1.374406368E-2,-3.054236295E-4,-4.146125913E-2
2.947180865E1,2.901524538E-3,-6.872031838E-3,-2.619007602E-2
2.949191844E1,-1.679830020E-3,2.794626169E-2,-6.948387716E-3
2.951202823E1,2.092151903E-2,3.298575059E-2,-1.030804776E-2
2.953213803E1,4.016320780E-2,-1.603474095E-2,-1.931804419E-2
2.955224782E1,4.199574888E-2,-3.863608837E-2,-1.809635013E-2
2.957235761E1,2.779355086E-2,-1.542389300E-2,-9.697199799E-3
2.959246740E1,2.901524538E-3,9.162709117E-3,7.253811229E-3
2.961257719E1,-2.107422985E-2,2.748812549E-3,1.397313084E-2
2.963268693E1,-1.695101149E-2,-1.924168877E-2,8.017370477E-3
2.965279678E1,1.527118147E-3,-2.321219631E-2,-1.756185899E-3
2.967290651E1,1.298050396E-2,-2.137965336E-2,-7.101099472E-3
2.969301631E1,3.665083554E-3,-1.847812906E-2,-1.412584260E-2
2.971312610E1,-3.512371797E-3,-1.527118147E-3,-1.443126611E-2
2.973323589E1,-2.901524538E-3,-1.527118147E-4,-2.970244735E-2
2.975334568E1,-6.261184346E-3,-2.428117767E-2,-1.748550311E-2
2.977345547E1,-1.740914769E-2,-1.893626526E-2,-3.283303929E-3
2.979356526E1,-2.932066843E-2,-1.221694518E-3,-5.421269219E-3
2.981367506E1,-3.573456407E-2,4.428642802E-3,-5.726693198E-3
2.983378485E1,-4.199574888E-2,-7.482878864E-3,-1.382041909E-2
2.985389464E1,-4.627167806E-2,-1.878355257E-2,-1.656923257E-2
2.987400438E1,-4.627167806E-2,-1.954711229E-2,-1.504211407E-2
2.989411417E1,-3.695625812E-2,-1.359135192E-2,-1.901262067E-2
2.991422396E1,-1.725643501E-2,-1.832541777E-3,2.557922900E-2
2.993433375E1,-1.343864016E-2,1.924168877E-2,8.406785131E-2
2.995444355E1,3.512371797E-3,3.802524135E-2,6.116108224E-2
2.997455334E1,4.611896724E-2,2.764083818E-2,2.985516004E-2
2.999466313E1,7.131642103E-2,1.007897966E-2,-6.490251981E-3
3.001477287E1,2.473931387E-2,7.177455351E-3,-1.809635013E-2
3.003488266E1,-8.002099395E-2,1.466033421E-2,-1.382041909E-2
3.005499245E1,-1.394258887E-1,3.680354729E-2,-8.399150101E-4
3.007510224E1,-8.887827396E-2,5.192201585E-2,1.611109637E-2
3.009521204E1,3.665083647E-2,5.726693198E-2,3.290939704E-2
3.011532183E1,1.267508119E-1,2.321219631E-2,1.458397787E-2
3.013543162E1,9.910997003E-2,-3.817795310E-3,-2.725905925E-2
3.015554136E1,6.872031838E-3,1.893626526E-2,-4.069769755E-2
3.017565115E1,-5.803048983E-2,3.145863488E-2,-3.764346242E-2
3.019576094E1,-5.207473040E-2,5.192201585E-3,-1.916533336E-2
3.021587073E1,4.428642802E-3,-1.908897609E-2,6.337540224E-3
3.023598053E1,4.611896724E-2,-3.054236295E-4,2.313583903E-2
3.025609032E1,3.451287001E-2,-6.261184346E-3,3.229855001E-2
3.027620011E1,5.955760833E-3,-3.497100621E-2,4.008685052E-2
3.029630985E1,-1.221694518E-3,-4.718795046E-2,2.878617682E-2
3.031641964E1,5.497625098E-3,-4.886778072E-2,1.183516532E-2
3.033652943E1,1.466033421E-2,-5.680879578E-2,-1.908897655E-3
3.035663922E1,1.328592747E-2,-3.756710514E-2,-8.628217503E-3
3.037674901E1,8.857285604E-3,2.565558441E-2,-3.436015919E-3
3.039685881E1,4.428642802E-3,5.650337320E-3,6.032116711E-3
3.041696855E1,1.206423342E-2,-3.176405653E-2,-4.046862945E-3
3.043707834E1,2.305948362E-2,-1.481304597E-2,-1.336228382E-2
3.045718813E1,9.315420873E-3,-1.068982761E-3,-9.391776286E-3
3.047729792E1,-3.161134571E-2,-1.511846948E-2,-9.544488043E-3
3.049740771E1,-6.062658876E-2,-1.099525020E-2,-1.046075951E-2
3.051751745E1,-5.543438718E-2,5.344913341E-3,-5.573981442E-3
3.053762724E1,-3.390202299E-2,2.580829710E-2,1.015533600E-2
3.055773704E1,-1.389677543E-2,2.626643144E-2,1.718007959E-2
3.057784683E1,-3.206948051E-3,1.191152167E-2,1.168245357E-2
3.059795662E1,9.620844387E-3,-1.068982668E-2,7.711946499E-3
3.061806636E1,2.702999115E-2,-2.611372061E-2,7.559234742E-3
3.063817615E1,2.764083818E-2,-1.038440317E-2,1.450762269E-3
3.065828594E1,1.466033421E-2,1.863084175E-2,7.406522986E-3
3.067839573E1,2.901524538E-3,1.221694518E-3,1.137703005E-2
3.069850552E1,1.282779220E-2,-1.588202827E-2,1.298050396E-3
3.071861526E1,4.031591862E-2,-1.863084175E-2,-9.849912487E-3
3.073872506E1,5.146388337E-2,-1.023169141E-2,-1.672194339E-2
3.075883485E1,3.573456407E-2,-0.000000000E0,-2.557922900E-2
3.077894464E1,9.773556143E-3,1.053711493E-2,-2.741177008E-2
3.079905443E1,-3.665083554E-3,1.634016447E-2,-1.977618039E-2
3.081916417E1,1.527118147E-4,8.857285604E-3,-2.160872146E-2
3.083927396E1,1.588202827E-2,-1.084253844E-2,-2.481566928E-2
3.085938375E1,1.068982668E-2,-3.405473381E-2,-2.283041552E-2
3.087949355E1,-1.649287529E-2,-3.237490356E-2,-8.780929260E-3
3.089960328E1,-3.451287001E-2,-2.290677279E-3,-2.290677221E-4
3.091971308E1,-2.825168520E-2,1.878355257E-2,5.879404955E-3
3.093982287E1,-1.221694518E-3,1.267508045E-2,7.406522986E-3
3.095993266E1,1.939439960E-2,-1.572931744E-2,-9.086352773E-3
3.098004240E1,2.000524849E-2,-3.710897267E-2,-2.954973653E-2
3.100015219E1,3.191677108E-2,-2.229592577E-2,-3.184041381E-2
3.102026198E1,5.176930502E-2,-7.482878864E-3,-2.634278871E-2
3.104037172E1,4.932591692E-2,-4.734066315E-3,-2.008160390E-2
3.106048151E1,2.412846684E-2,4.734066315E-3,-1.320957206E-2
3.108059131E1,5.803049076E-3,1.374406368E-2,-4.963133950E-3
3.110070110E1,9.009997360E-3,1.710372418E-2,2.290677221E-4
3.112081084E1,3.084778599E-2,2.733541466E-2,1.122431830E-2
3.114092063E1,3.374931216E-2,2.596100792E-2,1.534753758E-2
3.116103042E1,1.420219894E-2,9.009997360E-3,1.046075951E-2
3.118114021E1,9.315420873E-3,5.955760833E-3,6.184828468E-3
3.120124995E1,2.076880634E-2,5.039489828E-3,5.344913807E-4
3.122135974E1,4.123219103E-2,1.038440317E-2,3.130592173E-3
3.124146954E1,5.176930502E-2,5.650337320E-3,1.000262424E-2
3.126157928E1,2.977880463E-2,-3.206948051E-3,1.198787708E-2
3.128168907E1,2.443389036E-3,1.481304597E-2,5.726693198E-3
3.130179886E1,-1.206423342E-2,3.100049868E-2,2.290677221E-4
3.132190860E1,-1.053711493E-2,2.596100792E-2,4.657710437E-3
3.134201839E1,6.719320081E-3,1.511846948E-2,4.657710437E-3
3.136212818E1,3.115320951E-2,-3.054236295E-4,5.344913807E-4
3.138223797E1,4.138490185E-2,-1.771457121E-2,-6.795675959E-3
3.140234771E1,2.321219631E-2,-2.321219631E-2,-7.406522986E-3
3.142245750E1,5.192201585E-3,-8.246437646E-3,7.406522986E-3
3.144256730E1,4.184303805E-2,-7.788302377E-3,4.665346071E-2
3.146267704E1,9.300149232E-2,1.389677543E-2,7.811209559E-2
3.148278683E1,1.070509851E-1,1.389677543E-2,7.383616269E-2
3.150289662E1,8.719844371E-2,-3.206948191E-2,1.290414855E-2
3.152300636E1,5.940489471E-2,-5.344913527E-2,-3.275668249E-2
3.154311615E1,2.153236605E-2,-1.511846948E-2,-4.237752780E-2
3.156322594E1,-1.343864016E-2,1.603474095E-2,-2.466295846E-2
3.158333568E1,-9.009997360E-3,3.038965166E-2,-3.436015919E-3
3.160344547E1,2.290677279E-2,1.374406368E-2,5.421269219E-3
3.162355526E1,4.153761268E-2,-1.252236869E-2,-6.872031372E-4
3.164366500E1,1.649287529E-2,-1.603474095E-2,-2.115058713E-2
3.166377480E1,-1.832541823E-2,-1.175880991E-2,-3.413109109E-2
3.168388459E1,-1.664558798E-2,3.054236295E-3,-3.077143058E-2
3.170399433E1,7.635590737E-4,1.710372418E-2,-3.779617324E-2
3.172410412E1,-1.557660475E-2,-2.596100792E-3,-5.260922015E-2
3.174421391E1,-4.734066129E-2,-2.351761982E-2,-4.756972939E-2
3.176432365E1,-4.230117425E-2,8.093725890E-3,-2.680092305E-2
3.178443344E1,-1.282779220E-2,1.664558798E-2,-1.091889478E-2
3.180454323E1,-5.344913341E-3,-4.123218823E-3,-9.086352773E-3
3.182465297E1,-1.786728203E-2,-2.748812735E-2,-2.435753495E-2
3.184476276E1,-2.733541466E-2,-3.848337755E-2,-3.290939704E-2
3.186487250E1,-1.099525020E-2,-2.855710872E-2,-2.389939874E-2
3.188498230E1,1.298050396E-2,-1.771457121E-2,-1.626380906E-2
3.190509209E1,1.206423342E-2,-2.748812735E-2,-1.504211407E-2
3.192520183E1,-4.428642802E-3,-3.374931216E-2,-1.305686031E-2
3.194531162E1,-2.748812549E-3,-3.237490356E-2,-1.366770733E-2
3.196542136E1,6.566607859E-3,-4.978405312E-2,-1.152974181E-2
3.198553115E1,7.788302377E-3,-6.047387794E-2,-1.366770733E-2
3.200564094E1,-1.221694518E-2,-2.641914412E-2,-2.069245093E-2
3.202575068E1,-3.069507517E-2,-7.635590737E-4,-2.420482226E-2
3.204586047E1,-1.496575773E-2,-1.695101149E-2,-2.893888950E-2
3.206597021E1,7.330167107E-3,-3.603998944E-2,-3.474193811E-2
3.208608000E1,1.298050396E-2,-2.565558441E-2,-3.703261539E-2
3.210618980E1,6.566607859E-3,-2.015795931E-2,-3.397838026E-2
3.212629954E1,-0.000000000E0,-1.404948719E-2,-2.573194169E-2
3.214640933E1,-4.581354442E-4,-1.191152167E-2,-2.954973653E-2
3.216651907E1,-5.955760833E-3,-2.611372061E-2,-4.756972939E-2
3.218662886E1,-6.566607859E-3,-5.192201585E-3,-4.375193641E-2
3.220673865E1,1.252236869E-2,8.857285604E-3,-3.260397166E-2
3.222684839E1,2.825168520E-2,-4.581354558E-2,-3.611634299E-2
3.224695818E1,2.000524849E-2,-7.238540053E-2,-5.031854287E-2
3.226706792E1,-1.801999472E-2,-2.840439789E-2,-4.375193641E-2
3.228717771E1,-5.650337040E-2,1.679829881E-2,-2.344126441E-2
3.230728745E1,-6.184828654E-2,1.740914769E-2,-6.795675959E-3
3.232739724E1,-2.443389036E-2,-1.985253533E-3,-5.344913807E-4
3.234750704E1,2.550287358E-2,-1.527118124E-2,3.588727675E-3
3.236761678E1,5.680879578E-2,-3.588727489E-2,8.399150101E-4
3.238772657E1,5.283828825E-2,-4.474456236E-2,-1.488940232E-2
3.240783631E1,3.191677108E-2,-9.162708884E-4,-1.320957206E-2
3.242794610E1,8.246437646E-3,1.786728203E-2,-1.305686031E-2
3.244805584E1,-1.068982761E-3,9.773556143E-3,-9.391776286E-3
3.246816563E1,5.650337320E-3,5.955760833E-3,-1.443126611E-2
3.248827537E1,1.221694518E-2,1.145338640E-2,-1.320957206E-2
3.250838516E1,3.512371797E-3,1.374406274E-3,-4.657710437E-3
3.252849490E1,-3.665083554E-3,3.665083554E-3,4.352286924E-3
3.254860469E1,-5.497625098E-3,2.748812549E-3,8.475505747E-3
3.256871443E1,-1.527118147E-4,-7.330167107E-3,7.253811229E-3
3.258882422E1,3.359660041E-3,-9.468132630E-3,9.926267667E-4
3.260893401E1,-5.039489828E-3,-1.374406274E-3,3.130592173E-3
3.262904375E1,-1.359135192E-2,4.428642802E-3,1.046075951E-2
3.264915355E1,-1.985253580E-2,1.725643501E-2,8.475505747E-3
3.266926328E1,-2.748812735E-2,2.015795931E-2,4.046862945E-3
3.268937308E1,-2.382304333E-2,1.023169141E-2,4.352286924E-3
3.270948282E1,-2.137965523E-3,2.901524538E-3,1.756185899E-3
3.272959261E1,1.710372418E-2,-6.261184346E-3,-8.170082234E-3
3.274970235E1,2.443389036E-2,-2.000524849E-2,-1.336228382E-2
3.276981214E1,1.740914769E-2,-2.000524849E-2,-1.290414855E-2
3.278992188E1,1.404948719E-2,9.162708884E-4,-7.711946499E-3
3.281003167E1,1.588202827E-2,1.282779220E-2,-5.726693198E-3
3.283014141E1,1.389677543E-2,-2.748812549E-3,-1.122431830E-2
3.285025120E1,1.084253844E-2,-1.542389300E-2,-1.763821393E-2
3.287036094E1,2.183778957E-2,-1.038440317E-2,-2.313583903E-2
3.289047073E1,2.809897438E-2,-3.054236295E-3,-2.771719359E-2
3.291058047E1,2.550287358E-2,8.704573847E-3,-2.115058713E-2
3.293069021E1,1.832541823E-2,-1.389677543E-2,-3.229855001E-2
3.295080000E1,1.343864016E-2,-3.955236077E-2,-4.085041210E-2
3.297090974E1,2.596100792E-3,-2.626643144E-2,-3.122956678E-2
3.299101954E1,-1.542389300E-2,2.825168520E-2,-9.849912487E-3
3.301112928E1,-2.580829710E-2,6.047387794E-2,6.642963737E-3
3.303123907E1,-2.076880634E-2,3.145863488E-2,1.152974181E-2
3.305134881E1,-4.428642802E-3,-1.389677543E-2,-4.352286924E-3
3.307145860E1,2.153236605E-2,-2.305948362E-2,-1.519482583E-2
3.309156834E1,2.932066843E-2,-3.130592033E-2,-1.809635013E-2
3.311167813E1,1.740914769E-2,-2.733541466E-2,-9.391776286E-3
3.313178787E1,2.748812549E-3,-1.374406274E-3,-6.032116711E-3
3.315189766E1,-1.527118147E-3,1.481304597E-2,-4.504998680E-3
3.317200740E1,1.679830020E-3,6.719320081E-3,-2.290677221E-4
3.319211714E1,-9.162708884E-4,-4.275931045E-3,-5.344913807E-4
3.321222693E1,-2.458660305E-2,-9.926267900E-3,-4.199574701E-3
3.323233667E1,-4.718795046E-2,-1.328592747E-2,-7.864658721E-3
3.325244646E1,-2.275406010E-2,-1.771457121E-2,-1.756185899E-3
3.327255620E1,8.704573847E-3,-1.572931744E-2,-8.399150101E-4
3.329266599E1,1.252236869E-2,-1.191152167E-2,1.000262424E-2
3.331277573E1,1.649287529E-2,-1.282779220E-2,1.931804419E-2
3.333288547E1,2.061609551E-2,-3.970507067E-3,1.916533336E-2
3.335299526E1,1.893626526E-2,1.527118124E-2,1.412584260E-2
3.337310500E1,1.863084175E-2,2.489202656E-2,1.061347127E-2
3.339321480E1,1.527118124E-2,1.679829881E-2,3.588727675E-3
3.341332454E1,1.221694518E-3,8.704573847E-3,-1.076618303E-2
3.343343428E1,-1.343864016E-2,2.229592577E-2,-1.672194339E-2
3.345354407E1,-1.420219894E-2,4.764608666E-2,-1.840177365E-2
3.347365381E1,-9.926267900E-3,4.199574888E-2,-1.641651988E-2
3.349376360E1,-1.557660475E-2,2.596100792E-2,-1.519482583E-2
3.351387334E1,-3.008422814E-2,1.924168877E-2,-2.435753495E-2
3.353398308E1,-4.581354558E-2,1.068982668E-2,-3.275668249E-2
3.355409287E1,-3.298575059E-2,7.941014133E-3,-1.015533600E-2
3.357420261E1,4.886778072E-3,2.916795574E-2,2.825168660E-3
3.359431235E1,6.108472589E-3,1.404948719E-2,-6.948387716E-3
3.361442214E1,-1.618745178E-2,-1.786728203E-2,-1.947075687E-2
3.363453188E1,-1.786728203E-2,-3.344388679E-2,-4.810422193E-3
3.365464167E1,-1.817270555E-2,-4.031591862E-2,6.184828468E-3
3.367475141E1,-8.551862091E-3,3.436015919E-2,2.672456671E-3
3.369486115E1,-5.803049076E-3,1.725643501E-2,-1.351499557E-2
3.371497094E1,1.389677543E-2,-2.993151546E-2,-1.320957206E-2
3.373508068E1,4.749337584E-2,-4.672981426E-2,-2.252499200E-2
3.375519042E1,4.275930673E-2,-5.283828825E-2,-3.061871976E-2
3.377530021E1,1.053711493E-2,-1.832541823E-2,-2.634278871E-2
3.379540995E1,-1.511846948E-2,3.145863488E-2,-3.779617324E-2
3.381551969E1,-1.985253580E-2,1.786728203E-2,-3.718532622E-2
3.383562948E1,-9.162709117E-3,-3.939964995E-2,-3.153498843E-2
3.385573922E1,9.620844387E-3,-5.726693198E-2,-3.260397166E-2
3.387584896E1,1.542389300E-2,-3.756710514E-2,-2.710634656E-2
3.389595875E1,5.955760833E-3,-2.443389036E-2,-1.229330152E-2
3.391606849E1,6.413896102E-3,-2.825168520E-2,3.894151188E-3
3.393617823E1,2.596100792E-2,-3.603998944E-2,7.559234742E-3
3.395628802E1,4.291202128E-2,-5.528167635E-2,-4.352286924E-3
3.397639776E1,4.169032723E-2,-2.473931387E-2,-8.780929260E-3
3.399650750E1,1.404948719E-2,-2.519745007E-2,-1.305686031E-2
3.401661730E1,-1.328592747E-2,-1.420219894E-2,-1.550024934E-2
3.403672704E1,-3.237490356E-2,-2.641914412E-2,-1.840177365E-2
3.405683678E1,-4.260659590E-2,-2.137965523E-3,-2.099787444E-2
3.407694651E1,-3.145863488E-2,2.611372061E-2,-1.641651988E-2
3.409705631E1,-2.122694254E-2,1.557660475E-2,-1.824906096E-2
3.411716605E1,-2.443389036E-2,-1.450762246E-2,-1.794363745E-2
3.413727578E1,-2.870982140E-2,-2.657185495E-2,-2.084516361E-2
3.415738558E1,-5.955760833E-3,-2.550287358E-2,-2.115058713E-2
3.417749532E1,4.214845970E-2,-1.924168877E-2,-1.183516532E-2
3.419760506E1,-2.075353563E-1,4.810422286E-2,-3.382566571E-2
3.421771485E1,-3.416163325E-1,-3.268032894E-2,-7.635590737E-5
3.423782459E1,-9.055810422E-2,2.779355086E-2,-2.557922900E-2
3.425793433E1,2.021904439E-1,-3.909422457E-2,-5.398362502E-2
3.427804407E1,3.527642787E-1,-6.520794332E-2,-3.138227761E-2
